Data from AgNPs_APTES_FTO_Ket_100uM_NaF_0.1M_RamanShift__3__10-42-36-165.txt Node

Date: Tue Jun 14 10:42:36 BST 2022
User: TCL
Spectrometer: QEP01345
Trigger mode: 4
Integration Time (sec): 7.000000E0
Scans to average: 10
Electric dark correction enabled: true
Nonlinearity correction enabled: false
Boxcar width: 0
XAxis mode: Raman Shifts
Number of Pixels in Spectrum: 1044
>>>>>Begin Spectral Data<<<<<
46.04893	2.7875
50.45542	-0.9125
54.85868	-0.6125
59.25871	-0.6125
63.6555	27.3875
68.04907	30.3875
72.43941	36.6875
76.82654	40.4875
81.21044	38.3875
85.59113	43.6875
89.96862	42.5875
94.34289	49.3875
98.71396	51.8875
103.08183	47.7875
107.4465	48.0875
111.80798	49.5875
116.16626	48.1875
120.52136	51.8875
124.87327	48.7875
129.222	50.8875
133.56755	46.7875
137.90993	45.2875
142.24913	42.0875
146.58517	46.7875
150.91804	45.3875
155.24774	40.5875
159.57429	49.4875
163.89768	52.4875
168.21792	50.4875
172.53501	59.6875
176.84895	68.8875
181.15975	80.8875
185.46741	106.0875
189.77193	135.0875
194.07331	169.3875
198.37157	208.9875
202.6667	254.2875
206.9587	293.6875
211.24758	326.1875
215.53334	360.9875
219.81599	399.8875
224.09553	439.1875
228.37195	483.8875
232.64527	538.5875
236.91549	591.1875
241.18261	656.3875
245.44663	710.4875
249.70755	776.2875
253.96539	845.7875
258.22014	896.2875
262.4718	946.1875
266.72039	989.4875
270.96589	1031.8875
275.20832	1075.6875
279.44768	1089.3875
283.68397	1123.9875
287.91719	1137.6875
292.14735	1125.8875
296.37445	1088.3875
300.59849	1019.2875
304.81948	939.6875
309.03742	890.3875
313.25231	846.4875
317.46415	836.5875
321.67296	822.9875
325.87872	821.1875
330.08145	805.7875
334.28114	812.3875
338.47781	814.0875
342.67145	820.2875
346.86207	823.6875
351.04966	836.9875
355.23424	841.7875
359.4158	847.6875
363.59435	852.2875
367.76989	866.1875
371.94243	874.5875
376.11196	897.3875
380.27849	904.9875
384.44203	906.9875
388.60257	909.2875
392.76012	901.4875
396.91468	905.4875
401.06626	904.7875
405.21485	909.5875
409.36047	926.3875
413.50311	937.3875
417.64277	956.1875
421.77947	972.3875
425.9132	969.4875
430.04396	961.4875
434.17176	970.2875
438.2966	975.8875
442.41849	983.7875
446.53742	984.3875
450.6534	1006.6875
454.76644	1029.6875
458.87653	1062.3875
462.98368	1058.7875
467.08789	1039.0875
471.18916	1017.0875
475.2875	1006.2875
479.38291	1003.8875
483.4754	1023.3875
487.56496	1024.0875
491.6516	1033.0875
495.73531	1026.8875
499.81612	1020.5875
503.89401	1003.5875
507.96899	985.9875
512.04106	989.6875
516.11023	980.2875
520.1765	965.3875
524.23987	970.8875
528.30034	965.3875
532.35792	961.5875
536.41261	962.6875
540.46441	962.1875
544.51333	960.6875
548.55936	964.1875
552.60252	956.7875
556.64279	961.3875
560.6802	963.1875
564.71473	952.3875
568.7464	959.0875
572.7752	953.8875
576.80114	959.3875
580.82422	955.7875
584.84444	949.9875
588.86181	955.6875
592.87633	958.6875
596.888	957.6875
600.89682	963.6875
604.9028	962.5875
608.90594	955.5875
612.90624	963.8875
616.90371	963.4875
620.89834	966.6875
624.89015	955.7875
628.87913	961.6875
632.86528	952.0875
636.84862	966.1875
640.82913	962.5875
644.80683	961.3875
648.78172	964.8875
652.75379	963.0875
656.72306	961.4875
660.68952	968.1875
664.65319	971.2875
668.61405	966.7875
672.57211	965.6875
676.52738	974.4875
680.47986	980.9875
684.42955	980.3875
688.37646	992.0875
692.32058	997.7875
696.26192	995.9875
700.20048	1017.8875
704.13626	1035.2875
708.06928	1034.3875
711.99952	1041.1875
715.927	1020.4875
719.85171	1010.0875
723.77365	1000.8875
727.69284	989.8875
731.60928	988.1875
735.52295	981.4875
739.43388	974.5875
743.34206	988.0875
747.24749	984.1875
751.15017	978.1875
755.05012	982.0875
758.94733	975.0875
762.8418	978.2875
766.73354	978.7875
770.62254	980.6875
774.50882	976.8875
778.39237	979.2875
782.27321	972.4875
786.15132	974.5875
790.02671	983.4875
793.89938	973.9875
797.76935	970.8875
801.6366	969.5875
805.50115	972.7875
809.36299	972.1875
813.22213	972.4875
817.07857	955.1875
820.93231	976.8875
824.78336	976.4875
828.63172	974.2875
832.47738	980.1875
836.32036	983.1875
840.16066	981.8875
843.99827	992.7875
847.8332	988.9875
851.66546	986.8875
855.49504	983.8875
859.32195	972.4875
863.1462	972.9875
866.96777	973.0875
870.78668	977.3875
874.60293	991.3875
878.41652	989.9875
882.22745	1011.3875
886.03573	1063.4875
889.84136	1133.2875
893.64433	1135.8875
897.44466	1067.0875
901.24235	995.7875
905.0374	982.1875
908.8298	972.8875
912.61957	982.2875
916.40671	1001.1875
920.19121	1044.7875
923.97308	1103.8875
927.75233	1175.3875
931.52895	1187.9875
935.30295	1126.6875
939.07433	1061.4875
942.84309	1007.1875
946.60924	962.5875
950.37278	945.5875
954.13371	930.7875
957.89203	928.9875
961.64774	918.8875
965.40086	910.1875
969.15137	907.1875
972.89929	914.4875
976.64461	925.6875
980.38733	910.5875
984.12747	899.4875
987.86502	897.0875
991.59999	902.2875
995.33237	911.2875
999.06217	911.1875
1002.78939	917.6875
1006.51404	931.3875
1010.23611	938.4875
1013.95561	942.4875
1017.67255	927.5875
1021.38692	929.3875
1025.09872	934.1875
1028.80796	934.7875
1032.51465	937.1875
1036.21877	928.0875
1039.92035	933.8875
1043.61937	935.3875
1047.31584	954.8875
1051.00976	981.3875
1054.70114	981.3875
1058.38998	1014.9875
1062.07627	1090.0875
1065.76003	1090.1875
1069.44126	1019.7875
1073.11995	966.1875
1076.79611	932.5875
1080.46974	934.5875
1084.14085	926.9875
1087.80943	927.7875
1091.47549	948.4875
1095.13903	1003.3875
1098.80005	1102.5875
1102.45857	1138.9875
1106.11456	1092.6875
1109.76805	1005.7875
1113.41903	950.8875
1117.06751	948.8875
1120.71348	982.2875
1124.35696	1109.2875
1127.99793	1356.2875
1131.63641	1548.2875
1135.2724	1299.0875
1138.90589	1013.9875
1142.5369	911.1875
1146.16542	878.5875
1149.79145	859.3875
1153.415	851.4875
1157.03607	845.7875
1160.65467	847.6875
1164.27079	850.9875
1167.88443	842.0875
1171.49561	842.2875
1175.10432	836.0875
1178.71056	833.2875
1182.31434	836.2875
1185.91565	839.6875
1189.51451	833.9875
1193.11091	842.3875
1196.70485	828.0875
1200.29634	832.8875
1203.88538	832.8875
1207.47197	832.8875
1211.05612	828.3875
1214.63782	831.7875
1218.21708	824.4875
1221.79391	820.2875
1225.36829	817.9875
1228.94024	818.7875
1232.50976	812.4875
1236.07685	812.3875
1239.6415	819.8875
1243.20374	821.6875
1246.76355	821.1875
1250.32093	823.1875
1253.8759	822.5875
1257.42845	824.5875
1260.97859	818.0875
1264.52631	814.9875
1268.07163	813.7875
1271.61453	811.1875
1275.15503	815.4875
1278.69312	818.4875
1282.22882	818.8875
1285.76211	825.4875
1289.29301	838.7875
1292.82151	863.4875
1296.34761	916.1875
1299.87133	913.6875
1303.39266	866.5875
1306.9116	835.9875
1310.42815	827.4875
1313.94233	816.6875
1317.45412	811.5875
1320.96354	810.1875
1324.47058	806.7875
1327.97525	806.3875
1331.47754	790.9875
1334.97747	799.6875
1338.47502	791.9875
1341.97022	787.2875
1345.46305	789.8875
1348.95352	795.5875
1352.44163	794.3875
1355.92738	794.8875
1359.41078	797.7875
1362.89183	799.3875
1366.37053	811.2875
1369.84688	828.8875
1373.32088	846.1875
1376.79254	854.0875
1380.26186	876.5875
1383.72883	898.9875
1387.19347	922.9875
1390.65578	950.7875
1394.11575	997.3875
1397.57339	1064.1875
1401.0287	1106.5875
1404.48168	1128.6875
1407.93234	1113.8875
1411.38068	1080.8875
1414.82669	1034.7875
1418.27039	1003.5875
1421.71177	971.1875
1425.15083	936.5875
1428.58758	906.1875
1432.02203	894.0875
1435.45416	889.7875
1438.88399	884.6875
1442.31151	864.2875
1445.73673	834.6875
1449.15965	811.2875
1452.58027	803.2875
1455.9986	785.7875
1459.41463	780.9875
1462.82837	782.2875
1466.23982	759.4875
1469.64898	747.5875
1473.05586	717.3875
1476.46045	699.3875
1479.86276	682.9875
1483.26279	677.1875
1486.66054	662.5875
1490.05602	662.4875
1493.44922	649.2875
1496.84016	649.8875
1500.22882	638.9875
1503.61521	641.6875
1506.99934	636.2875
1510.38121	641.5875
1513.76081	639.4875
1517.13816	636.7875
1520.51324	640.9875
1523.88607	642.7875
1527.25665	635.2875
1530.62498	636.8875
1533.99105	637.0875
1537.35488	638.1875
1540.71647	636.8875
1544.07581	635.6875
1547.4329	638.4875
1550.78776	633.9875
1554.14038	635.4875
1557.49077	637.1875
1560.83892	633.4875
1564.18484	625.0875
1567.52853	627.7875
1570.86999	626.8875
1574.20922	626.4875
1577.54624	623.7875
1580.88103	628.4875
1584.2136	628.6875
1587.54395	629.9875
1590.87208	632.7875
1594.19801	623.1875
1597.52172	636.1875
1600.84321	626.0875
1604.16251	635.8875
1607.47959	632.7875
1610.79447	634.2875
1614.10715	636.4875
1617.41763	629.9875
1620.7259	626.0875
1624.03199	615.3875
1627.33587	619.2875
1630.63757	616.2875
1633.93707	615.8875
1637.23439	611.4875
1640.52951	609.6875
1643.82246	613.2875
1647.11321	607.3875
1650.40179	602.7875
1653.68819	599.2875
1656.97241	607.0875
1660.25446	597.4875
1663.53433	598.8875
1666.81203	587.8875
1670.08756	583.9875
1673.36092	575.5875
1676.63211	567.0875
1679.90115	563.9875
1683.16801	564.7875
1686.43272	563.2875
1689.69527	556.3875
1692.95567	555.7875
1696.2139	561.9875
1699.46999	571.3875
1702.72392	562.9875
1705.97571	551.0875
1709.22535	542.9875
1712.47284	536.6875
1715.71819	530.4875
1718.96139	535.0875
1722.20246	525.6875
1725.44139	520.0875
1728.67818	523.8875
1731.91284	516.0875
1735.14537	512.2875
1738.37576	518.6875
1741.60403	511.7875
1744.83017	513.0875
1748.05418	502.3875
1751.27607	511.3875
1754.49584	505.0875
1757.71349	507.3875
1760.92903	511.7875
1764.14244	503.4875
1767.35375	506.5875
1770.56294	507.2875
1773.77002	499.2875
1776.97499	495.6875
1780.17785	491.8875
1783.37861	488.7875
1786.57727	490.8875
1789.77382	486.9875
1792.96828	486.0875
1796.16064	477.6875
1799.3509	473.7875
1802.53907	478.1875
1805.72514	472.0875
1808.90913	468.0875
1812.09102	472.4875
1815.27083	468.8875
1818.44856	466.8875
1821.6242	462.7875
1824.79776	466.8875
1827.96924	456.6875
1831.13864	450.9875
1834.30597	456.0875
1837.47122	457.8875
1840.6344	452.1875
1843.7955	452.0875
1846.95454	451.6875
1850.11151	450.8875
1853.26642	446.2875
1856.41926	449.7875
1859.57004	446.9875
1862.71876	444.3875
1865.86542	442.0875
1869.01003	444.7875
1872.15258	442.9875
1875.29308	443.8875
1878.43152	434.7875
1881.56792	440.3875
1884.70227	437.5875
1887.83457	431.8875
1890.96482	434.1875
1894.09304	434.2875
1897.21921	435.5875
1900.34335	427.6875
1903.46544	431.2875
1906.58551	430.9875
1909.70353	423.0875
1912.81953	428.0875
1915.93349	420.4875
1919.04543	417.2875
1922.15534	418.4875
1925.26322	417.0875
1928.36908	419.3875
1931.47292	415.4875
1934.57473	414.6875
1937.67453	410.7875
1940.77232	409.5875
1943.86808	411.7875
1946.96184	403.2875
1950.05358	406.1875
1953.14331	409.7875
1956.23103	401.8875
1959.31675	401.1875
1962.40046	396.3875
1965.48217	401.4875
1968.56188	399.2875
1971.63959	395.0875
1974.7153	394.1875
1977.78901	390.2875
1980.86073	386.5875
1983.93046	390.8875
1986.99819	389.7875
1990.06394	386.8875
1993.1277	380.1875
1996.18947	383.4875
1999.24925	381.3875
2002.30706	382.5875
2005.36288	378.6875
2008.41672	378.1875
2011.46859	373.9875
2014.51848	373.6875
2017.56639	372.3875
2020.61233	369.1875
2023.6563	368.3875
2026.6983	372.5875
2029.73833	367.3875
2032.7764	366.7875
2035.8125	361.6875
2038.84664	362.2875
2041.87881	363.0875
2044.90903	359.6875
2047.93729	361.5875
2050.96359	361.1875
2053.98794	354.7875
2057.01034	355.2875
2060.03078	356.1875
2063.04927	353.9875
2066.06582	350.8875
2069.08042	353.2875
2072.09307	355.8875
2075.10378	352.8875
2078.11255	350.6875
2081.11938	349.0875
2084.12426	349.7875
2087.12722	353.7875
2090.12824	348.4875
2093.12732	347.1875
2096.12447	348.8875
2099.11969	349.2875
2102.11299	345.1875
2105.10435	346.5875
2108.09379	349.1875
2111.08131	342.3875
2114.0669	351.7875
2117.05057	346.7875
2120.03233	344.6875
2123.01216	347.8875
2125.99008	345.7875
2128.96609	348.2875
2131.94018	346.5875
2134.91236	345.0875
2137.88263	348.0875
2140.851	341.8875
2143.81746	344.4875
2146.78201	344.1875
2149.74466	342.5875
2152.7054	339.1875
2155.66425	334.7875
2158.6212	332.3875
2161.57625	339.7875
2164.52941	336.4875
2167.48067	334.9875
2170.43004	339.1875
2173.37752	335.0875
2176.32311	331.6875
2179.26681	332.8875
2182.20863	338.7875
2185.14856	337.4875
2188.08661	331.2875
2191.02278	334.1875
2193.95707	324.7875
2196.88948	325.4875
2199.82001	333.4875
2202.74867	324.5875
2205.67545	349.7875
2208.60037	342.6875
2211.52341	323.6875
2214.44458	323.9875
2217.36388	317.2875
2220.28132	316.6875
2223.1969	317.3875
2226.11061	315.3875
2229.02246	316.1875
2231.93245	315.1875
2234.84058	316.0875
2237.74686	310.7875
2240.65128	311.2875
2243.55385	310.3875
2246.45456	311.4875
2249.35343	311.5875
2252.25044	308.1875
2255.14561	305.1875
2258.03893	302.4875
2260.93041	309.6875
2263.82004	306.2875
2266.70783	305.2875
2269.59378	297.8875
2272.4779	300.1875
2275.36017	301.2875
2278.24061	296.9875
2281.11922	298.6875
2283.996	298.0875
2286.87094	294.3875
2289.74405	297.0875
2292.61534	297.1875
2295.4848	287.6875
2298.35243	295.0875
2301.21824	294.5875
2304.08223	291.7875
2306.94439	289.9875
2309.80474	287.3875
2312.66327	293.0875
2315.51999	291.4875
2318.37489	287.1875
2321.22797	293.2875
2324.07925	290.1875
2326.92871	288.8875
2329.77637	295.5875
2332.62222	293.0875
2335.46626	285.5875
2338.3085	286.0875
2341.14893	283.4875
2343.98756	275.5875
2346.8244	280.8875
2349.65943	283.4875
2352.49267	272.6875
2355.32411	278.9875
2358.15376	274.7875
2360.98161	275.2875
2363.80768	275.9875
2366.63195	272.9875
2369.45444	274.2875
2372.27514	265.5875
2375.09405	271.4875
2377.91118	271.0875
2380.72652	272.9875
2383.54009	268.9875
2386.35187	271.5875
2389.16188	273.2875
2391.97011	269.0875
2394.77657	265.0875
2397.58125	266.7875
2400.38416	265.7875
2403.18529	265.1875
2405.98466	268.1875
2408.78226	269.4875
2411.57809	266.3875
2414.37216	266.0875
2417.16446	270.0875
2419.955	268.7875
2422.74378	271.9875
2425.5308	267.8875
2428.31606	269.7875
2431.09956	273.0875
2433.88131	266.3875
2436.6613	271.6875
2439.43954	262.0875
2442.21603	265.5875
2444.99077	261.4875
2447.76377	262.8875
2450.53501	256.6875
2453.30451	253.1875
2456.07226	257.3875
2458.83827	252.1875
2461.60254	251.1875
2464.36507	246.0875
2467.12586	253.5875
2469.88492	254.9875
2472.64224	249.0875
2475.39782	252.2875
2478.15167	246.9875
2480.90379	246.0875
2483.65417	251.5875
2486.40283	248.8875
2489.14976	245.6875
2491.89497	248.9875
2494.63845	245.2875
2497.3802	244.0875
2500.12024	246.4875
2502.85855	244.2875
2505.59514	246.0875
2508.33002	241.0875
2511.06318	242.9875
2513.79462	235.8875
2516.52435	240.1875
2519.25237	238.2875
2521.97867	240.4875
2524.70327	237.9875
2527.42616	239.2875
2530.14734	234.9875
2532.86681	234.4875
2535.58458	238.2875
2538.30065	239.4875
2541.01501	234.4875
2543.72768	234.7875
2546.43864	236.4875
2549.14791	231.0875
2551.85548	236.7875
2554.56136	228.6875
2557.26554	236.2875
2559.96803	230.1875
2562.66883	229.5875
2565.36794	229.3875
2568.06536	231.3875
2570.7611	228.3875
2573.45514	229.4875
2576.14751	225.1875
2578.83819	224.6875
2581.52719	224.3875
2584.21451	224.3875
2586.90015	225.8875
2589.58411	226.1875
2592.2664	222.9875
2594.94701	226.4875
2597.62594	226.2875
2600.30321	222.8875
2602.9788	218.5875
2605.65273	224.7875
2608.32498	223.8875
2610.99557	224.4875
2613.66449	217.6875
2616.33175	218.3875
2618.99734	221.6875
2621.66128	217.5875
2624.32355	216.4875
2626.98416	218.4875
2629.64311	218.9875
2632.30041	218.7875
2634.95605	217.5875
2637.61004	218.6875
2640.26238	216.9875
2642.91306	219.5875
2645.56209	212.3875
2648.20948	211.5875
2650.85521	215.4875
2653.4993	216.4875
2656.14175	211.8875
2658.78255	215.9875
2661.42171	215.0875
2664.05923	215.1875
2666.6951	207.9875
2669.32934	216.7875
2671.96194	213.6875
2674.59291	213.6875
2677.22224	214.7875
2679.84993	214.2875
2682.476	214.9875
2685.10043	213.4875
2687.72324	212.2875
2690.34441	216.9875
2692.96396	217.9875
2695.58188	212.0875
2698.19818	215.9875
2700.81285	218.2875
2703.4259	223.2875
2706.03733	223.4875
2708.64714	221.7875
2711.25533	223.7875
2713.86191	218.0875
2716.46687	224.4875
2719.07021	220.3875
2721.67194	223.5875
2724.27206	226.9875
2726.87057	226.8875
2729.46747	236.6875
2732.06276	232.4875
2734.65644	232.9875
2737.24852	229.2875
2739.83899	229.1875
2742.42786	231.0875
2745.01513	225.9875
2747.60079	228.6875
2750.18486	224.9875
2752.76733	227.9875
2755.3482	222.5875
2757.92747	225.0875
2760.50515	223.9875
2763.08123	221.8875
2765.65573	219.5875
2768.22863	216.5875
2770.79994	218.3875
2773.36967	220.8875
2775.9378	219.1875
2778.50435	217.3875
2781.06932	215.7875
2783.6327	223.9875
2786.1945	220.6875
2788.75471	220.2875
2791.31335	217.8875
2793.87041	217.1875
2796.42589	216.2875
2798.97979	217.2875
2801.53212	218.2875
2804.08288	218.1875
2806.63206	221.6875
2809.17967	219.5875
2811.72571	221.9875
2814.27018	223.6875
2816.81308	220.8875
2819.35442	228.3875
2821.89419	221.0875
2824.43239	225.3875
2826.96904	229.9875
2829.50412	239.9875
2832.03763	246.5875
2834.56959	266.2875
2837.1	290.5875
2839.62884	322.4875
2842.15613	378.0875
2844.68186	434.4875
2847.20604	495.2875
2849.72867	518.5875
2852.24974	526.4875
2854.76927	532.3875
2857.28724	530.5875
2859.80367	525.7875
2862.31855	532.2875
2864.83189	527.4875
2867.34368	522.4875
2869.85393	530.5875
2872.36264	551.2875
2874.8698	573.4875
2877.37543	580.3875
2879.87952	562.9875
2882.38207	547.2875
2884.88308	536.3875
2887.38256	519.9875
2889.88051	512.1875
2892.37692	511.5875
2894.8718	517.9875
2897.36515	527.0875
2899.85698	531.3875
2902.34727	544.9875
2904.83604	560.9875
2907.32328	561.9875
2909.809	562.1875
2912.29319	565.6875
2914.77587	552.4875
2917.25702	537.4875
2919.73665	521.2875
2922.21476	518.5875
2924.69136	511.0875
2927.16644	508.5875
2929.64	507.4875
2932.11205	514.2875
2934.58258	519.4875
2937.05161	525.9875
2939.51912	511.8875
2941.98513	498.1875
2944.44962	469.3875
2946.91261	426.2875
2949.37409	402.6875
2951.83407	382.5875
2954.29254	371.4875
2956.74951	368.5875
2959.20498	378.5875
2961.65895	377.5875
2964.11142	382.5875
2966.56239	377.6875
2969.01186	366.6875
2971.45984	354.1875
2973.90632	341.7875
2976.35131	324.9875
2978.7948	320.6875
2981.23681	297.5875
2983.67732	293.8875
2986.11635	283.1875
2988.55388	277.6875
2990.98993	266.3875
2993.4245	266.1875
2995.85758	257.3875
2998.28917	261.6875
3000.71928	257.6875
3003.14791	259.8875
3005.57506	258.6875
3008.00073	249.4875
3010.42493	257.2875
3012.84764	259.5875
3015.26888	256.6875
3017.68865	251.9875
3020.10694	257.0875
3022.52376	255.7875
3024.9391	264.8875
3027.35298	262.0875
3029.76539	260.6875
3032.17632	261.1875
3034.5858	263.6875
3036.9938	266.9875
3039.40034	274.6875
3041.80542	266.4875
3044.20903	273.2875
3046.61118	273.3875
3049.01187	272.8875
3051.4111	282.2875
3053.80888	283.1875
3056.20519	283.6875
3058.60005	285.3875
3060.99345	285.4875
3063.3854	285.6875
3065.7759	295.7875
3068.16494	304.0875
3070.55254	301.9875
3072.93868	306.7875
3075.32338	310.6875
3077.70662	310.2875
3080.08842	311.1875
3082.46878	319.0875
3084.84769	317.1875
3087.22515	321.3875
3089.60118	328.1875
3091.97576	327.5875
3094.3489	334.2875
3096.72061	333.5875
3099.09087	342.8875
3101.4597	350.7875
3103.82709	348.6875
3106.19305	354.5875
3108.55757	364.9875
3110.92066	364.6875
3113.28232	368.4875
3115.64255	380.5875
3118.00134	379.3875
3120.35871	384.9875
3122.71466	389.4875
3125.06917	394.8875
3127.42226	397.7875
3129.77393	403.6875
3132.12417	408.2875
3134.47299	414.2875
3136.82039	415.7875
3139.16636	426.1875
3141.51092	431.0875
3143.85406	440.9875
3146.19579	441.3875
3148.53609	450.5875
3150.87499	453.8875
3153.21246	458.5875
3155.54853	469.7875
3157.88318	477.7875
3160.21642	479.4875
3162.54826	482.3875
3164.87868	494.4875
3167.2077	496.0875
3169.5353	509.5875
3171.86151	513.1875
3174.18631	515.4875
3176.5097	520.7875
3178.83169	525.8875
3181.15228	536.2875
3183.47147	530.5875
3185.78926	533.3875
3188.10565	541.4875
3190.42065	549.1875
3192.73424	554.4875
3195.04645	560.7875
3197.35725	562.0875
3199.66667	567.0875
3201.97469	575.2875
3204.28132	577.5875
3206.58656	588.2875
3208.8904	581.9875
3211.19287	588.6875
3213.49394	591.2875
3215.79363	594.0875
3218.09193	596.9875
3220.38884	600.5875
3222.68438	614.2875
3224.97853	605.0875
3227.2713	607.3875
3229.56269	611.5875
3231.8527	618.7875
3234.14133	619.0875
3236.42858	616.7875
3238.71446	616.2875
3240.99896	613.5875
3243.28209	609.5875
3245.56384	615.9875
3247.84423	620.5875
3250.12324	619.3875
3252.40088	619.9875
3254.67715	616.3875
3256.95205	611.2875
3259.22558	624.9875
3261.49775	626.1875
3263.76855	628.8875
3266.03799	624.5875
3268.30606	627.0875
3270.57277	628.1875
3272.83812	623.8875
3275.10211	624.0875
3277.36474	627.1875
3279.62601	626.3875
3281.88593	619.2875
3284.14448	621.7875
3286.40168	626.2875
3288.65753	621.2875
3290.91202	627.6875
3293.16516	625.8875
3295.41695	622.3875
3297.66738	625.2875
3299.91647	621.0875
3302.16421	613.7875
3304.4106	615.2875
3306.65564	610.9875
3308.89933	613.8875
3311.14169	611.0875
3313.38269	605.2875
3315.62236	605.5875
3317.86068	602.1875
3320.09766	598.0875
3322.3333	596.8875
3324.5676	590.9875
3326.80056	584.6875
3329.03219	584.6875
3331.26248	-0.1125
3333.49143	-0.6125
3335.71905	0.4875
