Data from AuAgCoreShell_UA_100uM_CRN_0uM_R6G_10uM_Scan_RamanShift__4__14-13-59-767.txt Node

Date: Thu Jun 23 14:13:59 BST 2022
User: TCL
Spectrometer: QEP01345
Trigger mode: 4
Integration Time (sec): 7.000000E0
Scans to average: 10
Electric dark correction enabled: true
Nonlinearity correction enabled: false
Boxcar width: 0
XAxis mode: Raman Shifts
Number of Pixels in Spectrum: 1044
>>>>>Begin Spectral Data<<<<<
46.04893	-0.4625
50.45542	-0.4625
54.85868	-0.3625
59.25871	-0.0625
63.6555	30.7375
68.04907	35.1375
72.43941	33.5375
76.82654	40.5375
81.21044	45.9375
85.59113	49.3375
89.96862	52.1375
94.34289	53.6375
98.71396	55.1375
103.08183	55.5375
107.4465	57.0375
111.80798	55.2375
116.16626	57.0375
120.52136	52.9375
124.87327	55.8375
129.222	55.6375
133.56755	53.5375
137.90993	50.6375
142.24913	48.7375
146.58517	47.9375
150.91804	54.5375
155.24774	53.2375
159.57429	55.8375
163.89768	59.9375
168.21792	62.6375
172.53501	71.1375
176.84895	85.2375
181.15975	100.6375
185.46741	132.3375
189.77193	169.3375
194.07331	217.6375
198.37157	270.8375
202.6667	332.4375
206.9587	386.8375
211.24758	446.2375
215.53334	509.2375
219.81599	572.2375
224.09553	636.1375
228.37195	712.8375
232.64527	808.0375
236.91549	903.7375
241.18261	996.5375
245.44663	1076.7375
249.70755	1164.6375
253.96539	1237.7375
258.22014	1269.9375
262.4718	1295.2375
266.72039	1305.9375
270.96589	1297.7375
275.20832	1269.8375
279.44768	1231.4375
283.68397	1191.4375
287.91719	1143.1375
292.14735	1103.2375
296.37445	1079.9375
300.59849	1051.7375
304.81948	1045.6375
309.03742	1036.2375
313.25231	1014.4375
317.46415	1003.3375
321.67296	974.2375
325.87872	965.5375
330.08145	959.3375
334.28114	957.2375
338.47781	974.6375
342.67145	985.7375
346.86207	997.3375
351.04966	1023.8375
355.23424	1031.7375
359.4158	1048.7375
363.59435	1059.9375
367.76989	1070.6375
371.94243	1083.7375
376.11196	1077.5375
380.27849	1081.1375
384.44203	1088.6375
388.60257	1090.5375
392.76012	1095.9375
396.91468	1106.2375
401.06626	1125.7375
405.21485	1128.9375
409.36047	1124.9375
413.50311	1119.2375
417.64277	1109.3375
421.77947	1107.8375
425.9132	1117.6375
430.04396	1106.7375
434.17176	1113.6375
438.2966	1119.5375
442.41849	1132.0375
446.53742	1137.2375
450.6534	1152.3375
454.76644	1159.0375
458.87653	1163.9375
462.98368	1164.2375
467.08789	1172.7375
471.18916	1168.2375
475.2875	1167.0375
479.38291	1161.0375
483.4754	1163.9375
487.56496	1170.7375
491.6516	1177.1375
495.73531	1170.7375
499.81612	1168.3375
503.89401	1168.5375
507.96899	1164.2375
512.04106	1160.9375
516.11023	1159.8375
520.1765	1170.7375
524.23987	1164.2375
528.30034	1149.9375
532.35792	1150.3375
536.41261	1151.0375
540.46441	1133.0375
544.51333	1128.0375
548.55936	1128.1375
552.60252	1131.2375
556.64279	1133.7375
560.6802	1139.5375
564.71473	1140.5375
568.7464	1153.6375
572.7752	1153.2375
576.80114	1141.1375
580.82422	1141.6375
584.84444	1146.5375
588.86181	1154.8375
592.87633	1150.1375
596.888	1169.3375
600.89682	1177.1375
604.9028	1227.1375
608.90594	1330.3375
612.90624	1453.4375
616.90371	1452.6375
620.89834	1341.0375
624.89015	1297.8375
628.87913	1295.6375
632.86528	1284.8375
636.84862	1276.7375
640.82913	1256.0375
644.80683	1227.4375
648.78172	1207.0375
652.75379	1200.9375
656.72306	1197.0375
660.68952	1206.1375
664.65319	1204.3375
668.61405	1191.0375
672.57211	1193.9375
676.52738	1208.0375
680.47986	1221.0375
684.42955	1240.2375
688.37646	1255.5375
692.32058	1252.2375
696.26192	1226.6375
700.20048	1216.4375
704.13626	1195.5375
708.06928	1205.3375
711.99952	1184.6375
715.927	1188.2375
719.85171	1191.9375
723.77365	1185.5375
727.69284	1183.4375
731.60928	1181.8375
735.52295	1168.6375
739.43388	1176.9375
743.34206	1172.5375
747.24749	1177.0375
751.15017	1172.3375
755.05012	1174.7375
758.94733	1183.4375
762.8418	1205.5375
766.73354	1261.2375
770.62254	1309.7375
774.50882	1329.5375
778.39237	1314.2375
782.27321	1262.0375
786.15132	1222.6375
790.02671	1204.6375
793.89938	1193.9375
797.76935	1202.3375
801.6366	1198.6375
805.50115	1203.0375
809.36299	1214.8375
813.22213	1213.4375
817.07857	1206.7375
820.93231	1198.1375
824.78336	1192.0375
828.63172	1178.6375
832.47738	1178.6375
836.32036	1181.2375
840.16066	1183.0375
843.99827	1175.5375
847.8332	1179.4375
851.66546	1175.2375
855.49504	1166.4375
859.32195	1170.2375
863.1462	1164.1375
866.96777	1163.8375
870.78668	1173.4375
874.60293	1174.4375
878.41652	1181.8375
882.22745	1193.8375
886.03573	1209.7375
889.84136	1214.9375
893.64433	1236.8375
897.44466	1241.2375
901.24235	1248.9375
905.0374	1248.7375
908.8298	1246.1375
912.61957	1249.6375
916.40671	1267.6375
920.19121	1285.4375
923.97308	1295.3375
927.75233	1305.4375
931.52895	1309.8375
935.30295	1291.3375
939.07433	1269.9375
942.84309	1243.7375
946.60924	1229.5375
950.37278	1213.5375
954.13371	1205.0375
957.89203	1185.3375
961.64774	1172.1375
965.40086	1153.7375
969.15137	1141.7375
972.89929	1137.8375
976.64461	1134.6375
980.38733	1128.0375
984.12747	1116.1375
987.86502	1115.9375
991.59999	1113.3375
995.33237	1105.2375
999.06217	1123.1375
1002.78939	1125.3375
1006.51404	1133.0375
1010.23611	1134.8375
1013.95561	1145.1375
1017.67255	1151.9375
1021.38692	1143.8375
1025.09872	1156.6375
1028.80796	1133.6375
1032.51465	1142.2375
1036.21877	1131.7375
1039.92035	1125.9375
1043.61937	1115.4375
1047.31584	1113.0375
1051.00976	1109.9375
1054.70114	1101.2375
1058.38998	1107.3375
1062.07627	1107.8375
1065.76003	1114.5375
1069.44126	1115.9375
1073.11995	1119.0375
1076.79611	1118.9375
1080.46974	1119.7375
1084.14085	1114.0375
1087.80943	1112.7375
1091.47549	1105.2375
1095.13903	1099.7375
1098.80005	1081.5375
1102.45857	1081.7375
1106.11456	1076.8375
1109.76805	1072.8375
1113.41903	1081.1375
1117.06751	1095.6375
1120.71348	1117.7375
1124.35696	1140.3375
1127.99793	1163.7375
1131.63641	1184.2375
1135.2724	1172.6375
1138.90589	1160.8375
1142.5369	1138.3375
1146.16542	1114.9375
1149.79145	1086.8375
1153.415	1072.8375
1157.03607	1062.1375
1160.65467	1055.7375
1164.27079	1062.8375
1167.88443	1074.8375
1171.49561	1098.3375
1175.10432	1122.7375
1178.71056	1163.9375
1182.31434	1198.3375
1185.91565	1213.3375
1189.51451	1184.2375
1193.11091	1158.0375
1196.70485	1134.5375
1200.29634	1121.8375
1203.88538	1108.2375
1207.47197	1112.8375
1211.05612	1083.0375
1214.63782	1065.7375
1218.21708	1061.7375
1221.79391	1051.9375
1225.36829	1053.8375
1228.94024	1048.2375
1232.50976	1047.8375
1236.07685	1057.0375
1239.6415	1058.5375
1243.20374	1062.2375
1246.76355	1071.6375
1250.32093	1074.2375
1253.8759	1077.9375
1257.42845	1085.9375
1260.97859	1089.8375
1264.52631	1100.2375
1268.07163	1085.7375
1271.61453	1109.2375
1275.15503	1113.4375
1278.69312	1106.8375
1282.22882	1111.7375
1285.76211	1115.5375
1289.29301	1129.4375
1292.82151	1145.9375
1296.34761	1162.1375
1299.87133	1189.2375
1303.39266	1223.0375
1306.9116	1274.5375
1310.42815	1333.5375
1313.94233	1345.1375
1317.45412	1321.3375
1320.96354	1273.8375
1324.47058	1227.9375
1327.97525	1191.2375
1331.47754	1174.8375
1334.97747	1168.6375
1338.47502	1169.5375
1341.97022	1185.3375
1345.46305	1219.0375
1348.95352	1272.3375
1352.44163	1336.2375
1355.92738	1403.8375
1359.41078	1511.4375
1362.89183	1607.5375
1366.37053	1607.7375
1369.84688	1507.7375
1373.32088	1375.6375
1376.79254	1317.0375
1380.26186	1274.7375
1383.72883	1264.2375
1387.19347	1244.5375
1390.65578	1219.7375
1394.11575	1220.8375
1397.57339	1197.5375
1401.0287	1185.2375
1404.48168	1176.7375
1407.93234	1176.4375
1411.38068	1162.8375
1414.82669	1161.6375
1418.27039	1152.3375
1421.71177	1147.8375
1425.15083	1129.0375
1428.58758	1113.0375
1432.02203	1095.3375
1435.45416	1076.2375
1438.88399	1063.5375
1442.31151	1045.0375
1445.73673	1032.1375
1449.15965	1027.7375
1452.58027	1019.2375
1455.9986	1015.9375
1459.41463	1014.3375
1462.82837	1009.4375
1466.23982	1020.4375
1469.64898	1023.8375
1473.05586	1024.4375
1476.46045	1022.5375
1479.86276	1034.5375
1483.26279	1037.2375
1486.66054	1042.7375
1490.05602	1046.5375
1493.44922	1066.2375
1496.84016	1097.9375
1500.22882	1144.8375
1503.61521	1217.6375
1506.99934	1305.7375
1510.38121	1368.6375
1513.76081	1377.0375
1517.13816	1315.2375
1520.51324	1218.1375
1523.88607	1139.4375
1527.25665	1079.0375
1530.62498	1048.8375
1533.99105	1037.9375
1537.35488	1024.7375
1540.71647	1018.9375
1544.07581	1019.7375
1547.4329	1027.0375
1550.78776	1024.9375
1554.14038	1029.3375
1557.49077	1035.8375
1560.83892	1044.1375
1564.18484	1049.0375
1567.52853	1062.2375
1570.86999	1090.2375
1574.20922	1099.2375
1577.54624	1100.4375
1580.88103	1079.0375
1584.2136	1051.8375
1587.54395	1015.1375
1590.87208	995.1375
1594.19801	983.6375
1597.52172	984.5375
1600.84321	973.7375
1604.16251	964.9375
1607.47959	953.1375
1610.79447	946.4375
1614.10715	936.9375
1617.41763	919.7375
1620.7259	920.8375
1624.03199	919.7375
1627.33587	906.6375
1630.63757	910.5375
1633.93707	908.6375
1637.23439	925.3375
1640.52951	932.1375
1643.82246	965.9375
1647.11321	1013.7375
1650.40179	1054.0375
1653.68819	1042.7375
1656.97241	1004.9375
1660.25446	945.3375
1663.53433	905.1375
1666.81203	870.9375
1670.08756	847.6375
1673.36092	837.9375
1676.63211	828.4375
1679.90115	822.5375
1683.16801	813.9375
1686.43272	809.8375
1689.69527	804.2375
1692.95567	798.6375
1696.2139	800.4375
1699.46999	791.3375
1702.72392	782.1375
1705.97571	775.3375
1709.22535	752.5375
1712.47284	757.2375
1715.71819	740.2375
1718.96139	728.2375
1722.20246	721.5375
1725.44139	719.9375
1728.67818	706.0375
1731.91284	690.9375
1735.14537	687.6375
1738.37576	683.6375
1741.60403	677.5375
1744.83017	674.3375
1748.05418	667.6375
1751.27607	666.1375
1754.49584	665.7375
1757.71349	654.6375
1760.92903	656.9375
1764.14244	658.4375
1767.35375	651.6375
1770.56294	650.6375
1773.77002	654.2375
1776.97499	643.3375
1780.17785	640.8375
1783.37861	642.9375
1786.57727	637.0375
1789.77382	633.8375
1792.96828	635.3375
1796.16064	628.8375
1799.3509	630.9375
1802.53907	623.8375
1805.72514	620.4375
1808.90913	617.2375
1812.09102	611.3375
1815.27083	616.5375
1818.44856	608.5375
1821.6242	611.8375
1824.79776	608.3375
1827.96924	602.0375
1831.13864	603.2375
1834.30597	606.2375
1837.47122	602.4375
1840.6344	598.0375
1843.7955	591.2375
1846.95454	594.3375
1850.11151	586.3375
1853.26642	587.5375
1856.41926	591.9375
1859.57004	591.4375
1862.71876	591.9375
1865.86542	585.1375
1869.01003	584.4375
1872.15258	581.5375
1875.29308	580.8375
1878.43152	579.0375
1881.56792	577.8375
1884.70227	569.2375
1887.83457	573.4375
1890.96482	566.8375
1894.09304	570.1375
1897.21921	569.6375
1900.34335	561.4375
1903.46544	560.9375
1906.58551	562.3375
1909.70353	563.0375
1912.81953	561.9375
1915.93349	563.1375
1919.04543	561.6375
1922.15534	554.8375
1925.26322	558.9375
1928.36908	554.3375
1931.47292	553.3375
1934.57473	556.5375
1937.67453	552.1375
1940.77232	553.0375
1943.86808	553.4375
1946.96184	543.9375
1950.05358	539.4375
1953.14331	535.9375
1956.23103	535.3375
1959.31675	535.5375
1962.40046	533.9375
1965.48217	527.4375
1968.56188	526.7375
1971.63959	520.9375
1974.7153	526.4375
1977.78901	520.6375
1980.86073	522.7375
1983.93046	513.0375
1986.99819	513.8375
1990.06394	511.9375
1993.1277	513.7375
1996.18947	512.4375
1999.24925	504.7375
2002.30706	501.8375
2005.36288	504.8375
2008.41672	499.1375
2011.46859	492.8375
2014.51848	498.1375
2017.56639	501.9375
2020.61233	488.5375
2023.6563	491.1375
2026.6983	487.5375
2029.73833	488.0375
2032.7764	481.6375
2035.8125	478.4375
2038.84664	483.9375
2041.87881	481.8375
2044.90903	479.0375
2047.93729	476.9375
2050.96359	472.1375
2053.98794	477.7375
2057.01034	475.2375
2060.03078	476.7375
2063.04927	478.7375
2066.06582	471.0375
2069.08042	477.0375
2072.09307	477.2375
2075.10378	472.9375
2078.11255	469.0375
2081.11938	474.9375
2084.12426	474.6375
2087.12722	472.2375
2090.12824	476.9375
2093.12732	474.6375
2096.12447	477.5375
2099.11969	473.2375
2102.11299	477.7375
2105.10435	471.7375
2108.09379	478.3375
2111.08131	466.9375
2114.0669	474.2375
2117.05057	472.0375
2120.03233	473.8375
2123.01216	471.7375
2125.99008	473.1375
2128.96609	477.1375
2131.94018	477.5375
2134.91236	475.9375
2137.88263	476.2375
2140.851	485.2375
2143.81746	479.7375
2146.78201	484.0375
2149.74466	474.7375
2152.7054	488.5375
2155.66425	485.9375
2158.6212	488.8375
2161.57625	487.1375
2164.52941	495.7375
2167.48067	493.0375
2170.43004	499.3375
2173.37752	503.1375
2176.32311	508.6375
2179.26681	498.2375
2182.20863	497.1375
2185.14856	497.7375
2188.08661	495.8375
2191.02278	478.6375
2193.95707	480.6375
2196.88948	473.4375
2199.82001	465.4375
2202.74867	458.3375
2205.67545	451.3375
2208.60037	441.5375
2211.52341	443.4375
2214.44458	440.4375
2217.36388	435.3375
2220.28132	437.4375
2223.1969	438.8375
2226.11061	431.3375
2229.02246	426.8375
2231.93245	431.4375
2234.84058	431.3375
2237.74686	429.7375
2240.65128	426.9375
2243.55385	423.6375
2246.45456	422.7375
2249.35343	424.6375
2252.25044	419.9375
2255.14561	418.1375
2258.03893	416.7375
2260.93041	419.8375
2263.82004	415.1375
2266.70783	421.9375
2269.59378	411.4375
2272.4779	410.8375
2275.36017	409.9375
2278.24061	409.1375
2281.11922	410.3375
2283.996	408.1375
2286.87094	401.9375
2289.74405	401.8375
2292.61534	403.9375
2295.4848	403.8375
2298.35243	403.8375
2301.21824	397.7375
2304.08223	396.4375
2306.94439	398.9375
2309.80474	393.4375
2312.66327	396.6375
2315.51999	396.4375
2318.37489	393.8375
2321.22797	398.1375
2324.07925	389.6375
2326.92871	391.7375
2329.77637	399.1375
2332.62222	388.6375
2335.46626	387.4375
2338.3085	384.3375
2341.14893	387.7375
2343.98756	382.1375
2346.8244	381.1375
2349.65943	377.9375
2352.49267	385.5375
2355.32411	383.0375
2358.15376	386.1375
2360.98161	382.9375
2363.80768	375.8375
2366.63195	382.0375
2369.45444	380.8375
2372.27514	377.9375
2375.09405	376.9375
2377.91118	376.1375
2380.72652	369.5375
2383.54009	365.4375
2386.35187	374.4375
2389.16188	372.0375
2391.97011	370.2375
2394.77657	368.0375
2397.58125	360.2375
2400.38416	360.9375
2403.18529	369.3375
2405.98466	360.2375
2408.78226	360.7375
2411.57809	358.2375
2414.37216	360.7375
2417.16446	362.2375
2419.955	360.2375
2422.74378	359.9375
2425.5308	352.7375
2428.31606	357.0375
2431.09956	352.2375
2433.88131	355.6375
2436.6613	349.3375
2439.43954	356.0375
2442.21603	349.0375
2444.99077	358.8375
2447.76377	357.0375
2450.53501	350.4375
2453.30451	350.8375
2456.07226	349.1375
2458.83827	346.6375
2461.60254	349.7375
2464.36507	348.6375
2467.12586	345.8375
2469.88492	349.6375
2472.64224	346.5375
2475.39782	343.1375
2478.15167	342.9375
2480.90379	342.3375
2483.65417	342.3375
2486.40283	343.6375
2489.14976	338.8375
2491.89497	340.5375
2494.63845	339.2375
2497.3802	341.5375
2500.12024	340.4375
2502.85855	340.3375
2505.59514	337.7375
2508.33002	337.8375
2511.06318	339.0375
2513.79462	333.4375
2516.52435	333.6375
2519.25237	331.3375
2521.97867	328.4375
2524.70327	327.9375
2527.42616	328.1375
2530.14734	325.3375
2532.86681	326.0375
2535.58458	325.9375
2538.30065	329.2375
2541.01501	323.9375
2543.72768	324.4375
2546.43864	319.7375
2549.14791	321.5375
2551.85548	323.8375
2554.56136	319.7375
2557.26554	319.2375
2559.96803	319.1375
2562.66883	323.2375
2565.36794	315.1375
2568.06536	319.4375
2570.7611	313.5375
2573.45514	312.5375
2576.14751	315.2375
2578.83819	314.6375
2581.52719	316.1375
2584.21451	312.9375
2586.90015	311.4375
2589.58411	309.6375
2592.2664	308.5375
2594.94701	303.6375
2597.62594	305.1375
2600.30321	302.7375
2602.9788	307.4375
2605.65273	306.2375
2608.32498	308.2375
2610.99557	302.9375
2613.66449	303.8375
2616.33175	303.3375
2618.99734	300.9375
2621.66128	305.5375
2624.32355	298.9375
2626.98416	302.0375
2629.64311	297.0375
2632.30041	300.4375
2634.95605	296.9375
2637.61004	294.0375
2640.26238	299.1375
2642.91306	295.4375
2645.56209	297.3375
2648.20948	289.3375
2650.85521	295.8375
2653.4993	292.7375
2656.14175	293.9375
2658.78255	294.1375
2661.42171	292.0375
2664.05923	295.0375
2666.6951	293.8375
2669.32934	293.6375
2671.96194	291.2375
2674.59291	290.0375
2677.22224	297.3375
2679.84993	297.7375
2682.476	291.9375
2685.10043	291.4375
2687.72324	294.2375
2690.34441	290.7375
2692.96396	292.5375
2695.58188	292.7375
2698.19818	295.6375
2700.81285	298.4375
2703.4259	293.7375
2706.03733	295.2375
2708.64714	294.9375
2711.25533	289.9375
2713.86191	288.0375
2716.46687	294.8375
2719.07021	293.7375
2721.67194	293.4375
2724.27206	289.7375
2726.87057	291.7375
2729.46747	291.5375
2732.06276	295.5375
2734.65644	294.9375
2737.24852	291.6375
2739.83899	295.7375
2742.42786	287.5375
2745.01513	286.9375
2747.60079	291.7375
2750.18486	289.4375
2752.76733	290.9375
2755.3482	288.5375
2757.92747	287.0375
2760.50515	286.1375
2763.08123	286.3375
2765.65573	287.1375
2768.22863	287.2375
2770.79994	281.4375
2773.36967	284.7375
2775.9378	287.8375
2778.50435	284.2375
2781.06932	283.7375
2783.6327	280.5375
2786.1945	279.7375
2788.75471	282.6375
2791.31335	280.5375
2793.87041	275.8375
2796.42589	275.5375
2798.97979	283.9375
2801.53212	282.3375
2804.08288	281.7375
2806.63206	281.5375
2809.17967	275.6375
2811.72571	275.3375
2814.27018	278.2375
2816.81308	276.8375
2819.35442	273.0375
2821.89419	273.4375
2824.43239	275.4375
2826.96904	276.2375
2829.50412	273.9375
2832.03763	266.8375
2834.56959	275.6375
2837.1	271.8375
2839.62884	268.3375
2842.15613	274.7375
2844.68186	275.2375
2847.20604	276.2375
2849.72867	268.1375
2852.24974	274.3375
2854.76927	267.5375
2857.28724	275.1375
2859.80367	274.5375
2862.31855	270.0375
2864.83189	274.2375
2867.34368	269.4375
2869.85393	274.2375
2872.36264	278.1375
2874.8698	271.7375
2877.37543	273.7375
2879.87952	276.4375
2882.38207	273.7375
2884.88308	275.1375
2887.38256	274.7375
2889.88051	273.5375
2892.37692	276.1375
2894.8718	277.5375
2897.36515	277.2375
2899.85698	279.3375
2902.34727	280.9375
2904.83604	284.1375
2907.32328	292.7375
2909.809	290.9375
2912.29319	289.9375
2914.77587	288.6375
2917.25702	291.8375
2919.73665	294.1375
2922.21476	292.1375
2924.69136	297.8375
2927.16644	297.4375
2929.64	296.9375
2932.11205	303.6375
2934.58258	299.2375
2937.05161	301.0375
2939.51912	305.3375
2941.98513	295.9375
2944.44962	296.7375
2946.91261	302.1375
2949.37409	298.8375
2951.83407	295.7375
2954.29254	297.7375
2956.74951	291.8375
2959.20498	293.1375
2961.65895	292.8375
2964.11142	291.6375
2966.56239	297.2375
2969.01186	293.0375
2971.45984	294.5375
2973.90632	296.3375
2976.35131	298.9375
2978.7948	296.1375
2981.23681	291.8375
2983.67732	297.4375
2986.11635	298.3375
2988.55388	294.2375
2990.98993	298.1375
2993.4245	300.4375
2995.85758	297.2375
2998.28917	298.5375
3000.71928	303.2375
3003.14791	300.4375
3005.57506	298.9375
3008.00073	306.6375
3010.42493	306.1375
3012.84764	313.0375
3015.26888	312.6375
3017.68865	313.0375
3020.10694	312.1375
3022.52376	313.8375
3024.9391	314.9375
3027.35298	314.9375
3029.76539	312.3375
3032.17632	318.2375
3034.5858	317.5375
3036.9938	320.0375
3039.40034	325.2375
3041.80542	328.2375
3044.20903	327.5375
3046.61118	334.5375
3049.01187	335.7375
3051.4111	329.7375
3053.80888	331.6375
3056.20519	340.9375
3058.60005	342.3375
3060.99345	349.4375
3063.3854	344.7375
3065.7759	353.0375
3068.16494	353.0375
3070.55254	357.2375
3072.93868	358.4375
3075.32338	360.0375
3077.70662	363.3375
3080.08842	368.8375
3082.46878	372.8375
3084.84769	380.0375
3087.22515	375.8375
3089.60118	384.1375
3091.97576	386.0375
3094.3489	398.3375
3096.72061	390.1375
3099.09087	401.5375
3101.4597	405.8375
3103.82709	409.1375
3106.19305	417.0375
3108.55757	415.2375
3110.92066	422.7375
3113.28232	427.7375
3115.64255	432.5375
3118.00134	435.6375
3120.35871	442.4375
3122.71466	444.8375
3125.06917	452.9375
3127.42226	454.5375
3129.77393	462.2375
3132.12417	469.2375
3134.47299	470.8375
3136.82039	473.9375
3139.16636	480.9375
3141.51092	487.3375
3143.85406	493.3375
3146.19579	500.2375
3148.53609	507.3375
3150.87499	513.9375
3153.21246	522.9375
3155.54853	528.9375
3157.88318	533.8375
3160.21642	541.4375
3162.54826	546.2375
3164.87868	557.2375
3167.2077	555.5375
3169.5353	559.9375
3171.86151	572.8375
3174.18631	579.0375
3176.5097	584.7375
3178.83169	583.1375
3181.15228	592.5375
3183.47147	595.2375
3185.78926	593.1375
3188.10565	613.3375
3190.42065	610.6375
3192.73424	617.5375
3195.04645	611.8375
3197.35725	622.6375
3199.66667	633.5375
3201.97469	641.7375
3204.28132	638.8375
3206.58656	650.4375
3208.8904	657.9375
3211.19287	653.6375
3213.49394	657.4375
3215.79363	660.3375
3218.09193	664.4375
3220.38884	670.4375
3222.68438	671.0375
3224.97853	671.5375
3227.2713	680.0375
3229.56269	681.8375
3231.8527	685.3375
3234.14133	687.2375
3236.42858	685.0375
3238.71446	681.0375
3240.99896	686.5375
3243.28209	681.4375
3245.56384	682.2375
3247.84423	686.2375
3250.12324	681.1375
3252.40088	690.8375
3254.67715	687.9375
3256.95205	684.0375
3259.22558	695.9375
3261.49775	693.2375
3263.76855	694.0375
3266.03799	692.4375
3268.30606	688.6375
3270.57277	692.1375
3272.83812	696.6375
3275.10211	690.1375
3277.36474	692.6375
3279.62601	691.8375
3281.88593	696.0375
3284.14448	693.4375
3286.40168	691.9375
3288.65753	692.4375
3290.91202	693.7375
3293.16516	688.9375
3295.41695	695.3375
3297.66738	686.5375
3299.91647	687.9375
3302.16421	690.6375
3304.4106	683.3375
3306.65564	680.2375
3308.89933	675.6375
3311.14169	672.0375
3313.38269	666.5375
3315.62236	665.1375
3317.86068	663.5375
3320.09766	661.4375
3322.3333	663.6375
3324.5676	657.2375
3326.80056	647.5375
3329.03219	643.0375
3331.26248	0.2375
3333.49143	0.2375
3335.71905	1.1375
