Data from AuAgCoreShell_UA_100uM_CRN_0uM_R6G_10uM_Scan_RamanShift__1__14-10-29-762.txt Node

Date: Thu Jun 23 14:10:29 BST 2022
User: TCL
Spectrometer: QEP01345
Trigger mode: 4
Integration Time (sec): 7.000000E0
Scans to average: 10
Electric dark correction enabled: true
Nonlinearity correction enabled: false
Boxcar width: 0
XAxis mode: Raman Shifts
Number of Pixels in Spectrum: 1044
>>>>>Begin Spectral Data<<<<<
46.04893	-1.4625
50.45542	-0.9625
54.85868	1.1375
59.25871	1.0375
63.6555	31.5375
68.04907	37.3375
72.43941	34.7375
76.82654	40.3375
81.21044	42.9375
85.59113	49.2375
89.96862	51.7375
94.34289	49.9375
98.71396	57.3375
103.08183	55.3375
107.4465	58.3375
111.80798	53.0375
116.16626	55.0375
120.52136	50.8375
124.87327	55.9375
129.222	56.4375
133.56755	53.2375
137.90993	53.0375
142.24913	50.9375
146.58517	48.9375
150.91804	52.2375
155.24774	52.9375
159.57429	55.1375
163.89768	58.0375
168.21792	60.4375
172.53501	71.3375
176.84895	82.1375
181.15975	98.5375
185.46741	131.6375
189.77193	167.3375
194.07331	214.8375
198.37157	269.8375
202.6667	328.4375
206.9587	379.2375
211.24758	443.5375
215.53334	500.3375
219.81599	563.4375
224.09553	630.6375
228.37195	709.2375
232.64527	804.4375
236.91549	890.6375
241.18261	990.8375
245.44663	1070.9375
249.70755	1152.1375
253.96539	1217.0375
258.22014	1257.0375
262.4718	1280.1375
266.72039	1289.4375
270.96589	1281.4375
275.20832	1267.5375
279.44768	1222.9375
283.68397	1175.7375
287.91719	1136.3375
292.14735	1099.1375
296.37445	1071.3375
300.59849	1053.8375
304.81948	1036.0375
309.03742	1022.8375
313.25231	1011.8375
317.46415	991.0375
321.67296	964.3375
325.87872	954.3375
330.08145	951.9375
334.28114	952.3375
338.47781	963.2375
342.67145	970.0375
346.86207	999.4375
351.04966	1005.7375
355.23424	1029.3375
359.4158	1037.7375
363.59435	1055.4375
367.76989	1061.0375
371.94243	1067.2375
376.11196	1070.7375
380.27849	1075.5375
384.44203	1073.8375
388.60257	1090.4375
392.76012	1095.3375
396.91468	1098.9375
401.06626	1105.8375
405.21485	1113.9375
409.36047	1112.0375
413.50311	1101.9375
417.64277	1095.5375
421.77947	1087.8375
425.9132	1091.7375
430.04396	1088.2375
434.17176	1105.7375
438.2966	1106.0375
442.41849	1120.5375
446.53742	1130.7375
450.6534	1140.0375
454.76644	1151.8375
458.87653	1144.8375
462.98368	1149.5375
467.08789	1142.7375
471.18916	1150.2375
475.2875	1145.1375
479.38291	1145.1375
483.4754	1140.9375
487.56496	1151.2375
491.6516	1148.0375
495.73531	1166.0375
499.81612	1153.4375
503.89401	1152.2375
507.96899	1147.0375
512.04106	1149.9375
516.11023	1158.6375
520.1765	1147.3375
524.23987	1143.5375
528.30034	1139.3375
532.35792	1129.8375
536.41261	1131.0375
540.46441	1121.3375
544.51333	1125.8375
548.55936	1116.9375
552.60252	1119.7375
556.64279	1121.2375
560.6802	1127.1375
564.71473	1132.9375
568.7464	1132.0375
572.7752	1136.9375
576.80114	1130.8375
580.82422	1128.3375
584.84444	1124.9375
588.86181	1136.4375
592.87633	1136.1375
596.888	1146.9375
600.89682	1167.3375
604.9028	1215.9375
608.90594	1317.9375
612.90624	1446.2375
616.90371	1442.9375
620.89834	1330.4375
624.89015	1291.1375
628.87913	1269.9375
632.86528	1266.0375
636.84862	1263.8375
640.82913	1237.5375
644.80683	1204.1375
648.78172	1188.6375
652.75379	1182.9375
656.72306	1174.7375
660.68952	1188.5375
664.65319	1186.2375
668.61405	1170.3375
672.57211	1177.9375
676.52738	1182.8375
680.47986	1204.2375
684.42955	1224.1375
688.37646	1242.8375
692.32058	1232.0375
696.26192	1210.3375
700.20048	1195.8375
704.13626	1186.0375
708.06928	1188.8375
711.99952	1180.4375
715.927	1195.3375
719.85171	1192.3375
723.77365	1177.7375
727.69284	1167.8375
731.60928	1162.0375
735.52295	1158.6375
739.43388	1167.1375
743.34206	1147.7375
747.24749	1150.5375
751.15017	1162.3375
755.05012	1161.9375
758.94733	1162.0375
762.8418	1191.9375
766.73354	1242.5375
770.62254	1292.7375
774.50882	1317.2375
778.39237	1300.5375
782.27321	1251.6375
786.15132	1217.7375
790.02671	1187.1375
793.89938	1180.4375
797.76935	1184.3375
801.6366	1186.5375
805.50115	1192.2375
809.36299	1195.1375
813.22213	1193.6375
817.07857	1189.2375
820.93231	1190.2375
824.78336	1177.1375
828.63172	1164.9375
832.47738	1159.9375
836.32036	1155.6375
840.16066	1164.9375
843.99827	1166.7375
847.8332	1160.3375
851.66546	1159.3375
855.49504	1152.6375
859.32195	1146.3375
863.1462	1155.8375
866.96777	1143.0375
870.78668	1160.6375
874.60293	1154.9375
878.41652	1175.4375
882.22745	1177.6375
886.03573	1204.3375
889.84136	1211.0375
893.64433	1230.6375
897.44466	1232.0375
901.24235	1234.2375
905.0374	1244.4375
908.8298	1247.8375
912.61957	1248.5375
916.40671	1261.1375
920.19121	1269.8375
923.97308	1286.7375
927.75233	1302.7375
931.52895	1298.1375
935.30295	1282.2375
939.07433	1260.7375
942.84309	1236.5375
946.60924	1219.3375
950.37278	1210.7375
954.13371	1187.7375
957.89203	1165.6375
961.64774	1157.5375
965.40086	1148.2375
969.15137	1140.9375
972.89929	1125.4375
976.64461	1124.0375
980.38733	1114.4375
984.12747	1104.4375
987.86502	1099.5375
991.59999	1105.1375
995.33237	1102.8375
999.06217	1101.0375
1002.78939	1107.5375
1006.51404	1111.1375
1010.23611	1119.2375
1013.95561	1145.0375
1017.67255	1138.5375
1021.38692	1132.1375
1025.09872	1140.0375
1028.80796	1131.8375
1032.51465	1128.3375
1036.21877	1122.0375
1039.92035	1119.6375
1043.61937	1103.0375
1047.31584	1091.3375
1051.00976	1099.2375
1054.70114	1095.8375
1058.38998	1099.8375
1062.07627	1087.0375
1065.76003	1104.2375
1069.44126	1093.9375
1073.11995	1102.7375
1076.79611	1109.3375
1080.46974	1114.1375
1084.14085	1102.6375
1087.80943	1104.3375
1091.47549	1099.8375
1095.13903	1080.7375
1098.80005	1071.1375
1102.45857	1067.7375
1106.11456	1060.3375
1109.76805	1060.8375
1113.41903	1065.4375
1117.06751	1069.9375
1120.71348	1104.0375
1124.35696	1119.9375
1127.99793	1158.6375
1131.63641	1153.8375
1135.2724	1159.9375
1138.90589	1139.3375
1142.5369	1116.4375
1146.16542	1091.3375
1149.79145	1072.3375
1153.415	1062.4375
1157.03607	1058.4375
1160.65467	1046.6375
1164.27079	1054.2375
1167.88443	1048.4375
1171.49561	1082.7375
1175.10432	1112.4375
1178.71056	1149.2375
1182.31434	1193.1375
1185.91565	1198.3375
1189.51451	1172.5375
1193.11091	1147.5375
1196.70485	1128.0375
1200.29634	1115.2375
1203.88538	1104.5375
1207.47197	1087.4375
1211.05612	1067.0375
1214.63782	1055.9375
1218.21708	1045.7375
1221.79391	1044.1375
1225.36829	1043.4375
1228.94024	1042.6375
1232.50976	1042.6375
1236.07685	1043.0375
1239.6415	1045.1375
1243.20374	1053.6375
1246.76355	1058.0375
1250.32093	1068.6375
1253.8759	1071.2375
1257.42845	1072.3375
1260.97859	1083.9375
1264.52631	1085.1375
1268.07163	1095.2375
1271.61453	1098.7375
1275.15503	1107.0375
1278.69312	1109.4375
1282.22882	1109.8375
1285.76211	1110.5375
1289.29301	1125.5375
1292.82151	1143.1375
1296.34761	1159.2375
1299.87133	1177.2375
1303.39266	1219.9375
1306.9116	1276.4375
1310.42815	1326.2375
1313.94233	1339.5375
1317.45412	1319.1375
1320.96354	1266.1375
1324.47058	1228.9375
1327.97525	1182.2375
1331.47754	1164.3375
1334.97747	1165.8375
1338.47502	1167.7375
1341.97022	1189.4375
1345.46305	1222.0375
1348.95352	1270.5375
1352.44163	1334.5375
1355.92738	1409.4375
1359.41078	1504.4375
1362.89183	1614.6375
1366.37053	1623.5375
1369.84688	1510.3375
1373.32088	1390.5375
1376.79254	1320.8375
1380.26186	1282.2375
1383.72883	1268.8375
1387.19347	1246.5375
1390.65578	1234.3375
1394.11575	1222.3375
1397.57339	1208.0375
1401.0287	1197.5375
1404.48168	1182.1375
1407.93234	1180.2375
1411.38068	1173.8375
1414.82669	1168.2375
1418.27039	1161.5375
1421.71177	1161.5375
1425.15083	1137.8375
1428.58758	1120.8375
1432.02203	1101.3375
1435.45416	1083.6375
1438.88399	1068.9375
1442.31151	1058.5375
1445.73673	1041.3375
1449.15965	1042.4375
1452.58027	1027.5375
1455.9986	1028.7375
1459.41463	1027.2375
1462.82837	1015.1375
1466.23982	1020.9375
1469.64898	1016.9375
1473.05586	1021.2375
1476.46045	1024.3375
1479.86276	1029.7375
1483.26279	1030.6375
1486.66054	1042.9375
1490.05602	1059.3375
1493.44922	1073.2375
1496.84016	1098.5375
1500.22882	1152.9375
1503.61521	1225.9375
1506.99934	1315.2375
1510.38121	1378.5375
1513.76081	1393.3375
1517.13816	1331.9375
1520.51324	1222.9375
1523.88607	1133.5375
1527.25665	1080.8375
1530.62498	1052.5375
1533.99105	1034.3375
1537.35488	1022.9375
1540.71647	1015.9375
1544.07581	1015.9375
1547.4329	1015.0375
1550.78776	1016.9375
1554.14038	1027.9375
1557.49077	1038.5375
1560.83892	1035.8375
1564.18484	1046.7375
1567.52853	1061.3375
1570.86999	1080.7375
1574.20922	1095.1375
1577.54624	1099.5375
1580.88103	1078.9375
1584.2136	1041.4375
1587.54395	1015.4375
1590.87208	983.6375
1594.19801	977.2375
1597.52172	972.5375
1600.84321	965.8375
1604.16251	965.2375
1607.47959	952.8375
1610.79447	942.3375
1614.10715	925.0375
1617.41763	915.6375
1620.7259	911.2375
1624.03199	909.5375
1627.33587	908.8375
1630.63757	902.3375
1633.93707	905.8375
1637.23439	912.7375
1640.52951	927.4375
1643.82246	957.1375
1647.11321	1003.9375
1650.40179	1048.3375
1653.68819	1038.5375
1656.97241	998.4375
1660.25446	938.9375
1663.53433	898.6375
1666.81203	851.0375
1670.08756	843.0375
1673.36092	836.2375
1676.63211	816.5375
1679.90115	817.3375
1683.16801	808.0375
1686.43272	796.0375
1689.69527	801.7375
1692.95567	795.6375
1696.2139	785.1375
1699.46999	790.5375
1702.72392	774.0375
1705.97571	763.5375
1709.22535	752.4375
1712.47284	741.8375
1715.71819	731.1375
1718.96139	723.2375
1722.20246	712.8375
1725.44139	708.4375
1728.67818	695.6375
1731.91284	686.0375
1735.14537	685.4375
1738.37576	681.4375
1741.60403	678.1375
1744.83017	668.3375
1748.05418	660.6375
1751.27607	655.0375
1754.49584	656.9375
1757.71349	656.7375
1760.92903	652.8375
1764.14244	647.9375
1767.35375	652.8375
1770.56294	643.7375
1773.77002	638.6375
1776.97499	641.5375
1780.17785	630.0375
1783.37861	632.5375
1786.57727	635.6375
1789.77382	628.2375
1792.96828	626.7375
1796.16064	625.6375
1799.3509	618.2375
1802.53907	620.5375
1805.72514	619.2375
1808.90913	609.8375
1812.09102	612.8375
1815.27083	606.4375
1818.44856	605.8375
1821.6242	601.4375
1824.79776	597.4375
1827.96924	598.5375
1831.13864	598.7375
1834.30597	595.7375
1837.47122	596.2375
1840.6344	594.6375
1843.7955	587.9375
1846.95454	590.3375
1850.11151	578.0375
1853.26642	583.5375
1856.41926	586.6375
1859.57004	582.8375
1862.71876	584.2375
1865.86542	579.9375
1869.01003	581.4375
1872.15258	565.8375
1875.29308	574.9375
1878.43152	574.4375
1881.56792	572.6375
1884.70227	567.1375
1887.83457	563.1375
1890.96482	571.2375
1894.09304	561.5375
1897.21921	560.4375
1900.34335	563.8375
1903.46544	557.9375
1906.58551	552.2375
1909.70353	563.5375
1912.81953	561.6375
1915.93349	554.3375
1919.04543	554.5375
1922.15534	548.1375
1925.26322	550.2375
1928.36908	547.0375
1931.47292	545.4375
1934.57473	548.7375
1937.67453	542.5375
1940.77232	545.2375
1943.86808	538.7375
1946.96184	535.3375
1950.05358	534.5375
1953.14331	531.7375
1956.23103	531.5375
1959.31675	526.1375
1962.40046	528.2375
1965.48217	526.4375
1968.56188	522.6375
1971.63959	518.8375
1974.7153	519.2375
1977.78901	519.1375
1980.86073	514.9375
1983.93046	510.7375
1986.99819	511.7375
1990.06394	507.1375
1993.1277	505.9375
1996.18947	505.7375
1999.24925	500.8375
2002.30706	493.0375
2005.36288	499.1375
2008.41672	498.8375
2011.46859	495.2375
2014.51848	492.8375
2017.56639	487.4375
2020.61233	492.3375
2023.6563	489.3375
2026.6983	483.5375
2029.73833	482.4375
2032.7764	484.5375
2035.8125	473.7375
2038.84664	479.0375
2041.87881	476.9375
2044.90903	470.6375
2047.93729	474.3375
2050.96359	465.2375
2053.98794	473.6375
2057.01034	469.7375
2060.03078	469.6375
2063.04927	473.1375
2066.06582	472.7375
2069.08042	469.2375
2072.09307	467.5375
2075.10378	465.6375
2078.11255	468.1375
2081.11938	473.6375
2084.12426	469.0375
2087.12722	469.2375
2090.12824	465.0375
2093.12732	470.4375
2096.12447	472.9375
2099.11969	467.1375
2102.11299	477.7375
2105.10435	470.6375
2108.09379	469.4375
2111.08131	466.1375
2114.0669	469.8375
2117.05057	468.3375
2120.03233	470.4375
2123.01216	476.6375
2125.99008	478.7375
2128.96609	472.3375
2131.94018	472.3375
2134.91236	473.4375
2137.88263	475.9375
2140.851	475.9375
2143.81746	477.7375
2146.78201	474.7375
2149.74466	477.2375
2152.7054	481.7375
2155.66425	477.7375
2158.6212	483.3375
2161.57625	490.2375
2164.52941	490.4375
2167.48067	496.9375
2170.43004	496.2375
2173.37752	499.8375
2176.32311	503.0375
2179.26681	495.7375
2182.20863	496.8375
2185.14856	489.3375
2188.08661	484.9375
2191.02278	479.0375
2193.95707	471.9375
2196.88948	465.6375
2199.82001	458.0375
2202.74867	451.8375
2205.67545	451.0375
2208.60037	443.2375
2211.52341	443.6375
2214.44458	442.2375
2217.36388	431.5375
2220.28132	432.1375
2223.1969	435.5375
2226.11061	429.6375
2229.02246	426.4375
2231.93245	424.6375
2234.84058	425.2375
2237.74686	427.0375
2240.65128	422.6375
2243.55385	419.5375
2246.45456	417.4375
2249.35343	419.3375
2252.25044	418.3375
2255.14561	419.3375
2258.03893	413.8375
2260.93041	414.0375
2263.82004	412.4375
2266.70783	410.8375
2269.59378	412.7375
2272.4779	409.1375
2275.36017	405.7375
2278.24061	403.1375
2281.11922	410.6375
2283.996	407.0375
2286.87094	402.9375
2289.74405	401.4375
2292.61534	399.3375
2295.4848	395.8375
2298.35243	393.4375
2301.21824	397.4375
2304.08223	397.1375
2306.94439	393.9375
2309.80474	392.2375
2312.66327	391.6375
2315.51999	392.1375
2318.37489	387.9375
2321.22797	389.8375
2324.07925	390.2375
2326.92871	387.6375
2329.77637	394.8375
2332.62222	381.5375
2335.46626	381.6375
2338.3085	380.1375
2341.14893	383.3375
2343.98756	380.7375
2346.8244	379.8375
2349.65943	373.2375
2352.49267	384.7375
2355.32411	376.6375
2358.15376	375.6375
2360.98161	375.2375
2363.80768	373.8375
2366.63195	374.1375
2369.45444	374.5375
2372.27514	371.6375
2375.09405	376.1375
2377.91118	372.6375
2380.72652	362.3375
2383.54009	369.8375
2386.35187	365.3375
2389.16188	363.3375
2391.97011	368.9375
2394.77657	371.4375
2397.58125	362.3375
2400.38416	363.2375
2403.18529	361.5375
2405.98466	355.2375
2408.78226	356.7375
2411.57809	359.9375
2414.37216	357.7375
2417.16446	354.2375
2419.955	357.1375
2422.74378	358.1375
2425.5308	350.8375
2428.31606	354.9375
2431.09956	354.4375
2433.88131	351.5375
2436.6613	353.4375
2439.43954	349.0375
2442.21603	352.4375
2444.99077	350.6375
2447.76377	346.9375
2450.53501	348.2375
2453.30451	347.1375
2456.07226	345.4375
2458.83827	348.7375
2461.60254	347.0375
2464.36507	343.0375
2467.12586	342.0375
2469.88492	339.2375
2472.64224	342.4375
2475.39782	341.1375
2478.15167	340.3375
2480.90379	341.3375
2483.65417	339.1375
2486.40283	339.8375
2489.14976	333.5375
2491.89497	334.3375
2494.63845	339.8375
2497.3802	338.7375
2500.12024	332.4375
2502.85855	333.0375
2505.59514	337.1375
2508.33002	336.7375
2511.06318	329.1375
2513.79462	329.4375
2516.52435	324.8375
2519.25237	325.6375
2521.97867	329.5375
2524.70327	325.7375
2527.42616	327.0375
2530.14734	325.7375
2532.86681	321.4375
2535.58458	326.8375
2538.30065	325.3375
2541.01501	321.3375
2543.72768	326.8375
2546.43864	322.8375
2549.14791	315.6375
2551.85548	321.0375
2554.56136	319.7375
2557.26554	320.7375
2559.96803	317.1375
2562.66883	313.1375
2565.36794	309.7375
2568.06536	317.5375
2570.7611	312.3375
2573.45514	312.6375
2576.14751	314.1375
2578.83819	312.4375
2581.52719	313.1375
2584.21451	309.2375
2586.90015	310.1375
2589.58411	307.5375
2592.2664	303.8375
2594.94701	308.6375
2597.62594	301.0375
2600.30321	307.4375
2602.9788	300.7375
2605.65273	305.5375
2608.32498	301.0375
2610.99557	299.8375
2613.66449	299.3375
2616.33175	301.1375
2618.99734	302.4375
2621.66128	299.8375
2624.32355	298.4375
2626.98416	300.5375
2629.64311	299.1375
2632.30041	300.5375
2634.95605	295.7375
2637.61004	295.7375
2640.26238	299.3375
2642.91306	292.9375
2645.56209	294.0375
2648.20948	289.3375
2650.85521	295.9375
2653.4993	289.4375
2656.14175	287.1375
2658.78255	293.5375
2661.42171	291.2375
2664.05923	298.0375
2666.6951	289.3375
2669.32934	292.4375
2671.96194	292.8375
2674.59291	289.4375
2677.22224	294.5375
2679.84993	291.0375
2682.476	291.9375
2685.10043	288.7375
2687.72324	291.6375
2690.34441	297.9375
2692.96396	289.4375
2695.58188	291.0375
2698.19818	288.7375
2700.81285	296.1375
2703.4259	298.6375
2706.03733	295.7375
2708.64714	295.3375
2711.25533	289.2375
2713.86191	292.9375
2716.46687	291.4375
2719.07021	292.6375
2721.67194	290.3375
2724.27206	291.8375
2726.87057	287.1375
2729.46747	292.1375
2732.06276	292.2375
2734.65644	293.6375
2737.24852	288.6375
2739.83899	291.6375
2742.42786	291.2375
2745.01513	288.1375
2747.60079	289.1375
2750.18486	288.8375
2752.76733	291.4375
2755.3482	284.7375
2757.92747	287.9375
2760.50515	285.9375
2763.08123	283.8375
2765.65573	286.6375
2768.22863	289.7375
2770.79994	282.5375
2773.36967	280.7375
2775.9378	289.3375
2778.50435	277.8375
2781.06932	279.8375
2783.6327	275.7375
2786.1945	277.6375
2788.75471	280.0375
2791.31335	276.1375
2793.87041	280.9375
2796.42589	280.0375
2798.97979	281.8375
2801.53212	278.5375
2804.08288	275.3375
2806.63206	275.6375
2809.17967	274.2375
2811.72571	276.8375
2814.27018	273.6375
2816.81308	278.6375
2819.35442	269.7375
2821.89419	270.1375
2824.43239	277.1375
2826.96904	273.8375
2829.50412	273.7375
2832.03763	268.4375
2834.56959	269.8375
2837.1	272.4375
2839.62884	267.1375
2842.15613	270.8375
2844.68186	272.8375
2847.20604	268.3375
2849.72867	273.7375
2852.24974	272.2375
2854.76927	269.9375
2857.28724	273.1375
2859.80367	270.0375
2862.31855	272.4375
2864.83189	279.2375
2867.34368	270.8375
2869.85393	270.1375
2872.36264	273.8375
2874.8698	271.7375
2877.37543	273.3375
2879.87952	276.0375
2882.38207	269.4375
2884.88308	274.7375
2887.38256	274.7375
2889.88051	275.3375
2892.37692	274.2375
2894.8718	278.0375
2897.36515	277.4375
2899.85698	281.6375
2902.34727	281.7375
2904.83604	283.6375
2907.32328	290.8375
2909.809	291.7375
2912.29319	294.1375
2914.77587	291.5375
2917.25702	288.9375
2919.73665	291.3375
2922.21476	298.9375
2924.69136	300.2375
2927.16644	293.8375
2929.64	295.2375
2932.11205	298.6375
2934.58258	298.5375
2937.05161	300.0375
2939.51912	294.7375
2941.98513	298.4375
2944.44962	300.3375
2946.91261	297.9375
2949.37409	293.4375
2951.83407	290.6375
2954.29254	295.2375
2956.74951	290.6375
2959.20498	291.5375
2961.65895	295.8375
2964.11142	292.7375
2966.56239	296.5375
2969.01186	291.1375
2971.45984	293.4375
2973.90632	292.7375
2976.35131	297.3375
2978.7948	292.3375
2981.23681	294.1375
2983.67732	298.0375
2986.11635	291.5375
2988.55388	294.0375
2990.98993	297.3375
2993.4245	299.9375
2995.85758	295.4375
2998.28917	295.8375
3000.71928	299.1375
3003.14791	299.9375
3005.57506	295.9375
3008.00073	305.3375
3010.42493	304.7375
3012.84764	307.5375
3015.26888	307.4375
3017.68865	303.7375
3020.10694	308.8375
3022.52376	309.8375
3024.9391	316.0375
3027.35298	311.2375
3029.76539	312.8375
3032.17632	316.0375
3034.5858	316.3375
3036.9938	323.7375
3039.40034	325.2375
3041.80542	325.7375
3044.20903	327.7375
3046.61118	329.5375
3049.01187	334.8375
3051.4111	331.4375
3053.80888	336.5375
3056.20519	338.9375
3058.60005	340.4375
3060.99345	346.0375
3063.3854	340.5375
3065.7759	347.6375
3068.16494	351.4375
3070.55254	351.1375
3072.93868	356.1375
3075.32338	360.0375
3077.70662	359.1375
3080.08842	364.5375
3082.46878	373.4375
3084.84769	374.1375
3087.22515	374.2375
3089.60118	377.8375
3091.97576	380.7375
3094.3489	387.0375
3096.72061	390.4375
3099.09087	400.3375
3101.4597	402.3375
3103.82709	402.7375
3106.19305	410.2375
3108.55757	414.5375
3110.92066	420.3375
3113.28232	424.5375
3115.64255	428.8375
3118.00134	431.1375
3120.35871	437.6375
3122.71466	441.1375
3125.06917	446.0375
3127.42226	451.1375
3129.77393	452.1375
3132.12417	466.1375
3134.47299	466.9375
3136.82039	470.9375
3139.16636	480.8375
3141.51092	481.8375
3143.85406	485.9375
3146.19579	497.1375
3148.53609	498.0375
3150.87499	507.8375
3153.21246	513.2375
3155.54853	523.5375
3157.88318	528.7375
3160.21642	531.4375
3162.54826	543.3375
3164.87868	543.2375
3167.2077	554.8375
3169.5353	557.2375
3171.86151	566.0375
3174.18631	567.3375
3176.5097	576.3375
3178.83169	579.3375
3181.15228	586.7375
3183.47147	591.2375
3185.78926	593.9375
3188.10565	607.1375
3190.42065	605.0375
3192.73424	612.1375
3195.04645	608.9375
3197.35725	616.6375
3199.66667	622.0375
3201.97469	631.8375
3204.28132	634.3375
3206.58656	638.0375
3208.8904	646.8375
3211.19287	646.5375
3213.49394	652.9375
3215.79363	657.3375
3218.09193	654.9375
3220.38884	660.1375
3222.68438	661.4375
3224.97853	665.5375
3227.2713	673.2375
3229.56269	668.7375
3231.8527	674.1375
3234.14133	674.2375
3236.42858	677.2375
3238.71446	671.6375
3240.99896	676.3375
3243.28209	676.3375
3245.56384	672.7375
3247.84423	679.2375
3250.12324	685.8375
3252.40088	685.8375
3254.67715	685.3375
3256.95205	681.1375
3259.22558	683.3375
3261.49775	685.0375
3263.76855	688.3375
3266.03799	688.8375
3268.30606	682.1375
3270.57277	680.6375
3272.83812	686.3375
3275.10211	682.3375
3277.36474	684.4375
3279.62601	687.9375
3281.88593	687.7375
3284.14448	685.8375
3286.40168	681.2375
3288.65753	691.1375
3290.91202	686.4375
3293.16516	689.0375
3295.41695	683.5375
3297.66738	675.2375
3299.91647	683.6375
3302.16421	682.5375
3304.4106	674.0375
3306.65564	668.8375
3308.89933	677.8375
3311.14169	665.9375
3313.38269	656.4375
3315.62236	660.3375
3317.86068	657.1375
3320.09766	650.2375
3322.3333	651.1375
3324.5676	647.3375
3326.80056	642.2375
3329.03219	638.0375
3331.26248	-0.8625
3333.49143	1.4375
3335.71905	0.8375
