Data from AuAgCoreShell_UA_100uM_CRN_0uM_R6G_10uM_Scan_RamanShift__6__14-16-19-770.txt Node

Date: Thu Jun 23 14:16:19 BST 2022
User: TCL
Spectrometer: QEP01345
Trigger mode: 4
Integration Time (sec): 7.000000E0
Scans to average: 10
Electric dark correction enabled: true
Nonlinearity correction enabled: false
Boxcar width: 0
XAxis mode: Raman Shifts
Number of Pixels in Spectrum: 1044
>>>>>Begin Spectral Data<<<<<
46.04893	-0.5625
50.45542	-0.5625
54.85868	-0.3625
59.25871	-0.0625
63.6555	32.8375
68.04907	34.7375
72.43941	36.9375
76.82654	43.3375
81.21044	42.0375
85.59113	50.4375
89.96862	54.6375
94.34289	55.4375
98.71396	56.3375
103.08183	54.2375
107.4465	59.8375
111.80798	57.2375
116.16626	60.4375
120.52136	51.1375
124.87327	54.7375
129.222	56.2375
133.56755	55.9375
137.90993	52.7375
142.24913	48.5375
146.58517	52.2375
150.91804	56.1375
155.24774	55.0375
159.57429	54.3375
163.89768	57.1375
168.21792	60.3375
172.53501	68.4375
176.84895	83.3375
181.15975	101.6375
185.46741	129.9375
189.77193	164.2375
194.07331	210.8375
198.37157	260.4375
202.6667	313.7375
206.9587	359.8375
211.24758	411.2375
215.53334	474.8375
219.81599	522.4375
224.09553	581.4375
228.37195	645.2375
232.64527	724.2375
236.91549	799.4375
241.18261	875.9375
245.44663	942.5375
249.70755	1012.1375
253.96539	1073.5375
258.22014	1117.0375
262.4718	1240.8375
266.72039	1157.8375
270.96589	1166.3375
275.20832	1156.3375
279.44768	1125.8375
283.68397	1105.9375
287.91719	1074.3375
292.14735	1055.2375
296.37445	1026.8375
300.59849	1028.8375
304.81948	1015.8375
309.03742	1010.1375
313.25231	1001.2375
317.46415	990.5375
321.67296	968.4375
325.87872	963.9375
330.08145	960.0375
334.28114	965.5375
338.47781	969.7375
342.67145	977.2375
346.86207	994.1375
351.04966	1014.5375
355.23424	1036.4375
359.4158	1048.9375
363.59435	1074.6375
367.76989	1074.4375
371.94243	1086.3375
376.11196	1087.5375
380.27849	1086.7375
384.44203	1094.8375
388.60257	1103.2375
392.76012	1107.1375
396.91468	1112.9375
401.06626	1133.2375
405.21485	1142.1375
409.36047	1137.0375
413.50311	1134.0375
417.64277	1124.2375
421.77947	1115.8375
425.9132	1115.4375
430.04396	1115.9375
434.17176	1130.9375
438.2966	1132.5375
442.41849	1139.0375
446.53742	1150.6375
450.6534	1163.1375
454.76644	1176.6375
458.87653	1169.0375
462.98368	1178.7375
467.08789	1164.8375
471.18916	1171.8375
475.2875	1175.0375
479.38291	1174.7375
483.4754	1174.5375
487.56496	1186.8375
491.6516	1187.7375
495.73531	1187.4375
499.81612	1183.4375
503.89401	1180.1375
507.96899	1183.3375
512.04106	1177.6375
516.11023	1185.6375
520.1765	1180.0375
524.23987	1181.0375
528.30034	1175.3375
532.35792	1161.6375
536.41261	1160.5375
540.46441	1147.9375
544.51333	1151.6375
548.55936	1150.4375
552.60252	1152.4375
556.64279	1154.8375
560.6802	1156.0375
564.71473	1167.8375
568.7464	1162.8375
572.7752	1169.9375
576.80114	1163.1375
580.82422	1163.4375
584.84444	1162.4375
588.86181	1165.1375
592.87633	1173.1375
596.888	1177.7375
600.89682	1204.0375
604.9028	1234.9375
608.90594	1339.8375
612.90624	1463.1375
616.90371	1445.1375
620.89834	1319.8375
624.89015	1274.8375
628.87913	1261.7375
632.86528	1271.5375
636.84862	1279.3375
640.82913	1266.2375
644.80683	1242.4375
648.78172	1224.4375
652.75379	1216.2375
656.72306	1211.3375
660.68952	1221.0375
664.65319	1218.0375
668.61405	1206.3375
672.57211	1205.9375
676.52738	1209.4375
680.47986	1233.8375
684.42955	1252.9375
688.37646	1260.0375
692.32058	1260.9375
696.26192	1237.3375
700.20048	1224.2375
704.13626	1211.1375
708.06928	1212.0375
711.99952	1206.5375
715.927	1203.8375
719.85171	1205.6375
723.77365	1200.8375
727.69284	1198.5375
731.60928	1186.3375
735.52295	1183.7375
739.43388	1187.4375
743.34206	1185.6375
747.24749	1189.5375
751.15017	1188.1375
755.05012	1186.0375
758.94733	1195.9375
762.8418	1225.0375
766.73354	1275.3375
770.62254	1330.5375
774.50882	1351.3375
778.39237	1322.4375
782.27321	1270.8375
786.15132	1247.8375
790.02671	1220.1375
793.89938	1218.1375
797.76935	1200.9375
801.6366	1205.8375
805.50115	1218.3375
809.36299	1225.2375
813.22213	1225.9375
817.07857	1211.4375
820.93231	1210.2375
824.78336	1203.9375
828.63172	1186.6375
832.47738	1192.4375
836.32036	1189.3375
840.16066	1184.8375
843.99827	1193.2375
847.8332	1181.9375
851.66546	1173.6375
855.49504	1169.3375
859.32195	1175.2375
863.1462	1173.2375
866.96777	1175.7375
870.78668	1176.5375
874.60293	1183.1375
878.41652	1182.6375
882.22745	1201.2375
886.03573	1212.7375
889.84136	1215.6375
893.64433	1224.4375
897.44466	1225.7375
901.24235	1222.1375
905.0374	1215.2375
908.8298	1232.5375
912.61957	1225.1375
916.40671	1228.5375
920.19121	1248.2375
923.97308	1258.4375
927.75233	1263.4375
931.52895	1264.4375
935.30295	1248.9375
939.07433	1238.6375
942.84309	1215.9375
946.60924	1198.6375
950.37278	1184.8375
954.13371	1165.7375
957.89203	1163.8375
961.64774	1150.9375
965.40086	1141.9375
969.15137	1131.0375
972.89929	1122.8375
976.64461	1117.5375
980.38733	1116.3375
984.12747	1102.4375
987.86502	1102.0375
991.59999	1104.4375
995.33237	1100.0375
999.06217	1102.1375
1002.78939	1117.9375
1006.51404	1119.3375
1010.23611	1128.9375
1013.95561	1138.4375
1017.67255	1146.5375
1021.38692	1140.6375
1025.09872	1144.9375
1028.80796	1128.0375
1032.51465	1129.6375
1036.21877	1132.0375
1039.92035	1116.8375
1043.61937	1110.9375
1047.31584	1113.1375
1051.00976	1101.3375
1054.70114	1098.0375
1058.38998	1107.7375
1062.07627	1104.7375
1065.76003	1106.1375
1069.44126	1104.8375
1073.11995	1124.4375
1076.79611	1120.7375
1080.46974	1124.5375
1084.14085	1124.4375
1087.80943	1119.3375
1091.47549	1110.3375
1095.13903	1098.2375
1098.80005	1083.6375
1102.45857	1081.8375
1106.11456	1072.8375
1109.76805	1087.9375
1113.41903	1074.5375
1117.06751	1088.4375
1120.71348	1113.7375
1124.35696	1149.9375
1127.99793	1162.9375
1131.63641	1178.7375
1135.2724	1177.4375
1138.90589	1164.4375
1142.5369	1146.4375
1146.16542	1115.2375
1149.79145	1090.6375
1153.415	1078.0375
1157.03607	1075.4375
1160.65467	1069.9375
1164.27079	1068.6375
1167.88443	1070.8375
1171.49561	1093.6375
1175.10432	1121.6375
1178.71056	1175.0375
1182.31434	1206.2375
1185.91565	1210.0375
1189.51451	1193.7375
1193.11091	1167.4375
1196.70485	1141.9375
1200.29634	1129.5375
1203.88538	1116.2375
1207.47197	1106.4375
1211.05612	1083.1375
1214.63782	1067.1375
1218.21708	1052.5375
1221.79391	1054.5375
1225.36829	1054.6375
1228.94024	1055.3375
1232.50976	1050.8375
1236.07685	1061.5375
1239.6415	1057.3375
1243.20374	1067.0375
1246.76355	1068.2375
1250.32093	1063.3375
1253.8759	1066.8375
1257.42845	1080.7375
1260.97859	1091.8375
1264.52631	1098.6375
1268.07163	1103.5375
1271.61453	1118.6375
1275.15503	1116.5375
1278.69312	1116.9375
1282.22882	1121.2375
1285.76211	1116.2375
1289.29301	1131.4375
1292.82151	1149.9375
1296.34761	1164.1375
1299.87133	1190.5375
1303.39266	1226.9375
1306.9116	1274.6375
1310.42815	1338.9375
1313.94233	1349.4375
1317.45412	1327.6375
1320.96354	1289.7375
1324.47058	1228.7375
1327.97525	1198.7375
1331.47754	1174.4375
1334.97747	1170.5375
1338.47502	1170.9375
1341.97022	1183.9375
1345.46305	1213.2375
1348.95352	1269.5375
1352.44163	1333.2375
1355.92738	1403.8375
1359.41078	1500.5375
1362.89183	1608.7375
1366.37053	1606.7375
1369.84688	1499.3375
1373.32088	1375.1375
1376.79254	1299.4375
1380.26186	1260.9375
1383.72883	1242.9375
1387.19347	1226.5375
1390.65578	1202.5375
1394.11575	1195.2375
1397.57339	1170.6375
1401.0287	1161.2375
1404.48168	1156.4375
1407.93234	1146.4375
1411.38068	1129.0375
1414.82669	1127.7375
1418.27039	1117.1375
1421.71177	1113.8375
1425.15083	1103.0375
1428.58758	1082.6375
1432.02203	1072.3375
1435.45416	1056.5375
1438.88399	1044.8375
1442.31151	1038.8375
1445.73673	1022.0375
1449.15965	1021.2375
1452.58027	1006.7375
1455.9986	1007.4375
1459.41463	995.4375
1462.82837	1011.1375
1466.23982	1012.4375
1469.64898	1017.2375
1473.05586	1016.6375
1476.46045	1020.0375
1479.86276	1020.9375
1483.26279	1031.1375
1486.66054	1033.1375
1490.05602	1040.3375
1493.44922	1065.4375
1496.84016	1084.4375
1500.22882	1137.5375
1503.61521	1201.0375
1506.99934	1284.8375
1510.38121	1358.4375
1513.76081	1374.7375
1517.13816	1322.2375
1520.51324	1223.3375
1523.88607	1138.7375
1527.25665	1080.4375
1530.62498	1044.6375
1533.99105	1026.7375
1537.35488	1019.7375
1540.71647	1006.9375
1544.07581	1006.1375
1547.4329	1017.1375
1550.78776	1008.1375
1554.14038	1019.9375
1557.49077	1025.3375
1560.83892	1034.2375
1564.18484	1040.3375
1567.52853	1044.9375
1570.86999	1073.3375
1574.20922	1083.4375
1577.54624	1097.9375
1580.88103	1077.2375
1584.2136	1048.2375
1587.54395	1019.5375
1590.87208	982.6375
1594.19801	982.6375
1597.52172	967.5375
1600.84321	973.5375
1604.16251	961.1375
1607.47959	933.3375
1610.79447	930.8375
1614.10715	926.8375
1617.41763	916.2375
1620.7259	911.1375
1624.03199	909.7375
1627.33587	901.3375
1630.63757	895.7375
1633.93707	904.8375
1637.23439	905.3375
1640.52951	927.5375
1643.82246	959.6375
1647.11321	1002.0375
1650.40179	1041.9375
1653.68819	1044.0375
1656.97241	987.6375
1660.25446	932.9375
1663.53433	886.0375
1666.81203	855.3375
1670.08756	835.4375
1673.36092	829.7375
1676.63211	819.3375
1679.90115	807.6375
1683.16801	799.8375
1686.43272	794.6375
1689.69527	791.0375
1692.95567	781.0375
1696.2139	781.0375
1699.46999	768.9375
1702.72392	766.3375
1705.97571	753.7375
1709.22535	737.5375
1712.47284	733.3375
1715.71819	719.6375
1718.96139	706.8375
1722.20246	696.6375
1725.44139	684.8375
1728.67818	679.8375
1731.91284	676.2375
1735.14537	670.0375
1738.37576	671.1375
1741.60403	658.5375
1744.83017	651.8375
1748.05418	656.9375
1751.27607	648.8375
1754.49584	645.4375
1757.71349	640.6375
1760.92903	636.9375
1764.14244	632.4375
1767.35375	627.1375
1770.56294	626.5375
1773.77002	622.5375
1776.97499	621.2375
1780.17785	619.5375
1783.37861	619.7375
1786.57727	612.6375
1789.77382	608.1375
1792.96828	605.5375
1796.16064	609.1375
1799.3509	607.3375
1802.53907	614.0375
1805.72514	601.8375
1808.90913	603.8375
1812.09102	591.4375
1815.27083	590.7375
1818.44856	588.9375
1821.6242	582.4375
1824.79776	583.7375
1827.96924	581.6375
1831.13864	580.4375
1834.30597	585.1375
1837.47122	584.8375
1840.6344	572.9375
1843.7955	572.1375
1846.95454	575.6375
1850.11151	570.5375
1853.26642	565.3375
1856.41926	569.4375
1859.57004	569.5375
1862.71876	566.7375
1865.86542	564.6375
1869.01003	567.3375
1872.15258	560.9375
1875.29308	557.3375
1878.43152	559.4375
1881.56792	558.5375
1884.70227	550.0375
1887.83457	548.0375
1890.96482	551.8375
1894.09304	549.5375
1897.21921	544.9375
1900.34335	553.0375
1903.46544	547.7375
1906.58551	538.0375
1909.70353	545.3375
1912.81953	537.8375
1915.93349	533.4375
1919.04543	537.8375
1922.15534	537.7375
1925.26322	532.4375
1928.36908	530.5375
1931.47292	537.4375
1934.57473	530.6375
1937.67453	529.3375
1940.77232	525.5375
1943.86808	527.5375
1946.96184	516.9375
1950.05358	519.3375
1953.14331	515.2375
1956.23103	506.3375
1959.31675	512.0375
1962.40046	512.2375
1965.48217	504.0375
1968.56188	504.4375
1971.63959	499.9375
1974.7153	504.5375
1977.78901	501.8375
1980.86073	497.8375
1983.93046	491.8375
1986.99819	490.9375
1990.06394	486.0375
1993.1277	492.3375
1996.18947	492.2375
1999.24925	480.3375
2002.30706	482.6375
2005.36288	480.6375
2008.41672	479.7375
2011.46859	477.0375
2014.51848	475.9375
2017.56639	470.9375
2020.61233	470.9375
2023.6563	474.2375
2026.6983	469.5375
2029.73833	463.5375
2032.7764	462.5375
2035.8125	460.9375
2038.84664	454.2375
2041.87881	458.8375
2044.90903	456.6375
2047.93729	458.1375
2050.96359	459.4375
2053.98794	453.9375
2057.01034	455.3375
2060.03078	453.3375
2063.04927	451.1375
2066.06582	448.1375
2069.08042	457.2375
2072.09307	449.6375
2075.10378	445.5375
2078.11255	445.0375
2081.11938	455.9375
2084.12426	446.2375
2087.12722	448.7375
2090.12824	453.6375
2093.12732	447.9375
2096.12447	449.7375
2099.11969	447.4375
2102.11299	453.3375
2105.10435	448.3375
2108.09379	449.7375
2111.08131	446.5375
2114.0669	443.8375
2117.05057	448.8375
2120.03233	445.6375
2123.01216	446.0375
2125.99008	451.7375
2128.96609	454.6375
2131.94018	452.7375
2134.91236	454.7375
2137.88263	455.3375
2140.851	453.4375
2143.81746	455.0375
2146.78201	459.4375
2149.74466	459.6375
2152.7054	463.0375
2155.66425	463.5375
2158.6212	467.8375
2161.57625	467.6375
2164.52941	473.8375
2167.48067	478.4375
2170.43004	474.6375
2173.37752	480.1375
2176.32311	480.1375
2179.26681	476.2375
2182.20863	473.5375
2185.14856	476.2375
2188.08661	467.1375
2191.02278	464.7375
2193.95707	455.0375
2196.88948	443.9375
2199.82001	439.5375
2202.74867	424.4375
2205.67545	426.5375
2208.60037	420.8375
2211.52341	421.6375
2214.44458	414.7375
2217.36388	414.9375
2220.28132	416.9375
2223.1969	412.5375
2226.11061	407.5375
2229.02246	406.3375
2231.93245	408.0375
2234.84058	407.2375
2237.74686	403.4375
2240.65128	405.4375
2243.55385	404.0375
2246.45456	396.6375
2249.35343	401.2375
2252.25044	396.4375
2255.14561	394.8375
2258.03893	396.2375
2260.93041	391.8375
2263.82004	394.7375
2266.70783	390.5375
2269.59378	391.5375
2272.4779	390.8375
2275.36017	385.8375
2278.24061	387.8375
2281.11922	387.3375
2283.996	387.2375
2286.87094	377.9375
2289.74405	378.1375
2292.61534	378.1375
2295.4848	379.1375
2298.35243	378.7375
2301.21824	379.9375
2304.08223	372.8375
2306.94439	379.3375
2309.80474	374.3375
2312.66327	374.1375
2315.51999	378.4375
2318.37489	371.4375
2321.22797	373.6375
2324.07925	370.5375
2326.92871	365.7375
2329.77637	373.1375
2332.62222	365.3375
2335.46626	367.3375
2338.3085	362.6375
2341.14893	365.4375
2343.98756	357.9375
2346.8244	358.0375
2349.65943	358.9375
2352.49267	360.9375
2355.32411	358.7375
2358.15376	358.2375
2360.98161	351.9375
2363.80768	357.5375
2366.63195	358.3375
2369.45444	354.0375
2372.27514	354.7375
2375.09405	352.8375
2377.91118	355.2375
2380.72652	345.8375
2383.54009	351.5375
2386.35187	352.1375
2389.16188	345.8375
2391.97011	352.1375
2394.77657	345.0375
2397.58125	341.5375
2400.38416	343.6375
2403.18529	341.9375
2405.98466	341.3375
2408.78226	336.3375
2411.57809	336.5375
2414.37216	332.7375
2417.16446	337.0375
2419.955	332.9375
2422.74378	335.4375
2425.5308	335.0375
2428.31606	332.8375
2431.09956	336.1375
2433.88131	327.3375
2436.6613	332.0375
2439.43954	325.6375
2442.21603	327.6375
2444.99077	332.2375
2447.76377	325.6375
2450.53501	334.9375
2453.30451	328.1375
2456.07226	326.8375
2458.83827	331.5375
2461.60254	323.6375
2464.36507	321.7375
2467.12586	319.8375
2469.88492	320.5375
2472.64224	316.7375
2475.39782	312.0375
2478.15167	316.9375
2480.90379	321.1375
2483.65417	322.4375
2486.40283	318.0375
2489.14976	313.3375
2491.89497	311.7375
2494.63845	319.6375
2497.3802	318.4375
2500.12024	313.3375
2502.85855	318.6375
2505.59514	319.4375
2508.33002	312.3375
2511.06318	313.9375
2513.79462	308.5375
2516.52435	309.8375
2519.25237	306.4375
2521.97867	305.0375
2524.70327	304.8375
2527.42616	306.9375
2530.14734	305.1375
2532.86681	301.0375
2535.58458	305.9375
2538.30065	306.7375
2541.01501	304.7375
2543.72768	302.6375
2546.43864	300.2375
2549.14791	301.9375
2551.85548	299.5375
2554.56136	300.6375
2557.26554	300.7375
2559.96803	295.8375
2562.66883	297.9375
2565.36794	291.9375
2568.06536	291.2375
2570.7611	295.2375
2573.45514	289.2375
2576.14751	289.4375
2578.83819	288.3375
2581.52719	295.3375
2584.21451	285.6375
2586.90015	288.4375
2589.58411	286.1375
2592.2664	284.8375
2594.94701	288.2375
2597.62594	284.9375
2600.30321	283.8375
2602.9788	285.6375
2605.65273	282.2375
2608.32498	287.0375
2610.99557	279.4375
2613.66449	281.6375
2616.33175	280.2375
2618.99734	277.1375
2621.66128	280.0375
2624.32355	278.9375
2626.98416	282.8375
2629.64311	280.7375
2632.30041	277.2375
2634.95605	275.2375
2637.61004	276.4375
2640.26238	275.3375
2642.91306	271.6375
2645.56209	272.4375
2648.20948	274.0375
2650.85521	273.5375
2653.4993	268.3375
2656.14175	268.9375
2658.78255	275.5375
2661.42171	269.9375
2664.05923	275.4375
2666.6951	273.7375
2669.32934	272.9375
2671.96194	270.9375
2674.59291	273.7375
2677.22224	271.7375
2679.84993	273.2375
2682.476	271.0375
2685.10043	269.0375
2687.72324	274.4375
2690.34441	271.5375
2692.96396	269.9375
2695.58188	267.8375
2698.19818	262.5375
2700.81285	273.4375
2703.4259	271.6375
2706.03733	267.8375
2708.64714	270.9375
2711.25533	266.9375
2713.86191	271.6375
2716.46687	268.8375
2719.07021	264.7375
2721.67194	268.6375
2724.27206	268.1375
2726.87057	266.0375
2729.46747	271.5375
2732.06276	265.0375
2734.65644	268.1375
2737.24852	267.0375
2739.83899	271.7375
2742.42786	269.7375
2745.01513	264.8375
2747.60079	268.0375
2750.18486	266.8375
2752.76733	268.9375
2755.3482	265.0375
2757.92747	268.7375
2760.50515	266.0375
2763.08123	261.2375
2765.65573	261.8375
2768.22863	264.0375
2770.79994	260.4375
2773.36967	266.4375
2775.9378	262.9375
2778.50435	259.7375
2781.06932	261.8375
2783.6327	256.4375
2786.1945	258.8375
2788.75471	261.6375
2791.31335	257.7375
2793.87041	257.6375
2796.42589	254.3375
2798.97979	256.0375
2801.53212	254.4375
2804.08288	255.0375
2806.63206	253.8375
2809.17967	254.4375
2811.72571	255.1375
2814.27018	256.1375
2816.81308	248.3375
2819.35442	245.3375
2821.89419	255.1375
2824.43239	249.4375
2826.96904	252.8375
2829.50412	252.9375
2832.03763	244.9375
2834.56959	252.1375
2837.1	246.6375
2839.62884	249.7375
2842.15613	252.4375
2844.68186	252.1375
2847.20604	253.1375
2849.72867	252.8375
2852.24974	251.3375
2854.76927	245.1375
2857.28724	244.7375
2859.80367	251.3375
2862.31855	251.2375
2864.83189	252.1375
2867.34368	249.4375
2869.85393	251.3375
2872.36264	252.9375
2874.8698	249.7375
2877.37543	255.6375
2879.87952	251.4375
2882.38207	250.8375
2884.88308	249.9375
2887.38256	252.3375
2889.88051	252.4375
2892.37692	253.8375
2894.8718	255.6375
2897.36515	254.8375
2899.85698	255.1375
2902.34727	256.0375
2904.83604	266.9375
2907.32328	261.8375
2909.809	266.3375
2912.29319	264.6375
2914.77587	266.0375
2917.25702	268.0375
2919.73665	271.5375
2922.21476	274.1375
2924.69136	274.5375
2927.16644	273.7375
2929.64	267.0375
2932.11205	275.2375
2934.58258	276.2375
2937.05161	274.9375
2939.51912	279.4375
2941.98513	272.1375
2944.44962	274.1375
2946.91261	275.8375
2949.37409	276.8375
2951.83407	270.7375
2954.29254	272.2375
2956.74951	270.6375
2959.20498	267.7375
2961.65895	273.4375
2964.11142	268.1375
2966.56239	269.0375
2969.01186	272.0375
2971.45984	272.6375
2973.90632	274.0375
2976.35131	273.6375
2978.7948	270.5375
2981.23681	272.3375
2983.67732	272.7375
2986.11635	275.7375
2988.55388	272.3375
2990.98993	274.0375
2993.4245	278.5375
2995.85758	271.6375
2998.28917	278.3375
3000.71928	281.9375
3003.14791	278.9375
3005.57506	279.5375
3008.00073	281.3375
3010.42493	292.0375
3012.84764	291.2375
3015.26888	286.8375
3017.68865	282.7375
3020.10694	290.4375
3022.52376	289.8375
3024.9391	292.5375
3027.35298	295.5375
3029.76539	296.4375
3032.17632	297.4375
3034.5858	299.0375
3036.9938	304.4375
3039.40034	305.9375
3041.80542	306.9375
3044.20903	308.1375
3046.61118	310.1375
3049.01187	313.6375
3051.4111	313.2375
3053.80888	316.9375
3056.20519	325.4375
3058.60005	321.0375
3060.99345	326.8375
3063.3854	323.8375
3065.7759	333.4375
3068.16494	327.8375
3070.55254	336.4375
3072.93868	338.6375
3075.32338	340.9375
3077.70662	348.9375
3080.08842	343.5375
3082.46878	353.3375
3084.84769	353.0375
3087.22515	351.9375
3089.60118	364.8375
3091.97576	364.3375
3094.3489	370.9375
3096.72061	375.8375
3099.09087	380.4375
3101.4597	385.6375
3103.82709	385.7375
3106.19305	395.3375
3108.55757	396.2375
3110.92066	401.0375
3113.28232	410.5375
3115.64255	413.8375
3118.00134	416.2375
3120.35871	424.3375
3122.71466	426.9375
3125.06917	426.3375
3127.42226	435.4375
3129.77393	443.5375
3132.12417	451.4375
3134.47299	451.0375
3136.82039	461.8375
3139.16636	461.7375
3141.51092	470.7375
3143.85406	476.1375
3146.19579	483.0375
3148.53609	484.8375
3150.87499	497.0375
3153.21246	499.0375
3155.54853	504.2375
3157.88318	515.9375
3160.21642	521.6375
3162.54826	531.6375
3164.87868	526.1375
3167.2077	539.4375
3169.5353	543.8375
3171.86151	547.3375
3174.18631	553.8375
3176.5097	556.4375
3178.83169	564.5375
3181.15228	572.0375
3183.47147	577.3375
3185.78926	579.1375
3188.10565	588.4375
3190.42065	590.8375
3192.73424	592.5375
3195.04645	596.6375
3197.35725	608.1375
3199.66667	608.4375
3201.97469	613.0375
3204.28132	623.3375
3206.58656	624.0375
3208.8904	625.7375
3211.19287	631.5375
3213.49394	641.5375
3215.79363	637.7375
3218.09193	644.9375
3220.38884	647.0375
3222.68438	649.3375
3224.97853	651.0375
3227.2713	655.0375
3229.56269	661.7375
3231.8527	661.6375
3234.14133	658.9375
3236.42858	661.4375
3238.71446	672.7375
3240.99896	668.6375
3243.28209	665.5375
3245.56384	663.8375
3247.84423	665.2375
3250.12324	662.2375
3252.40088	667.7375
3254.67715	663.6375
3256.95205	666.9375
3259.22558	675.9375
3261.49775	672.8375
3263.76855	678.9375
3266.03799	674.3375
3268.30606	672.8375
3270.57277	678.1375
3272.83812	669.9375
3275.10211	673.2375
3277.36474	673.1375
3279.62601	669.9375
3281.88593	669.1375
3284.14448	672.2375
3286.40168	667.1375
3288.65753	674.5375
3290.91202	674.4375
3293.16516	667.5375
3295.41695	667.8375
3297.66738	667.1375
3299.91647	672.5375
3302.16421	666.8375
3304.4106	660.0375
3306.65564	666.8375
3308.89933	653.8375
3311.14169	654.7375
3313.38269	648.9375
3315.62236	645.2375
3317.86068	639.8375
3320.09766	642.0375
3322.3333	648.1375
3324.5676	635.6375
3326.80056	624.8375
3329.03219	627.6375
3331.26248	-1.6625
3333.49143	1.2375
3335.71905	0.6375
