Data from AgNPs_APTES_FTO_UA_100uM_CRN_0uM_R6G_10uM_Scan_RamanShift__20__11-03-01-254.txt Node

Date: Wed Jun 29 11:03:01 BST 2022
User: TCL
Spectrometer: QEP01345
Trigger mode: 4
Integration Time (sec): 7.000000E0
Scans to average: 10
Electric dark correction enabled: true
Nonlinearity correction enabled: false
Boxcar width: 0
XAxis mode: Raman Shifts
Number of Pixels in Spectrum: 1044
>>>>>Begin Spectral Data<<<<<
46.04893	-0.1
50.45542	-0.4
54.85868	0.7
59.25871	0.8
63.6555	29.9
68.04907	31.5
72.43941	32.2
76.82654	31.3
81.21044	37.2
85.59113	36.5
89.96862	42.3
94.34289	42.8
98.71396	43.7
103.08183	44.4
107.4465	47.7
111.80798	47.4
116.16626	47
120.52136	44.8
124.87327	44.8
129.222	44.3
133.56755	40.8
137.90993	39.7
142.24913	43.6
146.58517	38.6
150.91804	39.8
155.24774	42.5
159.57429	42.7
163.89768	48.8
168.21792	48.5
172.53501	56.7
176.84895	65
181.15975	86.5
185.46741	106.5
189.77193	133.1
194.07331	170.9
198.37157	219.6
202.6667	265.9
206.9587	307.2
211.24758	354.5
215.53334	405.9
219.81599	461.3
224.09553	512.3
228.37195	571.5
232.64527	636.9
236.91549	701.2
241.18261	765.4
245.44663	842.2
249.70755	894.3
253.96539	946.6
258.22014	966.4
262.4718	990.9
266.72039	991
270.96589	979.2
275.20832	957
279.44768	931.1
283.68397	903.1
287.91719	867.8
292.14735	847.8
296.37445	819.1
300.59849	810.8
304.81948	804.4
309.03742	785.4
313.25231	779.7
317.46415	771
321.67296	761.3
325.87872	743.3
330.08145	744.2
334.28114	743.9
338.47781	747.3
342.67145	756.4
346.86207	765
351.04966	777.2
355.23424	794.5
359.4158	798.3
363.59435	807.3
367.76989	822.7
371.94243	817.2
376.11196	824.1
380.27849	829.7
384.44203	833.9
388.60257	837.2
392.76012	852.2
396.91468	848
401.06626	866.3
405.21485	875
409.36047	904.4
413.50311	1018.1
417.64277	1227.9
421.77947	1358.4
425.9132	1030.5
430.04396	863.3
434.17176	853.2
438.2966	864.9
442.41849	874.7
446.53742	880.4
450.6534	891.9
454.76644	897.1
458.87653	905
462.98368	899.9
467.08789	911.8
471.18916	911.8
475.2875	914.6
479.38291	914.7
483.4754	919.5
487.56496	922.4
491.6516	919.6
495.73531	922.7
499.81612	925.5
503.89401	911.7
507.96899	920.8
512.04106	912.3
516.11023	911.8
520.1765	907.8
524.23987	895.8
528.30034	900.4
532.35792	898.7
536.41261	902.6
540.46441	895.9
544.51333	887.3
548.55936	888.2
552.60252	895
556.64279	897.9
560.6802	897.5
564.71473	894
568.7464	909.2
572.7752	915.7
576.80114	911.5
580.82422	900
584.84444	903.6
588.86181	905.7
592.87633	915.7
596.888	913.9
600.89682	923.4
604.9028	936.4
608.90594	996.5
612.90624	1053.3
616.90371	1048.7
620.89834	989.8
624.89015	954.6
628.87913	966.1
632.86528	970.5
636.84862	980.6
640.82913	985.9
644.80683	976.9
648.78172	970.4
652.75379	968
656.72306	970
660.68952	983.5
664.65319	985.9
668.61405	975.3
672.57211	989.7
676.52738	1010.2
680.47986	1025.9
684.42955	1044.8
688.37646	1064.9
692.32058	1055.9
696.26192	1031.5
700.20048	1011.1
704.13626	995.8
708.06928	979.3
711.99952	984.2
715.927	981.5
719.85171	978.2
723.77365	971.1
727.69284	972.7
731.60928	971.4
735.52295	962.6
739.43388	962.5
743.34206	966.4
747.24749	963.2
751.15017	966.3
755.05012	942.8
758.94733	963.8
762.8418	983.7
766.73354	1002.4
770.62254	1041.4
774.50882	1056.6
778.39237	1049
782.27321	1023.9
786.15132	1001.6
790.02671	996.5
793.89938	983.5
797.76935	980.4
801.6366	985.9
805.50115	987
809.36299	986.1
813.22213	992.2
817.07857	992.3
820.93231	977.8
824.78336	973.5
828.63172	961.4
832.47738	954.3
836.32036	954.5
840.16066	957.8
843.99827	960.8
847.8332	956.1
851.66546	959.7
855.49504	954.4
859.32195	945.9
863.1462	953.8
866.96777	947.6
870.78668	947.9
874.60293	958.2
878.41652	955.7
882.22745	968.8
886.03573	960.6
889.84136	973.9
893.64433	978.5
897.44466	971.1
901.24235	985.5
905.0374	978.1
908.8298	977.7
912.61957	981.1
916.40671	985.3
920.19121	986.4
923.97308	997
927.75233	1012.3
931.52895	999.1
935.30295	995.9
939.07433	983.4
942.84309	978.1
946.60924	974.8
950.37278	975.6
954.13371	967.1
957.89203	965.1
961.64774	963.2
965.40086	948.2
969.15137	947
972.89929	946.6
976.64461	948.6
980.38733	944
984.12747	934.8
987.86502	931.3
991.59999	938.5
995.33237	933.1
999.06217	946
1002.78939	949.1
1006.51404	953.5
1010.23611	954.3
1013.95561	953.2
1017.67255	962.3
1021.38692	962.3
1025.09872	970.3
1028.80796	965.9
1032.51465	959.7
1036.21877	953
1039.92035	952.5
1043.61937	950.7
1047.31584	956.1
1051.00976	954.8
1054.70114	957.4
1058.38998	963.1
1062.07627	963.5
1065.76003	967.5
1069.44126	967
1073.11995	962.2
1076.79611	968.1
1080.46974	964.8
1084.14085	965.7
1087.80943	974.4
1091.47549	963.4
1095.13903	962.1
1098.80005	954.8
1102.45857	950.7
1106.11456	941.1
1109.76805	951.3
1113.41903	951
1117.06751	963.8
1120.71348	975.4
1124.35696	1000.4
1127.99793	1018.4
1131.63641	1034
1135.2724	1038.9
1138.90589	1029.7
1142.5369	1024.4
1146.16542	1015.9
1149.79145	1004
1153.415	987
1157.03607	972.6
1160.65467	971.9
1164.27079	964.1
1167.88443	975.9
1171.49561	982.2
1175.10432	1003.5
1178.71056	1034
1182.31434	1046.7
1185.91565	1069.6
1189.51451	1055.1
1193.11091	1040.9
1196.70485	1037.1
1200.29634	1030.3
1203.88538	1020.5
1207.47197	1010.3
1211.05612	1005.9
1214.63782	992.7
1218.21708	988.3
1221.79391	982.9
1225.36829	992
1228.94024	985.9
1232.50976	989.6
1236.07685	987.6
1239.6415	994.7
1243.20374	998.8
1246.76355	998.7
1250.32093	995.7
1253.8759	1008.6
1257.42845	997.4
1260.97859	1004.2
1264.52631	1016.6
1268.07163	1023.7
1271.61453	1031.1
1275.15503	1036.9
1278.69312	1040.5
1282.22882	1040.2
1285.76211	1056.7
1289.29301	1068.6
1292.82151	1088.1
1296.34761	1092.7
1299.87133	1120.7
1303.39266	1133.7
1306.9116	1173.7
1310.42815	1206.3
1313.94233	1226.4
1317.45412	1207.8
1320.96354	1182.7
1324.47058	1162.3
1327.97525	1142.1
1331.47754	1148.1
1334.97747	1139.7
1338.47502	1147.1
1341.97022	1156.8
1345.46305	1188.9
1348.95352	1216.5
1352.44163	1236.7
1355.92738	1281.8
1359.41078	1327.9
1362.89183	1387.2
1366.37053	1384.8
1369.84688	1326.6
1373.32088	1257.3
1376.79254	1207.6
1380.26186	1174.8
1383.72883	1151.5
1387.19347	1137
1390.65578	1119.1
1394.11575	1108.3
1397.57339	1108.3
1401.0287	1099.7
1404.48168	1091.8
1407.93234	1082.4
1411.38068	1078.8
1414.82669	1067.8
1418.27039	1061.6
1421.71177	1048.6
1425.15083	1041.9
1428.58758	1029.6
1432.02203	1012.5
1435.45416	1016.9
1438.88399	1012.4
1442.31151	996.1
1445.73673	990.5
1449.15965	986.3
1452.58027	985.9
1455.9986	986.7
1459.41463	988.7
1462.82837	987
1466.23982	993.3
1469.64898	997.9
1473.05586	1002.9
1476.46045	1007.3
1479.86276	1008.9
1483.26279	1010.9
1486.66054	1021.9
1490.05602	1025.3
1493.44922	1038.1
1496.84016	1055
1500.22882	1085.5
1503.61521	1117.6
1506.99934	1163.7
1510.38121	1200.1
1513.76081	1207.3
1517.13816	1172.9
1520.51324	1119.7
1523.88607	1082.9
1527.25665	1055.2
1530.62498	1039.2
1533.99105	1039.5
1537.35488	1040
1540.71647	1032.7
1544.07581	1028.9
1547.4329	1029.7
1550.78776	1036.9
1554.14038	1035
1557.49077	1040.9
1560.83892	1043.1
1564.18484	1059.9
1567.52853	1050.4
1570.86999	1060.8
1574.20922	1068
1577.54624	1070.8
1580.88103	1055.9
1584.2136	1042.8
1587.54395	1018.1
1590.87208	1012.5
1594.19801	1002.7
1597.52172	1009.9
1600.84321	990.5
1604.16251	986.3
1607.47959	988.6
1610.79447	979.8
1614.10715	964.7
1617.41763	958.5
1620.7259	953.2
1624.03199	949.8
1627.33587	943.1
1630.63757	938.6
1633.93707	934.8
1637.23439	930.6
1640.52951	937.7
1643.82246	948.9
1647.11321	957
1650.40179	971.8
1653.68819	961.3
1656.97241	933.5
1660.25446	907.3
1663.53433	880.5
1666.81203	860.2
1670.08756	861.5
1673.36092	868.2
1676.63211	869.4
1679.90115	865.4
1683.16801	862.2
1686.43272	850.7
1689.69527	837
1692.95567	808.9
1696.2139	770.9
1699.46999	747.7
1702.72392	727.4
1705.97571	734
1709.22535	758.2
1712.47284	764.7
1715.71819	780.7
1718.96139	773.9
1722.20246	765.5
1725.44139	758.8
1728.67818	751.7
1731.91284	742.4
1735.14537	737.4
1738.37576	735.1
1741.60403	727.8
1744.83017	715.2
1748.05418	711.8
1751.27607	692.6
1754.49584	682.8
1757.71349	658.4
1760.92903	647.4
1764.14244	651.9
1767.35375	650.9
1770.56294	644.9
1773.77002	645.8
1776.97499	660.3
1780.17785	679.2
1783.37861	687.1
1786.57727	694.6
1789.77382	690
1792.96828	695.1
1796.16064	688.6
1799.3509	692.4
1802.53907	690.6
1805.72514	685.3
1808.90913	680.1
1812.09102	683.2
1815.27083	683.3
1818.44856	678.1
1821.6242	681.1
1824.79776	677.3
1827.96924	680.3
1831.13864	680.6
1834.30597	678.4
1837.47122	673.9
1840.6344	679
1843.7955	678.1
1846.95454	675.5
1850.11151	674.4
1853.26642	670.7
1856.41926	673.2
1859.57004	674.3
1862.71876	672.5
1865.86542	677.4
1869.01003	662.8
1872.15258	668.8
1875.29308	662.9
1878.43152	669.5
1881.56792	669.1
1884.70227	661.6
1887.83457	662.5
1890.96482	664
1894.09304	661.7
1897.21921	659.3
1900.34335	661.8
1903.46544	659.7
1906.58551	657.9
1909.70353	657.3
1912.81953	657
1915.93349	658.8
1919.04543	658.3
1922.15534	654.1
1925.26322	642.9
1928.36908	655.1
1931.47292	652.3
1934.57473	651.5
1937.67453	657.5
1940.77232	652.9
1943.86808	644.2
1946.96184	650.6
1950.05358	648.8
1953.14331	644
1956.23103	642.4
1959.31675	638.1
1962.40046	638.3
1965.48217	636.6
1968.56188	629.9
1971.63959	637.4
1974.7153	631.5
1977.78901	628.8
1980.86073	627.7
1983.93046	621.1
1986.99819	625.5
1990.06394	622.7
1993.1277	623.4
1996.18947	616.4
1999.24925	621.5
2002.30706	614.1
2005.36288	609.8
2008.41672	612.2
2011.46859	612.4
2014.51848	611.8
2017.56639	608.4
2020.61233	606
2023.6563	603.8
2026.6983	602.6
2029.73833	603.4
2032.7764	604
2035.8125	603.9
2038.84664	599.3
2041.87881	599.1
2044.90903	604.8
2047.93729	598.8
2050.96359	592.4
2053.98794	602.2
2057.01034	595.5
2060.03078	594.1
2063.04927	606.3
2066.06582	605
2069.08042	605.6
2072.09307	625.3
2075.10378	624.6
2078.11255	623.7
2081.11938	616.1
2084.12426	622.6
2087.12722	627.5
2090.12824	623.4
2093.12732	628.6
2096.12447	628.2
2099.11969	636.9
2102.11299	640.9
2105.10435	638.6
2108.09379	633.5
2111.08131	641.1
2114.0669	641.2
2117.05057	642.7
2120.03233	650.6
2123.01216	646.2
2125.99008	638.7
2128.96609	640.9
2131.94018	646.2
2134.91236	640.6
2137.88263	645.1
2140.851	646.9
2143.81746	643
2146.78201	632.8
2149.74466	639.1
2152.7054	635
2155.66425	633.6
2158.6212	637.4
2161.57625	635.8
2164.52941	636.8
2167.48067	631.2
2170.43004	635.2
2173.37752	627.4
2176.32311	631.8
2179.26681	630.7
2182.20863	628.9
2185.14856	625.5
2188.08661	627.4
2191.02278	626.1
2193.95707	623.2
2196.88948	611.2
2199.82001	609.4
2202.74867	614.1
2205.67545	614.9
2208.60037	604.1
2211.52341	607.5
2214.44458	603
2217.36388	605.4
2220.28132	599.8
2223.1969	599.3
2226.11061	598.6
2229.02246	593.7
2231.93245	596.2
2234.84058	598.3
2237.74686	595.9
2240.65128	593.3
2243.55385	588
2246.45456	594.7
2249.35343	596.9
2252.25044	589.7
2255.14561	589.8
2258.03893	584.6
2260.93041	574.1
2263.82004	584.6
2266.70783	582.4
2269.59378	582.9
2272.4779	581
2275.36017	581.1
2278.24061	580.3
2281.11922	578.1
2283.996	577.5
2286.87094	572
2289.74405	577.4
2292.61534	577.6
2295.4848	573.5
2298.35243	574.8
2301.21824	571
2304.08223	574.3
2306.94439	579.9
2309.80474	575
2312.66327	573.2
2315.51999	579.7
2318.37489	573.2
2321.22797	569.6
2324.07925	570.6
2326.92871	567.1
2329.77637	573.4
2332.62222	572
2335.46626	568.3
2338.3085	562.7
2341.14893	562.8
2343.98756	562
2346.8244	563.7
2349.65943	569.2
2352.49267	566.9
2355.32411	560.7
2358.15376	559.4
2360.98161	562.6
2363.80768	566.2
2366.63195	567.2
2369.45444	561.4
2372.27514	566.7
2375.09405	562.7
2377.91118	565.9
2380.72652	564.1
2383.54009	564.1
2386.35187	564.9
2389.16188	558.4
2391.97011	559.1
2394.77657	563.3
2397.58125	552.9
2400.38416	562
2403.18529	556.2
2405.98466	555.8
2408.78226	557.3
2411.57809	557.1
2414.37216	557
2417.16446	550.4
2419.955	551.3
2422.74378	551.4
2425.5308	557
2428.31606	550.6
2431.09956	552.3
2433.88131	545.6
2436.6613	546.7
2439.43954	551.4
2442.21603	547.7
2444.99077	548.2
2447.76377	555.1
2450.53501	552.1
2453.30451	550.5
2456.07226	549.8
2458.83827	542.9
2461.60254	548.4
2464.36507	545.6
2467.12586	551.1
2469.88492	545.9
2472.64224	539.3
2475.39782	538.4
2478.15167	535.5
2480.90379	541.3
2483.65417	546.2
2486.40283	545.2
2489.14976	546.5
2491.89497	539.1
2494.63845	534.5
2497.3802	537.8
2500.12024	539.7
2502.85855	535.9
2505.59514	544.2
2508.33002	541.2
2511.06318	542.9
2513.79462	546.5
2516.52435	540.7
2519.25237	545.9
2521.97867	543
2524.70327	539.7
2527.42616	540.6
2530.14734	532
2532.86681	542.2
2535.58458	540.4
2538.30065	544
2541.01501	538.9
2543.72768	541
2546.43864	539.9
2549.14791	533.6
2551.85548	533.2
2554.56136	536.7
2557.26554	537.5
2559.96803	532.3
2562.66883	535.9
2565.36794	528.9
2568.06536	526.9
2570.7611	530.2
2573.45514	527.6
2576.14751	533.2
2578.83819	525.3
2581.52719	524.5
2584.21451	522.2
2586.90015	522
2589.58411	523.3
2592.2664	527.8
2594.94701	525.3
2597.62594	524.2
2600.30321	530.5
2602.9788	526.1
2605.65273	523.3
2608.32498	517.8
2610.99557	517.1
2613.66449	520.5
2616.33175	523.9
2618.99734	522.4
2621.66128	513.4
2624.32355	515.7
2626.98416	520.4
2629.64311	513
2632.30041	519.9
2634.95605	524.2
2637.61004	524
2640.26238	518.4
2642.91306	522.4
2645.56209	515.6
2648.20948	515.1
2650.85521	512.5
2653.4993	523.2
2656.14175	517.3
2658.78255	523.3
2661.42171	511.2
2664.05923	516.4
2666.6951	517.1
2669.32934	518.4
2671.96194	522.9
2674.59291	520.3
2677.22224	516.2
2679.84993	513.1
2682.476	512.7
2685.10043	517.8
2687.72324	520.2
2690.34441	516.1
2692.96396	517.7
2695.58188	523.1
2698.19818	514.7
2700.81285	518.1
2703.4259	500.7
2706.03733	460.5
2708.64714	484.9
2711.25533	504
2713.86191	507.5
2716.46687	512.2
2719.07021	516.9
2721.67194	522.7
2724.27206	518.5
2726.87057	525
2729.46747	524.7
2732.06276	528.5
2734.65644	525.5
2737.24852	525.4
2739.83899	524
2742.42786	528.8
2745.01513	521.8
2747.60079	528.1
2750.18486	521.9
2752.76733	523.3
2755.3482	522.3
2757.92747	522.4
2760.50515	522
2763.08123	519.8
2765.65573	527.4
2768.22863	522.5
2770.79994	520.7
2773.36967	519.8
2775.9378	518.2
2778.50435	518
2781.06932	517.4
2783.6327	514.2
2786.1945	517.3
2788.75471	516.8
2791.31335	523.3
2793.87041	522
2796.42589	515.8
2798.97979	520.2
2801.53212	513.3
2804.08288	514.2
2806.63206	518.3
2809.17967	506.8
2811.72571	515.1
2814.27018	511
2816.81308	509.3
2819.35442	514.8
2821.89419	500.9
2824.43239	505.3
2826.96904	508.1
2829.50412	509
2832.03763	513.3
2834.56959	509.2
2837.1	507.8
2839.62884	513.4
2842.15613	502.2
2844.68186	508.3
2847.20604	501.5
2849.72867	504.7
2852.24974	508.7
2854.76927	502.9
2857.28724	490.9
2859.80367	494.6
2862.31855	510.1
2864.83189	499.5
2867.34368	506.7
2869.85393	501.3
2872.36264	500
2874.8698	506.6
2877.37543	512.3
2879.87952	516.6
2882.38207	509.9
2884.88308	516
2887.38256	515.3
2889.88051	513
2892.37692	519.5
2894.8718	518.2
2897.36515	522.9
2899.85698	519.3
2902.34727	523.1
2904.83604	521.7
2907.32328	528.4
2909.809	528.6
2912.29319	525.1
2914.77587	527.4
2917.25702	532.5
2919.73665	532
2922.21476	533.2
2924.69136	529.3
2927.16644	536.2
2929.64	534.3
2932.11205	536
2934.58258	532.7
2937.05161	536.5
2939.51912	535.8
2941.98513	539.1
2944.44962	538.2
2946.91261	537.7
2949.37409	532.8
2951.83407	540.1
2954.29254	537.6
2956.74951	543.9
2959.20498	539.8
2961.65895	533.3
2964.11142	543.9
2966.56239	541.3
2969.01186	537.4
2971.45984	543.6
2973.90632	543.8
2976.35131	547.4
2978.7948	546.9
2981.23681	543.7
2983.67732	543.6
2986.11635	547.2
2988.55388	546.9
2990.98993	543.2
2993.4245	544.5
2995.85758	543.1
2998.28917	546.9
3000.71928	547
3003.14791	545.8
3005.57506	543.8
3008.00073	548.3
3010.42493	549.2
3012.84764	554.7
3015.26888	547.3
3017.68865	555
3020.10694	557.8
3022.52376	559.2
3024.9391	556.1
3027.35298	563.5
3029.76539	563.2
3032.17632	569.2
3034.5858	561.5
3036.9938	570.6
3039.40034	572.6
3041.80542	569.2
3044.20903	574.8
3046.61118	575.9
3049.01187	576.4
3051.4111	579.4
3053.80888	590.7
3056.20519	587.5
3058.60005	589.3
3060.99345	601.2
3063.3854	595.5
3065.7759	599.8
3068.16494	601.6
3070.55254	607.3
3072.93868	608.1
3075.32338	613.2
3077.70662	609.5
3080.08842	611.6
3082.46878	611.7
3084.84769	610.8
3087.22515	623.5
3089.60118	626.5
3091.97576	630.6
3094.3489	625.7
3096.72061	635.7
3099.09087	643.2
3101.4597	646.5
3103.82709	658
3106.19305	664.2
3108.55757	665.6
3110.92066	673.5
3113.28232	677.2
3115.64255	682.6
3118.00134	680.7
3120.35871	690
3122.71466	688.9
3125.06917	694.9
3127.42226	695.9
3129.77393	705.7
3132.12417	713
3134.47299	718.7
3136.82039	723.8
3139.16636	729.9
3141.51092	733.3
3143.85406	739.4
3146.19579	741.2
3148.53609	750.7
3150.87499	756.1
3153.21246	759.9
3155.54853	771.3
3157.88318	772.8
3160.21642	786.7
3162.54826	795.1
3164.87868	792.7
3167.2077	808
3169.5353	812.7
3171.86151	815.2
3174.18631	822.6
3176.5097	821.3
3178.83169	827.9
3181.15228	834.7
3183.47147	841.3
3185.78926	851.3
3188.10565	849.8
3190.42065	854.7
3192.73424	862.4
3195.04645	856.7
3197.35725	865.4
3199.66667	867.2
3201.97469	871.8
3204.28132	880.2
3206.58656	886
3208.8904	890.7
3211.19287	891.9
3213.49394	895.6
3215.79363	898.8
3218.09193	907
3220.38884	898.3
3222.68438	891.6
3224.97853	905
3227.2713	911.5
3229.56269	914.7
3231.8527	918.3
3234.14133	920.8
3236.42858	921
3238.71446	918.3
3240.99896	920
3243.28209	920
3245.56384	917
3247.84423	912.9
3250.12324	920.7
3252.40088	919.9
3254.67715	918.8
3256.95205	920.4
3259.22558	929.8
3261.49775	919.6
3263.76855	925.7
3266.03799	927.1
3268.30606	927.3
3270.57277	932.9
3272.83812	925.3
3275.10211	919.4
3277.36474	925.4
3279.62601	928.2
3281.88593	928
3284.14448	926.1
3286.40168	929.9
3288.65753	934.5
3290.91202	921
3293.16516	915.9
3295.41695	925.5
3297.66738	919
3299.91647	908
3302.16421	908.2
3304.4106	912.8
3306.65564	900.7
3308.89933	895
3311.14169	887.7
3313.38269	874.9
3315.62236	874.8
3317.86068	866.7
3320.09766	866
3322.3333	864.4
3324.5676	848.5
3326.80056	831.7
3329.03219	830.4
3331.26248	0.2
3333.49143	-0.2
3335.71905	-1.4
