Data from AgNPs_APTES_FTO_UA_100uM_CRN_0uM_R6G_10uM_Scan_RamanShift__32__11-17-01-270.txt Node

Date: Wed Jun 29 11:17:01 BST 2022
User: TCL
Spectrometer: QEP01345
Trigger mode: 4
Integration Time (sec): 7.000000E0
Scans to average: 10
Electric dark correction enabled: true
Nonlinearity correction enabled: false
Boxcar width: 0
XAxis mode: Raman Shifts
Number of Pixels in Spectrum: 1044
>>>>>Begin Spectral Data<<<<<
46.04893	0.9875
50.45542	-0.2125
54.85868	-0.2125
59.25871	1.7875
63.6555	36.1875
68.04907	36.5875
72.43941	39.4875
76.82654	42.6875
81.21044	43.6875
85.59113	47.8875
89.96862	52.8875
94.34289	55.9875
98.71396	53.2875
103.08183	55.3875
107.4465	57.3875
111.80798	58.9875
116.16626	58.3875
120.52136	54.6875
124.87327	52.9875
129.222	55.1875
133.56755	52.6875
137.90993	52.1875
142.24913	54.2875
146.58517	50.7875
150.91804	45.8875
155.24774	52.5875
159.57429	54.5875
163.89768	56.9875
168.21792	63.6875
172.53501	74.8875
176.84895	90.2875
181.15975	113.0875
185.46741	141.5875
189.77193	181.2875
194.07331	237.9875
198.37157	302.1875
202.6667	365.9875
206.9587	422.2875
211.24758	490.2875
215.53334	553.8875
219.81599	620.0875
224.09553	691.8875
228.37195	767.5875
232.64527	848.7875
236.91549	928.9875
241.18261	1004.9875
245.44663	1095.9875
249.70755	1145.2875
253.96539	1204.8875
258.22014	1239.9875
262.4718	1254.0875
266.72039	1270.7875
270.96589	1278.9875
275.20832	1262.4875
279.44768	1226.3875
283.68397	1203.2875
287.91719	1174.5875
292.14735	1152.1875
296.37445	1154.2875
300.59849	1157.8875
304.81948	1168.3875
309.03742	1186.3875
313.25231	1187.9875
317.46415	1166.8875
321.67296	1129.2875
325.87872	1084.3875
330.08145	1077.5875
334.28114	1070.6875
338.47781	1089.5875
342.67145	1108.1875
346.86207	1128.7875
351.04966	1175.9875
355.23424	1214.5875
359.4158	1242.6875
363.59435	1265.7875
367.76989	1280.6875
371.94243	1279.6875
376.11196	1275.7875
380.27849	1290.8875
384.44203	1284.6875
388.60257	1285.2875
392.76012	1291.8875
396.91468	1303.1875
401.06626	1325.5875
405.21485	1327.1875
409.36047	1326.5875
413.50311	1290.7875
417.64277	1261.1875
421.77947	1239.5875
425.9132	1234.6875
430.04396	1231.5875
434.17176	1246.2875
438.2966	1248.8875
442.41849	1269.6875
446.53742	1289.0875
450.6534	1298.8875
454.76644	1310.4875
458.87653	1317.3875
462.98368	1314.3875
467.08789	1314.1875
471.18916	1306.8875
475.2875	1311.5875
479.38291	1313.1875
483.4754	1312.5875
487.56496	1308.7875
491.6516	1317.7875
495.73531	1313.1875
499.81612	1319.8875
503.89401	1324.3875
507.96899	1325.8875
512.04106	1336.4875
516.11023	1335.0875
520.1765	1347.5875
524.23987	1337.7875
528.30034	1324.2875
532.35792	1319.1875
536.41261	1307.3875
540.46441	1298.7875
544.51333	1285.9875
548.55936	1286.7875
552.60252	1307.2875
556.64279	1308.4875
560.6802	1319.8875
564.71473	1325.5875
568.7464	1349.9875
572.7752	1366.6875
576.80114	1334.4875
580.82422	1307.7875
584.84444	1318.9875
588.86181	1318.0875
592.87633	1332.8875
596.888	1344.2875
600.89682	1366.5875
604.9028	1433.8875
608.90594	1635.5875
612.90624	1909.7875
616.90371	1855.4875
620.89834	1551.4875
624.89015	1398.0875
628.87913	1378.6875
632.86528	1409.0875
636.84862	1437.5875
640.82913	1440.9875
644.80683	1416.3875
648.78172	1399.1875
652.75379	1395.7875
656.72306	1408.8875
660.68952	1437.6875
664.65319	1437.4875
668.61405	1421.0875
672.57211	1409.4875
676.52738	1442.2875
680.47986	1482.0875
684.42955	1544.3875
688.37646	1579.4875
692.32058	1569.6875
696.26192	1520.9875
700.20048	1473.9875
704.13626	1450.9875
708.06928	1443.0875
711.99952	1438.5875
715.927	1430.2875
719.85171	1414.0875
723.77365	1397.2875
727.69284	1396.5875
731.60928	1391.9875
735.52295	1399.3875
739.43388	1386.7875
743.34206	1374.6875
747.24749	1374.1875
751.15017	1368.8875
755.05012	1348.1875
758.94733	1384.9875
762.8418	1452.9875
766.73354	1569.4875
770.62254	1691.8875
774.50882	1778.4875
778.39237	1727.8875
782.27321	1619.9875
786.15132	1513.3875
790.02671	1438.2875
793.89938	1412.9875
797.76935	1402.7875
801.6366	1386.8875
805.50115	1394.9875
809.36299	1400.8875
813.22213	1392.2875
817.07857	1385.6875
820.93231	1369.3875
824.78336	1367.3875
828.63172	1355.4875
832.47738	1358.9875
836.32036	1346.3875
840.16066	1357.2875
843.99827	1354.6875
847.8332	1348.7875
851.66546	1352.9875
855.49504	1351.2875
859.32195	1345.5875
863.1462	1345.2875
866.96777	1346.5875
870.78668	1343.3875
874.60293	1357.4875
878.41652	1356.7875
882.22745	1361.2875
886.03573	1359.6875
889.84136	1357.1875
893.64433	1359.1875
897.44466	1358.7875
901.24235	1353.0875
905.0374	1338.0875
908.8298	1347.9875
912.61957	1339.3875
916.40671	1341.9875
920.19121	1348.9875
923.97308	1346.8875
927.75233	1359.6875
931.52895	1357.8875
935.30295	1347.1875
939.07433	1339.6875
942.84309	1327.6875
946.60924	1314.1875
950.37278	1316.6875
954.13371	1308.7875
957.89203	1309.2875
961.64774	1301.4875
965.40086	1294.6875
969.15137	1280.1875
972.89929	1286.5875
976.64461	1277.5875
980.38733	1273.6875
984.12747	1277.6875
987.86502	1265.8875
991.59999	1276.7875
995.33237	1279.1875
999.06217	1279.9875
1002.78939	1306.2875
1006.51404	1309.1875
1010.23611	1326.1875
1013.95561	1330.8875
1017.67255	1326.6875
1021.38692	1330.1875
1025.09872	1328.6875
1028.80796	1319.4875
1032.51465	1316.8875
1036.21877	1312.2875
1039.92035	1309.1875
1043.61937	1324.6875
1047.31584	1325.9875
1051.00976	1324.1875
1054.70114	1329.0875
1058.38998	1336.8875
1062.07627	1338.2875
1065.76003	1348.0875
1069.44126	1357.0875
1073.11995	1378.1875
1076.79611	1378.1875
1080.46974	1390.8875
1084.14085	1403.4875
1087.80943	1404.6875
1091.47549	1400.6875
1095.13903	1385.1875
1098.80005	1359.5875
1102.45857	1335.7875
1106.11456	1345.1875
1109.76805	1346.8875
1113.41903	1360.9875
1117.06751	1388.6875
1120.71348	1420.0875
1124.35696	1472.8875
1127.99793	1525.2875
1131.63641	1548.2875
1135.2724	1529.6875
1138.90589	1493.7875
1142.5369	1472.0875
1146.16542	1443.4875
1149.79145	1405.6875
1153.415	1394.9875
1157.03607	1378.6875
1160.65467	1391.3875
1164.27079	1389.5875
1167.88443	1433.4875
1171.49561	1474.0875
1175.10432	1553.4875
1178.71056	1676.0875
1182.31434	1767.3875
1185.91565	1792.4875
1189.51451	1759.0875
1193.11091	1689.8875
1196.70485	1625.0875
1200.29634	1586.9875
1203.88538	1544.8875
1207.47197	1505.8875
1211.05612	1456.7875
1214.63782	1423.1875
1218.21708	1409.9875
1221.79391	1396.5875
1225.36829	1410.0875
1228.94024	1403.0875
1232.50976	1393.4875
1236.07685	1408.4875
1239.6415	1405.6875
1243.20374	1422.4875
1246.76355	1417.9875
1250.32093	1431.3875
1253.8759	1432.5875
1257.42845	1449.8875
1260.97859	1467.7875
1264.52631	1485.7875
1268.07163	1517.1875
1271.61453	1540.7875
1275.15503	1551.9875
1278.69312	1555.1875
1282.22882	1571.0875
1285.76211	1575.3875
1289.29301	1634.1875
1292.82151	1669.9875
1296.34761	1715.9875
1299.87133	1777.0875
1303.39266	1867.7875
1306.9116	1998.3875
1310.42815	2146.4875
1313.94233	2200.4875
1317.45412	2150.3875
1320.96354	2024.1875
1324.47058	1891.4875
1327.97525	1794.6875
1331.47754	1748.9875
1334.97747	1719.8875
1338.47502	1719.4875
1341.97022	1757.3875
1345.46305	1809.0875
1348.95352	1923.2875
1352.44163	2047.9875
1355.92738	2200.2875
1359.41078	2422.6875
1362.89183	2658.9875
1366.37053	2638.5875
1369.84688	2355.8875
1373.32088	2058.0875
1376.79254	1880.1875
1380.26186	1790.5875
1383.72883	1731.7875
1387.19347	1677.9875
1390.65578	1618.8875
1394.11575	1583.0875
1397.57339	1558.9875
1401.0287	1530.1875
1404.48168	1509.3875
1407.93234	1483.9875
1411.38068	1473.7875
1414.82669	1458.3875
1418.27039	1458.3875
1421.71177	1444.1875
1425.15083	1437.1875
1428.58758	1424.0875
1432.02203	1418.9875
1435.45416	1438.6875
1438.88399	1434.3875
1442.31151	1431.0875
1445.73673	1416.7875
1449.15965	1429.9875
1452.58027	1436.0875
1455.9986	1440.0875
1459.41463	1445.1875
1462.82837	1445.3875
1466.23982	1458.7875
1469.64898	1468.5875
1473.05586	1474.3875
1476.46045	1489.9875
1479.86276	1491.8875
1483.26279	1511.0875
1486.66054	1516.0875
1490.05602	1540.0875
1493.44922	1575.7875
1496.84016	1640.9875
1500.22882	1761.4875
1503.61521	1934.0875
1506.99934	2137.3875
1510.38121	2322.7875
1513.76081	2359.6875
1517.13816	2254.2875
1520.51324	2030.2875
1523.88607	1806.5875
1527.25665	1679.6875
1530.62498	1601.2875
1533.99105	1549.7875
1537.35488	1531.2875
1540.71647	1503.9875
1544.07581	1500.1875
1547.4329	1500.8875
1550.78776	1514.8875
1554.14038	1516.4875
1557.49077	1532.6875
1560.83892	1561.1875
1564.18484	1593.3875
1567.52853	1627.4875
1570.86999	1682.3875
1574.20922	1712.7875
1577.54624	1708.7875
1580.88103	1674.1875
1584.2136	1592.4875
1587.54395	1529.3875
1590.87208	1501.1875
1594.19801	1491.0875
1597.52172	1513.6875
1600.84321	1519.8875
1604.16251	1492.2875
1607.47959	1451.9875
1610.79447	1421.1875
1614.10715	1389.6875
1617.41763	1361.9875
1620.7259	1336.7875
1624.03199	1330.1875
1627.33587	1330.7875
1630.63757	1315.3875
1633.93707	1338.9875
1637.23439	1369.5875
1640.52951	1435.4875
1643.82246	1526.4875
1647.11321	1669.2875
1650.40179	1773.5875
1653.68819	1766.3875
1656.97241	1634.4875
1660.25446	1477.4875
1663.53433	1354.6875
1666.81203	1290.5875
1670.08756	1255.5875
1673.36092	1233.4875
1676.63211	1227.5875
1679.90115	1216.6875
1683.16801	1203.3875
1686.43272	1191.5875
1689.69527	1163.2875
1692.95567	1139.2875
1696.2139	1112.5875
1699.46999	1083.3875
1702.72392	1070.0875
1705.97571	1070.2875
1709.22535	1073.7875
1712.47284	1074.6875
1715.71819	1066.8875
1718.96139	1060.9875
1722.20246	1048.9875
1725.44139	1037.4875
1728.67818	1019.5875
1731.91284	1003.2875
1735.14537	996.7875
1738.37576	986.0875
1741.60403	969.8875
1744.83017	966.4875
1748.05418	949.7875
1751.27607	941.6875
1754.49584	927.8875
1757.71349	914.7875
1760.92903	904.8875
1764.14244	907.5875
1767.35375	892.2875
1770.56294	893.6875
1773.77002	896.9875
1776.97499	896.3875
1780.17785	905.5875
1783.37861	912.0875
1786.57727	911.7875
1789.77382	907.1875
1792.96828	904.8875
1796.16064	900.1875
1799.3509	902.5875
1802.53907	907.0875
1805.72514	894.4875
1808.90913	888.2875
1812.09102	893.2875
1815.27083	896.6875
1818.44856	887.4875
1821.6242	882.0875
1824.79776	885.4875
1827.96924	872.6875
1831.13864	883.4875
1834.30597	877.2875
1837.47122	878.0875
1840.6344	879.4875
1843.7955	879.3875
1846.95454	871.5875
1850.11151	873.7875
1853.26642	870.4875
1856.41926	865.0875
1859.57004	862.2875
1862.71876	871.1875
1865.86542	870.0875
1869.01003	872.0875
1872.15258	868.3875
1875.29308	862.3875
1878.43152	861.3875
1881.56792	856.5875
1884.70227	859.9875
1887.83457	851.5875
1890.96482	847.7875
1894.09304	856.8875
1897.21921	852.9875
1900.34335	851.5875
1903.46544	853.1875
1906.58551	847.1875
1909.70353	846.5875
1912.81953	851.3875
1915.93349	844.0875
1919.04543	846.3875
1922.15534	843.6875
1925.26322	841.6875
1928.36908	841.6875
1931.47292	838.7875
1934.57473	837.3875
1937.67453	831.3875
1940.77232	832.8875
1943.86808	829.2875
1946.96184	834.3875
1950.05358	818.3875
1953.14331	824.8875
1956.23103	822.2875
1959.31675	813.0875
1962.40046	820.4875
1965.48217	811.9875
1968.56188	808.8875
1971.63959	812.8875
1974.7153	804.4875
1977.78901	804.5875
1980.86073	797.9875
1983.93046	797.5875
1986.99819	799.4875
1990.06394	788.6875
1993.1277	788.1875
1996.18947	790.9875
1999.24925	790.2875
2002.30706	781.6875
2005.36288	775.6875
2008.41672	779.2875
2011.46859	778.3875
2014.51848	779.4875
2017.56639	765.8875
2020.61233	772.9875
2023.6563	773.9875
2026.6983	767.4875
2029.73833	770.9875
2032.7764	761.7875
2035.8125	767.0875
2038.84664	765.2875
2041.87881	763.2875
2044.90903	759.9875
2047.93729	764.7875
2050.96359	757.8875
2053.98794	758.1875
2057.01034	758.6875
2060.03078	756.6875
2063.04927	767.4875
2066.06582	765.4875
2069.08042	773.7875
2072.09307	771.9875
2075.10378	765.4875
2078.11255	773.2875
2081.11938	775.2875
2084.12426	769.1875
2087.12722	785.2875
2090.12824	776.2875
2093.12732	781.1875
2096.12447	778.3875
2099.11969	776.3875
2102.11299	778.2875
2105.10435	780.7875
2108.09379	772.0875
2111.08131	777.0875
2114.0669	777.8875
2117.05057	782.2875
2120.03233	779.7875
2123.01216	782.3875
2125.99008	783.4875
2128.96609	774.7875
2131.94018	769.0875
2134.91236	773.6875
2137.88263	773.8875
2140.851	772.6875
2143.81746	771.5875
2146.78201	770.8875
2149.74466	767.1875
2152.7054	768.9875
2155.66425	764.5875
2158.6212	769.9875
2161.57625	768.9875
2164.52941	766.3875
2167.48067	768.9875
2170.43004	764.2875
2173.37752	770.9875
2176.32311	764.9875
2179.26681	764.0875
2182.20863	763.0875
2185.14856	767.9875
2188.08661	761.2875
2191.02278	766.0875
2193.95707	765.5875
2196.88948	757.8875
2199.82001	749.7875
2202.74867	753.8875
2205.67545	751.6875
2208.60037	748.1875
2211.52341	751.2875
2214.44458	746.8875
2217.36388	752.3875
2220.28132	746.9875
2223.1969	748.1875
2226.11061	744.3875
2229.02246	745.2875
2231.93245	740.5875
2234.84058	736.2875
2237.74686	731.2875
2240.65128	733.6875
2243.55385	735.2875
2246.45456	725.1875
2249.35343	733.4875
2252.25044	727.0875
2255.14561	730.7875
2258.03893	725.7875
2260.93041	724.6875
2263.82004	721.3875
2266.70783	721.4875
2269.59378	718.6875
2272.4779	710.0875
2275.36017	719.1875
2278.24061	722.9875
2281.11922	710.5875
2283.996	710.2875
2286.87094	713.0875
2289.74405	712.5875
2292.61534	718.4875
2295.4848	709.8875
2298.35243	707.7875
2301.21824	711.6875
2304.08223	713.1875
2306.94439	706.6875
2309.80474	709.9875
2312.66327	705.7875
2315.51999	703.5875
2318.37489	707.2875
2321.22797	698.5875
2324.07925	702.5875
2326.92871	704.7875
2329.77637	703.2875
2332.62222	694.6875
2335.46626	701.1875
2338.3085	697.0875
2341.14893	692.0875
2343.98756	687.2875
2346.8244	696.8875
2349.65943	689.3875
2352.49267	697.5875
2355.32411	696.2875
2358.15376	689.8875
2360.98161	690.0875
2363.80768	694.8875
2366.63195	702.9875
2369.45444	693.9875
2372.27514	697.7875
2375.09405	700.9875
2377.91118	702.0875
2380.72652	693.6875
2383.54009	694.7875
2386.35187	691.4875
2389.16188	688.3875
2391.97011	695.0875
2394.77657	687.7875
2397.58125	680.0875
2400.38416	683.8875
2403.18529	675.9875
2405.98466	682.5875
2408.78226	676.9875
2411.57809	681.1875
2414.37216	678.5875
2417.16446	674.8875
2419.955	677.8875
2422.74378	675.3875
2425.5308	676.1875
2428.31606	671.0875
2431.09956	674.5875
2433.88131	672.5875
2436.6613	674.2875
2439.43954	666.0875
2442.21603	669.7875
2444.99077	672.9875
2447.76377	674.8875
2450.53501	667.0875
2453.30451	665.1875
2456.07226	673.1875
2458.83827	668.5875
2461.60254	669.8875
2464.36507	671.8875
2467.12586	665.9875
2469.88492	668.8875
2472.64224	670.1875
2475.39782	661.0875
2478.15167	659.6875
2480.90379	666.0875
2483.65417	666.1875
2486.40283	671.8875
2489.14976	670.6875
2491.89497	658.9875
2494.63845	661.3875
2497.3802	663.2875
2500.12024	660.2875
2502.85855	658.5875
2505.59514	659.8875
2508.33002	661.2875
2511.06318	667.6875
2513.79462	663.9875
2516.52435	659.7875
2519.25237	661.5875
2521.97867	654.6875
2524.70327	654.2875
2527.42616	659.1875
2530.14734	655.2875
2532.86681	654.4875
2535.58458	650.9875
2538.30065	657.4875
2541.01501	654.4875
2543.72768	658.6875
2546.43864	650.3875
2549.14791	644.0875
2551.85548	645.2875
2554.56136	645.4875
2557.26554	649.9875
2559.96803	639.1875
2562.66883	644.4875
2565.36794	644.7875
2568.06536	639.4875
2570.7611	643.5875
2573.45514	643.2875
2576.14751	643.0875
2578.83819	638.5875
2581.52719	638.6875
2584.21451	629.7875
2586.90015	632.3875
2589.58411	636.3875
2592.2664	637.5875
2594.94701	634.1875
2597.62594	638.5875
2600.30321	640.3875
2602.9788	635.5875
2605.65273	633.6875
2608.32498	631.0875
2610.99557	630.9875
2613.66449	623.4875
2616.33175	632.0875
2618.99734	627.1875
2621.66128	628.5875
2624.32355	626.4875
2626.98416	628.0875
2629.64311	624.6875
2632.30041	626.3875
2634.95605	620.8875
2637.61004	626.4875
2640.26238	617.1875
2642.91306	622.5875
2645.56209	622.3875
2648.20948	630.4875
2650.85521	623.2875
2653.4993	621.8875
2656.14175	626.1875
2658.78255	624.2875
2661.42171	615.5875
2664.05923	619.1875
2666.6951	622.8875
2669.32934	620.4875
2671.96194	618.3875
2674.59291	623.8875
2677.22224	621.3875
2679.84993	623.0875
2682.476	620.4875
2685.10043	623.1875
2687.72324	622.4875
2690.34441	625.7875
2692.96396	623.5875
2695.58188	628.0875
2698.19818	625.5875
2700.81285	624.5875
2703.4259	619.6875
2706.03733	591.6875
2708.64714	600.4875
2711.25533	615.0875
2713.86191	615.7875
2716.46687	617.4875
2719.07021	619.2875
2721.67194	625.3875
2724.27206	627.1875
2726.87057	632.9875
2729.46747	627.1875
2732.06276	636.9875
2734.65644	637.4875
2737.24852	635.8875
2739.83899	635.0875
2742.42786	628.8875
2745.01513	625.9875
2747.60079	630.8875
2750.18486	623.1875
2752.76733	623.1875
2755.3482	624.7875
2757.92747	633.2875
2760.50515	617.1875
2763.08123	623.0875
2765.65573	619.8875
2768.22863	622.1875
2770.79994	619.5875
2773.36967	618.7875
2775.9378	626.1875
2778.50435	623.7875
2781.06932	626.6875
2783.6327	622.9875
2786.1945	619.7875
2788.75471	618.6875
2791.31335	626.6875
2793.87041	618.5875
2796.42589	617.2875
2798.97979	620.4875
2801.53212	620.4875
2804.08288	617.5875
2806.63206	612.7875
2809.17967	609.9875
2811.72571	615.4875
2814.27018	615.8875
2816.81308	609.5875
2819.35442	614.4875
2821.89419	603.4875
2824.43239	605.7875
2826.96904	605.2875
2829.50412	610.0875
2832.03763	605.2875
2834.56959	616.5875
2837.1	607.7875
2839.62884	601.7875
2842.15613	611.5875
2844.68186	605.9875
2847.20604	601.1875
2849.72867	606.3875
2852.24974	612.1875
2854.76927	606.6875
2857.28724	596.4875
2859.80367	614.2875
2862.31855	612.1875
2864.83189	610.9875
2867.34368	609.0875
2869.85393	616.3875
2872.36264	616.5875
2874.8698	622.6875
2877.37543	613.1875
2879.87952	620.9875
2882.38207	613.7875
2884.88308	620.6875
2887.38256	621.5875
2889.88051	624.6875
2892.37692	630.5875
2894.8718	627.1875
2897.36515	632.0875
2899.85698	624.7875
2902.34727	629.7875
2904.83604	632.3875
2907.32328	632.6875
2909.809	633.2875
2912.29319	633.5875
2914.77587	633.0875
2917.25702	642.9875
2919.73665	639.2875
2922.21476	643.1875
2924.69136	641.1875
2927.16644	646.3875
2929.64	645.8875
2932.11205	656.2875
2934.58258	643.4875
2937.05161	644.7875
2939.51912	643.4875
2941.98513	644.2875
2944.44962	640.0875
2946.91261	644.2875
2949.37409	646.1875
2951.83407	655.1875
2954.29254	648.8875
2956.74951	651.7875
2959.20498	649.4875
2961.65895	645.3875
2964.11142	653.0875
2966.56239	644.0875
2969.01186	651.4875
2971.45984	645.1875
2973.90632	648.1875
2976.35131	654.9875
2978.7948	649.0875
2981.23681	656.2875
2983.67732	650.6875
2986.11635	646.8875
2988.55388	649.0875
2990.98993	646.5875
2993.4245	651.8875
2995.85758	650.7875
2998.28917	655.9875
3000.71928	655.0875
3003.14791	651.4875
3005.57506	652.3875
3008.00073	651.2875
3010.42493	658.3875
3012.84764	655.6875
3015.26888	656.7875
3017.68865	667.0875
3020.10694	663.6875
3022.52376	662.7875
3024.9391	668.5875
3027.35298	669.4875
3029.76539	670.8875
3032.17632	681.0875
3034.5858	670.5875
3036.9938	677.0875
3039.40034	678.9875
3041.80542	679.2875
3044.20903	681.6875
3046.61118	687.7875
3049.01187	679.4875
3051.4111	692.6875
3053.80888	694.1875
3056.20519	702.5875
3058.60005	700.9875
3060.99345	704.8875
3063.3854	709.0875
3065.7759	712.3875
3068.16494	706.6875
3070.55254	710.9875
3072.93868	719.5875
3075.32338	723.6875
3077.70662	726.1875
3080.08842	725.8875
3082.46878	730.3875
3084.84769	731.0875
3087.22515	738.4875
3089.60118	738.2875
3091.97576	752.7875
3094.3489	752.1875
3096.72061	750.4875
3099.09087	761.7875
3101.4597	773.1875
3103.82709	776.9875
3106.19305	782.9875
3108.55757	791.4875
3110.92066	783.0875
3113.28232	794.4875
3115.64255	802.0875
3118.00134	806.4875
3120.35871	815.6875
3122.71466	815.9875
3125.06917	827.3875
3127.42226	825.3875
3129.77393	833.5875
3132.12417	841.1875
3134.47299	842.3875
3136.82039	858.5875
3139.16636	857.6875
3141.51092	869.0875
3143.85406	873.5875
3146.19579	877.9875
3148.53609	881.3875
3150.87499	896.9875
3153.21246	908.8875
3155.54853	909.8875
3157.88318	917.6875
3160.21642	929.6875
3162.54826	932.6875
3164.87868	944.7875
3167.2077	954.8875
3169.5353	955.0875
3171.86151	956.5875
3174.18631	968.8875
3176.5097	972.2875
3178.83169	976.7875
3181.15228	988.5875
3183.47147	994.4875
3185.78926	998.0875
3188.10565	1007.3875
3190.42065	1012.7875
3192.73424	1015.1875
3195.04645	1014.0875
3197.35725	1016.9875
3199.66667	1028.9875
3201.97469	1031.0875
3204.28132	1045.1875
3206.58656	1053.2875
3208.8904	1050.9875
3211.19287	1056.9875
3213.49394	1068.0875
3215.79363	1064.1875
3218.09193	1073.2875
3220.38884	1062.0875
3222.68438	1072.0875
3224.97853	1077.3875
3227.2713	1083.3875
3229.56269	1088.4875
3231.8527	1089.8875
3234.14133	1087.3875
3236.42858	1080.1875
3238.71446	1083.8875
3240.99896	1090.2875
3243.28209	1084.5875
3245.56384	1088.9875
3247.84423	1089.2875
3250.12324	1084.4875
3252.40088	1091.1875
3254.67715	1085.3875
3256.95205	1087.3875
3259.22558	1096.6875
3261.49775	1094.2875
3263.76855	1094.8875
3266.03799	1102.5875
3268.30606	1102.2875
3270.57277	1098.0875
3272.83812	1099.0875
3275.10211	1092.9875
3277.36474	1100.2875
3279.62601	1102.5875
3281.88593	1098.1875
3284.14448	1103.1875
3286.40168	1096.7875
3288.65753	1103.9875
3290.91202	1098.9875
3293.16516	1100.7875
3295.41695	1090.5875
3297.66738	1094.3875
3299.91647	1087.7875
3302.16421	1081.9875
3304.4106	1080.3875
3306.65564	1067.0875
3308.89933	1074.1875
3311.14169	1051.6875
3313.38269	1043.9875
3315.62236	1051.9875
3317.86068	1039.2875
3320.09766	1038.5875
3322.3333	1026.7875
3324.5676	1018.8875
3326.80056	1001.3875
3329.03219	993.8875
3331.26248	-0.1125
3333.49143	0.2875
3335.71905	-2.5125
