Data from AgNPs_APTES_FTO_UA_100uM_CRN_0uM_R6G_10uM_Scan_RamanShift__73__12-04-51-327.txt Node

Date: Wed Jun 29 12:04:51 BST 2022
User: TCL
Spectrometer: QEP01345
Trigger mode: 4
Integration Time (sec): 7.000000E0
Scans to average: 10
Electric dark correction enabled: true
Nonlinearity correction enabled: false
Boxcar width: 0
XAxis mode: Raman Shifts
Number of Pixels in Spectrum: 1044
>>>>>Begin Spectral Data<<<<<
46.04893	0.3125
50.45542	-0.0875
54.85868	-0.0875
59.25871	1.0125
63.6555	42.0125
68.04907	45.5125
72.43941	50.3125
76.82654	51.3125
81.21044	53.9125
85.59113	58.7125
89.96862	63.3125
94.34289	63.3125
98.71396	62.3125
103.08183	65.5125
107.4465	67.2125
111.80798	69.0125
116.16626	63.7125
120.52136	69.1125
124.87327	62.9125
129.222	63.7125
133.56755	63.7125
137.90993	62.0125
142.24913	65.2125
146.58517	62.0125
150.91804	66.0125
155.24774	68.7125
159.57429	76.4125
163.89768	80.6125
168.21792	94.6125
172.53501	118.7125
176.84895	150.2125
181.15975	195.9125
185.46741	261.6125
189.77193	349.9125
194.07331	451.2125
198.37157	579.1125
202.6667	710.8125
206.9587	829.7125
211.24758	957.4125
215.53334	1078.4125
219.81599	1215.6125
224.09553	1353.7125
228.37195	1511.5125
232.64527	1669.2125
236.91549	1863.9125
241.18261	2046.1125
245.44663	2248.0125
249.70755	2423.7125
253.96539	2585.8125
258.22014	2712.1125
262.4718	2813.1125
266.72039	2858.6125
270.96589	2888.2125
275.20832	2874.1125
279.44768	2844.5125
283.68397	2813.1125
287.91719	2774.8125
292.14735	2744.0125
296.37445	2701.4125
300.59849	2692.4125
304.81948	2699.0125
309.03742	2681.8125
313.25231	2667.8125
317.46415	2677.2125
321.67296	2652.2125
325.87872	2643.7125
330.08145	2655.1125
334.28114	2675.3125
338.47781	2713.4125
342.67145	2739.9125
346.86207	2785.9125
351.04966	2831.7125
355.23424	2879.6125
359.4158	2943.2125
363.59435	2965.9125
367.76989	2998.2125
371.94243	3027.2125
376.11196	3065.6125
380.27849	3102.8125
384.44203	3133.4125
388.60257	3155.2125
392.76012	3175.6125
396.91468	3218.7125
401.06626	3270.7125
405.21485	3293.9125
409.36047	3318.2125
413.50311	3309.8125
417.64277	3302.4125
421.77947	3305.0125
425.9132	3326.0125
430.04396	3333.6125
434.17176	3363.7125
438.2966	3389.3125
442.41849	3426.5125
446.53742	3464.8125
450.6534	3510.7125
454.76644	3538.8125
458.87653	3581.0125
462.98368	3580.8125
467.08789	3592.6125
471.18916	3594.4125
475.2875	3597.7125
479.38291	3569.4125
483.4754	3574.3125
487.56496	3576.4125
491.6516	3594.0125
495.73531	3593.9125
499.81612	3598.1125
503.89401	3612.6125
507.96899	3616.7125
512.04106	3634.9125
516.11023	3635.9125
520.1765	3641.3125
524.23987	3633.5125
528.30034	3659.9125
532.35792	3653.3125
536.41261	3656.3125
540.46441	3639.5125
544.51333	3643.3125
548.55936	3661.7125
552.60252	3683.2125
556.64279	3696.3125
560.6802	3704.2125
564.71473	3719.3125
568.7464	3738.7125
572.7752	3746.4125
576.80114	3761.0125
580.82422	3767.7125
584.84444	3790.2125
588.86181	3816.3125
592.87633	3858.2125
596.888	3887.2125
600.89682	3935.5125
604.9028	4024.8125
608.90594	4208.3125
612.90624	4379.6125
616.90371	4289.7125
620.89834	4032.4125
624.89015	3926.8125
628.87913	3923.8125
632.86528	3926.5125
636.84862	3935.0125
640.82913	3945.1125
644.80683	3919.7125
648.78172	3908.5125
652.75379	3930.2125
656.72306	3938.6125
660.68952	3993.1125
664.65319	3996.9125
668.61405	3981.4125
672.57211	3989.2125
676.52738	4018.7125
680.47986	4030.4125
684.42955	4012.0125
688.37646	4026.5125
692.32058	4016.7125
696.26192	4058.6125
700.20048	4073.3125
704.13626	4092.0125
708.06928	4083.9125
711.99952	4075.7125
715.927	4094.4125
719.85171	4069.8125
723.77365	4077.3125
727.69284	4072.7125
731.60928	4073.9125
735.52295	4076.7125
739.43388	4076.7125
743.34206	4105.4125
747.24749	4097.1125
751.15017	4113.6125
755.05012	4091.2125
758.94733	4162.5125
762.8418	4196.1125
766.73354	4292.9125
770.62254	4397.2125
774.50882	4453.1125
778.39237	4437.4125
782.27321	4361.0125
786.15132	4292.0125
790.02671	4202.1125
793.89938	4176.9125
797.76935	4172.4125
801.6366	4157.2125
805.50115	4158.4125
809.36299	4157.5125
813.22213	4157.7125
817.07857	4164.5125
820.93231	4162.8125
824.78336	4162.8125
828.63172	4159.0125
832.47738	4169.5125
836.32036	4182.6125
840.16066	4168.5125
843.99827	4189.0125
847.8332	4197.9125
851.66546	4190.4125
855.49504	4205.4125
859.32195	4215.7125
863.1462	4228.9125
866.96777	4234.3125
870.78668	4228.3125
874.60293	4235.2125
878.41652	4240.0125
882.22745	4244.4125
886.03573	4258.4125
889.84136	4268.6125
893.64433	4274.8125
897.44466	4278.4125
901.24235	4265.1125
905.0374	4262.3125
908.8298	4257.7125
912.61957	4252.5125
916.40671	4251.5125
920.19121	4262.3125
923.97308	4272.4125
927.75233	4261.0125
931.52895	4270.9125
935.30295	4248.8125
939.07433	4254.0125
942.84309	4250.3125
946.60924	4243.4125
950.37278	4240.1125
954.13371	4227.7125
957.89203	4214.6125
961.64774	4222.4125
965.40086	4220.8125
969.15137	4207.6125
972.89929	4222.8125
976.64461	4215.3125
980.38733	4218.9125
984.12747	4208.7125
987.86502	4244.4125
991.59999	4261.1125
995.33237	4280.7125
999.06217	4301.7125
1002.78939	4335.4125
1006.51404	4355.6125
1010.23611	4361.9125
1013.95561	4413.6125
1017.67255	4396.9125
1021.38692	4402.8125
1025.09872	4398.5125
1028.80796	4385.8125
1032.51465	4384.7125
1036.21877	4387.8125
1039.92035	4398.9125
1043.61937	4388.7125
1047.31584	4390.3125
1051.00976	4395.2125
1054.70114	4393.7125
1058.38998	4384.7125
1062.07627	4408.8125
1065.76003	4420.4125
1069.44126	4444.8125
1073.11995	4480.2125
1076.79611	4506.1125
1080.46974	4554.4125
1084.14085	4553.9125
1087.80943	4546.5125
1091.47549	4556.4125
1095.13903	4557.7125
1098.80005	4554.7125
1102.45857	4516.3125
1106.11456	4513.5125
1109.76805	4490.8125
1113.41903	4503.4125
1117.06751	4498.5125
1120.71348	4495.5125
1124.35696	4544.0125
1127.99793	4566.5125
1131.63641	4557.3125
1135.2724	4539.2125
1138.90589	4520.9125
1142.5369	4514.0125
1146.16542	4488.9125
1149.79145	4494.3125
1153.415	4480.2125
1157.03607	4459.6125
1160.65467	4475.9125
1164.27079	4468.8125
1167.88443	4508.7125
1171.49561	4577.3125
1175.10432	4664.3125
1178.71056	4779.5125
1182.31434	4874.2125
1185.91565	4955.7125
1189.51451	5002.6125
1193.11091	4952.7125
1196.70485	4933.2125
1200.29634	4911.7125
1203.88538	4851.9125
1207.47197	4773.0125
1211.05612	4745.8125
1214.63782	4690.6125
1218.21708	4673.7125
1221.79391	4674.1125
1225.36829	4634.5125
1228.94024	4631.0125
1232.50976	4633.6125
1236.07685	4621.0125
1239.6415	4628.8125
1243.20374	4630.7125
1246.76355	4647.0125
1250.32093	4673.1125
1253.8759	4714.1125
1257.42845	4749.4125
1260.97859	4797.4125
1264.52631	4852.6125
1268.07163	4883.4125
1271.61453	4907.6125
1275.15503	4918.7125
1278.69312	4946.0125
1282.22882	4943.9125
1285.76211	4949.3125
1289.29301	4979.5125
1292.82151	4999.8125
1296.34761	5024.2125
1299.87133	5098.4125
1303.39266	5141.6125
1306.9116	5255.0125
1310.42815	5347.3125
1313.94233	5413.8125
1317.45412	5395.8125
1320.96354	5328.5125
1324.47058	5237.6125
1327.97525	5163.3125
1331.47754	5117.6125
1334.97747	5082.7125
1338.47502	5103.5125
1341.97022	5171.5125
1345.46305	5243.8125
1348.95352	5301.7125
1352.44163	5377.2125
1355.92738	5461.2125
1359.41078	5574.7125
1362.89183	5622.5125
1366.37053	5550.0125
1369.84688	5310.0125
1373.32088	5081.7125
1376.79254	4923.5125
1380.26186	4823.2125
1383.72883	4777.0125
1387.19347	4704.5125
1390.65578	4656.8125
1394.11575	4592.7125
1397.57339	4558.7125
1401.0287	4550.0125
1404.48168	4525.9125
1407.93234	4535.6125
1411.38068	4543.4125
1414.82669	4538.0125
1418.27039	4538.3125
1421.71177	4511.4125
1425.15083	4490.5125
1428.58758	4480.8125
1432.02203	4498.6125
1435.45416	4515.1125
1438.88399	4511.6125
1442.31151	4509.5125
1445.73673	4506.4125
1449.15965	4520.7125
1452.58027	4509.9125
1455.9986	4517.0125
1459.41463	4505.0125
1462.82837	4555.0125
1466.23982	4583.3125
1469.64898	4637.4125
1473.05586	4680.9125
1476.46045	4700.5125
1479.86276	4702.6125
1483.26279	4727.0125
1486.66054	4739.0125
1490.05602	4743.6125
1493.44922	4787.4125
1496.84016	4813.2125
1500.22882	4891.7125
1503.61521	4965.3125
1506.99934	5098.6125
1510.38121	5155.5125
1513.76081	5142.8125
1517.13816	5050.2125
1520.51324	4929.4125
1523.88607	4808.6125
1527.25665	4742.0125
1530.62498	4702.4125
1533.99105	4674.1125
1537.35488	4677.3125
1540.71647	4663.7125
1544.07581	4655.7125
1547.4329	4657.6125
1550.78776	4660.4125
1554.14038	4650.8125
1557.49077	4658.1125
1560.83892	4653.2125
1564.18484	4681.5125
1567.52853	4685.4125
1570.86999	4710.7125
1574.20922	4717.9125
1577.54624	4711.5125
1580.88103	4701.8125
1584.2136	4640.6125
1587.54395	4633.5125
1590.87208	4661.7125
1594.19801	4726.8125
1597.52172	4850.7125
1600.84321	4922.1125
1604.16251	4886.9125
1607.47959	4823.4125
1610.79447	4718.8125
1614.10715	4582.5125
1617.41763	4497.1125
1620.7259	4410.9125
1624.03199	4395.9125
1627.33587	4357.2125
1630.63757	4381.4125
1633.93707	4418.4125
1637.23439	4496.5125
1640.52951	4608.4125
1643.82246	4742.6125
1647.11321	4854.4125
1650.40179	4892.7125
1653.68819	4803.2125
1656.97241	4617.3125
1660.25446	4452.9125
1663.53433	4321.8125
1666.81203	4216.0125
1670.08756	4180.2125
1673.36092	4140.0125
1676.63211	4116.5125
1679.90115	4083.0125
1683.16801	4057.6125
1686.43272	4049.4125
1689.69527	4039.1125
1692.95567	4023.4125
1696.2139	4014.3125
1699.46999	4019.5125
1702.72392	4018.6125
1705.97571	4015.8125
1709.22535	3989.2125
1712.47284	3992.9125
1715.71819	3999.2125
1718.96139	3990.3125
1722.20246	3981.6125
1725.44139	3978.4125
1728.67818	3959.7125
1731.91284	3932.7125
1735.14537	3930.2125
1738.37576	3916.7125
1741.60403	3927.1125
1744.83017	3890.9125
1748.05418	3893.4125
1751.27607	3897.1125
1754.49584	3894.3125
1757.71349	3893.2125
1760.92903	3890.7125
1764.14244	3891.1125
1767.35375	3887.1125
1770.56294	3867.7125
1773.77002	3878.7125
1776.97499	3845.9125
1780.17785	3860.2125
1783.37861	3863.7125
1786.57727	3830.0125
1789.77382	3834.7125
1792.96828	3838.5125
1796.16064	3827.6125
1799.3509	3830.3125
1802.53907	3825.5125
1805.72514	3808.2125
1808.90913	3817.9125
1812.09102	3803.8125
1815.27083	3787.7125
1818.44856	3798.2125
1821.6242	3774.2125
1824.79776	3763.0125
1827.96924	3765.4125
1831.13864	3781.1125
1834.30597	3763.1125
1837.47122	3755.9125
1840.6344	3739.2125
1843.7955	3738.1125
1846.95454	3734.2125
1850.11151	3751.2125
1853.26642	3755.4125
1856.41926	3738.7125
1859.57004	3748.4125
1862.71876	3741.9125
1865.86542	3725.7125
1869.01003	3728.4125
1872.15258	3724.3125
1875.29308	3722.6125
1878.43152	3715.8125
1881.56792	3723.4125
1884.70227	3706.9125
1887.83457	3696.6125
1890.96482	3687.3125
1894.09304	3683.2125
1897.21921	3692.4125
1900.34335	3682.3125
1903.46544	3679.3125
1906.58551	3687.4125
1909.70353	3687.0125
1912.81953	3671.4125
1915.93349	3682.9125
1919.04543	3657.0125
1922.15534	3645.3125
1925.26322	3650.2125
1928.36908	3649.5125
1931.47292	3641.1125
1934.57473	3634.3125
1937.67453	3639.2125
1940.77232	3627.6125
1943.86808	3622.9125
1946.96184	3610.0125
1950.05358	3589.4125
1953.14331	3581.7125
1956.23103	3578.6125
1959.31675	3569.9125
1962.40046	3568.4125
1965.48217	3550.2125
1968.56188	3536.3125
1971.63959	3537.6125
1974.7153	3513.1125
1977.78901	3517.4125
1980.86073	3500.0125
1983.93046	3504.9125
1986.99819	3476.4125
1990.06394	3465.3125
1993.1277	3469.1125
1996.18947	3463.3125
1999.24925	3442.5125
2002.30706	3434.5125
2005.36288	3435.9125
2008.41672	3411.8125
2011.46859	3412.2125
2014.51848	3401.1125
2017.56639	3393.0125
2020.61233	3367.0125
2023.6563	3381.6125
2026.6983	3347.3125
2029.73833	3375.5125
2032.7764	3342.0125
2035.8125	3349.9125
2038.84664	3333.1125
2041.87881	3314.4125
2044.90903	3328.3125
2047.93729	3317.4125
2050.96359	3320.3125
2053.98794	3306.4125
2057.01034	3318.8125
2060.03078	3314.9125
2063.04927	3299.1125
2066.06582	3311.1125
2069.08042	3301.0125
2072.09307	3308.0125
2075.10378	3290.5125
2078.11255	3293.4125
2081.11938	3291.5125
2084.12426	3286.1125
2087.12722	3298.2125
2090.12824	3299.7125
2093.12732	3293.3125
2096.12447	3300.8125
2099.11969	3297.3125
2102.11299	3292.5125
2105.10435	3311.6125
2108.09379	3298.3125
2111.08131	3296.5125
2114.0669	3301.7125
2117.05057	3327.8125
2120.03233	3311.8125
2123.01216	3323.0125
2125.99008	3319.2125
2128.96609	3330.8125
2131.94018	3325.5125
2134.91236	3308.9125
2137.88263	3333.3125
2140.851	3331.8125
2143.81746	3329.1125
2146.78201	3339.2125
2149.74466	3334.6125
2152.7054	3333.3125
2155.66425	3336.9125
2158.6212	3348.7125
2161.57625	3328.9125
2164.52941	3321.0125
2167.48067	3327.1125
2170.43004	3321.2125
2173.37752	3334.3125
2176.32311	3328.5125
2179.26681	3331.0125
2182.20863	3327.9125
2185.14856	3335.5125
2188.08661	3329.4125
2191.02278	3335.3125
2193.95707	3322.8125
2196.88948	3305.8125
2199.82001	3311.3125
2202.74867	3314.1125
2205.67545	3310.1125
2208.60037	3298.6125
2211.52341	3295.2125
2214.44458	3276.0125
2217.36388	3287.5125
2220.28132	3279.4125
2223.1969	3279.9125
2226.11061	3272.6125
2229.02246	3249.2125
2231.93245	3259.4125
2234.84058	3237.1125
2237.74686	3244.7125
2240.65128	3235.9125
2243.55385	3241.0125
2246.45456	3232.8125
2249.35343	3234.6125
2252.25044	3220.3125
2255.14561	3231.3125
2258.03893	3232.2125
2260.93041	3222.0125
2263.82004	3211.5125
2266.70783	3191.4125
2269.59378	3186.2125
2272.4779	3177.7125
2275.36017	3178.0125
2278.24061	3168.3125
2281.11922	3172.3125
2283.996	3162.1125
2286.87094	3145.4125
2289.74405	3157.0125
2292.61534	3155.5125
2295.4848	3141.3125
2298.35243	3144.1125
2301.21824	3142.5125
2304.08223	3133.6125
2306.94439	3152.7125
2309.80474	3144.5125
2312.66327	3138.8125
2315.51999	3138.2125
2318.37489	3147.2125
2321.22797	3131.3125
2324.07925	3125.2125
2326.92871	3118.4125
2329.77637	3115.1125
2332.62222	3118.4125
2335.46626	3102.1125
2338.3085	3080.4125
2341.14893	3097.9125
2343.98756	3094.5125
2346.8244	3089.4125
2349.65943	3096.4125
2352.49267	3079.9125
2355.32411	3077.7125
2358.15376	3078.7125
2360.98161	3075.7125
2363.80768	3080.8125
2366.63195	3086.2125
2369.45444	3070.4125
2372.27514	3081.5125
2375.09405	3075.0125
2377.91118	3067.1125
2380.72652	3051.0125
2383.54009	3070.7125
2386.35187	3060.9125
2389.16188	3045.5125
2391.97011	3035.5125
2394.77657	3034.0125
2397.58125	3021.7125
2400.38416	3020.8125
2403.18529	3011.5125
2405.98466	3003.1125
2408.78226	2987.6125
2411.57809	3002.2125
2414.37216	3007.6125
2417.16446	2980.0125
2419.955	2991.6125
2422.74378	2986.2125
2425.5308	2981.7125
2428.31606	2991.5125
2431.09956	2974.2125
2433.88131	2979.6125
2436.6613	2975.2125
2439.43954	2974.7125
2442.21603	2979.1125
2444.99077	2970.1125
2447.76377	2983.2125
2450.53501	2968.5125
2453.30451	2969.2125
2456.07226	2961.3125
2458.83827	2962.5125
2461.60254	2943.1125
2464.36507	2945.2125
2467.12586	2929.2125
2469.88492	2949.1125
2472.64224	2933.5125
2475.39782	2924.4125
2478.15167	2946.6125
2480.90379	2926.2125
2483.65417	2934.0125
2486.40283	2931.9125
2489.14976	2938.6125
2491.89497	2928.2125
2494.63845	2927.7125
2497.3802	2932.4125
2500.12024	2934.3125
2502.85855	2922.7125
2505.59514	2913.2125
2508.33002	2900.6125
2511.06318	2913.6125
2513.79462	2902.6125
2516.52435	2899.2125
2519.25237	2900.0125
2521.97867	2887.8125
2524.70327	2887.7125
2527.42616	2898.0125
2530.14734	2883.3125
2532.86681	2880.0125
2535.58458	2882.8125
2538.30065	2876.9125
2541.01501	2859.5125
2543.72768	2867.1125
2546.43864	2856.2125
2549.14791	2876.4125
2551.85548	2852.0125
2554.56136	2855.0125
2557.26554	2843.5125
2559.96803	2845.9125
2562.66883	2842.8125
2565.36794	2829.6125
2568.06536	2831.4125
2570.7611	2816.2125
2573.45514	2830.4125
2576.14751	2824.8125
2578.83819	2807.7125
2581.52719	2796.3125
2584.21451	2784.4125
2586.90015	2796.3125
2589.58411	2783.1125
2592.2664	2799.9125
2594.94701	2778.6125
2597.62594	2766.9125
2600.30321	2786.9125
2602.9788	2770.6125
2605.65273	2764.8125
2608.32498	2760.9125
2610.99557	2753.7125
2613.66449	2766.8125
2616.33175	2762.1125
2618.99734	2749.4125
2621.66128	2744.3125
2624.32355	2727.4125
2626.98416	2743.2125
2629.64311	2730.7125
2632.30041	2734.3125
2634.95605	2719.2125
2637.61004	2710.4125
2640.26238	2713.8125
2642.91306	2709.3125
2645.56209	2711.1125
2648.20948	2711.0125
2650.85521	2713.6125
2653.4993	2711.2125
2656.14175	2697.0125
2658.78255	2696.1125
2661.42171	2700.2125
2664.05923	2713.3125
2666.6951	2713.6125
2669.32934	2709.8125
2671.96194	2705.8125
2674.59291	2716.0125
2677.22224	2703.8125
2679.84993	2699.0125
2682.476	2692.9125
2685.10043	2692.4125
2687.72324	2708.1125
2690.34441	2699.7125
2692.96396	2693.6125
2695.58188	2698.1125
2698.19818	2692.8125
2700.81285	2678.9125
2703.4259	2702.8125
2706.03733	2694.6125
2708.64714	2686.8125
2711.25533	2682.1125
2713.86191	2694.2125
2716.46687	2701.2125
2719.07021	2685.6125
2721.67194	2680.5125
2724.27206	2694.1125
2726.87057	2682.6125
2729.46747	2685.0125
2732.06276	2693.4125
2734.65644	2700.8125
2737.24852	2698.4125
2739.83899	2702.0125
2742.42786	2697.8125
2745.01513	2685.3125
2747.60079	2687.9125
2750.18486	2691.5125
2752.76733	2680.8125
2755.3482	2666.8125
2757.92747	2662.8125
2760.50515	2665.8125
2763.08123	2652.1125
2765.65573	2656.6125
2768.22863	2646.4125
2770.79994	2648.6125
2773.36967	2644.3125
2775.9378	2651.5125
2778.50435	2639.5125
2781.06932	2641.7125
2783.6327	2639.0125
2786.1945	2629.5125
2788.75471	2627.0125
2791.31335	2628.7125
2793.87041	2614.3125
2796.42589	2612.0125
2798.97979	2624.4125
2801.53212	2622.3125
2804.08288	2609.4125
2806.63206	2602.3125
2809.17967	2592.7125
2811.72571	2575.5125
2814.27018	2566.4125
2816.81308	2559.7125
2819.35442	2561.1125
2821.89419	2557.3125
2824.43239	2553.8125
2826.96904	2562.5125
2829.50412	2560.6125
2832.03763	2538.3125
2834.56959	2541.8125
2837.1	2546.2125
2839.62884	2545.0125
2842.15613	2543.5125
2844.68186	2527.0125
2847.20604	2532.8125
2849.72867	2533.2125
2852.24974	2540.3125
2854.76927	2539.0125
2857.28724	2531.1125
2859.80367	2531.7125
2862.31855	2531.5125
2864.83189	2509.9125
2867.34368	2517.1125
2869.85393	2522.1125
2872.36264	2507.4125
2874.8698	2506.3125
2877.37543	2501.9125
2879.87952	2505.0125
2882.38207	2510.3125
2884.88308	2504.6125
2887.38256	2507.5125
2889.88051	2494.5125
2892.37692	2514.5125
2894.8718	2508.3125
2897.36515	2504.5125
2899.85698	2502.7125
2902.34727	2502.6125
2904.83604	2523.4125
2907.32328	2523.3125
2909.809	2519.2125
2912.29319	2521.2125
2914.77587	2509.3125
2917.25702	2529.7125
2919.73665	2511.3125
2922.21476	2503.8125
2924.69136	2508.2125
2927.16644	2517.8125
2929.64	2515.0125
2932.11205	2518.5125
2934.58258	2500.7125
2937.05161	2504.8125
2939.51912	2491.9125
2941.98513	2490.3125
2944.44962	2489.7125
2946.91261	2496.2125
2949.37409	2508.7125
2951.83407	2494.1125
2954.29254	2504.3125
2956.74951	2502.1125
2959.20498	2502.7125
2961.65895	2499.4125
2964.11142	2514.5125
2966.56239	2504.3125
2969.01186	2520.1125
2971.45984	2507.4125
2973.90632	2513.1125
2976.35131	2521.7125
2978.7948	2516.4125
2981.23681	2494.4125
2983.67732	2493.4125
2986.11635	2486.9125
2988.55388	2482.4125
2990.98993	2477.5125
2993.4245	2484.0125
2995.85758	2485.9125
2998.28917	2480.5125
3000.71928	2480.6125
3003.14791	2480.9125
3005.57506	2472.0125
3008.00073	2452.3125
3010.42493	2458.0125
3012.84764	2455.7125
3015.26888	2463.9125
3017.68865	2468.7125
3020.10694	2463.5125
3022.52376	2457.0125
3024.9391	2460.7125
3027.35298	2456.6125
3029.76539	2453.8125
3032.17632	2462.7125
3034.5858	2461.5125
3036.9938	2461.5125
3039.40034	2454.7125
3041.80542	2456.7125
3044.20903	2454.5125
3046.61118	2461.8125
3049.01187	2443.8125
3051.4111	2458.2125
3053.80888	2456.2125
3056.20519	2460.8125
3058.60005	2457.0125
3060.99345	2447.5125
3063.3854	2454.6125
3065.7759	2452.7125
3068.16494	2450.4125
3070.55254	2443.4125
3072.93868	2442.4125
3075.32338	2439.9125
3077.70662	2445.9125
3080.08842	2441.3125
3082.46878	2436.5125
3084.84769	2434.0125
3087.22515	2437.6125
3089.60118	2448.6125
3091.97576	2455.1125
3094.3489	2458.5125
3096.72061	2450.6125
3099.09087	2472.4125
3101.4597	2483.7125
3103.82709	2498.5125
3106.19305	2492.2125
3108.55757	2499.0125
3110.92066	2483.5125
3113.28232	2493.8125
3115.64255	2494.2125
3118.00134	2496.7125
3120.35871	2506.2125
3122.71466	2507.3125
3125.06917	2500.6125
3127.42226	2494.9125
3129.77393	2510.6125
3132.12417	2507.2125
3134.47299	2504.5125
3136.82039	2512.2125
3139.16636	2521.0125
3141.51092	2515.6125
3143.85406	2524.7125
3146.19579	2531.0125
3148.53609	2541.0125
3150.87499	2544.6125
3153.21246	2558.1125
3155.54853	2577.5125
3157.88318	2564.7125
3160.21642	2578.9125
3162.54826	2593.7125
3164.87868	2586.8125
3167.2077	2608.8125
3169.5353	2606.8125
3171.86151	2630.7125
3174.18631	2613.6125
3176.5097	2623.6125
3178.83169	2633.3125
3181.15228	2645.1125
3183.47147	2637.8125
3185.78926	2637.7125
3188.10565	2639.8125
3190.42065	2642.5125
3192.73424	2634.7125
3195.04645	2630.4125
3197.35725	2637.2125
3199.66667	2637.2125
3201.97469	2652.4125
3204.28132	2656.8125
3206.58656	2657.7125
3208.8904	2667.1125
3211.19287	2676.1125
3213.49394	2683.9125
3215.79363	2676.1125
3218.09193	2690.3125
3220.38884	2689.9125
3222.68438	2692.3125
3224.97853	2697.0125
3227.2713	2693.9125
3229.56269	2699.8125
3231.8527	2690.7125
3234.14133	2695.8125
3236.42858	2687.2125
3238.71446	2687.5125
3240.99896	2681.7125
3243.28209	2676.4125
3245.56384	2669.3125
3247.84423	2670.2125
3250.12324	2654.9125
3252.40088	2660.7125
3254.67715	2672.4125
3256.95205	2670.0125
3259.22558	2667.0125
3261.49775	2674.1125
3263.76855	2677.4125
3266.03799	2673.3125
3268.30606	2675.5125
3270.57277	2676.7125
3272.83812	2668.7125
3275.10211	2644.6125
3277.36474	2641.4125
3279.62601	2645.6125
3281.88593	2639.9125
3284.14448	2638.3125
3286.40168	2644.8125
3288.65753	2631.9125
3290.91202	2644.4125
3293.16516	2627.5125
3295.41695	2616.0125
3297.66738	2608.3125
3299.91647	2614.8125
3302.16421	2594.3125
3304.4106	2571.7125
3306.65564	2559.7125
3308.89933	2535.8125
3311.14169	2518.9125
3313.38269	2498.0125
3315.62236	2483.4125
3317.86068	2464.5125
3320.09766	2453.5125
3322.3333	2438.1125
3324.5676	2407.2125
3326.80056	2392.3125
3329.03219	2372.7125
3331.26248	0.1125
3333.49143	1.0125
3335.71905	-2.3875
