Data from AgNPs_APTES_FTO_UA_100uM_CRN_0uM_R6G_10uM_Scan_RamanShift__9__10-50-11-238.txt Node

Date: Wed Jun 29 10:50:11 BST 2022
User: TCL
Spectrometer: QEP01345
Trigger mode: 4
Integration Time (sec): 7.000000E0
Scans to average: 10
Electric dark correction enabled: true
Nonlinearity correction enabled: false
Boxcar width: 0
XAxis mode: Raman Shifts
Number of Pixels in Spectrum: 1044
>>>>>Begin Spectral Data<<<<<
46.04893	-0.6125
50.45542	0.8875
54.85868	0.7875
59.25871	1.2875
63.6555	37.9875
68.04907	34.9875
72.43941	40.5875
76.82654	44.5875
81.21044	43.9875
85.59113	50.9875
89.96862	53.3875
94.34289	53.6875
98.71396	55.5875
103.08183	57.3875
107.4465	58.5875
111.80798	59.6875
116.16626	52.8875
120.52136	57.9875
124.87327	56.0875
129.222	52.5875
133.56755	54.6875
137.90993	51.6875
142.24913	54.4875
146.58517	50.0875
150.91804	51.9875
155.24774	47.7875
159.57429	52.4875
163.89768	57.5875
168.21792	57.7875
172.53501	67.3875
176.84895	79.1875
181.15975	101.2875
185.46741	123.3875
189.77193	155.5875
194.07331	202.0875
198.37157	253.8875
202.6667	309.2875
206.9587	357.7875
211.24758	415.3875
215.53334	463.2875
219.81599	517.5875
224.09553	581.0875
228.37195	642.3875
232.64527	708.3875
236.91549	781.9875
241.18261	849.7875
245.44663	919.1875
249.70755	988.2875
253.96539	1034.3875
258.22014	1060.9875
262.4718	1092.3875
266.72039	1105.2875
270.96589	1101.5875
275.20832	1089.1875
279.44768	1075.5875
283.68397	1044.0875
287.91719	1019.6875
292.14735	998.6875
296.37445	972.0875
300.59849	971.6875
304.81948	963.2875
309.03742	964.4875
313.25231	954.7875
317.46415	943.0875
321.67296	919.7875
325.87872	909.3875
330.08145	904.8875
334.28114	903.0875
338.47781	919.6875
342.67145	919.6875
346.86207	942.8875
351.04966	954.5875
355.23424	974.0875
359.4158	992.5875
363.59435	1003.3875
367.76989	1010.8875
371.94243	1011.5875
376.11196	1014.3875
380.27849	1023.8875
384.44203	1025.9875
388.60257	1031.4875
392.76012	1029.7875
396.91468	1043.4875
401.06626	1056.5875
405.21485	1061.1875
409.36047	1059.7875
413.50311	1057.3875
417.64277	1046.8875
421.77947	1039.6875
425.9132	1026.4875
430.04396	1028.9875
434.17176	1037.7875
438.2966	1051.0875
442.41849	1061.6875
446.53742	1078.3875
450.6534	1085.9875
454.76644	1095.4875
458.87653	1091.9875
462.98368	1109.7875
467.08789	1103.8875
471.18916	1107.4875
475.2875	1110.8875
479.38291	1102.7875
483.4754	1106.0875
487.56496	1118.1875
491.6516	1116.5875
495.73531	1122.1875
499.81612	1120.9875
503.89401	1118.1875
507.96899	1117.2875
512.04106	1106.5875
516.11023	1101.6875
520.1765	1108.5875
524.23987	1100.4875
528.30034	1106.8875
532.35792	1096.6875
536.41261	1090.1875
540.46441	1092.1875
544.51333	1088.0875
548.55936	1088.3875
552.60252	1084.2875
556.64279	1090.3875
560.6802	1094.6875
564.71473	1097.5875
568.7464	1101.6875
572.7752	1106.6875
576.80114	1100.7875
580.82422	1099.5875
584.84444	1096.4875
588.86181	1098.1875
592.87633	1116.9875
596.888	1123.7875
600.89682	1129.5875
604.9028	1150.9875
608.90594	1231.6875
612.90624	1326.3875
616.90371	1320.0875
620.89834	1213.8875
624.89015	1168.9875
628.87913	1181.2875
632.86528	1183.2875
636.84862	1211.7875
640.82913	1216.6875
644.80683	1207.4875
648.78172	1183.0875
652.75379	1185.6875
656.72306	1176.5875
660.68952	1202.0875
664.65319	1190.8875
668.61405	1184.2875
672.57211	1195.9875
676.52738	1212.2875
680.47986	1237.0875
684.42955	1267.3875
688.37646	1282.2875
692.32058	1277.9875
696.26192	1237.7875
700.20048	1219.4875
704.13626	1203.3875
708.06928	1199.9875
711.99952	1188.1875
715.927	1193.6875
719.85171	1193.7875
723.77365	1185.6875
727.69284	1182.3875
731.60928	1180.5875
735.52295	1169.8875
739.43388	1173.6875
743.34206	1170.6875
747.24749	1162.4875
751.15017	1164.4875
755.05012	1143.2875
758.94733	1181.2875
762.8418	1211.0875
766.73354	1246.2875
770.62254	1297.0875
774.50882	1319.2875
778.39237	1304.9875
782.27321	1261.5875
786.15132	1231.1875
790.02671	1205.9875
793.89938	1193.3875
797.76935	1199.3875
801.6366	1199.1875
805.50115	1199.1875
809.36299	1209.6875
813.22213	1218.4875
817.07857	1208.9875
820.93231	1194.4875
824.78336	1184.3875
828.63172	1176.0875
832.47738	1173.3875
836.32036	1164.5875
840.16066	1164.0875
843.99827	1165.8875
847.8332	1156.9875
851.66546	1154.1875
855.49504	1153.9875
859.32195	1151.8875
863.1462	1153.9875
866.96777	1148.4875
870.78668	1158.8875
874.60293	1166.5875
878.41652	1169.7875
882.22745	1180.5875
886.03573	1197.9875
889.84136	1211.4875
893.64433	1212.1875
897.44466	1217.4875
901.24235	1211.2875
905.0374	1204.1875
908.8298	1206.1875
912.61957	1203.4875
916.40671	1199.3875
920.19121	1213.6875
923.97308	1218.6875
927.75233	1215.1875
931.52895	1224.2875
935.30295	1213.3875
939.07433	1204.6875
942.84309	1195.2875
946.60924	1187.7875
950.37278	1179.4875
954.13371	1174.3875
957.89203	1163.4875
961.64774	1156.8875
965.40086	1162.1875
969.15137	1151.5875
972.89929	1141.9875
976.64461	1148.0875
980.38733	1145.0875
984.12747	1133.3875
987.86502	1135.9875
991.59999	1136.7875
995.33237	1141.3875
999.06217	1148.5875
1002.78939	1152.4875
1006.51404	1165.1875
1010.23611	1172.3875
1013.95561	1170.4875
1017.67255	1173.4875
1021.38692	1181.8875
1025.09872	1179.2875
1028.80796	1180.3875
1032.51465	1170.1875
1036.21877	1164.8875
1039.92035	1166.1875
1043.61937	1159.4875
1047.31584	1165.1875
1051.00976	1154.8875
1054.70114	1163.3875
1058.38998	1160.9875
1062.07627	1165.1875
1065.76003	1162.8875
1069.44126	1175.8875
1073.11995	1176.0875
1076.79611	1192.1875
1080.46974	1186.4875
1084.14085	1185.9875
1087.80943	1189.8875
1091.47549	1178.7875
1095.13903	1177.2875
1098.80005	1155.6875
1102.45857	1153.8875
1106.11456	1152.9875
1109.76805	1151.5875
1113.41903	1161.6875
1117.06751	1181.5875
1120.71348	1201.6875
1124.35696	1236.8875
1127.99793	1269.2875
1131.63641	1292.9875
1135.2724	1304.6875
1138.90589	1286.5875
1142.5369	1270.4875
1146.16542	1247.6875
1149.79145	1221.7875
1153.415	1205.5875
1157.03607	1196.5875
1160.65467	1181.2875
1164.27079	1177.3875
1167.88443	1198.2875
1171.49561	1206.9875
1175.10432	1242.9875
1178.71056	1286.9875
1182.31434	1322.2875
1185.91565	1335.0875
1189.51451	1319.6875
1193.11091	1304.8875
1196.70485	1279.2875
1200.29634	1279.1875
1203.88538	1267.9875
1207.47197	1253.0875
1211.05612	1244.4875
1214.63782	1218.3875
1218.21708	1214.3875
1221.79391	1209.5875
1225.36829	1206.8875
1228.94024	1207.0875
1232.50976	1216.8875
1236.07685	1222.6875
1239.6415	1220.6875
1243.20374	1229.4875
1246.76355	1227.7875
1250.32093	1236.4875
1253.8759	1230.5875
1257.42845	1248.7875
1260.97859	1253.3875
1264.52631	1261.2875
1268.07163	1281.3875
1271.61453	1290.2875
1275.15503	1293.5875
1278.69312	1303.3875
1282.22882	1303.4875
1285.76211	1311.8875
1289.29301	1344.8875
1292.82151	1367.1875
1296.34761	1389.0875
1299.87133	1422.7875
1303.39266	1449.0875
1306.9116	1508.4875
1310.42815	1559.5875
1313.94233	1594.6875
1317.45412	1566.6875
1320.96354	1526.0875
1324.47058	1476.7875
1327.97525	1443.8875
1331.47754	1425.6875
1334.97747	1425.4875
1338.47502	1431.8875
1341.97022	1456.6875
1345.46305	1485.6875
1348.95352	1530.3875
1352.44163	1569.9875
1355.92738	1646.3875
1359.41078	1729.8875
1362.89183	1836.4875
1366.37053	1848.9875
1369.84688	1732.7875
1373.32088	1634.4875
1376.79254	1556.1875
1380.26186	1524.0875
1383.72883	1496.6875
1387.19347	1470.6875
1390.65578	1444.1875
1394.11575	1439.3875
1397.57339	1420.2875
1401.0287	1418.8875
1404.48168	1407.9875
1407.93234	1392.3875
1411.38068	1386.9875
1414.82669	1383.6875
1418.27039	1367.0875
1421.71177	1355.9875
1425.15083	1339.3875
1428.58758	1323.3875
1432.02203	1310.6875
1435.45416	1298.4875
1438.88399	1292.4875
1442.31151	1281.4875
1445.73673	1265.8875
1449.15965	1265.7875
1452.58027	1274.1875
1455.9986	1270.0875
1459.41463	1266.9875
1462.82837	1267.8875
1466.23982	1270.7875
1469.64898	1277.0875
1473.05586	1296.0875
1476.46045	1290.2875
1479.86276	1302.5875
1483.26279	1310.5875
1486.66054	1315.3875
1490.05602	1322.1875
1493.44922	1344.7875
1496.84016	1359.5875
1500.22882	1406.7875
1503.61521	1459.1875
1506.99934	1525.3875
1510.38121	1587.1875
1513.76081	1596.8875
1517.13816	1551.7875
1520.51324	1468.3875
1523.88607	1401.2875
1527.25665	1346.5875
1530.62498	1309.5875
1533.99105	1299.5875
1537.35488	1290.6875
1540.71647	1283.4875
1544.07581	1268.4875
1547.4329	1284.8875
1550.78776	1281.3875
1554.14038	1287.6875
1557.49077	1284.9875
1560.83892	1290.7875
1564.18484	1307.8875
1567.52853	1320.0875
1570.86999	1330.4875
1574.20922	1338.3875
1577.54624	1336.7875
1580.88103	1323.7875
1584.2136	1284.7875
1587.54395	1258.9875
1590.87208	1247.2875
1594.19801	1244.9875
1597.52172	1242.8875
1600.84321	1238.5875
1604.16251	1225.5875
1607.47959	1200.8875
1610.79447	1199.0875
1614.10715	1176.9875
1617.41763	1179.5875
1620.7259	1158.4875
1624.03199	1157.0875
1627.33587	1145.7875
1630.63757	1145.4875
1633.93707	1138.9875
1637.23439	1134.7875
1640.52951	1156.3875
1643.82246	1185.2875
1647.11321	1203.2875
1650.40179	1243.7875
1653.68819	1230.1875
1656.97241	1175.7875
1660.25446	1128.8875
1663.53433	1071.2875
1666.81203	1060.4875
1670.08756	1051.9875
1673.36092	1057.9875
1676.63211	1049.5875
1679.90115	1048.5875
1683.16801	1040.2875
1686.43272	1031.9875
1689.69527	1015.4875
1692.95567	988.6875
1696.2139	949.6875
1699.46999	912.9875
1702.72392	900.4875
1705.97571	912.9875
1709.22535	917.1875
1712.47284	918.9875
1715.71819	935.5875
1718.96139	923.6875
1722.20246	918.5875
1725.44139	907.0875
1728.67818	900.0875
1731.91284	883.0875
1735.14537	888.9875
1738.37576	877.7875
1741.60403	856.5875
1744.83017	854.6875
1748.05418	846.1875
1751.27607	836.4875
1754.49584	815.0875
1757.71349	795.2875
1760.92903	786.7875
1764.14244	781.8875
1767.35375	780.2875
1770.56294	775.3875
1773.77002	777.2875
1776.97499	789.6875
1780.17785	813.6875
1783.37861	817.4875
1786.57727	830.6875
1789.77382	826.6875
1792.96828	821.5875
1796.16064	819.5875
1799.3509	822.8875
1802.53907	825.4875
1805.72514	814.8875
1808.90913	817.8875
1812.09102	814.3875
1815.27083	821.8875
1818.44856	807.8875
1821.6242	811.5875
1824.79776	813.3875
1827.96924	811.0875
1831.13864	805.9875
1834.30597	803.9875
1837.47122	809.1875
1840.6344	800.6875
1843.7955	805.2875
1846.95454	804.6875
1850.11151	807.1875
1853.26642	801.7875
1856.41926	797.3875
1859.57004	799.4875
1862.71876	796.7875
1865.86542	797.9875
1869.01003	798.2875
1872.15258	794.2875
1875.29308	792.1875
1878.43152	793.4875
1881.56792	793.8875
1884.70227	783.1875
1887.83457	791.2875
1890.96482	791.4875
1894.09304	784.2875
1897.21921	790.3875
1900.34335	779.6875
1903.46544	783.8875
1906.58551	796.8875
1909.70353	783.4875
1912.81953	784.2875
1915.93349	784.5875
1919.04543	784.8875
1922.15534	781.2875
1925.26322	769.3875
1928.36908	774.8875
1931.47292	778.1875
1934.57473	771.4875
1937.67453	772.2875
1940.77232	772.2875
1943.86808	774.4875
1946.96184	767.1875
1950.05358	763.9875
1953.14331	766.4875
1956.23103	758.9875
1959.31675	755.7875
1962.40046	761.5875
1965.48217	752.6875
1968.56188	754.5875
1971.63959	756.6875
1974.7153	753.4875
1977.78901	745.7875
1980.86073	745.4875
1983.93046	746.0875
1986.99819	746.6875
1990.06394	734.6875
1993.1277	746.0875
1996.18947	736.7875
1999.24925	739.2875
2002.30706	729.6875
2005.36288	728.3875
2008.41672	734.1875
2011.46859	729.8875
2014.51848	719.6875
2017.56639	720.5875
2020.61233	723.8875
2023.6563	724.8875
2026.6983	718.2875
2029.73833	721.2875
2032.7764	713.8875
2035.8125	722.0875
2038.84664	717.3875
2041.87881	708.3875
2044.90903	708.0875
2047.93729	716.4875
2050.96359	712.4875
2053.98794	705.3875
2057.01034	715.5875
2060.03078	719.3875
2063.04927	714.5875
2066.06582	722.2875
2069.08042	720.0875
2072.09307	727.0875
2075.10378	723.9875
2078.11255	726.1875
2081.11938	727.5875
2084.12426	729.1875
2087.12722	746.4875
2090.12824	733.7875
2093.12732	747.9875
2096.12447	739.1875
2099.11969	750.2875
2102.11299	750.6875
2105.10435	759.9875
2108.09379	754.9875
2111.08131	758.3875
2114.0669	752.0875
2117.05057	766.5875
2120.03233	766.7875
2123.01216	765.5875
2125.99008	758.2875
2128.96609	760.9875
2131.94018	765.5875
2134.91236	760.1875
2137.88263	764.6875
2140.851	767.1875
2143.81746	754.8875
2146.78201	758.0875
2149.74466	753.6875
2152.7054	754.2875
2155.66425	745.2875
2158.6212	755.9875
2161.57625	756.8875
2164.52941	755.8875
2167.48067	748.3875
2170.43004	752.8875
2173.37752	748.2875
2176.32311	751.3875
2179.26681	746.5875
2182.20863	743.4875
2185.14856	750.3875
2188.08661	741.6875
2191.02278	738.4875
2193.95707	735.6875
2196.88948	729.4875
2199.82001	727.3875
2202.74867	730.3875
2205.67545	721.6875
2208.60037	719.9875
2211.52341	717.1875
2214.44458	711.8875
2217.36388	719.3875
2220.28132	713.5875
2223.1969	707.5875
2226.11061	710.1875
2229.02246	707.0875
2231.93245	707.7875
2234.84058	705.7875
2237.74686	711.2875
2240.65128	701.3875
2243.55385	696.4875
2246.45456	700.6875
2249.35343	704.4875
2252.25044	701.9875
2255.14561	705.8875
2258.03893	696.9875
2260.93041	686.0875
2263.82004	692.0875
2266.70783	682.4875
2269.59378	690.6875
2272.4779	686.2875
2275.36017	691.5875
2278.24061	689.7875
2281.11922	684.1875
2283.996	689.0875
2286.87094	689.8875
2289.74405	689.2875
2292.61534	690.6875
2295.4848	690.4875
2298.35243	680.1875
2301.21824	681.7875
2304.08223	688.4875
2306.94439	685.9875
2309.80474	680.0875
2312.66327	680.1875
2315.51999	687.1875
2318.37489	678.9875
2321.22797	676.8875
2324.07925	673.5875
2326.92871	678.1875
2329.77637	678.2875
2332.62222	678.1875
2335.46626	672.0875
2338.3085	671.0875
2341.14893	667.4875
2343.98756	667.3875
2346.8244	671.9875
2349.65943	669.9875
2352.49267	674.3875
2355.32411	671.6875
2358.15376	663.1875
2360.98161	664.4875
2363.80768	675.9875
2366.63195	671.9875
2369.45444	673.9875
2372.27514	670.0875
2375.09405	670.4875
2377.91118	676.3875
2380.72652	669.5875
2383.54009	666.6875
2386.35187	665.2875
2389.16188	671.5875
2391.97011	671.3875
2394.77657	668.8875
2397.58125	665.1875
2400.38416	668.9875
2403.18529	665.6875
2405.98466	653.9875
2408.78226	654.8875
2411.57809	659.2875
2414.37216	658.8875
2417.16446	653.4875
2419.955	656.8875
2422.74378	660.9875
2425.5308	657.8875
2428.31606	656.5875
2431.09956	653.0875
2433.88131	652.6875
2436.6613	648.9875
2439.43954	655.9875
2442.21603	649.6875
2444.99077	654.3875
2447.76377	656.1875
2450.53501	653.3875
2453.30451	658.6875
2456.07226	649.2875
2458.83827	649.2875
2461.60254	654.4875
2464.36507	656.0875
2467.12586	646.5875
2469.88492	642.6875
2472.64224	649.1875
2475.39782	639.3875
2478.15167	640.1875
2480.90379	641.6875
2483.65417	650.9875
2486.40283	647.6875
2489.14976	649.9875
2491.89497	643.3875
2494.63845	635.9875
2497.3802	640.7875
2500.12024	644.3875
2502.85855	635.5875
2505.59514	639.7875
2508.33002	642.0875
2511.06318	650.9875
2513.79462	646.6875
2516.52435	638.1875
2519.25237	646.4875
2521.97867	646.2875
2524.70327	643.7875
2527.42616	643.3875
2530.14734	636.0875
2532.86681	639.8875
2535.58458	645.5875
2538.30065	638.1875
2541.01501	640.8875
2543.72768	643.5875
2546.43864	633.6875
2549.14791	639.3875
2551.85548	631.6875
2554.56136	639.5875
2557.26554	636.3875
2559.96803	628.1875
2562.66883	630.9875
2565.36794	629.2875
2568.06536	633.0875
2570.7611	628.5875
2573.45514	631.8875
2576.14751	628.0875
2578.83819	624.7875
2581.52719	622.4875
2584.21451	624.6875
2586.90015	624.3875
2589.58411	615.5875
2592.2664	619.2875
2594.94701	622.1875
2597.62594	626.1875
2600.30321	623.4875
2602.9788	624.9875
2605.65273	619.0875
2608.32498	620.4875
2610.99557	617.4875
2613.66449	615.0875
2616.33175	623.4875
2618.99734	617.8875
2621.66128	618.4875
2624.32355	612.5875
2626.98416	617.5875
2629.64311	615.1875
2632.30041	616.7875
2634.95605	611.7875
2637.61004	621.3875
2640.26238	617.4875
2642.91306	616.5875
2645.56209	608.3875
2648.20948	616.7875
2650.85521	614.3875
2653.4993	619.2875
2656.14175	620.7875
2658.78255	618.7875
2661.42171	609.0875
2664.05923	609.8875
2666.6951	616.9875
2669.32934	615.4875
2671.96194	608.3875
2674.59291	616.9875
2677.22224	612.8875
2679.84993	613.8875
2682.476	611.4875
2685.10043	616.0875
2687.72324	620.0875
2690.34441	614.8875
2692.96396	619.7875
2695.58188	616.0875
2698.19818	616.5875
2700.81285	614.1875
2703.4259	603.0875
2706.03733	559.6875
2708.64714	579.0875
2711.25533	604.7875
2713.86191	603.7875
2716.46687	611.4875
2719.07021	617.6875
2721.67194	619.0875
2724.27206	619.6875
2726.87057	622.9875
2729.46747	628.1875
2732.06276	628.5875
2734.65644	620.7875
2737.24852	622.3875
2739.83899	630.4875
2742.42786	629.7875
2745.01513	620.7875
2747.60079	617.6875
2750.18486	616.5875
2752.76733	616.1875
2755.3482	621.3875
2757.92747	619.6875
2760.50515	620.7875
2763.08123	615.8875
2765.65573	624.8875
2768.22863	619.9875
2770.79994	618.1875
2773.36967	616.3875
2775.9378	616.6875
2778.50435	619.8875
2781.06932	621.6875
2783.6327	617.2875
2786.1945	615.5875
2788.75471	618.2875
2791.31335	617.6875
2793.87041	609.8875
2796.42589	612.1875
2798.97979	615.8875
2801.53212	613.5875
2804.08288	614.2875
2806.63206	606.4875
2809.17967	608.9875
2811.72571	606.2875
2814.27018	605.2875
2816.81308	612.5875
2819.35442	604.2875
2821.89419	608.7875
2824.43239	604.9875
2826.96904	606.7875
2829.50412	603.1875
2832.03763	604.4875
2834.56959	608.7875
2837.1	606.1875
2839.62884	599.2875
2842.15613	599.0875
2844.68186	601.2875
2847.20604	597.8875
2849.72867	597.6875
2852.24974	609.6875
2854.76927	601.2875
2857.28724	590.8875
2859.80367	599.6875
2862.31855	603.4875
2864.83189	599.9875
2867.34368	604.4875
2869.85393	603.1875
2872.36264	603.2875
2874.8698	609.2875
2877.37543	608.8875
2879.87952	606.3875
2882.38207	611.7875
2884.88308	616.3875
2887.38256	612.7875
2889.88051	612.8875
2892.37692	617.9875
2894.8718	620.9875
2897.36515	617.8875
2899.85698	618.4875
2902.34727	618.5875
2904.83604	626.5875
2907.32328	630.8875
2909.809	628.3875
2912.29319	630.9875
2914.77587	631.3875
2917.25702	635.1875
2919.73665	628.2875
2922.21476	637.0875
2924.69136	634.8875
2927.16644	638.8875
2929.64	643.4875
2932.11205	642.5875
2934.58258	642.8875
2937.05161	642.2875
2939.51912	638.4875
2941.98513	645.5875
2944.44962	642.1875
2946.91261	643.2875
2949.37409	638.0875
2951.83407	648.6875
2954.29254	648.1875
2956.74951	643.9875
2959.20498	639.7875
2961.65895	642.9875
2964.11142	653.8875
2966.56239	638.6875
2969.01186	644.2875
2971.45984	649.2875
2973.90632	635.0875
2976.35131	644.5875
2978.7948	640.0875
2981.23681	643.7875
2983.67732	645.6875
2986.11635	647.3875
2988.55388	647.9875
2990.98993	644.0875
2993.4245	647.6875
2995.85758	651.5875
2998.28917	651.1875
3000.71928	650.0875
3003.14791	653.2875
3005.57506	646.7875
3008.00073	649.1875
3010.42493	652.5875
3012.84764	652.7875
3015.26888	659.8875
3017.68865	661.9875
3020.10694	655.3875
3022.52376	664.4875
3024.9391	665.2875
3027.35298	667.6875
3029.76539	667.4875
3032.17632	668.5875
3034.5858	667.6875
3036.9938	667.1875
3039.40034	679.2875
3041.80542	676.0875
3044.20903	680.4875
3046.61118	687.3875
3049.01187	683.6875
3051.4111	685.7875
3053.80888	694.5875
3056.20519	695.2875
3058.60005	700.1875
3060.99345	706.8875
3063.3854	698.6875
3065.7759	708.5875
3068.16494	711.5875
3070.55254	716.3875
3072.93868	715.7875
3075.32338	720.9875
3077.70662	724.8875
3080.08842	731.3875
3082.46878	727.5875
3084.84769	725.8875
3087.22515	742.2875
3089.60118	740.3875
3091.97576	742.0875
3094.3489	744.6875
3096.72061	755.3875
3099.09087	760.4875
3101.4597	764.3875
3103.82709	778.5875
3106.19305	781.5875
3108.55757	783.1875
3110.92066	790.1875
3113.28232	796.5875
3115.64255	807.0875
3118.00134	806.9875
3120.35871	813.3875
3122.71466	815.7875
3125.06917	823.3875
3127.42226	822.9875
3129.77393	836.8875
3132.12417	836.3875
3134.47299	847.4875
3136.82039	843.1875
3139.16636	858.1875
3141.51092	864.3875
3143.85406	875.7875
3146.19579	874.8875
3148.53609	881.2875
3150.87499	892.5875
3153.21246	903.9875
3155.54853	911.4875
3157.88318	916.8875
3160.21642	923.1875
3162.54826	934.4875
3164.87868	933.5875
3167.2077	942.1875
3169.5353	954.2875
3171.86151	964.1875
3174.18631	965.7875
3176.5097	968.5875
3178.83169	973.3875
3181.15228	987.4875
3183.47147	982.4875
3185.78926	998.2875
3188.10565	1001.0875
3190.42065	1008.4875
3192.73424	1014.8875
3195.04645	1013.4875
3197.35725	1017.9875
3199.66667	1019.4875
3201.97469	1028.5875
3204.28132	1044.0875
3206.58656	1039.9875
3208.8904	1041.9875
3211.19287	1049.1875
3213.49394	1060.1875
3215.79363	1056.1875
3218.09193	1059.7875
3220.38884	1062.6875
3222.68438	1051.9875
3224.97853	1067.4875
3227.2713	1077.0875
3229.56269	1084.8875
3231.8527	1080.8875
3234.14133	1076.3875
3236.42858	1074.0875
3238.71446	1081.3875
3240.99896	1082.9875
3243.28209	1080.4875
3245.56384	1069.5875
3247.84423	1074.2875
3250.12324	1077.1875
3252.40088	1075.2875
3254.67715	1079.7875
3256.95205	1085.8875
3259.22558	1082.0875
3261.49775	1088.0875
3263.76855	1093.5875
3266.03799	1093.3875
3268.30606	1093.4875
3270.57277	1094.2875
3272.83812	1090.5875
3275.10211	1090.9875
3277.36474	1095.2875
3279.62601	1098.8875
3281.88593	1085.3875
3284.14448	1084.1875
3286.40168	1098.4875
3288.65753	1090.2875
3290.91202	1095.0875
3293.16516	1084.3875
3295.41695	1090.9875
3297.66738	1081.8875
3299.91647	1079.2875
3302.16421	1071.1875
3304.4106	1058.4875
3306.65564	1059.5875
3308.89933	1054.2875
3311.14169	1044.7875
3313.38269	1023.8875
3315.62236	1025.2875
3317.86068	1021.1875
3320.09766	1017.2875
3322.3333	1008.3875
3324.5676	999.3875
3326.80056	976.9875
3329.03219	979.1875
3331.26248	0.1875
3333.49143	-0.1125
3335.71905	-2.1125
