Data from AgNPs_APTES_FTO_UA_100uM_CRN_0uM_R6G_10uM_Scan_RamanShift__51__11-39-11-297.txt Node

Date: Wed Jun 29 11:39:11 BST 2022
User: TCL
Spectrometer: QEP01345
Trigger mode: 4
Integration Time (sec): 7.000000E0
Scans to average: 10
Electric dark correction enabled: true
Nonlinearity correction enabled: false
Boxcar width: 0
XAxis mode: Raman Shifts
Number of Pixels in Spectrum: 1044
>>>>>Begin Spectral Data<<<<<
46.04893	1.1
50.45542	0.1
54.85868	1.8
59.25871	0.2
63.6555	37.7
68.04907	39.9
72.43941	41.2
76.82654	41.5
81.21044	47.3
85.59113	50.2
89.96862	54.2
94.34289	55.7
98.71396	56.8
103.08183	57.2
107.4465	58
111.80798	58.3
116.16626	55.6
120.52136	58.5
124.87327	54.4
129.222	55.3
133.56755	56.7
137.90993	53.7
142.24913	51.4
146.58517	50.3
150.91804	50.9
155.24774	53.6
159.57429	59.3
163.89768	61.1
168.21792	69.2
172.53501	78.7
176.84895	96.9
181.15975	125.9
185.46741	160.9
189.77193	204.9
194.07331	261.7
198.37157	336.5
202.6667	408.3
206.9587	483
211.24758	557.2
215.53334	625.2
219.81599	707.1
224.09553	792.2
228.37195	886.2
232.64527	986.6
236.91549	1086.8
241.18261	1177.5
245.44663	1261.7
249.70755	1326.8
253.96539	1391.3
258.22014	1432.5
262.4718	1471.5
266.72039	1493.4
270.96589	1487.9
275.20832	1483.9
279.44768	1450.6
283.68397	1428.8
287.91719	1395.2
292.14735	1400.9
296.37445	1404
300.59849	1445.8
304.81948	1488.6
309.03742	1526.8
313.25231	1528.6
317.46415	1491.3
321.67296	1419.3
325.87872	1352.4
330.08145	1333.9
334.28114	1337.7
338.47781	1365.4
342.67145	1393.8
346.86207	1435.5
351.04966	1506.1
355.23424	1572.5
359.4158	1623.3
363.59435	1656.6
367.76989	1680.7
371.94243	1675.3
376.11196	1677.2
380.27849	1673.9
384.44203	1672.8
388.60257	1659.8
392.76012	1665.3
396.91468	1679.7
401.06626	1717.6
405.21485	1728.2
409.36047	1706.3
413.50311	1660.1
417.64277	1608.6
421.77947	1579.8
425.9132	1563.8
430.04396	1564.1
434.17176	1572.5
438.2966	1593.3
442.41849	1618.9
446.53742	1648.8
450.6534	1677.4
454.76644	1693.3
458.87653	1700
462.98368	1694.1
467.08789	1688.3
471.18916	1663.6
475.2875	1646.2
479.38291	1650.3
483.4754	1638.5
487.56496	1650
491.6516	1656
495.73531	1670.4
499.81612	1664.1
503.89401	1653.2
507.96899	1658.6
512.04106	1660.7
516.11023	1694
520.1765	1702
524.23987	1707.1
528.30034	1712
532.35792	1707
536.41261	1709.1
540.46441	1664.1
544.51333	1642.1
548.55936	1645.6
552.60252	1652.5
556.64279	1665.8
560.6802	1685.3
564.71473	1708.5
568.7464	1750.6
572.7752	1757
576.80114	1703.1
580.82422	1672
584.84444	1663.1
588.86181	1678.7
592.87633	1702
596.888	1719.3
600.89682	1763.2
604.9028	1915.1
608.90594	2281.1
612.90624	2722.2
616.90371	2625.8
620.89834	2116
624.89015	1900.3
628.87913	1919.9
632.86528	1984.9
636.84862	2025.5
640.82913	1992
644.80683	1902.6
648.78172	1818.9
652.75379	1786
656.72306	1803.9
660.68952	1831.3
664.65319	1804.7
668.61405	1753.3
672.57211	1735.8
676.52738	1743.3
680.47986	1747.2
684.42955	1745.6
688.37646	1756.2
692.32058	1762.2
696.26192	1756.2
700.20048	1757
704.13626	1750.8
708.06928	1737.3
711.99952	1713.4
715.927	1723
719.85171	1730.6
723.77365	1747.2
727.69284	1750.1
731.60928	1743
735.52295	1736.8
739.43388	1729.1
743.34206	1720.7
747.24749	1723.9
751.15017	1740.2
755.05012	1716.1
758.94733	1801.9
762.8418	1914.7
766.73354	2122.1
770.62254	2301.2
774.50882	2400.6
778.39237	2362.8
782.27321	2159.5
786.15132	1962.4
790.02671	1813.6
793.89938	1773
797.76935	1752.2
801.6366	1764.6
805.50115	1783.7
809.36299	1809.1
813.22213	1812.9
817.07857	1801.9
820.93231	1763.8
824.78336	1742.6
828.63172	1720.3
832.47738	1716.4
836.32036	1710.1
840.16066	1707.9
843.99827	1704.3
847.8332	1698.9
851.66546	1699.9
855.49504	1700.6
859.32195	1703.7
863.1462	1693.5
866.96777	1699.1
870.78668	1720
874.60293	1729.2
878.41652	1753.8
882.22745	1788.8
886.03573	1795
889.84136	1809.7
893.64433	1799.1
897.44466	1764.1
901.24235	1741.1
905.0374	1730.7
908.8298	1692.1
912.61957	1685.2
916.40671	1667.2
920.19121	1681.2
923.97308	1682.8
927.75233	1707.4
931.52895	1731.3
935.30295	1716.1
939.07433	1694.5
942.84309	1664.8
946.60924	1654.8
950.37278	1651
954.13371	1646.6
957.89203	1639.4
961.64774	1638.3
965.40086	1637.3
969.15137	1625.2
972.89929	1616.2
976.64461	1623.9
980.38733	1619.2
984.12747	1612.6
987.86502	1633
991.59999	1641.4
995.33237	1659.2
999.06217	1683.3
1002.78939	1724.8
1006.51404	1759.2
1010.23611	1783.5
1013.95561	1800
1017.67255	1813
1021.38692	1804.7
1025.09872	1798.8
1028.80796	1787.7
1032.51465	1796.5
1036.21877	1794.2
1039.92035	1800
1043.61937	1790.9
1047.31584	1767.1
1051.00976	1746.7
1054.70114	1745.9
1058.38998	1753.9
1062.07627	1760.1
1065.76003	1758.7
1069.44126	1783.8
1073.11995	1783.9
1076.79611	1816
1080.46974	1833.3
1084.14085	1863.8
1087.80943	1866.6
1091.47549	1872.1
1095.13903	1838.8
1098.80005	1791
1102.45857	1766.5
1106.11456	1775.6
1109.76805	1793.5
1113.41903	1824.9
1117.06751	1895.1
1120.71348	1967.7
1124.35696	2076.1
1127.99793	2181
1131.63641	2216.8
1135.2724	2169.5
1138.90589	2116.6
1142.5369	2050.5
1146.16542	1978.2
1149.79145	1899.7
1153.415	1860.1
1157.03607	1815
1160.65467	1816.6
1164.27079	1839
1167.88443	1902.7
1171.49561	1972.4
1175.10432	2121.3
1178.71056	2321.2
1182.31434	2483.6
1185.91565	2540.8
1189.51451	2505
1193.11091	2408.9
1196.70485	2324.4
1200.29634	2271.7
1203.88538	2227.9
1207.47197	2142.3
1211.05612	2051.8
1214.63782	1984.7
1218.21708	1939.5
1221.79391	1922.7
1225.36829	1897.4
1228.94024	1885
1232.50976	1875.5
1236.07685	1869.6
1239.6415	1886.4
1243.20374	1885.7
1246.76355	1892
1250.32093	1914.1
1253.8759	1936.3
1257.42845	1972.7
1260.97859	2016.5
1264.52631	2064.6
1268.07163	2109.1
1271.61453	2148.8
1275.15503	2169.2
1278.69312	2181
1282.22882	2207.1
1285.76211	2249.8
1289.29301	2289.8
1292.82151	2334.3
1296.34761	2394.8
1299.87133	2507.6
1303.39266	2673.1
1306.9116	2927.4
1310.42815	3189.8
1313.94233	3281.4
1317.45412	3128.2
1320.96354	2870.4
1324.47058	2649.3
1327.97525	2493.1
1331.47754	2399.3
1334.97747	2380.6
1338.47502	2413.3
1341.97022	2500.4
1345.46305	2634.3
1348.95352	2797.4
1352.44163	3007
1355.92738	3271.1
1359.41078	3667.7
1362.89183	4031.8
1366.37053	3811.2
1369.84688	3261.1
1373.32088	2794.8
1376.79254	2530.5
1380.26186	2391.5
1383.72883	2273.2
1387.19347	2190.4
1390.65578	2109.5
1394.11575	2061.1
1397.57339	2024.5
1401.0287	2012.4
1404.48168	1995.8
1407.93234	1987.6
1411.38068	1997.1
1414.82669	1993.4
1418.27039	1995.1
1421.71177	1965.2
1425.15083	1953.8
1428.58758	1950.8
1432.02203	1975.1
1435.45416	1997
1438.88399	2013.2
1442.31151	1992.8
1445.73673	1993.8
1449.15965	2012.7
1452.58027	2010.7
1455.9986	2008.1
1459.41463	2022.7
1462.82837	2041.3
1466.23982	2072.3
1469.64898	2110
1473.05586	2115.6
1476.46045	2115.5
1479.86276	2137.9
1483.26279	2148
1486.66054	2173.5
1490.05602	2216.6
1493.44922	2317.2
1496.84016	2460.7
1500.22882	2701.8
1503.61521	3003.5
1506.99934	3367.4
1510.38121	3644.5
1513.76081	3657.7
1517.13816	3377.6
1520.51324	2966.2
1523.88607	2617.4
1527.25665	2387.7
1530.62498	2278.6
1533.99105	2187.3
1537.35488	2160.7
1540.71647	2136.8
1544.07581	2129.7
1547.4329	2151.1
1550.78776	2166.1
1554.14038	2173.5
1557.49077	2195.9
1560.83892	2224.8
1564.18484	2277.6
1567.52853	2344.7
1570.86999	2384.3
1574.20922	2418.9
1577.54624	2418.3
1580.88103	2324.2
1584.2136	2203.8
1587.54395	2125.4
1590.87208	2114.7
1594.19801	2191.8
1597.52172	2288.3
1600.84321	2330.4
1604.16251	2308.2
1607.47959	2217
1610.79447	2140.6
1614.10715	2032.4
1617.41763	1971.2
1620.7259	1923.5
1624.03199	1910.3
1627.33587	1900.6
1630.63757	1917.9
1633.93707	1974.4
1637.23439	2054.8
1640.52951	2216.7
1643.82246	2426.5
1647.11321	2657.3
1650.40179	2797.6
1653.68819	2719.9
1656.97241	2451
1660.25446	2159.6
1663.53433	1957.2
1666.81203	1838
1670.08756	1769
1673.36092	1726.1
1676.63211	1693.7
1679.90115	1673.7
1683.16801	1644.9
1686.43272	1629.6
1689.69527	1619.5
1692.95567	1588
1696.2139	1578.3
1699.46999	1555.1
1702.72392	1541.4
1705.97571	1525.2
1709.22535	1506
1712.47284	1501.5
1715.71819	1490.1
1718.96139	1480.6
1722.20246	1473.1
1725.44139	1461
1728.67818	1442.1
1731.91284	1426.5
1735.14537	1416.7
1738.37576	1426.9
1741.60403	1406.3
1744.83017	1395
1748.05418	1397.5
1751.27607	1388.2
1754.49584	1383
1757.71349	1375.9
1760.92903	1369.1
1764.14244	1365.4
1767.35375	1358.5
1770.56294	1358.9
1773.77002	1351.9
1776.97499	1344.7
1780.17785	1352.6
1783.37861	1350.2
1786.57727	1335.6
1789.77382	1345
1792.96828	1345.5
1796.16064	1343.8
1799.3509	1340.4
1802.53907	1333.6
1805.72514	1327.4
1808.90913	1324.8
1812.09102	1326.5
1815.27083	1315.9
1818.44856	1314.1
1821.6242	1312.9
1824.79776	1311.1
1827.96924	1313
1831.13864	1309.9
1834.30597	1310.5
1837.47122	1302.9
1840.6344	1289.8
1843.7955	1304.9
1846.95454	1295.3
1850.11151	1300.5
1853.26642	1294.9
1856.41926	1293.1
1859.57004	1294.5
1862.71876	1286.6
1865.86542	1289.2
1869.01003	1294
1872.15258	1293.9
1875.29308	1290.7
1878.43152	1294.2
1881.56792	1295.5
1884.70227	1284.5
1887.83457	1286.9
1890.96482	1281.6
1894.09304	1291.1
1897.21921	1281.3
1900.34335	1280.2
1903.46544	1269.4
1906.58551	1275.4
1909.70353	1279.5
1912.81953	1269.6
1915.93349	1272.8
1919.04543	1279.2
1922.15534	1267.6
1925.26322	1267.1
1928.36908	1268.4
1931.47292	1261.1
1934.57473	1258.2
1937.67453	1259.9
1940.77232	1252.6
1943.86808	1252.5
1946.96184	1253.3
1950.05358	1242.9
1953.14331	1239.4
1956.23103	1236.9
1959.31675	1234
1962.40046	1229.1
1965.48217	1224
1968.56188	1231.5
1971.63959	1223.6
1974.7153	1219.1
1977.78901	1214.6
1980.86073	1211.6
1983.93046	1213
1986.99819	1210.6
1990.06394	1189.5
1993.1277	1188.4
1996.18947	1191.6
1999.24925	1196.1
2002.30706	1191.2
2005.36288	1177.1
2008.41672	1178
2011.46859	1182
2014.51848	1180
2017.56639	1167.1
2020.61233	1166
2023.6563	1167.4
2026.6983	1159
2029.73833	1165.2
2032.7764	1158.6
2035.8125	1157.5
2038.84664	1155.8
2041.87881	1156.7
2044.90903	1150.4
2047.93729	1148.5
2050.96359	1142.9
2053.98794	1142.6
2057.01034	1145.9
2060.03078	1139.7
2063.04927	1139.5
2066.06582	1140.3
2069.08042	1143.1
2072.09307	1147.5
2075.10378	1140.5
2078.11255	1140.3
2081.11938	1142.3
2084.12426	1147.7
2087.12722	1149
2090.12824	1137.6
2093.12732	1141.9
2096.12447	1141.2
2099.11969	1144.3
2102.11299	1144.7
2105.10435	1138.3
2108.09379	1141.8
2111.08131	1148.7
2114.0669	1146.7
2117.05057	1151.8
2120.03233	1154.4
2123.01216	1156
2125.99008	1148.5
2128.96609	1150
2131.94018	1162.5
2134.91236	1154.8
2137.88263	1167.8
2140.851	1153.4
2143.81746	1158
2146.78201	1157.5
2149.74466	1152.8
2152.7054	1155.8
2155.66425	1145.1
2158.6212	1165.8
2161.57625	1162.6
2164.52941	1165.9
2167.48067	1145.6
2170.43004	1158.3
2173.37752	1151.6
2176.32311	1157.6
2179.26681	1148.9
2182.20863	1156.7
2185.14856	1160.8
2188.08661	1154.3
2191.02278	1148.1
2193.95707	1155.5
2196.88948	1151
2199.82001	1149
2202.74867	1148.9
2205.67545	1153.4
2208.60037	1149.7
2211.52341	1146.9
2214.44458	1147.9
2217.36388	1145
2220.28132	1142.3
2223.1969	1136.4
2226.11061	1137.8
2229.02246	1134.6
2231.93245	1135
2234.84058	1129.2
2237.74686	1136.6
2240.65128	1135.1
2243.55385	1129.2
2246.45456	1139
2249.35343	1129.8
2252.25044	1129.8
2255.14561	1123.4
2258.03893	1125.7
2260.93041	1123
2263.82004	1123.4
2266.70783	1122.8
2269.59378	1120.6
2272.4779	1118.1
2275.36017	1106.1
2278.24061	1111.5
2281.11922	1105.9
2283.996	1108.7
2286.87094	1105.1
2289.74405	1105.9
2292.61534	1111.8
2295.4848	1104.4
2298.35243	1103.7
2301.21824	1101.7
2304.08223	1096.1
2306.94439	1100.5
2309.80474	1096.9
2312.66327	1104.4
2315.51999	1102.3
2318.37489	1097
2321.22797	1098.2
2324.07925	1098.9
2326.92871	1096
2329.77637	1105.1
2332.62222	1086.5
2335.46626	1094.7
2338.3085	1090.8
2341.14893	1091
2343.98756	1093.8
2346.8244	1094
2349.65943	1086.1
2352.49267	1089.2
2355.32411	1087.8
2358.15376	1089.5
2360.98161	1085.9
2363.80768	1091.4
2366.63195	1101.6
2369.45444	1099.5
2372.27514	1095.9
2375.09405	1092.9
2377.91118	1088.5
2380.72652	1090.5
2383.54009	1077.7
2386.35187	1080.9
2389.16188	1078.5
2391.97011	1084.9
2394.77657	1076.7
2397.58125	1071.1
2400.38416	1071
2403.18529	1068.2
2405.98466	1058.8
2408.78226	1065.5
2411.57809	1064.9
2414.37216	1071.3
2417.16446	1064.4
2419.955	1055.6
2422.74378	1060.5
2425.5308	1058.1
2428.31606	1065.9
2431.09956	1057.6
2433.88131	1064.1
2436.6613	1056.7
2439.43954	1052
2442.21603	1059.6
2444.99077	1064.9
2447.76377	1066.1
2450.53501	1063.8
2453.30451	1055
2456.07226	1058.8
2458.83827	1058.7
2461.60254	1051.6
2464.36507	1055.6
2467.12586	1060.5
2469.88492	1052.9
2472.64224	1066.8
2475.39782	1052.3
2478.15167	1054.5
2480.90379	1057.5
2483.65417	1056.3
2486.40283	1057.5
2489.14976	1061.7
2491.89497	1064.1
2494.63845	1050.9
2497.3802	1063
2500.12024	1056.9
2502.85855	1054.2
2505.59514	1054
2508.33002	1048
2511.06318	1050.9
2513.79462	1048.1
2516.52435	1044.2
2519.25237	1050.7
2521.97867	1038.3
2524.70327	1040
2527.42616	1044.1
2530.14734	1031.9
2532.86681	1033.9
2535.58458	1036.9
2538.30065	1040.6
2541.01501	1040.3
2543.72768	1039.7
2546.43864	1033.1
2549.14791	1034.2
2551.85548	1041.8
2554.56136	1035.6
2557.26554	1033.4
2559.96803	1034.1
2562.66883	1033.1
2565.36794	1029.1
2568.06536	1027.1
2570.7611	1028.4
2573.45514	1029.2
2576.14751	1031
2578.83819	1015.2
2581.52719	1023.3
2584.21451	1012.2
2586.90015	1009.7
2589.58411	1012.4
2592.2664	1024.4
2594.94701	1017.5
2597.62594	1018.7
2600.30321	1020.2
2602.9788	1014.5
2605.65273	1020.1
2608.32498	1011.9
2610.99557	1015.2
2613.66449	1018.2
2616.33175	1017
2618.99734	1016.2
2621.66128	1012.5
2624.32355	1013.9
2626.98416	1016
2629.64311	1010.1
2632.30041	1015.1
2634.95605	1001.1
2637.61004	1005.3
2640.26238	1014.9
2642.91306	1007.6
2645.56209	1006.6
2648.20948	999.2
2650.85521	1001.6
2653.4993	1002.4
2656.14175	1009.8
2658.78255	1007.1
2661.42171	1005.5
2664.05923	1004.3
2666.6951	1007.2
2669.32934	1005.4
2671.96194	1004.3
2674.59291	1008.7
2677.22224	1008.6
2679.84993	1007.9
2682.476	1000.2
2685.10043	1012.8
2687.72324	1015.2
2690.34441	1005
2692.96396	1009.1
2695.58188	1012.3
2698.19818	1006.6
2700.81285	999.5
2703.4259	1001.1
2706.03733	1003.7
2708.64714	997.7
2711.25533	1005.7
2713.86191	1000.7
2716.46687	1008.8
2719.07021	1010
2721.67194	1014
2724.27206	1012.2
2726.87057	1019.9
2729.46747	1017.1
2732.06276	1025.2
2734.65644	1016.6
2737.24852	1020
2739.83899	1016.1
2742.42786	1025.8
2745.01513	1011.6
2747.60079	1016.6
2750.18486	1012
2752.76733	1009.7
2755.3482	1003.7
2757.92747	1010.1
2760.50515	1002.7
2763.08123	1013.8
2765.65573	1006.8
2768.22863	1002.2
2770.79994	1002
2773.36967	1010.2
2775.9378	1005.7
2778.50435	1007.5
2781.06932	1012.9
2783.6327	1010
2786.1945	1003.5
2788.75471	1005.7
2791.31335	1006.9
2793.87041	1005.5
2796.42589	1010.5
2798.97979	1002.5
2801.53212	1002.3
2804.08288	1003.1
2806.63206	996.7
2809.17967	995.5
2811.72571	993.7
2814.27018	999.3
2816.81308	992.4
2819.35442	992.5
2821.89419	993.9
2824.43239	986.5
2826.96904	989.1
2829.50412	994.4
2832.03763	990
2834.56959	987.2
2837.1	996.5
2839.62884	994.9
2842.15613	995.3
2844.68186	998.8
2847.20604	988.6
2849.72867	988.3
2852.24974	991.9
2854.76927	1000
2857.28724	998.2
2859.80367	998
2862.31855	1001.5
2864.83189	998.3
2867.34368	1005.5
2869.85393	1000.8
2872.36264	999.7
2874.8698	1006
2877.37543	996.7
2879.87952	1004.4
2882.38207	1004.1
2884.88308	1003.1
2887.38256	997.3
2889.88051	1008.6
2892.37692	1007.3
2894.8718	1011.2
2897.36515	1017
2899.85698	1006.2
2902.34727	1008.3
2904.83604	1018
2907.32328	1011.8
2909.809	1026.6
2912.29319	1021.6
2914.77587	1023.4
2917.25702	1024.1
2919.73665	1018.6
2922.21476	1010
2924.69136	1023.5
2927.16644	1024.2
2929.64	1020.9
2932.11205	1026.8
2934.58258	1016.6
2937.05161	1025.8
2939.51912	1015.4
2941.98513	1025.7
2944.44962	1012.1
2946.91261	1018.7
2949.37409	1016
2951.83407	1023.1
2954.29254	1029.8
2956.74951	1028.5
2959.20498	1030.6
2961.65895	1031.1
2964.11142	1026.1
2966.56239	1021
2969.01186	1023.7
2971.45984	1031.7
2973.90632	1019.5
2976.35131	1032.2
2978.7948	1018.8
2981.23681	1025.7
2983.67732	1013
2986.11635	1017.9
2988.55388	1019.4
2990.98993	1015.1
2993.4245	1019.8
2995.85758	1010.6
2998.28917	1014.4
3000.71928	1019.1
3003.14791	1025.2
3005.57506	1021.4
3008.00073	1013.2
3010.42493	1025.2
3012.84764	1027.2
3015.26888	1027.2
3017.68865	1033.5
3020.10694	1030.4
3022.52376	1025.9
3024.9391	1026.4
3027.35298	1033.3
3029.76539	1030.9
3032.17632	1031.8
3034.5858	1033.4
3036.9938	1039.6
3039.40034	1035.9
3041.80542	1040.8
3044.20903	1041
3046.61118	1050.8
3049.01187	1046.9
3051.4111	1050.8
3053.80888	1054.2
3056.20519	1062.9
3058.60005	1058.9
3060.99345	1054
3063.3854	1059
3065.7759	1052.6
3068.16494	1062.4
3070.55254	1063
3072.93868	1069.7
3075.32338	1070
3077.70662	1076
3080.08842	1080.3
3082.46878	1074.9
3084.84769	1074.2
3087.22515	1088.5
3089.60118	1090
3091.97576	1098.3
3094.3489	1103.2
3096.72061	1105.4
3099.09087	1111.5
3101.4597	1116.5
3103.82709	1123.4
3106.19305	1134.6
3108.55757	1138.2
3110.92066	1136
3113.28232	1145.2
3115.64255	1152.6
3118.00134	1160
3120.35871	1159.2
3122.71466	1172.4
3125.06917	1170.5
3127.42226	1169.9
3129.77393	1176.8
3132.12417	1185.7
3134.47299	1192.3
3136.82039	1192.5
3139.16636	1208.4
3141.51092	1211.2
3143.85406	1210.6
3146.19579	1223.2
3148.53609	1225.8
3150.87499	1239.7
3153.21246	1248.3
3155.54853	1250.5
3157.88318	1262.3
3160.21642	1271.5
3162.54826	1280.2
3164.87868	1294.4
3167.2077	1295.9
3169.5353	1297.9
3171.86151	1302.3
3174.18631	1309.7
3176.5097	1316.9
3178.83169	1320
3181.15228	1333
3183.47147	1327.2
3185.78926	1332.5
3188.10565	1344.4
3190.42065	1352.8
3192.73424	1353.6
3195.04645	1361.4
3197.35725	1359.9
3199.66667	1363.6
3201.97469	1377.2
3204.28132	1373.1
3206.58656	1383.9
3208.8904	1396.4
3211.19287	1394.2
3213.49394	1403.6
3215.79363	1408.3
3218.09193	1412.1
3220.38884	1416.4
3222.68438	1422
3224.97853	1421.6
3227.2713	1420.2
3229.56269	1422
3231.8527	1430.1
3234.14133	1438.3
3236.42858	1431.4
3238.71446	1436.1
3240.99896	1434.6
3243.28209	1426.3
3245.56384	1433.1
3247.84423	1428.5
3250.12324	1428.2
3252.40088	1429.2
3254.67715	1429.8
3256.95205	1426.5
3259.22558	1433.6
3261.49775	1426.5
3263.76855	1430.5
3266.03799	1428.9
3268.30606	1433.9
3270.57277	1440.4
3272.83812	1436.2
3275.10211	1435.4
3277.36474	1430.7
3279.62601	1437.6
3281.88593	1435.2
3284.14448	1435.5
3286.40168	1434.8
3288.65753	1436.2
3290.91202	1439.2
3293.16516	1430.9
3295.41695	1430.4
3297.66738	1421.6
3299.91647	1413.9
3302.16421	1403.4
3304.4106	1394
3306.65564	1392.7
3308.89933	1380.4
3311.14169	1371.9
3313.38269	1359.3
3315.62236	1360.6
3317.86068	1339.8
3320.09766	1330.4
3322.3333	1329.8
3324.5676	1326.6
3326.80056	1303.6
3329.03219	1291.1
3331.26248	-1.2
3333.49143	-0.4
3335.71905	-2.1
