Data from AgNPs_FTO_APTES_UA_200uM_R6G_10uM_NaF_0.1M_Addition_RamanShift__28__16-32-57-527.txt Node

Date: Fri Dec 17 16:32:57 GMT 2021
User: TCL
Spectrometer: QEP01345
Trigger mode: 4
Integration Time (sec): 7.000000E0
Scans to average: 10
Electric dark correction enabled: true
Nonlinearity correction enabled: false
Boxcar width: 0
XAxis mode: Raman Shifts
Number of Pixels in Spectrum: 1044
>>>>>Begin Spectral Data<<<<<
46.04893	-0.4125
50.45542	0.4875
54.85868	-0.7125
59.25871	0.9875
63.6555	43.9875
68.04907	47.6875
72.43941	52.8875
76.82654	54.8875
81.21044	56.1875
85.59113	56.8875
89.96862	60.0875
94.34289	67.8875
98.71396	63.0875
103.08183	63.1875
107.4465	66.8875
111.80798	65.7875
116.16626	70.5875
120.52136	68.0875
124.87327	76.7875
129.222	80.1875
133.56755	81.1875
137.90993	85.3875
142.24913	92.3875
146.58517	101.4875
150.91804	116.8875
155.24774	135.6875
159.57429	167.8875
163.89768	212.5875
168.21792	273.8875
172.53501	371.3875
176.84895	522.6875
181.15975	723.5875
185.46741	1011.1875
189.77193	1406.0875
194.07331	1883.0875
198.37157	2432.4875
202.6667	3007.5875
206.9587	3590.0875
211.24758	4145.1875
215.53334	4693.4875
219.81599	5282.3875
224.09553	5915.1875
228.37195	6629.8875
232.64527	7404.9875
236.91549	8230.1875
241.18261	9048.7875
245.44663	9834.5875
249.70755	10542.2875
253.96539	11150.8875
258.22014	11691.5875
262.4718	12126.5875
266.72039	12427.4875
270.96589	12569.4875
275.20832	12599.9875
279.44768	12473.9875
283.68397	12309.1875
287.91719	12104.4875
292.14735	11976.4875
296.37445	11961.7875
300.59849	12041.7875
304.81948	12164.6875
309.03742	12206.5875
313.25231	12078.4875
317.46415	11777.1875
321.67296	11420.8875
325.87872	11134.6875
330.08145	11030.4875
334.28114	11029.3875
338.47781	11132.3875
342.67145	11320.9875
346.86207	11515.3875
351.04966	11780.6875
355.23424	12124.6875
359.4158	12412.3875
363.59435	12631.0875
367.76989	12747.4875
371.94243	12883.9875
376.11196	12946.5875
380.27849	13011.8875
384.44203	13047.8875
388.60257	13030.7875
392.76012	13031.2875
396.91468	13131.3875
401.06626	13268.8875
405.21485	13407.9875
409.36047	13334.4875
413.50311	13076.6875
417.64277	12816.1875
421.77947	12647.3875
425.9132	12582.7875
430.04396	12559.4875
434.17176	12581.0875
438.2966	12673.8875
442.41849	12766.8875
446.53742	12873.4875
450.6534	13045.0875
454.76644	13141.7875
458.87653	13189.5875
462.98368	13171.5875
467.08789	13172.9875
471.18916	13096.6875
475.2875	13043.1875
479.38291	12962.4875
483.4754	12895.6875
487.56496	12884.5875
491.6516	12871.7875
495.73531	12865.8875
499.81612	12831.4875
503.89401	12863.0875
507.96899	12904.7875
512.04106	12980.8875
516.11023	13075.4875
520.1765	13188.1875
524.23987	13183.2875
528.30034	13119.0875
532.35792	13033.2875
536.41261	12923.3875
540.46441	12824.0875
544.51333	12738.5875
548.55936	12700.7875
552.60252	12746.1875
556.64279	12863.1875
560.6802	12902.8875
564.71473	12886.2875
568.7464	13014.5875
572.7752	13076.9875
576.80114	12987.3875
580.82422	12872.7875
584.84444	12804.7875
588.86181	12820.9875
592.87633	12805.0875
596.888	12844.6875
600.89682	13022.0875
604.9028	13617.7875
608.90594	15229.6875
612.90624	17241.1875
616.90371	16967.0875
620.89834	14474.3875
624.89015	13294.6875
628.87913	13175.6875
632.86528	13290.7875
636.84862	13433.8875
640.82913	13377.7875
644.80683	13039.2875
648.78172	12774.0875
652.75379	12633.7875
656.72306	12705.4875
660.68952	12905.1875
664.65319	12863.9875
668.61405	12625.8875
672.57211	12517.0875
676.52738	12482.2875
680.47986	12491.0875
684.42955	12415.5875
688.37646	12384.5875
692.32058	12401.7875
696.26192	12401.8875
700.20048	12464.4875
704.13626	12486.9875
708.06928	12446.9875
711.99952	12384.0875
715.927	12389.5875
719.85171	12385.2875
723.77365	12387.7875
727.69284	12337.2875
731.60928	12288.4875
735.52295	12242.2875
739.43388	12225.5875
743.34206	12246.2875
747.24749	12225.9875
751.15017	12234.7875
755.05012	12289.6875
758.94733	12467.8875
762.8418	12881.5875
766.73354	13720.7875
770.62254	14738.8875
774.50882	15387.8875
778.39237	15045.9875
782.27321	13985.2875
786.15132	12998.6875
790.02671	12440.4875
793.89938	12168.8875
797.76935	12063.3875
801.6366	12051.4875
805.50115	12037.5875
809.36299	12117.9875
813.22213	12130.2875
817.07857	12099.9875
820.93231	12033.1875
824.78336	11904.3875
828.63172	11859.4875
832.47738	11801.8875
836.32036	11764.2875
840.16066	11729.0875
843.99827	11702.5875
847.8332	11670.9875
851.66546	11647.2875
855.49504	11628.4875
859.32195	11618.2875
863.1462	11594.8875
866.96777	11596.7875
870.78668	11591.5875
874.60293	11593.7875
878.41652	11647.6875
882.22745	11698.1875
886.03573	11758.7875
889.84136	11775.9875
893.64433	11693.8875
897.44466	11599.1875
901.24235	11493.8875
905.0374	11404.2875
908.8298	11352.5875
912.61957	11300.3875
916.40671	11309.5875
920.19121	11291.2875
923.97308	11275.5875
927.75233	11308.0875
931.52895	11300.5875
935.30295	11291.8875
939.07433	11176.7875
942.84309	11061.3875
946.60924	10952.4875
950.37278	10890.0875
954.13371	10830.3875
957.89203	10790.0875
961.64774	10752.1875
965.40086	10722.8875
969.15137	10675.1875
972.89929	10648.3875
976.64461	10602.4875
980.38733	10599.0875
984.12747	10593.3875
987.86502	10593.8875
991.59999	10587.9875
995.33237	10591.5875
999.06217	10684.9875
1002.78939	10785.0875
1006.51404	10862.3875
1010.23611	10964.1875
1013.95561	11059.5875
1017.67255	11055.0875
1021.38692	11019.6875
1025.09872	10949.3875
1028.80796	10868.8875
1032.51465	10838.9875
1036.21877	10827.5875
1039.92035	10804.8875
1043.61937	10805.6875
1047.31584	10774.0875
1051.00976	10771.8875
1054.70114	10752.7875
1058.38998	10757.4875
1062.07627	10761.6875
1065.76003	10824.2875
1069.44126	10883.8875
1073.11995	10950.8875
1076.79611	10999.3875
1080.46974	11017.9875
1084.14085	11010.6875
1087.80943	11060.0875
1091.47549	11055.9875
1095.13903	10980.6875
1098.80005	10811.4875
1102.45857	10647.2875
1106.11456	10563.5875
1109.76805	10601.1875
1113.41903	10673.2875
1117.06751	10794.1875
1120.71348	11000.1875
1124.35696	11232.8875
1127.99793	11475.6875
1131.63641	11634.4875
1135.2724	11506.0875
1138.90589	11290.8875
1142.5369	11082.2875
1146.16542	10838.6875
1149.79145	10638.6875
1153.415	10526.8875
1157.03607	10466.6875
1160.65467	10487.2875
1164.27079	10584.8875
1167.88443	10802.5875
1171.49561	11130.2875
1175.10432	11713.6875
1178.71056	12517.7875
1182.31434	13274.1875
1185.91565	13561.8875
1189.51451	13395.8875
1193.11091	12923.5875
1196.70485	12388.6875
1200.29634	11997.9875
1203.88538	11754.7875
1207.47197	11434.4875
1211.05612	11077.5875
1214.63782	10808.2875
1218.21708	10609.6875
1221.79391	10514.8875
1225.36829	10480.1875
1228.94024	10440.5875
1232.50976	10471.6875
1236.07685	10489.4875
1239.6415	10483.6875
1243.20374	10520.1875
1246.76355	10564.2875
1250.32093	10620.7875
1253.8759	10659.2875
1257.42845	10792.6875
1260.97859	10860.7875
1264.52631	11019.5875
1268.07163	11148.9875
1271.61453	11251.6875
1275.15503	11361.7875
1278.69312	11402.1875
1282.22882	11374.2875
1285.76211	11462.7875
1289.29301	11595.5875
1292.82151	11806.7875
1296.34761	12010.6875
1299.87133	12341.3875
1303.39266	12900.7875
1306.9116	13712.7875
1310.42815	14586.4875
1313.94233	15142.6875
1317.45412	15008.6875
1320.96354	14358.1875
1324.47058	13636.4875
1327.97525	12978.2875
1331.47754	12531.2875
1334.97747	12301.9875
1338.47502	12255.0875
1341.97022	12396.9875
1345.46305	12652.4875
1348.95352	13090.7875
1352.44163	13742.7875
1355.92738	14658.2875
1359.41078	16071.0875
1362.89183	17593.5875
1366.37053	17714.3875
1369.84688	15934.5875
1373.32088	13865.0875
1376.79254	12439.7875
1380.26186	11701.9875
1383.72883	11323.4875
1387.19347	11064.2875
1390.65578	10800.8875
1394.11575	10554.7875
1397.57339	10377.2875
1401.0287	10260.8875
1404.48168	10215.9875
1407.93234	10202.0875
1411.38068	10166.3875
1414.82669	10135.4875
1418.27039	10087.3875
1421.71177	10049.2875
1425.15083	9955.8875
1428.58758	9830.5875
1432.02203	9780.4875
1435.45416	9807.9875
1438.88399	9809.3875
1442.31151	9795.8875
1445.73673	9797.8875
1449.15965	9815.4875
1452.58027	9799.8875
1455.9986	9769.6875
1459.41463	9759.1875
1462.82837	9779.4875
1466.23982	9884.4875
1469.64898	9994.8875
1473.05586	10115.1875
1476.46045	10210.0875
1479.86276	10314.0875
1483.26279	10441.4875
1486.66054	10633.9875
1490.05602	10830.5875
1493.44922	11123.0875
1496.84016	11592.2875
1500.22882	12355.7875
1503.61521	13382.0875
1506.99934	14630.2875
1510.38121	15822.8875
1513.76081	16324.5875
1517.13816	15753.5875
1520.51324	14364.1875
1523.88607	12946.6875
1527.25665	11911.5875
1530.62498	11300.5875
1533.99105	10968.7875
1537.35488	10798.0875
1540.71647	10681.8875
1544.07581	10626.2875
1547.4329	10641.4875
1550.78776	10625.3875
1554.14038	10698.7875
1557.49077	10749.2875
1560.83892	10871.6875
1564.18484	11025.8875
1567.52853	11188.6875
1570.86999	11388.0875
1574.20922	11543.7875
1577.54624	11579.2875
1580.88103	11331.0875
1584.2136	10848.0875
1587.54395	10462.3875
1590.87208	10301.2875
1594.19801	10440.9875
1597.52172	10749.0875
1600.84321	10931.5875
1604.16251	10779.0875
1607.47959	10469.5875
1610.79447	10176.0875
1614.10715	9828.8875
1617.41763	9545.4875
1620.7259	9323.5875
1624.03199	9177.4875
1627.33587	9126.8875
1630.63757	9178.7875
1633.93707	9329.5875
1637.23439	9580.2875
1640.52951	9982.9875
1643.82246	10581.3875
1647.11321	11419.6875
1650.40179	12194.5875
1653.68819	12358.6875
1656.97241	11546.8875
1660.25446	10437.3875
1663.53433	9577.7875
1666.81203	9028.4875
1670.08756	8721.6875
1673.36092	8488.3875
1676.63211	8334.9875
1679.90115	8223.6875
1683.16801	8144.7875
1686.43272	8073.0875
1689.69527	8042.4875
1692.95567	7995.0875
1696.2139	7996.4875
1699.46999	7955.9875
1702.72392	7923.3875
1705.97571	7856.7875
1709.22535	7785.2875
1712.47284	7742.7875
1715.71819	7696.8875
1718.96139	7681.0875
1722.20246	7648.4875
1725.44139	7610.6875
1728.67818	7549.4875
1731.91284	7487.6875
1735.14537	7470.5875
1738.37576	7435.2875
1741.60403	7418.9875
1744.83017	7385.3875
1748.05418	7363.8875
1751.27607	7360.8875
1754.49584	7349.5875
1757.71349	7355.6875
1760.92903	7343.0875
1764.14244	7299.0875
1767.35375	7314.0875
1770.56294	7301.5875
1773.77002	7271.6875
1776.97499	7247.1875
1780.17785	7239.7875
1783.37861	7208.0875
1786.57727	7179.8875
1789.77382	7152.0875
1792.96828	7128.7875
1796.16064	7116.6875
1799.3509	7094.2875
1802.53907	7086.2875
1805.72514	7041.5875
1808.90913	7022.0875
1812.09102	7029.7875
1815.27083	6998.6875
1818.44856	6968.8875
1821.6242	6943.3875
1824.79776	6939.6875
1827.96924	6937.5875
1831.13864	6919.2875
1834.30597	6906.5875
1837.47122	6901.1875
1840.6344	6885.1875
1843.7955	6868.4875
1846.95454	6875.8875
1850.11151	6840.0875
1853.26642	6845.4875
1856.41926	6834.2875
1859.57004	6824.9875
1862.71876	6807.0875
1865.86542	6809.5875
1869.01003	6785.1875
1872.15258	6780.3875
1875.29308	6781.4875
1878.43152	6756.2875
1881.56792	6758.6875
1884.70227	6747.4875
1887.83457	6721.0875
1890.96482	6707.9875
1894.09304	6720.8875
1897.21921	6689.1875
1900.34335	6691.4875
1903.46544	6666.8875
1906.58551	6675.5875
1909.70353	6648.0875
1912.81953	6636.7875
1915.93349	6609.0875
1919.04543	6614.6875
1922.15534	6581.5875
1925.26322	6589.5875
1928.36908	6573.3875
1931.47292	6537.0875
1934.57473	6508.6875
1937.67453	6521.3875
1940.77232	6499.4875
1943.86808	6471.7875
1946.96184	6454.3875
1950.05358	6455.7875
1953.14331	6401.8875
1956.23103	6402.5875
1959.31675	6374.3875
1962.40046	6354.6875
1965.48217	6340.2875
1968.56188	6330.1875
1971.63959	6275.9875
1974.7153	6271.7875
1977.78901	6244.9875
1980.86073	6226.5875
1983.93046	6210.5875
1986.99819	6167.4875
1990.06394	6144.2875
1993.1277	6138.5875
1996.18947	6106.3875
1999.24925	6095.9875
2002.30706	6074.5875
2005.36288	6038.5875
2008.41672	6023.3875
2011.46859	6007.8875
2014.51848	5984.0875
2017.56639	5970.5875
2020.61233	5947.4875
2023.6563	5925.5875
2026.6983	5913.8875
2029.73833	5904.2875
2032.7764	5880.5875
2035.8125	5867.3875
2038.84664	5858.1875
2041.87881	5829.1875
2044.90903	5834.9875
2047.93729	5812.2875
2050.96359	5810.5875
2053.98794	5789.0875
2057.01034	5768.4875
2060.03078	5785.2875
2063.04927	5770.7875
2066.06582	5758.8875
2069.08042	5757.5875
2072.09307	5737.4875
2075.10378	5724.9875
2078.11255	5707.7875
2081.11938	5721.0875
2084.12426	5727.4875
2087.12722	5714.1875
2090.12824	5695.5875
2093.12732	5690.2875
2096.12447	5713.9875
2099.11969	5689.1875
2102.11299	5697.8875
2105.10435	5688.0875
2108.09379	5679.4875
2111.08131	5701.1875
2114.0669	5703.0875
2117.05057	5689.4875
2120.03233	5695.4875
2123.01216	5721.9875
2125.99008	5710.6875
2128.96609	5718.3875
2131.94018	5723.5875
2134.91236	5716.1875
2137.88263	5711.5875
2140.851	5692.0875
2143.81746	5703.5875
2146.78201	5711.2875
2149.74466	5703.5875
2152.7054	5691.2875
2155.66425	5683.5875
2158.6212	5687.4875
2161.57625	5681.8875
2164.52941	5664.2875
2167.48067	5669.7875
2170.43004	5657.8875
2173.37752	5663.8875
2176.32311	5648.2875
2179.26681	5645.4875
2182.20863	5652.5875
2185.14856	5639.1875
2188.08661	5642.3875
2191.02278	5640.2875
2193.95707	5617.4875
2196.88948	5607.3875
2199.82001	5623.7875
2202.74867	5596.9875
2205.67545	5604.0875
2208.60037	5598.2875
2211.52341	5582.1875
2214.44458	5561.0875
2217.36388	5530.0875
2220.28132	5541.5875
2223.1969	5492.4875
2226.11061	5495.6875
2229.02246	5483.5875
2231.93245	5477.7875
2234.84058	5464.9875
2237.74686	5444.0875
2240.65128	5459.9875
2243.55385	5448.9875
2246.45456	5427.5875
2249.35343	5433.6875
2252.25044	5418.3875
2255.14561	5399.2875
2258.03893	5407.7875
2260.93041	5393.5875
2263.82004	5385.1875
2266.70783	5364.7875
2269.59378	5336.4875
2272.4779	5331.6875
2275.36017	5295.4875
2278.24061	5284.9875
2281.11922	5298.3875
2283.996	5279.7875
2286.87094	5276.7875
2289.74405	5247.6875
2292.61534	5244.7875
2295.4848	5229.9875
2298.35243	5226.0875
2301.21824	5217.9875
2304.08223	5215.1875
2306.94439	5204.6875
2309.80474	5196.4875
2312.66327	5176.0875
2315.51999	5181.8875
2318.37489	5166.9875
2321.22797	5170.1875
2324.07925	5164.8875
2326.92871	5154.1875
2329.77637	5150.3875
2332.62222	5123.6875
2335.46626	5125.4875
2338.3085	5114.1875
2341.14893	5105.8875
2343.98756	5099.5875
2346.8244	5084.0875
2349.65943	5087.3875
2352.49267	5086.2875
2355.32411	5087.5875
2358.15376	5078.6875
2360.98161	5074.8875
2363.80768	5070.6875
2366.63195	5067.4875
2369.45444	5061.3875
2372.27514	5038.2875
2375.09405	5039.0875
2377.91118	5039.9875
2380.72652	5017.0875
2383.54009	5014.7875
2386.35187	4996.1875
2389.16188	4976.5875
2391.97011	4956.6875
2394.77657	4949.4875
2397.58125	4937.2875
2400.38416	4916.6875
2403.18529	4914.5875
2405.98466	4911.0875
2408.78226	4899.3875
2411.57809	4878.7875
2414.37216	4858.3875
2417.16446	4863.3875
2419.955	4834.7875
2422.74378	4841.8875
2425.5308	4847.4875
2428.31606	4838.8875
2431.09956	4828.5875
2433.88131	4824.5875
2436.6613	4816.4875
2439.43954	4811.6875
2442.21603	4794.5875
2444.99077	4799.9875
2447.76377	4802.9875
2450.53501	4793.5875
2453.30451	4780.2875
2456.07226	4769.8875
2458.83827	4769.0875
2461.60254	4772.0875
2464.36507	4762.5875
2467.12586	4742.8875
2469.88492	4733.6875
2472.64224	4742.7875
2475.39782	4742.4875
2478.15167	4737.3875
2480.90379	4735.2875
2483.65417	4728.1875
2486.40283	4722.8875
2489.14976	4717.3875
2491.89497	4717.0875
2494.63845	4727.4875
2497.3802	4715.4875
2500.12024	4709.6875
2502.85855	4693.3875
2505.59514	4685.0875
2508.33002	4687.9875
2511.06318	4660.8875
2513.79462	4657.7875
2516.52435	4628.8875
2519.25237	4609.5875
2521.97867	4622.1875
2524.70327	4594.0875
2527.42616	4581.3875
2530.14734	4593.8875
2532.86681	4578.5875
2535.58458	4545.2875
2538.30065	4548.1875
2541.01501	4548.0875
2543.72768	4521.9875
2546.43864	4537.5875
2549.14791	4527.6875
2551.85548	4527.8875
2554.56136	4509.7875
2557.26554	4498.3875
2559.96803	4497.5875
2562.66883	4497.5875
2565.36794	4481.0875
2568.06536	4475.2875
2570.7611	4467.1875
2573.45514	4452.4875
2576.14751	4445.2875
2578.83819	4430.8875
2581.52719	4438.2875
2584.21451	4422.0875
2586.90015	4401.8875
2589.58411	4403.4875
2592.2664	4392.6875
2594.94701	4371.7875
2597.62594	4379.1875
2600.30321	4369.5875
2602.9788	4352.5875
2605.65273	4345.2875
2608.32498	4335.6875
2610.99557	4337.7875
2613.66449	4317.3875
2616.33175	4312.5875
2618.99734	4326.1875
2621.66128	4309.0875
2624.32355	4301.8875
2626.98416	4294.3875
2629.64311	4283.5875
2632.30041	4288.4875
2634.95605	4285.5875
2637.61004	4279.1875
2640.26238	4254.8875
2642.91306	4259.6875
2645.56209	4259.0875
2648.20948	4237.4875
2650.85521	4236.2875
2653.4993	4234.9875
2656.14175	4220.1875
2658.78255	4229.0875
2661.42171	4234.2875
2664.05923	4218.3875
2666.6951	4222.7875
2669.32934	4231.1875
2671.96194	4218.8875
2674.59291	4216.5875
2677.22224	4212.9875
2679.84993	4209.8875
2682.476	4214.2875
2685.10043	4191.5875
2687.72324	4202.5875
2690.34441	4189.9875
2692.96396	4196.0875
2695.58188	4214.3875
2698.19818	4197.6875
2700.81285	4214.7875
2703.4259	4205.1875
2706.03733	4239.3875
2708.64714	4217.3875
2711.25533	4214.1875
2713.86191	4199.7875
2716.46687	4205.9875
2719.07021	4185.3875
2721.67194	4212.0875
2724.27206	4182.7875
2726.87057	4190.4875
2729.46747	4167.9875
2732.06276	4191.1875
2734.65644	4166.3875
2737.24852	4153.1875
2739.83899	4149.5875
2742.42786	4153.9875
2745.01513	4134.4875
2747.60079	4123.7875
2750.18486	4143.5875
2752.76733	4120.2875
2755.3482	4117.9875
2757.92747	4118.0875
2760.50515	4124.8875
2763.08123	4097.1875
2765.65573	4098.8875
2768.22863	4086.3875
2770.79994	4087.8875
2773.36967	4084.6875
2775.9378	4096.1875
2778.50435	4066.9875
2781.06932	4054.3875
2783.6327	4072.0875
2786.1945	4057.1875
2788.75471	4054.6875
2791.31335	4027.9875
2793.87041	4021.6875
2796.42589	4017.8875
2798.97979	3999.2875
2801.53212	3995.9875
2804.08288	4005.9875
2806.63206	3984.5875
2809.17967	3980.8875
2811.72571	3969.4875
2814.27018	3966.8875
2816.81308	3970.6875
2819.35442	3944.5875
2821.89419	3939.6875
2824.43239	3963.9875
2826.96904	3948.6875
2829.50412	3957.3875
2832.03763	3947.9875
2834.56959	3940.8875
2837.1	3930.5875
2839.62884	3942.0875
2842.15613	3943.3875
2844.68186	3947.2875
2847.20604	3938.4875
2849.72867	3947.7875
2852.24974	3934.0875
2854.76927	3946.4875
2857.28724	3939.7875
2859.80367	3938.5875
2862.31855	3920.1875
2864.83189	3936.2875
2867.34368	3916.2875
2869.85393	3933.9875
2872.36264	3919.4875
2874.8698	3931.5875
2877.37543	3924.4875
2879.87952	3925.9875
2882.38207	3932.6875
2884.88308	3920.4875
2887.38256	3918.0875
2889.88051	3900.1875
2892.37692	3906.3875
2894.8718	3914.8875
2897.36515	3912.5875
2899.85698	3898.8875
2902.34727	3914.9875
2904.83604	3901.3875
2907.32328	3896.3875
2909.809	3902.0875
2912.29319	3910.9875
2914.77587	3914.5875
2917.25702	3901.6875
2919.73665	3898.4875
2922.21476	3882.7875
2924.69136	3892.4875
2927.16644	3893.1875
2929.64	3898.6875
2932.11205	3881.5875
2934.58258	3868.2875
2937.05161	3873.8875
2939.51912	3877.6875
2941.98513	3848.0875
2944.44962	3854.4875
2946.91261	3834.3875
2949.37409	3854.2875
2951.83407	3830.7875
2954.29254	3818.0875
2956.74951	3822.0875
2959.20498	3824.6875
2961.65895	3837.8875
2964.11142	3815.9875
2966.56239	3794.2875
2969.01186	3808.3875
2971.45984	3808.3875
2973.90632	3795.9875
2976.35131	3778.9875
2978.7948	3760.3875
2981.23681	3775.3875
2983.67732	3754.7875
2986.11635	3764.8875
2988.55388	3752.1875
2990.98993	3742.8875
2993.4245	3748.6875
2995.85758	3723.9875
2998.28917	3729.9875
3000.71928	3701.1875
3003.14791	3724.6875
3005.57506	3711.3875
3008.00073	3712.3875
3010.42493	3699.6875
3012.84764	3713.0875
3015.26888	3692.7875
3017.68865	3700.5875
3020.10694	3697.1875
3022.52376	3686.4875
3024.9391	3685.3875
3027.35298	3673.2875
3029.76539	3674.1875
3032.17632	3660.8875
3034.5858	3650.5875
3036.9938	3655.1875
3039.40034	3639.1875
3041.80542	3656.1875
3044.20903	3655.9875
3046.61118	3659.7875
3049.01187	3636.0875
3051.4111	3632.9875
3053.80888	3638.7875
3056.20519	3632.8875
3058.60005	3625.0875
3060.99345	3635.9875
3063.3854	3635.0875
3065.7759	3598.3875
3068.16494	3607.6875
3070.55254	3598.9875
3072.93868	3614.4875
3075.32338	3598.2875
3077.70662	3600.5875
3080.08842	3598.3875
3082.46878	3597.2875
3084.84769	3595.2875
3087.22515	3614.4875
3089.60118	3602.0875
3091.97576	3601.8875
3094.3489	3610.1875
3096.72061	3612.8875
3099.09087	3608.3875
3101.4597	3617.4875
3103.82709	3609.3875
3106.19305	3617.2875
3108.55757	3622.7875
3110.92066	3609.1875
3113.28232	3596.1875
3115.64255	3606.0875
3118.00134	3596.2875
3120.35871	3596.8875
3122.71466	3607.6875
3125.06917	3604.6875
3127.42226	3597.1875
3129.77393	3590.4875
3132.12417	3601.5875
3134.47299	3610.0875
3136.82039	3616.3875
3139.16636	3625.3875
3141.51092	3621.8875
3143.85406	3623.0875
3146.19579	3630.2875
3148.53609	3639.5875
3150.87499	3646.3875
3153.21246	3657.7875
3155.54853	3669.0875
3157.88318	3673.4875
3160.21642	3682.2875
3162.54826	3675.2875
3164.87868	3681.6875
3167.2077	3686.2875
3169.5353	3677.9875
3171.86151	3692.2875
3174.18631	3689.5875
3176.5097	3700.9875
3178.83169	3693.4875
3181.15228	3696.3875
3183.47147	3696.6875
3185.78926	3688.6875
3188.10565	3689.6875
3190.42065	3699.7875
3192.73424	3709.5875
3195.04645	3707.7875
3197.35725	3709.9875
3199.66667	3710.9875
3201.97469	3715.3875
3204.28132	3718.1875
3206.58656	3732.4875
3208.8904	3741.3875
3211.19287	3734.6875
3213.49394	3746.2875
3215.79363	3737.2875
3218.09193	3754.8875
3220.38884	3735.5875
3222.68438	3752.5875
3224.97853	3731.6875
3227.2713	3746.9875
3229.56269	3752.0875
3231.8527	3754.7875
3234.14133	3732.7875
3236.42858	3734.4875
3238.71446	3734.4875
3240.99896	3727.2875
3243.28209	3724.1875
3245.56384	3710.8875
3247.84423	3735.9875
3250.12324	3708.4875
3252.40088	3721.6875
3254.67715	3739.1875
3256.95205	3706.3875
3259.22558	3714.3875
3261.49775	3720.4875
3263.76855	3698.9875
3266.03799	3701.2875
3268.30606	3684.0875
3270.57277	3688.9875
3272.83812	3698.4875
3275.10211	3672.7875
3277.36474	3673.4875
3279.62601	3680.3875
3281.88593	3669.3875
3284.14448	3673.0875
3286.40168	3669.4875
3288.65753	3677.3875
3290.91202	3661.4875
3293.16516	3641.4875
3295.41695	3634.9875
3297.66738	3626.4875
3299.91647	3596.8875
3302.16421	3572.2875
3304.4106	3566.9875
3306.65564	3552.2875
3308.89933	3531.5875
3311.14169	3518.9875
3313.38269	3502.8875
3315.62236	3480.3875
3317.86068	3453.1875
3320.09766	3422.3875
3322.3333	3395.8875
3324.5676	3385.5875
3326.80056	3337.2875
3329.03219	3315.4875
3331.26248	0.4875
3333.49143	1.8875
3335.71905	-0.7125
