Data from AgNPs_FTO_APTES_UA_100uM_R6G_10uM_NaF_0.1M_Addition_RamanShift__11__15-29-57-455.txt Node

Date: Fri Dec 17 15:29:57 GMT 2021
User: TCL
Spectrometer: QEP01345
Trigger mode: 4
Integration Time (sec): 7.000000E0
Scans to average: 10
Electric dark correction enabled: true
Nonlinearity correction enabled: false
Boxcar width: 0
XAxis mode: Raman Shifts
Number of Pixels in Spectrum: 1044
>>>>>Begin Spectral Data<<<<<
46.04893	0.8375
50.45542	0.3375
54.85868	-0.5625
59.25871	-1.5625
63.6555	64.6375
68.04907	66.2375
72.43941	72.6375
76.82654	75.9375
81.21044	75.9375
85.59113	81.2375
89.96862	87.2375
94.34289	86.8375
98.71396	91.9375
103.08183	90.8375
107.4465	96.4375
111.80798	99.1375
116.16626	100.2375
120.52136	97.1375
124.87327	103.0375
129.222	108.9375
133.56755	110.9375
137.90993	119.3375
142.24913	124.7375
146.58517	135.4375
150.91804	153.9375
155.24774	183.9375
159.57429	218.2375
163.89768	270.8375
168.21792	348.0375
172.53501	465.5375
176.84895	645.6375
181.15975	899.3375
185.46741	1258.2375
189.77193	1729.5375
194.07331	2317.7375
198.37157	2997.6375
202.6667	3696.9375
206.9587	4410.4375
211.24758	5089.1375
215.53334	5784.4375
219.81599	6489.0375
224.09553	7262.9375
228.37195	8137.7375
232.64527	9100.7375
236.91549	10164.5375
241.18261	11220.3375
245.44663	12241.4375
249.70755	13184.3375
253.96539	13994.1375
258.22014	14677.8375
262.4718	15225.3375
266.72039	15542.9375
270.96589	15747.9375
275.20832	15769.2375
279.44768	15640.4375
283.68397	15424.3375
287.91719	15206.2375
292.14735	15063.3375
296.37445	14958.8375
300.59849	14948.5375
304.81948	14945.4375
309.03742	14921.1375
313.25231	14801.5375
317.46415	14602.4375
321.67296	14307.2375
325.87872	14111.6375
330.08145	14025.3375
334.28114	14089.5375
338.47781	14220.1375
342.67145	14374.4375
346.86207	14599.0375
351.04966	14793.7375
355.23424	15070.6375
359.4158	15312.0375
363.59435	15536.1375
367.76989	15666.2375
371.94243	15849.3375
376.11196	15958.5375
380.27849	16076.7375
384.44203	16145.2375
388.60257	16246.2375
392.76012	16325.8375
396.91468	16473.2375
401.06626	16661.1375
405.21485	16813.1375
409.36047	16782.9375
413.50311	16611.3375
417.64277	16440.9375
421.77947	16302.7375
425.9132	16280.5375
430.04396	16349.1375
434.17176	16369.7375
438.2966	16488.2375
442.41849	16614.8375
446.53742	16736.7375
450.6534	16939.8375
454.76644	17100.5375
458.87653	17234.1375
462.98368	17288.5375
467.08789	17277.7375
471.18916	17223.0375
475.2875	17152.9375
479.38291	17033.3375
483.4754	16983.7375
487.56496	16895.6375
491.6516	16877.1375
495.73531	16854.4375
499.81612	16868.9375
503.89401	16968.1375
507.96899	17025.1375
512.04106	17085.4375
516.11023	17100.0375
520.1765	17097.1375
524.23987	17081.2375
528.30034	17026.1375
532.35792	16951.6375
536.41261	16872.9375
540.46441	16772.0375
544.51333	16771.6375
548.55936	16864.6375
552.60252	16987.3375
556.64279	17124.6375
560.6802	17262.8375
564.71473	17260.4375
568.7464	17296.0375
572.7752	17343.2375
576.80114	17342.6375
580.82422	17414.9375
584.84444	17492.4375
588.86181	17557.3375
592.87633	17525.5375
596.888	17544.7375
600.89682	17716.7375
604.9028	18307.6375
608.90594	19641.6375
612.90624	21140.2375
616.90371	20589.7375
620.89834	18448.7375
624.89015	17383.4375
628.87913	17199.4375
632.86528	17288.2375
636.84862	17440.2375
640.82913	17389.0375
644.80683	17219.7375
648.78172	17025.9375
652.75379	16998.9375
656.72306	17130.6375
660.68952	17318.9375
664.65319	17360.6375
668.61405	17217.5375
672.57211	17197.9375
676.52738	17188.0375
680.47986	17153.8375
684.42955	17103.9375
688.37646	17075.0375
692.32058	17099.9375
696.26192	17179.5375
700.20048	17241.9375
704.13626	17344.5375
708.06928	17324.7375
711.99952	17242.8375
715.927	17225.1375
719.85171	17146.1375
723.77365	17167.2375
727.69284	17097.1375
731.60928	17052.1375
735.52295	17005.9375
739.43388	16995.0375
743.34206	17045.3375
747.24749	17063.1375
751.15017	17104.9375
755.05012	17185.4375
758.94733	17422.9375
762.8418	17842.5375
766.73354	18635.9375
770.62254	19563.6375
774.50882	20020.9375
778.39237	19673.9375
782.27321	18723.6375
786.15132	17972.1375
790.02671	17412.2375
793.89938	17169.9375
797.76935	17040.9375
801.6366	16948.7375
805.50115	16887.4375
809.36299	16867.0375
813.22213	16829.2375
817.07857	16837.6375
820.93231	16812.6375
824.78336	16807.9375
828.63172	16816.0375
832.47738	16778.1375
836.32036	16787.1375
840.16066	16738.3375
843.99827	16766.7375
847.8332	16758.4375
851.66546	16758.4375
855.49504	16740.9375
859.32195	16747.6375
863.1462	16742.4375
866.96777	16757.1375
870.78668	16757.3375
874.60293	16752.4375
878.41652	16753.4375
882.22745	16784.4375
886.03573	16819.2375
889.84136	16877.9375
893.64433	16832.4375
897.44466	16788.4375
901.24235	16772.5375
905.0374	16730.2375
908.8298	16723.0375
912.61957	16715.1375
916.40671	16744.7375
920.19121	16755.6375
923.97308	16779.8375
927.75233	16784.8375
931.52895	16772.8375
935.30295	16724.6375
939.07433	16590.7375
942.84309	16466.5375
946.60924	16353.0375
950.37278	16305.1375
954.13371	16253.6375
957.89203	16246.6375
961.64774	16241.7375
965.40086	16206.2375
969.15137	16160.6375
972.89929	16155.2375
976.64461	16124.2375
980.38733	16094.4375
984.12747	16098.9375
987.86502	16133.6375
991.59999	16153.1375
995.33237	16175.0375
999.06217	16263.8375
1002.78939	16342.9375
1006.51404	16431.6375
1010.23611	16541.8375
1013.95561	16632.8375
1017.67255	16631.9375
1021.38692	16633.1375
1025.09872	16540.3375
1028.80796	16484.2375
1032.51465	16425.8375
1036.21877	16418.3375
1039.92035	16435.6375
1043.61937	16481.6375
1047.31584	16540.5375
1051.00976	16579.7375
1054.70114	16635.7375
1058.38998	16675.0375
1062.07627	16760.2375
1065.76003	16846.4375
1069.44126	16933.6375
1073.11995	17081.8375
1076.79611	17228.0375
1080.46974	17339.4375
1084.14085	17309.5375
1087.80943	17365.6375
1091.47549	17376.8375
1095.13903	17414.3375
1098.80005	17347.4375
1102.45857	17245.4375
1106.11456	17100.0375
1109.76805	17005.0375
1113.41903	16972.0375
1117.06751	17039.3375
1120.71348	17122.9375
1124.35696	17246.6375
1127.99793	17383.9375
1131.63641	17460.1375
1135.2724	17348.5375
1138.90589	17154.2375
1142.5369	17073.3375
1146.16542	16965.3375
1149.79145	16914.7375
1153.415	16882.4375
1157.03607	16876.8375
1160.65467	16966.7375
1164.27079	17168.6375
1167.88443	17460.5375
1171.49561	17844.5375
1175.10432	18481.4375
1178.71056	19311.0375
1182.31434	20060.1375
1185.91565	20501.2375
1189.51451	20609.4375
1193.11091	20398.7375
1196.70485	20013.2375
1200.29634	19522.8375
1203.88538	19131.9375
1207.47197	18641.1375
1211.05612	18191.8375
1214.63782	17872.9375
1218.21708	17670.5375
1221.79391	17528.6375
1225.36829	17441.1375
1228.94024	17397.3375
1232.50976	17397.7375
1236.07685	17466.9375
1239.6415	17515.8375
1243.20374	17557.9375
1246.76355	17612.1375
1250.32093	17689.0375
1253.8759	17802.9375
1257.42845	17988.4375
1260.97859	18201.1375
1264.52631	18394.0375
1268.07163	18609.3375
1271.61453	18737.1375
1275.15503	18841.8375
1278.69312	18941.9375
1282.22882	18998.6375
1285.76211	19068.0375
1289.29301	19176.3375
1292.82151	19416.4375
1296.34761	19668.9375
1299.87133	20012.4375
1303.39266	20502.7375
1306.9116	21146.2375
1310.42815	21775.9375
1313.94233	22165.9375
1317.45412	22115.4375
1320.96354	21824.6375
1324.47058	21530.4375
1327.97525	21137.8375
1331.47754	20860.8375
1334.97747	20801.2375
1338.47502	20862.4375
1341.97022	21168.4375
1345.46305	21625.2375
1348.95352	22174.6375
1352.44163	22647.4375
1355.92738	23079.2375
1359.41078	23714.5375
1362.89183	24513.4375
1366.37053	24318.7375
1369.84688	22775.3375
1373.32088	21069.1375
1376.79254	19817.2375
1380.26186	19061.8375
1383.72883	18651.0375
1387.19347	18344.5375
1390.65578	18053.3375
1394.11575	17774.5375
1397.57339	17525.2375
1401.0287	17357.2375
1404.48168	17325.5375
1407.93234	17224.4375
1411.38068	17197.4375
1414.82669	17138.9375
1418.27039	17053.2375
1421.71177	16914.4375
1425.15083	16720.3375
1428.58758	16571.6375
1432.02203	16538.0375
1435.45416	16498.4375
1438.88399	16557.8375
1442.31151	16602.4375
1445.73673	16667.1375
1449.15965	16712.9375
1452.58027	16771.8375
1455.9986	16813.3375
1459.41463	16876.7375
1462.82837	17000.5375
1466.23982	17252.4375
1469.64898	17463.2375
1473.05586	17664.2375
1476.46045	17788.2375
1479.86276	17893.6375
1483.26279	18027.4375
1486.66054	18137.2375
1490.05602	18348.6375
1493.44922	18645.2375
1496.84016	19220.8375
1500.22882	20050.5375
1503.61521	21163.3375
1506.99934	22320.4375
1510.38121	23111.8375
1513.76081	23169.9375
1517.13816	22463.4375
1520.51324	21354.5375
1523.88607	20256.4375
1527.25665	19500.8375
1530.62498	19069.2375
1533.99105	18821.2375
1537.35488	18590.1375
1540.71647	18450.2375
1544.07581	18303.7375
1547.4329	18199.1375
1550.78776	18141.4375
1554.14038	18061.5375
1557.49077	18060.6375
1560.83892	18150.5375
1564.18484	18251.4375
1567.52853	18403.3375
1570.86999	18556.8375
1574.20922	18659.3375
1577.54624	18689.0375
1580.88103	18433.8375
1584.2136	17990.8375
1587.54395	17664.4375
1590.87208	17574.1375
1594.19801	17746.9375
1597.52172	18110.6375
1600.84321	18326.5375
1604.16251	18225.4375
1607.47959	17975.5375
1610.79447	17596.2375
1614.10715	17157.3375
1617.41763	16687.2375
1620.7259	16279.9375
1624.03199	16000.8375
1627.33587	15872.2375
1630.63757	15820.3375
1633.93707	15931.6375
1637.23439	16280.2375
1640.52951	16794.5375
1643.82246	17545.6375
1647.11321	18413.3375
1650.40179	19069.5375
1653.68819	19003.6375
1656.97241	18202.7375
1660.25446	17105.2375
1663.53433	16129.6375
1666.81203	15512.2375
1670.08756	15098.2375
1673.36092	14806.6375
1676.63211	14616.0375
1679.90115	14497.7375
1683.16801	14339.9375
1686.43272	14240.3375
1689.69527	14116.5375
1692.95567	14066.8375
1696.2139	14036.8375
1699.46999	14006.8375
1702.72392	13943.3375
1705.97571	13954.6375
1709.22535	13908.7375
1712.47284	13877.7375
1715.71819	13838.5375
1718.96139	13835.7375
1722.20246	13804.8375
1725.44139	13745.9375
1728.67818	13663.6375
1731.91284	13629.8375
1735.14537	13573.1375
1738.37576	13546.7375
1741.60403	13480.1375
1744.83017	13445.7375
1748.05418	13422.4375
1751.27607	13399.7375
1754.49584	13347.8375
1757.71349	13374.7375
1760.92903	13378.5375
1764.14244	13331.1375
1767.35375	13312.9375
1770.56294	13305.5375
1773.77002	13295.5375
1776.97499	13250.9375
1780.17785	13223.7375
1783.37861	13219.8375
1786.57727	13176.2375
1789.77382	13149.0375
1792.96828	13129.5375
1796.16064	13100.0375
1799.3509	13061.0375
1802.53907	13057.1375
1805.72514	12974.1375
1808.90913	12976.9375
1812.09102	12966.8375
1815.27083	12929.6375
1818.44856	12878.8375
1821.6242	12864.7375
1824.79776	12858.8375
1827.96924	12812.8375
1831.13864	12777.6375
1834.30597	12810.2375
1837.47122	12762.9375
1840.6344	12755.2375
1843.7955	12764.0375
1846.95454	12723.9375
1850.11151	12716.8375
1853.26642	12718.6375
1856.41926	12718.2375
1859.57004	12701.9375
1862.71876	12671.6375
1865.86542	12636.3375
1869.01003	12656.1375
1872.15258	12624.8375
1875.29308	12619.7375
1878.43152	12555.3375
1881.56792	12546.6375
1884.70227	12536.4375
1887.83457	12518.8375
1890.96482	12495.8375
1894.09304	12464.0375
1897.21921	12458.5375
1900.34335	12453.4375
1903.46544	12424.4375
1906.58551	12394.6375
1909.70353	12370.8375
1912.81953	12383.5375
1915.93349	12338.8375
1919.04543	12316.5375
1922.15534	12293.5375
1925.26322	12274.9375
1928.36908	12227.0375
1931.47292	12204.7375
1934.57473	12166.2375
1937.67453	12139.2375
1940.77232	12109.8375
1943.86808	12086.5375
1946.96184	12061.2375
1950.05358	12034.5375
1953.14331	12036.1375
1956.23103	11973.3375
1959.31675	11907.6375
1962.40046	11874.8375
1965.48217	11841.6375
1968.56188	11806.8375
1971.63959	11786.2375
1974.7153	11716.9375
1977.78901	11679.2375
1980.86073	11656.4375
1983.93046	11614.2375
1986.99819	11603.9375
1990.06394	11553.5375
1993.1277	11501.2375
1996.18947	11463.3375
1999.24925	11452.9375
2002.30706	11416.2375
2005.36288	11347.9375
2008.41672	11360.3375
2011.46859	11296.6375
2014.51848	11255.6375
2017.56639	11228.6375
2020.61233	11190.1375
2023.6563	11153.2375
2026.6983	11138.1375
2029.73833	11106.0375
2032.7764	11064.8375
2035.8125	11031.8375
2038.84664	11002.0375
2041.87881	11021.5375
2044.90903	10973.4375
2047.93729	10934.5375
2050.96359	10910.4375
2053.98794	10882.8375
2057.01034	10861.3375
2060.03078	10844.6375
2063.04927	10854.7375
2066.06582	10853.3375
2069.08042	10861.5375
2072.09307	10815.7375
2075.10378	10791.5375
2078.11255	10805.1375
2081.11938	10808.7375
2084.12426	10803.4375
2087.12722	10772.5375
2090.12824	10766.9375
2093.12732	10754.6375
2096.12447	10776.2375
2099.11969	10742.0375
2102.11299	10759.8375
2105.10435	10758.2375
2108.09379	10760.5375
2111.08131	10764.1375
2114.0669	10774.0375
2117.05057	10780.1375
2120.03233	10792.4375
2123.01216	10781.3375
2125.99008	10794.1375
2128.96609	10798.3375
2131.94018	10800.7375
2134.91236	10829.8375
2137.88263	10806.8375
2140.851	10813.2375
2143.81746	10820.2375
2146.78201	10811.0375
2149.74466	10808.1375
2152.7054	10838.2375
2155.66425	10809.9375
2158.6212	10776.1375
2161.57625	10790.7375
2164.52941	10782.3375
2167.48067	10766.2375
2170.43004	10740.6375
2173.37752	10758.3375
2176.32311	10772.6375
2179.26681	10721.2375
2182.20863	10753.6375
2185.14856	10739.6375
2188.08661	10709.8375
2191.02278	10708.3375
2193.95707	10709.2375
2196.88948	10681.0375
2199.82001	10655.5375
2202.74867	10634.7375
2205.67545	10636.4375
2208.60037	10627.8375
2211.52341	10608.7375
2214.44458	10575.7375
2217.36388	10525.4375
2220.28132	10520.5375
2223.1969	10492.8375
2226.11061	10463.3375
2229.02246	10451.1375
2231.93245	10428.9375
2234.84058	10421.2375
2237.74686	10393.6375
2240.65128	10385.1375
2243.55385	10373.0375
2246.45456	10343.2375
2249.35343	10358.9375
2252.25044	10327.0375
2255.14561	10308.9375
2258.03893	10299.2375
2260.93041	10282.0375
2263.82004	10230.6375
2266.70783	10225.7375
2269.59378	10189.0375
2272.4779	10178.4375
2275.36017	10130.4375
2278.24061	10105.2375
2281.11922	10101.0375
2283.996	10079.2375
2286.87094	10059.4375
2289.74405	10042.2375
2292.61534	9991.9375
2295.4848	9985.9375
2298.35243	9980.4375
2301.21824	9972.8375
2304.08223	9961.6375
2306.94439	9951.6375
2309.80474	9942.9375
2312.66327	9922.0375
2315.51999	9917.1375
2318.37489	9903.0375
2321.22797	9864.1375
2324.07925	9875.5375
2326.92871	9843.7375
2329.77637	9839.7375
2332.62222	9828.8375
2335.46626	9770.4375
2338.3085	9754.7375
2341.14893	9737.8375
2343.98756	9717.1375
2346.8244	9719.4375
2349.65943	9731.1375
2352.49267	9685.2375
2355.32411	9699.3375
2358.15376	9701.5375
2360.98161	9683.6375
2363.80768	9686.0375
2366.63195	9656.1375
2369.45444	9664.5375
2372.27514	9626.6375
2375.09405	9610.8375
2377.91118	9609.2375
2380.72652	9593.1375
2383.54009	9577.7375
2386.35187	9555.4375
2389.16188	9496.7375
2391.97011	9484.2375
2394.77657	9474.1375
2397.58125	9472.0375
2400.38416	9442.8375
2403.18529	9408.6375
2405.98466	9384.6375
2408.78226	9382.4375
2411.57809	9368.1375
2414.37216	9370.7375
2417.16446	9337.9375
2419.955	9320.0375
2422.74378	9314.5375
2425.5308	9303.7375
2428.31606	9280.4375
2431.09956	9274.1375
2433.88131	9262.6375
2436.6613	9243.2375
2439.43954	9249.9375
2442.21603	9234.3375
2444.99077	9210.1375
2447.76377	9223.7375
2450.53501	9198.3375
2453.30451	9172.0375
2456.07226	9164.3375
2458.83827	9161.0375
2461.60254	9146.6375
2464.36507	9122.8375
2467.12586	9113.3375
2469.88492	9092.9375
2472.64224	9102.4375
2475.39782	9099.7375
2478.15167	9105.3375
2480.90379	9092.3375
2483.65417	9071.4375
2486.40283	9046.2375
2489.14976	9052.3375
2491.89497	9044.1375
2494.63845	9012.1375
2497.3802	9030.8375
2500.12024	9013.3375
2502.85855	8993.8375
2505.59514	8985.5375
2508.33002	8960.0375
2511.06318	8951.6375
2513.79462	8955.1375
2516.52435	8937.1375
2519.25237	8903.0375
2521.97867	8896.3375
2524.70327	8899.5375
2527.42616	8849.1375
2530.14734	8837.7375
2532.86681	8840.3375
2535.58458	8804.5375
2538.30065	8795.5375
2541.01501	8781.9375
2543.72768	8750.9375
2546.43864	8733.8375
2549.14791	8708.8375
2551.85548	8719.0375
2554.56136	8700.8375
2557.26554	8652.5375
2559.96803	8673.7375
2562.66883	8640.6375
2565.36794	8643.7375
2568.06536	8639.2375
2570.7611	8618.7375
2573.45514	8593.8375
2576.14751	8560.2375
2578.83819	8534.1375
2581.52719	8530.0375
2584.21451	8520.3375
2586.90015	8505.3375
2589.58411	8469.6375
2592.2664	8463.5375
2594.94701	8423.6375
2597.62594	8397.7375
2600.30321	8395.1375
2602.9788	8378.4375
2605.65273	8381.4375
2608.32498	8339.4375
2610.99557	8336.7375
2613.66449	8319.0375
2616.33175	8312.3375
2618.99734	8300.6375
2621.66128	8306.2375
2624.32355	8254.8375
2626.98416	8243.0375
2629.64311	8256.1375
2632.30041	8245.0375
2634.95605	8222.3375
2637.61004	8209.2375
2640.26238	8181.5375
2642.91306	8156.6375
2645.56209	8155.5375
2648.20948	8161.5375
2650.85521	8122.2375
2653.4993	8140.1375
2656.14175	8128.0375
2658.78255	8135.1375
2661.42171	8139.4375
2664.05923	8119.6375
2666.6951	8094.5375
2669.32934	8114.3375
2671.96194	8109.3375
2674.59291	8127.5375
2677.22224	8107.2375
2679.84993	8100.5375
2682.476	8102.8375
2685.10043	8106.9375
2687.72324	8070.0375
2690.34441	8111.0375
2692.96396	8071.7375
2695.58188	8082.9375
2698.19818	8063.9375
2700.81285	8086.7375
2703.4259	8087.4375
2706.03733	8081.7375
2708.64714	8077.7375
2711.25533	8054.6375
2713.86191	8063.4375
2716.46687	8065.1375
2719.07021	8052.1375
2721.67194	8045.2375
2724.27206	8029.6375
2726.87057	8005.6375
2729.46747	8012.7375
2732.06276	8009.6375
2734.65644	8000.4375
2737.24852	8011.4375
2739.83899	7969.1375
2742.42786	7962.0375
2745.01513	7964.8375
2747.60079	7948.5375
2750.18486	7958.0375
2752.76733	7940.3375
2755.3482	7934.5375
2757.92747	7928.2375
2760.50515	7906.3375
2763.08123	7891.5375
2765.65573	7870.0375
2768.22863	7869.9375
2770.79994	7850.0375
2773.36967	7833.9375
2775.9378	7826.8375
2778.50435	7808.9375
2781.06932	7765.1375
2783.6327	7791.9375
2786.1945	7788.0375
2788.75471	7774.2375
2791.31335	7721.0375
2793.87041	7733.1375
2796.42589	7693.2375
2798.97979	7682.0375
2801.53212	7669.2375
2804.08288	7647.8375
2806.63206	7624.2375
2809.17967	7608.7375
2811.72571	7576.8375
2814.27018	7578.6375
2816.81308	7550.0375
2819.35442	7539.7375
2821.89419	7538.4375
2824.43239	7528.2375
2826.96904	7521.1375
2829.50412	7500.6375
2832.03763	7505.3375
2834.56959	7493.0375
2837.1	7472.1375
2839.62884	7477.6375
2842.15613	7455.8375
2844.68186	7469.1375
2847.20604	7451.5375
2849.72867	7478.8375
2852.24974	7458.1375
2854.76927	7445.6375
2857.28724	7433.2375
2859.80367	7424.3375
2862.31855	7403.8375
2864.83189	7385.7375
2867.34368	7372.6375
2869.85393	7376.8375
2872.36264	7386.9375
2874.8698	7367.6375
2877.37543	7362.5375
2879.87952	7355.1375
2882.38207	7356.9375
2884.88308	7342.6375
2887.38256	7362.6375
2889.88051	7325.4375
2892.37692	7349.2375
2894.8718	7338.7375
2897.36515	7335.3375
2899.85698	7333.1375
2902.34727	7326.5375
2904.83604	7322.0375
2907.32328	7333.0375
2909.809	7316.9375
2912.29319	7336.2375
2914.77587	7313.4375
2917.25702	7303.2375
2919.73665	7295.8375
2922.21476	7292.9375
2924.69136	7278.1375
2927.16644	7290.6375
2929.64	7274.1375
2932.11205	7260.5375
2934.58258	7255.3375
2937.05161	7264.1375
2939.51912	7256.3375
2941.98513	7244.2375
2944.44962	7234.1375
2946.91261	7198.2375
2949.37409	7225.1375
2951.83407	7184.1375
2954.29254	7204.4375
2956.74951	7200.7375
2959.20498	7168.8375
2961.65895	7150.6375
2964.11142	7157.7375
2966.56239	7150.0375
2969.01186	7144.7375
2971.45984	7121.8375
2973.90632	7129.6375
2976.35131	7088.0375
2978.7948	7076.7375
2981.23681	7092.4375
2983.67732	7065.9375
2986.11635	7049.1375
2988.55388	7038.9375
2990.98993	7060.6375
2993.4245	7027.8375
2995.85758	6999.3375
2998.28917	6989.3375
3000.71928	6974.1375
3003.14791	6971.4375
3005.57506	6956.0375
3008.00073	6954.4375
3010.42493	6924.7375
3012.84764	6916.5375
3015.26888	6920.1375
3017.68865	6905.7375
3020.10694	6895.8375
3022.52376	6862.7375
3024.9391	6871.2375
3027.35298	6844.5375
3029.76539	6830.4375
3032.17632	6832.2375
3034.5858	6787.6375
3036.9938	6786.5375
3039.40034	6787.7375
3041.80542	6804.8375
3044.20903	6781.9375
3046.61118	6776.0375
3049.01187	6769.7375
3051.4111	6759.7375
3053.80888	6755.3375
3056.20519	6730.5375
3058.60005	6721.5375
3060.99345	6706.5375
3063.3854	6693.2375
3065.7759	6698.0375
3068.16494	6678.1375
3070.55254	6657.1375
3072.93868	6676.9375
3075.32338	6645.7375
3077.70662	6631.7375
3080.08842	6644.4375
3082.46878	6633.6375
3084.84769	6614.6375
3087.22515	6625.8375
3089.60118	6621.8375
3091.97576	6641.8375
3094.3489	6610.1375
3096.72061	6621.2375
3099.09087	6604.7375
3101.4597	6611.8375
3103.82709	6594.7375
3106.19305	6615.8375
3108.55757	6587.3375
3110.92066	6581.9375
3113.28232	6555.1375
3115.64255	6551.7375
3118.00134	6559.7375
3120.35871	6547.6375
3122.71466	6543.7375
3125.06917	6526.4375
3127.42226	6492.1375
3129.77393	6500.8375
3132.12417	6503.1375
3134.47299	6514.7375
3136.82039	6518.4375
3139.16636	6508.4375
3141.51092	6515.8375
3143.85406	6501.9375
3146.19579	6513.8375
3148.53609	6513.4375
3150.87499	6528.1375
3153.21246	6530.2375
3155.54853	6554.6375
3157.88318	6536.6375
3160.21642	6537.2375
3162.54826	6530.5375
3164.87868	6555.2375
3167.2077	6530.0375
3169.5353	6532.2375
3171.86151	6557.6375
3174.18631	6527.5375
3176.5097	6543.2375
3178.83169	6514.7375
3181.15228	6506.2375
3183.47147	6512.3375
3185.78926	6496.7375
3188.10565	6501.6375
3190.42065	6493.9375
3192.73424	6486.5375
3195.04645	6512.8375
3197.35725	6486.1375
3199.66667	6501.1375
3201.97469	6490.0375
3204.28132	6499.6375
3206.58656	6498.8375
3208.8904	6507.6375
3211.19287	6529.1375
3213.49394	6523.1375
3215.79363	6519.3375
3218.09193	6501.4375
3220.38884	6513.4375
3222.68438	6504.1375
3224.97853	6495.5375
3227.2713	6487.5375
3229.56269	6480.6375
3231.8527	6490.6375
3234.14133	6467.7375
3236.42858	6448.0375
3238.71446	6444.9375
3240.99896	6434.5375
3243.28209	6437.9375
3245.56384	6422.7375
3247.84423	6419.5375
3250.12324	6438.4375
3252.40088	6405.1375
3254.67715	6400.6375
3256.95205	6395.7375
3259.22558	6399.0375
3261.49775	6382.5375
3263.76855	6367.9375
3266.03799	6370.3375
3268.30606	6357.0375
3270.57277	6346.2375
3272.83812	6316.2375
3275.10211	6331.0375
3277.36474	6319.5375
3279.62601	6314.2375
3281.88593	6293.8375
3284.14448	6308.1375
3286.40168	6293.4375
3288.65753	6284.4375
3290.91202	6257.5375
3293.16516	6244.9375
3295.41695	6231.3375
3297.66738	6187.7375
3299.91647	6173.3375
3302.16421	6127.9375
3304.4106	6103.9375
3306.65564	6075.3375
3308.89933	6033.5375
3311.14169	6008.7375
3313.38269	5954.1375
3315.62236	5931.2375
3317.86068	5884.7375
3320.09766	5817.8375
3322.3333	5769.8375
3324.5676	5770.9375
3326.80056	5679.4375
3329.03219	5630.2375
3331.26248	2.6375
3333.49143	0.1375
3335.71905	-0.9625
