Data from AgNPs_FTO_APTES_UA_2uM_R6G_10uM_NaF_0.1M_Addition_RamanShift__32__12-20-57-240.txt Node

Date: Fri Dec 17 12:20:57 GMT 2021
User: TCL
Spectrometer: QEP01345
Trigger mode: 4
Integration Time (sec): 7.000000E0
Scans to average: 10
Electric dark correction enabled: true
Nonlinearity correction enabled: false
Boxcar width: 0
XAxis mode: Raman Shifts
Number of Pixels in Spectrum: 1044
>>>>>Begin Spectral Data<<<<<
46.04893	0.8
50.45542	-0.7
54.85868	-0.6
59.25871	1.2
63.6555	68.1
68.04907	71
72.43941	75.8
76.82654	82.9
81.21044	83.2
85.59113	90
89.96862	95.3
94.34289	95.7
98.71396	97.2
103.08183	100.1
107.4465	101.8
111.80798	104.5
116.16626	102.7
120.52136	100.3
124.87327	108.3
129.222	105.9
133.56755	109
137.90993	112.7
142.24913	119.3
146.58517	123.5
150.91804	136.5
155.24774	150.4
159.57429	184.1
163.89768	213.2
168.21792	271.2
172.53501	353.7
176.84895	470.6
181.15975	642.6
185.46741	879.9
189.77193	1215.2
194.07331	1607.1
198.37157	2049.5
202.6667	2541.1
206.9587	3023.2
211.24758	3476.6
215.53334	3978.9
219.81599	4516.6
224.09553	5147.9
228.37195	5844.9
232.64527	6589.2
236.91549	7314.9
241.18261	8003.3
245.44663	8570.4
249.70755	9026.8
253.96539	9422.2
258.22014	9768.2
262.4718	10103.2
266.72039	10395.1
270.96589	10552.1
275.20832	10576
279.44768	10459.6
283.68397	10300.5
287.91719	10168.3
292.14735	10165.4
296.37445	10356.5
300.59849	10716.9
304.81948	11194.7
309.03742	11529.1
313.25231	11503.9
317.46415	10965.4
321.67296	10193.6
325.87872	9531.9
330.08145	9204.7
334.28114	9198.3
338.47781	9351.5
342.67145	9645.7
346.86207	10077.4
351.04966	10664.3
355.23424	11383.8
359.4158	11958.3
363.59435	12228.7
367.76989	12350.5
371.94243	12360.2
376.11196	12332.4
380.27849	12254.2
384.44203	12161.5
388.60257	11981
392.76012	11916.4
396.91468	12043.3
401.06626	12344.4
405.21485	12610.2
409.36047	12402.1
413.50311	11803.3
417.64277	11254.9
421.77947	10944
425.9132	10806.9
430.04396	10813.3
434.17176	10867.8
438.2966	11033
442.41849	11308.2
446.53742	11635.8
450.6534	11965.6
454.76644	12185.5
458.87653	12256.9
462.98368	12163.6
467.08789	11964.4
471.18916	11682.7
475.2875	11368.2
479.38291	11111.2
483.4754	10937
487.56496	10821.4
491.6516	10704.2
495.73531	10690.8
499.81612	10710.3
503.89401	10809.6
507.96899	10938.2
512.04106	11139.3
516.11023	11349
520.1765	11468.9
524.23987	11449.4
528.30034	11241.1
532.35792	11013.2
536.41261	10777.4
540.46441	10528.3
544.51333	10392.1
548.55936	10441.6
552.60252	10663.8
556.64279	10897.9
560.6802	11015.4
564.71473	11151.4
568.7464	11552.8
572.7752	11802.3
576.80114	11577
580.82422	11264.5
584.84444	11121.2
588.86181	11125
592.87633	11166.2
596.888	11344.7
600.89682	11800
604.9028	13128.8
608.90594	16542.2
612.90624	20916.3
616.90371	20201.8
620.89834	14454.9
624.89015	11695
628.87913	11139.6
632.86528	11170.9
636.84862	11329.2
640.82913	11220.9
644.80683	10816.7
648.78172	10570.7
652.75379	10622.9
656.72306	11086.9
660.68952	11611.5
664.65319	11478
668.61405	10939.6
672.57211	10693.4
676.52738	10676
680.47986	10660.2
684.42955	10626
688.37646	10607.7
692.32058	10660.6
696.26192	10761.1
700.20048	10889.4
704.13626	10992
708.06928	10966.7
711.99952	10862.8
715.927	10842.7
719.85171	10839.9
723.77365	10821.8
727.69284	10725.8
731.60928	10688.7
735.52295	10704.4
739.43388	10718.2
743.34206	10807.6
747.24749	10851.1
751.15017	10949.6
755.05012	11160.9
758.94733	11627.9
762.8418	12675
766.73354	14479.1
770.62254	16455.7
774.50882	17573.3
778.39237	16985.5
782.27321	14930.5
786.15132	12896.7
790.02671	11747.3
793.89938	11225.8
797.76935	11013.7
801.6366	10925.2
805.50115	10855.7
809.36299	10823.3
813.22213	10773.6
817.07857	10779
820.93231	10769.9
824.78336	10818.9
828.63172	10869.5
832.47738	10915
836.32036	10865.1
840.16066	10800.4
843.99827	10780.2
847.8332	10781.8
851.66546	10766
855.49504	10794
859.32195	10780.4
863.1462	10721.1
866.96777	10717.5
870.78668	10683.4
874.60293	10712.5
878.41652	10764.2
882.22745	10824.7
886.03573	10868.6
889.84136	10855.2
893.64433	10810
897.44466	10770.7
901.24235	10758.2
905.0374	10777.3
908.8298	10737.1
912.61957	10718.6
916.40671	10773.4
920.19121	10841.3
923.97308	10949.8
927.75233	11046.5
931.52895	11137.5
935.30295	11062.3
939.07433	10814.9
942.84309	10602.9
946.60924	10479.3
950.37278	10393
954.13371	10357.5
957.89203	10293.4
961.64774	10288.6
965.40086	10253.8
969.15137	10227.6
972.89929	10220.8
976.64461	10199.2
980.38733	10203.2
984.12747	10229.7
987.86502	10273.5
991.59999	10354.8
995.33237	10468.2
999.06217	10666.8
1002.78939	10934.6
1006.51404	11216.9
1010.23611	11463.5
1013.95561	11632.5
1017.67255	11608
1021.38692	11455
1025.09872	11280
1028.80796	11208.3
1032.51465	11298.8
1036.21877	11454.3
1039.92035	11547.8
1043.61937	11513.3
1047.31584	11469.3
1051.00976	11327
1054.70114	11217.3
1058.38998	11213.4
1062.07627	11206
1065.76003	11254
1069.44126	11349.3
1073.11995	11416.4
1076.79611	11567.5
1080.46974	11726.1
1084.14085	11937.6
1087.80943	12205.1
1091.47549	12317.2
1095.13903	12129.5
1098.80005	11754.4
1102.45857	11420.7
1106.11456	11318.5
1109.76805	11390.3
1113.41903	11589.3
1117.06751	11885.7
1120.71348	12283.3
1124.35696	12690.4
1127.99793	13092.6
1131.63641	13081.5
1135.2724	12605.8
1138.90589	12114.9
1142.5369	11819.8
1146.16542	11619.9
1149.79145	11494.7
1153.415	11498.8
1157.03607	11593.2
1160.65467	11783.5
1164.27079	12134.4
1167.88443	12640.8
1171.49561	13467.3
1175.10432	14875
1178.71056	16792.9
1182.31434	18372.5
1185.91565	18869.9
1189.51451	18549.4
1193.11091	17440.6
1196.70485	16088.9
1200.29634	15058.9
1203.88538	14364.5
1207.47197	13644
1211.05612	13016.4
1214.63782	12700.1
1218.21708	12603.3
1221.79391	12632.7
1225.36829	12783
1228.94024	12889
1232.50976	13060.1
1236.07685	13166.5
1239.6415	13228.5
1243.20374	13261.4
1246.76355	13281.4
1250.32093	13411.4
1253.8759	13687.7
1257.42845	14012.7
1260.97859	14315.8
1264.52631	14668.1
1268.07163	14986.8
1271.61453	15305.9
1275.15503	15588.4
1278.69312	15745.4
1282.22882	15807.9
1285.76211	16064.5
1289.29301	16485.3
1292.82151	16893
1296.34761	17264.9
1299.87133	17834.7
1303.39266	18931.9
1306.9116	20677.1
1310.42815	22806.5
1313.94233	24138.6
1317.45412	23842.2
1320.96354	22580
1324.47058	21061.6
1327.97525	19707.8
1331.47754	18952
1334.97747	18802.5
1338.47502	19002.8
1341.97022	19384.3
1345.46305	19946.6
1348.95352	20834
1352.44163	22038.2
1355.92738	23838.4
1359.41078	26664.4
1362.89183	29564.7
1366.37053	29036.8
1369.84688	25084
1373.32088	20998.1
1376.79254	18392.9
1380.26186	17049.9
1383.72883	16365.3
1387.19347	15843.2
1390.65578	15280.7
1394.11575	14819
1397.57339	14608.5
1401.0287	14631.4
1404.48168	14967.4
1407.93234	15353.7
1411.38068	15724
1414.82669	15867.2
1418.27039	15719.7
1421.71177	15434.8
1425.15083	15133.1
1428.58758	14968.3
1432.02203	14949.8
1435.45416	15044.6
1438.88399	15119.5
1442.31151	15148.8
1445.73673	15192.7
1449.15965	15275.2
1452.58027	15212.9
1455.9986	15047.4
1459.41463	14938.9
1462.82837	15002.1
1466.23982	15194.6
1469.64898	15494.3
1473.05586	15708.5
1476.46045	15873.3
1479.86276	16188.3
1483.26279	16554.1
1486.66054	16959.6
1490.05602	17503.3
1493.44922	18203.4
1496.84016	19190.5
1500.22882	20638.3
1503.61521	22555
1506.99934	24762
1510.38121	26848.7
1513.76081	27858.8
1517.13816	26639.3
1520.51324	23849
1523.88607	20901.6
1527.25665	18891.1
1530.62498	17717.5
1533.99105	17014.1
1537.35488	16556.9
1540.71647	16288.8
1544.07581	16198.5
1547.4329	16168.9
1550.78776	16099.1
1554.14038	16059.7
1557.49077	16075.3
1560.83892	16255.4
1564.18484	16555.2
1567.52853	16895.6
1570.86999	17221.3
1574.20922	17507.7
1577.54624	17481.9
1580.88103	16847.4
1584.2136	15996
1587.54395	15609.6
1590.87208	15867.4
1594.19801	16667.3
1597.52172	17759.3
1600.84321	18262.4
1604.16251	17783.6
1607.47959	16820.3
1610.79447	15682.5
1614.10715	14563.7
1617.41763	13676.7
1620.7259	13139
1624.03199	12932.6
1627.33587	12948.8
1630.63757	13233.7
1633.93707	13756.1
1637.23439	14554.3
1640.52951	15629.6
1643.82246	16915.1
1647.11321	18376.4
1650.40179	19501.1
1653.68819	19066.1
1656.97241	16995.5
1660.25446	14621.5
1663.53433	12942
1666.81203	11906.7
1670.08756	11342
1673.36092	10961
1676.63211	10739.9
1679.90115	10565.1
1683.16801	10439.9
1686.43272	10387.4
1689.69527	10297.6
1692.95567	10243.5
1696.2139	10221.5
1699.46999	10199.3
1702.72392	10181.5
1705.97571	10154.8
1709.22535	10169.6
1712.47284	10160.2
1715.71819	10186.5
1718.96139	10203.5
1722.20246	10158.8
1725.44139	10133.6
1728.67818	10062.6
1731.91284	10006
1735.14537	9936.9
1738.37576	9904.4
1741.60403	9857.3
1744.83017	9793.5
1748.05418	9776.5
1751.27607	9758.3
1754.49584	9725
1757.71349	9729.6
1760.92903	9724
1764.14244	9718
1767.35375	9705.3
1770.56294	9680.4
1773.77002	9666.4
1776.97499	9654
1780.17785	9637.5
1783.37861	9610.9
1786.57727	9614.5
1789.77382	9592.1
1792.96828	9580.5
1796.16064	9572.5
1799.3509	9573.8
1802.53907	9564.1
1805.72514	9516.8
1808.90913	9493
1812.09102	9482.9
1815.27083	9475.4
1818.44856	9450.5
1821.6242	9430.4
1824.79776	9449.9
1827.96924	9400.3
1831.13864	9426
1834.30597	9413.8
1837.47122	9392.1
1840.6344	9395.2
1843.7955	9375.5
1846.95454	9395
1850.11151	9365.2
1853.26642	9391.1
1856.41926	9407.6
1859.57004	9392.7
1862.71876	9387.4
1865.86542	9419.9
1869.01003	9396.3
1872.15258	9400
1875.29308	9413.7
1878.43152	9395.3
1881.56792	9415.1
1884.70227	9429.3
1887.83457	9426.9
1890.96482	9430.5
1894.09304	9448.7
1897.21921	9413.4
1900.34335	9400.8
1903.46544	9410.1
1906.58551	9403.5
1909.70353	9405.7
1912.81953	9428.8
1915.93349	9369.6
1919.04543	9379.5
1922.15534	9376.1
1925.26322	9364.7
1928.36908	9319.8
1931.47292	9307.5
1934.57473	9275.6
1937.67453	9215.7
1940.77232	9172.3
1943.86808	9148.6
1946.96184	9125.8
1950.05358	9071.4
1953.14331	9043.3
1956.23103	9022.8
1959.31675	8993.4
1962.40046	8974.8
1965.48217	8919.2
1968.56188	8901.4
1971.63959	8908.7
1974.7153	8847.8
1977.78901	8838.6
1980.86073	8795.9
1983.93046	8768.7
1986.99819	8719.2
1990.06394	8715.7
1993.1277	8663.4
1996.18947	8642.7
1999.24925	8635.9
2002.30706	8610.6
2005.36288	8591.6
2008.41672	8545.4
2011.46859	8542.4
2014.51848	8495.5
2017.56639	8480.9
2020.61233	8454.3
2023.6563	8425
2026.6983	8414.7
2029.73833	8403.9
2032.7764	8355.2
2035.8125	8349.2
2038.84664	8354.7
2041.87881	8328.5
2044.90903	8322.4
2047.93729	8315.7
2050.96359	8310.2
2053.98794	8276.8
2057.01034	8278
2060.03078	8257.2
2063.04927	8236.8
2066.06582	8228.6
2069.08042	8224.7
2072.09307	8216.2
2075.10378	8200
2078.11255	8199.5
2081.11938	8200.2
2084.12426	8200.3
2087.12722	8199.9
2090.12824	8183.4
2093.12732	8202.2
2096.12447	8196.2
2099.11969	8189.9
2102.11299	8183
2105.10435	8174.4
2108.09379	8188.7
2111.08131	8180.5
2114.0669	8195.3
2117.05057	8187.5
2120.03233	8200.1
2123.01216	8214.6
2125.99008	8221.9
2128.96609	8230.2
2131.94018	8210.4
2134.91236	8218.8
2137.88263	8218.8
2140.851	8210.4
2143.81746	8225.8
2146.78201	8216.8
2149.74466	8238.5
2152.7054	8218.2
2155.66425	8227.6
2158.6212	8214.5
2161.57625	8200.2
2164.52941	8211.1
2167.48067	8192
2170.43004	8187.3
2173.37752	8188
2176.32311	8201.4
2179.26681	8193.5
2182.20863	8173.4
2185.14856	8180.3
2188.08661	8193.2
2191.02278	8178.3
2193.95707	8171.4
2196.88948	8171.6
2199.82001	8161.7
2202.74867	8143
2205.67545	8148.2
2208.60037	8147.1
2211.52341	8127.3
2214.44458	8120.6
2217.36388	8108.1
2220.28132	8082.3
2223.1969	8056.6
2226.11061	8049.7
2229.02246	8058
2231.93245	8011.5
2234.84058	7995.6
2237.74686	7980.1
2240.65128	7982.2
2243.55385	7974.6
2246.45456	7952.9
2249.35343	7943.2
2252.25044	7936.3
2255.14561	7930.2
2258.03893	7915.6
2260.93041	7895.4
2263.82004	7887.9
2266.70783	7892.6
2269.59378	7861.3
2272.4779	7835.9
2275.36017	7808.4
2278.24061	7807.1
2281.11922	7788.1
2283.996	7773
2286.87094	7744.7
2289.74405	7740.8
2292.61534	7723.3
2295.4848	7708.9
2298.35243	7706.7
2301.21824	7709.7
2304.08223	7708.1
2306.94439	7683.1
2309.80474	7703
2312.66327	7686.5
2315.51999	7675.5
2318.37489	7669.6
2321.22797	7673.7
2324.07925	7645.4
2326.92871	7654.9
2329.77637	7642.2
2332.62222	7617.5
2335.46626	7612
2338.3085	7601.9
2341.14893	7592
2343.98756	7604.7
2346.8244	7621.6
2349.65943	7608
2352.49267	7589.2
2355.32411	7607.4
2358.15376	7622.1
2360.98161	7592
2363.80768	7602.1
2366.63195	7597.2
2369.45444	7595.8
2372.27514	7587.3
2375.09405	7567.7
2377.91118	7558.2
2380.72652	7526.3
2383.54009	7478.2
2386.35187	7480.1
2389.16188	7448.7
2391.97011	7418.4
2394.77657	7390.9
2397.58125	7408.2
2400.38416	7390.8
2403.18529	7370.8
2405.98466	7346.6
2408.78226	7316.2
2411.57809	7294.4
2414.37216	7312.3
2417.16446	7296.6
2419.955	7267.9
2422.74378	7297.2
2425.5308	7269.4
2428.31606	7256.2
2431.09956	7260.1
2433.88131	7237.3
2436.6613	7243.9
2439.43954	7231.1
2442.21603	7239.5
2444.99077	7238.5
2447.76377	7237.2
2450.53501	7207
2453.30451	7215.1
2456.07226	7216.9
2458.83827	7211.4
2461.60254	7196.9
2464.36507	7204.7
2467.12586	7205.8
2469.88492	7193.2
2472.64224	7199
2475.39782	7168.5
2478.15167	7197.1
2480.90379	7192.7
2483.65417	7212.6
2486.40283	7190.5
2489.14976	7221.4
2491.89497	7193
2494.63845	7219.3
2497.3802	7208
2500.12024	7196.7
2502.85855	7192.1
2505.59514	7179.6
2508.33002	7156.3
2511.06318	7130.8
2513.79462	7110.7
2516.52435	7101.5
2519.25237	7088.1
2521.97867	7072.4
2524.70327	7040.4
2527.42616	7041
2530.14734	7033.8
2532.86681	7007.4
2535.58458	7014.4
2538.30065	7005.4
2541.01501	7000.7
2543.72768	6987.3
2546.43864	6980.4
2549.14791	6982.5
2551.85548	6941.1
2554.56136	6959.2
2557.26554	6937.6
2559.96803	6926.4
2562.66883	6925.9
2565.36794	6929.4
2568.06536	6924.1
2570.7611	6890.8
2573.45514	6882.8
2576.14751	6864.8
2578.83819	6874.2
2581.52719	6843.1
2584.21451	6847.1
2586.90015	6847
2589.58411	6852.7
2592.2664	6818.2
2594.94701	6803
2597.62594	6821.9
2600.30321	6782.5
2602.9788	6804.8
2605.65273	6785.2
2608.32498	6792.4
2610.99557	6777.3
2613.66449	6773.7
2616.33175	6771.7
2618.99734	6763.3
2621.66128	6748.2
2624.32355	6743.8
2626.98416	6732.3
2629.64311	6722
2632.30041	6722.2
2634.95605	6725.2
2637.61004	6695.1
2640.26238	6697.4
2642.91306	6684.2
2645.56209	6676.2
2648.20948	6652.5
2650.85521	6641.9
2653.4993	6664.5
2656.14175	6664.7
2658.78255	6674.6
2661.42171	6664
2664.05923	6665.8
2666.6951	6675.4
2669.32934	6671.8
2671.96194	6683
2674.59291	6684.4
2677.22224	6701.3
2679.84993	6695.1
2682.476	6703
2685.10043	6691.2
2687.72324	6691
2690.34441	6695.4
2692.96396	6699.4
2695.58188	6699.8
2698.19818	6680
2700.81285	6694.2
2703.4259	6701.1
2706.03733	6700.2
2708.64714	6682
2711.25533	6705.2
2713.86191	6695
2716.46687	6712.1
2719.07021	6708.3
2721.67194	6708.6
2724.27206	6699.8
2726.87057	6701.8
2729.46747	6687
2732.06276	6701.9
2734.65644	6691.5
2737.24852	6697.6
2739.83899	6680.5
2742.42786	6698
2745.01513	6669.8
2747.60079	6661.6
2750.18486	6667
2752.76733	6655.4
2755.3482	6659
2757.92747	6641.9
2760.50515	6648.5
2763.08123	6624.6
2765.65573	6617.7
2768.22863	6596
2770.79994	6609
2773.36967	6604.4
2775.9378	6606.3
2778.50435	6600
2781.06932	6585
2783.6327	6593.7
2786.1945	6589.3
2788.75471	6578.5
2791.31335	6585.7
2793.87041	6562.2
2796.42589	6552.8
2798.97979	6565.9
2801.53212	6546.8
2804.08288	6560.4
2806.63206	6546.3
2809.17967	6533.4
2811.72571	6531.3
2814.27018	6555.7
2816.81308	6548
2819.35442	6555.6
2821.89419	6556.1
2824.43239	6553.2
2826.96904	6570
2829.50412	6564.9
2832.03763	6541
2834.56959	6562.8
2837.1	6556.9
2839.62884	6587.2
2842.15613	6601.8
2844.68186	6640.8
2847.20604	6671.6
2849.72867	6716.8
2852.24974	6712.7
2854.76927	6724.3
2857.28724	6705.9
2859.80367	6672.7
2862.31855	6658.3
2864.83189	6661.8
2867.34368	6660.8
2869.85393	6639.6
2872.36264	6642.6
2874.8698	6617.2
2877.37543	6628
2879.87952	6641.1
2882.38207	6630.4
2884.88308	6602.9
2887.38256	6593.2
2889.88051	6600.7
2892.37692	6620.1
2894.8718	6590.9
2897.36515	6613.9
2899.85698	6612.9
2902.34727	6631
2904.83604	6620.1
2907.32328	6621.6
2909.809	6603.3
2912.29319	6611.2
2914.77587	6606.5
2917.25702	6596.2
2919.73665	6589.1
2922.21476	6561.5
2924.69136	6557.8
2927.16644	6540
2929.64	6535.6
2932.11205	6525.9
2934.58258	6478
2937.05161	6486.4
2939.51912	6473
2941.98513	6447.8
2944.44962	6403.7
2946.91261	6358.1
2949.37409	6328.9
2951.83407	6328.1
2954.29254	6301.7
2956.74951	6282.9
2959.20498	6270.6
2961.65895	6223.4
2964.11142	6225.8
2966.56239	6201
2969.01186	6183.5
2971.45984	6163.1
2973.90632	6171.7
2976.35131	6101.1
2978.7948	6111
2981.23681	6086.6
2983.67732	6075.6
2986.11635	6047.9
2988.55388	6032
2990.98993	6010.4
2993.4245	5997.3
2995.85758	5975.4
2998.28917	5959.1
3000.71928	5971.8
3003.14791	5934.2
3005.57506	5936.1
3008.00073	5906.2
3010.42493	5906.3
3012.84764	5886.4
3015.26888	5893.5
3017.68865	5867.7
3020.10694	5859.2
3022.52376	5865.8
3024.9391	5841.8
3027.35298	5820.1
3029.76539	5822
3032.17632	5810.9
3034.5858	5791
3036.9938	5770.8
3039.40034	5773.6
3041.80542	5773.9
3044.20903	5766.2
3046.61118	5751.3
3049.01187	5741.3
3051.4111	5753.5
3053.80888	5722.4
3056.20519	5701.9
3058.60005	5689.8
3060.99345	5672.4
3063.3854	5694.3
3065.7759	5630.6
3068.16494	5639.8
3070.55254	5629.7
3072.93868	5618.5
3075.32338	5596.3
3077.70662	5580.8
3080.08842	5574
3082.46878	5559.8
3084.84769	5545.4
3087.22515	5538.3
3089.60118	5533.9
3091.97576	5495.6
3094.3489	5514.7
3096.72061	5502.1
3099.09087	5517.5
3101.4597	5497.2
3103.82709	5498.6
3106.19305	5476
3108.55757	5485.8
3110.92066	5466.7
3113.28232	5452.1
3115.64255	5442
3118.00134	5400.8
3120.35871	5408.3
3122.71466	5399.6
3125.06917	5417.4
3127.42226	5396
3129.77393	5382
3132.12417	5399.1
3134.47299	5395.2
3136.82039	5397.5
3139.16636	5411.2
3141.51092	5400.2
3143.85406	5402.7
3146.19579	5406.7
3148.53609	5391.3
3150.87499	5410.7
3153.21246	5392.7
3155.54853	5412.8
3157.88318	5401.3
3160.21642	5418.2
3162.54826	5408.1
3164.87868	5384.5
3167.2077	5400.7
3169.5353	5382.6
3171.86151	5388.1
3174.18631	5376.5
3176.5097	5372.4
3178.83169	5362.2
3181.15228	5400.1
3183.47147	5375.9
3185.78926	5363.2
3188.10565	5356.9
3190.42065	5373.7
3192.73424	5350.2
3195.04645	5360.3
3197.35725	5375.8
3199.66667	5360.6
3201.97469	5381.3
3204.28132	5378.3
3206.58656	5394
3208.8904	5370.6
3211.19287	5388.2
3213.49394	5391.3
3215.79363	5388.3
3218.09193	5397.7
3220.38884	5382.7
3222.68438	5374.3
3224.97853	5382.5
3227.2713	5344.5
3229.56269	5365.6
3231.8527	5352.9
3234.14133	5357.1
3236.42858	5324.6
3238.71446	5319.9
3240.99896	5323.2
3243.28209	5304.8
3245.56384	5298.3
3247.84423	5309
3250.12324	5300.7
3252.40088	5308.1
3254.67715	5294.2
3256.95205	5292.8
3259.22558	5274.2
3261.49775	5279.6
3263.76855	5252.4
3266.03799	5259.5
3268.30606	5246.8
3270.57277	5224.2
3272.83812	5204
3275.10211	5228.3
3277.36474	5203.9
3279.62601	5215.1
3281.88593	5196.1
3284.14448	5200.7
3286.40168	5192.3
3288.65753	5188.3
3290.91202	5170.7
3293.16516	5151.1
3295.41695	5139.7
3297.66738	5109.8
3299.91647	5098.6
3302.16421	5074.7
3304.4106	5039.5
3306.65564	5007.2
3308.89933	4979.3
3311.14169	4950.7
3313.38269	4908.6
3315.62236	4880.6
3317.86068	4834.2
3320.09766	4793.7
3322.3333	4747.4
3324.5676	4751.2
3326.80056	4651.6
3329.03219	4646.9
3331.26248	1.1
3333.49143	0.8
3335.71905	-1.2
