Data from AgNPs_FTO_APTES_UA_5uM_R6G_10uM_NaF_0.1M_Addition_RamanShift__5__12-31-27-251.txt Node

Date: Fri Dec 17 12:31:27 GMT 2021
User: TCL
Spectrometer: QEP01345
Trigger mode: 4
Integration Time (sec): 7.000000E0
Scans to average: 10
Electric dark correction enabled: true
Nonlinearity correction enabled: false
Boxcar width: 0
XAxis mode: Raman Shifts
Number of Pixels in Spectrum: 1044
>>>>>Begin Spectral Data<<<<<
46.04893	-0.375
50.45542	-0.275
54.85868	-2.675
59.25871	-0.675
63.6555	130.525
68.04907	132.525
72.43941	137.425
76.82654	146.725
81.21044	148.425
85.59113	158.825
89.96862	161.225
94.34289	166.225
98.71396	170.025
103.08183	178.425
107.4465	180.825
111.80798	184.025
116.16626	194.225
120.52136	195.225
124.87327	208.425
129.222	215.625
133.56755	227.525
137.90993	246.225
142.24913	267.725
146.58517	296.525
150.91804	341.025
155.24774	402.725
159.57429	499.625
163.89768	637.025
168.21792	833.925
172.53501	1120.325
176.84895	1560.125
181.15975	2177.225
185.46741	3055.825
189.77193	4230.825
194.07331	5640.225
198.37157	7264.225
202.6667	8962.925
206.9587	10646.425
211.24758	12327.225
215.53334	13953.225
219.81599	15689.225
224.09553	17580.925
228.37195	19734.325
232.64527	22080.925
236.91549	24591.425
241.18261	27115.925
245.44663	29570.525
249.70755	31736.225
253.96539	33585.525
258.22014	35193.125
262.4718	36469.825
266.72039	37358.625
270.96589	37737.625
275.20832	37815.425
279.44768	37519.425
283.68397	37126.725
287.91719	36665.125
292.14735	36329.925
296.37445	36184.225
300.59849	36130.425
304.81948	36143.125
309.03742	36180.925
313.25231	36064.025
317.46415	35729.025
321.67296	35251.525
325.87872	34854.425
330.08145	34642.125
334.28114	34603.425
338.47781	34885.125
342.67145	35284.125
346.86207	35768.025
351.04966	36364.025
355.23424	36976.425
359.4158	37566.925
363.59435	38088.125
367.76989	38385.125
371.94243	38608.225
376.11196	38830.425
380.27849	39030.525
384.44203	39232.825
388.60257	39583.725
392.76012	39982.725
396.91468	40483.925
401.06626	41088.825
405.21485	41468.625
409.36047	41549.925
413.50311	41256.625
417.64277	41216.725
421.77947	41446.225
425.9132	41780.325
430.04396	41973.625
434.17176	42124.225
438.2966	42305.325
442.41849	42724.825
446.53742	43449.725
450.6534	44410.625
454.76644	45116.825
458.87653	45362.325
462.98368	45224.925
467.08789	44754.825
471.18916	44105.725
475.2875	43381.125
479.38291	42779.825
483.4754	42403.425
487.56496	42030.225
491.6516	41732.525
495.73531	41607.825
499.81612	41691.325
503.89401	42068.725
507.96899	42322.325
512.04106	42433.725
516.11023	42302.525
520.1765	41920.925
524.23987	41607.325
528.30034	41295.225
532.35792	40961.225
536.41261	40605.825
540.46441	40288.625
544.51333	40243.025
548.55936	40566.125
552.60252	41003.825
556.64279	41660.025
560.6802	42198.425
564.71473	42409.925
568.7464	42775.825
572.7752	43618.125
576.80114	44677.425
580.82422	46103.325
584.84444	47868.625
588.86181	49810.325
592.87633	51161.725
596.888	50822.825
600.89682	49276.825
604.9028	49145.325
608.90594	51470.425
612.90624	53668.525
616.90371	50859.625
620.89834	45173.725
624.89015	42612.125
628.87913	42196.525
632.86528	42316.325
636.84862	42232.925
640.82913	41642.225
644.80683	40861.625
648.78172	40429.325
652.75379	40413.825
656.72306	40922.625
660.68952	41403.925
664.65319	41160.325
668.61405	40722.125
672.57211	40732.925
676.52738	40971.925
680.47986	40914.025
684.42955	40635.025
688.37646	40525.225
692.32058	40772.025
696.26192	41342.825
700.20048	41910.925
704.13626	42167.025
708.06928	42068.125
711.99952	41821.725
715.927	41832.325
719.85171	41955.625
723.77365	41859.325
727.69284	41388.725
731.60928	40811.225
735.52295	40613.425
739.43388	40568.525
743.34206	40728.025
747.24749	40916.725
751.15017	41243.825
755.05012	41710.725
758.94733	42593.525
762.8418	44018.725
766.73354	46021.225
770.62254	47840.725
774.50882	48134.825
778.39237	46686.725
782.27321	44641.625
786.15132	42934.925
790.02671	41784.325
793.89938	41215.525
797.76935	41035.425
801.6366	40951.325
805.50115	40915.725
809.36299	40776.525
813.22213	40468.825
817.07857	40215.625
820.93231	39937.325
824.78336	39824.125
828.63172	39809.525
832.47738	39798.525
836.32036	39776.225
840.16066	39823.925
843.99827	39944.125
847.8332	39909.825
851.66546	39893.825
855.49504	39990.625
859.32195	40003.425
863.1462	40013.825
866.96777	39921.625
870.78668	39906.125
874.60293	39953.125
878.41652	40075.525
882.22745	40165.525
886.03573	40322.725
889.84136	40372.625
893.64433	40219.125
897.44466	39996.625
901.24235	39909.625
905.0374	39796.125
908.8298	39814.025
912.61957	39801.925
916.40671	40075.525
920.19121	40475.625
923.97308	40862.525
927.75233	40906.725
931.52895	40753.225
935.30295	40243.725
939.07433	39762.825
942.84309	39444.725
946.60924	39311.225
950.37278	39340.025
954.13371	39303.925
957.89203	39199.625
961.64774	39181.925
965.40086	39125.025
969.15137	39147.425
972.89929	39078.025
976.64461	39127.825
980.38733	39239.625
984.12747	39341.225
987.86502	39573.925
991.59999	39748.125
995.33237	40115.125
999.06217	40818.125
1002.78939	41721.825
1006.51404	42513.725
1010.23611	43227.525
1013.95561	43638.525
1017.67255	43555.325
1021.38692	43050.525
1025.09872	42560.725
1028.80796	42226.925
1032.51465	42512.225
1036.21877	42889.525
1039.92035	43088.825
1043.61937	42977.925
1047.31584	42651.525
1051.00976	42214.425
1054.70114	42048.625
1058.38998	42165.525
1062.07627	42481.525
1065.76003	42870.025
1069.44126	43323.525
1073.11995	43992.925
1076.79611	44635.625
1080.46974	44922.725
1084.14085	45175.725
1087.80943	45384.325
1091.47549	45595.325
1095.13903	45567.925
1098.80005	45154.025
1102.45857	44396.225
1106.11456	43738.725
1109.76805	43336.925
1113.41903	43287.425
1117.06751	43315.025
1120.71348	43460.425
1124.35696	43683.725
1127.99793	43952.325
1131.63641	44162.925
1135.2724	44155.525
1138.90589	44188.625
1142.5369	44205.025
1146.16542	44422.525
1149.79145	44597.725
1153.415	44810.625
1157.03607	45249.225
1160.65467	46253.425
1164.27079	47888.425
1167.88443	49865.425
1171.49561	51949.425
1175.10432	54272.025
1178.71056	57127.625
1182.31434	60160.125
1185.91565	62036.325
1189.51451	62361.825
1193.11091	61496.425
1196.70485	59881.525
1200.29634	58027.825
1203.88538	56683.125
1207.47197	56002.625
1211.05612	55504.125
1214.63782	54622.825
1218.21708	53561.125
1221.79391	52439.525
1225.36829	51622.525
1228.94024	51092.725
1232.50976	50698.925
1236.07685	50252.425
1239.6415	50004.525
1243.20374	49976.525
1246.76355	50380.525
1250.32093	51085.225
1253.8759	52076.725
1257.42845	53265.525
1260.97859	54609.625
1264.52631	56085.225
1268.07163	57543.825
1271.61453	59012.725
1275.15503	60406.225
1278.69312	61609.425
1282.22882	62635.925
1285.76211	63709.225
1289.29301	65062.725
1292.82151	66861.325
1296.34761	69167.325
1299.87133	72234.125
1303.39266	75703.725
1306.9116	79000.925
1310.42815	81468.625
1313.94233	82538.125
1317.45412	82295.925
1320.96354	81223.325
1324.47058	80488.625
1327.97525	80284.525
1331.47754	80339.125
1334.97747	80356.125
1338.47502	80247.525
1341.97022	79658.225
1345.46305	78593.425
1348.95352	77460.525
1352.44163	76908.725
1355.92738	77506.425
1359.41078	79387.225
1362.89183	80801.325
1366.37053	79528.125
1369.84688	74819.525
1373.32088	68583.125
1376.79254	63990.425
1380.26186	61985.525
1383.72883	61936.525
1387.19347	61950.125
1390.65578	61371.825
1394.11575	60944.425
1397.57339	61293.225
1401.0287	62223.425
1404.48168	63149.225
1407.93234	63710.425
1411.38068	63410.525
1414.82669	62308.825
1418.27039	60505.325
1421.71177	58628.625
1425.15083	57225.625
1428.58758	56782.225
1432.02203	57394.025
1435.45416	58841.125
1438.88399	60432.525
1442.31151	61410.825
1445.73673	61724.625
1449.15965	61630.625
1452.58027	61385.325
1455.9986	60988.825
1459.41463	61212.825
1462.82837	62095.625
1466.23982	63242.225
1469.64898	64201.725
1473.05586	64866.625
1476.46045	64968.325
1479.86276	64594.125
1483.26279	64012.325
1486.66054	63734.025
1490.05602	63890.625
1493.44922	64320.025
1496.84016	64547.125
1500.22882	65058.325
1503.61521	65831.525
1506.99934	66743.525
1510.38121	67399.125
1513.76081	67233.525
1517.13816	66197.325
1520.51324	64660.425
1523.88607	63604.725
1527.25665	63348.725
1530.62498	63355.125
1533.99105	63258.125
1537.35488	62866.025
1540.71647	61937.825
1544.07581	60842.225
1547.4329	59754.525
1550.78776	58745.125
1554.14038	58069.425
1557.49077	57575.125
1560.83892	57263.325
1564.18484	57035.625
1567.52853	56951.725
1570.86999	57188.325
1574.20922	57789.625
1577.54624	58649.525
1580.88103	59066.325
1584.2136	59854.725
1587.54395	61594.125
1590.87208	64609.025
1594.19801	68207.825
1597.52172	71629.725
1600.84321	72476.725
1604.16251	69776.825
1607.47959	64956.025
1610.79447	59999.325
1614.10715	55585.225
1617.41763	52005.125
1620.7259	49621.625
1624.03199	48446.225
1627.33587	48480.325
1630.63757	49731.825
1633.93707	52400.525
1637.23439	56742.125
1640.52951	63018.325
1643.82246	69839.925
1647.11321	74467.525
1650.40179	73933.525
1653.68819	68132.025
1656.97241	60124.125
1660.25446	52819.625
1663.53433	47723.125
1666.81203	44428.525
1670.08756	42492.025
1673.36092	41160.925
1676.63211	40318.425
1679.90115	39709.125
1683.16801	39233.725
1686.43272	38880.225
1689.69527	38693.725
1692.95567	38446.125
1696.2139	38348.525
1699.46999	38221.325
1702.72392	38045.525
1705.97571	38051.825
1709.22535	38043.825
1712.47284	37985.025
1715.71819	37950.325
1718.96139	37878.025
1722.20246	37745.925
1725.44139	37682.525
1728.67818	37460.425
1731.91284	37296.125
1735.14537	37114.225
1738.37576	36999.825
1741.60403	36889.025
1744.83017	36738.325
1748.05418	36696.725
1751.27607	36632.225
1754.49584	36575.225
1757.71349	36546.725
1760.92903	36492.425
1764.14244	36557.525
1767.35375	36516.125
1770.56294	36493.525
1773.77002	36463.125
1776.97499	36364.925
1780.17785	36367.225
1783.37861	36322.525
1786.57727	36246.825
1789.77382	36167.125
1792.96828	36123.325
1796.16064	36101.125
1799.3509	36073.425
1802.53907	36016.125
1805.72514	35940.325
1808.90913	35828.825
1812.09102	35774.325
1815.27083	35752.725
1818.44856	35710.625
1821.6242	35684.725
1824.79776	35724.425
1827.96924	35681.425
1831.13864	35682.225
1834.30597	35683.025
1837.47122	35736.825
1840.6344	35732.625
1843.7955	35734.625
1846.95454	35734.525
1850.11151	35692.425
1853.26642	35669.225
1856.41926	35658.125
1859.57004	35648.725
1862.71876	35645.925
1865.86542	35579.925
1869.01003	35563.225
1872.15258	35532.425
1875.29308	35483.125
1878.43152	35500.525
1881.56792	35463.525
1884.70227	35395.325
1887.83457	35397.225
1890.96482	35335.125
1894.09304	35265.125
1897.21921	35257.025
1900.34335	35175.225
1903.46544	35187.425
1906.58551	35127.025
1909.70353	35081.825
1912.81953	34996.525
1915.93349	34921.125
1919.04543	34869.825
1922.15534	34790.625
1925.26322	34724.925
1928.36908	34659.725
1931.47292	34599.225
1934.57473	34528.625
1937.67453	34414.125
1940.77232	34331.925
1943.86808	34271.625
1946.96184	34183.925
1950.05358	34115.825
1953.14331	34043.925
1956.23103	33937.025
1959.31675	33861.125
1962.40046	33767.525
1965.48217	33691.125
1968.56188	33618.125
1971.63959	33532.825
1974.7153	33433.325
1977.78901	33320.425
1980.86073	33193.425
1983.93046	33145.025
1986.99819	33078.125
1990.06394	32982.125
1993.1277	32867.425
1996.18947	32802.525
1999.24925	32722.825
2002.30706	32644.225
2005.36288	32499.725
2008.41672	32461.525
2011.46859	32421.725
2014.51848	32349.425
2017.56639	32298.125
2020.61233	32216.625
2023.6563	32147.825
2026.6983	32083.425
2029.73833	32005.125
2032.7764	31936.525
2035.8125	31840.025
2038.84664	31821.425
2041.87881	31770.925
2044.90903	31761.825
2047.93729	31704.925
2050.96359	31681.925
2053.98794	31607.825
2057.01034	31611.125
2060.03078	31581.025
2063.04927	31570.425
2066.06582	31511.225
2069.08042	31538.325
2072.09307	31528.125
2075.10378	31476.725
2078.11255	31471.625
2081.11938	31447.325
2084.12426	31416.625
2087.12722	31448.625
2090.12824	31410.825
2093.12732	31399.325
2096.12447	31458.825
2099.11969	31467.425
2102.11299	31478.025
2105.10435	31489.925
2108.09379	31514.825
2111.08131	31582.025
2114.0669	31561.125
2117.05057	31636.225
2120.03233	31599.725
2123.01216	31633.625
2125.99008	31661.925
2128.96609	31709.825
2131.94018	31737.425
2134.91236	31727.625
2137.88263	31833.225
2140.851	31811.025
2143.81746	31841.925
2146.78201	31840.425
2149.74466	31835.425
2152.7054	31866.725
2155.66425	31835.325
2158.6212	31850.625
2161.57625	31871.125
2164.52941	31805.625
2167.48067	31838.825
2170.43004	31833.825
2173.37752	31822.025
2176.32311	31836.925
2179.26681	31802.025
2182.20863	31794.625
2185.14856	31861.525
2188.08661	31850.025
2191.02278	31839.425
2193.95707	31825.125
2196.88948	31859.925
2199.82001	31822.525
2202.74867	31747.725
2205.67545	31794.625
2208.60037	31713.025
2211.52341	31664.325
2214.44458	31613.825
2217.36388	31588.725
2220.28132	31548.225
2223.1969	31490.825
2226.11061	31462.125
2229.02246	31415.625
2231.93245	31374.825
2234.84058	31330.425
2237.74686	31305.225
2240.65128	31302.725
2243.55385	31262.525
2246.45456	31176.125
2249.35343	31117.625
2252.25044	31072.725
2255.14561	30996.925
2258.03893	30977.025
2260.93041	30947.825
2263.82004	30852.225
2266.70783	30808.225
2269.59378	30753.925
2272.4779	30713.825
2275.36017	30632.625
2278.24061	30637.825
2281.11922	30539.425
2283.996	30485.825
2286.87094	30469.925
2289.74405	30438.125
2292.61534	30420.425
2295.4848	30432.925
2298.35243	30386.525
2301.21824	30417.625
2304.08223	30399.825
2306.94439	30409.825
2309.80474	30377.625
2312.66327	30410.625
2315.51999	30375.425
2318.37489	30341.825
2321.22797	30322.525
2324.07925	30325.025
2326.92871	30282.725
2329.77637	30223.525
2332.62222	30229.125
2335.46626	30169.825
2338.3085	30107.425
2341.14893	30100.125
2343.98756	30173.925
2346.8244	30106.725
2349.65943	30154.425
2352.49267	30075.225
2355.32411	30069.725
2358.15376	30049.825
2360.98161	30020.825
2363.80768	29995.825
2366.63195	29961.225
2369.45444	29924.025
2372.27514	29885.225
2375.09405	29847.325
2377.91118	29820.725
2380.72652	29714.725
2383.54009	29691.425
2386.35187	29661.125
2389.16188	29579.225
2391.97011	29579.025
2394.77657	29543.325
2397.58125	29506.625
2400.38416	29437.025
2403.18529	29409.325
2405.98466	29388.925
2408.78226	29325.025
2411.57809	29329.225
2414.37216	29308.125
2417.16446	29267.925
2419.955	29237.725
2422.74378	29221.425
2425.5308	29186.925
2428.31606	29189.225
2431.09956	29181.325
2433.88131	29120.625
2436.6613	29127.025
2439.43954	29107.525
2442.21603	29108.125
2444.99077	29071.225
2447.76377	29127.325
2450.53501	29049.325
2453.30451	29049.225
2456.07226	29075.525
2458.83827	29025.225
2461.60254	29017.125
2464.36507	29026.425
2467.12586	28987.425
2469.88492	29024.725
2472.64224	29012.325
2475.39782	29006.025
2478.15167	28973.725
2480.90379	28956.225
2483.65417	28924.225
2486.40283	28937.225
2489.14976	28971.125
2491.89497	28917.725
2494.63845	28958.725
2497.3802	28930.825
2500.12024	28867.425
2502.85855	28892.425
2505.59514	28893.525
2508.33002	28854.525
2511.06318	28867.025
2513.79462	28808.725
2516.52435	28848.925
2519.25237	28828.825
2521.97867	28814.425
2524.70327	28801.925
2527.42616	28774.925
2530.14734	28788.925
2532.86681	28742.125
2535.58458	28736.625
2538.30065	28716.225
2541.01501	28675.125
2543.72768	28593.425
2546.43864	28632.725
2549.14791	28588.725
2551.85548	28532.925
2554.56136	28475.825
2557.26554	28489.425
2559.96803	28495.325
2562.66883	28445.325
2565.36794	28421.925
2568.06536	28406.725
2570.7611	28365.025
2573.45514	28312.625
2576.14751	28346.825
2578.83819	28283.925
2581.52719	28271.225
2584.21451	28218.125
2586.90015	28243.225
2589.58411	28162.325
2592.2664	28132.525
2594.94701	28095.625
2597.62594	28086.725
2600.30321	28009.625
2602.9788	28037.225
2605.65273	27997.925
2608.32498	28004.425
2610.99557	27958.425
2613.66449	27952.425
2616.33175	27971.625
2618.99734	27911.125
2621.66128	27899.625
2624.32355	27874.525
2626.98416	27852.425
2629.64311	27845.625
2632.30041	27845.425
2634.95605	27773.225
2637.61004	27754.625
2640.26238	27720.125
2642.91306	27744.425
2645.56209	27769.425
2648.20948	27764.625
2650.85521	27757.425
2653.4993	27737.425
2656.14175	27728.325
2658.78255	27753.925
2661.42171	27743.725
2664.05923	27804.725
2666.6951	27786.825
2669.32934	27791.025
2671.96194	27798.725
2674.59291	27826.525
2677.22224	27793.125
2679.84993	27809.825
2682.476	27763.325
2685.10043	27759.425
2687.72324	27748.925
2690.34441	27740.825
2692.96396	27752.225
2695.58188	27761.825
2698.19818	27696.025
2700.81285	27734.825
2703.4259	27719.325
2706.03733	27761.225
2708.64714	27766.425
2711.25533	27797.925
2713.86191	27790.125
2716.46687	27865.125
2719.07021	27807.425
2721.67194	27866.925
2724.27206	27789.925
2726.87057	27834.125
2729.46747	27881.825
2732.06276	27907.425
2734.65644	27868.325
2737.24852	27857.825
2739.83899	27848.125
2742.42786	27879.725
2745.01513	27801.825
2747.60079	27819.525
2750.18486	27820.525
2752.76733	27835.725
2755.3482	27768.525
2757.92747	27772.225
2760.50515	27722.825
2763.08123	27712.525
2765.65573	27663.425
2768.22863	27639.425
2770.79994	27675.125
2773.36967	27655.125
2775.9378	27667.325
2778.50435	27617.425
2781.06932	27559.625
2783.6327	27535.325
2786.1945	27470.325
2788.75471	27482.525
2791.31335	27422.725
2793.87041	27369.625
2796.42589	27322.125
2798.97979	27324.425
2801.53212	27210.725
2804.08288	27238.725
2806.63206	27150.225
2809.17967	27145.225
2811.72571	27047.925
2814.27018	27090.425
2816.81308	27031.325
2819.35442	26964.025
2821.89419	26885.025
2824.43239	26891.325
2826.96904	26877.425
2829.50412	26823.525
2832.03763	26797.725
2834.56959	26755.825
2837.1	26721.925
2839.62884	26667.225
2842.15613	26632.225
2844.68186	26682.325
2847.20604	26706.925
2849.72867	26681.725
2852.24974	26637.925
2854.76927	26605.525
2857.28724	26537.725
2859.80367	26518.525
2862.31855	26461.225
2864.83189	26487.625
2867.34368	26435.525
2869.85393	26458.725
2872.36264	26447.825
2874.8698	26428.425
2877.37543	26442.225
2879.87952	26437.025
2882.38207	26462.025
2884.88308	26484.425
2887.38256	26481.525
2889.88051	26471.825
2892.37692	26453.725
2894.8718	26425.125
2897.36515	26488.825
2899.85698	26455.625
2902.34727	26559.025
2904.83604	26571.525
2907.32328	26554.025
2909.809	26523.525
2912.29319	26577.825
2914.77587	26529.525
2917.25702	26540.325
2919.73665	26509.925
2922.21476	26528.225
2924.69136	26500.725
2927.16644	26483.625
2929.64	26438.125
2932.11205	26405.425
2934.58258	26335.725
2937.05161	26427.825
2939.51912	26404.025
2941.98513	26386.225
2944.44962	26320.225
2946.91261	26193.425
2949.37409	26308.525
2951.83407	26287.225
2954.29254	26271.025
2956.74951	26244.525
2959.20498	26229.125
2961.65895	26159.925
2964.11142	26181.425
2966.56239	26084.225
2969.01186	26095.625
2971.45984	26028.525
2973.90632	26038.425
2976.35131	25970.525
2978.7948	26000.725
2981.23681	25872.625
2983.67732	25841.625
2986.11635	25784.225
2988.55388	25723.925
2990.98993	25679.425
2993.4245	25615.925
2995.85758	25588.825
2998.28917	25526.325
3000.71928	25515.225
3003.14791	25406.425
3005.57506	25448.525
3008.00073	25391.325
3010.42493	25390.325
3012.84764	25294.125
3015.26888	25306.525
3017.68865	25270.225
3020.10694	25227.625
3022.52376	25165.425
3024.9391	25136.525
3027.35298	25119.325
3029.76539	25067.325
3032.17632	25011.725
3034.5858	24984.525
3036.9938	24970.625
3039.40034	24968.925
3041.80542	24943.125
3044.20903	24871.825
3046.61118	24817.825
3049.01187	24767.425
3051.4111	24805.125
3053.80888	24748.625
3056.20519	24751.425
3058.60005	24643.325
3060.99345	24647.525
3063.3854	24564.825
3065.7759	24461.325
3068.16494	24431.725
3070.55254	24337.225
3072.93868	24297.125
3075.32338	24245.425
3077.70662	24189.025
3080.08842	24161.925
3082.46878	24170.025
3084.84769	24086.825
3087.22515	24115.525
3089.60118	24081.025
3091.97576	24050.925
3094.3489	24022.125
3096.72061	24009.325
3099.09087	24005.425
3101.4597	23968.025
3103.82709	23961.525
3106.19305	23943.625
3108.55757	23876.025
3110.92066	23801.025
3113.28232	23787.725
3115.64255	23710.125
3118.00134	23638.225
3120.35871	23621.425
3122.71466	23564.925
3125.06917	23546.925
3127.42226	23517.225
3129.77393	23484.725
3132.12417	23483.825
3134.47299	23460.525
3136.82039	23440.725
3139.16636	23446.325
3141.51092	23457.825
3143.85406	23460.225
3146.19579	23448.025
3148.53609	23443.925
3150.87499	23479.925
3153.21246	23415.925
3155.54853	23431.325
3157.88318	23391.325
3160.21642	23438.825
3162.54826	23398.325
3164.87868	23357.425
3167.2077	23304.025
3169.5353	23322.425
3171.86151	23325.125
3174.18631	23272.125
3176.5097	23246.325
3178.83169	23227.525
3181.15228	23204.625
3183.47147	23168.925
3185.78926	23170.225
3188.10565	23123.725
3190.42065	23120.225
3192.73424	23137.425
3195.04645	23134.125
3197.35725	23076.625
3199.66667	23076.725
3201.97469	23113.825
3204.28132	23061.625
3206.58656	23148.825
3208.8904	23062.625
3211.19287	23071.825
3213.49394	23045.125
3215.79363	23045.425
3218.09193	23028.725
3220.38884	22971.525
3222.68438	23010.325
3224.97853	22929.425
3227.2713	22961.225
3229.56269	22925.425
3231.8527	22881.425
3234.14133	22883.025
3236.42858	22752.025
3238.71446	22760.325
3240.99896	22724.525
3243.28209	22763.725
3245.56384	22736.925
3247.84423	22747.225
3250.12324	22700.525
3252.40088	22677.025
3254.67715	22695.525
3256.95205	22594.225
3259.22558	22579.925
3261.49775	22521.625
3263.76855	22518.625
3266.03799	22433.825
3268.30606	22427.625
3270.57277	22367.025
3272.83812	22348.925
3275.10211	22320.025
3277.36474	22331.225
3279.62601	22323.325
3281.88593	22271.525
3284.14448	22278.225
3286.40168	22271.225
3288.65753	22220.825
3290.91202	22195.725
3293.16516	22114.925
3295.41695	22099.225
3297.66738	21920.225
3299.91647	21865.325
3302.16421	21731.925
3304.4106	21650.925
3306.65564	21530.325
3308.89933	21429.625
3311.14169	21293.625
3313.38269	21058.025
3315.62236	21000.425
3317.86068	20801.425
3320.09766	20578.325
3322.3333	20420.125
3324.5676	20429.025
3326.80056	20084.225
3329.03219	19985.425
3331.26248	5.225
3333.49143	0.125
3335.71905	-0.575
