Data from AgNPs_FTO_APTES_UA_2uM_R6G_10uM_NaF_0.1M_Addition_RamanShift__3__11-47-07-201.txt Node

Date: Fri Dec 17 11:47:07 GMT 2021
User: TCL
Spectrometer: QEP01345
Trigger mode: 4
Integration Time (sec): 7.000000E0
Scans to average: 10
Electric dark correction enabled: true
Nonlinearity correction enabled: false
Boxcar width: 0
XAxis mode: Raman Shifts
Number of Pixels in Spectrum: 1044
>>>>>Begin Spectral Data<<<<<
46.04893	-0.275
50.45542	-1.275
54.85868	-1.475
59.25871	-0.175
63.6555	127.725
68.04907	132.925
72.43941	141.525
76.82654	145.025
81.21044	150.125
85.59113	154.325
89.96862	162.125
94.34289	170.425
98.71396	175.825
103.08183	176.025
107.4465	179.625
111.80798	186.025
116.16626	188.625
120.52136	194.925
124.87327	206.225
129.222	214.525
133.56755	223.825
137.90993	242.225
142.24913	264.325
146.58517	292.625
150.91804	338.725
155.24774	396.625
159.57429	486.925
163.89768	620.425
168.21792	817.925
172.53501	1094.325
176.84895	1510.525
181.15975	2102.825
185.46741	2939.525
189.77193	4068.825
194.07331	5459.025
198.37157	7022.425
202.6667	8691.225
206.9587	10313.625
211.24758	11937.025
215.53334	13567.825
219.81599	15279.425
224.09553	17184.025
228.37195	19291.125
232.64527	21581.325
236.91549	23977.525
241.18261	26458.725
245.44663	28771.225
249.70755	30853.725
253.96539	32714.525
258.22014	34150.025
262.4718	35390.225
266.72039	36290.325
270.96589	36690.525
275.20832	36682.525
279.44768	36364.925
283.68397	35867.025
287.91719	35420.225
292.14735	35120.425
296.37445	34953.725
300.59849	34880.725
304.81948	34970.125
309.03742	34942.725
313.25231	34825.425
317.46415	34484.725
321.67296	34070.425
325.87872	33610.225
330.08145	33428.325
334.28114	33521.525
338.47781	33766.025
342.67145	34141.325
346.86207	34586.125
351.04966	35263.625
355.23424	35911.225
359.4158	36531.825
363.59435	37091.325
367.76989	37430.725
371.94243	37748.325
376.11196	37942.725
380.27849	38161.525
384.44203	38406.825
388.60257	38719.325
392.76012	39030.725
396.91468	39557.425
401.06626	40111.825
405.21485	40524.425
409.36047	40573.925
413.50311	40326.925
417.64277	40182.125
421.77947	40233.925
425.9132	40440.525
430.04396	40656.425
434.17176	40778.125
438.2966	41084.425
442.41849	41582.525
446.53742	42533.325
450.6534	43551.325
454.76644	44274.525
458.87653	44615.025
462.98368	44515.025
467.08789	43936.125
471.18916	43318.225
475.2875	42544.525
479.38291	42001.725
483.4754	41691.025
487.56496	41424.325
491.6516	41218.125
495.73531	41102.425
499.81612	41197.825
503.89401	41519.025
507.96899	41653.625
512.04106	41600.525
516.11023	41406.325
520.1765	41216.225
524.23987	41076.625
528.30034	40875.325
532.35792	40637.525
536.41261	40248.525
540.46441	39877.925
544.51333	39745.925
548.55936	39929.525
552.60252	40433.825
556.64279	40990.025
560.6802	41524.325
564.71473	41676.125
568.7464	41967.425
572.7752	42593.525
576.80114	43231.325
580.82422	44097.225
584.84444	45290.925
588.86181	46590.125
592.87633	47616.325
596.888	47735.125
600.89682	47178.325
604.9028	47934.825
608.90594	51172.625
612.90624	54202.925
616.90371	51532.825
620.89834	45432.425
624.89015	42687.025
628.87913	42185.825
632.86528	42058.825
636.84862	41719.925
640.82913	41201.925
644.80683	40411.025
648.78172	39975.825
652.75379	39952.225
656.72306	40476.525
660.68952	41132.125
664.65319	40943.125
668.61405	40521.425
672.57211	40623.025
676.52738	40848.725
680.47986	40771.725
684.42955	40401.325
688.37646	40329.425
692.32058	40709.325
696.26192	41403.325
700.20048	41961.525
704.13626	42160.525
708.06928	41841.125
711.99952	41446.725
715.927	41388.725
719.85171	41657.325
723.77365	41625.925
727.69284	41127.925
731.60928	40667.925
735.52295	40442.825
739.43388	40478.925
743.34206	40577.325
747.24749	40774.225
751.15017	41032.625
755.05012	41451.825
758.94733	42320.725
762.8418	43589.325
766.73354	45640.525
770.62254	47515.125
774.50882	48012.425
778.39237	46752.125
782.27321	44699.625
786.15132	42994.725
790.02671	41891.125
793.89938	41395.125
797.76935	41171.725
801.6366	41172.425
805.50115	41086.825
809.36299	40930.225
813.22213	40669.425
817.07857	40473.425
820.93231	40291.425
824.78336	40180.425
828.63172	40232.425
832.47738	40224.325
836.32036	40355.725
840.16066	40576.525
843.99827	40758.725
847.8332	40666.425
851.66546	40523.625
855.49504	40460.225
859.32195	40529.625
863.1462	40471.625
866.96777	40339.325
870.78668	40315.025
874.60293	40342.625
878.41652	40442.125
882.22745	40641.225
886.03573	40813.625
889.84136	40953.125
893.64433	40752.925
897.44466	40544.925
901.24235	40387.425
905.0374	40230.325
908.8298	40267.125
912.61957	40296.925
916.40671	40529.225
920.19121	40910.625
923.97308	41382.225
927.75233	41677.225
931.52895	41605.325
935.30295	41288.525
939.07433	40849.325
942.84309	40529.725
946.60924	40381.925
950.37278	40340.325
954.13371	40254.825
957.89203	40015.425
961.64774	39943.025
965.40086	39885.625
969.15137	39898.525
972.89929	39937.025
976.64461	39994.525
980.38733	40186.825
984.12747	40462.325
987.86502	40751.125
991.59999	41184.325
995.33237	41772.325
999.06217	42805.325
1002.78939	44057.925
1006.51404	44913.425
1010.23611	45370.725
1013.95561	45619.725
1017.67255	45483.625
1021.38692	45001.125
1025.09872	44685.125
1028.80796	45056.125
1032.51465	46200.425
1036.21877	47478.325
1039.92035	47777.425
1043.61937	47263.225
1047.31584	46177.225
1051.00976	44975.725
1054.70114	44192.525
1058.38998	44020.025
1062.07627	44110.225
1065.76003	44387.025
1069.44126	44685.625
1073.11995	45205.925
1076.79611	45848.425
1080.46974	46301.225
1084.14085	46544.825
1087.80943	46871.725
1091.47549	46841.725
1095.13903	46639.225
1098.80005	46076.525
1102.45857	45332.125
1106.11456	44865.325
1109.76805	44684.125
1113.41903	44600.925
1117.06751	44578.325
1120.71348	44688.025
1124.35696	44878.225
1127.99793	45150.125
1131.63641	45328.025
1135.2724	45266.825
1138.90589	45122.325
1142.5369	45036.425
1146.16542	45103.225
1149.79145	45170.625
1153.415	45301.225
1157.03607	45609.125
1160.65467	46467.825
1164.27079	47894.025
1167.88443	49771.725
1171.49561	51843.925
1175.10432	54368.525
1178.71056	57669.225
1182.31434	61075.925
1185.91565	63225.725
1189.51451	63503.925
1193.11091	62307.725
1196.70485	60362.725
1200.29634	58323.825
1203.88538	56925.625
1207.47197	55962.625
1211.05612	55131.725
1214.63782	54222.825
1218.21708	53471.225
1221.79391	52911.925
1225.36829	52477.425
1228.94024	52000.125
1232.50976	51355.625
1236.07685	50800.125
1239.6415	50528.425
1243.20374	50619.725
1246.76355	51099.025
1250.32093	51945.625
1253.8759	52934.325
1257.42845	54200.725
1260.97859	55569.225
1264.52631	57019.425
1268.07163	58706.125
1271.61453	60401.525
1275.15503	62029.225
1278.69312	63323.325
1282.22882	64158.925
1285.76211	64917.025
1289.29301	65791.925
1292.82151	67150.925
1296.34761	69165.025
1299.87133	72134.225
1303.39266	75834.725
1306.9116	79781.025
1310.42815	82825.225
1313.94233	84227.125
1317.45412	83686.325
1320.96354	81997.925
1324.47058	80626.925
1327.97525	79532.125
1331.47754	78901.025
1334.97747	78486.625
1338.47502	78049.825
1341.97022	77037.525
1345.46305	75677.725
1348.95352	74583.425
1352.44163	74750.225
1355.92738	76381.925
1359.41078	79379.325
1362.89183	81865.325
1366.37053	80780.825
1369.84688	75710.625
1373.32088	69259.925
1376.79254	64477.325
1380.26186	62456.725
1383.72883	62106.525
1387.19347	61886.225
1390.65578	61151.325
1394.11575	60461.125
1397.57339	60417.425
1401.0287	60909.925
1404.48168	61546.025
1407.93234	62130.525
1411.38068	62208.625
1414.82669	61649.925
1418.27039	60462.625
1421.71177	58921.125
1425.15083	57700.625
1428.58758	57286.925
1432.02203	57793.825
1435.45416	59093.925
1438.88399	60467.625
1442.31151	61243.625
1445.73673	61510.925
1449.15965	61547.525
1452.58027	61266.925
1455.9986	60810.325
1459.41463	60784.825
1462.82837	61526.125
1466.23982	62650.125
1469.64898	63764.225
1473.05586	64595.125
1476.46045	65014.825
1479.86276	64911.525
1483.26279	64723.625
1486.66054	64611.025
1490.05602	64972.225
1493.44922	65285.325
1496.84016	65359.025
1500.22882	65481.425
1503.61521	66156.925
1506.99934	67066.825
1510.38121	67851.725
1513.76081	67783.925
1517.13816	66488.225
1520.51324	64435.925
1523.88607	62772.625
1527.25665	62039.425
1530.62498	61804.825
1533.99105	61741.725
1537.35488	61540.925
1540.71647	60913.025
1544.07581	60216.425
1547.4329	59435.925
1550.78776	58763.725
1554.14038	58309.125
1557.49077	57914.425
1560.83892	57563.425
1564.18484	57324.025
1567.52853	57299.425
1570.86999	57461.725
1574.20922	58079.925
1577.54624	58790.325
1580.88103	59218.625
1584.2136	59935.025
1587.54395	61660.325
1590.87208	64737.625
1594.19801	68410.625
1597.52172	71895.925
1600.84321	72789.125
1604.16251	70156.325
1607.47959	65381.825
1610.79447	60282.925
1614.10715	55844.725
1617.41763	52446.025
1620.7259	50325.725
1624.03199	49444.625
1627.33587	49676.825
1630.63757	51019.025
1633.93707	53489.725
1637.23439	57298.125
1640.52951	62532.025
1643.82246	68273.925
1647.11321	72156.625
1650.40179	71719.125
1653.68819	66646.525
1656.97241	59292.425
1660.25446	52730.425
1663.53433	48256.125
1666.81203	45527.725
1670.08756	43771.525
1673.36092	42678.325
1676.63211	41948.025
1679.90115	41411.025
1683.16801	41034.325
1686.43272	40750.325
1689.69527	40516.225
1692.95567	40362.925
1696.2139	40179.325
1699.46999	40133.725
1702.72392	40090.725
1705.97571	40034.825
1709.22535	40038.125
1712.47284	40017.025
1715.71819	40048.025
1718.96139	39962.325
1722.20246	39856.025
1725.44139	39769.625
1728.67818	39635.325
1731.91284	39462.025
1735.14537	39351.425
1738.37576	39182.225
1741.60403	39028.425
1744.83017	38953.125
1748.05418	38861.325
1751.27607	38873.025
1754.49584	38782.525
1757.71349	38791.125
1760.92903	38781.325
1764.14244	38795.225
1767.35375	38839.625
1770.56294	38772.625
1773.77002	38725.725
1776.97499	38708.825
1780.17785	38638.325
1783.37861	38677.025
1786.57727	38667.625
1789.77382	38575.725
1792.96828	38564.725
1796.16064	38451.525
1799.3509	38446.425
1802.53907	38407.525
1805.72514	38343.425
1808.90913	38285.725
1812.09102	38206.325
1815.27083	38193.925
1818.44856	38177.025
1821.6242	38155.125
1824.79776	38100.425
1827.96924	38106.825
1831.13864	38111.525
1834.30597	38149.125
1837.47122	38163.325
1840.6344	38191.325
1843.7955	38216.825
1846.95454	38142.825
1850.11151	38148.225
1853.26642	38168.425
1856.41926	38181.425
1859.57004	38133.225
1862.71876	38113.825
1865.86542	38145.625
1869.01003	38076.725
1872.15258	38086.225
1875.29308	38042.525
1878.43152	38063.125
1881.56792	38038.525
1884.70227	38025.925
1887.83457	38001.525
1890.96482	37996.425
1894.09304	37892.925
1897.21921	37877.725
1900.34335	37902.725
1903.46544	37859.825
1906.58551	37811.625
1909.70353	37764.125
1912.81953	37720.125
1915.93349	37634.125
1919.04543	37545.325
1922.15534	37537.125
1925.26322	37490.925
1928.36908	37442.625
1931.47292	37398.525
1934.57473	37287.425
1937.67453	37205.525
1940.77232	37135.725
1943.86808	37086.425
1946.96184	36994.025
1950.05358	36853.925
1953.14331	36862.225
1956.23103	36759.725
1959.31675	36670.025
1962.40046	36514.525
1965.48217	36472.925
1968.56188	36406.025
1971.63959	36388.525
1974.7153	36260.325
1977.78901	36158.925
1980.86073	36074.225
1983.93046	35946.325
1986.99819	35835.825
1990.06394	35767.125
1993.1277	35683.825
1996.18947	35585.025
1999.24925	35524.825
2002.30706	35374.125
2005.36288	35306.225
2008.41672	35248.325
2011.46859	35234.825
2014.51848	35096.325
2017.56639	34975.925
2020.61233	34968.825
2023.6563	34898.825
2026.6983	34879.125
2029.73833	34825.325
2032.7764	34779.425
2035.8125	34743.425
2038.84664	34728.025
2041.87881	34713.625
2044.90903	34640.325
2047.93729	34605.825
2050.96359	34613.825
2053.98794	34557.325
2057.01034	34513.625
2060.03078	34500.425
2063.04927	34484.625
2066.06582	34432.425
2069.08042	34422.925
2072.09307	34427.725
2075.10378	34445.725
2078.11255	34399.025
2081.11938	34364.425
2084.12426	34363.325
2087.12722	34321.725
2090.12824	34370.325
2093.12732	34388.825
2096.12447	34431.825
2099.11969	34465.825
2102.11299	34476.225
2105.10435	34490.825
2108.09379	34494.725
2111.08131	34579.825
2114.0669	34607.225
2117.05057	34659.525
2120.03233	34600.625
2123.01216	34687.125
2125.99008	34723.125
2128.96609	34744.925
2131.94018	34782.825
2134.91236	34837.125
2137.88263	34878.925
2140.851	34883.125
2143.81746	34997.025
2146.78201	34991.725
2149.74466	35058.825
2152.7054	35009.525
2155.66425	35026.825
2158.6212	35050.025
2161.57625	35074.225
2164.52941	35040.325
2167.48067	35030.225
2170.43004	35093.425
2173.37752	35094.625
2176.32311	35060.325
2179.26681	35111.225
2182.20863	35074.625
2185.14856	35160.725
2188.08661	35106.825
2191.02278	35136.025
2193.95707	35129.525
2196.88948	35166.525
2199.82001	35209.625
2202.74867	35103.125
2205.67545	35178.025
2208.60037	35148.625
2211.52341	35150.325
2214.44458	35090.725
2217.36388	34983.425
2220.28132	34981.325
2223.1969	34922.425
2226.11061	34873.925
2229.02246	34829.025
2231.93245	34832.425
2234.84058	34766.225
2237.74686	34690.925
2240.65128	34711.325
2243.55385	34635.625
2246.45456	34623.125
2249.35343	34595.225
2252.25044	34524.125
2255.14561	34518.725
2258.03893	34464.225
2260.93041	34375.725
2263.82004	34356.325
2266.70783	34328.525
2269.59378	34225.525
2272.4779	34187.325
2275.36017	34152.025
2278.24061	34106.425
2281.11922	34060.325
2283.996	34009.025
2286.87094	34021.425
2289.74405	33926.425
2292.61534	33963.225
2295.4848	33969.725
2298.35243	33985.625
2301.21824	33988.725
2304.08223	34057.225
2306.94439	34018.925
2309.80474	34022.925
2312.66327	34096.025
2315.51999	34042.325
2318.37489	34058.125
2321.22797	34040.425
2324.07925	34030.725
2326.92871	34024.225
2329.77637	33944.925
2332.62222	33914.125
2335.46626	33902.525
2338.3085	33846.825
2341.14893	33944.325
2343.98756	33965.425
2346.8244	33930.225
2349.65943	33875.825
2352.49267	33857.825
2355.32411	33863.425
2358.15376	33798.525
2360.98161	33775.225
2363.80768	33759.525
2366.63195	33662.925
2369.45444	33677.025
2372.27514	33613.325
2375.09405	33640.525
2377.91118	33571.125
2380.72652	33466.025
2383.54009	33501.925
2386.35187	33437.325
2389.16188	33371.925
2391.97011	33388.125
2394.77657	33309.425
2397.58125	33267.925
2400.38416	33258.625
2403.18529	33209.725
2405.98466	33174.525
2408.78226	33123.125
2411.57809	33097.925
2414.37216	33048.525
2417.16446	33022.925
2419.955	33018.925
2422.74378	33014.325
2425.5308	32973.625
2428.31606	32946.825
2431.09956	32963.425
2433.88131	32897.625
2436.6613	32914.225
2439.43954	32908.825
2442.21603	32929.925
2444.99077	32943.625
2447.76377	32916.225
2450.53501	32876.525
2453.30451	32888.225
2456.07226	32888.525
2458.83827	32849.225
2461.60254	32843.225
2464.36507	32856.225
2467.12586	32822.325
2469.88492	32849.925
2472.64224	32827.025
2475.39782	32785.825
2478.15167	32840.825
2480.90379	32841.425
2483.65417	32854.825
2486.40283	32848.925
2489.14976	32850.125
2491.89497	32878.125
2494.63845	32867.325
2497.3802	32868.725
2500.12024	32837.125
2502.85855	32838.825
2505.59514	32867.525
2508.33002	32777.425
2511.06318	32814.425
2513.79462	32747.025
2516.52435	32738.025
2519.25237	32805.025
2521.97867	32809.025
2524.70327	32775.025
2527.42616	32733.225
2530.14734	32689.625
2532.86681	32697.325
2535.58458	32715.425
2538.30065	32610.325
2541.01501	32664.625
2543.72768	32557.725
2546.43864	32562.825
2549.14791	32518.225
2551.85548	32518.925
2554.56136	32464.325
2557.26554	32482.525
2559.96803	32456.225
2562.66883	32436.725
2565.36794	32431.325
2568.06536	32418.425
2570.7611	32422.725
2573.45514	32398.425
2576.14751	32355.125
2578.83819	32332.525
2581.52719	32365.125
2584.21451	32287.225
2586.90015	32307.625
2589.58411	32250.725
2592.2664	32210.225
2594.94701	32188.925
2597.62594	32181.325
2600.30321	32134.925
2602.9788	32193.525
2605.65273	32119.925
2608.32498	32130.625
2610.99557	32105.525
2613.66449	32085.425
2616.33175	32056.325
2618.99734	32091.625
2621.66128	32057.125
2624.32355	32023.725
2626.98416	32009.025
2629.64311	31976.125
2632.30041	31974.225
2634.95605	32002.125
2637.61004	31919.525
2640.26238	31846.225
2642.91306	31872.425
2645.56209	31842.925
2648.20948	31838.925
2650.85521	31834.125
2653.4993	31868.725
2656.14175	31802.025
2658.78255	31853.925
2661.42171	31836.425
2664.05923	31949.525
2666.6951	31949.825
2669.32934	31912.725
2671.96194	31901.225
2674.59291	31909.225
2677.22224	31952.825
2679.84993	31925.025
2682.476	31932.825
2685.10043	31950.925
2687.72324	31918.125
2690.34441	31901.625
2692.96396	31900.925
2695.58188	31911.225
2698.19818	31840.625
2700.81285	31879.625
2703.4259	31891.325
2706.03733	31906.925
2708.64714	31949.225
2711.25533	32002.025
2713.86191	31956.525
2716.46687	32001.425
2719.07021	31971.325
2721.67194	32029.425
2724.27206	31942.125
2726.87057	32033.725
2729.46747	32048.425
2732.06276	32079.225
2734.65644	32063.425
2737.24852	32069.125
2739.83899	32032.125
2742.42786	32045.525
2745.01513	32034.325
2747.60079	32017.725
2750.18486	32006.825
2752.76733	32003.825
2755.3482	31976.525
2757.92747	31997.725
2760.50515	31936.825
2763.08123	31964.525
2765.65573	31916.425
2768.22863	31935.625
2770.79994	31931.925
2773.36967	31930.825
2775.9378	31891.425
2778.50435	31877.325
2781.06932	31854.925
2783.6327	31858.425
2786.1945	31811.525
2788.75471	31811.225
2791.31335	31734.825
2793.87041	31689.225
2796.42589	31615.725
2798.97979	31640.825
2801.53212	31537.325
2804.08288	31530.625
2806.63206	31465.325
2809.17967	31413.225
2811.72571	31368.825
2814.27018	31322.325
2816.81308	31283.025
2819.35442	31247.025
2821.89419	31193.725
2824.43239	31211.225
2826.96904	31168.025
2829.50412	31149.225
2832.03763	31093.925
2834.56959	31105.225
2837.1	31033.925
2839.62884	31075.825
2842.15613	30963.025
2844.68186	31039.925
2847.20604	31046.325
2849.72867	30990.425
2852.24974	30996.625
2854.76927	30985.325
2857.28724	30951.025
2859.80367	30923.825
2862.31855	30914.225
2864.83189	30888.625
2867.34368	30927.425
2869.85393	30906.625
2872.36264	30880.625
2874.8698	30879.625
2877.37543	30918.225
2879.87952	30935.125
2882.38207	30976.925
2884.88308	30967.225
2887.38256	30980.125
2889.88051	31029.325
2892.37692	31045.925
2894.8718	31030.525
2897.36515	31082.425
2899.85698	31080.025
2902.34727	31173.525
2904.83604	31118.325
2907.32328	31195.925
2909.809	31157.825
2912.29319	31194.225
2914.77587	31132.325
2917.25702	31206.525
2919.73665	31167.825
2922.21476	31124.025
2924.69136	31086.525
2927.16644	31081.125
2929.64	31067.625
2932.11205	31056.925
2934.58258	30951.925
2937.05161	31020.325
2939.51912	31012.225
2941.98513	31047.825
2944.44962	30971.825
2946.91261	30841.725
2949.37409	30916.225
2951.83407	30875.325
2954.29254	30869.925
2956.74951	30844.525
2959.20498	30861.225
2961.65895	30790.725
2964.11142	30766.025
2966.56239	30720.625
2969.01186	30747.825
2971.45984	30626.225
2973.90632	30622.525
2976.35131	30607.725
2978.7948	30559.925
2981.23681	30466.825
2983.67732	30448.725
2986.11635	30382.825
2988.55388	30342.125
2990.98993	30284.025
2993.4245	30287.325
2995.85758	30234.925
2998.28917	30128.125
3000.71928	30121.925
3003.14791	30087.225
3005.57506	30090.125
3008.00073	30045.625
3010.42493	29948.425
3012.84764	29926.325
3015.26888	29889.525
3017.68865	29874.725
3020.10694	29868.325
3022.52376	29783.025
3024.9391	29732.025
3027.35298	29718.125
3029.76539	29678.525
3032.17632	29689.425
3034.5858	29608.925
3036.9938	29571.525
3039.40034	29540.325
3041.80542	29584.125
3044.20903	29502.725
3046.61118	29483.325
3049.01187	29471.825
3051.4111	29422.925
3053.80888	29309.725
3056.20519	29299.825
3058.60005	29239.325
3060.99345	29248.625
3063.3854	29215.025
3065.7759	29132.125
3068.16494	29096.625
3070.55254	28974.825
3072.93868	28972.625
3075.32338	28926.625
3077.70662	28889.625
3080.08842	28827.425
3082.46878	28870.725
3084.84769	28779.725
3087.22515	28766.625
3089.60118	28759.725
3091.97576	28785.025
3094.3489	28768.525
3096.72061	28789.825
3099.09087	28787.825
3101.4597	28745.525
3103.82709	28727.825
3106.19305	28654.225
3108.55757	28670.025
3110.92066	28571.925
3113.28232	28563.425
3115.64255	28507.725
3118.00134	28440.725
3120.35871	28415.725
3122.71466	28334.625
3125.06917	28291.325
3127.42226	28252.625
3129.77393	28264.825
3132.12417	28207.625
3134.47299	28260.725
3136.82039	28232.825
3139.16636	28266.825
3141.51092	28264.825
3143.85406	28258.925
3146.19579	28255.725
3148.53609	28271.425
3150.87499	28268.525
3153.21246	28254.525
3155.54853	28321.025
3157.88318	28231.225
3160.21642	28245.225
3162.54826	28242.125
3164.87868	28233.025
3167.2077	28193.925
3169.5353	28188.925
3171.86151	28151.825
3174.18631	28132.725
3176.5097	28097.025
3178.83169	28044.525
3181.15228	28117.625
3183.47147	28049.925
3185.78926	28028.925
3188.10565	27996.525
3190.42065	28010.825
3192.73424	27981.525
3195.04645	27983.425
3197.35725	27994.425
3199.66667	27983.025
3201.97469	28063.025
3204.28132	28035.925
3206.58656	28062.125
3208.8904	28033.425
3211.19287	28047.825
3213.49394	28024.625
3215.79363	28045.325
3218.09193	28042.625
3220.38884	28027.125
3222.68438	27972.725
3224.97853	27933.925
3227.2713	27918.325
3229.56269	27877.325
3231.8527	27866.825
3234.14133	27854.725
3236.42858	27775.325
3238.71446	27752.625
3240.99896	27722.425
3243.28209	27727.125
3245.56384	27698.225
3247.84423	27797.125
3250.12324	27761.025
3252.40088	27758.525
3254.67715	27742.625
3256.95205	27650.325
3259.22558	27637.625
3261.49775	27561.325
3263.76855	27568.425
3266.03799	27468.625
3268.30606	27456.525
3270.57277	27412.325
3272.83812	27443.325
3275.10211	27353.125
3277.36474	27346.225
3279.62601	27362.325
3281.88593	27332.225
3284.14448	27359.425
3286.40168	27343.525
3288.65753	27304.725
3290.91202	27271.925
3293.16516	27170.625
3295.41695	27097.825
3297.66738	26947.025
3299.91647	26808.525
3302.16421	26686.725
3304.4106	26616.625
3306.65564	26471.325
3308.89933	26340.225
3311.14169	26164.425
3313.38269	26015.425
3315.62236	25869.125
3317.86068	25695.825
3320.09766	25405.125
3322.3333	25192.925
3324.5676	25207.925
3326.80056	24747.125
3329.03219	24700.025
3331.26248	5.325
3333.49143	0.425
3335.71905	-1.275
