Data from AgNPs_FTO_APTES_UA_20uM_R6G_10uM_NaF_0.1M_Addition_RamanShift__0__13-55-27-347.txt Node

Date: Fri Dec 17 13:55:27 GMT 2021
User: TCL
Spectrometer: QEP01345
Trigger mode: 4
Integration Time (sec): 7.000000E0
Scans to average: 10
Electric dark correction enabled: true
Nonlinearity correction enabled: false
Boxcar width: 0
XAxis mode: Raman Shifts
Number of Pixels in Spectrum: 1044
>>>>>Begin Spectral Data<<<<<
46.04893	-1.075
50.45542	-0.775
54.85868	-1.275
59.25871	-1.075
63.6555	91.725
68.04907	95.325
72.43941	99.725
76.82654	106.825
81.21044	104.025
85.59113	108.725
89.96862	112.425
94.34289	117.425
98.71396	123.725
103.08183	123.825
107.4465	128.025
111.80798	131.025
116.16626	134.625
120.52136	137.825
124.87327	149.025
129.222	158.125
133.56755	163.925
137.90993	180.225
142.24913	197.425
146.58517	218.325
150.91804	260.825
155.24774	310.425
159.57429	384.925
163.89768	490.625
168.21792	647.025
172.53501	886.025
176.84895	1223.825
181.15975	1738.725
185.46741	2436.725
189.77193	3379.525
194.07331	4518.425
198.37157	5857.425
202.6667	7263.425
206.9587	8677.025
211.24758	10025.325
215.53334	11388.725
219.81599	12833.925
224.09553	14398.025
228.37195	16154.625
232.64527	18056.925
236.91549	20072.025
241.18261	22124.025
245.44663	24024.325
249.70755	25741.625
253.96539	27253.425
258.22014	28525.825
262.4718	29558.025
266.72039	30264.625
270.96589	30569.225
275.20832	30558.725
279.44768	30276.325
283.68397	29840.625
287.91719	29432.225
292.14735	29186.325
296.37445	29028.625
300.59849	29117.425
304.81948	29306.425
309.03742	29457.525
313.25231	29399.625
317.46415	29024.025
321.67296	28476.725
325.87872	28021.125
330.08145	27785.825
334.28114	27910.825
338.47781	28190.725
342.67145	28599.325
346.86207	29107.825
351.04966	29746.525
355.23424	30345.125
359.4158	30981.525
363.59435	31391.925
367.76989	31776.425
371.94243	31995.125
376.11196	32084.225
380.27849	32166.525
384.44203	32310.625
388.60257	32518.425
392.76012	32712.125
396.91468	33103.625
401.06626	33490.825
405.21485	33854.325
409.36047	33820.625
413.50311	33384.225
417.64277	33042.925
421.77947	32908.125
425.9132	32895.925
430.04396	33032.425
434.17176	33110.625
438.2966	33317.625
442.41849	33646.725
446.53742	34168.025
450.6534	34830.525
454.76644	35237.525
458.87653	35443.225
462.98368	35405.125
467.08789	35219.325
471.18916	34888.425
475.2875	34435.025
479.38291	34084.725
483.4754	33793.425
487.56496	33553.725
491.6516	33452.125
495.73531	33424.525
499.81612	33502.525
503.89401	33744.925
507.96899	33855.425
512.04106	33942.925
516.11023	33981.225
520.1765	33951.625
524.23987	33899.625
528.30034	33796.425
532.35792	33609.025
536.41261	33400.125
540.46441	33104.225
544.51333	32969.025
548.55936	33103.325
552.60252	33377.425
556.64279	33755.425
560.6802	34023.125
564.71473	34156.725
568.7464	34372.025
572.7752	34647.825
576.80114	34834.025
580.82422	35315.225
584.84444	36038.625
588.86181	36970.525
592.87633	37480.825
596.888	37478.025
600.89682	37202.625
604.9028	37962.325
608.90594	41029.925
612.90624	44422.325
616.90371	42929.225
620.89834	37448.425
624.89015	34891.825
628.87913	34427.525
632.86528	34538.525
636.84862	34691.925
640.82913	34447.425
644.80683	33858.525
648.78172	33468.725
652.75379	33503.025
656.72306	33897.725
660.68952	34453.425
664.65319	34331.525
668.61405	33957.025
672.57211	33933.225
676.52738	34041.125
680.47986	33973.125
684.42955	33825.125
688.37646	33725.125
692.32058	33904.625
696.26192	34260.125
700.20048	34645.925
704.13626	34787.625
708.06928	34599.325
711.99952	34459.825
715.927	34404.025
719.85171	34492.425
723.77365	34415.225
727.69284	34141.025
731.60928	33824.325
735.52295	33665.925
739.43388	33651.725
743.34206	33765.825
747.24749	33827.525
751.15017	33990.125
755.05012	34205.725
758.94733	34764.825
762.8418	35852.125
766.73354	37636.425
770.62254	39457.625
774.50882	40287.725
778.39237	39553.125
782.27321	37833.425
786.15132	36145.025
790.02671	34974.025
793.89938	34405.325
797.76935	34172.725
801.6366	34010.925
805.50115	33949.925
809.36299	33857.225
813.22213	33711.825
817.07857	33618.325
820.93231	33542.325
824.78336	33508.625
828.63172	33515.425
832.47738	33542.125
836.32036	33586.425
840.16066	33581.825
843.99827	33618.825
847.8332	33581.625
851.66546	33594.525
855.49504	33597.825
859.32195	33644.325
863.1462	33629.825
866.96777	33625.825
870.78668	33646.625
874.60293	33678.525
878.41652	33762.625
882.22745	33865.025
886.03573	33982.025
889.84136	33983.625
893.64433	33875.925
897.44466	33691.225
901.24235	33593.625
905.0374	33493.425
908.8298	33497.725
912.61957	33443.625
916.40671	33520.125
920.19121	33639.425
923.97308	33761.925
927.75233	33987.125
931.52895	34059.125
935.30295	33892.825
939.07433	33554.625
942.84309	33314.725
946.60924	33173.225
950.37278	33096.425
954.13371	33051.425
957.89203	32976.425
961.64774	32948.425
965.40086	32924.125
969.15137	32854.925
972.89929	32934.725
976.64461	33020.025
980.38733	33075.725
984.12747	33194.625
987.86502	33387.725
991.59999	33577.225
995.33237	33743.125
999.06217	34132.025
1002.78939	34558.825
1006.51404	34960.625
1010.23611	35370.425
1013.95561	35607.425
1017.67255	35583.625
1021.38692	35372.425
1025.09872	35159.125
1028.80796	34954.125
1032.51465	35120.325
1036.21877	35357.525
1039.92035	35465.925
1043.61937	35446.325
1047.31584	35254.325
1051.00976	35068.325
1054.70114	34967.225
1058.38998	35026.125
1062.07627	35261.025
1065.76003	35495.825
1069.44126	35800.525
1073.11995	36329.625
1076.79611	36849.425
1080.46974	37139.825
1084.14085	37253.625
1087.80943	37337.425
1091.47549	37443.525
1095.13903	37374.625
1098.80005	36961.025
1102.45857	36558.125
1106.11456	36122.325
1109.76805	35967.325
1113.41903	35923.425
1117.06751	35980.825
1120.71348	36175.625
1124.35696	36420.425
1127.99793	36830.725
1131.63641	36888.425
1135.2724	36579.325
1138.90589	36349.225
1142.5369	36147.125
1146.16542	36016.825
1149.79145	35946.225
1153.415	35871.125
1157.03607	35936.325
1160.65467	36171.025
1164.27079	36879.225
1167.88443	37769.525
1171.49561	38899.325
1175.10432	40472.525
1178.71056	42542.425
1182.31434	44556.225
1185.91565	45743.325
1189.51451	45876.025
1193.11091	45389.725
1196.70485	44371.825
1200.29634	43305.525
1203.88538	42320.425
1207.47197	41449.725
1211.05612	40675.025
1214.63782	40062.325
1218.21708	39450.425
1221.79391	38965.025
1225.36829	38679.625
1228.94024	38479.625
1232.50976	38350.325
1236.07685	38236.525
1239.6415	38169.925
1243.20374	38209.825
1246.76355	38423.325
1250.32093	38825.325
1253.8759	39301.625
1257.42845	39949.825
1260.97859	40669.425
1264.52631	41428.925
1268.07163	42309.025
1271.61453	43111.825
1275.15503	43783.125
1278.69312	44245.225
1282.22882	44565.025
1285.76211	44947.325
1289.29301	45495.125
1292.82151	46275.325
1296.34761	47165.825
1299.87133	48496.825
1303.39266	50169.225
1306.9116	52244.525
1310.42815	54308.625
1313.94233	55508.125
1317.45412	55162.225
1320.96354	53888.025
1324.47058	52588.525
1327.97525	51474.725
1331.47754	50735.225
1334.97747	50509.625
1338.47502	50569.225
1341.97022	50715.425
1345.46305	51000.325
1348.95352	51564.025
1352.44163	52494.825
1355.92738	53785.925
1359.41078	55798.325
1362.89183	57630.325
1366.37053	56831.525
1369.84688	52942.325
1373.32088	48461.225
1376.79254	45297.125
1380.26186	43728.225
1383.72883	43074.925
1387.19347	42665.525
1390.65578	41930.825
1394.11575	41321.425
1397.57339	41057.925
1401.0287	41085.425
1404.48168	41127.825
1407.93234	41349.925
1411.38068	41454.825
1414.82669	41253.725
1418.27039	40860.825
1421.71177	40363.625
1425.15083	39993.925
1428.58758	39829.125
1432.02203	40140.325
1435.45416	40696.425
1438.88399	41171.225
1442.31151	41362.225
1445.73673	41388.025
1449.15965	41301.425
1452.58027	41181.225
1455.9986	41024.125
1459.41463	41105.025
1462.82837	41623.225
1466.23982	42298.525
1469.64898	42860.425
1473.05586	43239.325
1476.46045	43478.225
1479.86276	43567.625
1483.26279	43639.025
1486.66054	43843.725
1490.05602	44282.725
1493.44922	44860.225
1496.84016	45651.525
1500.22882	46984.425
1503.61521	48828.725
1506.99934	50830.325
1510.38121	52423.025
1513.76081	52550.625
1517.13816	50891.225
1520.51324	48364.925
1523.88607	46014.225
1527.25665	44463.025
1530.62498	43771.725
1533.99105	43287.025
1537.35488	42900.625
1540.71647	42455.825
1544.07581	42119.725
1547.4329	41757.225
1550.78776	41530.425
1554.14038	41315.725
1557.49077	41180.325
1560.83892	41236.025
1564.18484	41445.425
1567.52853	41714.225
1570.86999	42155.325
1574.20922	42498.225
1577.54624	42683.525
1580.88103	42363.425
1584.2136	41989.525
1587.54395	42072.425
1590.87208	42955.825
1594.19801	44443.625
1597.52172	46142.125
1600.84321	46868.225
1604.16251	46137.025
1607.47959	44252.525
1610.79447	42156.125
1614.10715	39999.425
1617.41763	38164.525
1620.7259	36956.125
1624.03199	36332.625
1627.33587	36286.625
1630.63757	36740.025
1633.93707	37804.225
1637.23439	39592.625
1640.52951	42286.925
1643.82246	45510.425
1647.11321	48407.225
1650.40179	49247.225
1653.68819	47215.725
1656.97241	43212.625
1660.25446	39298.925
1663.53433	36491.525
1666.81203	34735.625
1670.08756	33705.525
1673.36092	32947.425
1676.63211	32517.625
1679.90115	32211.825
1683.16801	31950.225
1686.43272	31759.225
1689.69527	31664.225
1692.95567	31526.825
1696.2139	31478.825
1699.46999	31403.225
1702.72392	31357.025
1705.97571	31327.625
1709.22535	31335.925
1712.47284	31308.225
1715.71819	31335.525
1718.96139	31247.025
1722.20246	31208.725
1725.44139	31153.825
1728.67818	31030.625
1731.91284	30924.925
1735.14537	30783.125
1738.37576	30723.225
1741.60403	30675.325
1744.83017	30573.725
1748.05418	30520.725
1751.27607	30491.625
1754.49584	30475.725
1757.71349	30456.825
1760.92903	30448.525
1764.14244	30412.025
1767.35375	30440.425
1770.56294	30384.225
1773.77002	30379.325
1776.97499	30324.925
1780.17785	30260.725
1783.37861	30244.925
1786.57727	30240.825
1789.77382	30140.025
1792.96828	30134.625
1796.16064	30093.525
1799.3509	30040.825
1802.53907	30029.125
1805.72514	29983.825
1808.90913	29881.025
1812.09102	29889.425
1815.27083	29796.425
1818.44856	29784.325
1821.6242	29739.725
1824.79776	29666.125
1827.96924	29673.225
1831.13864	29667.525
1834.30597	29685.425
1837.47122	29677.425
1840.6344	29641.425
1843.7955	29615.825
1846.95454	29614.425
1850.11151	29573.125
1853.26642	29562.125
1856.41926	29561.725
1859.57004	29564.825
1862.71876	29522.425
1865.86542	29517.225
1869.01003	29444.425
1872.15258	29398.525
1875.29308	29418.925
1878.43152	29359.525
1881.56792	29369.625
1884.70227	29385.425
1887.83457	29340.825
1890.96482	29316.625
1894.09304	29248.825
1897.21921	29244.725
1900.34335	29252.225
1903.46544	29217.225
1906.58551	29171.425
1909.70353	29140.225
1912.81953	29098.825
1915.93349	29043.425
1919.04543	29031.925
1922.15534	28948.525
1925.26322	28901.425
1928.36908	28937.225
1931.47292	28831.725
1934.57473	28811.025
1937.67453	28722.325
1940.77232	28661.425
1943.86808	28616.325
1946.96184	28564.225
1950.05358	28477.525
1953.14331	28425.725
1956.23103	28346.225
1959.31675	28302.925
1962.40046	28177.225
1965.48217	28142.425
1968.56188	28070.225
1971.63959	27947.425
1974.7153	27923.125
1977.78901	27824.325
1980.86073	27749.625
1983.93046	27642.225
1986.99819	27609.125
1990.06394	27538.825
1993.1277	27452.725
1996.18947	27366.025
1999.24925	27325.125
2002.30706	27256.725
2005.36288	27149.125
2008.41672	27139.525
2011.46859	27090.525
2014.51848	27013.425
2017.56639	26953.825
2020.61233	26844.825
2023.6563	26814.825
2026.6983	26752.325
2029.73833	26710.825
2032.7764	26652.725
2035.8125	26577.525
2038.84664	26545.225
2041.87881	26527.925
2044.90903	26481.525
2047.93729	26425.325
2050.96359	26367.725
2053.98794	26351.425
2057.01034	26349.525
2060.03078	26328.925
2063.04927	26307.325
2066.06582	26334.625
2069.08042	26314.325
2072.09307	26276.125
2075.10378	26261.125
2078.11255	26249.325
2081.11938	26260.025
2084.12426	26235.625
2087.12722	26201.825
2090.12824	26241.125
2093.12732	26258.725
2096.12447	26270.425
2099.11969	26261.125
2102.11299	26250.325
2105.10435	26255.325
2108.09379	26302.325
2111.08131	26335.025
2114.0669	26356.425
2117.05057	26373.925
2120.03233	26334.825
2123.01216	26404.325
2125.99008	26403.325
2128.96609	26414.125
2131.94018	26442.625
2134.91236	26542.325
2137.88263	26589.625
2140.851	26587.225
2143.81746	26599.325
2146.78201	26667.425
2149.74466	26634.925
2152.7054	26591.825
2155.66425	26669.525
2158.6212	26638.925
2161.57625	26601.425
2164.52941	26644.025
2167.48067	26610.425
2170.43004	26618.125
2173.37752	26609.825
2176.32311	26649.725
2179.26681	26599.625
2182.20863	26591.925
2185.14856	26603.125
2188.08661	26576.625
2191.02278	26603.225
2193.95707	26589.425
2196.88948	26622.125
2199.82001	26614.525
2202.74867	26546.525
2205.67545	26521.825
2208.60037	26483.525
2211.52341	26514.725
2214.44458	26456.425
2217.36388	26413.225
2220.28132	26375.825
2223.1969	26324.925
2226.11061	26289.325
2229.02246	26258.925
2231.93245	26183.225
2234.84058	26132.225
2237.74686	26112.025
2240.65128	26127.425
2243.55385	26087.725
2246.45456	26062.425
2249.35343	26014.125
2252.25044	25988.725
2255.14561	25914.625
2258.03893	25934.225
2260.93041	25906.925
2263.82004	25818.825
2266.70783	25786.425
2269.59378	25739.325
2272.4779	25696.425
2275.36017	25625.925
2278.24061	25612.925
2281.11922	25557.025
2283.996	25504.225
2286.87094	25478.925
2289.74405	25451.525
2292.61534	25406.825
2295.4848	25378.825
2298.35243	25428.925
2301.21824	25396.225
2304.08223	25384.025
2306.94439	25382.825
2309.80474	25379.525
2312.66327	25349.525
2315.51999	25353.925
2318.37489	25331.525
2321.22797	25316.925
2324.07925	25255.125
2326.92871	25217.325
2329.77637	25199.225
2332.62222	25144.125
2335.46626	25145.425
2338.3085	25099.225
2341.14893	25060.025
2343.98756	25050.125
2346.8244	25006.725
2349.65943	25026.625
2352.49267	25001.025
2355.32411	25032.125
2358.15376	24999.325
2360.98161	24993.525
2363.80768	24956.025
2366.63195	24957.725
2369.45444	24903.625
2372.27514	24915.425
2375.09405	24905.125
2377.91118	24822.925
2380.72652	24767.825
2383.54009	24755.125
2386.35187	24707.025
2389.16188	24688.125
2391.97011	24654.725
2394.77657	24619.525
2397.58125	24578.125
2400.38416	24537.025
2403.18529	24481.225
2405.98466	24457.525
2408.78226	24396.525
2411.57809	24382.725
2414.37216	24383.925
2417.16446	24380.125
2419.955	24341.025
2422.74378	24322.825
2425.5308	24309.825
2428.31606	24270.425
2431.09956	24249.225
2433.88131	24248.525
2436.6613	24226.325
2439.43954	24265.725
2442.21603	24194.125
2444.99077	24193.325
2447.76377	24183.425
2450.53501	24135.925
2453.30451	24149.825
2456.07226	24114.625
2458.83827	24094.525
2461.60254	24093.425
2464.36507	24092.325
2467.12586	24089.325
2469.88492	24076.825
2472.64224	24086.725
2475.39782	24048.025
2478.15167	24028.525
2480.90379	23987.925
2483.65417	24015.425
2486.40283	23985.225
2489.14976	24003.625
2491.89497	23948.125
2494.63845	23959.625
2497.3802	23944.725
2500.12024	23919.225
2502.85855	23883.925
2505.59514	23898.825
2508.33002	23874.325
2511.06318	23871.725
2513.79462	23854.525
2516.52435	23815.225
2519.25237	23781.625
2521.97867	23764.925
2524.70327	23733.525
2527.42616	23696.925
2530.14734	23693.525
2532.86681	23667.925
2535.58458	23702.825
2538.30065	23599.025
2541.01501	23616.025
2543.72768	23556.225
2546.43864	23536.425
2549.14791	23527.925
2551.85548	23470.225
2554.56136	23431.625
2557.26554	23421.925
2559.96803	23400.125
2562.66883	23383.625
2565.36794	23316.625
2568.06536	23362.725
2570.7611	23304.525
2573.45514	23269.725
2576.14751	23254.425
2578.83819	23197.625
2581.52719	23164.325
2584.21451	23140.125
2586.90015	23115.825
2589.58411	23072.325
2592.2664	23077.025
2594.94701	22997.325
2597.62594	22967.425
2600.30321	22925.425
2602.9788	22910.225
2605.65273	22895.325
2608.32498	22895.525
2610.99557	22832.925
2613.66449	22844.525
2616.33175	22758.625
2618.99734	22794.325
2621.66128	22761.225
2624.32355	22746.725
2626.98416	22722.925
2629.64311	22656.725
2632.30041	22658.425
2634.95605	22634.325
2637.61004	22571.625
2640.26238	22575.025
2642.91306	22551.525
2645.56209	22569.725
2648.20948	22559.225
2650.85521	22546.725
2653.4993	22519.525
2656.14175	22487.525
2658.78255	22499.625
2661.42171	22471.525
2664.05923	22554.525
2666.6951	22544.625
2669.32934	22545.325
2671.96194	22541.925
2674.59291	22542.425
2677.22224	22489.225
2679.84993	22508.225
2682.476	22533.725
2685.10043	22526.925
2687.72324	22466.725
2690.34441	22470.225
2692.96396	22489.925
2695.58188	22501.125
2698.19818	22482.825
2700.81285	22476.625
2703.4259	22473.925
2706.03733	22523.025
2708.64714	22554.225
2711.25533	22544.325
2713.86191	22531.925
2716.46687	22581.825
2719.07021	22552.125
2721.67194	22574.525
2724.27206	22499.225
2726.87057	22541.525
2729.46747	22519.625
2732.06276	22531.825
2734.65644	22527.025
2737.24852	22508.725
2739.83899	22465.725
2742.42786	22492.725
2745.01513	22429.825
2747.60079	22408.225
2750.18486	22382.525
2752.76733	22407.525
2755.3482	22369.225
2757.92747	22368.125
2760.50515	22317.225
2763.08123	22280.325
2765.65573	22271.125
2768.22863	22239.125
2770.79994	22240.225
2773.36967	22230.725
2775.9378	22179.425
2778.50435	22169.125
2781.06932	22140.125
2783.6327	22132.725
2786.1945	22042.125
2788.75471	22029.325
2791.31335	21958.525
2793.87041	21977.125
2796.42589	21854.725
2798.97979	21858.925
2801.53212	21834.225
2804.08288	21798.425
2806.63206	21693.125
2809.17967	21681.125
2811.72571	21704.525
2814.27018	21692.525
2816.81308	21627.825
2819.35442	21612.625
2821.89419	21568.225
2824.43239	21513.425
2826.96904	21512.625
2829.50412	21490.025
2832.03763	21470.325
2834.56959	21429.725
2837.1	21362.125
2839.62884	21382.025
2842.15613	21370.125
2844.68186	21390.725
2847.20604	21378.325
2849.72867	21361.925
2852.24974	21326.225
2854.76927	21305.025
2857.28724	21275.625
2859.80367	21218.425
2862.31855	21198.725
2864.83189	21179.625
2867.34368	21157.425
2869.85393	21223.625
2872.36264	21197.125
2874.8698	21181.325
2877.37543	21173.325
2879.87952	21173.825
2882.38207	21192.725
2884.88308	21214.225
2887.38256	21181.525
2889.88051	21201.825
2892.37692	21153.625
2894.8718	21157.425
2897.36515	21152.825
2899.85698	21190.425
2902.34727	21213.425
2904.83604	21186.425
2907.32328	21199.825
2909.809	21194.625
2912.29319	21217.425
2914.77587	21189.925
2917.25702	21201.125
2919.73665	21187.225
2922.21476	21185.125
2924.69136	21149.725
2927.16644	21195.425
2929.64	21106.025
2932.11205	21109.425
2934.58258	21018.525
2937.05161	21047.125
2939.51912	21070.725
2941.98513	21039.525
2944.44962	20994.525
2946.91261	20933.425
2949.37409	21010.425
2951.83407	21020.225
2954.29254	21015.525
2956.74951	20993.625
2959.20498	20955.925
2961.65895	20910.625
2964.11142	20901.325
2966.56239	20861.825
2969.01186	20881.625
2971.45984	20820.725
2973.90632	20793.825
2976.35131	20811.725
2978.7948	20743.125
2981.23681	20667.525
2983.67732	20666.525
2986.11635	20586.625
2988.55388	20580.225
2990.98993	20552.525
2993.4245	20516.925
2995.85758	20492.025
2998.28917	20456.325
3000.71928	20376.025
3003.14791	20424.925
3005.57506	20363.125
3008.00073	20348.225
3010.42493	20301.225
3012.84764	20266.325
3015.26888	20257.725
3017.68865	20223.725
3020.10694	20254.425
3022.52376	20181.725
3024.9391	20146.325
3027.35298	20126.125
3029.76539	20086.625
3032.17632	20063.425
3034.5858	20022.925
3036.9938	20004.325
3039.40034	19981.825
3041.80542	19955.425
3044.20903	19898.325
3046.61118	19906.725
3049.01187	19876.225
3051.4111	19848.525
3053.80888	19781.025
3056.20519	19771.525
3058.60005	19717.325
3060.99345	19753.525
3063.3854	19706.925
3065.7759	19684.225
3068.16494	19559.825
3070.55254	19542.625
3072.93868	19533.325
3075.32338	19479.225
3077.70662	19481.325
3080.08842	19459.125
3082.46878	19440.125
3084.84769	19434.625
3087.22515	19414.725
3089.60118	19355.825
3091.97576	19341.325
3094.3489	19348.925
3096.72061	19334.825
3099.09087	19338.925
3101.4597	19308.825
3103.82709	19312.625
3106.19305	19301.925
3108.55757	19287.325
3110.92066	19186.325
3113.28232	19178.025
3115.64255	19160.325
3118.00134	19110.825
3120.35871	19085.425
3122.71466	19066.225
3125.06917	18995.925
3127.42226	18955.325
3129.77393	18941.325
3132.12417	18925.225
3134.47299	18953.825
3136.82039	18931.725
3139.16636	18941.625
3141.51092	18927.825
3143.85406	18903.525
3146.19579	18950.325
3148.53609	18942.625
3150.87499	18980.425
3153.21246	18937.425
3155.54853	18962.525
3157.88318	18950.625
3160.21642	18951.925
3162.54826	18937.525
3164.87868	18895.925
3167.2077	18876.625
3169.5353	18871.825
3171.86151	18848.925
3174.18631	18872.325
3176.5097	18813.325
3178.83169	18784.625
3181.15228	18776.025
3183.47147	18764.325
3185.78926	18737.825
3188.10565	18713.625
3190.42065	18716.525
3192.73424	18745.825
3195.04645	18693.525
3197.35725	18642.425
3199.66667	18704.825
3201.97469	18701.525
3204.28132	18698.125
3206.58656	18681.425
3208.8904	18720.725
3211.19287	18665.325
3213.49394	18686.125
3215.79363	18693.525
3218.09193	18673.225
3220.38884	18651.025
3222.68438	18641.025
3224.97853	18601.725
3227.2713	18601.125
3229.56269	18586.525
3231.8527	18580.925
3234.14133	18539.825
3236.42858	18472.825
3238.71446	18448.025
3240.99896	18458.225
3243.28209	18447.825
3245.56384	18434.725
3247.84423	18425.125
3250.12324	18422.025
3252.40088	18424.825
3254.67715	18374.125
3256.95205	18381.125
3259.22558	18344.325
3261.49775	18332.725
3263.76855	18309.825
3266.03799	18262.425
3268.30606	18270.625
3270.57277	18243.225
3272.83812	18182.625
3275.10211	18163.625
3277.36474	18139.625
3279.62601	18154.125
3281.88593	18128.125
3284.14448	18099.625
3286.40168	18092.025
3288.65753	18075.725
3290.91202	17991.825
3293.16516	17947.825
3295.41695	17921.925
3297.66738	17845.525
3299.91647	17737.325
3302.16421	17620.825
3304.4106	17557.925
3306.65564	17505.025
3308.89933	17411.725
3311.14169	17295.225
3313.38269	17176.825
3315.62236	17080.225
3317.86068	16935.425
3320.09766	16735.825
3322.3333	16663.925
3324.5676	16635.725
3326.80056	16401.525
3329.03219	16285.825
3331.26248	4.325
3333.49143	1.325
3335.71905	-0.375
