Data from AgNPs_FTO_APTES_UA_5uM_R6G_10uM_NaF_0.1M_Addition_RamanShift__22__12-51-17-262.txt Node

Date: Fri Dec 17 12:51:17 GMT 2021
User: TCL
Spectrometer: QEP01345
Trigger mode: 4
Integration Time (sec): 7.000000E0
Scans to average: 10
Electric dark correction enabled: true
Nonlinearity correction enabled: false
Boxcar width: 0
XAxis mode: Raman Shifts
Number of Pixels in Spectrum: 1044
>>>>>Begin Spectral Data<<<<<
46.04893	-1.075
50.45542	-1.475
54.85868	-1.975
59.25871	1.425
63.6555	120.125
68.04907	121.925
72.43941	129.725
76.82654	141.225
81.21044	134.525
85.59113	143.325
89.96862	151.725
94.34289	154.425
98.71396	161.425
103.08183	163.925
107.4465	166.925
111.80798	171.725
116.16626	178.625
120.52136	184.525
124.87327	191.625
129.222	200.825
133.56755	213.725
137.90993	227.225
142.24913	245.825
146.58517	273.025
150.91804	317.125
155.24774	375.425
159.57429	469.525
163.89768	592.725
168.21792	785.125
172.53501	1060.425
176.84895	1470.025
181.15975	2063.425
185.46741	2870.725
189.77193	3960.325
194.07331	5305.525
198.37157	6827.125
202.6667	8452.025
206.9587	10022.125
211.24758	11578.925
215.53334	13136.825
219.81599	14779.325
224.09553	16673.525
228.37195	18741.725
232.64527	21048.825
236.91549	23430.825
241.18261	25850.925
245.44663	28068.125
249.70755	29959.225
253.96539	31662.225
258.22014	33081.125
262.4718	34293.925
266.72039	35200.525
270.96589	35714.525
275.20832	35849.225
279.44768	35661.825
283.68397	35280.625
287.91719	34938.025
292.14735	34762.225
296.37445	34786.125
300.59849	34979.325
304.81948	35321.725
309.03742	35461.625
313.25231	35236.325
317.46415	34378.125
321.67296	33225.425
325.87872	32200.025
330.08145	31711.225
334.28114	31716.125
338.47781	32043.025
342.67145	32573.925
346.86207	33220.325
351.04966	34185.825
355.23424	35186.725
359.4158	36076.825
363.59435	36667.825
367.76989	36964.525
371.94243	37212.325
376.11196	37349.625
380.27849	37463.825
384.44203	37583.625
388.60257	37658.325
392.76012	37891.525
396.91468	38262.525
401.06626	38954.725
405.21485	39497.625
409.36047	39341.925
413.50311	38543.325
417.64277	37902.925
421.77947	37620.225
425.9132	37639.725
430.04396	37845.925
434.17176	38053.625
438.2966	38398.025
442.41849	39023.125
446.53742	39866.025
450.6534	40912.625
454.76644	41785.825
458.87653	42167.625
462.98368	42094.125
467.08789	41584.525
471.18916	40856.125
475.2875	39997.625
479.38291	39392.925
483.4754	38858.425
487.56496	38381.425
491.6516	37967.125
495.73531	37727.625
499.81612	37670.925
503.89401	37907.725
507.96899	38094.525
512.04106	38215.825
516.11023	38259.025
520.1765	38238.925
524.23987	38123.525
528.30034	37710.825
532.35792	37299.925
536.41261	36799.725
540.46441	36348.525
544.51333	36249.925
548.55936	36642.325
552.60252	37161.125
556.64279	37839.625
560.6802	38185.225
564.71473	38381.225
568.7464	38961.325
572.7752	39648.625
576.80114	39941.425
580.82422	40190.225
584.84444	40421.025
588.86181	40657.125
592.87633	41028.625
596.888	41483.425
600.89682	42274.725
604.9028	44653.625
608.90594	50195.925
612.90624	56097.325
616.90371	53313.325
620.89834	43673.425
624.89015	39260.025
628.87913	38552.425
632.86528	38461.325
636.84862	38351.325
640.82913	37702.225
644.80683	36800.325
648.78172	36023.725
652.75379	35926.425
656.72306	36613.225
660.68952	37440.425
664.65319	37287.525
668.61405	36477.425
672.57211	36180.625
676.52738	36184.025
680.47986	36163.925
684.42955	36058.925
688.37646	36005.125
692.32058	36183.325
696.26192	36505.025
700.20048	36931.725
704.13626	37140.125
708.06928	36949.625
711.99952	36629.925
715.927	36479.425
719.85171	36502.725
723.77365	36380.525
727.69284	36031.925
731.60928	35725.325
735.52295	35658.325
739.43388	35784.325
743.34206	35955.925
747.24749	36116.625
751.15017	36449.325
755.05012	37015.225
758.94733	38041.325
762.8418	40164.525
766.73354	43616.425
770.62254	46983.225
774.50882	48221.125
778.39237	46160.125
782.27321	42276.425
786.15132	39123.825
790.02671	37255.325
793.89938	36395.925
797.76935	36070.825
801.6366	35900.225
805.50115	35780.725
809.36299	35588.725
813.22213	35359.025
817.07857	35217.425
820.93231	35082.425
824.78336	35084.825
828.63172	35150.025
832.47738	35195.725
836.32036	35273.525
840.16066	35399.325
843.99827	35476.025
847.8332	35426.225
851.66546	35276.225
855.49504	35198.725
859.32195	35140.125
863.1462	35049.725
866.96777	34865.825
870.78668	34774.225
874.60293	34785.525
878.41652	34840.925
882.22745	34976.225
886.03573	35041.425
889.84136	35009.525
893.64433	34864.725
897.44466	34693.725
901.24235	34606.025
905.0374	34517.625
908.8298	34466.725
912.61957	34528.425
916.40671	34814.925
920.19121	35236.825
923.97308	35666.025
927.75233	35926.125
931.52895	35890.325
935.30295	35515.725
939.07433	34894.425
942.84309	34395.025
946.60924	34164.825
950.37278	34047.425
954.13371	33876.225
957.89203	33605.525
961.64774	33504.225
965.40086	33399.225
969.15137	33273.925
972.89929	33225.525
976.64461	33231.025
980.38733	33323.725
984.12747	33482.625
987.86502	33861.525
991.59999	34330.025
995.33237	35070.925
999.06217	36241.225
1002.78939	37610.225
1006.51404	38567.825
1010.23611	39051.725
1013.95561	39338.425
1017.67255	39212.425
1021.38692	38764.925
1025.09872	38509.425
1028.80796	38956.125
1032.51465	40138.725
1036.21877	41286.625
1039.92035	41418.625
1043.61937	40828.025
1047.31584	39580.425
1051.00976	38197.325
1054.70114	37413.825
1058.38998	37146.125
1062.07627	37291.025
1065.76003	37428.025
1069.44126	37743.525
1073.11995	38138.725
1076.79611	38629.025
1080.46974	38969.025
1084.14085	39249.725
1087.80943	39637.125
1091.47549	39822.725
1095.13903	39419.525
1098.80005	38749.125
1102.45857	37994.625
1106.11456	37586.725
1109.76805	37558.625
1113.41903	37837.825
1117.06751	38249.525
1120.71348	38716.625
1124.35696	39190.125
1127.99793	39680.425
1131.63641	39911.825
1135.2724	39463.425
1138.90589	38897.125
1142.5369	38579.725
1146.16542	38333.125
1149.79145	38240.925
1153.415	38384.225
1157.03607	38669.425
1160.65467	39472.325
1164.27079	40775.325
1167.88443	42603.725
1171.49561	45158.125
1175.10432	48752.325
1178.71056	53286.225
1182.31434	57725.525
1185.91565	60171.725
1189.51451	60378.725
1193.11091	58311.325
1196.70485	55146.125
1200.29634	52207.825
1203.88538	49930.725
1207.47197	48101.925
1211.05612	46619.125
1214.63782	45716.325
1218.21708	45515.025
1221.79391	45740.025
1225.36829	45994.525
1228.94024	45959.525
1232.50976	45614.425
1236.07685	45440.625
1239.6415	45125.925
1243.20374	45031.525
1246.76355	45132.525
1250.32093	45775.925
1253.8759	46722.325
1257.42845	48014.225
1260.97859	49296.525
1264.52631	50534.225
1268.07163	51718.925
1271.61453	53211.925
1275.15503	54833.625
1278.69312	56344.125
1282.22882	57439.525
1285.76211	58349.825
1289.29301	59161.225
1292.82151	60165.125
1296.34761	61604.125
1299.87133	63989.325
1303.39266	67516.725
1306.9116	72195.525
1310.42815	77258.225
1313.94233	80781.825
1317.45412	81162.425
1320.96354	79401.725
1324.47058	76961.325
1327.97525	74594.325
1331.47754	72985.425
1334.97747	72462.525
1338.47502	72814.625
1341.97022	73392.525
1345.46305	73451.025
1348.95352	73031.825
1352.44163	73026.825
1355.92738	74682.125
1359.41078	78851.925
1362.89183	83050.825
1366.37053	81597.925
1369.84688	74063.225
1373.32088	65661.325
1376.79254	59939.625
1380.26186	57251.225
1383.72883	56203.025
1387.19347	55359.425
1390.65578	54229.425
1394.11575	53755.025
1397.57339	53945.925
1401.0287	54843.825
1404.48168	55938.025
1407.93234	57159.125
1411.38068	57916.125
1414.82669	57678.025
1418.27039	56419.925
1421.71177	54610.825
1425.15083	52971.025
1428.58758	51991.225
1432.02203	51814.325
1435.45416	52262.225
1438.88399	52894.025
1442.31151	53519.625
1445.73673	53960.625
1449.15965	54432.725
1452.58027	54692.925
1455.9986	54619.525
1459.41463	54654.925
1462.82837	55313.925
1466.23982	56559.825
1469.64898	57710.825
1473.05586	58574.125
1476.46045	58931.925
1479.86276	59064.125
1483.26279	59196.725
1486.66054	59435.125
1490.05602	60020.125
1493.44922	60785.325
1496.84016	61555.425
1500.22882	62747.925
1503.61521	64752.625
1506.99934	67424.025
1510.38121	70303.425
1513.76081	71605.725
1517.13816	70063.525
1520.51324	66260.225
1523.88607	62375.525
1527.25665	59596.425
1530.62498	57974.825
1533.99105	57044.625
1537.35488	56444.625
1540.71647	55955.925
1544.07581	55481.425
1547.4329	54998.225
1550.78776	54542.425
1554.14038	54166.525
1557.49077	54236.525
1560.83892	54279.925
1564.18484	54356.225
1567.52853	54314.025
1570.86999	54395.625
1574.20922	54762.625
1577.54624	55081.725
1580.88103	54797.525
1584.2136	54550.925
1587.54395	55280.825
1590.87208	57404.825
1594.19801	60701.825
1597.52172	64285.425
1600.84321	65682.525
1604.16251	63658.225
1607.47959	59480.825
1610.79447	55011.125
1614.10715	50818.725
1617.41763	47326.025
1620.7259	44965.425
1624.03199	43722.925
1627.33587	43867.625
1630.63757	45000.225
1633.93707	47464.125
1637.23439	50911.125
1640.52951	55194.125
1643.82246	59577.125
1647.11321	62794.125
1650.40179	63227.425
1653.68819	59875.425
1656.97241	53399.425
1660.25446	46667.725
1663.53433	41777.325
1666.81203	38665.825
1670.08756	36686.025
1673.36092	35425.825
1676.63211	34615.525
1679.90115	33988.225
1683.16801	33497.325
1686.43272	33198.225
1689.69527	32923.125
1692.95567	32785.025
1696.2139	32639.125
1699.46999	32536.525
1702.72392	32444.925
1705.97571	32445.925
1709.22535	32410.125
1712.47284	32311.425
1715.71819	32286.925
1718.96139	32247.025
1722.20246	32157.525
1725.44139	31997.625
1728.67818	31871.825
1731.91284	31737.625
1735.14537	31571.125
1738.37576	31435.325
1741.60403	31283.725
1744.83017	31174.825
1748.05418	31163.025
1751.27607	31098.425
1754.49584	31016.425
1757.71349	31007.825
1760.92903	31006.925
1764.14244	30954.725
1767.35375	31024.825
1770.56294	30950.625
1773.77002	30895.425
1776.97499	30859.925
1780.17785	30835.625
1783.37861	30804.025
1786.57727	30697.625
1789.77382	30667.225
1792.96828	30627.125
1796.16064	30600.225
1799.3509	30601.425
1802.53907	30594.125
1805.72514	30501.125
1808.90913	30387.525
1812.09102	30394.925
1815.27083	30354.925
1818.44856	30314.825
1821.6242	30247.425
1824.79776	30247.925
1827.96924	30226.425
1831.13864	30237.925
1834.30597	30268.825
1837.47122	30285.725
1840.6344	30278.525
1843.7955	30324.825
1846.95454	30303.525
1850.11151	30281.925
1853.26642	30312.225
1856.41926	30308.725
1859.57004	30362.925
1862.71876	30368.225
1865.86542	30335.125
1869.01003	30360.525
1872.15258	30356.325
1875.29308	30410.525
1878.43152	30430.625
1881.56792	30454.525
1884.70227	30481.225
1887.83457	30536.725
1890.96482	30504.325
1894.09304	30503.525
1897.21921	30526.025
1900.34335	30494.725
1903.46544	30504.225
1906.58551	30511.225
1909.70353	30494.725
1912.81953	30504.525
1915.93349	30396.325
1919.04543	30381.425
1922.15534	30271.925
1925.26322	30229.525
1928.36908	30131.125
1931.47292	30052.925
1934.57473	29907.725
1937.67453	29737.225
1940.77232	29628.325
1943.86808	29482.225
1946.96184	29416.325
1950.05358	29284.925
1953.14331	29161.825
1956.23103	29048.725
1959.31675	28977.025
1962.40046	28875.725
1965.48217	28826.525
1968.56188	28721.625
1971.63959	28648.025
1974.7153	28568.025
1977.78901	28449.325
1980.86073	28370.425
1983.93046	28259.725
1986.99819	28173.525
1990.06394	28123.325
1993.1277	28060.025
1996.18947	27890.725
1999.24925	27890.325
2002.30706	27799.825
2005.36288	27699.925
2008.41672	27655.625
2011.46859	27582.225
2014.51848	27556.125
2017.56639	27464.725
2020.61233	27382.225
2023.6563	27346.725
2026.6983	27279.725
2029.73833	27234.725
2032.7764	27229.325
2035.8125	27136.625
2038.84664	27101.625
2041.87881	27132.825
2044.90903	27068.825
2047.93729	26978.625
2050.96359	27003.025
2053.98794	26921.425
2057.01034	26898.225
2060.03078	26894.125
2063.04927	26857.725
2066.06582	26871.125
2069.08042	26847.525
2072.09307	26769.925
2075.10378	26791.425
2078.11255	26717.225
2081.11938	26705.225
2084.12426	26722.225
2087.12722	26718.225
2090.12824	26661.425
2093.12732	26679.625
2096.12447	26716.825
2099.11969	26663.325
2102.11299	26644.725
2105.10435	26704.925
2108.09379	26701.025
2111.08131	26697.125
2114.0669	26841.925
2117.05057	26771.725
2120.03233	26843.925
2123.01216	26856.625
2125.99008	26868.325
2128.96609	26852.225
2131.94018	26882.325
2134.91236	26886.325
2137.88263	26921.425
2140.851	26866.925
2143.81746	26942.625
2146.78201	26950.025
2149.74466	26963.825
2152.7054	26960.025
2155.66425	26964.225
2158.6212	26943.525
2161.57625	26981.425
2164.52941	26976.525
2167.48067	26981.125
2170.43004	26929.525
2173.37752	26964.625
2176.32311	26903.025
2179.26681	26934.325
2182.20863	26932.225
2185.14856	26920.525
2188.08661	26980.025
2191.02278	26959.425
2193.95707	26957.325
2196.88948	26973.625
2199.82001	26988.625
2202.74867	26946.625
2205.67545	26938.625
2208.60037	26923.825
2211.52341	26922.325
2214.44458	26906.725
2217.36388	26855.825
2220.28132	26866.425
2223.1969	26829.625
2226.11061	26766.825
2229.02246	26719.825
2231.93245	26677.025
2234.84058	26574.725
2237.74686	26580.925
2240.65128	26518.925
2243.55385	26476.725
2246.45456	26440.725
2249.35343	26416.925
2252.25044	26375.525
2255.14561	26333.725
2258.03893	26366.525
2260.93041	26297.925
2263.82004	26193.525
2266.70783	26143.525
2269.59378	26090.725
2272.4779	26048.725
2275.36017	25964.925
2278.24061	25945.125
2281.11922	25896.625
2283.996	25846.425
2286.87094	25854.325
2289.74405	25839.925
2292.61534	25792.225
2295.4848	25814.025
2298.35243	25805.625
2301.21824	25800.725
2304.08223	25869.625
2306.94439	25872.725
2309.80474	25841.325
2312.66327	25894.625
2315.51999	25893.125
2318.37489	25897.225
2321.22797	25942.225
2324.07925	25915.925
2326.92871	25819.625
2329.77637	25843.125
2332.62222	25800.125
2335.46626	25802.125
2338.3085	25779.025
2341.14893	25847.725
2343.98756	25866.525
2346.8244	25847.025
2349.65943	25885.825
2352.49267	25835.825
2355.32411	25833.825
2358.15376	25793.625
2360.98161	25762.925
2363.80768	25768.825
2366.63195	25722.325
2369.45444	25665.525
2372.27514	25610.425
2375.09405	25578.325
2377.91118	25512.925
2380.72652	25405.525
2383.54009	25347.225
2386.35187	25347.225
2389.16188	25282.225
2391.97011	25255.725
2394.77657	25235.825
2397.58125	25186.625
2400.38416	25155.725
2403.18529	25098.425
2405.98466	25084.425
2408.78226	25036.325
2411.57809	24962.025
2414.37216	24935.825
2417.16446	24885.625
2419.955	24870.225
2422.74378	24840.925
2425.5308	24777.925
2428.31606	24795.225
2431.09956	24772.825
2433.88131	24733.325
2436.6613	24744.125
2439.43954	24747.425
2442.21603	24757.825
2444.99077	24739.525
2447.76377	24746.825
2450.53501	24697.025
2453.30451	24688.525
2456.07226	24682.725
2458.83827	24681.325
2461.60254	24703.925
2464.36507	24695.725
2467.12586	24727.725
2469.88492	24693.725
2472.64224	24753.725
2475.39782	24728.125
2478.15167	24741.825
2480.90379	24699.525
2483.65417	24753.425
2486.40283	24799.525
2489.14976	24791.025
2491.89497	24759.125
2494.63845	24843.425
2497.3802	24778.925
2500.12024	24757.625
2502.85855	24754.025
2505.59514	24750.325
2508.33002	24741.525
2511.06318	24717.125
2513.79462	24671.025
2516.52435	24699.125
2519.25237	24677.125
2521.97867	24625.025
2524.70327	24640.625
2527.42616	24590.925
2530.14734	24607.425
2532.86681	24558.625
2535.58458	24550.125
2538.30065	24543.325
2541.01501	24541.325
2543.72768	24517.425
2546.43864	24480.225
2549.14791	24458.925
2551.85548	24458.825
2554.56136	24391.225
2557.26554	24428.125
2559.96803	24419.025
2562.66883	24376.325
2565.36794	24346.225
2568.06536	24361.125
2570.7611	24342.125
2573.45514	24287.925
2576.14751	24301.525
2578.83819	24282.325
2581.52719	24280.225
2584.21451	24265.325
2586.90015	24302.325
2589.58411	24260.225
2592.2664	24285.525
2594.94701	24236.725
2597.62594	24212.825
2600.30321	24166.125
2602.9788	24179.825
2605.65273	24151.225
2608.32498	24151.825
2610.99557	24172.525
2613.66449	24189.925
2616.33175	24124.525
2618.99734	24170.025
2621.66128	24174.325
2624.32355	24186.025
2626.98416	24188.625
2629.64311	24196.625
2632.30041	24244.725
2634.95605	24172.825
2637.61004	24161.425
2640.26238	24135.325
2642.91306	24126.425
2645.56209	24074.725
2648.20948	24055.925
2650.85521	24049.225
2653.4993	23998.725
2656.14175	24033.525
2658.78255	24029.525
2661.42171	24035.825
2664.05923	24061.225
2666.6951	24054.725
2669.32934	24130.725
2671.96194	24141.925
2674.59291	24152.825
2677.22224	24112.425
2679.84993	24127.925
2682.476	24089.325
2685.10043	24069.325
2687.72324	24016.525
2690.34441	24022.225
2692.96396	24017.725
2695.58188	24045.525
2698.19818	24010.025
2700.81285	23999.825
2703.4259	23959.225
2706.03733	23986.325
2708.64714	23998.325
2711.25533	23997.525
2713.86191	24016.625
2716.46687	24073.925
2719.07021	23992.625
2721.67194	24054.225
2724.27206	23999.925
2726.87057	24083.025
2729.46747	24066.125
2732.06276	24036.025
2734.65644	24073.925
2737.24852	24074.325
2739.83899	24041.425
2742.42786	24059.825
2745.01513	24006.825
2747.60079	24022.025
2750.18486	24030.225
2752.76733	24039.025
2755.3482	23983.225
2757.92747	24029.625
2760.50515	23966.925
2763.08123	23976.625
2765.65573	23960.625
2768.22863	23933.025
2770.79994	23910.425
2773.36967	23930.225
2775.9378	23901.825
2778.50435	23893.225
2781.06932	23857.725
2783.6327	23856.825
2786.1945	23822.225
2788.75471	23815.225
2791.31335	23751.425
2793.87041	23685.225
2796.42589	23658.125
2798.97979	23668.025
2801.53212	23629.125
2804.08288	23603.725
2806.63206	23499.325
2809.17967	23515.925
2811.72571	23487.525
2814.27018	23520.125
2816.81308	23498.725
2819.35442	23450.725
2821.89419	23381.425
2824.43239	23415.425
2826.96904	23431.625
2829.50412	23453.625
2832.03763	23336.725
2834.56959	23347.725
2837.1	23312.925
2839.62884	23309.825
2842.15613	23267.325
2844.68186	23288.425
2847.20604	23259.625
2849.72867	23309.125
2852.24974	23255.325
2854.76927	23215.225
2857.28724	23198.425
2859.80367	23152.225
2862.31855	23153.425
2864.83189	23126.725
2867.34368	23085.925
2869.85393	23126.725
2872.36264	23105.425
2874.8698	23106.825
2877.37543	23178.725
2879.87952	23146.125
2882.38207	23169.825
2884.88308	23118.525
2887.38256	23155.225
2889.88051	23144.025
2892.37692	23146.425
2894.8718	23126.425
2897.36515	23131.725
2899.85698	23157.825
2902.34727	23243.025
2904.83604	23220.425
2907.32328	23272.725
2909.809	23285.925
2912.29319	23274.025
2914.77587	23258.725
2917.25702	23271.525
2919.73665	23240.125
2922.21476	23269.225
2924.69136	23200.925
2927.16644	23180.825
2929.64	23131.025
2932.11205	23095.625
2934.58258	23063.725
2937.05161	23092.625
2939.51912	23080.225
2941.98513	23047.825
2944.44962	23007.725
2946.91261	22946.625
2949.37409	22998.925
2951.83407	22995.325
2954.29254	22970.625
2956.74951	22885.725
2959.20498	22911.125
2961.65895	22875.025
2964.11142	22854.125
2966.56239	22820.825
2969.01186	22760.925
2971.45984	22688.225
2973.90632	22698.425
2976.35131	22618.925
2978.7948	22556.025
2981.23681	22534.325
2983.67732	22484.125
2986.11635	22431.525
2988.55388	22436.225
2990.98993	22323.825
2993.4245	22302.725
2995.85758	22268.325
2998.28917	22227.825
3000.71928	22200.525
3003.14791	22148.225
3005.57506	22120.425
3008.00073	22086.325
3010.42493	22094.325
3012.84764	22030.525
3015.26888	22040.225
3017.68865	22003.425
3020.10694	21978.825
3022.52376	21883.525
3024.9391	21884.925
3027.35298	21836.025
3029.76539	21811.425
3032.17632	21740.225
3034.5858	21708.625
3036.9938	21707.125
3039.40034	21659.925
3041.80542	21689.925
3044.20903	21629.125
3046.61118	21651.325
3049.01187	21608.725
3051.4111	21547.125
3053.80888	21502.525
3056.20519	21485.825
3058.60005	21412.425
3060.99345	21391.325
3063.3854	21332.725
3065.7759	21247.125
3068.16494	21198.225
3070.55254	21106.725
3072.93868	21061.325
3075.32338	21028.925
3077.70662	21018.625
3080.08842	20948.325
3082.46878	20944.825
3084.84769	20907.025
3087.22515	20864.025
3089.60118	20830.425
3091.97576	20849.725
3094.3489	20832.225
3096.72061	20794.725
3099.09087	20782.425
3101.4597	20760.025
3103.82709	20779.925
3106.19305	20755.625
3108.55757	20740.325
3110.92066	20628.025
3113.28232	20645.425
3115.64255	20547.025
3118.00134	20505.325
3120.35871	20473.825
3122.71466	20480.125
3125.06917	20399.625
3127.42226	20354.325
3129.77393	20377.125
3132.12417	20347.325
3134.47299	20376.325
3136.82039	20305.725
3139.16636	20331.225
3141.51092	20317.025
3143.85406	20333.725
3146.19579	20314.925
3148.53609	20293.625
3150.87499	20358.425
3153.21246	20307.225
3155.54853	20332.125
3157.88318	20307.525
3160.21642	20336.925
3162.54826	20304.625
3164.87868	20265.125
3167.2077	20252.925
3169.5353	20224.225
3171.86151	20191.825
3174.18631	20208.825
3176.5097	20179.925
3178.83169	20127.925
3181.15228	20150.925
3183.47147	20107.725
3185.78926	20091.025
3188.10565	20075.225
3190.42065	20107.225
3192.73424	20089.525
3195.04645	20097.925
3197.35725	20068.725
3199.66667	20084.225
3201.97469	20107.725
3204.28132	20077.425
3206.58656	20122.825
3208.8904	20118.325
3211.19287	20105.925
3213.49394	20100.725
3215.79363	20085.925
3218.09193	20066.225
3220.38884	20061.425
3222.68438	20036.725
3224.97853	20021.625
3227.2713	20019.225
3229.56269	19990.825
3231.8527	19947.525
3234.14133	19950.625
3236.42858	19877.125
3238.71446	19865.225
3240.99896	19837.825
3243.28209	19854.225
3245.56384	19848.725
3247.84423	19824.125
3250.12324	19810.525
3252.40088	19767.425
3254.67715	19757.925
3256.95205	19735.925
3259.22558	19711.625
3261.49775	19684.125
3263.76855	19693.625
3266.03799	19641.825
3268.30606	19580.325
3270.57277	19566.225
3272.83812	19533.625
3275.10211	19533.525
3277.36474	19492.825
3279.62601	19549.125
3281.88593	19455.225
3284.14448	19486.125
3286.40168	19479.625
3288.65753	19424.625
3290.91202	19401.825
3293.16516	19389.925
3295.41695	19326.825
3297.66738	19211.925
3299.91647	19134.225
3302.16421	19027.825
3304.4106	18977.625
3306.65564	18905.025
3308.89933	18759.025
3311.14169	18652.025
3313.38269	18502.125
3315.62236	18377.325
3317.86068	18293.425
3320.09766	18055.725
3322.3333	17930.625
3324.5676	17915.725
3326.80056	17626.225
3329.03219	17546.325
3331.26248	3.525
3333.49143	0.325
3335.71905	-0.775
