Data from AgNPs_FTO_APTES_UA_1uM_R6G_10uM_NaF_0.1M_Addition_RamanShift__11__11-16-47-166.txt Node

Date: Fri Dec 17 11:16:47 GMT 2021
User: TCL
Spectrometer: QEP01345
Trigger mode: 4
Integration Time (sec): 7.000000E0
Scans to average: 10
Electric dark correction enabled: true
Nonlinearity correction enabled: false
Boxcar width: 0
XAxis mode: Raman Shifts
Number of Pixels in Spectrum: 1044
>>>>>Begin Spectral Data<<<<<
46.04893	-0.5125
50.45542	-1.6125
54.85868	-1.6125
59.25871	-0.3125
63.6555	96.2875
68.04907	101.5875
72.43941	103.6875
76.82654	110.9875
81.21044	112.2875
85.59113	117.9875
89.96862	125.4875
94.34289	132.3875
98.71396	137.5875
103.08183	137.1875
107.4465	140.4875
111.80798	141.8875
116.16626	146.2875
120.52136	145.5875
124.87327	156.6875
129.222	162.0875
133.56755	174.3875
137.90993	182.2875
142.24913	198.2875
146.58517	216.9875
150.91804	251.7875
155.24774	286.6875
159.57429	359.2875
163.89768	452.7875
168.21792	580.2875
172.53501	787.3875
176.84895	1089.1875
181.15975	1509.3875
185.46741	2113.7875
189.77193	2919.5875
194.07331	3899.4875
198.37157	5036.8875
202.6667	6264.6875
206.9587	7449.6875
211.24758	8638.2875
215.53334	9808.2875
219.81599	11045.7875
224.09553	12382.4875
228.37195	13868.0875
232.64527	15570.9875
236.91549	17343.9875
241.18261	19173.2875
245.44663	20941.7875
249.70755	22547.2875
253.96539	23933.7875
258.22014	25074.2875
262.4718	25930.1875
266.72039	26507.5875
270.96589	26719.1875
275.20832	26643.5875
279.44768	26332.3875
283.68397	25928.2875
287.91719	25524.5875
292.14735	25209.3875
296.37445	24984.6875
300.59849	24844.3875
304.81948	24777.6875
309.03742	24662.8875
313.25231	24526.3875
317.46415	24262.7875
321.67296	23898.5875
325.87872	23631.6875
330.08145	23530.5875
334.28114	23556.9875
338.47781	23692.0875
342.67145	23936.1875
346.86207	24262.4875
351.04966	24641.6875
355.23424	24983.0875
359.4158	25379.3875
363.59435	25683.9875
367.76989	25874.5875
371.94243	26028.8875
376.11196	26117.9875
380.27849	26163.4875
384.44203	26215.4875
388.60257	26390.3875
392.76012	26712.9875
396.91468	26985.9875
401.06626	27344.7875
405.21485	27614.7875
409.36047	27598.7875
413.50311	27343.0875
417.64277	27220.9875
421.77947	27237.5875
425.9132	27406.1875
430.04396	27521.0875
434.17176	27610.7875
438.2966	27761.8875
442.41849	27965.2875
446.53742	28361.7875
450.6534	28781.4875
454.76644	29082.2875
458.87653	29249.8875
462.98368	29258.1875
467.08789	29128.1875
471.18916	28962.6875
475.2875	28738.0875
479.38291	28589.6875
483.4754	28442.1875
487.56496	28329.4875
491.6516	28205.5875
495.73531	28028.9875
499.81612	27945.6875
503.89401	28023.0875
507.96899	28118.7875
512.04106	28210.5875
516.11023	28220.8875
520.1765	28070.3875
524.23987	27944.2875
528.30034	27724.9875
532.35792	27644.4875
536.41261	27503.6875
540.46441	27339.7875
544.51333	27387.4875
548.55936	27562.5875
552.60252	27860.3875
556.64279	28246.0875
560.6802	28455.3875
564.71473	28696.2875
568.7464	28945.3875
572.7752	29293.8875
576.80114	29782.3875
580.82422	30368.4875
584.84444	31023.8875
588.86181	31731.7875
592.87633	32323.6875
596.888	32260.2875
600.89682	31850.4875
604.9028	32145.0875
608.90594	33849.6875
612.90624	35607.4875
616.90371	34137.0875
620.89834	30657.3875
624.89015	28933.6875
628.87913	28608.7875
632.86528	28694.2875
636.84862	28687.4875
640.82913	28307.2875
644.80683	27826.7875
648.78172	27511.5875
652.75379	27453.6875
656.72306	27651.7875
660.68952	28011.8875
664.65319	27875.2875
668.61405	27670.1875
672.57211	27651.2875
676.52738	27767.4875
680.47986	27749.7875
684.42955	27627.2875
688.37646	27585.4875
692.32058	27718.4875
696.26192	27920.8875
700.20048	28165.5875
704.13626	28389.6875
708.06928	28401.6875
711.99952	28254.2875
715.927	28213.7875
719.85171	28200.8875
723.77365	28107.5875
727.69284	27949.8875
731.60928	27652.5875
735.52295	27512.1875
739.43388	27481.4875
743.34206	27577.6875
747.24749	27641.1875
751.15017	27784.5875
755.05012	28086.7875
758.94733	28536.5875
762.8418	29403.2875
766.73354	30666.2875
770.62254	31903.4875
774.50882	32237.9875
778.39237	31444.0875
782.27321	30271.5875
786.15132	29189.8875
790.02671	28462.9875
793.89938	28043.5875
797.76935	27860.7875
801.6366	27684.0875
805.50115	27637.3875
809.36299	27541.5875
813.22213	27410.6875
817.07857	27357.3875
820.93231	27310.3875
824.78336	27263.7875
828.63172	27230.3875
832.47738	27176.2875
836.32036	27203.6875
840.16066	27181.6875
843.99827	27216.4875
847.8332	27177.8875
851.66546	27284.3875
855.49504	27316.4875
859.32195	27336.9875
863.1462	27335.3875
866.96777	27357.5875
870.78668	27405.6875
874.60293	27505.8875
878.41652	27574.3875
882.22745	27656.7875
886.03573	27760.2875
889.84136	27871.4875
893.64433	27906.1875
897.44466	27913.0875
901.24235	27978.6875
905.0374	28029.4875
908.8298	28071.2875
912.61957	28118.2875
916.40671	28326.3875
920.19121	28493.6875
923.97308	28710.4875
927.75233	28779.1875
931.52895	28653.7875
935.30295	28377.9875
939.07433	27963.5875
942.84309	27602.3875
946.60924	27442.4875
950.37278	27322.2875
954.13371	27200.6875
957.89203	27155.0875
961.64774	27072.6875
965.40086	27015.8875
969.15137	26925.1875
972.89929	26868.5875
976.64461	26791.6875
980.38733	26761.3875
984.12747	26729.3875
987.86502	26803.4875
991.59999	26884.8875
995.33237	27001.7875
999.06217	27259.7875
1002.78939	27586.8875
1006.51404	27994.4875
1010.23611	28415.1875
1013.95561	28630.8875
1017.67255	28671.8875
1021.38692	28499.7875
1025.09872	28221.9875
1028.80796	27949.9875
1032.51465	27844.1875
1036.21877	27806.9875
1039.92035	27898.9875
1043.61937	27943.7875
1047.31584	28068.7875
1051.00976	28116.8875
1054.70114	28247.9875
1058.38998	28333.9875
1062.07627	28604.3875
1065.76003	28813.8875
1069.44126	29122.7875
1073.11995	29524.3875
1076.79611	29876.0875
1080.46974	30044.8875
1084.14085	30088.4875
1087.80943	30173.3875
1091.47549	30320.9875
1095.13903	30368.7875
1098.80005	30158.9875
1102.45857	29740.5875
1106.11456	29302.8875
1109.76805	28926.8875
1113.41903	28791.9875
1117.06751	28729.8875
1120.71348	28858.4875
1124.35696	28958.7875
1127.99793	29182.9875
1131.63641	29298.2875
1135.2724	29273.5875
1138.90589	29173.7875
1142.5369	29130.1875
1146.16542	29215.9875
1149.79145	29252.9875
1153.415	29374.7875
1157.03607	29521.2875
1160.65467	29901.8875
1164.27079	30592.7875
1167.88443	31519.6875
1171.49561	32565.4875
1175.10432	33989.0875
1178.71056	35575.8875
1182.31434	37277.1875
1185.91565	38427.5875
1189.51451	38935.2875
1193.11091	38856.6875
1196.70485	38100.2875
1200.29634	36998.9875
1203.88538	36021.1875
1207.47197	35282.4875
1211.05612	34763.9875
1214.63782	34317.3875
1218.21708	33703.2875
1221.79391	33060.1875
1225.36829	32590.3875
1228.94024	32371.3875
1232.50976	32146.3875
1236.07685	32066.7875
1239.6415	32039.9875
1243.20374	32079.2875
1246.76355	32280.7875
1250.32093	32476.7875
1253.8759	32858.6875
1257.42845	33559.2875
1260.97859	34318.9875
1264.52631	35072.6875
1268.07163	35741.1875
1271.61453	36436.4875
1275.15503	37068.1875
1278.69312	37636.1875
1282.22882	38134.5875
1285.76211	38733.9875
1289.29301	39459.5875
1292.82151	40264.4875
1296.34761	41300.0875
1299.87133	42419.7875
1303.39266	43677.0875
1306.9116	45023.0875
1310.42815	46153.4875
1313.94233	46916.2875
1317.45412	46966.1875
1320.96354	46722.2875
1324.47058	46507.0875
1327.97525	46473.2875
1331.47754	46467.1875
1334.97747	46503.1875
1338.47502	46576.1875
1341.97022	46815.7875
1345.46305	46967.0875
1348.95352	46953.2875
1352.44163	46884.7875
1355.92738	46873.6875
1359.41078	47171.1875
1362.89183	47535.4875
1366.37053	46805.1875
1369.84688	44553.6875
1373.32088	41473.0875
1376.79254	39192.9875
1380.26186	37916.5875
1383.72883	37618.9875
1387.19347	37327.6875
1390.65578	36953.8875
1394.11575	36674.2875
1397.57339	36676.8875
1401.0287	36824.9875
1404.48168	36930.6875
1407.93234	36940.5875
1411.38068	36646.5875
1414.82669	36112.6875
1418.27039	35294.0875
1421.71177	34541.1875
1425.15083	34002.6875
1428.58758	33784.5875
1432.02203	33972.3875
1435.45416	34405.6875
1438.88399	34960.7875
1442.31151	35299.5875
1445.73673	35507.5875
1449.15965	35677.3875
1452.58027	35730.9875
1455.9986	35819.8875
1459.41463	35983.7875
1462.82837	36488.3875
1466.23982	36970.5875
1469.64898	37387.4875
1473.05586	37578.6875
1476.46045	37561.9875
1479.86276	37432.0875
1483.26279	37317.5875
1486.66054	37269.6875
1490.05602	37445.8875
1493.44922	37837.7875
1496.84016	38353.1875
1500.22882	39147.8875
1503.61521	40153.3875
1506.99934	41062.9875
1510.38121	41678.7875
1513.76081	41739.4875
1517.13816	41144.2875
1520.51324	40213.3875
1523.88607	39361.2875
1527.25665	38815.7875
1530.62498	38534.2875
1533.99105	38258.7875
1537.35488	37796.7875
1540.71647	37185.8875
1544.07581	36524.8875
1547.4329	35977.8875
1550.78776	35485.3875
1554.14038	35248.4875
1557.49077	35140.2875
1560.83892	35120.0875
1564.18484	35191.2875
1567.52853	35322.7875
1570.86999	35459.6875
1574.20922	35893.1875
1577.54624	36327.0875
1580.88103	36429.8875
1584.2136	36535.8875
1587.54395	36961.9875
1590.87208	37803.2875
1594.19801	38939.6875
1597.52172	40109.3875
1600.84321	40371.2875
1604.16251	39262.3875
1607.47959	37331.0875
1610.79447	35350.7875
1614.10715	33431.2875
1617.41763	31737.9875
1620.7259	30564.7875
1624.03199	29910.0875
1627.33587	29884.3875
1630.63757	30390.8875
1633.93707	31580.8875
1637.23439	33578.4875
1640.52951	36352.3875
1643.82246	39530.0875
1647.11321	41847.9875
1650.40179	42029.5875
1653.68819	39870.1875
1656.97241	36230.9875
1660.25446	32648.1875
1663.53433	29967.2875
1666.81203	28226.8875
1670.08756	27097.1875
1673.36092	26401.9875
1676.63211	25948.8875
1679.90115	25610.2875
1683.16801	25308.8875
1686.43272	25089.8875
1689.69527	24963.9875
1692.95567	24822.2875
1696.2139	24735.3875
1699.46999	24695.4875
1702.72392	24651.0875
1705.97571	24626.9875
1709.22535	24576.7875
1712.47284	24545.2875
1715.71819	24576.8875
1718.96139	24516.3875
1722.20246	24460.5875
1725.44139	24395.2875
1728.67818	24305.8875
1731.91284	24167.8875
1735.14537	24108.6875
1738.37576	24003.3875
1741.60403	23901.8875
1744.83017	23886.9875
1748.05418	23819.5875
1751.27607	23806.7875
1754.49584	23753.7875
1757.71349	23719.2875
1760.92903	23709.0875
1764.14244	23646.9875
1767.35375	23653.6875
1770.56294	23641.1875
1773.77002	23598.8875
1776.97499	23543.3875
1780.17785	23501.4875
1783.37861	23503.4875
1786.57727	23490.7875
1789.77382	23465.6875
1792.96828	23457.1875
1796.16064	23393.5875
1799.3509	23353.3875
1802.53907	23317.1875
1805.72514	23271.5875
1808.90913	23199.3875
1812.09102	23164.8875
1815.27083	23113.3875
1818.44856	23098.2875
1821.6242	23100.2875
1824.79776	23051.5875
1827.96924	23063.1875
1831.13864	23070.6875
1834.30597	23075.7875
1837.47122	23100.9875
1840.6344	23118.0875
1843.7955	23122.5875
1846.95454	23115.6875
1850.11151	23064.3875
1853.26642	23062.7875
1856.41926	23041.0875
1859.57004	23033.6875
1862.71876	22976.1875
1865.86542	22979.7875
1869.01003	22943.0875
1872.15258	22883.3875
1875.29308	22899.2875
1878.43152	22817.0875
1881.56792	22819.5875
1884.70227	22765.4875
1887.83457	22748.7875
1890.96482	22682.4875
1894.09304	22661.5875
1897.21921	22600.1875
1900.34335	22577.3875
1903.46544	22531.7875
1906.58551	22547.7875
1909.70353	22504.6875
1912.81953	22464.6875
1915.93349	22407.0875
1919.04543	22351.1875
1922.15534	22266.2875
1925.26322	22214.7875
1928.36908	22209.3875
1931.47292	22193.0875
1934.57473	22119.0875
1937.67453	22086.1875
1940.77232	22037.1875
1943.86808	21954.3875
1946.96184	21927.5875
1950.05358	21843.4875
1953.14331	21791.0875
1956.23103	21727.0875
1959.31675	21658.7875
1962.40046	21550.0875
1965.48217	21541.6875
1968.56188	21503.7875
1971.63959	21427.5875
1974.7153	21352.3875
1977.78901	21256.6875
1980.86073	21208.0875
1983.93046	21142.4875
1986.99819	21065.4875
1990.06394	21003.3875
1993.1277	20960.9875
1996.18947	20930.5875
1999.24925	20843.5875
2002.30706	20790.2875
2005.36288	20711.2875
2008.41672	20709.5875
2011.46859	20618.2875
2014.51848	20582.9875
2017.56639	20513.9875
2020.61233	20448.9875
2023.6563	20439.4875
2026.6983	20353.3875
2029.73833	20338.3875
2032.7764	20292.8875
2035.8125	20261.6875
2038.84664	20261.1875
2041.87881	20244.4875
2044.90903	20194.8875
2047.93729	20176.4875
2050.96359	20139.3875
2053.98794	20116.0875
2057.01034	20164.4875
2060.03078	20109.5875
2063.04927	20088.6875
2066.06582	20088.5875
2069.08042	20057.5875
2072.09307	20117.2875
2075.10378	20077.8875
2078.11255	20055.5875
2081.11938	20084.0875
2084.12426	20052.9875
2087.12722	20066.8875
2090.12824	20053.9875
2093.12732	20081.7875
2096.12447	20025.0875
2099.11969	20044.8875
2102.11299	20081.7875
2105.10435	20036.6875
2108.09379	20076.5875
2111.08131	20078.1875
2114.0669	20054.5875
2117.05057	20028.4875
2120.03233	20031.9875
2123.01216	20062.0875
2125.99008	20066.8875
2128.96609	20088.0875
2131.94018	20078.9875
2134.91236	20074.8875
2137.88263	20056.1875
2140.851	20032.6875
2143.81746	20093.7875
2146.78201	20059.4875
2149.74466	20063.4875
2152.7054	20061.1875
2155.66425	20019.9875
2158.6212	20063.3875
2161.57625	20074.3875
2164.52941	20048.9875
2167.48067	20074.2875
2170.43004	20069.0875
2173.37752	20028.0875
2176.32311	20010.6875
2179.26681	19979.5875
2182.20863	20007.4875
2185.14856	19988.5875
2188.08661	19989.3875
2191.02278	19993.5875
2193.95707	19947.3875
2196.88948	19958.3875
2199.82001	19946.2875
2202.74867	19917.9875
2205.67545	19920.5875
2208.60037	19863.8875
2211.52341	19838.0875
2214.44458	19828.0875
2217.36388	19762.5875
2220.28132	19784.1875
2223.1969	19708.6875
2226.11061	19673.9875
2229.02246	19597.8875
2231.93245	19602.6875
2234.84058	19580.0875
2237.74686	19518.9875
2240.65128	19551.4875
2243.55385	19506.3875
2246.45456	19468.8875
2249.35343	19465.5875
2252.25044	19418.0875
2255.14561	19361.5875
2258.03893	19346.7875
2260.93041	19294.5875
2263.82004	19255.3875
2266.70783	19264.3875
2269.59378	19228.4875
2272.4779	19158.2875
2275.36017	19118.8875
2278.24061	19095.1875
2281.11922	19033.1875
2283.996	19014.7875
2286.87094	19013.5875
2289.74405	18916.5875
2292.61534	18901.6875
2295.4848	18863.9875
2298.35243	18907.8875
2301.21824	18869.3875
2304.08223	18867.1875
2306.94439	18833.7875
2309.80474	18777.9875
2312.66327	18797.9875
2315.51999	18764.5875
2318.37489	18785.5875
2321.22797	18757.6875
2324.07925	18732.1875
2326.92871	18696.6875
2329.77637	18679.2875
2332.62222	18632.3875
2335.46626	18601.5875
2338.3085	18552.0875
2341.14893	18563.8875
2343.98756	18559.8875
2346.8244	18556.4875
2349.65943	18520.1875
2352.49267	18496.3875
2355.32411	18472.9875
2358.15376	18478.7875
2360.98161	18443.6875
2363.80768	18455.0875
2366.63195	18410.0875
2369.45444	18411.9875
2372.27514	18359.0875
2375.09405	18373.8875
2377.91118	18380.3875
2380.72652	18333.8875
2383.54009	18297.2875
2386.35187	18264.6875
2389.16188	18209.4875
2391.97011	18197.5875
2394.77657	18176.7875
2397.58125	18120.7875
2400.38416	18099.4875
2403.18529	18057.7875
2405.98466	18028.3875
2408.78226	18010.7875
2411.57809	17995.1875
2414.37216	17966.9875
2417.16446	17970.6875
2419.955	17948.1875
2422.74378	17917.3875
2425.5308	17898.2875
2428.31606	17869.6875
2431.09956	17856.8875
2433.88131	17864.3875
2436.6613	17846.8875
2439.43954	17837.5875
2442.21603	17811.3875
2444.99077	17770.1875
2447.76377	17786.1875
2450.53501	17768.6875
2453.30451	17777.5875
2456.07226	17722.1875
2458.83827	17707.9875
2461.60254	17705.2875
2464.36507	17678.9875
2467.12586	17680.7875
2469.88492	17661.0875
2472.64224	17647.2875
2475.39782	17609.3875
2478.15167	17613.9875
2480.90379	17586.4875
2483.65417	17584.9875
2486.40283	17577.6875
2489.14976	17561.0875
2491.89497	17531.9875
2494.63845	17520.7875
2497.3802	17495.6875
2500.12024	17524.3875
2502.85855	17504.4875
2505.59514	17489.6875
2508.33002	17450.0875
2511.06318	17448.0875
2513.79462	17422.0875
2516.52435	17428.8875
2519.25237	17414.0875
2521.97867	17403.1875
2524.70327	17380.5875
2527.42616	17343.1875
2530.14734	17346.8875
2532.86681	17330.0875
2535.58458	17300.6875
2538.30065	17251.8875
2541.01501	17270.1875
2543.72768	17221.9875
2546.43864	17230.5875
2549.14791	17154.4875
2551.85548	17162.0875
2554.56136	17147.7875
2557.26554	17142.9875
2559.96803	17106.9875
2562.66883	17060.4875
2565.36794	17070.3875
2568.06536	17046.3875
2570.7611	17002.8875
2573.45514	16945.2875
2576.14751	16913.3875
2578.83819	16887.1875
2581.52719	16853.0875
2584.21451	16868.2875
2586.90015	16836.0875
2589.58411	16830.1875
2592.2664	16777.3875
2594.94701	16745.8875
2597.62594	16742.6875
2600.30321	16702.2875
2602.9788	16684.7875
2605.65273	16641.7875
2608.32498	16632.3875
2610.99557	16599.4875
2613.66449	16590.8875
2616.33175	16552.2875
2618.99734	16578.3875
2621.66128	16514.7875
2624.32355	16483.0875
2626.98416	16479.1875
2629.64311	16492.3875
2632.30041	16463.9875
2634.95605	16441.4875
2637.61004	16423.3875
2640.26238	16419.5875
2642.91306	16404.4875
2645.56209	16379.8875
2648.20948	16354.1875
2650.85521	16357.3875
2653.4993	16357.3875
2656.14175	16353.9875
2658.78255	16351.2875
2661.42171	16348.1875
2664.05923	16325.2875
2666.6951	16370.4875
2669.32934	16370.4875
2671.96194	16362.5875
2674.59291	16394.3875
2677.22224	16372.1875
2679.84993	16348.9875
2682.476	16351.6875
2685.10043	16341.7875
2687.72324	16291.9875
2690.34441	16354.9875
2692.96396	16332.9875
2695.58188	16326.6875
2698.19818	16279.4875
2700.81285	16327.3875
2703.4259	16310.1875
2706.03733	16300.7875
2708.64714	16318.4875
2711.25533	16298.5875
2713.86191	16282.1875
2716.46687	16298.1875
2719.07021	16303.7875
2721.67194	16308.6875
2724.27206	16266.3875
2726.87057	16312.7875
2729.46747	16291.2875
2732.06276	16281.9875
2734.65644	16269.7875
2737.24852	16260.7875
2739.83899	16258.2875
2742.42786	16240.2875
2745.01513	16225.7875
2747.60079	16228.6875
2750.18486	16211.7875
2752.76733	16184.8875
2755.3482	16176.3875
2757.92747	16194.5875
2760.50515	16156.4875
2763.08123	16143.5875
2765.65573	16120.0875
2768.22863	16122.4875
2770.79994	16076.4875
2773.36967	16076.8875
2775.9378	16041.1875
2778.50435	16052.6875
2781.06932	16017.8875
2783.6327	15992.3875
2786.1945	15950.0875
2788.75471	15955.0875
2791.31335	15912.7875
2793.87041	15907.7875
2796.42589	15840.1875
2798.97979	15838.5875
2801.53212	15765.6875
2804.08288	15767.4875
2806.63206	15710.8875
2809.17967	15706.1875
2811.72571	15663.7875
2814.27018	15637.0875
2816.81308	15620.2875
2819.35442	15604.3875
2821.89419	15553.6875
2824.43239	15544.2875
2826.96904	15527.5875
2829.50412	15499.2875
2832.03763	15469.2875
2834.56959	15472.4875
2837.1	15435.7875
2839.62884	15440.6875
2842.15613	15421.2875
2844.68186	15467.9875
2847.20604	15435.3875
2849.72867	15434.3875
2852.24974	15415.1875
2854.76927	15399.7875
2857.28724	15400.8875
2859.80367	15342.9875
2862.31855	15391.3875
2864.83189	15356.9875
2867.34368	15317.6875
2869.85393	15321.6875
2872.36264	15314.3875
2874.8698	15342.4875
2877.37543	15321.5875
2879.87952	15340.9875
2882.38207	15338.1875
2884.88308	15333.3875
2887.38256	15318.2875
2889.88051	15361.4875
2892.37692	15359.5875
2894.8718	15404.6875
2897.36515	15387.8875
2899.85698	15354.2875
2902.34727	15385.3875
2904.83604	15381.7875
2907.32328	15395.2875
2909.809	15377.6875
2912.29319	15376.5875
2914.77587	15335.6875
2917.25702	15373.1875
2919.73665	15329.6875
2922.21476	15352.3875
2924.69136	15325.1875
2927.16644	15343.3875
2929.64	15292.3875
2932.11205	15308.4875
2934.58258	15237.2875
2937.05161	15297.4875
2939.51912	15251.8875
2941.98513	15248.8875
2944.44962	15193.8875
2946.91261	15131.6875
2949.37409	15173.0875
2951.83407	15113.6875
2954.29254	15082.9875
2956.74951	15081.4875
2959.20498	15075.4875
2961.65895	15034.9875
2964.11142	15026.8875
2966.56239	14956.5875
2969.01186	14953.7875
2971.45984	14895.5875
2973.90632	14897.6875
2976.35131	14866.8875
2978.7948	14840.8875
2981.23681	14772.7875
2983.67732	14768.5875
2986.11635	14726.1875
2988.55388	14689.4875
2990.98993	14633.7875
2993.4245	14591.0875
2995.85758	14562.2875
2998.28917	14584.2875
3000.71928	14551.0875
3003.14791	14490.6875
3005.57506	14487.7875
3008.00073	14446.8875
3010.42493	14435.9875
3012.84764	14395.7875
3015.26888	14414.7875
3017.68865	14352.9875
3020.10694	14322.0875
3022.52376	14298.7875
3024.9391	14269.2875
3027.35298	14251.7875
3029.76539	14213.3875
3032.17632	14215.4875
3034.5858	14192.6875
3036.9938	14179.7875
3039.40034	14172.3875
3041.80542	14131.5875
3044.20903	14091.4875
3046.61118	14079.8875
3049.01187	14029.3875
3051.4111	14027.1875
3053.80888	13982.7875
3056.20519	13967.4875
3058.60005	13946.5875
3060.99345	13898.0875
3063.3854	13895.1875
3065.7759	13851.1875
3068.16494	13843.7875
3070.55254	13793.4875
3072.93868	13785.7875
3075.32338	13745.3875
3077.70662	13751.9875
3080.08842	13700.3875
3082.46878	13687.8875
3084.84769	13639.0875
3087.22515	13630.5875
3089.60118	13641.7875
3091.97576	13653.9875
3094.3489	13633.7875
3096.72061	13635.8875
3099.09087	13601.9875
3101.4597	13578.1875
3103.82709	13577.5875
3106.19305	13548.4875
3108.55757	13528.8875
3110.92066	13499.9875
3113.28232	13473.1875
3115.64255	13425.2875
3118.00134	13393.0875
3120.35871	13391.2875
3122.71466	13409.8875
3125.06917	13353.1875
3127.42226	13345.0875
3129.77393	13352.7875
3132.12417	13315.0875
3134.47299	13328.9875
3136.82039	13292.7875
3139.16636	13300.9875
3141.51092	13279.7875
3143.85406	13315.6875
3146.19579	13306.0875
3148.53609	13295.0875
3150.87499	13314.0875
3153.21246	13311.4875
3155.54853	13341.7875
3157.88318	13313.4875
3160.21642	13312.0875
3162.54826	13297.0875
3164.87868	13261.4875
3167.2077	13251.0875
3169.5353	13258.6875
3171.86151	13221.0875
3174.18631	13219.0875
3176.5097	13227.2875
3178.83169	13163.8875
3181.15228	13178.1875
3183.47147	13139.3875
3185.78926	13142.0875
3188.10565	13147.4875
3190.42065	13123.7875
3192.73424	13144.8875
3195.04645	13125.0875
3197.35725	13125.3875
3199.66667	13081.6875
3201.97469	13118.7875
3204.28132	13078.1875
3206.58656	13117.4875
3208.8904	13091.2875
3211.19287	13100.0875
3213.49394	13078.6875
3215.79363	13086.1875
3218.09193	13058.8875
3220.38884	13037.4875
3222.68438	13065.9875
3224.97853	13020.8875
3227.2713	13019.6875
3229.56269	12994.9875
3231.8527	12999.1875
3234.14133	12970.5875
3236.42858	12965.1875
3238.71446	12931.2875
3240.99896	12922.2875
3243.28209	12918.0875
3245.56384	12905.4875
3247.84423	12896.4875
3250.12324	12886.5875
3252.40088	12869.5875
3254.67715	12843.7875
3256.95205	12817.7875
3259.22558	12818.5875
3261.49775	12786.2875
3263.76855	12780.6875
3266.03799	12745.9875
3268.30606	12738.8875
3270.57277	12704.2875
3272.83812	12698.9875
3275.10211	12681.4875
3277.36474	12673.6875
3279.62601	12666.7875
3281.88593	12618.5875
3284.14448	12610.2875
3286.40168	12611.8875
3288.65753	12588.7875
3290.91202	12551.7875
3293.16516	12502.3875
3295.41695	12526.7875
3297.66738	12433.6875
3299.91647	12343.2875
3302.16421	12262.4875
3304.4106	12258.7875
3306.65564	12187.5875
3308.89933	12073.6875
3311.14169	12028.0875
3313.38269	11918.5875
3315.62236	11872.0875
3317.86068	11744.6875
3320.09766	11641.7875
3322.3333	11554.1875
3324.5676	11520.5875
3326.80056	11336.4875
3329.03219	11266.7875
3331.26248	4.0875
3333.49143	1.5875
3335.71905	-1.2125
