Data from AgNPs_FTO_APTES_UA_5uM_R6G_10uM_NaF_0.1M_Addition_RamanShift__31__13-01-47-286.txt Node

Date: Fri Dec 17 13:01:47 GMT 2021
User: TCL
Spectrometer: QEP01345
Trigger mode: 4
Integration Time (sec): 7.000000E0
Scans to average: 10
Electric dark correction enabled: true
Nonlinearity correction enabled: false
Boxcar width: 0
XAxis mode: Raman Shifts
Number of Pixels in Spectrum: 1044
>>>>>Begin Spectral Data<<<<<
46.04893	0.7
50.45542	-1
54.85868	-1.4
59.25871	1.2
63.6555	70.9
68.04907	72.6
72.43941	73.5
76.82654	84.1
81.21044	84.4
85.59113	87.7
89.96862	95.7
94.34289	95
98.71396	100.3
103.08183	103.2
107.4465	105.6
111.80798	103.6
116.16626	108.2
120.52136	104
124.87327	111.3
129.222	111.7
133.56755	112
137.90993	117.8
142.24913	121.3
146.58517	130.9
150.91804	142.6
155.24774	162.2
159.57429	192.9
163.89768	229.7
168.21792	296.3
172.53501	382
176.84895	514
181.15975	704.1
185.46741	962.1
189.77193	1330.1
194.07331	1758.4
198.37157	2254.7
202.6667	2784.3
206.9587	3299.3
211.24758	3835.6
215.53334	4375.2
219.81599	4970.6
224.09553	5671.3
228.37195	6446.7
232.64527	7264.3
236.91549	8103.3
241.18261	8889.6
245.44663	9495.5
249.70755	9945.2
253.96539	10351.1
258.22014	10737.9
262.4718	11094.5
266.72039	11429.8
270.96589	11597.7
275.20832	11639.5
279.44768	11529.2
283.68397	11337.6
287.91719	11219.6
292.14735	11215.8
296.37445	11447.1
300.59849	11869.6
304.81948	12453.9
309.03742	12862.6
313.25231	12879.7
317.46415	12295.7
321.67296	11292.4
325.87872	10522.3
330.08145	10155.6
334.28114	10096.2
338.47781	10291
342.67145	10583.3
346.86207	11090.1
351.04966	11782.7
355.23424	12593.4
359.4158	13252.5
363.59435	13602.6
367.76989	13709.1
371.94243	13648.4
376.11196	13591.5
380.27849	13553.8
384.44203	13409.6
388.60257	13247.4
392.76012	13133.3
396.91468	13264.6
401.06626	13599.1
405.21485	13898.3
409.36047	13646.5
413.50311	12944.7
417.64277	12277.7
421.77947	11901.5
425.9132	11762.3
430.04396	11760.7
434.17176	11766.2
438.2966	11967.6
442.41849	12225
446.53742	12573.2
450.6534	12934.4
454.76644	13169.1
458.87653	13233.6
462.98368	13153.7
467.08789	12941.8
471.18916	12640.8
475.2875	12297.7
479.38291	12019.2
483.4754	11821.4
487.56496	11650.6
491.6516	11528.4
495.73531	11507.5
499.81612	11505.4
503.89401	11652.1
507.96899	11818.5
512.04106	12036.6
516.11023	12281.9
520.1765	12448.9
524.23987	12437.5
528.30034	12159
532.35792	11884
536.41261	11611.6
540.46441	11326.8
544.51333	11214.9
548.55936	11279.1
552.60252	11510
556.64279	11784.7
560.6802	11909.3
564.71473	12110.8
568.7464	12603.5
572.7752	12923.8
576.80114	12608.7
580.82422	12250
584.84444	12077.7
588.86181	12045
592.87633	12032
596.888	12218.5
600.89682	12702.9
604.9028	14296.6
608.90594	18298.1
612.90624	23467.8
616.90371	22651.1
620.89834	15920.6
624.89015	12642.8
628.87913	11968.5
632.86528	12041.7
636.84862	12267.4
640.82913	12114.4
644.80683	11647.4
648.78172	11295.6
652.75379	11394.1
656.72306	11905.5
660.68952	12528.2
664.65319	12373.3
668.61405	11725.3
672.57211	11416
676.52738	11416.9
680.47986	11402.3
684.42955	11326.7
688.37646	11301.4
692.32058	11359.1
696.26192	11473.5
700.20048	11643.2
704.13626	11749.3
708.06928	11737.5
711.99952	11625
715.927	11592.3
719.85171	11617.1
723.77365	11604
727.69284	11510
731.60928	11407.1
735.52295	11423.5
739.43388	11466.5
743.34206	11525.8
747.24749	11622.6
751.15017	11727.2
755.05012	11957.7
758.94733	12511.9
762.8418	13767.6
766.73354	15895.9
770.62254	18179
774.50882	19478.1
778.39237	18734.4
782.27321	16309.3
786.15132	13953.7
790.02671	12616.3
793.89938	12011.6
797.76935	11783.3
801.6366	11674.1
805.50115	11575.4
809.36299	11552.1
813.22213	11490.4
817.07857	11489.2
820.93231	11488
824.78336	11527.5
828.63172	11582.7
832.47738	11601.2
836.32036	11594
840.16066	11509.4
843.99827	11464.8
847.8332	11467.4
851.66546	11437.4
855.49504	11470.7
859.32195	11411.2
863.1462	11383.4
866.96777	11338.7
870.78668	11328.4
874.60293	11393.2
878.41652	11408.1
882.22745	11473.4
886.03573	11554.4
889.84136	11508.7
893.64433	11428.7
897.44466	11430.1
901.24235	11423.8
905.0374	11389.1
908.8298	11372.8
912.61957	11361.4
916.40671	11426.1
920.19121	11522.8
923.97308	11605.1
927.75233	11730.5
931.52895	11817.3
935.30295	11736.9
939.07433	11472.5
942.84309	11223.3
946.60924	11034.5
950.37278	10976.6
954.13371	10924.3
957.89203	10868
961.64774	10861.3
965.40086	10799.3
969.15137	10774
972.89929	10749.9
976.64461	10766.1
980.38733	10780.5
984.12747	10814.6
987.86502	10845.4
991.59999	10888.2
995.33237	11047.9
999.06217	11259.7
1002.78939	11594.2
1006.51404	11889.2
1010.23611	12207.6
1013.95561	12385.1
1017.67255	12351
1021.38692	12168.5
1025.09872	11959.7
1028.80796	11883.9
1032.51465	11974.5
1036.21877	12125.6
1039.92035	12246.7
1043.61937	12251.9
1047.31584	12138.8
1051.00976	12014.3
1054.70114	11875.8
1058.38998	11848.9
1062.07627	11897.4
1065.76003	11976
1069.44126	12043.2
1073.11995	12139.6
1076.79611	12265.2
1080.46974	12442.5
1084.14085	12725.8
1087.80943	13051.4
1091.47549	13194
1095.13903	12954.6
1098.80005	12571.6
1102.45857	12227.1
1106.11456	12074.2
1109.76805	12120.9
1113.41903	12379
1117.06751	12704.9
1120.71348	13128.7
1124.35696	13642.8
1127.99793	14094.3
1131.63641	14086.2
1135.2724	13543.8
1138.90589	12948
1142.5369	12620.5
1146.16542	12401.3
1149.79145	12271.6
1153.415	12255.2
1157.03607	12365.6
1160.65467	12614.3
1164.27079	12989.4
1167.88443	13583
1171.49561	14567.7
1175.10432	16211.5
1178.71056	18441.1
1182.31434	20238.5
1185.91565	20758.7
1189.51451	20321.4
1193.11091	19006
1196.70485	17402
1200.29634	16296.2
1203.88538	15506.2
1207.47197	14669
1211.05612	13951.9
1214.63782	13629.8
1218.21708	13492.8
1221.79391	13546.9
1225.36829	13653.9
1228.94024	13806.1
1232.50976	13933.6
1236.07685	14100.3
1239.6415	14161.2
1243.20374	14159.5
1246.76355	14201.4
1250.32093	14334
1253.8759	14625.7
1257.42845	15010
1260.97859	15417.4
1264.52631	15806.8
1268.07163	16200.6
1271.61453	16593.1
1275.15503	16922.9
1278.69312	17056.1
1282.22882	17164.7
1285.76211	17441.7
1289.29301	17912.3
1292.82151	18380.2
1296.34761	18815
1299.87133	19493.3
1303.39266	20758
1306.9116	22890.3
1310.42815	25380.9
1313.94233	26980
1317.45412	26768.6
1320.96354	25252
1324.47058	23455.2
1327.97525	21838.4
1331.47754	20796.7
1334.97747	20551.7
1338.47502	20737.1
1341.97022	21165.2
1345.46305	21719.5
1348.95352	22680.1
1352.44163	24120.5
1355.92738	26237.7
1359.41078	29690.3
1362.89183	33202.4
1366.37053	32683.5
1369.84688	28022.9
1373.32088	23173.8
1376.79254	20070.4
1380.26186	18526.1
1383.72883	17777.8
1387.19347	17175.8
1390.65578	16493.7
1394.11575	15995.1
1397.57339	15752.4
1401.0287	15847.5
1404.48168	16164.2
1407.93234	16602
1411.38068	17040.7
1414.82669	17160.5
1418.27039	17012.7
1421.71177	16628.5
1425.15083	16278.4
1428.58758	16066.2
1432.02203	15992.9
1435.45416	16110.7
1438.88399	16213.5
1442.31151	16221.7
1445.73673	16269.9
1449.15965	16377.2
1452.58027	16356
1455.9986	16153.7
1459.41463	16047
1462.82837	16101.3
1466.23982	16375.6
1469.64898	16722.9
1473.05586	17014.1
1476.46045	17231.2
1479.86276	17482.2
1483.26279	17936.9
1486.66054	18447.4
1490.05602	19009.2
1493.44922	19799.5
1496.84016	20930.7
1500.22882	22585.4
1503.61521	24855.8
1506.99934	27506.7
1510.38121	30119.7
1513.76081	31350.7
1517.13816	30051.3
1520.51324	26799.3
1523.88607	23342.3
1527.25665	20865.8
1530.62498	19379.9
1533.99105	18577.3
1537.35488	17976.9
1540.71647	17677.2
1544.07581	17507
1547.4329	17445.8
1550.78776	17378.9
1554.14038	17342
1557.49077	17471.4
1560.83892	17703.7
1564.18484	18099.4
1567.52853	18495.7
1570.86999	18877.9
1574.20922	19194.3
1577.54624	19126.3
1580.88103	18416.7
1584.2136	17426.8
1587.54395	16922.8
1590.87208	17245.1
1594.19801	18189.6
1597.52172	19327.7
1600.84321	19858.4
1604.16251	19304
1607.47959	18097.3
1610.79447	16856.2
1614.10715	15624.2
1617.41763	14668.2
1620.7259	14068.8
1624.03199	13801.2
1627.33587	13853
1630.63757	14164.5
1633.93707	14793.8
1637.23439	15731.8
1640.52951	16961.4
1643.82246	18461.1
1647.11321	20251.9
1650.40179	21646.9
1653.68819	21294.7
1656.97241	18871.3
1660.25446	16022.9
1663.53433	13999.7
1666.81203	12778.1
1670.08756	12062
1673.36092	11652.9
1676.63211	11376
1679.90115	11183.2
1683.16801	11028.4
1686.43272	10951.4
1689.69527	10849.1
1692.95567	10817.4
1696.2139	10776.7
1699.46999	10743.3
1702.72392	10703.6
1705.97571	10738.1
1709.22535	10732.1
1712.47284	10719.3
1715.71819	10736.4
1718.96139	10728.5
1722.20246	10711.5
1725.44139	10680.6
1728.67818	10616.7
1731.91284	10546
1735.14537	10465.1
1738.37576	10382.4
1741.60403	10331.6
1744.83017	10297.8
1748.05418	10272.9
1751.27607	10265.8
1754.49584	10249.5
1757.71349	10236.4
1760.92903	10214.4
1764.14244	10205.1
1767.35375	10211.2
1770.56294	10169.7
1773.77002	10177.2
1776.97499	10143.7
1780.17785	10102.8
1783.37861	10106.5
1786.57727	10069.7
1789.77382	10080.2
1792.96828	10067.9
1796.16064	10050.2
1799.3509	10050.4
1802.53907	10048.6
1805.72514	9991.7
1808.90913	9988.1
1812.09102	9937.3
1815.27083	9947.8
1818.44856	9898.7
1821.6242	9901.3
1824.79776	9923.6
1827.96924	9887.3
1831.13864	9882.7
1834.30597	9898
1837.47122	9862.4
1840.6344	9863.8
1843.7955	9857.1
1846.95454	9870.6
1850.11151	9830.6
1853.26642	9871.1
1856.41926	9869.3
1859.57004	9871.1
1862.71876	9894
1865.86542	9880.7
1869.01003	9876
1872.15258	9896.5
1875.29308	9915.9
1878.43152	9909.6
1881.56792	9930.6
1884.70227	9937.8
1887.83457	9935.9
1890.96482	9929.2
1894.09304	9924.9
1897.21921	9943.5
1900.34335	9928.2
1903.46544	9936.6
1906.58551	9947.5
1909.70353	9947.3
1912.81953	9946.5
1915.93349	9931.6
1919.04543	9900.6
1922.15534	9893.2
1925.26322	9864.2
1928.36908	9843.8
1931.47292	9795.4
1934.57473	9752.2
1937.67453	9694.6
1940.77232	9654.4
1943.86808	9603.6
1946.96184	9577.4
1950.05358	9537.2
1953.14331	9505.6
1956.23103	9478.7
1959.31675	9423.7
1962.40046	9422.7
1965.48217	9379.5
1968.56188	9362.5
1971.63959	9324.5
1974.7153	9311.2
1977.78901	9277.9
1980.86073	9237.7
1983.93046	9202.8
1986.99819	9187.4
1990.06394	9156.6
1993.1277	9092.9
1996.18947	9079.1
1999.24925	9076.9
2002.30706	9024.9
2005.36288	8987.4
2008.41672	8974.4
2011.46859	8958
2014.51848	8923.8
2017.56639	8913.3
2020.61233	8907
2023.6563	8864.8
2026.6983	8854.3
2029.73833	8813.9
2032.7764	8786.5
2035.8125	8789.5
2038.84664	8729.1
2041.87881	8734.7
2044.90903	8730.7
2047.93729	8703.3
2050.96359	8722.7
2053.98794	8682.2
2057.01034	8660.5
2060.03078	8647.9
2063.04927	8678.7
2066.06582	8648.3
2069.08042	8656.2
2072.09307	8648.9
2075.10378	8628.4
2078.11255	8615.8
2081.11938	8602.7
2084.12426	8593.5
2087.12722	8598
2090.12824	8608.2
2093.12732	8623.4
2096.12447	8607.7
2099.11969	8589.2
2102.11299	8582.9
2105.10435	8602.1
2108.09379	8589.4
2111.08131	8603.6
2114.0669	8606.5
2117.05057	8610.2
2120.03233	8600.9
2123.01216	8615.8
2125.99008	8631.3
2128.96609	8619.2
2131.94018	8654.4
2134.91236	8655.5
2137.88263	8655.7
2140.851	8631.3
2143.81746	8641.9
2146.78201	8662.7
2149.74466	8640.1
2152.7054	8603.3
2155.66425	8627.2
2158.6212	8614.2
2161.57625	8621.4
2164.52941	8603.8
2167.48067	8623.1
2170.43004	8632.1
2173.37752	8603
2176.32311	8602.5
2179.26681	8602.3
2182.20863	8594.1
2185.14856	8607.3
2188.08661	8612.1
2191.02278	8608
2193.95707	8602.8
2196.88948	8590.8
2199.82001	8589.6
2202.74867	8554.5
2205.67545	8549.4
2208.60037	8547
2211.52341	8516.8
2214.44458	8513.1
2217.36388	8507
2220.28132	8475.1
2223.1969	8474.5
2226.11061	8470.3
2229.02246	8427.2
2231.93245	8406
2234.84058	8393.5
2237.74686	8384.4
2240.65128	8399.9
2243.55385	8368.6
2246.45456	8357.3
2249.35343	8361.2
2252.25044	8327.9
2255.14561	8322.1
2258.03893	8306.4
2260.93041	8330.8
2263.82004	8276.5
2266.70783	8272.2
2269.59378	8266.6
2272.4779	8242.7
2275.36017	8225.5
2278.24061	8200.8
2281.11922	8164.1
2283.996	8145.5
2286.87094	8163.7
2289.74405	8128.8
2292.61534	8122.4
2295.4848	8100.7
2298.35243	8114.3
2301.21824	8069.1
2304.08223	8092.2
2306.94439	8069.1
2309.80474	8104
2312.66327	8066.3
2315.51999	8058.3
2318.37489	8061.1
2321.22797	8063.4
2324.07925	8052.9
2326.92871	8043.9
2329.77637	8029.7
2332.62222	7997.4
2335.46626	7992.8
2338.3085	7983.7
2341.14893	7984.3
2343.98756	7986.4
2346.8244	7973.1
2349.65943	8005.2
2352.49267	7996.8
2355.32411	7991.1
2358.15376	7988.2
2360.98161	7991.1
2363.80768	7998.2
2366.63195	7981.1
2369.45444	7979.4
2372.27514	7993.8
2375.09405	7951.6
2377.91118	7948.3
2380.72652	7920.1
2383.54009	7878.5
2386.35187	7841.2
2389.16188	7838.5
2391.97011	7811.7
2394.77657	7778.4
2397.58125	7758.5
2400.38416	7732.2
2403.18529	7721.9
2405.98466	7722.2
2408.78226	7694.1
2411.57809	7686.8
2414.37216	7679.5
2417.16446	7684.8
2419.955	7637.7
2422.74378	7643.3
2425.5308	7644.4
2428.31606	7627.8
2431.09956	7629.8
2433.88131	7614.5
2436.6613	7623.5
2439.43954	7595.7
2442.21603	7620.6
2444.99077	7598.7
2447.76377	7603.6
2450.53501	7590.1
2453.30451	7596.9
2456.07226	7598.6
2458.83827	7568.4
2461.60254	7570.5
2464.36507	7564.9
2467.12586	7566.7
2469.88492	7587.1
2472.64224	7547.3
2475.39782	7558.6
2478.15167	7545.9
2480.90379	7577.8
2483.65417	7573.2
2486.40283	7564.7
2489.14976	7601.5
2491.89497	7600
2494.63845	7616.2
2497.3802	7591.3
2500.12024	7593.1
2502.85855	7579.1
2505.59514	7570.8
2508.33002	7529.8
2511.06318	7507.9
2513.79462	7488.7
2516.52435	7462.7
2519.25237	7449.1
2521.97867	7440.4
2524.70327	7420.5
2527.42616	7413.6
2530.14734	7393.5
2532.86681	7383.3
2535.58458	7381.7
2538.30065	7374.5
2541.01501	7366.7
2543.72768	7364.2
2546.43864	7369.8
2549.14791	7334
2551.85548	7325.3
2554.56136	7321.1
2557.26554	7320.8
2559.96803	7310.5
2562.66883	7304.5
2565.36794	7307.6
2568.06536	7291.1
2570.7611	7279.1
2573.45514	7274.4
2576.14751	7258.4
2578.83819	7239.3
2581.52719	7229
2584.21451	7234.1
2586.90015	7225.1
2589.58411	7193.6
2592.2664	7205.3
2594.94701	7179.3
2597.62594	7180.6
2600.30321	7167.3
2602.9788	7152.1
2605.65273	7161.4
2608.32498	7152.3
2610.99557	7151
2613.66449	7157.6
2616.33175	7153.5
2618.99734	7138
2621.66128	7131.9
2624.32355	7131.3
2626.98416	7118.3
2629.64311	7125.4
2632.30041	7117.3
2634.95605	7092.7
2637.61004	7088.9
2640.26238	7077.9
2642.91306	7055.8
2645.56209	7037.1
2648.20948	7046.5
2650.85521	7027.7
2653.4993	7032.6
2656.14175	7029.7
2658.78255	7043.3
2661.42171	7027.3
2664.05923	7046.7
2666.6951	7046.5
2669.32934	7060.5
2671.96194	7064
2674.59291	7070.5
2677.22224	7089.2
2679.84993	7078.3
2682.476	7081.8
2685.10043	7081.8
2687.72324	7079.9
2690.34441	7076.8
2692.96396	7074.6
2695.58188	7081.9
2698.19818	7053.8
2700.81285	7070.1
2703.4259	7064
2706.03733	7057.1
2708.64714	7061
2711.25533	7060.2
2713.86191	7079.2
2716.46687	7055.5
2719.07021	7049.5
2721.67194	7066.8
2724.27206	7054.2
2726.87057	7067.5
2729.46747	7070.5
2732.06276	7069.1
2734.65644	7053.1
2737.24852	7039.1
2739.83899	7046.8
2742.42786	7068.7
2745.01513	7024.9
2747.60079	7027
2750.18486	7028.6
2752.76733	7010.7
2755.3482	7015.3
2757.92747	7025.5
2760.50515	7002.9
2763.08123	6997.2
2765.65573	6971.9
2768.22863	6979.1
2770.79994	6961.7
2773.36967	6964.9
2775.9378	6945.8
2778.50435	6943.1
2781.06932	6934.6
2783.6327	6933.9
2786.1945	6930
2788.75471	6907.1
2791.31335	6885.4
2793.87041	6907.3
2796.42589	6859.9
2798.97979	6892.4
2801.53212	6869.9
2804.08288	6867.4
2806.63206	6861.8
2809.17967	6857.4
2811.72571	6858.8
2814.27018	6863.2
2816.81308	6879.8
2819.35442	6859.9
2821.89419	6859.8
2824.43239	6873.7
2826.96904	6888.4
2829.50412	6876.9
2832.03763	6867.6
2834.56959	6875.1
2837.1	6862.8
2839.62884	6878.9
2842.15613	6906.7
2844.68186	6911
2847.20604	6956.2
2849.72867	6991.2
2852.24974	6997.6
2854.76927	6982.5
2857.28724	6958.1
2859.80367	6973.3
2862.31855	6940.7
2864.83189	6956.5
2867.34368	6934.9
2869.85393	6928
2872.36264	6896.6
2874.8698	6913.9
2877.37543	6896.2
2879.87952	6903.6
2882.38207	6907.2
2884.88308	6891.9
2887.38256	6901.6
2889.88051	6887.1
2892.37692	6898.7
2894.8718	6881.2
2897.36515	6894.3
2899.85698	6896.7
2902.34727	6912
2904.83604	6921.3
2907.32328	6916.8
2909.809	6899.5
2912.29319	6893.6
2914.77587	6880.8
2917.25702	6894.2
2919.73665	6880.5
2922.21476	6862.6
2924.69136	6859.3
2927.16644	6864.3
2929.64	6829.3
2932.11205	6819.9
2934.58258	6788.4
2937.05161	6779.5
2939.51912	6785.3
2941.98513	6736.1
2944.44962	6708.1
2946.91261	6669.9
2949.37409	6668.3
2951.83407	6653.8
2954.29254	6610.5
2956.74951	6586.7
2959.20498	6591.4
2961.65895	6577.5
2964.11142	6565.9
2966.56239	6543.6
2969.01186	6525.5
2971.45984	6513.7
2973.90632	6498.8
2976.35131	6457.2
2978.7948	6467
2981.23681	6426.3
2983.67732	6417.8
2986.11635	6399.9
2988.55388	6375.9
2990.98993	6384
2993.4245	6354.4
2995.85758	6336.9
2998.28917	6312.1
3000.71928	6300.9
3003.14791	6306.1
3005.57506	6285.9
3008.00073	6266.7
3010.42493	6257.9
3012.84764	6237
3015.26888	6262.3
3017.68865	6257.4
3020.10694	6217.8
3022.52376	6208.2
3024.9391	6184.2
3027.35298	6161
3029.76539	6172.5
3032.17632	6158.8
3034.5858	6130.8
3036.9938	6125.4
3039.40034	6116.1
3041.80542	6119.7
3044.20903	6100.3
3046.61118	6098.4
3049.01187	6093
3051.4111	6075.8
3053.80888	6053.1
3056.20519	6049.8
3058.60005	6018.9
3060.99345	6017.1
3063.3854	6012.9
3065.7759	5973.7
3068.16494	5966.1
3070.55254	5955.9
3072.93868	5931.9
3075.32338	5928.9
3077.70662	5912.3
3080.08842	5875.8
3082.46878	5883.6
3084.84769	5868.3
3087.22515	5841.3
3089.60118	5841.4
3091.97576	5838.8
3094.3489	5810
3096.72061	5822.6
3099.09087	5813.9
3101.4597	5824
3103.82709	5808.3
3106.19305	5787.9
3108.55757	5776.7
3110.92066	5761.1
3113.28232	5749.2
3115.64255	5736.4
3118.00134	5700.7
3120.35871	5718.4
3122.71466	5703
3125.06917	5693.8
3127.42226	5686.1
3129.77393	5680.2
3132.12417	5673.5
3134.47299	5682.5
3136.82039	5676.9
3139.16636	5686.8
3141.51092	5686.6
3143.85406	5672.1
3146.19579	5696.7
3148.53609	5693.4
3150.87499	5696.7
3153.21246	5689.5
3155.54853	5694.6
3157.88318	5685.6
3160.21642	5691.6
3162.54826	5697.5
3164.87868	5679.3
3167.2077	5682.9
3169.5353	5669
3171.86151	5673
3174.18631	5668.1
3176.5097	5667.6
3178.83169	5639.7
3181.15228	5671.1
3183.47147	5638.3
3185.78926	5655.7
3188.10565	5648.1
3190.42065	5642.9
3192.73424	5654.4
3195.04645	5657.9
3197.35725	5663.1
3199.66667	5647.1
3201.97469	5635.6
3204.28132	5666.8
3206.58656	5671.9
3208.8904	5677.5
3211.19287	5670.6
3213.49394	5661.3
3215.79363	5660.5
3218.09193	5666
3220.38884	5653.5
3222.68438	5657.4
3224.97853	5644.7
3227.2713	5635.9
3229.56269	5616.7
3231.8527	5627
3234.14133	5625.4
3236.42858	5599.8
3238.71446	5598.5
3240.99896	5587.2
3243.28209	5589.1
3245.56384	5567.9
3247.84423	5575.9
3250.12324	5569
3252.40088	5555.4
3254.67715	5546.3
3256.95205	5548.2
3259.22558	5531.9
3261.49775	5525.7
3263.76855	5510
3266.03799	5510
3268.30606	5505.3
3270.57277	5508.7
3272.83812	5472.2
3275.10211	5456.9
3277.36474	5453.6
3279.62601	5465.7
3281.88593	5445.1
3284.14448	5445.4
3286.40168	5440.7
3288.65753	5431.4
3290.91202	5442.3
3293.16516	5419.8
3295.41695	5392
3297.66738	5368.1
3299.91647	5354.1
3302.16421	5313.8
3304.4106	5289.2
3306.65564	5258.1
3308.89933	5223.2
3311.14169	5199.9
3313.38269	5163
3315.62236	5115.8
3317.86068	5071.4
3320.09766	5021.1
3322.3333	4968.5
3324.5676	4971.3
3326.80056	4892.4
3329.03219	4865.4
3331.26248	1.4
3333.49143	1.1
3335.71905	-0.7
