Data from AgNPs_FTO_APTES_UA_5uM_R6G_10uM_NaF_0.1M_Addition_RamanShift__2__12-27-57-248.txt Node

Date: Fri Dec 17 12:27:57 GMT 2021
User: TCL
Spectrometer: QEP01345
Trigger mode: 4
Integration Time (sec): 7.000000E0
Scans to average: 10
Electric dark correction enabled: true
Nonlinearity correction enabled: false
Boxcar width: 0
XAxis mode: Raman Shifts
Number of Pixels in Spectrum: 1044
>>>>>Begin Spectral Data<<<<<
46.04893	-1.625
50.45542	-0.725
54.85868	-1.725
59.25871	-0.325
63.6555	124.875
68.04907	131.575
72.43941	138.175
76.82654	144.075
81.21044	147.875
85.59113	153.675
89.96862	158.475
94.34289	165.275
98.71396	170.475
103.08183	171.475
107.4465	179.875
111.80798	184.175
116.16626	190.775
120.52136	192.075
124.87327	206.975
129.222	214.275
133.56755	226.075
137.90993	239.075
142.24913	261.975
146.58517	294.875
150.91804	337.375
155.24774	394.375
159.57429	488.675
163.89768	621.575
168.21792	818.075
172.53501	1102.475
176.84895	1529.075
181.15975	2142.675
185.46741	3010.275
189.77193	4138.275
194.07331	5521.175
198.37157	7116.575
202.6667	8771.075
206.9587	10460.075
211.24758	12084.775
215.53334	13684.475
219.81599	15423.675
224.09553	17328.675
228.37195	19406.675
232.64527	21745.875
236.91549	24206.375
241.18261	26721.475
245.44663	29055.875
249.70755	31149.875
253.96539	33020.775
258.22014	34594.975
262.4718	35799.875
266.72039	36713.375
270.96589	37141.675
275.20832	37109.975
279.44768	36807.975
283.68397	36353.975
287.91719	35951.375
292.14735	35625.975
296.37445	35455.875
300.59849	35454.475
304.81948	35497.375
309.03742	35525.975
313.25231	35425.575
317.46415	35024.275
321.67296	34484.575
325.87872	34032.775
330.08145	33760.775
334.28114	33802.775
338.47781	34057.575
342.67145	34453.575
346.86207	34963.075
351.04966	35610.275
355.23424	36287.075
359.4158	36939.575
363.59435	37464.775
367.76989	37802.175
371.94243	38124.875
376.11196	38359.875
380.27849	38570.975
384.44203	38812.575
388.60257	39158.375
392.76012	39517.375
396.91468	39959.775
401.06626	40537.475
405.21485	40951.975
409.36047	41001.175
413.50311	40723.675
417.64277	40626.275
421.77947	40783.875
425.9132	40944.375
430.04396	41122.175
434.17176	41297.475
438.2966	41483.475
442.41849	41971.575
446.53742	42825.275
450.6534	43797.675
454.76644	44623.075
458.87653	44844.375
462.98368	44685.775
467.08789	44151.075
471.18916	43449.375
475.2875	42706.475
479.38291	42056.375
483.4754	41668.475
487.56496	41289.975
491.6516	41171.075
495.73531	40993.975
499.81612	41167.375
503.89401	41553.575
507.96899	41745.275
512.04106	41773.975
516.11023	41591.575
520.1765	41346.175
524.23987	41110.575
528.30034	40877.575
532.35792	40569.875
536.41261	40140.375
540.46441	39785.375
544.51333	39689.875
548.55936	39952.475
552.60252	40457.175
556.64279	41139.475
560.6802	41557.675
564.71473	41813.775
568.7464	42131.575
572.7752	42800.075
576.80114	43644.275
580.82422	44796.175
584.84444	46258.575
588.86181	47714.275
592.87633	48670.875
596.888	48487.075
600.89682	47624.375
604.9028	48229.475
608.90594	51243.275
612.90624	54070.375
616.90371	51375.175
620.89834	45234.675
624.89015	42448.775
628.87913	42013.975
632.86528	41963.175
636.84862	41708.275
640.82913	41169.475
644.80683	40411.975
648.78172	40014.575
652.75379	39951.275
656.72306	40435.075
660.68952	41008.075
664.65319	40783.675
668.61405	40333.075
672.57211	40384.275
676.52738	40590.775
680.47986	40476.375
684.42955	40229.575
688.37646	40155.475
692.32058	40450.875
696.26192	41047.675
700.20048	41634.175
704.13626	41913.475
708.06928	41588.675
711.99952	41249.675
715.927	41331.975
719.85171	41543.775
723.77365	41465.975
727.69284	40939.675
731.60928	40446.875
735.52295	40272.275
739.43388	40270.275
743.34206	40393.975
747.24749	40582.275
751.15017	40864.275
755.05012	41322.375
758.94733	42124.875
762.8418	43525.775
766.73354	45569.175
770.62254	47540.675
774.50882	47968.075
778.39237	46642.175
782.27321	44528.475
786.15132	42731.475
790.02671	41521.575
793.89938	41008.975
797.76935	40865.875
801.6366	40780.275
805.50115	40833.175
809.36299	40582.575
813.22213	40284.875
817.07857	40020.075
820.93231	39814.475
824.78336	39691.675
828.63172	39715.775
832.47738	39732.175
836.32036	39847.675
840.16066	39973.975
843.99827	40115.975
847.8332	40064.575
851.66546	39981.075
855.49504	39931.275
859.32195	39960.075
863.1462	39910.575
866.96777	39823.675
870.78668	39789.575
874.60293	39876.975
878.41652	39920.475
882.22745	40095.375
886.03573	40246.575
889.84136	40331.875
893.64433	40137.675
897.44466	39962.775
901.24235	39774.575
905.0374	39712.575
908.8298	39617.775
912.61957	39668.975
916.40671	39914.675
920.19121	40311.475
923.97308	40690.075
927.75233	40972.175
931.52895	40833.775
935.30295	40489.275
939.07433	39990.975
942.84309	39651.075
946.60924	39589.075
950.37278	39502.475
954.13371	39447.475
957.89203	39284.775
961.64774	39234.175
965.40086	39231.975
969.15137	39185.775
972.89929	39220.175
976.64461	39254.675
980.38733	39436.875
984.12747	39622.675
987.86502	39921.475
991.59999	40329.775
995.33237	40844.575
999.06217	41830.775
1002.78939	42967.375
1006.51404	43789.375
1010.23611	44370.875
1013.95561	44690.575
1017.67255	44511.675
1021.38692	43959.875
1025.09872	43560.575
1028.80796	43633.575
1032.51465	44512.075
1036.21877	45460.175
1039.92035	45773.975
1043.61937	45386.875
1047.31584	44549.975
1051.00976	43528.475
1054.70114	42972.175
1058.38998	42886.275
1062.07627	43113.775
1065.76003	43370.375
1069.44126	43735.675
1073.11995	44360.275
1076.79611	44988.575
1080.46974	45414.575
1084.14085	45575.975
1087.80943	45873.675
1091.47549	46042.175
1095.13903	45906.575
1098.80005	45390.175
1102.45857	44716.475
1106.11456	44197.575
1109.76805	43857.075
1113.41903	43852.075
1117.06751	43823.675
1120.71348	43966.975
1124.35696	44161.075
1127.99793	44436.775
1131.63641	44685.775
1135.2724	44607.775
1138.90589	44439.875
1142.5369	44516.875
1146.16542	44606.175
1149.79145	44761.475
1153.415	44883.175
1157.03607	45283.275
1160.65467	46192.375
1164.27079	47751.575
1167.88443	49752.375
1171.49561	51811.975
1175.10432	54396.475
1178.71056	57612.175
1182.31434	60940.675
1185.91565	62922.975
1189.51451	63168.675
1193.11091	61938.775
1196.70485	59945.975
1200.29634	57994.975
1203.88538	56658.475
1207.47197	55837.475
1211.05612	55125.075
1214.63782	54210.575
1218.21708	53301.975
1221.79391	52527.275
1225.36829	52019.275
1228.94024	51499.275
1232.50976	50910.875
1236.07685	50319.875
1239.6415	50097.275
1243.20374	50141.075
1246.76355	50599.775
1250.32093	51410.575
1253.8759	52458.175
1257.42845	53742.675
1260.97859	55107.875
1264.52631	56584.675
1268.07163	58238.675
1271.61453	59917.775
1275.15503	61456.975
1278.69312	62830.375
1282.22882	63769.475
1285.76211	64548.275
1289.29301	65494.075
1292.82151	66968.975
1296.34761	69166.075
1299.87133	72217.375
1303.39266	75994.675
1306.9116	79921.675
1310.42815	82973.175
1313.94233	84335.075
1317.45412	83818.675
1320.96354	82344.075
1324.47058	81031.775
1327.97525	80288.675
1331.47754	79810.975
1334.97747	79599.175
1338.47502	79265.775
1341.97022	78488.875
1345.46305	77119.175
1348.95352	75948.375
1352.44163	75734.975
1355.92738	76993.875
1359.41078	79835.675
1362.89183	81947.575
1366.37053	80626.675
1369.84688	75442.575
1373.32088	68826.075
1376.79254	63973.575
1380.26186	61947.375
1383.72883	61699.575
1387.19347	61573.975
1390.65578	60866.275
1394.11575	60259.775
1397.57339	60428.075
1401.0287	61178.475
1404.48168	62157.275
1407.93234	62783.075
1411.38068	62859.875
1414.82669	61996.075
1418.27039	60519.875
1421.71177	58805.175
1425.15083	57434.075
1428.58758	56966.575
1432.02203	57638.475
1435.45416	58997.675
1438.88399	60485.775
1442.31151	61438.475
1445.73673	61780.875
1449.15965	61767.375
1452.58027	61440.675
1455.9986	61057.175
1459.41463	61083.775
1462.82837	61983.675
1466.23982	63134.775
1469.64898	64338.475
1473.05586	65174.075
1476.46045	65390.275
1479.86276	65065.475
1483.26279	64580.375
1486.66054	64382.275
1490.05602	64585.775
1493.44922	64883.975
1496.84016	65079.475
1500.22882	65404.775
1503.61521	66136.075
1506.99934	67208.475
1510.38121	68038.475
1513.76081	67988.675
1517.13816	66643.375
1520.51324	64665.775
1523.88607	63009.075
1527.25665	62280.375
1530.62498	62099.875
1533.99105	62091.675
1537.35488	61813.075
1540.71647	61166.375
1544.07581	60367.475
1547.4329	59533.375
1550.78776	58703.675
1554.14038	58160.875
1557.49077	57757.475
1560.83892	57395.675
1564.18484	57174.675
1567.52853	57124.375
1570.86999	57304.875
1574.20922	57948.275
1577.54624	58577.175
1580.88103	58968.175
1584.2136	59652.675
1587.54395	61429.875
1590.87208	64621.675
1594.19801	68582.875
1597.52172	72182.875
1600.84321	73234.575
1604.16251	70479.275
1607.47959	65434.275
1610.79447	60268.675
1614.10715	55651.475
1617.41763	52149.575
1620.7259	49868.375
1624.03199	48824.175
1627.33587	49046.375
1630.63757	50333.075
1633.93707	52910.575
1637.23439	57013.175
1640.52951	62762.075
1643.82246	69032.275
1647.11321	73097.975
1650.40179	72577.175
1653.68819	67237.975
1656.97241	59509.275
1660.25446	52598.375
1663.53433	47805.175
1666.81203	44795.475
1670.08756	42906.075
1673.36092	41716.075
1676.63211	40932.575
1679.90115	40374.575
1683.16801	39942.875
1686.43272	39657.575
1689.69527	39414.775
1692.95567	39227.575
1696.2139	39101.175
1699.46999	39003.775
1702.72392	38893.675
1705.97571	38939.375
1709.22535	38872.475
1712.47284	38851.075
1715.71819	38802.075
1718.96139	38779.675
1722.20246	38645.875
1725.44139	38521.475
1728.67818	38392.875
1731.91284	38250.475
1735.14537	38078.575
1738.37576	37927.175
1741.60403	37813.075
1744.83017	37748.775
1748.05418	37674.575
1751.27607	37585.875
1754.49584	37518.075
1757.71349	37501.275
1760.92903	37504.675
1764.14244	37536.275
1767.35375	37481.175
1770.56294	37468.175
1773.77002	37458.475
1776.97499	37413.475
1780.17785	37334.775
1783.37861	37339.675
1786.57727	37315.575
1789.77382	37175.175
1792.96828	37202.375
1796.16064	37173.075
1799.3509	37125.575
1802.53907	37095.875
1805.72514	37003.175
1808.90913	36917.975
1812.09102	36911.975
1815.27083	36843.675
1818.44856	36793.075
1821.6242	36801.375
1824.79776	36817.475
1827.96924	36766.475
1831.13864	36797.075
1834.30597	36834.975
1837.47122	36824.575
1840.6344	36833.575
1843.7955	36869.175
1846.95454	36822.175
1850.11151	36818.575
1853.26642	36808.775
1856.41926	36810.675
1859.57004	36803.775
1862.71876	36755.775
1865.86542	36760.475
1869.01003	36676.375
1872.15258	36703.775
1875.29308	36698.075
1878.43152	36678.875
1881.56792	36663.575
1884.70227	36695.675
1887.83457	36621.075
1890.96482	36615.675
1894.09304	36537.775
1897.21921	36492.375
1900.34335	36474.875
1903.46544	36461.975
1906.58551	36360.275
1909.70353	36309.975
1912.81953	36285.175
1915.93349	36173.075
1919.04543	36151.975
1922.15534	36096.975
1925.26322	36039.275
1928.36908	35973.375
1931.47292	35885.375
1934.57473	35838.175
1937.67453	35724.575
1940.77232	35669.675
1943.86808	35548.575
1946.96184	35512.375
1950.05358	35431.675
1953.14331	35339.875
1956.23103	35269.575
1959.31675	35158.075
1962.40046	35106.975
1965.48217	34978.975
1968.56188	34937.075
1971.63959	34800.575
1974.7153	34745.275
1977.78901	34646.975
1980.86073	34548.075
1983.93046	34485.075
1986.99819	34386.775
1990.06394	34365.075
1993.1277	34200.075
1996.18947	34117.675
1999.24925	34067.075
2002.30706	33947.775
2005.36288	33899.575
2008.41672	33824.575
2011.46859	33732.275
2014.51848	33651.375
2017.56639	33594.175
2020.61233	33542.675
2023.6563	33458.375
2026.6983	33380.675
2029.73833	33369.675
2032.7764	33326.275
2035.8125	33239.075
2038.84664	33202.375
2041.87881	33204.975
2044.90903	33175.075
2047.93729	33089.175
2050.96359	33083.675
2053.98794	33014.275
2057.01034	33048.075
2060.03078	33018.675
2063.04927	32993.275
2066.06582	32964.575
2069.08042	32967.075
2072.09307	32936.075
2075.10378	32911.275
2078.11255	32846.775
2081.11938	32883.975
2084.12426	32866.275
2087.12722	32833.375
2090.12824	32856.975
2093.12732	32834.975
2096.12447	32883.475
2099.11969	32885.675
2102.11299	32926.975
2105.10435	32921.975
2108.09379	32997.275
2111.08131	33043.175
2114.0669	33061.475
2117.05057	33099.275
2120.03233	33084.075
2123.01216	33152.575
2125.99008	33164.275
2128.96609	33177.275
2131.94018	33271.475
2134.91236	33215.275
2137.88263	33315.175
2140.851	33335.375
2143.81746	33383.275
2146.78201	33386.575
2149.74466	33428.375
2152.7054	33414.875
2155.66425	33432.375
2158.6212	33439.075
2161.57625	33410.775
2164.52941	33425.675
2167.48067	33407.775
2170.43004	33403.175
2173.37752	33423.075
2176.32311	33414.775
2179.26681	33438.375
2182.20863	33463.075
2185.14856	33485.675
2188.08661	33457.875
2191.02278	33465.275
2193.95707	33509.775
2196.88948	33484.775
2199.82001	33508.875
2202.74867	33457.375
2205.67545	33441.975
2208.60037	33417.175
2211.52341	33419.175
2214.44458	33352.875
2217.36388	33314.275
2220.28132	33245.875
2223.1969	33253.975
2226.11061	33172.375
2229.02246	33182.775
2231.93245	33135.675
2234.84058	33071.875
2237.74686	33029.675
2240.65128	33011.875
2243.55385	32931.475
2246.45456	32943.275
2249.35343	32834.675
2252.25044	32854.375
2255.14561	32762.275
2258.03893	32786.675
2260.93041	32704.875
2263.82004	32602.075
2266.70783	32576.775
2269.59378	32525.075
2272.4779	32485.775
2275.36017	32406.575
2278.24061	32447.075
2281.11922	32319.075
2283.996	32262.675
2286.87094	32271.075
2289.74405	32232.875
2292.61534	32213.575
2295.4848	32233.575
2298.35243	32276.475
2301.21824	32198.975
2304.08223	32277.675
2306.94439	32289.675
2309.80474	32255.175
2312.66327	32298.675
2315.51999	32288.375
2318.37489	32312.175
2321.22797	32274.675
2324.07925	32296.875
2326.92871	32227.175
2329.77637	32148.075
2332.62222	32145.975
2335.46626	32115.675
2338.3085	32063.975
2341.14893	32111.775
2343.98756	32117.175
2346.8244	32084.175
2349.65943	32118.775
2352.49267	32057.675
2355.32411	32062.775
2358.15376	32029.475
2360.98161	31971.675
2363.80768	31937.575
2366.63195	31884.575
2369.45444	31827.675
2372.27514	31833.775
2375.09405	31808.075
2377.91118	31763.775
2380.72652	31669.175
2383.54009	31651.475
2386.35187	31586.175
2389.16188	31550.975
2391.97011	31515.175
2394.77657	31517.375
2397.58125	31453.775
2400.38416	31424.275
2403.18529	31387.975
2405.98466	31332.075
2408.78226	31295.075
2411.57809	31249.175
2414.37216	31224.675
2417.16446	31223.675
2419.955	31183.175
2422.74378	31224.775
2425.5308	31153.575
2428.31606	31178.675
2431.09956	31160.475
2433.88131	31091.175
2436.6613	31106.075
2439.43954	31094.175
2442.21603	31108.975
2444.99077	31096.175
2447.76377	31112.075
2450.53501	31037.475
2453.30451	31084.575
2456.07226	31017.875
2458.83827	30991.075
2461.60254	30997.875
2464.36507	30985.575
2467.12586	31053.175
2469.88492	31040.575
2472.64224	31044.475
2475.39782	31047.575
2478.15167	31082.875
2480.90379	30983.275
2483.65417	31051.275
2486.40283	31012.475
2489.14976	31010.075
2491.89497	30989.875
2494.63845	31027.175
2497.3802	30995.675
2500.12024	30989.575
2502.85855	30959.875
2505.59514	30970.775
2508.33002	30981.675
2511.06318	30949.375
2513.79462	30940.575
2516.52435	30970.375
2519.25237	30964.575
2521.97867	30938.175
2524.70327	30926.475
2527.42616	30877.775
2530.14734	30898.375
2532.86681	30879.275
2535.58458	30864.475
2538.30065	30805.175
2541.01501	30793.375
2543.72768	30745.575
2546.43864	30722.175
2549.14791	30720.575
2551.85548	30673.575
2554.56136	30570.875
2557.26554	30610.075
2559.96803	30642.375
2562.66883	30569.275
2565.36794	30592.075
2568.06536	30585.375
2570.7611	30566.475
2573.45514	30506.475
2576.14751	30476.175
2578.83819	30473.175
2581.52719	30467.275
2584.21451	30456.875
2586.90015	30496.275
2589.58411	30359.575
2592.2664	30378.075
2594.94701	30303.675
2597.62594	30300.975
2600.30321	30208.675
2602.9788	30216.775
2605.65273	30204.575
2608.32498	30214.475
2610.99557	30174.775
2613.66449	30217.175
2616.33175	30155.175
2618.99734	30175.175
2621.66128	30168.275
2624.32355	30110.075
2626.98416	30092.975
2629.64311	30070.875
2632.30041	30126.075
2634.95605	30063.975
2637.61004	29997.075
2640.26238	29975.575
2642.91306	29968.175
2645.56209	29971.475
2648.20948	29975.375
2650.85521	30008.675
2653.4993	29984.475
2656.14175	29949.775
2658.78255	30000.675
2661.42171	29978.375
2664.05923	30006.675
2666.6951	30003.275
2669.32934	30062.875
2671.96194	30067.475
2674.59291	30116.775
2677.22224	30041.975
2679.84993	30055.275
2682.476	29990.675
2685.10043	30014.175
2687.72324	29989.075
2690.34441	29993.275
2692.96396	29980.175
2695.58188	30006.375
2698.19818	29962.875
2700.81285	29982.475
2703.4259	29978.675
2706.03733	30061.075
2708.64714	30038.175
2711.25533	30052.275
2713.86191	30077.075
2716.46687	30100.575
2719.07021	30096.675
2721.67194	30098.275
2724.27206	30079.875
2726.87057	30129.775
2729.46747	30169.175
2732.06276	30188.375
2734.65644	30162.475
2737.24852	30147.275
2739.83899	30146.275
2742.42786	30206.575
2745.01513	30141.175
2747.60079	30104.975
2750.18486	30117.975
2752.76733	30129.275
2755.3482	30060.175
2757.92747	30075.275
2760.50515	30023.675
2763.08123	30033.975
2765.65573	29956.575
2768.22863	30009.275
2770.79994	29975.575
2773.36967	30027.575
2775.9378	29927.975
2778.50435	29887.775
2781.06932	29895.575
2783.6327	29849.775
2786.1945	29871.875
2788.75471	29841.575
2791.31335	29722.875
2793.87041	29702.775
2796.42589	29600.575
2798.97979	29623.075
2801.53212	29551.475
2804.08288	29566.275
2806.63206	29495.575
2809.17967	29439.775
2811.72571	29393.175
2814.27018	29423.375
2816.81308	29383.675
2819.35442	29296.075
2821.89419	29233.575
2824.43239	29260.475
2826.96904	29190.375
2829.50412	29204.675
2832.03763	29119.875
2834.56959	29073.875
2837.1	29047.675
2839.62884	29057.575
2842.15613	29034.275
2844.68186	29060.175
2847.20604	29046.975
2849.72867	28991.175
2852.24974	29016.375
2854.76927	28978.075
2857.28724	28939.775
2859.80367	28908.775
2862.31855	28896.275
2864.83189	28852.875
2867.34368	28832.475
2869.85393	28869.375
2872.36264	28863.475
2874.8698	28874.675
2877.37543	28848.875
2879.87952	28880.475
2882.38207	28901.675
2884.88308	28926.675
2887.38256	28939.275
2889.88051	28963.575
2892.37692	28910.075
2894.8718	28917.775
2897.36515	28985.175
2899.85698	28971.475
2902.34727	29063.175
2904.83604	29090.075
2907.32328	29136.975
2909.809	29044.775
2912.29319	29082.875
2914.77587	29075.275
2917.25702	29046.075
2919.73665	29054.975
2922.21476	29077.675
2924.69136	29003.175
2927.16644	28969.075
2929.64	28971.475
2932.11205	28919.175
2934.58258	28821.275
2937.05161	28913.275
2939.51912	28939.975
2941.98513	28907.075
2944.44962	28850.375
2946.91261	28775.575
2949.37409	28833.475
2951.83407	28825.575
2954.29254	28821.275
2956.74951	28814.775
2959.20498	28715.975
2961.65895	28733.575
2964.11142	28719.575
2966.56239	28626.475
2969.01186	28631.375
2971.45984	28559.575
2973.90632	28598.275
2976.35131	28529.975
2978.7948	28521.275
2981.23681	28418.975
2983.67732	28398.875
2986.11635	28369.475
2988.55388	28270.275
2990.98993	28231.175
2993.4245	28211.475
2995.85758	28162.475
2998.28917	28073.175
3000.71928	28057.075
3003.14791	28033.375
3005.57506	28002.375
3008.00073	27961.475
3010.42493	27886.875
3012.84764	27918.675
3015.26888	27887.175
3017.68865	27848.875
3020.10694	27852.775
3022.52376	27770.475
3024.9391	27737.775
3027.35298	27738.175
3029.76539	27685.375
3032.17632	27634.075
3034.5858	27578.375
3036.9938	27545.775
3039.40034	27566.775
3041.80542	27570.175
3044.20903	27467.875
3046.61118	27473.375
3049.01187	27440.775
3051.4111	27394.075
3053.80888	27372.175
3056.20519	27324.975
3058.60005	27284.575
3060.99345	27272.675
3063.3854	27195.175
3065.7759	27114.075
3068.16494	27064.075
3070.55254	26924.575
3072.93868	26949.675
3075.32338	26904.075
3077.70662	26882.275
3080.08842	26800.175
3082.46878	26810.475
3084.84769	26752.375
3087.22515	26702.375
3089.60118	26740.875
3091.97576	26728.475
3094.3489	26692.075
3096.72061	26659.775
3099.09087	26681.475
3101.4597	26629.075
3103.82709	26642.275
3106.19305	26556.275
3108.55757	26618.875
3110.92066	26488.375
3113.28232	26462.875
3115.64255	26381.275
3118.00134	26349.575
3120.35871	26339.375
3122.71466	26276.575
3125.06917	26233.675
3127.42226	26173.775
3129.77393	26175.975
3132.12417	26158.275
3134.47299	26137.375
3136.82039	26165.775
3139.16636	26159.975
3141.51092	26110.175
3143.85406	26144.575
3146.19579	26175.275
3148.53609	26173.975
3150.87499	26223.575
3153.21246	26151.175
3155.54853	26157.875
3157.88318	26112.775
3160.21642	26151.575
3162.54826	26118.075
3164.87868	26099.675
3167.2077	26077.075
3169.5353	26094.575
3171.86151	26059.775
3174.18631	26050.675
3176.5097	26034.075
3178.83169	26006.475
3181.15228	26024.675
3183.47147	25952.975
3185.78926	25908.175
3188.10565	25923.075
3190.42065	25955.275
3192.73424	25943.975
3195.04645	25905.075
3197.35725	25926.875
3199.66667	25900.575
3201.97469	25917.675
3204.28132	25907.075
3206.58656	25921.075
3208.8904	25941.775
3211.19287	25953.175
3213.49394	25910.275
3215.79363	25865.175
3218.09193	25895.875
3220.38884	25844.775
3222.68438	25852.675
3224.97853	25805.375
3227.2713	25781.075
3229.56269	25747.075
3231.8527	25753.775
3234.14133	25703.675
3236.42858	25631.575
3238.71446	25607.475
3240.99896	25576.375
3243.28209	25617.075
3245.56384	25593.175
3247.84423	25634.875
3250.12324	25559.275
3252.40088	25567.675
3254.67715	25554.575
3256.95205	25436.875
3259.22558	25449.875
3261.49775	25447.175
3263.76855	25449.575
3266.03799	25329.875
3268.30606	25328.275
3270.57277	25313.675
3272.83812	25286.075
3275.10211	25216.175
3277.36474	25203.175
3279.62601	25229.775
3281.88593	25179.575
3284.14448	25224.875
3286.40168	25177.975
3288.65753	25129.575
3290.91202	25098.175
3293.16516	25039.275
3295.41695	24987.975
3297.66738	24853.975
3299.91647	24758.475
3302.16421	24605.675
3304.4106	24565.475
3306.65564	24409.375
3308.89933	24240.375
3311.14169	24104.075
3313.38269	23895.275
3315.62236	23815.575
3317.86068	23619.275
3320.09766	23381.175
3322.3333	23200.475
3324.5676	23203.075
3326.80056	22795.375
3329.03219	22700.075
3331.26248	6.675
3333.49143	0.775
3335.71905	-0.825
