Data from AgNPs_FTO_APTES_UA_1uM_R6G_10uM_NaF_0.1M_Addition_RamanShift__0__11-03-57-151.txt Node

Date: Fri Dec 17 11:03:57 GMT 2021
User: TCL
Spectrometer: QEP01345
Trigger mode: 4
Integration Time (sec): 7.000000E0
Scans to average: 10
Electric dark correction enabled: true
Nonlinearity correction enabled: false
Boxcar width: 0
XAxis mode: Raman Shifts
Number of Pixels in Spectrum: 1044
>>>>>Begin Spectral Data<<<<<
46.04893	-0.6
50.45542	0.4
54.85868	-1.4
59.25871	0.4
63.6555	64.5
68.04907	69
72.43941	69.3
76.82654	76.4
81.21044	76.6
85.59113	81.8
89.96862	84.7
94.34289	89.7
98.71396	93.8
103.08183	93.3
107.4465	94
111.80798	96.7
116.16626	98.2
120.52136	96.2
124.87327	102.2
129.222	106.9
133.56755	108.9
137.90993	116.4
142.24913	126.5
146.58517	136.4
150.91804	150.6
155.24774	177.8
159.57429	216.2
163.89768	265
168.21792	340
172.53501	455.9
176.84895	624.3
181.15975	864
185.46741	1193.5
189.77193	1662.1
194.07331	2222.3
198.37157	2874.6
202.6667	3546.5
206.9587	4235.3
211.24758	4940.5
215.53334	5598.7
219.81599	6356.2
224.09553	7130.5
228.37195	8000.1
232.64527	8964.6
236.91549	9985.6
241.18261	10964.1
245.44663	11870.4
249.70755	12701.1
253.96539	13443.2
258.22014	14014.2
262.4718	14481.2
266.72039	14768.2
270.96589	14923.8
275.20832	14845.4
279.44768	14678.6
283.68397	14465.6
287.91719	14197.7
292.14735	14062.9
296.37445	13991
300.59849	14030.5
304.81948	14146.5
309.03742	14272.1
313.25231	14225.4
317.46415	14075.3
321.67296	13850
325.87872	13648.9
330.08145	13571.1
334.28114	13582.6
338.47781	13697.6
342.67145	13863.8
346.86207	14061.7
351.04966	14330.5
355.23424	14596.2
359.4158	14844.2
363.59435	15061.5
367.76989	15136.3
371.94243	15207.4
376.11196	15220.2
380.27849	15236.9
384.44203	15285
388.60257	15347
392.76012	15427.8
396.91468	15572.9
401.06626	15764.5
405.21485	15903.6
409.36047	15891.9
413.50311	15763.4
417.64277	15574.2
421.77947	15530.4
425.9132	15586.5
430.04396	15642.6
434.17176	15680.9
438.2966	15742.6
442.41849	15879.4
446.53742	16107.5
450.6534	16402.3
454.76644	16588.1
458.87653	16673.7
462.98368	16679.6
467.08789	16562.3
471.18916	16450.5
475.2875	16269.6
479.38291	16125.5
483.4754	16027
487.56496	15986.1
491.6516	15996.1
495.73531	16036.6
499.81612	16034.8
503.89401	16144.5
507.96899	16123.3
512.04106	16145.4
516.11023	16168.8
520.1765	16190.1
524.23987	16202.4
528.30034	16172.8
532.35792	16102
536.41261	15992.7
540.46441	15847.1
544.51333	15753.7
548.55936	15757.8
552.60252	15897.2
556.64279	16040.4
560.6802	16153.3
564.71473	16181.9
568.7464	16223
572.7752	16315.8
576.80114	16234.2
580.82422	16259.6
584.84444	16414.4
588.86181	16721.7
592.87633	17016.3
596.888	17253.4
600.89682	17423.3
604.9028	18073.3
608.90594	19805.8
612.90624	21685.8
616.90371	20994.9
620.89834	18247.5
624.89015	16869.5
628.87913	16586.9
632.86528	16574.5
636.84862	16596.8
640.82913	16441.6
644.80683	16229.9
648.78172	16072.9
652.75379	16122.3
656.72306	16300.7
660.68952	16588.5
664.65319	16563.4
668.61405	16376.1
672.57211	16374.2
676.52738	16446.3
680.47986	16455.1
684.42955	16384.2
688.37646	16350.6
692.32058	16453
696.26192	16676.9
700.20048	16898.4
704.13626	17024.9
708.06928	16962
711.99952	16838.7
715.927	16785.4
719.85171	16833.1
723.77365	16777.3
727.69284	16670.1
731.60928	16529.5
735.52295	16475.7
739.43388	16489.5
743.34206	16573.1
747.24749	16591.3
751.15017	16626.5
755.05012	16687.6
758.94733	16943.9
762.8418	17461.9
766.73354	18267.6
770.62254	19184.1
774.50882	19628.4
778.39237	19326.4
782.27321	18562.6
786.15132	17731.3
790.02671	17182.4
793.89938	16897.9
797.76935	16729.9
801.6366	16664.3
805.50115	16599.7
809.36299	16515.2
813.22213	16452.2
817.07857	16413.5
820.93231	16410.3
824.78336	16430.1
828.63172	16441.9
832.47738	16504.4
836.32036	16532.4
840.16066	16636.7
843.99827	16667.7
847.8332	16639.3
851.66546	16588.4
855.49504	16574.3
859.32195	16581.1
863.1462	16575.9
866.96777	16543.2
870.78668	16534.6
874.60293	16553.1
878.41652	16605.9
882.22745	16693
886.03573	16737
889.84136	16756.8
893.64433	16725.8
897.44466	16685.6
901.24235	16643.7
905.0374	16629.4
908.8298	16631.4
912.61957	16655.2
916.40671	16735.6
920.19121	16792.4
923.97308	16942.1
927.75233	17081.9
931.52895	17207.4
935.30295	17154.8
939.07433	16918.9
942.84309	16741.2
946.60924	16643.5
950.37278	16597.1
954.13371	16497
957.89203	16418.1
961.64774	16365.5
965.40086	16357
969.15137	16359.4
972.89929	16352.9
976.64461	16459.7
980.38733	16543.8
984.12747	16584.4
987.86502	16713.9
991.59999	16834.1
995.33237	17015.1
999.06217	17293.8
1002.78939	17602.4
1006.51404	17794.7
1010.23611	17891.3
1013.95561	17956.3
1017.67255	17936.9
1021.38692	17858
1025.09872	17853.3
1028.80796	17954.5
1032.51465	18314.1
1036.21877	18594.1
1039.92035	18713.4
1043.61937	18653.1
1047.31584	18390.8
1051.00976	18137.4
1054.70114	17981.5
1058.38998	17915.6
1062.07627	17947.9
1065.76003	18023.6
1069.44126	18060.7
1073.11995	18309.4
1076.79611	18518.1
1080.46974	18631.7
1084.14085	18700
1087.80943	18793.9
1091.47549	18770
1095.13903	18650.1
1098.80005	18438.4
1102.45857	18224.9
1106.11456	18016
1109.76805	17895.6
1113.41903	17971.7
1117.06751	17972.6
1120.71348	18088.6
1124.35696	18203.3
1127.99793	18352.7
1131.63641	18392.9
1135.2724	18195.6
1138.90589	17990
1142.5369	17814
1146.16542	17704.8
1149.79145	17629.6
1153.415	17586.6
1157.03607	17571.4
1160.65467	17673.2
1164.27079	17999.8
1167.88443	18422.4
1171.49561	19012.4
1175.10432	19854.6
1178.71056	21066
1182.31434	22187.7
1185.91565	22828.5
1189.51451	23033.1
1193.11091	22757.9
1196.70485	22137.5
1200.29634	21448.9
1203.88538	20878.4
1207.47197	20220.2
1211.05612	19702
1214.63782	19343.7
1218.21708	19169.7
1221.79391	19055.5
1225.36829	19037.9
1228.94024	18986.4
1232.50976	18896.4
1236.07685	18786.9
1239.6415	18780.5
1243.20374	18777.6
1246.76355	18937.1
1250.32093	19078.1
1253.8759	19345.3
1257.42845	19668.7
1260.97859	20067.1
1264.52631	20468.4
1268.07163	20863.4
1271.61453	21230.1
1275.15503	21532.3
1278.69312	21783.5
1282.22882	21942.5
1285.76211	22063.7
1289.29301	22277.2
1292.82151	22562.5
1296.34761	22918.8
1299.87133	23485.8
1303.39266	24278.4
1306.9116	25275.1
1310.42815	26307.6
1313.94233	26925.6
1317.45412	26706.8
1320.96354	25971.2
1324.47058	25198.7
1327.97525	24397.1
1331.47754	23754.2
1334.97747	23407.3
1338.47502	23345.9
1341.97022	23350.2
1345.46305	23616.7
1348.95352	24119.1
1352.44163	24882
1355.92738	25853.5
1359.41078	27195.2
1362.89183	28402.8
1366.37053	28162.5
1369.84688	26291.2
1373.32088	23972.9
1376.79254	22390.8
1380.26186	21583.6
1383.72883	21263.1
1387.19347	21017.1
1390.65578	20605.4
1394.11575	20187.9
1397.57339	19857.4
1401.0287	19666.1
1404.48168	19617.7
1407.93234	19625.4
1411.38068	19666.5
1414.82669	19672
1418.27039	19590.2
1421.71177	19497.5
1425.15083	19338
1428.58758	19285.4
1432.02203	19356.8
1435.45416	19502.9
1438.88399	19648.1
1442.31151	19682.2
1445.73673	19713.7
1449.15965	19680.6
1452.58027	19584.4
1455.9986	19459
1459.41463	19444.1
1462.82837	19533.5
1466.23982	19743.6
1469.64898	20002.8
1473.05586	20235.7
1476.46045	20424.9
1479.86276	20603.5
1483.26279	20701
1486.66054	20847.3
1490.05602	21107.5
1493.44922	21351.6
1496.84016	21671.2
1500.22882	22172.3
1503.61521	22919.9
1506.99934	23844.6
1510.38121	24665.3
1513.76081	25068.8
1517.13816	24641.1
1520.51324	23529.2
1523.88607	22269.8
1527.25665	21411.8
1530.62498	20939
1533.99105	20626
1537.35488	20380.3
1540.71647	20149.3
1544.07581	20017.9
1547.4329	19893.8
1550.78776	19842.1
1554.14038	19820.8
1557.49077	19834.6
1560.83892	19866.9
1564.18484	20005.1
1567.52853	20152.5
1570.86999	20375.8
1574.20922	20525.3
1577.54624	20619.3
1580.88103	20448.4
1584.2136	20226.6
1587.54395	20218.2
1590.87208	20599.7
1594.19801	21187.1
1597.52172	21858.7
1600.84321	22167.1
1604.16251	21808.2
1607.47959	21040.7
1610.79447	20165.3
1614.10715	19299.2
1617.41763	18579.8
1620.7259	18120.4
1624.03199	17943.6
1627.33587	17985.7
1630.63757	18219.1
1633.93707	18636.9
1637.23439	19319.5
1640.52951	20276.9
1643.82246	21525.7
1647.11321	22772.9
1650.40179	23281.4
1653.68819	22661.7
1656.97241	21013.7
1660.25446	19342.2
1663.53433	18140.7
1666.81203	17380.6
1670.08756	16937.1
1673.36092	16573.5
1676.63211	16317
1679.90115	16163.3
1683.16801	16066.1
1686.43272	15980.4
1689.69527	15960.6
1692.95567	16034.9
1696.2139	16210.5
1699.46999	16379.8
1702.72392	16396.2
1705.97571	16222.2
1709.22535	15957.9
1712.47284	15855.6
1715.71819	15775.2
1718.96139	15714.4
1722.20246	15630.5
1725.44139	15614.7
1728.67818	15573
1731.91284	15526.1
1735.14537	15448.5
1738.37576	15441.2
1741.60403	15411.2
1744.83017	15385.1
1748.05418	15422.5
1751.27607	15467.7
1754.49584	15546.1
1757.71349	15689.7
1760.92903	15742.2
1764.14244	15724.8
1767.35375	15695.6
1770.56294	15712.3
1773.77002	15634.5
1776.97499	15459.9
1780.17785	15367.2
1783.37861	15265.4
1786.57727	15197.1
1789.77382	15154.8
1792.96828	15154.9
1796.16064	15134.3
1799.3509	15124.4
1802.53907	15099.9
1805.72514	15042.2
1808.90913	14997.5
1812.09102	15007.4
1815.27083	14972.9
1818.44856	14957.3
1821.6242	14934.6
1824.79776	14932.5
1827.96924	14892.1
1831.13864	14876.8
1834.30597	14891.1
1837.47122	14887.6
1840.6344	14908
1843.7955	14923.2
1846.95454	14893
1850.11151	14891.9
1853.26642	14899.7
1856.41926	14858.8
1859.57004	14842.4
1862.71876	14856.7
1865.86542	14815.1
1869.01003	14829
1872.15258	14848.3
1875.29308	14837.7
1878.43152	14821
1881.56792	14797.7
1884.70227	14802.2
1887.83457	14766.8
1890.96482	14777.3
1894.09304	14774.5
1897.21921	14751.6
1900.34335	14777.3
1903.46544	14748.5
1906.58551	14751
1909.70353	14736.9
1912.81953	14705.8
1915.93349	14685.7
1919.04543	14657.3
1922.15534	14627.1
1925.26322	14619.3
1928.36908	14610.2
1931.47292	14577.5
1934.57473	14564.1
1937.67453	14534.9
1940.77232	14519.6
1943.86808	14464.6
1946.96184	14474.6
1950.05358	14428
1953.14331	14379.6
1956.23103	14350.1
1959.31675	14335.7
1962.40046	14269
1965.48217	14271.6
1968.56188	14235.7
1971.63959	14205.8
1974.7153	14168.6
1977.78901	14101.3
1980.86073	14096.1
1983.93046	14037.4
1986.99819	13997.2
1990.06394	13952.9
1993.1277	13948.7
1996.18947	13915.8
1999.24925	13893.4
2002.30706	13847.6
2005.36288	13813.9
2008.41672	13787
2011.46859	13749
2014.51848	13726.1
2017.56639	13695.8
2020.61233	13663.3
2023.6563	13672.5
2026.6983	13641.6
2029.73833	13578.6
2032.7764	13559.3
2035.8125	13567.3
2038.84664	13540.4
2041.87881	13571.5
2044.90903	13506.4
2047.93729	13495.2
2050.96359	13494.7
2053.98794	13458.9
2057.01034	13455
2060.03078	13465.4
2063.04927	13413.6
2066.06582	13450.8
2069.08042	13441.8
2072.09307	13463.5
2075.10378	13402.9
2078.11255	13442
2081.11938	13429.3
2084.12426	13420.7
2087.12722	13433.2
2090.12824	13434.9
2093.12732	13451.7
2096.12447	13475.4
2099.11969	13438.3
2102.11299	13473.3
2105.10435	13498.4
2108.09379	13475.9
2111.08131	13509.1
2114.0669	13534.5
2117.05057	13528
2120.03233	13527.9
2123.01216	13564.7
2125.99008	13547.4
2128.96609	13593.7
2131.94018	13602.7
2134.91236	13618.2
2137.88263	13628.2
2140.851	13641.9
2143.81746	13671.8
2146.78201	13679.1
2149.74466	13677.5
2152.7054	13690.9
2155.66425	13681.9
2158.6212	13704.4
2161.57625	13699.1
2164.52941	13667.5
2167.48067	13693.3
2170.43004	13701.5
2173.37752	13695.2
2176.32311	13685.1
2179.26681	13692.4
2182.20863	13691
2185.14856	13691.5
2188.08661	13733.6
2191.02278	13699.4
2193.95707	13710.4
2196.88948	13700.5
2199.82001	13713.9
2202.74867	13711.4
2205.67545	13719.9
2208.60037	13711.1
2211.52341	13659
2214.44458	13649.7
2217.36388	13623.5
2220.28132	13615.6
2223.1969	13604.4
2226.11061	13570
2229.02246	13584.4
2231.93245	13522.3
2234.84058	13526.1
2237.74686	13515.3
2240.65128	13528.6
2243.55385	13514
2246.45456	13498.6
2249.35343	13499.8
2252.25044	13475.8
2255.14561	13442.7
2258.03893	13483.3
2260.93041	13468.7
2263.82004	13411.5
2266.70783	13412.4
2269.59378	13377.9
2272.4779	13332.6
2275.36017	13309.3
2278.24061	13317.8
2281.11922	13291.6
2283.996	13295.5
2286.87094	13259.8
2289.74405	13235.4
2292.61534	13234.1
2295.4848	13204.1
2298.35243	13217.1
2301.21824	13225.1
2304.08223	13203.9
2306.94439	13242.8
2309.80474	13201.3
2312.66327	13220.7
2315.51999	13236.5
2318.37489	13253.2
2321.22797	13216.2
2324.07925	13208
2326.92871	13180.7
2329.77637	13188.3
2332.62222	13156.9
2335.46626	13154.4
2338.3085	13138.4
2341.14893	13121.1
2343.98756	13130.4
2346.8244	13121.4
2349.65943	13133.5
2352.49267	13081.9
2355.32411	13081
2358.15376	13056.4
2360.98161	13060.2
2363.80768	13048.1
2366.63195	13061.7
2369.45444	13040.2
2372.27514	13016.2
2375.09405	13018.4
2377.91118	13001.8
2380.72652	12987.2
2383.54009	12983.2
2386.35187	12953.9
2389.16188	12938.2
2391.97011	12915.2
2394.77657	12881.9
2397.58125	12888.9
2400.38416	12852.6
2403.18529	12833.7
2405.98466	12829.8
2408.78226	12777.9
2411.57809	12804
2414.37216	12784.6
2417.16446	12763.2
2419.955	12759.9
2422.74378	12729.1
2425.5308	12734.1
2428.31606	12720.2
2431.09956	12724.4
2433.88131	12709.4
2436.6613	12710.1
2439.43954	12707.9
2442.21603	12703
2444.99077	12675.3
2447.76377	12675.1
2450.53501	12661.4
2453.30451	12693.8
2456.07226	12627.7
2458.83827	12649.8
2461.60254	12652
2464.36507	12651.5
2467.12586	12637.4
2469.88492	12636
2472.64224	12631.5
2475.39782	12664.9
2478.15167	12691.2
2480.90379	12655.7
2483.65417	12628.1
2486.40283	12628.8
2489.14976	12624.8
2491.89497	12596.6
2494.63845	12647.4
2497.3802	12646.5
2500.12024	12599.5
2502.85855	12595.1
2505.59514	12591.3
2508.33002	12581.4
2511.06318	12546.1
2513.79462	12560.3
2516.52435	12569.8
2519.25237	12529.6
2521.97867	12510
2524.70327	12527.6
2527.42616	12508.5
2530.14734	12498.3
2532.86681	12482.9
2535.58458	12492.4
2538.30065	12445.2
2541.01501	12420.8
2543.72768	12404
2546.43864	12405.4
2549.14791	12390.3
2551.85548	12421.1
2554.56136	12384.5
2557.26554	12386.6
2559.96803	12357
2562.66883	12376.5
2565.36794	12363.9
2568.06536	12352.6
2570.7611	12343.8
2573.45514	12326.4
2576.14751	12284.4
2578.83819	12243.9
2581.52719	12277.8
2584.21451	12269
2586.90015	12253.3
2589.58411	12241.2
2592.2664	12202.1
2594.94701	12195.5
2597.62594	12151.2
2600.30321	12165.5
2602.9788	12143.7
2605.65273	12130.2
2608.32498	12140.2
2610.99557	12116.1
2613.66449	12108.9
2616.33175	12076.2
2618.99734	12088.1
2621.66128	12092.7
2624.32355	12045.7
2626.98416	12024
2629.64311	12037.1
2632.30041	12033.2
2634.95605	12043.7
2637.61004	12004
2640.26238	11984.1
2642.91306	11956.1
2645.56209	11962.7
2648.20948	11967.2
2650.85521	11957.9
2653.4993	11959.9
2656.14175	11940.1
2658.78255	11965.4
2661.42171	11942.9
2664.05923	11945.6
2666.6951	11939.8
2669.32934	11953.6
2671.96194	11968
2674.59291	11969
2677.22224	11974.4
2679.84993	11970.6
2682.476	11981.8
2685.10043	11960.3
2687.72324	11957.2
2690.34441	11971.5
2692.96396	11945.7
2695.58188	11980.8
2698.19818	11939.6
2700.81285	11958.6
2703.4259	12084.1
2706.03733	12258.9
2708.64714	12154.6
2711.25533	12097.4
2713.86191	12035.1
2716.46687	12059.9
2719.07021	12034.4
2721.67194	12030
2724.27206	11991.9
2726.87057	12027.8
2729.46747	12027.7
2732.06276	12047.9
2734.65644	11996.8
2737.24852	11998.5
2739.83899	11990
2742.42786	12010.8
2745.01513	12006.2
2747.60079	12027
2750.18486	12001.5
2752.76733	12021.8
2755.3482	11979.4
2757.92747	11994.8
2760.50515	11982.5
2763.08123	11990.7
2765.65573	11985
2768.22863	11989.4
2770.79994	11970.6
2773.36967	11949.5
2775.9378	11938.3
2778.50435	11931.4
2781.06932	11892.7
2783.6327	11910.1
2786.1945	11877.3
2788.75471	11900.8
2791.31335	11848.9
2793.87041	11847.7
2796.42589	11834.6
2798.97979	11830.2
2801.53212	11794.8
2804.08288	11795.9
2806.63206	11715.4
2809.17967	11762.8
2811.72571	11735.3
2814.27018	11712.4
2816.81308	11695.6
2819.35442	11717.1
2821.89419	11690.4
2824.43239	11672.8
2826.96904	11659.2
2829.50412	11649.4
2832.03763	11630.7
2834.56959	11659.9
2837.1	11612.2
2839.62884	11650.6
2842.15613	11681.2
2844.68186	11696.5
2847.20604	11716.7
2849.72867	11729.5
2852.24974	11758.6
2854.76927	11791.3
2857.28724	11859.3
2859.80367	11822.2
2862.31855	11789.7
2864.83189	11778.3
2867.34368	11791.1
2869.85393	11822
2872.36264	11805.9
2874.8698	11832.5
2877.37543	11818.7
2879.87952	11844.5
2882.38207	11857
2884.88308	11871
2887.38256	11878.9
2889.88051	11879.4
2892.37692	11894
2894.8718	11912.3
2897.36515	11930.5
2899.85698	11899.2
2902.34727	11895.5
2904.83604	11911.5
2907.32328	11933
2909.809	11898.1
2912.29319	11895
2914.77587	11907.2
2917.25702	11893.2
2919.73665	11883.6
2922.21476	11878.9
2924.69136	11856.3
2927.16644	11886.3
2929.64	11845.3
2932.11205	11852.2
2934.58258	11810.4
2937.05161	11841.8
2939.51912	11801.5
2941.98513	11775
2944.44962	11734.8
2946.91261	11668.2
2949.37409	11689.1
2951.83407	11653.9
2954.29254	11620.3
2956.74951	11600.6
2959.20498	11588
2961.65895	11560.2
2964.11142	11537.5
2966.56239	11499.7
2969.01186	11495.1
2971.45984	11453.6
2973.90632	11435.3
2976.35131	11375.7
2978.7948	11371.5
2981.23681	11330.6
2983.67732	11304.9
2986.11635	11289
2988.55388	11269.9
2990.98993	11220.9
2993.4245	11201.4
2995.85758	11194.7
2998.28917	11178.6
3000.71928	11147.6
3003.14791	11133.8
3005.57506	11144.3
3008.00073	11097.5
3010.42493	11084.1
3012.84764	11088.3
3015.26888	11076.1
3017.68865	11041.2
3020.10694	11039.3
3022.52376	11014
3024.9391	11002
3027.35298	11005.2
3029.76539	10948.7
3032.17632	10954.8
3034.5858	10929.3
3036.9938	10935.3
3039.40034	10924.6
3041.80542	10895.9
3044.20903	10897.3
3046.61118	10873.7
3049.01187	10838.7
3051.4111	10858.6
3053.80888	10825.5
3056.20519	10819.1
3058.60005	10803
3060.99345	10792.3
3063.3854	10769.9
3065.7759	10761.1
3068.16494	10732.2
3070.55254	10725.9
3072.93868	10736.8
3075.32338	10675.5
3077.70662	10699.9
3080.08842	10696.3
3082.46878	10663.5
3084.84769	10661.3
3087.22515	10646.3
3089.60118	10643
3091.97576	10643.4
3094.3489	10631.1
3096.72061	10621.6
3099.09087	10652.6
3101.4597	10636.7
3103.82709	10644.5
3106.19305	10618.3
3108.55757	10643.3
3110.92066	10601.9
3113.28232	10572.6
3115.64255	10559.5
3118.00134	10526.9
3120.35871	10547.4
3122.71466	10535.9
3125.06917	10526.8
3127.42226	10497.6
3129.77393	10535.5
3132.12417	10517.2
3134.47299	10521.4
3136.82039	10500.1
3139.16636	10520.5
3141.51092	10518.8
3143.85406	10514.7
3146.19579	10527.4
3148.53609	10512
3150.87499	10524.4
3153.21246	10544.1
3155.54853	10582.8
3157.88318	10556
3160.21642	10554.3
3162.54826	10534.8
3164.87868	10541.9
3167.2077	10534.8
3169.5353	10522.6
3171.86151	10523.1
3174.18631	10546.9
3176.5097	10498.1
3178.83169	10485.2
3181.15228	10503.9
3183.47147	10486.9
3185.78926	10494.7
3188.10565	10481
3190.42065	10501.5
3192.73424	10477.8
3195.04645	10475.4
3197.35725	10502.7
3199.66667	10496.7
3201.97469	10492.4
3204.28132	10514.8
3206.58656	10509.1
3208.8904	10501.7
3211.19287	10508.2
3213.49394	10493.9
3215.79363	10494.4
3218.09193	10516.8
3220.38884	10543.5
3222.68438	10584.5
3224.97853	10535.4
3227.2713	10509
3229.56269	10494.6
3231.8527	10505.4
3234.14133	10485.7
3236.42858	10456.4
3238.71446	10446
3240.99896	10408.4
3243.28209	10440.5
3245.56384	10438.8
3247.84423	10430.4
3250.12324	10420.1
3252.40088	10414.4
3254.67715	10415
3256.95205	10421.1
3259.22558	10402.5
3261.49775	10418.8
3263.76855	10390.8
3266.03799	10369.4
3268.30606	10376.5
3270.57277	10344.5
3272.83812	10336.4
3275.10211	10342.3
3277.36474	10332.9
3279.62601	10328.2
3281.88593	10303.1
3284.14448	10298.7
3286.40168	10268.7
3288.65753	10278.4
3290.91202	10256.5
3293.16516	10207.6
3295.41695	10217.5
3297.66738	10147.1
3299.91647	10095.2
3302.16421	10033.9
3304.4106	10025
3306.65564	9957.9
3308.89933	9922.9
3311.14169	9842.4
3313.38269	9823.2
3315.62236	9744.2
3317.86068	9671.2
3320.09766	9565.3
3322.3333	9485.6
3324.5676	9520.2
3326.80056	9410.4
3329.03219	9353.2
3331.26248	2.4
3333.49143	0.8
3335.71905	-0.2
