Data from AgNPs_FTO_APTES_UA_10uM_R6G_10uM_NaF_0.1M_Addition_RamanShift__6__13-16-57-304.txt Node

Date: Fri Dec 17 13:16:57 GMT 2021
User: TCL
Spectrometer: QEP01345
Trigger mode: 4
Integration Time (sec): 7.000000E0
Scans to average: 10
Electric dark correction enabled: true
Nonlinearity correction enabled: false
Boxcar width: 0
XAxis mode: Raman Shifts
Number of Pixels in Spectrum: 1044
>>>>>Begin Spectral Data<<<<<
46.04893	0.1875
50.45542	-0.0125
54.85868	-1.0125
59.25871	-0.3125
63.6555	99.2875
68.04907	100.8875
72.43941	106.2875
76.82654	112.3875
81.21044	112.1875
85.59113	120.7875
89.96862	124.4875
94.34289	126.3875
98.71396	130.2875
103.08183	134.2875
107.4465	137.0875
111.80798	140.5875
116.16626	145.0875
120.52136	148.1875
124.87327	163.1875
129.222	172.0875
133.56755	180.8875
137.90993	196.2875
142.24913	214.5875
146.58517	243.2875
150.91804	277.3875
155.24774	332.4875
159.57429	416.4875
163.89768	534.3875
168.21792	706.3875
172.53501	964.0875
176.84895	1352.4875
181.15975	1895.2875
185.46741	2655.7875
189.77193	3660.5875
194.07331	4922.7875
198.37157	6350.8875
202.6667	7872.8875
206.9587	9383.1875
211.24758	10829.9875
215.53334	12286.8875
219.81599	13818.3875
224.09553	15506.7875
228.37195	17346.8875
232.64527	19470.6875
236.91549	21631.8875
241.18261	23904.1875
245.44663	26102.9875
249.70755	28043.0875
253.96539	29722.8875
258.22014	31159.0875
262.4718	32285.9875
266.72039	33034.5875
270.96589	33444.9875
275.20832	33440.5875
279.44768	33178.8875
283.68397	32765.2875
287.91719	32289.9875
292.14735	32025.9875
296.37445	31833.0875
300.59849	31787.9875
304.81948	31787.5875
309.03742	31750.9875
313.25231	31603.1875
317.46415	31237.3875
321.67296	30791.3875
325.87872	30444.8875
330.08145	30253.4875
334.28114	30398.4875
338.47781	30693.7875
342.67145	31036.4875
346.86207	31527.9875
351.04966	32084.6875
355.23424	32672.3875
359.4158	33229.3875
363.59435	33718.3875
367.76989	34048.0875
371.94243	34343.8875
376.11196	34503.9875
380.27849	34633.1875
384.44203	34812.9875
388.60257	35084.6875
392.76012	35407.3875
396.91468	35752.8875
401.06626	36143.2875
405.21485	36465.9875
409.36047	36381.7875
413.50311	36083.5875
417.64277	35888.9875
421.77947	35864.5875
425.9132	36040.9875
430.04396	36232.0875
434.17176	36324.8875
438.2966	36539.5875
442.41849	36872.1875
446.53742	37390.7875
450.6534	38043.3875
454.76644	38495.7875
458.87653	38771.7875
462.98368	38758.2875
467.08789	38497.4875
471.18916	38116.3875
475.2875	37687.7875
479.38291	37329.3875
483.4754	37036.5875
487.56496	36813.1875
491.6516	36694.2875
495.73531	36629.0875
499.81612	36749.2875
503.89401	37034.7875
507.96899	37227.4875
512.04106	37286.2875
516.11023	37303.5875
520.1765	37124.0875
524.23987	37025.7875
528.30034	36825.8875
532.35792	36621.4875
536.41261	36433.0875
540.46441	36135.9875
544.51333	36072.4875
548.55936	36213.5875
552.60252	36582.0875
556.64279	36961.7875
560.6802	37313.8875
564.71473	37429.4875
568.7464	37638.9875
572.7752	38035.0875
576.80114	38511.6875
580.82422	39176.9875
584.84444	40072.4875
588.86181	41065.7875
592.87633	41703.6875
596.888	41576.7875
600.89682	40965.5875
604.9028	41568.6875
608.90594	44197.6875
612.90624	46983.7875
616.90371	45269.8875
620.89834	40306.3875
624.89015	37890.0875
628.87913	37446.4875
632.86528	37582.9875
636.84862	37751.0875
640.82913	37470.9875
644.80683	36967.3875
648.78172	36529.4875
652.75379	36543.4875
656.72306	36898.7875
660.68952	37327.1875
664.65319	37232.8875
668.61405	36814.2875
672.57211	36862.8875
676.52738	37104.9875
680.47986	37098.2875
684.42955	36903.2875
688.37646	36779.8875
692.32058	36954.8875
696.26192	37367.8875
700.20048	37761.2875
704.13626	37943.6875
708.06928	37830.8875
711.99952	37562.1875
715.927	37547.6875
719.85171	37561.3875
723.77365	37522.8875
727.69284	37243.3875
731.60928	36824.3875
735.52295	36664.8875
739.43388	36640.1875
743.34206	36744.2875
747.24749	36879.8875
751.15017	37075.7875
755.05012	37370.1875
758.94733	37889.0875
762.8418	39019.4875
766.73354	40680.5875
770.62254	42475.8875
774.50882	43117.8875
778.39237	42357.8875
782.27321	40725.4875
786.15132	39235.4875
790.02671	38160.5875
793.89938	37613.9875
797.76935	37365.7875
801.6366	37239.7875
805.50115	37135.9875
809.36299	36997.3875
813.22213	36786.3875
817.07857	36635.0875
820.93231	36526.5875
824.78336	36469.9875
828.63172	36480.1875
832.47738	36410.4875
836.32036	36471.0875
840.16066	36502.9875
843.99827	36527.6875
847.8332	36506.5875
851.66546	36479.5875
855.49504	36570.4875
859.32195	36593.5875
863.1462	36614.9875
866.96777	36575.9875
870.78668	36629.7875
874.60293	36694.9875
878.41652	36754.5875
882.22745	36871.2875
886.03573	36991.7875
889.84136	37118.7875
893.64433	36964.2875
897.44466	36826.1875
901.24235	36723.5875
905.0374	36605.0875
908.8298	36599.9875
912.61957	36582.1875
916.40671	36644.8875
920.19121	36837.3875
923.97308	37045.1875
927.75233	37174.8875
931.52895	37113.3875
935.30295	36884.3875
939.07433	36519.5875
942.84309	36249.8875
946.60924	36128.3875
950.37278	36036.6875
954.13371	35987.3875
957.89203	35909.5875
961.64774	35894.0875
965.40086	35854.5875
969.15137	35785.2875
972.89929	35836.3875
976.64461	35847.0875
980.38733	35954.1875
984.12747	36056.0875
987.86502	36156.1875
991.59999	36312.3875
995.33237	36561.1875
999.06217	36960.0875
1002.78939	37524.8875
1006.51404	38061.1875
1010.23611	38542.7875
1013.95561	38879.6875
1017.67255	38879.9875
1021.38692	38631.2875
1025.09872	38270.0875
1028.80796	38040.6875
1032.51465	38137.5875
1036.21877	38313.2875
1039.92035	38405.9875
1043.61937	38370.4875
1047.31584	38239.7875
1051.00976	38025.6875
1054.70114	38003.1875
1058.38998	38118.4875
1062.07627	38366.8875
1065.76003	38800.0875
1069.44126	39212.2875
1073.11995	39790.9875
1076.79611	40408.6875
1080.46974	40668.6875
1084.14085	40684.7875
1087.80943	40804.3875
1091.47549	40860.2875
1095.13903	40743.1875
1098.80005	40372.0875
1102.45857	39806.5875
1106.11456	39487.6875
1109.76805	39159.9875
1113.41903	39049.9875
1117.06751	39029.8875
1120.71348	39132.5875
1124.35696	39397.8875
1127.99793	39666.9875
1131.63641	39876.0875
1135.2724	39696.7875
1138.90589	39518.3875
1142.5369	39389.0875
1146.16542	39344.6875
1149.79145	39358.0875
1153.415	39314.4875
1157.03607	39320.3875
1160.65467	39781.6875
1164.27079	40658.7875
1167.88443	41802.8875
1171.49561	43213.8875
1175.10432	44901.7875
1178.71056	47194.8875
1182.31434	49485.5875
1185.91565	50960.2875
1189.51451	51538.7875
1193.11091	51187.4875
1196.70485	50124.8875
1200.29634	48766.8875
1203.88538	47528.9875
1207.47197	46629.3875
1211.05612	45922.4875
1214.63782	45167.6875
1218.21708	44348.7875
1221.79391	43666.0875
1225.36829	43186.9875
1228.94024	42894.0875
1232.50976	42740.8875
1236.07685	42530.7875
1239.6415	42410.2875
1243.20374	42382.0875
1246.76355	42577.1875
1250.32093	43037.5875
1253.8759	43612.0875
1257.42845	44470.1875
1260.97859	45413.2875
1264.52631	46444.3875
1268.07163	47499.1875
1271.61453	48484.4875
1275.15503	49232.8875
1278.69312	49767.4875
1282.22882	50178.0875
1285.76211	50601.5875
1289.29301	51255.8875
1292.82151	52157.9875
1296.34761	53417.1875
1299.87133	55103.1875
1303.39266	57097.6875
1306.9116	59296.6875
1310.42815	61322.0875
1313.94233	62450.5875
1317.45412	62221.5875
1320.96354	61262.3875
1324.47058	60402.1875
1327.97525	59695.3875
1331.47754	59329.2875
1334.97747	59235.0875
1338.47502	59384.4875
1341.97022	59679.6875
1345.46305	60012.2875
1348.95352	60326.0875
1352.44163	60617.1875
1355.92738	61190.7875
1359.41078	62278.3875
1362.89183	63241.8875
1366.37053	62190.0875
1369.84688	58497.4875
1373.32088	54036.7875
1376.79254	50694.1875
1380.26186	49184.7875
1383.72883	48631.6875
1387.19347	48366.9875
1390.65578	47852.2875
1394.11575	47409.3875
1397.57339	47335.3875
1401.0287	47513.8875
1404.48168	47716.7875
1407.93234	48012.7875
1411.38068	47989.6875
1414.82669	47585.5875
1418.27039	46720.0875
1421.71177	45830.7875
1425.15083	45254.1875
1428.58758	45119.6875
1432.02203	45579.0875
1435.45416	46340.9875
1438.88399	47122.1875
1442.31151	47569.5875
1445.73673	47583.0875
1449.15965	47508.7875
1452.58027	47335.1875
1455.9986	47188.5875
1459.41463	47443.9875
1462.82837	48115.5875
1466.23982	48859.8875
1469.64898	49424.5875
1473.05586	49834.6875
1476.46045	49825.7875
1479.86276	49654.2875
1483.26279	49386.9875
1486.66054	49445.1875
1490.05602	49689.2875
1493.44922	50137.8875
1496.84016	50766.3875
1500.22882	51654.2875
1503.61521	52968.4875
1506.99934	54502.4875
1510.38121	55544.8875
1513.76081	55509.2875
1517.13816	54254.4875
1520.51324	52378.1875
1523.88607	50765.5875
1527.25665	49683.6875
1530.62498	49305.9875
1533.99105	49081.7875
1537.35488	48709.2875
1540.71647	48318.1875
1544.07581	47803.5875
1547.4329	47295.5875
1550.78776	46849.4875
1554.14038	46557.3875
1557.49077	46406.1875
1560.83892	46294.1875
1564.18484	46372.0875
1567.52853	46413.4875
1570.86999	46702.2875
1574.20922	47126.1875
1577.54624	47579.9875
1580.88103	47651.8875
1584.2136	47571.3875
1587.54395	47996.9875
1590.87208	49149.0875
1594.19801	50900.4875
1597.52172	52891.0875
1600.84321	53739.9875
1604.16251	52651.3875
1607.47959	50377.7875
1610.79447	47697.6875
1614.10715	44985.3875
1617.41763	42626.0875
1620.7259	41010.4875
1624.03199	40145.5875
1627.33587	40058.3875
1630.63757	40712.3875
1633.93707	42149.3875
1637.23439	44621.9875
1640.52951	48190.6875
1643.82246	52197.5875
1647.11321	55028.0875
1650.40179	55185.8875
1653.68819	52146.1875
1656.97241	47387.2875
1660.25446	42874.1875
1663.53433	39717.7875
1666.81203	37767.8875
1670.08756	36511.5875
1673.36092	35704.3875
1676.63211	35217.4875
1679.90115	34823.9875
1683.16801	34519.1875
1686.43272	34289.2875
1689.69527	34155.6875
1692.95567	33993.4875
1696.2139	33947.0875
1699.46999	33886.4875
1702.72392	33831.8875
1705.97571	33774.6875
1709.22535	33716.5875
1712.47284	33737.2875
1715.71819	33723.2875
1718.96139	33676.2875
1722.20246	33594.6875
1725.44139	33460.8875
1728.67818	33375.5875
1731.91284	33247.8875
1735.14537	33105.6875
1738.37576	33045.4875
1741.60403	32867.4875
1744.83017	32797.5875
1748.05418	32804.2875
1751.27607	32753.6875
1754.49584	32686.1875
1757.71349	32692.6875
1760.92903	32668.3875
1764.14244	32674.2875
1767.35375	32720.7875
1770.56294	32624.3875
1773.77002	32562.8875
1776.97499	32531.2875
1780.17785	32464.9875
1783.37861	32411.8875
1786.57727	32429.6875
1789.77382	32359.1875
1792.96828	32309.1875
1796.16064	32292.7875
1799.3509	32230.2875
1802.53907	32169.8875
1805.72514	32111.2875
1808.90913	32071.8875
1812.09102	32032.4875
1815.27083	31980.5875
1818.44856	31953.0875
1821.6242	31891.8875
1824.79776	31895.4875
1827.96924	31911.4875
1831.13864	31874.0875
1834.30597	31902.9875
1837.47122	31867.8875
1840.6344	31882.9875
1843.7955	31916.9875
1846.95454	31873.6875
1850.11151	31862.1875
1853.26642	31831.5875
1856.41926	31796.7875
1859.57004	31794.1875
1862.71876	31774.0875
1865.86542	31732.8875
1869.01003	31650.6875
1872.15258	31657.4875
1875.29308	31612.1875
1878.43152	31564.8875
1881.56792	31556.2875
1884.70227	31568.0875
1887.83457	31520.6875
1890.96482	31523.4875
1894.09304	31437.4875
1897.21921	31424.5875
1900.34335	31379.5875
1903.46544	31347.2875
1906.58551	31249.7875
1909.70353	31247.0875
1912.81953	31211.7875
1915.93349	31123.7875
1919.04543	31000.2875
1922.15534	30990.6875
1925.26322	30944.1875
1928.36908	30925.2875
1931.47292	30848.4875
1934.57473	30757.0875
1937.67453	30685.9875
1940.77232	30606.3875
1943.86808	30555.5875
1946.96184	30520.9875
1950.05358	30416.4875
1953.14331	30302.7875
1956.23103	30270.1875
1959.31675	30191.8875
1962.40046	30110.5875
1965.48217	30054.8875
1968.56188	29953.6875
1971.63959	29854.9875
1974.7153	29800.9875
1977.78901	29712.1875
1980.86073	29661.1875
1983.93046	29531.2875
1986.99819	29446.7875
1990.06394	29380.0875
1993.1277	29300.5875
1996.18947	29169.8875
1999.24925	29147.4875
2002.30706	29071.1875
2005.36288	28993.3875
2008.41672	28919.9875
2011.46859	28835.8875
2014.51848	28763.3875
2017.56639	28659.7875
2020.61233	28632.0875
2023.6563	28590.5875
2026.6983	28554.7875
2029.73833	28492.6875
2032.7764	28401.2875
2035.8125	28324.4875
2038.84664	28298.2875
2041.87881	28246.0875
2044.90903	28208.8875
2047.93729	28154.2875
2050.96359	28105.8875
2053.98794	28058.8875
2057.01034	28044.0875
2060.03078	28036.2875
2063.04927	28028.2875
2066.06582	28025.5875
2069.08042	28024.3875
2072.09307	28000.6875
2075.10378	27956.3875
2078.11255	27953.2875
2081.11938	27955.9875
2084.12426	27939.1875
2087.12722	27916.0875
2090.12824	27901.7875
2093.12732	27968.7875
2096.12447	27983.9875
2099.11969	27927.9875
2102.11299	27967.7875
2105.10435	27979.9875
2108.09379	27974.3875
2111.08131	28031.0875
2114.0669	28047.2875
2117.05057	28076.9875
2120.03233	28068.3875
2123.01216	28098.9875
2125.99008	28128.0875
2128.96609	28139.6875
2131.94018	28185.6875
2134.91236	28192.7875
2137.88263	28231.4875
2140.851	28242.3875
2143.81746	28294.7875
2146.78201	28323.1875
2149.74466	28297.3875
2152.7054	28287.7875
2155.66425	28288.3875
2158.6212	28275.8875
2161.57625	28255.6875
2164.52941	28303.7875
2167.48067	28302.8875
2170.43004	28269.3875
2173.37752	28263.8875
2176.32311	28246.2875
2179.26681	28230.6875
2182.20863	28250.7875
2185.14856	28278.6875
2188.08661	28235.5875
2191.02278	28233.4875
2193.95707	28179.2875
2196.88948	28206.6875
2199.82001	28196.9875
2202.74867	28188.5875
2205.67545	28143.0875
2208.60037	28110.2875
2211.52341	28078.3875
2214.44458	28061.4875
2217.36388	28010.5875
2220.28132	27961.1875
2223.1969	27882.4875
2226.11061	27874.0875
2229.02246	27821.2875
2231.93245	27776.9875
2234.84058	27747.1875
2237.74686	27714.6875
2240.65128	27664.5875
2243.55385	27647.7875
2246.45456	27589.6875
2249.35343	27588.9875
2252.25044	27513.9875
2255.14561	27465.7875
2258.03893	27484.4875
2260.93041	27417.5875
2263.82004	27354.2875
2266.70783	27302.6875
2269.59378	27241.7875
2272.4779	27204.3875
2275.36017	27159.2875
2278.24061	27110.2875
2281.11922	27038.6875
2283.996	26992.8875
2286.87094	26993.9875
2289.74405	26915.8875
2292.61534	26914.5875
2295.4848	26865.8875
2298.35243	26909.5875
2301.21824	26862.9875
2304.08223	26861.1875
2306.94439	26860.4875
2309.80474	26827.0875
2312.66327	26869.0875
2315.51999	26792.6875
2318.37489	26765.3875
2321.22797	26722.6875
2324.07925	26751.7875
2326.92871	26694.8875
2329.77637	26596.9875
2332.62222	26561.5875
2335.46626	26547.5875
2338.3085	26517.5875
2341.14893	26512.9875
2343.98756	26527.0875
2346.8244	26455.0875
2349.65943	26467.3875
2352.49267	26475.1875
2355.32411	26434.4875
2358.15376	26435.4875
2360.98161	26396.4875
2363.80768	26364.1875
2366.63195	26344.1875
2369.45444	26297.2875
2372.27514	26267.5875
2375.09405	26286.1875
2377.91118	26220.9875
2380.72652	26154.1875
2383.54009	26084.5875
2386.35187	26064.8875
2389.16188	26061.4875
2391.97011	26005.4875
2394.77657	25966.3875
2397.58125	25911.1875
2400.38416	25879.6875
2403.18529	25835.6875
2405.98466	25840.2875
2408.78226	25776.1875
2411.57809	25731.4875
2414.37216	25720.6875
2417.16446	25725.9875
2419.955	25674.8875
2422.74378	25640.6875
2425.5308	25655.2875
2428.31606	25603.6875
2431.09956	25590.8875
2433.88131	25556.5875
2436.6613	25545.1875
2439.43954	25550.1875
2442.21603	25551.4875
2444.99077	25504.5875
2447.76377	25500.6875
2450.53501	25463.7875
2453.30451	25438.9875
2456.07226	25435.5875
2458.83827	25392.4875
2461.60254	25400.0875
2464.36507	25385.8875
2467.12586	25368.5875
2469.88492	25369.1875
2472.64224	25343.9875
2475.39782	25318.9875
2478.15167	25293.4875
2480.90379	25240.8875
2483.65417	25259.0875
2486.40283	25263.2875
2489.14976	25266.0875
2491.89497	25217.3875
2494.63845	25274.9875
2497.3802	25202.0875
2500.12024	25155.9875
2502.85855	25164.5875
2505.59514	25118.6875
2508.33002	25146.8875
2511.06318	25083.1875
2513.79462	25097.1875
2516.52435	25058.6875
2519.25237	25062.8875
2521.97867	25073.4875
2524.70327	25045.7875
2527.42616	24982.4875
2530.14734	24989.5875
2532.86681	24948.2875
2535.58458	24901.1875
2538.30065	24887.6875
2541.01501	24873.2875
2543.72768	24820.7875
2546.43864	24794.1875
2549.14791	24778.1875
2551.85548	24702.8875
2554.56136	24656.9875
2557.26554	24685.2875
2559.96803	24648.6875
2562.66883	24576.0875
2565.36794	24590.6875
2568.06536	24556.0875
2570.7611	24505.3875
2573.45514	24445.6875
2576.14751	24492.6875
2578.83819	24416.0875
2581.52719	24381.3875
2584.21451	24288.5875
2586.90015	24315.2875
2589.58411	24264.5875
2592.2664	24279.9875
2594.94701	24226.1875
2597.62594	24190.5875
2600.30321	24154.0875
2602.9788	24126.2875
2605.65273	24078.9875
2608.32498	24087.8875
2610.99557	24056.4875
2613.66449	24016.0875
2616.33175	23965.6875
2618.99734	23994.6875
2621.66128	23917.3875
2624.32355	23909.9875
2626.98416	23886.2875
2629.64311	23830.0875
2632.30041	23854.2875
2634.95605	23778.0875
2637.61004	23773.2875
2640.26238	23709.9875
2642.91306	23776.0875
2645.56209	23742.4875
2648.20948	23707.6875
2650.85521	23735.9875
2653.4993	23687.1875
2656.14175	23688.5875
2658.78255	23696.4875
2661.42171	23676.0875
2664.05923	23725.3875
2666.6951	23715.9875
2669.32934	23719.7875
2671.96194	23743.6875
2674.59291	23716.7875
2677.22224	23658.8875
2679.84993	23670.7875
2682.476	23689.7875
2685.10043	23685.6875
2687.72324	23631.7875
2690.34441	23638.9875
2692.96396	23636.1875
2695.58188	23662.6875
2698.19818	23640.0875
2700.81285	23668.4875
2703.4259	23622.8875
2706.03733	23711.7875
2708.64714	23698.1875
2711.25533	23695.2875
2713.86191	23743.4875
2716.46687	23731.5875
2719.07021	23679.0875
2721.67194	23706.3875
2724.27206	23652.9875
2726.87057	23696.7875
2729.46747	23734.2875
2732.06276	23704.8875
2734.65644	23696.5875
2737.24852	23663.4875
2739.83899	23657.1875
2742.42786	23645.5875
2745.01513	23615.1875
2747.60079	23567.8875
2750.18486	23579.7875
2752.76733	23554.0875
2755.3482	23555.9875
2757.92747	23541.4875
2760.50515	23527.3875
2763.08123	23484.0875
2765.65573	23428.6875
2768.22863	23436.1875
2770.79994	23396.8875
2773.36967	23398.8875
2775.9378	23332.4875
2778.50435	23305.0875
2781.06932	23271.2875
2783.6327	23260.5875
2786.1945	23224.5875
2788.75471	23207.5875
2791.31335	23130.9875
2793.87041	23108.3875
2796.42589	23021.5875
2798.97979	23063.2875
2801.53212	22968.7875
2804.08288	22933.0875
2806.63206	22905.9875
2809.17967	22846.6875
2811.72571	22833.3875
2814.27018	22801.4875
2816.81308	22741.1875
2819.35442	22679.1875
2821.89419	22647.4875
2824.43239	22599.4875
2826.96904	22592.8875
2829.50412	22581.0875
2832.03763	22511.9875
2834.56959	22517.4875
2837.1	22485.1875
2839.62884	22462.2875
2842.15613	22425.8875
2844.68186	22495.4875
2847.20604	22462.4875
2849.72867	22454.5875
2852.24974	22451.5875
2854.76927	22417.4875
2857.28724	22373.0875
2859.80367	22347.4875
2862.31855	22297.4875
2864.83189	22305.6875
2867.34368	22289.5875
2869.85393	22267.1875
2872.36264	22279.5875
2874.8698	22293.1875
2877.37543	22272.7875
2879.87952	22306.7875
2882.38207	22285.2875
2884.88308	22267.2875
2887.38256	22269.1875
2889.88051	22279.4875
2892.37692	22250.7875
2894.8718	22251.3875
2897.36515	22301.1875
2899.85698	22263.3875
2902.34727	22344.9875
2904.83604	22348.4875
2907.32328	22357.4875
2909.809	22317.6875
2912.29319	22322.0875
2914.77587	22353.3875
2917.25702	22302.3875
2919.73665	22261.1875
2922.21476	22272.5875
2924.69136	22216.4875
2927.16644	22244.1875
2929.64	22231.3875
2932.11205	22200.5875
2934.58258	22095.5875
2937.05161	22176.9875
2939.51912	22144.3875
2941.98513	22135.8875
2944.44962	22088.0875
2946.91261	22033.2875
2949.37409	22067.6875
2951.83407	22062.2875
2954.29254	22023.0875
2956.74951	21994.3875
2959.20498	21977.4875
2961.65895	21931.2875
2964.11142	21923.0875
2966.56239	21880.1875
2969.01186	21883.3875
2971.45984	21833.8875
2973.90632	21788.5875
2976.35131	21765.5875
2978.7948	21731.5875
2981.23681	21659.2875
2983.67732	21646.4875
2986.11635	21573.6875
2988.55388	21492.5875
2990.98993	21507.6875
2993.4245	21468.1875
2995.85758	21410.0875
2998.28917	21377.6875
3000.71928	21342.7875
3003.14791	21326.4875
3005.57506	21292.4875
3008.00073	21236.4875
3010.42493	21202.7875
3012.84764	21177.4875
3015.26888	21199.0875
3017.68865	21149.0875
3020.10694	21102.0875
3022.52376	21041.3875
3024.9391	21092.2875
3027.35298	21006.7875
3029.76539	20987.0875
3032.17632	20953.9875
3034.5858	20877.9875
3036.9938	20894.7875
3039.40034	20836.5875
3041.80542	20830.8875
3044.20903	20795.0875
3046.61118	20759.6875
3049.01187	20714.4875
3051.4111	20711.4875
3053.80888	20640.3875
3056.20519	20606.4875
3058.60005	20568.8875
3060.99345	20564.5875
3063.3854	20523.9875
3065.7759	20447.8875
3068.16494	20422.0875
3070.55254	20360.4875
3072.93868	20355.6875
3075.32338	20291.2875
3077.70662	20265.7875
3080.08842	20242.9875
3082.46878	20237.0875
3084.84769	20185.1875
3087.22515	20179.2875
3089.60118	20149.3875
3091.97576	20157.3875
3094.3489	20135.6875
3096.72061	20133.0875
3099.09087	20103.9875
3101.4597	20123.4875
3103.82709	20098.3875
3106.19305	20064.1875
3108.55757	20036.7875
3110.92066	19956.7875
3113.28232	19975.0875
3115.64255	19858.2875
3118.00134	19835.2875
3120.35871	19788.0875
3122.71466	19756.8875
3125.06917	19738.1875
3127.42226	19699.7875
3129.77393	19716.0875
3132.12417	19675.7875
3134.47299	19686.7875
3136.82039	19638.7875
3139.16636	19687.6875
3141.51092	19639.1875
3143.85406	19647.7875
3146.19579	19666.0875
3148.53609	19676.4875
3150.87499	19703.0875
3153.21246	19623.7875
3155.54853	19675.8875
3157.88318	19639.5875
3160.21642	19657.4875
3162.54826	19632.3875
3164.87868	19579.3875
3167.2077	19594.0875
3169.5353	19592.0875
3171.86151	19573.0875
3174.18631	19525.4875
3176.5097	19516.7875
3178.83169	19431.6875
3181.15228	19433.1875
3183.47147	19431.4875
3185.78926	19388.6875
3188.10565	19364.6875
3190.42065	19373.3875
3192.73424	19385.8875
3195.04645	19341.0875
3197.35725	19319.6875
3199.66667	19360.6875
3201.97469	19382.9875
3204.28132	19358.7875
3206.58656	19383.0875
3208.8904	19337.5875
3211.19287	19368.0875
3213.49394	19354.5875
3215.79363	19332.6875
3218.09193	19330.2875
3220.38884	19310.1875
3222.68438	19341.7875
3224.97853	19307.5875
3227.2713	19258.7875
3229.56269	19200.6875
3231.8527	19203.1875
3234.14133	19159.1875
3236.42858	19130.7875
3238.71446	19058.6875
3240.99896	19040.3875
3243.28209	19086.3875
3245.56384	19086.9875
3247.84423	19092.7875
3250.12324	19089.5875
3252.40088	19031.3875
3254.67715	19045.2875
3256.95205	18961.7875
3259.22558	18961.1875
3261.49775	18923.8875
3263.76855	18917.8875
3266.03799	18885.7875
3268.30606	18840.3875
3270.57277	18845.2875
3272.83812	18774.7875
3275.10211	18717.1875
3277.36474	18719.4875
3279.62601	18709.3875
3281.88593	18676.7875
3284.14448	18687.4875
3286.40168	18672.6875
3288.65753	18651.2875
3290.91202	18598.1875
3293.16516	18524.0875
3295.41695	18495.5875
3297.66738	18396.4875
3299.91647	18316.8875
3302.16421	18215.0875
3304.4106	18142.2875
3306.65564	18049.9875
3308.89933	17944.3875
3311.14169	17812.3875
3313.38269	17686.3875
3315.62236	17582.2875
3317.86068	17449.3875
3320.09766	17247.4875
3322.3333	17133.1875
3324.5676	17124.9875
3326.80056	16880.9875
3329.03219	16760.1875
3331.26248	4.9875
3333.49143	-0.1125
3335.71905	-1.6125
