Data from AgNPs_FTO_APTES_UA_1uM_R6G_10uM_NaF_0.1M_Addition_RamanShift__24__11-31-57-183.txt Node

Date: Fri Dec 17 11:31:57 GMT 2021
User: TCL
Spectrometer: QEP01345
Trigger mode: 4
Integration Time (sec): 7.000000E0
Scans to average: 10
Electric dark correction enabled: true
Nonlinearity correction enabled: false
Boxcar width: 0
XAxis mode: Raman Shifts
Number of Pixels in Spectrum: 1044
>>>>>Begin Spectral Data<<<<<
46.04893	-1.3125
50.45542	-0.9125
54.85868	0.2875
59.25871	0.0875
63.6555	105.6875
68.04907	107.5875
72.43941	109.4875
76.82654	121.7875
81.21044	123.7875
85.59113	128.8875
89.96862	131.7875
94.34289	138.9875
98.71396	139.2875
103.08183	146.1875
107.4465	151.9875
111.80798	152.0875
116.16626	159.7875
120.52136	160.2875
124.87327	168.3875
129.222	179.7875
133.56755	189.8875
137.90993	196.8875
142.24913	214.8875
146.58517	233.9875
150.91804	267.6875
155.24774	317.3875
159.57429	393.3875
163.89768	495.5875
168.21792	648.2875
172.53501	869.6875
176.84895	1210.8875
181.15975	1670.9875
185.46741	2350.7875
189.77193	3236.1875
194.07331	4312.0875
198.37157	5563.7875
202.6667	6863.4875
206.9587	8152.0875
211.24758	9438.4875
215.53334	10747.5875
219.81599	12142.7875
224.09553	13698.6875
228.37195	15415.7875
232.64527	17303.7875
236.91549	19295.7875
241.18261	21191.8875
245.44663	22857.5875
249.70755	24354.7875
253.96539	25596.1875
258.22014	26704.2875
262.4718	27634.1875
266.72039	28347.3875
270.96589	28710.0875
275.20832	28804.0875
279.44768	28548.8875
283.68397	28169.8875
287.91719	27816.2875
292.14735	27656.7875
296.37445	27731.8875
300.59849	28068.5875
304.81948	28582.0875
309.03742	28920.3875
313.25231	28713.0875
317.46415	27902.5875
321.67296	26738.3875
325.87872	25757.3875
330.08145	25293.8875
334.28114	25309.7875
338.47781	25573.9875
342.67145	26049.6875
346.86207	26711.0875
351.04966	27696.2875
355.23424	28757.7875
359.4158	29617.8875
363.59435	30193.2875
367.76989	30439.7875
371.94243	30623.4875
376.11196	30683.5875
380.27849	30664.8875
384.44203	30685.6875
388.60257	30710.7875
392.76012	30807.4875
396.91468	31153.7875
401.06626	31712.9875
405.21485	32186.9875
409.36047	31986.5875
413.50311	31176.2875
417.64277	30425.5875
421.77947	30057.8875
425.9132	29982.4875
430.04396	30074.0875
434.17176	30248.9875
438.2966	30601.3875
442.41849	31168.8875
446.53742	32005.9875
450.6534	32974.6875
454.76644	33659.8875
458.87653	33969.9875
462.98368	33861.3875
467.08789	33337.8875
471.18916	32673.8875
475.2875	32002.4875
479.38291	31449.3875
483.4754	31100.2875
487.56496	30811.9875
491.6516	30450.7875
495.73531	30180.7875
499.81612	30047.9875
503.89401	30203.3875
507.96899	30392.7875
512.04106	30559.8875
516.11023	30745.6875
520.1765	30893.2875
524.23987	30788.7875
528.30034	30540.7875
532.35792	30166.1875
536.41261	29705.1875
540.46441	29190.1875
544.51333	29057.9875
548.55936	29247.9875
552.60252	29690.5875
556.64279	30260.7875
560.6802	30536.5875
564.71473	30765.8875
568.7464	31358.5875
572.7752	31924.5875
576.80114	31883.2875
580.82422	31738.0875
584.84444	31910.8875
588.86181	32191.9875
592.87633	32664.1875
596.888	33347.7875
600.89682	34103.4875
604.9028	36221.7875
608.90594	41489.8875
612.90624	47597.4875
616.90371	45405.7875
620.89834	36211.4875
624.89015	32013.5875
628.87913	31282.1875
632.86528	31232.1875
636.84862	31078.3875
640.82913	30562.9875
644.80683	29679.6875
648.78172	29010.7875
652.75379	28974.1875
656.72306	29537.9875
660.68952	30325.2875
664.65319	30224.9875
668.61405	29448.5875
672.57211	29113.2875
676.52738	29097.8875
680.47986	29070.0875
684.42955	28960.3875
688.37646	28907.6875
692.32058	29026.7875
696.26192	29270.2875
700.20048	29608.9875
704.13626	29798.7875
708.06928	29646.7875
711.99952	29397.8875
715.927	29284.9875
719.85171	29351.9875
723.77365	29294.0875
727.69284	28989.0875
731.60928	28737.1875
735.52295	28714.1875
739.43388	28797.1875
743.34206	28954.9875
747.24749	29108.8875
751.15017	29335.1875
755.05012	29782.8875
758.94733	30683.6875
762.8418	32510.0875
766.73354	35691.0875
770.62254	38990.9875
774.50882	40396.7875
778.39237	38648.6875
782.27321	35131.4875
786.15132	32096.6875
790.02671	30319.5875
793.89938	29484.4875
797.76935	29172.5875
801.6366	29044.4875
805.50115	28905.2875
809.36299	28725.7875
813.22213	28566.2875
817.07857	28493.1875
820.93231	28504.9875
824.78336	28505.8875
828.63172	28605.3875
832.47738	28643.0875
836.32036	28749.6875
840.16066	28832.8875
843.99827	28940.7875
847.8332	28869.0875
851.66546	28734.9875
855.49504	28614.8875
859.32195	28557.7875
863.1462	28431.1875
866.96777	28304.4875
870.78668	28253.1875
874.60293	28239.0875
878.41652	28281.4875
882.22745	28440.1875
886.03573	28488.2875
889.84136	28468.9875
893.64433	28334.7875
897.44466	28230.3875
901.24235	28148.3875
905.0374	28172.9875
908.8298	28097.6875
912.61957	28132.5875
916.40671	28310.7875
920.19121	28630.2875
923.97308	29040.3875
927.75233	29391.7875
931.52895	29563.0875
935.30295	29263.0875
939.07433	28612.9875
942.84309	28136.4875
946.60924	27898.5875
950.37278	27714.7875
954.13371	27524.7875
957.89203	27263.9875
961.64774	27165.9875
965.40086	27105.3875
969.15137	27022.4875
972.89929	26966.4875
976.64461	26947.9875
980.38733	27036.6875
984.12747	27157.5875
987.86502	27376.1875
991.59999	27771.2875
995.33237	28432.7875
999.06217	29363.0875
1002.78939	30486.3875
1006.51404	31269.0875
1010.23611	31685.7875
1013.95561	31906.4875
1017.67255	31815.4875
1021.38692	31462.5875
1025.09872	31259.7875
1028.80796	31702.4875
1032.51465	32841.6875
1036.21877	33791.3875
1039.92035	33959.1875
1043.61937	33357.7875
1047.31584	32282.5875
1051.00976	31109.7875
1054.70114	30351.6875
1058.38998	30058.6875
1062.07627	30072.8875
1065.76003	30157.9875
1069.44126	30374.3875
1073.11995	30738.5875
1076.79611	31060.9875
1080.46974	31334.1875
1084.14085	31630.8875
1087.80943	31931.4875
1091.47549	32040.8875
1095.13903	31647.4875
1098.80005	30996.6875
1102.45857	30266.9875
1106.11456	29911.2875
1109.76805	29916.3875
1113.41903	30247.3875
1117.06751	30626.2875
1120.71348	31148.3875
1124.35696	31649.6875
1127.99793	32182.7875
1131.63641	32368.0875
1135.2724	31865.4875
1138.90589	31166.6875
1142.5369	30719.2875
1146.16542	30384.1875
1149.79145	30203.0875
1153.415	30287.0875
1157.03607	30512.3875
1160.65467	31040.1875
1164.27079	32007.8875
1167.88443	33390.8875
1171.49561	35491.4875
1175.10432	38614.5875
1178.71056	42807.4875
1182.31434	46519.8875
1185.91565	48408.6875
1189.51451	48085.0875
1193.11091	46054.0875
1196.70485	43221.5875
1200.29634	40800.2875
1203.88538	39017.0875
1207.47197	37402.5875
1211.05612	36128.2875
1214.63782	35507.7875
1218.21708	35416.6875
1221.79391	35645.6875
1225.36829	35914.6875
1228.94024	35868.5875
1232.50976	35620.8875
1236.07685	35366.4875
1239.6415	35204.7875
1243.20374	35093.4875
1246.76355	35139.0875
1250.32093	35546.7875
1253.8759	36278.6875
1257.42845	37347.1875
1260.97859	38431.5875
1264.52631	39339.2875
1268.07163	40317.3875
1271.61453	41467.4875
1275.15503	42700.4875
1278.69312	43786.9875
1282.22882	44671.5875
1285.76211	45409.9875
1289.29301	46293.4875
1292.82151	47322.5875
1296.34761	48557.7875
1299.87133	50490.2875
1303.39266	53425.4875
1306.9116	57573.1875
1310.42815	62302.7875
1313.94233	65476.6875
1317.45412	65526.5875
1320.96354	63251.5875
1324.47058	60485.7875
1327.97525	57713.0875
1331.47754	55887.6875
1334.97747	54971.3875
1338.47502	55039.1875
1341.97022	55329.6875
1345.46305	55525.1875
1348.95352	55689.0875
1352.44163	56503.0875
1355.92738	58702.7875
1359.41078	63259.9875
1362.89183	68111.6875
1366.37053	67658.5875
1369.84688	60633.6875
1373.32088	52802.5875
1376.79254	47534.6875
1380.26186	44922.4875
1383.72883	43884.8875
1387.19347	43089.9875
1390.65578	42278.7875
1394.11575	41815.9875
1397.57339	41957.2875
1401.0287	42509.5875
1404.48168	43321.6875
1407.93234	44017.5875
1411.38068	44492.5875
1414.82669	44303.5875
1418.27039	43333.3875
1421.71177	42082.6875
1425.15083	40994.4875
1428.58758	40344.1875
1432.02203	40254.9875
1435.45416	40539.9875
1438.88399	40989.5875
1442.31151	41292.1875
1445.73673	41597.8875
1449.15965	41961.7875
1452.58027	42132.6875
1455.9986	41968.7875
1459.41463	41975.3875
1462.82837	42381.3875
1466.23982	43027.2875
1469.64898	43805.4875
1473.05586	44272.7875
1476.46045	44514.6875
1479.86276	44695.8875
1483.26279	45015.1875
1486.66054	45440.1875
1490.05602	46146.3875
1493.44922	47054.6875
1496.84016	48036.3875
1500.22882	49480.8875
1503.61521	51699.4875
1506.99934	54578.2875
1510.38121	57653.5875
1513.76081	59169.7875
1517.13816	57814.2875
1520.51324	53884.8875
1523.88607	49702.0875
1527.25665	46761.3875
1530.62498	45004.4875
1533.99105	43902.8875
1537.35488	43203.2875
1540.71647	42738.8875
1544.07581	42381.7875
1547.4329	42009.0875
1550.78776	41722.7875
1554.14038	41617.8875
1557.49077	41718.2875
1560.83892	41945.6875
1564.18484	42234.3875
1567.52853	42434.6875
1570.86999	42661.2875
1574.20922	43103.4875
1577.54624	43441.2875
1580.88103	43180.3875
1584.2136	42578.5875
1587.54395	42884.7875
1590.87208	44380.6875
1594.19801	46943.7875
1597.52172	49819.6875
1600.84321	50908.4875
1604.16251	49123.4875
1607.47959	45713.5875
1610.79447	41954.8875
1614.10715	38585.3875
1617.41763	36017.9875
1620.7259	34375.5875
1624.03199	33625.5875
1627.33587	33867.8875
1630.63757	34909.2875
1633.93707	36790.3875
1637.23439	39384.7875
1640.52951	42563.1875
1643.82246	46073.2875
1647.11321	48985.7875
1650.40179	49998.3875
1653.68819	47714.2875
1656.97241	42502.8875
1660.25446	36950.8875
1663.53433	32870.3875
1666.81203	30352.2875
1670.08756	28829.2875
1673.36092	27871.9875
1676.63211	27230.2875
1679.90115	26786.1875
1683.16801	26442.2875
1686.43272	26233.4875
1689.69527	26046.5875
1692.95567	25863.3875
1696.2139	25864.0875
1699.46999	25749.1875
1702.72392	25712.4875
1705.97571	25708.3875
1709.22535	25672.3875
1712.47284	25644.1875
1715.71819	25661.4875
1718.96139	25625.6875
1722.20246	25517.0875
1725.44139	25439.7875
1728.67818	25337.6875
1731.91284	25185.0875
1735.14537	25094.0875
1738.37576	24999.3875
1741.60403	24898.1875
1744.83017	24820.3875
1748.05418	24783.1875
1751.27607	24753.9875
1754.49584	24708.5875
1757.71349	24681.4875
1760.92903	24670.4875
1764.14244	24624.6875
1767.35375	24623.3875
1770.56294	24611.6875
1773.77002	24567.8875
1776.97499	24554.8875
1780.17785	24523.5875
1783.37861	24517.4875
1786.57727	24490.8875
1789.77382	24446.5875
1792.96828	24451.3875
1796.16064	24425.8875
1799.3509	24415.0875
1802.53907	24370.3875
1805.72514	24347.9875
1808.90913	24246.3875
1812.09102	24200.3875
1815.27083	24155.2875
1818.44856	24112.5875
1821.6242	24132.2875
1824.79776	24099.8875
1827.96924	24090.4875
1831.13864	24059.5875
1834.30597	24068.4875
1837.47122	24068.1875
1840.6344	24071.9875
1843.7955	24083.6875
1846.95454	24105.9875
1850.11151	24121.6875
1853.26642	24121.8875
1856.41926	24102.4875
1859.57004	24149.8875
1862.71876	24133.2875
1865.86542	24124.4875
1869.01003	24169.9875
1872.15258	24166.0875
1875.29308	24206.5875
1878.43152	24196.5875
1881.56792	24224.3875
1884.70227	24215.6875
1887.83457	24249.1875
1890.96482	24260.8875
1894.09304	24237.4875
1897.21921	24229.0875
1900.34335	24223.8875
1903.46544	24233.4875
1906.58551	24231.3875
1909.70353	24216.7875
1912.81953	24217.4875
1915.93349	24223.5875
1919.04543	24123.1875
1922.15534	24025.4875
1925.26322	24020.2875
1928.36908	23943.2875
1931.47292	23885.2875
1934.57473	23807.1875
1937.67453	23702.2875
1940.77232	23646.3875
1943.86808	23535.3875
1946.96184	23437.3875
1950.05358	23372.8875
1953.14331	23264.9875
1956.23103	23222.4875
1959.31675	23115.6875
1962.40046	23022.0875
1965.48217	22981.8875
1968.56188	22907.1875
1971.63959	22869.0875
1974.7153	22785.5875
1977.78901	22699.9875
1980.86073	22623.8875
1983.93046	22545.4875
1986.99819	22476.1875
1990.06394	22419.3875
1993.1277	22325.4875
1996.18947	22303.3875
1999.24925	22255.8875
2002.30706	22135.3875
2005.36288	22117.1875
2008.41672	22035.7875
2011.46859	21980.1875
2014.51848	21937.1875
2017.56639	21867.8875
2020.61233	21855.7875
2023.6563	21780.9875
2026.6983	21779.9875
2029.73833	21727.2875
2032.7764	21692.0875
2035.8125	21682.0875
2038.84664	21670.2875
2041.87881	21648.4875
2044.90903	21645.3875
2047.93729	21562.0875
2050.96359	21581.1875
2053.98794	21468.2875
2057.01034	21518.2875
2060.03078	21501.7875
2063.04927	21441.9875
2066.06582	21443.8875
2069.08042	21384.4875
2072.09307	21401.8875
2075.10378	21354.3875
2078.11255	21334.7875
2081.11938	21356.0875
2084.12426	21296.7875
2087.12722	21298.9875
2090.12824	21252.5875
2093.12732	21338.5875
2096.12447	21324.3875
2099.11969	21308.9875
2102.11299	21318.5875
2105.10435	21315.7875
2108.09379	21306.9875
2111.08131	21342.6875
2114.0669	21338.0875
2117.05057	21393.8875
2120.03233	21376.9875
2123.01216	21392.6875
2125.99008	21435.4875
2128.96609	21419.6875
2131.94018	21444.3875
2134.91236	21451.8875
2137.88263	21441.7875
2140.851	21472.7875
2143.81746	21506.6875
2146.78201	21487.3875
2149.74466	21554.0875
2152.7054	21516.7875
2155.66425	21536.5875
2158.6212	21517.0875
2161.57625	21532.5875
2164.52941	21455.2875
2167.48067	21506.1875
2170.43004	21507.5875
2173.37752	21495.6875
2176.32311	21503.3875
2179.26681	21480.4875
2182.20863	21482.0875
2185.14856	21556.0875
2188.08661	21535.3875
2191.02278	21552.8875
2193.95707	21534.9875
2196.88948	21548.0875
2199.82001	21546.4875
2202.74867	21525.0875
2205.67545	21525.4875
2208.60037	21490.1875
2211.52341	21506.7875
2214.44458	21506.2875
2217.36388	21445.5875
2220.28132	21455.4875
2223.1969	21408.7875
2226.11061	21358.2875
2229.02246	21328.9875
2231.93245	21268.7875
2234.84058	21280.5875
2237.74686	21231.6875
2240.65128	21187.3875
2243.55385	21179.1875
2246.45456	21165.3875
2249.35343	21131.8875
2252.25044	21133.6875
2255.14561	21101.5875
2258.03893	21069.6875
2260.93041	21011.2875
2263.82004	20971.0875
2266.70783	20955.5875
2269.59378	20903.2875
2272.4779	20874.9875
2275.36017	20798.2875
2278.24061	20805.6875
2281.11922	20742.1875
2283.996	20708.0875
2286.87094	20685.5875
2289.74405	20657.9875
2292.61534	20670.1875
2295.4848	20603.4875
2298.35243	20650.2875
2301.21824	20653.8875
2304.08223	20624.4875
2306.94439	20679.1875
2309.80474	20704.9875
2312.66327	20682.5875
2315.51999	20695.9875
2318.37489	20706.3875
2321.22797	20710.7875
2324.07925	20715.9875
2326.92871	20662.3875
2329.77637	20669.6875
2332.62222	20658.0875
2335.46626	20652.1875
2338.3085	20646.7875
2341.14893	20669.4875
2343.98756	20654.6875
2346.8244	20719.2875
2349.65943	20670.0875
2352.49267	20684.4875
2355.32411	20680.1875
2358.15376	20616.5875
2360.98161	20597.9875
2363.80768	20617.5875
2366.63195	20544.5875
2369.45444	20491.0875
2372.27514	20482.2875
2375.09405	20431.8875
2377.91118	20460.1875
2380.72652	20365.5875
2383.54009	20322.3875
2386.35187	20312.5875
2389.16188	20277.5875
2391.97011	20213.3875
2394.77657	20140.8875
2397.58125	20145.1875
2400.38416	20158.7875
2403.18529	20092.4875
2405.98466	20076.8875
2408.78226	20013.9875
2411.57809	19968.8875
2414.37216	19959.2875
2417.16446	19900.5875
2419.955	19873.3875
2422.74378	19874.6875
2425.5308	19844.6875
2428.31606	19814.4875
2431.09956	19832.3875
2433.88131	19802.7875
2436.6613	19802.1875
2439.43954	19798.7875
2442.21603	19771.2875
2444.99077	19786.1875
2447.76377	19784.2875
2450.53501	19755.5875
2453.30451	19792.0875
2456.07226	19733.6875
2458.83827	19751.9875
2461.60254	19746.3875
2464.36507	19742.6875
2467.12586	19718.5875
2469.88492	19740.7875
2472.64224	19721.1875
2475.39782	19768.9875
2478.15167	19766.9875
2480.90379	19775.2875
2483.65417	19781.3875
2486.40283	19780.7875
2489.14976	19815.5875
2491.89497	19804.5875
2494.63845	19842.1875
2497.3802	19821.3875
2500.12024	19825.0875
2502.85855	19834.6875
2505.59514	19814.2875
2508.33002	19770.2875
2511.06318	19732.0875
2513.79462	19694.9875
2516.52435	19706.5875
2519.25237	19704.9875
2521.97867	19653.4875
2524.70327	19626.0875
2527.42616	19614.8875
2530.14734	19601.9875
2532.86681	19582.3875
2535.58458	19621.7875
2538.30065	19575.0875
2541.01501	19564.5875
2543.72768	19530.5875
2546.43864	19507.6875
2549.14791	19502.5875
2551.85548	19494.8875
2554.56136	19496.2875
2557.26554	19467.5875
2559.96803	19476.9875
2562.66883	19449.8875
2565.36794	19428.2875
2568.06536	19454.1875
2570.7611	19393.9875
2573.45514	19377.9875
2576.14751	19362.3875
2578.83819	19330.6875
2581.52719	19373.1875
2584.21451	19372.7875
2586.90015	19361.3875
2589.58411	19337.4875
2592.2664	19326.7875
2594.94701	19288.3875
2597.62594	19338.3875
2600.30321	19329.2875
2602.9788	19277.0875
2605.65273	19274.8875
2608.32498	19263.4875
2610.99557	19227.5875
2613.66449	19279.6875
2616.33175	19242.5875
2618.99734	19238.0875
2621.66128	19223.7875
2624.32355	19252.1875
2626.98416	19274.9875
2629.64311	19288.1875
2632.30041	19298.0875
2634.95605	19225.4875
2637.61004	19218.9875
2640.26238	19177.4875
2642.91306	19191.4875
2645.56209	19128.2875
2648.20948	19131.6875
2650.85521	19075.1875
2653.4993	19093.8875
2656.14175	19066.4875
2658.78255	19107.1875
2661.42171	19066.9875
2664.05923	19116.8875
2666.6951	19100.7875
2669.32934	19126.7875
2671.96194	19157.9875
2674.59291	19200.6875
2677.22224	19159.3875
2679.84993	19181.5875
2682.476	19147.9875
2685.10043	19123.6875
2687.72324	19130.5875
2690.34441	19131.1875
2692.96396	19098.7875
2695.58188	19104.4875
2698.19818	19090.8875
2700.81285	19076.4875
2703.4259	19058.4875
2706.03733	19069.5875
2708.64714	19061.5875
2711.25533	19107.5875
2713.86191	19089.3875
2716.46687	19077.0875
2719.07021	19114.7875
2721.67194	19158.4875
2724.27206	19098.8875
2726.87057	19119.8875
2729.46747	19128.5875
2732.06276	19121.5875
2734.65644	19100.2875
2737.24852	19112.1875
2739.83899	19065.0875
2742.42786	19113.9875
2745.01513	19079.1875
2747.60079	19077.0875
2750.18486	19074.8875
2752.76733	19111.5875
2755.3482	19060.1875
2757.92747	19085.6875
2760.50515	19083.5875
2763.08123	19087.5875
2765.65573	19019.2875
2768.22863	19052.9875
2770.79994	19037.0875
2773.36967	19014.5875
2775.9378	19039.3875
2778.50435	19007.0875
2781.06932	18972.1875
2783.6327	18957.3875
2786.1945	18941.5875
2788.75471	18989.6875
2791.31335	18904.2875
2793.87041	18926.7875
2796.42589	18864.0875
2798.97979	18857.0875
2801.53212	18774.3875
2804.08288	18804.2875
2806.63206	18729.8875
2809.17967	18712.7875
2811.72571	18685.1875
2814.27018	18704.6875
2816.81308	18744.2875
2819.35442	18678.3875
2821.89419	18656.1875
2824.43239	18670.0875
2826.96904	18646.7875
2829.50412	18631.1875
2832.03763	18597.3875
2834.56959	18628.7875
2837.1	18571.9875
2839.62884	18614.9875
2842.15613	18616.6875
2844.68186	18636.1875
2847.20604	18647.4875
2849.72867	18630.0875
2852.24974	18636.9875
2854.76927	18620.1875
2857.28724	18625.9875
2859.80367	18581.4875
2862.31855	18573.1875
2864.83189	18590.1875
2867.34368	18555.2875
2869.85393	18572.1875
2872.36264	18551.3875
2874.8698	18585.1875
2877.37543	18583.5875
2879.87952	18612.4875
2882.38207	18625.3875
2884.88308	18586.5875
2887.38256	18615.5875
2889.88051	18617.5875
2892.37692	18645.6875
2894.8718	18642.2875
2897.36515	18655.4875
2899.85698	18662.8875
2902.34727	18693.1875
2904.83604	18672.6875
2907.32328	18730.8875
2909.809	18706.2875
2912.29319	18715.2875
2914.77587	18726.7875
2917.25702	18714.9875
2919.73665	18725.3875
2922.21476	18706.7875
2924.69136	18676.9875
2927.16644	18664.9875
2929.64	18655.1875
2932.11205	18621.2875
2934.58258	18531.0875
2937.05161	18580.8875
2939.51912	18566.6875
2941.98513	18513.5875
2944.44962	18490.8875
2946.91261	18403.4875
2949.37409	18415.9875
2951.83407	18392.5875
2954.29254	18383.3875
2956.74951	18311.3875
2959.20498	18315.7875
2961.65895	18294.6875
2964.11142	18294.7875
2966.56239	18201.1875
2969.01186	18183.2875
2971.45984	18133.7875
2973.90632	18098.3875
2976.35131	18035.5875
2978.7948	17985.1875
2981.23681	17969.2875
2983.67732	17938.3875
2986.11635	17883.1875
2988.55388	17827.8875
2990.98993	17809.9875
2993.4245	17749.4875
2995.85758	17743.7875
2998.28917	17696.1875
3000.71928	17673.2875
3003.14791	17638.8875
3005.57506	17623.0875
3008.00073	17573.5875
3010.42493	17573.5875
3012.84764	17536.2875
3015.26888	17559.5875
3017.68865	17478.6875
3020.10694	17479.0875
3022.52376	17430.0875
3024.9391	17423.0875
3027.35298	17360.5875
3029.76539	17348.4875
3032.17632	17305.4875
3034.5858	17294.8875
3036.9938	17294.4875
3039.40034	17267.2875
3041.80542	17288.2875
3044.20903	17205.3875
3046.61118	17216.1875
3049.01187	17157.6875
3051.4111	17131.8875
3053.80888	17107.6875
3056.20519	17074.4875
3058.60005	16997.1875
3060.99345	16973.2875
3063.3854	16928.8875
3065.7759	16890.2875
3068.16494	16869.8875
3070.55254	16815.1875
3072.93868	16803.5875
3075.32338	16750.1875
3077.70662	16730.6875
3080.08842	16713.7875
3082.46878	16681.5875
3084.84769	16645.7875
3087.22515	16643.9875
3089.60118	16633.1875
3091.97576	16647.2875
3094.3489	16607.5875
3096.72061	16610.6875
3099.09087	16592.1875
3101.4597	16578.6875
3103.82709	16545.4875
3106.19305	16518.1875
3108.55757	16550.0875
3110.92066	16468.8875
3113.28232	16436.6875
3115.64255	16367.7875
3118.00134	16353.7875
3120.35871	16378.4875
3122.71466	16358.3875
3125.06917	16302.3875
3127.42226	16275.7875
3129.77393	16330.9875
3132.12417	16280.7875
3134.47299	16293.5875
3136.82039	16259.3875
3139.16636	16287.7875
3141.51092	16270.6875
3143.85406	16285.0875
3146.19579	16255.2875
3148.53609	16264.4875
3150.87499	16259.1875
3153.21246	16292.3875
3155.54853	16310.7875
3157.88318	16275.6875
3160.21642	16306.5875
3162.54826	16245.1875
3164.87868	16268.5875
3167.2077	16263.3875
3169.5353	16219.9875
3171.86151	16188.8875
3174.18631	16177.4875
3176.5097	16187.2875
3178.83169	16159.1875
3181.15228	16158.2875
3183.47147	16091.6875
3185.78926	16159.5875
3188.10565	16095.4875
3190.42065	16133.7875
3192.73424	16149.6875
3195.04645	16118.9875
3197.35725	16123.8875
3199.66667	16116.2875
3201.97469	16148.8875
3204.28132	16123.3875
3206.58656	16151.6875
3208.8904	16149.9875
3211.19287	16140.4875
3213.49394	16129.9875
3215.79363	16131.2875
3218.09193	16124.4875
3220.38884	16124.8875
3222.68438	16117.4875
3224.97853	16108.8875
3227.2713	16082.7875
3229.56269	16049.9875
3231.8527	16083.7875
3234.14133	16068.4875
3236.42858	16017.2875
3238.71446	15999.5875
3240.99896	15967.0875
3243.28209	15970.1875
3245.56384	16002.1875
3247.84423	15993.0875
3250.12324	15986.7875
3252.40088	15920.4875
3254.67715	15945.8875
3256.95205	15941.3875
3259.22558	15910.8875
3261.49775	15878.1875
3263.76855	15874.3875
3266.03799	15848.0875
3268.30606	15835.9875
3270.57277	15798.7875
3272.83812	15774.5875
3275.10211	15775.6875
3277.36474	15761.2875
3279.62601	15772.0875
3281.88593	15739.4875
3284.14448	15726.8875
3286.40168	15715.2875
3288.65753	15699.5875
3290.91202	15672.2875
3293.16516	15630.7875
3295.41695	15614.9875
3297.66738	15500.1875
3299.91647	15447.0875
3302.16421	15367.0875
3304.4106	15336.1875
3306.65564	15234.8875
3308.89933	15144.0875
3311.14169	15078.4875
3313.38269	14945.9875
3315.62236	14874.4875
3317.86068	14746.0875
3320.09766	14606.8875
3322.3333	14489.7875
3324.5676	14452.8875
3326.80056	14228.9875
3329.03219	14159.5875
3331.26248	3.4875
3333.49143	1.0875
3335.71905	-0.4125
