Data from AgNPs_FTO_APTES_UA_50uM_R6G_10uM_NaF_0.1M_Addition_RamanShift__16__14-54-57-415.txt Node

Date: Fri Dec 17 14:54:57 GMT 2021
User: TCL
Spectrometer: QEP01345
Trigger mode: 4
Integration Time (sec): 7.000000E0
Scans to average: 10
Electric dark correction enabled: true
Nonlinearity correction enabled: false
Boxcar width: 0
XAxis mode: Raman Shifts
Number of Pixels in Spectrum: 1044
>>>>>Begin Spectral Data<<<<<
46.04893	-1.3125
50.45542	-1.4125
54.85868	-0.7125
59.25871	1.1875
63.6555	88.3875
68.04907	93.5875
72.43941	97.0875
76.82654	103.2875
81.21044	105.7875
85.59113	110.9875
89.96862	117.9875
94.34289	119.5875
98.71396	122.7875
103.08183	127.2875
107.4465	130.6875
111.80798	129.2875
116.16626	134.2875
120.52136	140.5875
124.87327	152.2875
129.222	157.5875
133.56755	165.2875
137.90993	177.6875
142.24913	199.9875
146.58517	218.9875
150.91804	253.0875
155.24774	300.8875
159.57429	379.7875
163.89768	484.5875
168.21792	637.5875
172.53501	865.4875
176.84895	1216.6875
181.15975	1702.5875
185.46741	2385.1875
189.77193	3283.0875
194.07331	4395.8875
198.37157	5655.6875
202.6667	6979.2875
206.9587	8305.4875
211.24758	9568.8875
215.53334	10856.5875
219.81599	12216.6875
224.09553	13726.6875
228.37195	15403.1875
232.64527	17239.8875
236.91549	19198.1875
241.18261	21213.9875
245.44663	23000.9875
249.70755	24642.4875
253.96539	26094.0875
258.22014	27299.7875
262.4718	28298.8875
266.72039	28969.7875
270.96589	29322.4875
275.20832	29406.1875
279.44768	29295.0875
283.68397	29002.7875
287.91719	28717.7875
292.14735	28588.1875
296.37445	28565.4875
300.59849	28702.2875
304.81948	28836.5875
309.03742	28814.6875
313.25231	28514.7875
317.46415	27892.9875
321.67296	27093.6875
325.87872	26404.2875
330.08145	26073.6875
334.28114	26020.2875
338.47781	26253.8875
342.67145	26575.1875
346.86207	27000.5875
351.04966	27530.4875
355.23424	28115.5875
359.4158	28644.2875
363.59435	28950.9875
367.76989	29186.0875
371.94243	29424.2875
376.11196	29548.2875
380.27849	29700.9875
384.44203	29839.2875
388.60257	30065.7875
392.76012	30231.0875
396.91468	30593.8875
401.06626	31045.3875
405.21485	31392.3875
409.36047	31244.6875
413.50311	30770.6875
417.64277	30312.1875
421.77947	30173.9875
425.9132	30166.4875
430.04396	30283.3875
434.17176	30392.1875
438.2966	30647.8875
442.41849	31046.5875
446.53742	31661.2875
450.6534	32393.7875
454.76644	32959.1875
458.87653	33235.4875
462.98368	33293.7875
467.08789	32960.8875
471.18916	32642.8875
475.2875	32201.6875
479.38291	31927.2875
483.4754	31547.3875
487.56496	31124.6875
491.6516	30742.1875
495.73531	30448.5875
499.81612	30406.9875
503.89401	30576.9875
507.96899	30765.3875
512.04106	30799.1875
516.11023	30754.0875
520.1765	30623.1875
524.23987	30388.3875
528.30034	30129.3875
532.35792	29895.9875
536.41261	29618.1875
540.46441	29326.2875
544.51333	29292.4875
548.55936	29548.0875
552.60252	30123.7875
556.64279	30690.2875
560.6802	31067.0875
564.71473	31285.2875
568.7464	31669.5875
572.7752	32220.8875
576.80114	32651.9875
580.82422	32983.9875
584.84444	33377.7875
588.86181	33588.6875
592.87633	33726.4875
596.888	33923.6875
600.89682	34161.7875
604.9028	35483.7875
608.90594	38670.7875
612.90624	41855.0875
616.90371	39567.9875
620.89834	33426.5875
624.89015	30671.9875
628.87913	30178.5875
632.86528	30364.0875
636.84862	30457.8875
640.82913	30104.8875
644.80683	29444.9875
648.78172	28856.4875
652.75379	28718.3875
656.72306	29051.2875
660.68952	29523.0875
664.65319	29366.1875
668.61405	28886.2875
672.57211	28758.7875
676.52738	28868.2875
680.47986	28793.6875
684.42955	28699.1875
688.37646	28558.1875
692.32058	28645.0875
696.26192	28915.5875
700.20048	29174.5875
704.13626	29315.2875
708.06928	29306.4875
711.99952	29148.8875
715.927	29014.4875
719.85171	29026.8875
723.77365	28946.0875
727.69284	28724.6875
731.60928	28441.9875
735.52295	28310.9875
739.43388	28309.6875
743.34206	28390.3875
747.24749	28497.2875
751.15017	28684.7875
755.05012	29038.4875
758.94733	29819.0875
762.8418	31269.2875
766.73354	33592.3875
770.62254	36033.6875
774.50882	36802.6875
778.39237	35426.5875
782.27321	32821.1875
786.15132	30643.5875
790.02671	29309.3875
793.89938	28613.8875
797.76935	28333.1875
801.6366	28184.2875
805.50115	28128.8875
809.36299	27944.2875
813.22213	27744.4875
817.07857	27590.8875
820.93231	27486.8875
824.78336	27444.3875
828.63172	27395.8875
832.47738	27386.0875
836.32036	27374.1875
840.16066	27355.1875
843.99827	27378.6875
847.8332	27317.2875
851.66546	27296.2875
855.49504	27253.9875
859.32195	27292.8875
863.1462	27252.4875
866.96777	27204.2875
870.78668	27148.2875
874.60293	27138.5875
878.41652	27182.8875
882.22745	27248.0875
886.03573	27306.0875
889.84136	27305.3875
893.64433	27263.7875
897.44466	27129.7875
901.24235	27015.9875
905.0374	26903.9875
908.8298	26793.8875
912.61957	26804.4875
916.40671	26971.1875
920.19121	27212.1875
923.97308	27453.6875
927.75233	27498.7875
931.52895	27407.0875
935.30295	27140.1875
939.07433	26757.8875
942.84309	26397.2875
946.60924	26208.7875
950.37278	26139.6875
954.13371	26090.4875
957.89203	26028.8875
961.64774	25952.4875
965.40086	25893.5875
969.15137	25832.8875
972.89929	25764.4875
976.64461	25740.2875
980.38733	25770.7875
984.12747	25816.0875
987.86502	26035.5875
991.59999	26248.0875
995.33237	26546.6875
999.06217	27157.2875
1002.78939	27772.7875
1006.51404	28191.3875
1010.23611	28512.4875
1013.95561	28813.7875
1017.67255	28835.5875
1021.38692	28585.0875
1025.09872	28285.9875
1028.80796	28170.1875
1032.51465	28412.7875
1036.21877	28730.1875
1039.92035	28818.9875
1043.61937	28705.5875
1047.31584	28379.8875
1051.00976	28070.3875
1054.70114	27963.1875
1058.38998	28045.1875
1062.07627	28273.9875
1065.76003	28550.8875
1069.44126	28800.9875
1073.11995	29238.2875
1076.79611	29637.2875
1080.46974	29895.5875
1084.14085	30062.1875
1087.80943	30269.0875
1091.47549	30447.7875
1095.13903	30461.4875
1098.80005	30138.5875
1102.45857	29611.0875
1106.11456	29138.4875
1109.76805	28941.3875
1113.41903	29027.4875
1117.06751	29205.4875
1120.71348	29497.8875
1124.35696	29862.4875
1127.99793	30243.1875
1131.63641	30469.9875
1135.2724	30335.9875
1138.90589	30087.1875
1142.5369	29935.7875
1146.16542	29832.5875
1149.79145	29906.9875
1153.415	30074.6875
1157.03607	30411.3875
1160.65467	31090.0875
1164.27079	32171.5875
1167.88443	33666.5875
1171.49561	35542.4875
1175.10432	37980.1875
1178.71056	40975.1875
1182.31434	43867.1875
1185.91565	45536.2875
1189.51451	45954.1875
1193.11091	45140.0875
1196.70485	43405.4875
1200.29634	41502.4875
1203.88538	39773.0875
1207.47197	38373.4875
1211.05612	37237.9875
1214.63782	36365.3875
1218.21708	35836.6875
1221.79391	35603.9875
1225.36829	35499.2875
1228.94024	35261.8875
1232.50976	34947.4875
1236.07685	34621.4875
1239.6415	34440.9875
1243.20374	34398.0875
1246.76355	34587.3875
1250.32093	34994.0875
1253.8759	35705.4875
1257.42845	36564.1875
1260.97859	37515.6875
1264.52631	38456.5875
1268.07163	39448.2875
1271.61453	40407.4875
1275.15503	41444.3875
1278.69312	42348.8875
1282.22882	43072.0875
1285.76211	43728.6875
1289.29301	44581.0875
1292.82151	45778.1875
1296.34761	47195.1875
1299.87133	49136.8875
1303.39266	51515.5875
1306.9116	54264.0875
1310.42815	57160.1875
1313.94233	59097.6875
1317.45412	59347.9875
1320.96354	58623.2875
1324.47058	57668.5875
1327.97525	56839.7875
1331.47754	56276.1875
1334.97747	56293.8875
1338.47502	56610.5875
1341.97022	57109.5875
1345.46305	57381.9875
1348.95352	57126.1875
1352.44163	56883.6875
1355.92738	57110.0875
1359.41078	58511.9875
1362.89183	60121.9875
1366.37053	58910.0875
1369.84688	54232.6875
1373.32088	48932.8875
1376.79254	45237.3875
1380.26186	43513.5875
1383.72883	42975.9875
1387.19347	42678.1875
1390.65578	42197.0875
1394.11575	41883.3875
1397.57339	41976.5875
1401.0287	42485.0875
1404.48168	43066.0875
1407.93234	43355.2875
1411.38068	43124.7875
1414.82669	42363.3875
1418.27039	41103.7875
1421.71177	39755.3875
1425.15083	38664.7875
1428.58758	38078.4875
1432.02203	38113.5875
1435.45416	38727.4875
1438.88399	39512.0875
1442.31151	40267.8875
1445.73673	40787.4875
1449.15965	41286.8875
1452.58027	41674.4875
1455.9986	41920.2875
1459.41463	42410.6875
1462.82837	43077.8875
1466.23982	43810.5875
1469.64898	44468.8875
1473.05586	44836.3875
1476.46045	44819.6875
1479.86276	44636.4875
1483.26279	44217.1875
1486.66054	44072.0875
1490.05602	44185.9875
1493.44922	44602.0875
1496.84016	45240.0875
1500.22882	46484.4875
1503.61521	48388.6875
1506.99934	50496.3875
1510.38121	52310.7875
1513.76081	52703.6875
1517.13816	51331.9875
1520.51324	48905.2875
1523.88607	46515.7875
1527.25665	45052.9875
1530.62498	44340.3875
1533.99105	44011.9875
1537.35488	43700.2875
1540.71647	43265.1875
1544.07581	42741.6875
1547.4329	42120.8875
1550.78776	41604.9875
1554.14038	41245.2875
1557.49077	41009.8875
1560.83892	40986.4875
1564.18484	40957.7875
1567.52853	41042.6875
1570.86999	41317.2875
1574.20922	41748.4875
1577.54624	42006.8875
1580.88103	41822.3875
1584.2136	41476.8875
1587.54395	41812.6875
1590.87208	42984.0875
1594.19801	44988.5875
1597.52172	47300.6875
1600.84321	48296.0875
1604.16251	47149.7875
1607.47959	44666.8875
1610.79447	41785.2875
1614.10715	38776.5875
1617.41763	36129.7875
1620.7259	34077.9875
1624.03199	32897.3875
1627.33587	32594.2875
1630.63757	33176.5875
1633.93707	34797.7875
1637.23439	37575.2875
1640.52951	41267.5875
1643.82246	45473.1875
1647.11321	48618.1875
1650.40179	49267.2875
1653.68819	46599.2875
1656.97241	41548.3875
1660.25446	36317.8875
1663.53433	32358.8875
1666.81203	29705.2875
1670.08756	28030.3875
1673.36092	26888.2875
1676.63211	26168.6875
1679.90115	25680.5875
1683.16801	25266.8875
1686.43272	24953.9875
1689.69527	24685.1875
1692.95567	24517.0875
1696.2139	24385.8875
1699.46999	24307.7875
1702.72392	24253.0875
1705.97571	24136.2875
1709.22535	24085.6875
1712.47284	24017.1875
1715.71819	23961.9875
1718.96139	23900.6875
1722.20246	23806.8875
1725.44139	23704.3875
1728.67818	23538.3875
1731.91284	23411.7875
1735.14537	23322.2875
1738.37576	23189.0875
1741.60403	23099.9875
1744.83017	23040.7875
1748.05418	22952.1875
1751.27607	22872.8875
1754.49584	22863.8875
1757.71349	22842.7875
1760.92903	22799.4875
1764.14244	22815.3875
1767.35375	22780.0875
1770.56294	22763.2875
1773.77002	22740.4875
1776.97499	22674.4875
1780.17785	22624.4875
1783.37861	22602.3875
1786.57727	22569.1875
1789.77382	22505.2875
1792.96828	22468.2875
1796.16064	22402.7875
1799.3509	22347.2875
1802.53907	22315.8875
1805.72514	22259.0875
1808.90913	22217.4875
1812.09102	22178.3875
1815.27083	22124.8875
1818.44856	22086.8875
1821.6242	22097.1875
1824.79776	22027.2875
1827.96924	21996.5875
1831.13864	21997.4875
1834.30597	22016.6875
1837.47122	21983.2875
1840.6344	22024.8875
1843.7955	21997.7875
1846.95454	22014.1875
1850.11151	22022.8875
1853.26642	21987.2875
1856.41926	21997.0875
1859.57004	21978.7875
1862.71876	21940.0875
1865.86542	21924.9875
1869.01003	21950.9875
1872.15258	21882.4875
1875.29308	21841.4875
1878.43152	21850.3875
1881.56792	21797.4875
1884.70227	21783.3875
1887.83457	21806.3875
1890.96482	21760.1875
1894.09304	21712.4875
1897.21921	21721.0875
1900.34335	21705.2875
1903.46544	21667.9875
1906.58551	21664.5875
1909.70353	21604.6875
1912.81953	21607.5875
1915.93349	21542.7875
1919.04543	21498.1875
1922.15534	21440.6875
1925.26322	21389.1875
1928.36908	21337.7875
1931.47292	21309.3875
1934.57473	21253.3875
1937.67453	21165.8875
1940.77232	21085.9875
1943.86808	21061.7875
1946.96184	20964.1875
1950.05358	20922.0875
1953.14331	20908.1875
1956.23103	20839.6875
1959.31675	20780.8875
1962.40046	20721.7875
1965.48217	20648.6875
1968.56188	20651.6875
1971.63959	20533.1875
1974.7153	20458.2875
1977.78901	20390.0875
1980.86073	20360.2875
1983.93046	20291.3875
1986.99819	20216.8875
1990.06394	20155.1875
1993.1277	20098.5875
1996.18947	20013.0875
1999.24925	19994.1875
2002.30706	19949.8875
2005.36288	19854.6875
2008.41672	19819.5875
2011.46859	19775.9875
2014.51848	19728.1875
2017.56639	19671.5875
2020.61233	19615.1875
2023.6563	19575.1875
2026.6983	19523.0875
2029.73833	19482.4875
2032.7764	19440.9875
2035.8125	19426.7875
2038.84664	19370.0875
2041.87881	19339.6875
2044.90903	19300.5875
2047.93729	19270.8875
2050.96359	19294.1875
2053.98794	19218.6875
2057.01034	19210.5875
2060.03078	19216.8875
2063.04927	19147.7875
2066.06582	19189.7875
2069.08042	19162.9875
2072.09307	19173.1875
2075.10378	19140.4875
2078.11255	19102.6875
2081.11938	19125.1875
2084.12426	19092.9875
2087.12722	19053.9875
2090.12824	19072.2875
2093.12732	19050.1875
2096.12447	19059.3875
2099.11969	19083.1875
2102.11299	19076.6875
2105.10435	19088.9875
2108.09379	19115.2875
2111.08131	19144.9875
2114.0669	19124.1875
2117.05057	19153.4875
2120.03233	19151.6875
2123.01216	19180.1875
2125.99008	19187.0875
2128.96609	19173.7875
2131.94018	19212.3875
2134.91236	19215.8875
2137.88263	19246.0875
2140.851	19227.4875
2143.81746	19281.7875
2146.78201	19266.2875
2149.74466	19282.7875
2152.7054	19283.0875
2155.66425	19260.5875
2158.6212	19269.7875
2161.57625	19239.3875
2164.52941	19249.8875
2167.48067	19234.4875
2170.43004	19248.3875
2173.37752	19240.8875
2176.32311	19232.9875
2179.26681	19233.0875
2182.20863	19216.7875
2185.14856	19211.4875
2188.08661	19208.1875
2191.02278	19201.2875
2193.95707	19201.4875
2196.88948	19177.9875
2199.82001	19179.2875
2202.74867	19129.1875
2205.67545	19192.8875
2208.60037	19139.0875
2211.52341	19082.7875
2214.44458	19117.6875
2217.36388	19011.3875
2220.28132	19043.2875
2223.1969	18974.8875
2226.11061	18976.7875
2229.02246	18892.0875
2231.93245	18904.3875
2234.84058	18814.3875
2237.74686	18823.0875
2240.65128	18798.1875
2243.55385	18761.2875
2246.45456	18725.1875
2249.35343	18714.6875
2252.25044	18680.0875
2255.14561	18672.2875
2258.03893	18625.8875
2260.93041	18633.3875
2263.82004	18567.5875
2266.70783	18534.2875
2269.59378	18465.9875
2272.4779	18441.1875
2275.36017	18403.2875
2278.24061	18398.7875
2281.11922	18363.6875
2283.996	18331.8875
2286.87094	18320.3875
2289.74405	18257.3875
2292.61534	18234.7875
2295.4848	18226.8875
2298.35243	18240.8875
2301.21824	18196.3875
2304.08223	18206.1875
2306.94439	18217.2875
2309.80474	18220.3875
2312.66327	18199.3875
2315.51999	18178.7875
2318.37489	18172.0875
2321.22797	18161.5875
2324.07925	18137.2875
2326.92871	18144.2875
2329.77637	18124.6875
2332.62222	18081.9875
2335.46626	18074.6875
2338.3085	18073.2875
2341.14893	18099.3875
2343.98756	18063.1875
2346.8244	18078.8875
2349.65943	18040.5875
2352.49267	18044.4875
2355.32411	18032.0875
2358.15376	18040.6875
2360.98161	18026.8875
2363.80768	18071.2875
2366.63195	18020.9875
2369.45444	17981.6875
2372.27514	17937.9875
2375.09405	17931.3875
2377.91118	17889.3875
2380.72652	17835.1875
2383.54009	17855.3875
2386.35187	17810.4875
2389.16188	17755.1875
2391.97011	17737.8875
2394.77657	17708.6875
2397.58125	17637.5875
2400.38416	17636.1875
2403.18529	17614.6875
2405.98466	17620.7875
2408.78226	17605.4875
2411.57809	17556.1875
2414.37216	17541.1875
2417.16446	17510.7875
2419.955	17503.4875
2422.74378	17513.6875
2425.5308	17482.3875
2428.31606	17476.9875
2431.09956	17471.4875
2433.88131	17435.3875
2436.6613	17455.0875
2439.43954	17415.6875
2442.21603	17395.8875
2444.99077	17393.2875
2447.76377	17424.7875
2450.53501	17416.2875
2453.30451	17398.7875
2456.07226	17385.9875
2458.83827	17354.4875
2461.60254	17316.5875
2464.36507	17348.6875
2467.12586	17371.8875
2469.88492	17356.0875
2472.64224	17337.2875
2475.39782	17336.1875
2478.15167	17355.6875
2480.90379	17352.1875
2483.65417	17356.9875
2486.40283	17348.6875
2489.14976	17355.0875
2491.89497	17337.8875
2494.63845	17352.1875
2497.3802	17297.1875
2500.12024	17309.6875
2502.85855	17355.5875
2505.59514	17313.1875
2508.33002	17331.3875
2511.06318	17288.1875
2513.79462	17290.3875
2516.52435	17210.2875
2519.25237	17219.1875
2521.97867	17198.2875
2524.70327	17218.7875
2527.42616	17182.1875
2530.14734	17180.3875
2532.86681	17136.2875
2535.58458	17168.0875
2538.30065	17136.5875
2541.01501	17136.4875
2543.72768	17113.5875
2546.43864	17101.1875
2549.14791	17078.8875
2551.85548	17057.5875
2554.56136	17021.9875
2557.26554	17009.3875
2559.96803	17005.2875
2562.66883	16983.1875
2565.36794	16985.0875
2568.06536	16971.7875
2570.7611	16953.9875
2573.45514	16948.0875
2576.14751	16903.5875
2578.83819	16879.9875
2581.52719	16892.0875
2584.21451	16888.8875
2586.90015	16867.0875
2589.58411	16831.3875
2592.2664	16854.2875
2594.94701	16791.3875
2597.62594	16820.7875
2600.30321	16743.3875
2602.9788	16744.0875
2605.65273	16734.9875
2608.32498	16723.3875
2610.99557	16729.2875
2613.66449	16737.4875
2616.33175	16718.6875
2618.99734	16732.0875
2621.66128	16702.8875
2624.32355	16698.0875
2626.98416	16671.4875
2629.64311	16703.2875
2632.30041	16716.0875
2634.95605	16674.6875
2637.61004	16654.4875
2640.26238	16627.2875
2642.91306	16637.5875
2645.56209	16626.4875
2648.20948	16645.9875
2650.85521	16622.6875
2653.4993	16635.7875
2656.14175	16613.1875
2658.78255	16648.8875
2661.42171	16651.4875
2664.05923	16641.1875
2666.6951	16636.6875
2669.32934	16634.8875
2671.96194	16654.1875
2674.59291	16675.2875
2677.22224	16645.7875
2679.84993	16667.9875
2682.476	16648.2875
2685.10043	16637.6875
2687.72324	16625.1875
2690.34441	16618.8875
2692.96396	16613.1875
2695.58188	16636.6875
2698.19818	16618.7875
2700.81285	16637.7875
2703.4259	16589.6875
2706.03733	16635.2875
2708.64714	16627.8875
2711.25533	16660.3875
2713.86191	16627.8875
2716.46687	16657.2875
2719.07021	16674.2875
2721.67194	16666.6875
2724.27206	16588.2875
2726.87057	16634.9875
2729.46747	16646.0875
2732.06276	16639.8875
2734.65644	16628.5875
2737.24852	16624.6875
2739.83899	16657.8875
2742.42786	16623.9875
2745.01513	16582.5875
2747.60079	16625.6875
2750.18486	16601.9875
2752.76733	16628.8875
2755.3482	16588.8875
2757.92747	16620.3875
2760.50515	16571.7875
2763.08123	16589.7875
2765.65573	16527.2875
2768.22863	16531.1875
2770.79994	16511.1875
2773.36967	16511.8875
2775.9378	16499.5875
2778.50435	16493.9875
2781.06932	16471.9875
2783.6327	16482.7875
2786.1945	16492.9875
2788.75471	16458.0875
2791.31335	16421.0875
2793.87041	16376.9875
2796.42589	16339.5875
2798.97979	16332.4875
2801.53212	16303.7875
2804.08288	16291.7875
2806.63206	16248.8875
2809.17967	16198.8875
2811.72571	16179.4875
2814.27018	16215.4875
2816.81308	16149.6875
2819.35442	16156.2875
2821.89419	16135.8875
2824.43239	16122.0875
2826.96904	16132.4875
2829.50412	16082.9875
2832.03763	16079.4875
2834.56959	16052.9875
2837.1	15998.4875
2839.62884	16047.3875
2842.15613	16014.6875
2844.68186	16020.5875
2847.20604	16002.3875
2849.72867	16032.1875
2852.24974	15997.5875
2854.76927	15981.2875
2857.28724	15969.1875
2859.80367	15947.4875
2862.31855	15927.7875
2864.83189	15921.6875
2867.34368	15887.6875
2869.85393	15905.9875
2872.36264	15922.1875
2874.8698	15911.4875
2877.37543	15881.3875
2879.87952	15884.1875
2882.38207	15837.5875
2884.88308	15871.4875
2887.38256	15873.8875
2889.88051	15846.4875
2892.37692	15860.8875
2894.8718	15865.2875
2897.36515	15897.9875
2899.85698	15894.2875
2902.34727	15929.7875
2904.83604	15921.9875
2907.32328	15920.7875
2909.809	15922.1875
2912.29319	15955.2875
2914.77587	15985.3875
2917.25702	15955.4875
2919.73665	15931.9875
2922.21476	15948.6875
2924.69136	15893.3875
2927.16644	15932.2875
2929.64	15898.1875
2932.11205	15897.5875
2934.58258	15811.2875
2937.05161	15852.3875
2939.51912	15854.7875
2941.98513	15812.0875
2944.44962	15800.2875
2946.91261	15755.2875
2949.37409	15770.1875
2951.83407	15787.6875
2954.29254	15749.1875
2956.74951	15720.7875
2959.20498	15738.7875
2961.65895	15682.9875
2964.11142	15681.5875
2966.56239	15643.2875
2969.01186	15637.6875
2971.45984	15578.8875
2973.90632	15569.1875
2976.35131	15536.4875
2978.7948	15489.5875
2981.23681	15474.4875
2983.67732	15463.4875
2986.11635	15408.9875
2988.55388	15375.0875
2990.98993	15398.1875
2993.4245	15367.2875
2995.85758	15323.1875
2998.28917	15268.6875
3000.71928	15233.2875
3003.14791	15203.4875
3005.57506	15170.0875
3008.00073	15123.1875
3010.42493	15132.0875
3012.84764	15126.4875
3015.26888	15079.3875
3017.68865	15053.4875
3020.10694	15099.0875
3022.52376	15041.8875
3024.9391	15041.5875
3027.35298	14950.9875
3029.76539	14969.7875
3032.17632	14956.8875
3034.5858	14901.3875
3036.9938	14925.9875
3039.40034	14912.3875
3041.80542	14878.2875
3044.20903	14870.6875
3046.61118	14859.2875
3049.01187	14809.7875
3051.4111	14802.6875
3053.80888	14768.2875
3056.20519	14754.5875
3058.60005	14738.0875
3060.99345	14686.5875
3063.3854	14673.0875
3065.7759	14649.8875
3068.16494	14615.9875
3070.55254	14602.6875
3072.93868	14570.3875
3075.32338	14521.2875
3077.70662	14509.0875
3080.08842	14470.0875
3082.46878	14477.5875
3084.84769	14435.3875
3087.22515	14442.4875
3089.60118	14394.7875
3091.97576	14411.8875
3094.3489	14373.9875
3096.72061	14394.2875
3099.09087	14359.8875
3101.4597	14357.7875
3103.82709	14336.9875
3106.19305	14318.6875
3108.55757	14306.6875
3110.92066	14255.3875
3113.28232	14253.1875
3115.64255	14193.0875
3118.00134	14159.7875
3120.35871	14142.6875
3122.71466	14123.6875
3125.06917	14094.8875
3127.42226	14048.9875
3129.77393	14097.8875
3132.12417	14096.2875
3134.47299	14082.7875
3136.82039	14044.3875
3139.16636	14074.3875
3141.51092	14042.7875
3143.85406	14034.8875
3146.19579	14022.8875
3148.53609	14048.6875
3150.87499	14048.0875
3153.21246	14053.0875
3155.54853	14080.8875
3157.88318	14054.6875
3160.21642	14038.3875
3162.54826	14027.4875
3164.87868	14040.0875
3167.2077	14017.6875
3169.5353	14020.0875
3171.86151	14016.9875
3174.18631	13979.9875
3176.5097	13953.6875
3178.83169	13949.3875
3181.15228	13932.1875
3183.47147	13909.0875
3185.78926	13913.8875
3188.10565	13857.3875
3190.42065	13859.0875
3192.73424	13883.3875
3195.04645	13888.1875
3197.35725	13853.9875
3199.66667	13859.4875
3201.97469	13867.3875
3204.28132	13853.6875
3206.58656	13898.2875
3208.8904	13883.9875
3211.19287	13907.3875
3213.49394	13901.6875
3215.79363	13872.1875
3218.09193	13871.6875
3220.38884	13873.6875
3222.68438	13852.7875
3224.97853	13803.8875
3227.2713	13831.1875
3229.56269	13820.5875
3231.8527	13827.7875
3234.14133	13802.8875
3236.42858	13739.0875
3238.71446	13734.0875
3240.99896	13700.3875
3243.28209	13741.4875
3245.56384	13697.0875
3247.84423	13677.4875
3250.12324	13688.8875
3252.40088	13682.0875
3254.67715	13665.9875
3256.95205	13626.2875
3259.22558	13655.0875
3261.49775	13598.3875
3263.76855	13603.8875
3266.03799	13568.5875
3268.30606	13584.4875
3270.57277	13526.9875
3272.83812	13492.7875
3275.10211	13467.3875
3277.36474	13463.7875
3279.62601	13461.5875
3281.88593	13436.0875
3284.14448	13471.8875
3286.40168	13471.2875
3288.65753	13439.8875
3290.91202	13388.0875
3293.16516	13350.8875
3295.41695	13307.9875
3297.66738	13261.4875
3299.91647	13193.2875
3302.16421	13108.1875
3304.4106	13070.4875
3306.65564	12975.8875
3308.89933	12923.3875
3311.14169	12822.3875
3313.38269	12757.0875
3315.62236	12648.0875
3317.86068	12559.2875
3320.09766	12444.0875
3322.3333	12332.9875
3324.5676	12333.4875
3326.80056	12123.5875
3329.03219	12067.4875
3331.26248	3.6875
3333.49143	1.1875
3335.71905	-0.7125
