Data from AgNPs_FTO_APTES_UA_1uM_R6G_10uM_NaF_0.1M_Addition_RamanShift__28__11-36-37-189.txt Node

Date: Fri Dec 17 11:36:37 GMT 2021
User: TCL
Spectrometer: QEP01345
Trigger mode: 4
Integration Time (sec): 7.000000E0
Scans to average: 10
Electric dark correction enabled: true
Nonlinearity correction enabled: false
Boxcar width: 0
XAxis mode: Raman Shifts
Number of Pixels in Spectrum: 1044
>>>>>Begin Spectral Data<<<<<
46.04893	-0.2375
50.45542	-0.7375
54.85868	-2.4375
59.25871	-1.0375
63.6555	83.9625
68.04907	86.7625
72.43941	91.4625
76.82654	96.2625
81.21044	97.3625
85.59113	102.7625
89.96862	110.7625
94.34289	114.1625
98.71396	116.6625
103.08183	121.0625
107.4465	125.8625
111.80798	124.2625
116.16626	126.2625
120.52136	126.7625
124.87327	135.9625
129.222	136.5625
133.56755	143.4625
137.90993	146.6625
142.24913	158.3625
146.58517	169.3625
150.91804	191.0625
155.24774	221.5625
159.57429	265.9625
163.89768	328.1625
168.21792	426.6625
172.53501	554.8625
176.84895	773.1625
181.15975	1055.1625
185.46741	1471.6625
189.77193	2015.7625
194.07331	2685.3625
198.37157	3457.9625
202.6667	4254.3625
206.9587	5068.8625
211.24758	5868.0625
215.53334	6686.3625
219.81599	7584.9625
224.09553	8581.6625
228.37195	9696.1625
232.64527	10923.5625
236.91549	12150.3625
241.18261	13327.8625
245.44663	14349.1625
249.70755	15159.1625
253.96539	15910.0625
258.22014	16587.9625
262.4718	17122.5625
266.72039	17578.9625
270.96589	17829.7625
275.20832	17863.6625
279.44768	17686.6625
283.68397	17465.5625
287.91719	17253.6625
292.14735	17187.3625
296.37445	17374.8625
300.59849	17797.1625
304.81948	18283.5625
309.03742	18682.5625
313.25231	18638.9625
317.46415	17920.5625
321.67296	16905.6625
325.87872	16048.3625
330.08145	15683.5625
334.28114	15655.4625
338.47781	15866.5625
342.67145	16260.1625
346.86207	16890.7625
351.04966	17677.9625
355.23424	18646.9625
359.4158	19374.1625
363.59435	19829.0625
367.76989	20017.9625
371.94243	20052.8625
376.11196	20015.0625
380.27849	19996.1625
384.44203	19918.4625
388.60257	19766.7625
392.76012	19767.6625
396.91468	19933.2625
401.06626	20449.4625
405.21485	20784.2625
409.36047	20554.1625
413.50311	19894.7625
417.64277	19244.9625
421.77947	18838.0625
425.9132	18755.9625
430.04396	18791.2625
434.17176	18904.2625
438.2966	19154.5625
442.41849	19605.1625
446.53742	20185.3625
450.6534	20745.8625
454.76644	21237.2625
458.87653	21349.3625
462.98368	21274.3625
467.08789	20963.4625
471.18916	20475.7625
475.2875	20027.6625
479.38291	19625.8625
483.4754	19362.2625
487.56496	19143.4625
491.6516	18932.6625
495.73531	18819.0625
499.81612	18763.6625
503.89401	18871.3625
507.96899	19036.2625
512.04106	19265.5625
516.11023	19467.0625
520.1765	19675.5625
524.23987	19643.8625
528.30034	19425.8625
532.35792	19100.4625
536.41261	18751.0625
540.46441	18440.7625
544.51333	18323.8625
548.55936	18434.4625
552.60252	18756.0625
556.64279	19050.5625
560.6802	19234.3625
564.71473	19496.8625
568.7464	20050.4625
572.7752	20440.0625
576.80114	20208.5625
580.82422	19882.0625
584.84444	19814.5625
588.86181	19895.7625
592.87633	20095.5625
596.888	20390.0625
600.89682	21064.0625
604.9028	22902.1625
608.90594	27307.6625
612.90624	32708.5625
616.90371	31383.5625
620.89834	23922.1625
624.89015	20417.5625
628.87913	19755.0625
632.86528	19734.4625
636.84862	19793.5625
640.82913	19534.6625
644.80683	18963.1625
648.78172	18541.4625
652.75379	18589.3625
656.72306	19141.6625
660.68952	19869.1625
664.65319	19744.5625
668.61405	19091.0625
672.57211	18746.2625
676.52738	18765.9625
680.47986	18750.0625
684.42955	18680.3625
688.37646	18681.5625
692.32058	18769.9625
696.26192	18900.0625
700.20048	19145.7625
704.13626	19261.2625
708.06928	19247.1625
711.99952	19091.0625
715.927	19027.9625
719.85171	19046.5625
723.77365	18969.2625
727.69284	18848.6625
731.60928	18742.8625
735.52295	18710.6625
739.43388	18794.2625
743.34206	18920.1625
747.24749	19070.8625
751.15017	19237.9625
755.05012	19518.5625
758.94733	20202.9625
762.8418	21657.4625
766.73354	24055.9625
770.62254	26632.6625
774.50882	27925.9625
778.39237	26884.6625
782.27321	24157.5625
786.15132	21613.0625
790.02671	20112.0625
793.89938	19459.8625
797.76935	19168.3625
801.6366	19046.2625
805.50115	18929.1625
809.36299	18822.3625
813.22213	18754.2625
817.07857	18769.2625
820.93231	18785.7625
824.78336	18844.6625
828.63172	18904.9625
832.47738	18986.2625
836.32036	19020.6625
840.16066	19010.2625
843.99827	18992.0625
847.8332	18973.2625
851.66546	18936.9625
855.49504	18907.9625
859.32195	18900.7625
863.1462	18822.9625
866.96777	18750.0625
870.78668	18771.0625
874.60293	18807.5625
878.41652	18834.7625
882.22745	18941.7625
886.03573	18999.0625
889.84136	18986.4625
893.64433	18892.8625
897.44466	18864.0625
901.24235	18860.8625
905.0374	18843.9625
908.8298	18807.9625
912.61957	18821.8625
916.40671	18961.8625
920.19121	19090.4625
923.97308	19334.6625
927.75233	19530.6625
931.52895	19684.5625
935.30295	19531.8625
939.07433	19150.2625
942.84309	18819.7625
946.60924	18598.8625
950.37278	18512.8625
954.13371	18380.3625
957.89203	18287.0625
961.64774	18242.5625
965.40086	18186.3625
969.15137	18152.0625
972.89929	18119.7625
976.64461	18108.8625
980.38733	18148.9625
984.12747	18219.2625
987.86502	18374.5625
991.59999	18530.8625
995.33237	18811.8625
999.06217	19293.5625
1002.78939	19868.8625
1006.51404	20401.9625
1010.23611	20757.4625
1013.95561	21035.0625
1017.67255	21028.0625
1021.38692	20808.4625
1025.09872	20597.7625
1028.80796	20608.3625
1032.51465	20956.2625
1036.21877	21295.4625
1039.92035	21402.3625
1043.61937	21239.6625
1047.31584	20808.1625
1051.00976	20345.8625
1054.70114	20094.1625
1058.38998	19937.3625
1062.07627	19993.8625
1065.76003	20073.2625
1069.44126	20210.5625
1073.11995	20363.8625
1076.79611	20601.5625
1080.46974	20750.2625
1084.14085	21040.8625
1087.80943	21371.1625
1091.47549	21455.4625
1095.13903	21181.4625
1098.80005	20651.4625
1102.45857	20177.2625
1106.11456	19984.5625
1109.76805	20086.0625
1113.41903	20320.6625
1117.06751	20691.0625
1120.71348	21200.5625
1124.35696	21687.7625
1127.99793	22193.1625
1131.63641	22246.5625
1135.2724	21685.1625
1138.90589	21056.7625
1142.5369	20649.4625
1146.16542	20392.2625
1149.79145	20262.9625
1153.415	20261.6625
1157.03607	20424.7625
1160.65467	20747.7625
1164.27079	21269.1625
1167.88443	22137.2625
1171.49561	23420.8625
1175.10432	25501.4625
1178.71056	28308.4625
1182.31434	30763.6625
1185.91565	31855.1625
1189.51451	31653.0625
1193.11091	30240.6625
1196.70485	28277.2625
1200.29634	26631.5625
1203.88538	25417.4625
1207.47197	24255.6625
1211.05612	23352.6625
1214.63782	22912.6625
1218.21708	22844.2625
1221.79391	22962.2625
1225.36829	23146.3625
1228.94024	23281.5625
1232.50976	23412.8625
1236.07685	23408.9625
1239.6415	23439.5625
1243.20374	23397.0625
1246.76355	23406.4625
1250.32093	23587.3625
1253.8759	24013.3625
1257.42845	24708.3625
1260.97859	25308.9625
1264.52631	25858.9625
1268.07163	26402.2625
1271.61453	26999.1625
1275.15503	27521.0625
1278.69312	28023.0625
1282.22882	28402.6625
1285.76211	28953.0625
1289.29301	29566.4625
1292.82151	30231.6625
1296.34761	30925.6625
1299.87133	31846.1625
1303.39266	33539.4625
1306.9116	36151.2625
1310.42815	39365.6625
1313.94233	41596.6625
1317.45412	41670.5625
1320.96354	40143.0625
1324.47058	38146.1625
1327.97525	36336.0625
1331.47754	35049.1625
1334.97747	34661.5625
1338.47502	34880.5625
1341.97022	35280.7625
1345.46305	35662.4625
1348.95352	36335.8625
1352.44163	37474.1625
1355.92738	39514.4625
1359.41078	43058.0625
1362.89183	46846.0625
1366.37053	46392.4625
1369.84688	41182.7625
1373.32088	35498.1625
1376.79254	31815.9625
1380.26186	29951.5625
1383.72883	29054.9625
1387.19347	28354.1625
1390.65578	27588.9625
1394.11575	27115.6625
1397.57339	26999.2625
1401.0287	27284.5625
1404.48168	27795.8625
1407.93234	28490.7625
1411.38068	29004.6625
1414.82669	29111.6625
1418.27039	28649.5625
1421.71177	27955.3625
1425.15083	27413.0625
1428.58758	27031.3625
1432.02203	26991.6625
1435.45416	27130.0625
1438.88399	27265.2625
1442.31151	27305.8625
1445.73673	27418.3625
1449.15965	27535.1625
1452.58027	27535.4625
1455.9986	27327.6625
1459.41463	27223.6625
1462.82837	27379.1625
1466.23982	27766.7625
1469.64898	28181.4625
1473.05586	28502.4625
1476.46045	28725.8625
1479.86276	29071.3625
1483.26279	29491.3625
1486.66054	30008.4625
1490.05602	30699.6625
1493.44922	31546.6625
1496.84016	32492.7625
1500.22882	33904.5625
1503.61521	35890.7625
1506.99934	38388.0625
1510.38121	40936.7625
1513.76081	42420.7625
1517.13816	41356.5625
1520.51324	38121.9625
1523.88607	34572.3625
1527.25665	31900.4625
1530.62498	30291.7625
1533.99105	29371.0625
1537.35488	28816.0625
1540.71647	28425.0625
1544.07581	28242.2625
1547.4329	28098.5625
1550.78776	28022.6625
1554.14038	27978.1625
1557.49077	28097.8625
1560.83892	28350.3625
1564.18484	28686.8625
1567.52853	28956.9625
1570.86999	29158.4625
1574.20922	29375.4625
1577.54624	29459.2625
1580.88103	28868.8625
1584.2136	28090.2625
1587.54395	27927.3625
1590.87208	28696.6625
1594.19801	30206.6625
1597.52172	32039.0625
1600.84321	32921.2625
1604.16251	32043.2625
1607.47959	30164.8625
1610.79447	28010.8625
1614.10715	25960.2625
1617.41763	24359.0625
1620.7259	23429.1625
1624.03199	22984.5625
1627.33587	23073.9625
1630.63757	23681.2625
1633.93707	24778.9625
1637.23439	26272.8625
1640.52951	28170.4625
1643.82246	30249.3625
1647.11321	32220.6625
1650.40179	33268.1625
1653.68819	32238.4625
1656.97241	28994.7625
1660.25446	25342.3625
1663.53433	22717.5625
1666.81203	21133.1625
1670.08756	20166.5625
1673.36092	19584.9625
1676.63211	19181.6625
1679.90115	18892.8625
1683.16801	18713.0625
1686.43272	18556.8625
1689.69527	18440.3625
1692.95567	18357.2625
1696.2139	18352.8625
1699.46999	18280.0625
1702.72392	18302.4625
1705.97571	18266.1625
1709.22535	18253.9625
1712.47284	18272.8625
1715.71819	18321.8625
1718.96139	18305.9625
1722.20246	18243.3625
1725.44139	18240.8625
1728.67818	18172.5625
1731.91284	18033.1625
1735.14537	17946.7625
1738.37576	17883.7625
1741.60403	17831.3625
1744.83017	17820.6625
1748.05418	17740.7625
1751.27607	17686.2625
1754.49584	17653.0625
1757.71349	17685.9625
1760.92903	17649.3625
1764.14244	17644.3625
1767.35375	17654.9625
1770.56294	17674.8625
1773.77002	17606.6625
1776.97499	17565.6625
1780.17785	17581.7625
1783.37861	17572.7625
1786.57727	17520.6625
1789.77382	17533.7625
1792.96828	17510.4625
1796.16064	17514.1625
1799.3509	17496.9625
1802.53907	17488.4625
1805.72514	17468.4625
1808.90913	17418.6625
1812.09102	17404.4625
1815.27083	17355.6625
1818.44856	17314.6625
1821.6242	17300.7625
1824.79776	17302.8625
1827.96924	17281.9625
1831.13864	17295.6625
1834.30597	17300.6625
1837.47122	17267.6625
1840.6344	17268.8625
1843.7955	17300.9625
1846.95454	17286.2625
1850.11151	17285.0625
1853.26642	17291.7625
1856.41926	17281.6625
1859.57004	17309.4625
1862.71876	17336.4625
1865.86542	17323.2625
1869.01003	17334.2625
1872.15258	17377.9625
1875.29308	17369.4625
1878.43152	17369.7625
1881.56792	17414.5625
1884.70227	17394.8625
1887.83457	17424.8625
1890.96482	17426.1625
1894.09304	17460.3625
1897.21921	17436.4625
1900.34335	17431.0625
1903.46544	17435.4625
1906.58551	17442.1625
1909.70353	17446.8625
1912.81953	17405.7625
1915.93349	17393.3625
1919.04543	17404.5625
1922.15534	17345.5625
1925.26322	17303.3625
1928.36908	17283.5625
1931.47292	17240.0625
1934.57473	17152.8625
1937.67453	17100.1625
1940.77232	17043.0625
1943.86808	16959.6625
1946.96184	16906.9625
1950.05358	16848.5625
1953.14331	16785.8625
1956.23103	16726.9625
1959.31675	16658.2625
1962.40046	16612.7625
1965.48217	16556.3625
1968.56188	16525.1625
1971.63959	16496.8625
1974.7153	16422.7625
1977.78901	16381.6625
1980.86073	16288.1625
1983.93046	16252.5625
1986.99819	16211.7625
1990.06394	16161.9625
1993.1277	16118.7625
1996.18947	16083.9625
1999.24925	16060.9625
2002.30706	16007.0625
2005.36288	15943.3625
2008.41672	15942.8625
2011.46859	15874.3625
2014.51848	15829.1625
2017.56639	15803.6625
2020.61233	15754.8625
2023.6563	15725.4625
2026.6983	15707.8625
2029.73833	15702.2625
2032.7764	15623.5625
2035.8125	15601.4625
2038.84664	15583.0625
2041.87881	15593.2625
2044.90903	15558.3625
2047.93729	15532.6625
2050.96359	15510.7625
2053.98794	15492.6625
2057.01034	15498.2625
2060.03078	15454.5625
2063.04927	15433.0625
2066.06582	15411.0625
2069.08042	15402.8625
2072.09307	15392.2625
2075.10378	15367.2625
2078.11255	15348.1625
2081.11938	15403.7625
2084.12426	15331.5625
2087.12722	15359.7625
2090.12824	15351.5625
2093.12732	15352.5625
2096.12447	15343.6625
2099.11969	15343.6625
2102.11299	15353.5625
2105.10435	15367.5625
2108.09379	15386.0625
2111.08131	15365.7625
2114.0669	15353.2625
2117.05057	15404.8625
2120.03233	15381.2625
2123.01216	15419.8625
2125.99008	15425.6625
2128.96609	15463.3625
2131.94018	15456.1625
2134.91236	15452.6625
2137.88263	15439.9625
2140.851	15454.3625
2143.81746	15493.8625
2146.78201	15519.4625
2149.74466	15517.5625
2152.7054	15499.7625
2155.66425	15462.5625
2158.6212	15488.4625
2161.57625	15502.8625
2164.52941	15487.4625
2167.48067	15456.6625
2170.43004	15504.8625
2173.37752	15472.2625
2176.32311	15472.9625
2179.26681	15445.4625
2182.20863	15473.2625
2185.14856	15486.5625
2188.08661	15476.3625
2191.02278	15488.8625
2193.95707	15496.7625
2196.88948	15461.0625
2199.82001	15499.7625
2202.74867	15421.5625
2205.67545	15451.5625
2208.60037	15415.4625
2211.52341	15412.8625
2214.44458	15416.5625
2217.36388	15375.7625
2220.28132	15350.4625
2223.1969	15342.4625
2226.11061	15313.5625
2229.02246	15287.8625
2231.93245	15247.0625
2234.84058	15199.1625
2237.74686	15210.0625
2240.65128	15170.2625
2243.55385	15166.2625
2246.45456	15151.3625
2249.35343	15180.3625
2252.25044	15158.4625
2255.14561	15116.0625
2258.03893	15115.6625
2260.93041	15065.1625
2263.82004	15019.8625
2266.70783	15028.2625
2269.59378	14994.8625
2272.4779	14940.0625
2275.36017	14925.9625
2278.24061	14902.3625
2281.11922	14877.2625
2283.996	14841.9625
2286.87094	14838.1625
2289.74405	14794.1625
2292.61534	14754.7625
2295.4848	14774.1625
2298.35243	14769.5625
2301.21824	14767.2625
2304.08223	14771.6625
2306.94439	14771.2625
2309.80474	14766.1625
2312.66327	14748.7625
2315.51999	14740.8625
2318.37489	14742.8625
2321.22797	14747.3625
2324.07925	14747.4625
2326.92871	14702.8625
2329.77637	14693.5625
2332.62222	14677.2625
2335.46626	14654.9625
2338.3085	14651.9625
2341.14893	14694.5625
2343.98756	14662.1625
2346.8244	14664.2625
2349.65943	14650.4625
2352.49267	14657.2625
2355.32411	14654.4625
2358.15376	14642.7625
2360.98161	14635.7625
2363.80768	14604.0625
2366.63195	14596.1625
2369.45444	14588.4625
2372.27514	14574.7625
2375.09405	14553.2625
2377.91118	14526.7625
2380.72652	14483.0625
2383.54009	14465.1625
2386.35187	14424.4625
2389.16188	14399.8625
2391.97011	14379.3625
2394.77657	14309.8625
2397.58125	14319.6625
2400.38416	14292.4625
2403.18529	14272.9625
2405.98466	14261.0625
2408.78226	14220.1625
2411.57809	14194.4625
2414.37216	14166.3625
2417.16446	14132.8625
2419.955	14107.3625
2422.74378	14118.9625
2425.5308	14092.1625
2428.31606	14079.1625
2431.09956	14095.3625
2433.88131	14075.7625
2436.6613	14068.2625
2439.43954	14052.7625
2442.21603	14011.1625
2444.99077	13998.2625
2447.76377	14022.9625
2450.53501	14054.0625
2453.30451	14052.6625
2456.07226	13992.9625
2458.83827	14007.0625
2461.60254	13993.6625
2464.36507	13984.2625
2467.12586	14001.8625
2469.88492	13973.8625
2472.64224	13977.4625
2475.39782	13970.2625
2478.15167	13982.3625
2480.90379	13977.2625
2483.65417	13994.2625
2486.40283	13981.9625
2489.14976	13999.0625
2491.89497	13986.9625
2494.63845	14007.2625
2497.3802	13998.9625
2500.12024	13965.8625
2502.85855	13970.7625
2505.59514	13971.7625
2508.33002	13968.1625
2511.06318	13942.6625
2513.79462	13878.0625
2516.52435	13898.1625
2519.25237	13863.9625
2521.97867	13845.8625
2524.70327	13810.9625
2527.42616	13804.2625
2530.14734	13799.9625
2532.86681	13791.6625
2535.58458	13768.7625
2538.30065	13742.3625
2541.01501	13729.4625
2543.72768	13743.1625
2546.43864	13720.8625
2549.14791	13722.7625
2551.85548	13699.2625
2554.56136	13666.6625
2557.26554	13697.5625
2559.96803	13682.9625
2562.66883	13662.2625
2565.36794	13630.0625
2568.06536	13626.5625
2570.7611	13636.7625
2573.45514	13591.3625
2576.14751	13581.9625
2578.83819	13525.0625
2581.52719	13575.5625
2584.21451	13549.9625
2586.90015	13553.7625
2589.58411	13531.7625
2592.2664	13516.0625
2594.94701	13467.1625
2597.62594	13496.3625
2600.30321	13450.5625
2602.9788	13458.1625
2605.65273	13453.2625
2608.32498	13466.1625
2610.99557	13416.7625
2613.66449	13450.1625
2616.33175	13418.1625
2618.99734	13420.4625
2621.66128	13424.3625
2624.32355	13412.0625
2626.98416	13407.7625
2629.64311	13398.6625
2632.30041	13417.9625
2634.95605	13390.1625
2637.61004	13351.5625
2640.26238	13346.3625
2642.91306	13323.8625
2645.56209	13296.0625
2648.20948	13292.8625
2650.85521	13293.4625
2653.4993	13287.6625
2656.14175	13304.3625
2658.78255	13292.4625
2661.42171	13274.8625
2664.05923	13307.1625
2666.6951	13302.5625
2669.32934	13329.8625
2671.96194	13301.8625
2674.59291	13318.7625
2677.22224	13319.8625
2679.84993	13363.4625
2682.476	13343.8625
2685.10043	13359.3625
2687.72324	13330.4625
2690.34441	13326.8625
2692.96396	13292.0625
2695.58188	13319.5625
2698.19818	13315.8625
2700.81285	13348.1625
2703.4259	13312.8625
2706.03733	13290.9625
2708.64714	13279.9625
2711.25533	13355.4625
2713.86191	13308.5625
2716.46687	13329.6625
2719.07021	13346.7625
2721.67194	13348.6625
2724.27206	13324.8625
2726.87057	13342.5625
2729.46747	13360.6625
2732.06276	13354.9625
2734.65644	13338.8625
2737.24852	13316.1625
2739.83899	13319.7625
2742.42786	13313.5625
2745.01513	13304.8625
2747.60079	13331.0625
2750.18486	13330.1625
2752.76733	13325.9625
2755.3482	13301.0625
2757.92747	13331.5625
2760.50515	13294.2625
2763.08123	13309.8625
2765.65573	13262.2625
2768.22863	13273.5625
2770.79994	13277.6625
2773.36967	13287.5625
2775.9378	13241.7625
2778.50435	13267.0625
2781.06932	13250.2625
2783.6327	13215.9625
2786.1945	13230.4625
2788.75471	13216.1625
2791.31335	13222.8625
2793.87041	13200.3625
2796.42589	13137.0625
2798.97979	13117.7625
2801.53212	13133.3625
2804.08288	13110.9625
2806.63206	13086.7625
2809.17967	13063.4625
2811.72571	13065.3625
2814.27018	13086.8625
2816.81308	13088.2625
2819.35442	13068.8625
2821.89419	13018.7625
2824.43239	13041.1625
2826.96904	13029.6625
2829.50412	13042.1625
2832.03763	13024.9625
2834.56959	13049.9625
2837.1	13027.9625
2839.62884	13020.0625
2842.15613	13055.0625
2844.68186	13113.1625
2847.20604	13149.0625
2849.72867	13180.6625
2852.24974	13172.6625
2854.76927	13172.5625
2857.28724	13153.1625
2859.80367	13167.6625
2862.31855	13111.8625
2864.83189	13099.7625
2867.34368	13100.1625
2869.85393	13073.3625
2872.36264	13087.3625
2874.8698	13092.2625
2877.37543	13075.4625
2879.87952	13085.6625
2882.38207	13106.1625
2884.88308	13069.8625
2887.38256	13083.3625
2889.88051	13097.7625
2892.37692	13074.0625
2894.8718	13066.0625
2897.36515	13079.6625
2899.85698	13091.0625
2902.34727	13099.6625
2904.83604	13094.4625
2907.32328	13115.6625
2909.809	13121.2625
2912.29319	13089.3625
2914.77587	13100.4625
2917.25702	13061.3625
2919.73665	13052.5625
2922.21476	13068.9625
2924.69136	13023.8625
2927.16644	13022.3625
2929.64	13007.4625
2932.11205	13015.4625
2934.58258	12976.8625
2937.05161	12972.1625
2939.51912	12943.7625
2941.98513	12902.3625
2944.44962	12868.3625
2946.91261	12786.8625
2949.37409	12783.0625
2951.83407	12749.5625
2954.29254	12712.9625
2956.74951	12694.1625
2959.20498	12673.7625
2961.65895	12659.0625
2964.11142	12614.0625
2966.56239	12577.0625
2969.01186	12566.1625
2971.45984	12505.9625
2973.90632	12499.4625
2976.35131	12453.6625
2978.7948	12436.7625
2981.23681	12374.0625
2983.67732	12382.1625
2986.11635	12336.8625
2988.55388	12304.4625
2990.98993	12284.4625
2993.4245	12236.9625
2995.85758	12194.5625
2998.28917	12199.3625
3000.71928	12205.5625
3003.14791	12139.6625
3005.57506	12120.3625
3008.00073	12122.9625
3010.42493	12072.3625
3012.84764	12063.5625
3015.26888	12056.0625
3017.68865	12022.3625
3020.10694	12016.0625
3022.52376	11972.5625
3024.9391	11986.8625
3027.35298	11939.6625
3029.76539	11912.3625
3032.17632	11906.2625
3034.5858	11891.5625
3036.9938	11882.5625
3039.40034	11881.2625
3041.80542	11859.8625
3044.20903	11818.2625
3046.61118	11791.2625
3049.01187	11782.7625
3051.4111	11769.7625
3053.80888	11747.7625
3056.20519	11712.1625
3058.60005	11667.8625
3060.99345	11638.0625
3063.3854	11624.8625
3065.7759	11606.0625
3068.16494	11561.9625
3070.55254	11554.1625
3072.93868	11541.8625
3075.32338	11491.4625
3077.70662	11464.7625
3080.08842	11457.8625
3082.46878	11439.0625
3084.84769	11429.8625
3087.22515	11388.6625
3089.60118	11384.1625
3091.97576	11394.7625
3094.3489	11375.6625
3096.72061	11362.6625
3099.09087	11357.9625
3101.4597	11365.6625
3103.82709	11340.1625
3106.19305	11304.9625
3108.55757	11317.2625
3110.92066	11271.9625
3113.28232	11284.9625
3115.64255	11231.5625
3118.00134	11201.0625
3120.35871	11172.5625
3122.71466	11182.9625
3125.06917	11143.7625
3127.42226	11149.3625
3129.77393	11141.6625
3132.12417	11132.7625
3134.47299	11135.6625
3136.82039	11131.3625
3139.16636	11137.5625
3141.51092	11116.7625
3143.85406	11139.4625
3146.19579	11142.1625
3148.53609	11122.2625
3150.87499	11135.8625
3153.21246	11128.8625
3155.54853	11141.0625
3157.88318	11144.1625
3160.21642	11138.6625
3162.54826	11104.5625
3164.87868	11089.5625
3167.2077	11089.6625
3169.5353	11081.6625
3171.86151	11065.4625
3174.18631	11072.0625
3176.5097	11074.4625
3178.83169	11039.5625
3181.15228	11036.9625
3183.47147	11006.5625
3185.78926	11008.7625
3188.10565	11008.7625
3190.42065	11016.8625
3192.73424	11029.3625
3195.04645	10998.4625
3197.35725	11011.4625
3199.66667	11028.3625
3201.97469	11045.5625
3204.28132	11046.8625
3206.58656	11023.9625
3208.8904	11046.0625
3211.19287	11031.6625
3213.49394	11034.7625
3215.79363	11011.8625
3218.09193	11039.1625
3220.38884	11007.8625
3222.68438	11021.2625
3224.97853	10970.3625
3227.2713	10995.3625
3229.56269	10966.4625
3231.8527	10993.0625
3234.14133	10968.8625
3236.42858	10960.4625
3238.71446	10918.4625
3240.99896	10877.2625
3243.28209	10907.1625
3245.56384	10894.2625
3247.84423	10886.7625
3250.12324	10878.9625
3252.40088	10888.8625
3254.67715	10866.9625
3256.95205	10851.9625
3259.22558	10847.3625
3261.49775	10849.6625
3263.76855	10824.8625
3266.03799	10812.3625
3268.30606	10784.7625
3270.57277	10788.8625
3272.83812	10752.7625
3275.10211	10750.7625
3277.36474	10725.1625
3279.62601	10748.0625
3281.88593	10714.7625
3284.14448	10701.0625
3286.40168	10707.4625
3288.65753	10703.9625
3290.91202	10673.0625
3293.16516	10617.7625
3295.41695	10616.0625
3297.66738	10535.7625
3299.91647	10508.9625
3302.16421	10449.4625
3304.4106	10416.0625
3306.65564	10338.4625
3308.89933	10284.3625
3311.14169	10230.8625
3313.38269	10139.2625
3315.62236	10102.6625
3317.86068	9988.5625
3320.09766	9918.4625
3322.3333	9820.6625
3324.5676	9802.1625
3326.80056	9633.5625
3329.03219	9614.1625
3331.26248	3.7625
3333.49143	1.5625
3335.71905	0.1625
