Data from AgNPs_FTO_APTES_UA_0uM_R6G_10uM_NaF_0.1M_Addition_RamanShift__53__10-58-07-144.txt Node

Date: Fri Dec 17 10:58:07 GMT 2021
User: TCL
Spectrometer: QEP01345
Trigger mode: 4
Integration Time (sec): 7.000000E0
Scans to average: 10
Electric dark correction enabled: true
Nonlinearity correction enabled: false
Boxcar width: 0
XAxis mode: Raman Shifts
Number of Pixels in Spectrum: 1044
>>>>>Begin Spectral Data<<<<<
46.04893	-0.2625
50.45542	-0.5625
54.85868	-0.7625
59.25871	1.0375
63.6555	51.1375
68.04907	54.7375
72.43941	55.6375
76.82654	57.1375
81.21044	62.1375
85.59113	66.1375
89.96862	68.4375
94.34289	71.1375
98.71396	71.8375
103.08183	71.1375
107.4465	77.6375
111.80798	74.4375
116.16626	76.9375
120.52136	76.1375
124.87327	82.5375
129.222	85.9375
133.56755	88.9375
137.90993	92.9375
142.24913	97.0375
146.58517	107.4375
150.91804	118.0375
155.24774	133.6375
159.57429	165.1375
163.89768	206.6375
168.21792	261.3375
172.53501	353.0375
176.84895	483.7375
181.15975	664.6375
185.46741	923.2375
189.77193	1269.6375
194.07331	1694.3375
198.37157	2162.3375
202.6667	2676.3375
206.9587	3179.0375
211.24758	3673.1375
215.53334	4203.1375
219.81599	4763.4375
224.09553	5405.2375
228.37195	6112.7375
232.64527	6887.9375
236.91549	7663.0375
241.18261	8384.3375
245.44663	8993.3375
249.70755	9474.5375
253.96539	9925.6375
258.22014	10297.5375
262.4718	10645.4375
266.72039	10938.5375
270.96589	11066.8375
275.20832	11118.7375
279.44768	10998.6375
283.68397	10913.6375
287.91719	10814.6375
292.14735	10817.3375
296.37445	10965.5375
300.59849	11285.4375
304.81948	11685.4375
309.03742	11988.6375
313.25231	11978.3375
317.46415	11505.2375
321.67296	10783.6375
325.87872	10171.0375
330.08145	9882.0375
334.28114	9872.2375
338.47781	10018.6375
342.67145	10269.9375
346.86207	10705.3375
351.04966	11265.6375
355.23424	11952.6375
359.4158	12452.2375
363.59435	12704.4375
367.76989	12794.4375
371.94243	12753.8375
376.11196	12689.4375
380.27849	12601.3375
384.44203	12535.1375
388.60257	12417.9375
392.76012	12367.8375
396.91468	12525.8375
401.06626	12878.6375
405.21485	13145.3375
409.36047	13031.2375
413.50311	12541.1375
417.64277	12103.0375
421.77947	11835.0375
425.9132	11766.8375
430.04396	11783.7375
434.17176	11915.6375
438.2966	12072.7375
442.41849	12416.6375
446.53742	12834.1375
450.6534	13296.2375
454.76644	13562.6375
458.87653	13652.3375
462.98368	13501.8375
467.08789	13226.5375
471.18916	12835.1375
475.2875	12495.0375
479.38291	12224.4375
483.4754	12023.6375
487.56496	11853.7375
491.6516	11742.9375
495.73531	11658.5375
499.81612	11666.2375
503.89401	11757.0375
507.96899	11863.5375
512.04106	11968.3375
516.11023	12091.5375
520.1765	12193.7375
524.23987	12159.6375
528.30034	12031.7375
532.35792	11846.2375
536.41261	11627.5375
540.46441	11349.6375
544.51333	11260.9375
548.55936	11343.6375
552.60252	11550.3375
556.64279	11791.5375
560.6802	11938.0375
564.71473	12175.4375
568.7464	12615.2375
572.7752	12981.6375
576.80114	12764.5375
580.82422	12496.4375
584.84444	12470.0375
588.86181	12515.2375
592.87633	12656.7375
596.888	12885.5375
600.89682	13283.4375
604.9028	14475.0375
608.90594	17524.2375
612.90624	21351.3375
616.90371	20468.3375
620.89834	15135.6375
624.89015	12560.3375
628.87913	12066.0375
632.86528	12063.0375
636.84862	12113.5375
640.82913	11923.7375
644.80683	11524.6375
648.78172	11265.5375
652.75379	11362.7375
656.72306	11798.4375
660.68952	12313.0375
664.65319	12200.0375
668.61405	11747.0375
672.57211	11463.4375
676.52738	11442.0375
680.47986	11437.7375
684.42955	11370.3375
688.37646	11352.2375
692.32058	11419.5375
696.26192	11527.9375
700.20048	11710.2375
704.13626	11841.0375
708.06928	11787.6375
711.99952	11701.6375
715.927	11641.6375
719.85171	11630.4375
723.77365	11565.6375
727.69284	11472.5375
731.60928	11387.4375
735.52295	11389.6375
739.43388	11455.4375
743.34206	11583.6375
747.24749	11679.2375
751.15017	11799.0375
755.05012	12046.7375
758.94733	12534.1375
762.8418	13621.9375
766.73354	15354.5375
770.62254	17182.8375
774.50882	18030.8375
778.39237	17307.8375
782.27321	15408.9375
786.15132	13519.6375
790.02671	12438.5375
793.89938	11936.3375
797.76935	11752.4375
801.6366	11639.4375
805.50115	11588.2375
809.36299	11526.3375
813.22213	11448.7375
817.07857	11471.6375
820.93231	11466.8375
824.78336	11525.5375
828.63172	11591.1375
832.47738	11639.3375
836.32036	11652.3375
840.16066	11590.1375
843.99827	11519.8375
847.8332	11495.4375
851.66546	11485.0375
855.49504	11476.6375
859.32195	11449.2375
863.1462	11384.9375
866.96777	11351.6375
870.78668	11350.9375
874.60293	11398.2375
878.41652	11408.4375
882.22745	11478.8375
886.03573	11534.3375
889.84136	11522.2375
893.64433	11447.5375
897.44466	11449.4375
901.24235	11438.2375
905.0374	11422.6375
908.8298	11389.9375
912.61957	11400.2375
916.40671	11451.2375
920.19121	11567.4375
923.97308	11711.3375
927.75233	11798.4375
931.52895	11900.2375
935.30295	11753.0375
939.07433	11451.8375
942.84309	11235.3375
946.60924	11126.7375
950.37278	11041.0375
954.13371	10957.7375
957.89203	10902.6375
961.64774	10898.5375
965.40086	10864.7375
969.15137	10830.1375
972.89929	10787.5375
976.64461	10816.4375
980.38733	10829.1375
984.12747	10853.6375
987.86502	10899.2375
991.59999	10996.7375
995.33237	11147.9375
999.06217	11450.9375
1002.78939	11835.7375
1006.51404	12135.8375
1010.23611	12408.2375
1013.95561	12599.8375
1017.67255	12540.8375
1021.38692	12327.4375
1025.09872	12150.8375
1028.80796	12055.9375
1032.51465	12228.2375
1036.21877	12444.7375
1039.92035	12576.9375
1043.61937	12515.1375
1047.31584	12333.7375
1051.00976	12120.9375
1054.70114	11998.7375
1058.38998	11937.2375
1062.07627	11957.8375
1065.76003	12006.4375
1069.44126	12102.5375
1073.11995	12267.2375
1076.79611	12368.4375
1080.46974	12512.9375
1084.14085	12727.5375
1087.80943	12954.5375
1091.47549	13022.4375
1095.13903	12831.5375
1098.80005	12438.6375
1102.45857	12151.4375
1106.11456	11991.3375
1109.76805	12025.0375
1113.41903	12181.9375
1117.06751	12439.6375
1120.71348	12846.0375
1124.35696	13247.5375
1127.99793	13606.9375
1131.63641	13566.9375
1135.2724	13145.0375
1138.90589	12716.3375
1142.5369	12482.7375
1146.16542	12304.2375
1149.79145	12234.7375
1153.415	12260.9375
1157.03607	12376.2375
1160.65467	12601.2375
1164.27079	13005.6375
1167.88443	13558.9375
1171.49561	14527.6375
1175.10432	16098.8375
1178.71056	18055.9375
1182.31434	19569.4375
1185.91565	20091.5375
1189.51451	19877.7375
1193.11091	18934.7375
1196.70485	17651.1375
1200.29634	16583.9375
1203.88538	15754.5375
1207.47197	14936.8375
1211.05612	14273.8375
1214.63782	13977.1375
1218.21708	13951.8375
1221.79391	14031.8375
1225.36829	14123.6375
1228.94024	14137.6375
1232.50976	14180.2375
1236.07685	14209.8375
1239.6415	14299.1375
1243.20374	14300.7375
1246.76355	14354.6375
1250.32093	14498.4375
1253.8759	14774.3375
1257.42845	15224.6375
1260.97859	15647.5375
1264.52631	15999.7375
1268.07163	16366.4375
1271.61453	16736.9375
1275.15503	17040.3375
1278.69312	17275.9375
1282.22882	17504.5375
1285.76211	17863.9375
1289.29301	18393.1375
1292.82151	18907.2375
1296.34761	19435.6375
1299.87133	20146.8375
1303.39266	21285.3375
1306.9116	23090.5375
1310.42815	25249.2375
1313.94233	26730.0375
1317.45412	26599.9375
1320.96354	25398.5375
1324.47058	23964.9375
1327.97525	22804.2375
1331.47754	22183.4375
1334.97747	22127.5375
1338.47502	22306.5375
1341.97022	22629.2375
1345.46305	22949.4375
1348.95352	23437.2375
1352.44163	24327.9375
1355.92738	25790.2375
1359.41078	28327.9375
1362.89183	30834.0375
1366.37053	30302.9375
1369.84688	26694.4375
1373.32088	22834.6375
1376.79254	20247.7375
1380.26186	18931.2375
1383.72883	18331.1375
1387.19347	17883.5375
1390.65578	17367.2375
1394.11575	16955.2375
1397.57339	16876.6375
1401.0287	17031.1375
1404.48168	17458.4375
1407.93234	17945.3375
1411.38068	18337.1375
1414.82669	18335.0375
1418.27039	17909.9375
1421.71177	17315.0375
1425.15083	16860.0375
1428.58758	16646.5375
1432.02203	16682.7375
1435.45416	16842.8375
1438.88399	16936.2375
1442.31151	16984.9375
1445.73673	17073.1375
1449.15965	17120.5375
1452.58027	17034.9375
1455.9986	16886.1375
1459.41463	16778.2375
1462.82837	16905.3375
1466.23982	17181.0375
1469.64898	17477.4375
1473.05586	17706.5375
1476.46045	17845.9375
1479.86276	18117.4375
1483.26279	18472.9375
1486.66054	18861.7375
1490.05602	19334.8375
1493.44922	19924.2375
1496.84016	20712.2375
1500.22882	21840.8375
1503.61521	23374.4375
1506.99934	25119.3375
1510.38121	26866.8375
1513.76081	27895.6375
1517.13816	27077.5375
1520.51324	24727.5375
1523.88607	22188.8375
1527.25665	20440.6375
1530.62498	19421.8375
1533.99105	18856.9375
1537.35488	18495.3375
1540.71647	18243.4375
1544.07581	18107.2375
1547.4329	17952.3375
1550.78776	17710.7375
1554.14038	17464.9375
1557.49077	17411.1375
1560.83892	17477.4375
1564.18484	17767.0375
1567.52853	17996.4375
1570.86999	18247.4375
1574.20922	18419.5375
1577.54624	18401.7375
1580.88103	17835.2375
1584.2136	17141.3375
1587.54395	17003.0375
1590.87208	17591.5375
1594.19801	18739.1375
1597.52172	20253.5375
1600.84321	20967.9375
1604.16251	20551.6375
1607.47959	19139.1375
1610.79447	17476.2375
1614.10715	15925.6375
1617.41763	14771.8375
1620.7259	14082.9375
1624.03199	13755.0375
1627.33587	13767.2375
1630.63757	14121.6375
1633.93707	14737.6375
1637.23439	15770.9375
1640.52951	17123.6375
1643.82246	18738.9375
1647.11321	20358.8375
1650.40179	21284.5375
1653.68819	20572.6375
1656.97241	18216.1375
1660.25446	15635.0375
1663.53433	13729.4375
1666.81203	12591.8375
1670.08756	11931.5375
1673.36092	11525.2375
1676.63211	11253.8375
1679.90115	11082.4375
1683.16801	10963.0375
1686.43272	10878.6375
1689.69527	10782.6375
1692.95567	10742.2375
1696.2139	10694.6375
1699.46999	10689.1375
1702.72392	10672.4375
1705.97571	10647.2375
1709.22535	10656.3375
1712.47284	10630.1375
1715.71819	10654.9375
1718.96139	10644.3375
1722.20246	10626.2375
1725.44139	10600.2375
1728.67818	10530.8375
1731.91284	10460.1375
1735.14537	10420.3375
1738.37576	10362.5375
1741.60403	10318.0375
1744.83017	10284.2375
1748.05418	10252.1375
1751.27607	10245.7375
1754.49584	10237.3375
1757.71349	10202.4375
1760.92903	10207.4375
1764.14244	10195.8375
1767.35375	10174.2375
1770.56294	10161.5375
1773.77002	10154.9375
1776.97499	10131.0375
1780.17785	10108.0375
1783.37861	10132.7375
1786.57727	10097.5375
1789.77382	10062.5375
1792.96828	10057.9375
1796.16064	10044.7375
1799.3509	10038.1375
1802.53907	10043.3375
1805.72514	9993.1375
1808.90913	9967.3375
1812.09102	9947.0375
1815.27083	9925.7375
1818.44856	9896.3375
1821.6242	9880.3375
1824.79776	9877.0375
1827.96924	9880.7375
1831.13864	9855.1375
1834.30597	9857.8375
1837.47122	9849.9375
1840.6344	9839.6375
1843.7955	9849.8375
1846.95454	9846.8375
1850.11151	9838.0375
1853.26642	9863.5375
1856.41926	9844.2375
1859.57004	9847.6375
1862.71876	9852.5375
1865.86542	9845.9375
1869.01003	9852.8375
1872.15258	9851.0375
1875.29308	9855.7375
1878.43152	9836.4375
1881.56792	9827.3375
1884.70227	9868.2375
1887.83457	9859.4375
1890.96482	9864.8375
1894.09304	9870.2375
1897.21921	9850.5375
1900.34335	9838.7375
1903.46544	9836.4375
1906.58551	9839.4375
1909.70353	9828.5375
1912.81953	9862.9375
1915.93349	9852.3375
1919.04543	9821.0375
1922.15534	9817.1375
1925.26322	9795.2375
1928.36908	9771.2375
1931.47292	9737.5375
1934.57473	9711.9375
1937.67453	9651.2375
1940.77232	9626.8375
1943.86808	9608.1375
1946.96184	9565.9375
1950.05358	9537.1375
1953.14331	9481.8375
1956.23103	9465.0375
1959.31675	9440.8375
1962.40046	9393.8375
1965.48217	9366.6375
1968.56188	9329.3375
1971.63959	9291.4375
1974.7153	9271.2375
1977.78901	9233.4375
1980.86073	9222.5375
1983.93046	9160.2375
1986.99819	9135.6375
1990.06394	9122.2375
1993.1277	9083.9375
1996.18947	9049.5375
1999.24925	9018.1375
2002.30706	8997.3375
2005.36288	8950.2375
2008.41672	8950.0375
2011.46859	8922.8375
2014.51848	8879.1375
2017.56639	8874.8375
2020.61233	8858.1375
2023.6563	8840.8375
2026.6983	8817.0375
2029.73833	8793.1375
2032.7764	8780.4375
2035.8125	8747.9375
2038.84664	8731.2375
2041.87881	8727.6375
2044.90903	8708.4375
2047.93729	8686.4375
2050.96359	8710.1375
2053.98794	8662.0375
2057.01034	8665.1375
2060.03078	8640.1375
2063.04927	8612.9375
2066.06582	8619.8375
2069.08042	8601.5375
2072.09307	8588.4375
2075.10378	8584.0375
2078.11255	8586.1375
2081.11938	8589.7375
2084.12426	8589.3375
2087.12722	8576.9375
2090.12824	8567.6375
2093.12732	8557.0375
2096.12447	8577.7375
2099.11969	8555.9375
2102.11299	8570.6375
2105.10435	8544.4375
2108.09379	8554.9375
2111.08131	8549.6375
2114.0669	8566.7375
2117.05057	8561.4375
2120.03233	8563.9375
2123.01216	8560.4375
2125.99008	8574.1375
2128.96609	8568.5375
2131.94018	8599.0375
2134.91236	8565.4375
2137.88263	8561.6375
2140.851	8593.8375
2143.81746	8579.4375
2146.78201	8573.8375
2149.74466	8561.7375
2152.7054	8584.9375
2155.66425	8555.5375
2158.6212	8568.5375
2161.57625	8553.3375
2164.52941	8567.0375
2167.48067	8572.8375
2170.43004	8555.2375
2173.37752	8549.7375
2176.32311	8534.8375
2179.26681	8537.5375
2182.20863	8524.3375
2185.14856	8529.9375
2188.08661	8535.0375
2191.02278	8539.2375
2193.95707	8514.5375
2196.88948	8512.9375
2199.82001	8527.9375
2202.74867	8496.0375
2205.67545	8489.7375
2208.60037	8476.4375
2211.52341	8458.3375
2214.44458	8437.2375
2217.36388	8419.9375
2220.28132	8426.9375
2223.1969	8386.0375
2226.11061	8372.3375
2229.02246	8359.7375
2231.93245	8326.5375
2234.84058	8325.0375
2237.74686	8298.4375
2240.65128	8299.9375
2243.55385	8283.1375
2246.45456	8277.3375
2249.35343	8270.5375
2252.25044	8258.2375
2255.14561	8255.4375
2258.03893	8246.1375
2260.93041	8225.2375
2263.82004	8212.2375
2266.70783	8213.5375
2269.59378	8166.9375
2272.4779	8161.6375
2275.36017	8101.7375
2278.24061	8124.5375
2281.11922	8079.7375
2283.996	8089.5375
2286.87094	8059.6375
2289.74405	8046.4375
2292.61534	8024.8375
2295.4848	8002.3375
2298.35243	7996.4375
2301.21824	7995.0375
2304.08223	8018.2375
2306.94439	7987.2375
2309.80474	7987.2375
2312.66327	7993.3375
2315.51999	7999.7375
2318.37489	7979.1375
2321.22797	7979.9375
2324.07925	7964.7375
2326.92871	7956.1375
2329.77637	7954.1375
2332.62222	7944.7375
2335.46626	7945.6375
2338.3085	7895.9375
2341.14893	7910.1375
2343.98756	7904.7375
2346.8244	7906.7375
2349.65943	7914.6375
2352.49267	7895.2375
2355.32411	7900.6375
2358.15376	7884.4375
2360.98161	7905.9375
2363.80768	7892.8375
2366.63195	7866.7375
2369.45444	7889.0375
2372.27514	7845.6375
2375.09405	7841.7375
2377.91118	7840.4375
2380.72652	7794.3375
2383.54009	7774.1375
2386.35187	7759.4375
2389.16188	7732.6375
2391.97011	7707.3375
2394.77657	7693.3375
2397.58125	7671.9375
2400.38416	7679.0375
2403.18529	7634.1375
2405.98466	7644.2375
2408.78226	7619.8375
2411.57809	7595.4375
2414.37216	7562.6375
2417.16446	7566.0375
2419.955	7544.0375
2422.74378	7561.8375
2425.5308	7534.4375
2428.31606	7539.5375
2431.09956	7528.6375
2433.88131	7519.3375
2436.6613	7520.4375
2439.43954	7519.1375
2442.21603	7483.0375
2444.99077	7456.7375
2447.76377	7497.0375
2450.53501	7481.9375
2453.30451	7500.2375
2456.07226	7470.5375
2458.83827	7480.4375
2461.60254	7457.1375
2464.36507	7440.7375
2467.12586	7461.8375
2469.88492	7428.4375
2472.64224	7439.9375
2475.39782	7447.7375
2478.15167	7429.4375
2480.90379	7444.0375
2483.65417	7468.7375
2486.40283	7445.4375
2489.14976	7431.6375
2491.89497	7454.1375
2494.63845	7440.3375
2497.3802	7461.9375
2500.12024	7430.8375
2502.85855	7422.9375
2505.59514	7419.2375
2508.33002	7408.5375
2511.06318	7372.0375
2513.79462	7377.5375
2516.52435	7344.4375
2519.25237	7345.8375
2521.97867	7323.8375
2524.70327	7344.7375
2527.42616	7298.7375
2530.14734	7312.1375
2532.86681	7283.2375
2535.58458	7280.8375
2538.30065	7270.5375
2541.01501	7269.4375
2543.72768	7242.5375
2546.43864	7245.5375
2549.14791	7239.8375
2551.85548	7237.7375
2554.56136	7222.5375
2557.26554	7213.2375
2559.96803	7208.8375
2562.66883	7200.2375
2565.36794	7188.1375
2568.06536	7176.8375
2570.7611	7154.2375
2573.45514	7150.5375
2576.14751	7155.6375
2578.83819	7130.5375
2581.52719	7120.3375
2584.21451	7127.7375
2586.90015	7113.5375
2589.58411	7121.1375
2592.2664	7095.6375
2594.94701	7081.9375
2597.62594	7072.0375
2600.30321	7065.6375
2602.9788	7065.6375
2605.65273	7067.9375
2608.32498	7057.6375
2610.99557	7043.9375
2613.66449	7040.5375
2616.33175	7035.2375
2618.99734	7039.1375
2621.66128	7032.9375
2624.32355	7020.0375
2626.98416	7015.4375
2629.64311	7017.1375
2632.30041	7014.2375
2634.95605	7025.1375
2637.61004	6984.2375
2640.26238	6985.2375
2642.91306	6969.5375
2645.56209	6964.6375
2648.20948	6923.9375
2650.85521	6951.4375
2653.4993	6921.3375
2656.14175	6934.2375
2658.78255	6944.7375
2661.42171	6942.6375
2664.05923	6942.1375
2666.6951	6960.9375
2669.32934	6960.1375
2671.96194	6950.9375
2674.59291	6971.6375
2677.22224	6980.2375
2679.84993	6990.1375
2682.476	6960.5375
2685.10043	6974.0375
2687.72324	6962.1375
2690.34441	6984.0375
2692.96396	6952.2375
2695.58188	6975.3375
2698.19818	6938.0375
2700.81285	6944.7375
2703.4259	6949.3375
2706.03733	6962.0375
2708.64714	6945.2375
2711.25533	6964.8375
2713.86191	6955.9375
2716.46687	6952.7375
2719.07021	6962.0375
2721.67194	6978.2375
2724.27206	6951.4375
2726.87057	6970.4375
2729.46747	6962.2375
2732.06276	6964.2375
2734.65644	6957.8375
2737.24852	6945.0375
2739.83899	6931.6375
2742.42786	6936.8375
2745.01513	6928.7375
2747.60079	6935.2375
2750.18486	6929.5375
2752.76733	6931.4375
2755.3482	6908.0375
2757.92747	6929.0375
2760.50515	6913.7375
2763.08123	6889.9375
2765.65573	6890.7375
2768.22863	6899.7375
2770.79994	6890.5375
2773.36967	6884.4375
2775.9378	6880.5375
2778.50435	6869.5375
2781.06932	6871.7375
2783.6327	6857.0375
2786.1945	6861.0375
2788.75471	6860.2375
2791.31335	6847.4375
2793.87041	6838.5375
2796.42589	6829.1375
2798.97979	6833.1375
2801.53212	6818.3375
2804.08288	6808.4375
2806.63206	6796.8375
2809.17967	6798.7375
2811.72571	6799.1375
2814.27018	6824.1375
2816.81308	6793.1375
2819.35442	6802.3375
2821.89419	6804.5375
2824.43239	6818.5375
2826.96904	6803.3375
2829.50412	6818.7375
2832.03763	6796.5375
2834.56959	6821.3375
2837.1	6814.2375
2839.62884	6819.4375
2842.15613	6843.1375
2844.68186	6891.1375
2847.20604	6923.5375
2849.72867	6978.0375
2852.24974	6978.1375
2854.76927	6978.6375
2857.28724	6953.1375
2859.80367	6956.6375
2862.31855	6908.0375
2864.83189	6918.4375
2867.34368	6882.9375
2869.85393	6874.1375
2872.36264	6865.8375
2874.8698	6872.3375
2877.37543	6864.0375
2879.87952	6864.6375
2882.38207	6836.0375
2884.88308	6849.0375
2887.38256	6842.9375
2889.88051	6827.7375
2892.37692	6846.6375
2894.8718	6833.5375
2897.36515	6828.9375
2899.85698	6819.6375
2902.34727	6830.0375
2904.83604	6826.7375
2907.32328	6849.3375
2909.809	6832.5375
2912.29319	6814.5375
2914.77587	6827.2375
2917.25702	6801.2375
2919.73665	6793.9375
2922.21476	6776.8375
2924.69136	6768.7375
2927.16644	6772.6375
2929.64	6749.6375
2932.11205	6729.4375
2934.58258	6699.7375
2937.05161	6713.2375
2939.51912	6689.2375
2941.98513	6655.9375
2944.44962	6634.1375
2946.91261	6547.5375
2949.37409	6552.8375
2951.83407	6534.8375
2954.29254	6514.2375
2956.74951	6478.1375
2959.20498	6458.0375
2961.65895	6438.3375
2964.11142	6437.7375
2966.56239	6389.9375
2969.01186	6384.5375
2971.45984	6362.2375
2973.90632	6348.8375
2976.35131	6325.2375
2978.7948	6309.2375
2981.23681	6284.3375
2983.67732	6266.6375
2986.11635	6227.6375
2988.55388	6205.7375
2990.98993	6195.9375
2993.4245	6184.3375
2995.85758	6173.0375
2998.28917	6147.7375
3000.71928	6132.8375
3003.14791	6137.6375
3005.57506	6120.3375
3008.00073	6110.6375
3010.42493	6104.1375
3012.84764	6088.3375
3015.26888	6086.3375
3017.68865	6048.0375
3020.10694	6048.0375
3022.52376	6017.1375
3024.9391	5999.4375
3027.35298	5990.6375
3029.76539	5993.3375
3032.17632	5983.2375
3034.5858	5975.9375
3036.9938	5962.5375
3039.40034	5960.7375
3041.80542	5952.7375
3044.20903	5937.6375
3046.61118	5932.2375
3049.01187	5912.3375
3051.4111	5914.8375
3053.80888	5873.5375
3056.20519	5866.6375
3058.60005	5850.3375
3060.99345	5838.6375
3063.3854	5827.8375
3065.7759	5792.4375
3068.16494	5796.7375
3070.55254	5768.1375
3072.93868	5770.3375
3075.32338	5748.9375
3077.70662	5745.2375
3080.08842	5702.1375
3082.46878	5692.8375
3084.84769	5674.2375
3087.22515	5687.1375
3089.60118	5670.2375
3091.97576	5664.2375
3094.3489	5652.7375
3096.72061	5665.7375
3099.09087	5642.2375
3101.4597	5642.5375
3103.82709	5625.3375
3106.19305	5615.5375
3108.55757	5601.8375
3110.92066	5585.6375
3113.28232	5586.7375
3115.64255	5566.9375
3118.00134	5562.7375
3120.35871	5553.3375
3122.71466	5537.7375
3125.06917	5535.6375
3127.42226	5519.5375
3129.77393	5521.3375
3132.12417	5513.0375
3134.47299	5527.7375
3136.82039	5515.8375
3139.16636	5517.5375
3141.51092	5514.5375
3143.85406	5518.5375
3146.19579	5534.8375
3148.53609	5520.4375
3150.87499	5518.0375
3153.21246	5525.6375
3155.54853	5538.9375
3157.88318	5500.8375
3160.21642	5534.6375
3162.54826	5505.6375
3164.87868	5495.3375
3167.2077	5497.9375
3169.5353	5494.5375
3171.86151	5490.2375
3174.18631	5479.3375
3176.5097	5471.1375
3178.83169	5462.7375
3181.15228	5470.9375
3183.47147	5463.8375
3185.78926	5463.1375
3188.10565	5459.0375
3190.42065	5471.9375
3192.73424	5463.4375
3195.04645	5469.4375
3197.35725	5459.5375
3199.66667	5444.3375
3201.97469	5468.6375
3204.28132	5491.7375
3206.58656	5465.3375
3208.8904	5469.2375
3211.19287	5463.2375
3213.49394	5462.0375
3215.79363	5448.1375
3218.09193	5465.7375
3220.38884	5446.3375
3222.68438	5454.4375
3224.97853	5449.6375
3227.2713	5441.3375
3229.56269	5427.7375
3231.8527	5428.3375
3234.14133	5406.2375
3236.42858	5411.9375
3238.71446	5411.3375
3240.99896	5389.7375
3243.28209	5397.1375
3245.56384	5378.4375
3247.84423	5394.8375
3250.12324	5367.6375
3252.40088	5368.1375
3254.67715	5389.2375
3256.95205	5350.4375
3259.22558	5353.1375
3261.49775	5313.4375
3263.76855	5325.0375
3266.03799	5306.6375
3268.30606	5301.5375
3270.57277	5303.7375
3272.83812	5270.9375
3275.10211	5287.8375
3277.36474	5266.0375
3279.62601	5274.1375
3281.88593	5261.9375
3284.14448	5263.2375
3286.40168	5255.3375
3288.65753	5246.8375
3290.91202	5231.6375
3293.16516	5216.1375
3295.41695	5205.5375
3297.66738	5183.1375
3299.91647	5139.7375
3302.16421	5116.3375
3304.4106	5079.7375
3306.65564	5069.4375
3308.89933	5028.6375
3311.14169	5011.0375
3313.38269	4955.4375
3315.62236	4939.8375
3317.86068	4877.4375
3320.09766	4830.2375
3322.3333	4793.8375
3324.5676	4781.9375
3326.80056	4716.6375
3329.03219	4681.1375
3331.26248	2.5375
3333.49143	0.9375
3335.71905	-2.0625
