Data from AgNPs_FTO_APTES_UA_20uM_R6G_10uM_NaF_0.1M_Addition_RamanShift__25__14-24-37-381.txt Node

Date: Fri Dec 17 14:24:37 GMT 2021
User: TCL
Spectrometer: QEP01345
Trigger mode: 4
Integration Time (sec): 7.000000E0
Scans to average: 10
Electric dark correction enabled: true
Nonlinearity correction enabled: false
Boxcar width: 0
XAxis mode: Raman Shifts
Number of Pixels in Spectrum: 1044
>>>>>Begin Spectral Data<<<<<
46.04893	-0.4
50.45542	-1.1
54.85868	-0.4
59.25871	-0.2
63.6555	69.2
68.04907	68.5
72.43941	74.7
76.82654	79.1
81.21044	75.8
85.59113	84.9
89.96862	81.9
94.34289	87.1
98.71396	89.4
103.08183	92.1
107.4465	101.2
111.80798	98.3
116.16626	100.1
120.52136	99.8
124.87327	108.3
129.222	114.2
133.56755	114.5
137.90993	123.7
142.24913	133.5
146.58517	144.3
150.91804	167.9
155.24774	198.2
159.57429	245.9
163.89768	310.5
168.21792	400.9
172.53501	538.9
176.84895	745.6
181.15975	1040.5
185.46741	1463.1
189.77193	2004.1
194.07331	2687.2
198.37157	3467.7
202.6667	4280.4
206.9587	5087.8
211.24758	5894.9
215.53334	6684.8
219.81599	7547.6
224.09553	8471.6
228.37195	9537.8
232.64527	10684.9
236.91549	11940.5
241.18261	13161.4
245.44663	14331.3
249.70755	15345.3
253.96539	16232.7
258.22014	16960.9
262.4718	17576
266.72039	18087.3
270.96589	18344.7
275.20832	18428.9
279.44768	18276.9
283.68397	18055.1
287.91719	17886.7
292.14735	17787.5
296.37445	17815
300.59849	17935.8
304.81948	18172.4
309.03742	18271.4
313.25231	18116.4
317.46415	17661.2
321.67296	17063.5
325.87872	16583.5
330.08145	16346.7
334.28114	16408.8
338.47781	16613.7
342.67145	16897.6
346.86207	17282.9
351.04966	17805.5
355.23424	18405.2
359.4158	18850
363.59435	19205.3
367.76989	19445
371.94243	19614.4
376.11196	19701.2
380.27849	19827.6
384.44203	19879.8
388.60257	19927.8
392.76012	19962.5
396.91468	20165.8
401.06626	20448.8
405.21485	20790.2
409.36047	20745.4
413.50311	20385.3
417.64277	19976.9
421.77947	19805.5
425.9132	19770.8
430.04396	19818.3
434.17176	19924
438.2966	20147.4
442.41849	20455.9
446.53742	20892.1
450.6534	21280.3
454.76644	21712
458.87653	21924.7
462.98368	21911.4
467.08789	21726.3
471.18916	21369.7
475.2875	21065.8
479.38291	20770.8
483.4754	20623
487.56496	20421.7
491.6516	20324
495.73531	20261
499.81612	20182.3
503.89401	20264.4
507.96899	20394.4
512.04106	20523.4
516.11023	20660.8
520.1765	20747.5
524.23987	20699.6
528.30034	20531.9
532.35792	20368.1
536.41261	20191.7
540.46441	19977.9
544.51333	19880
548.55936	19995.1
552.60252	20186.3
556.64279	20469.6
560.6802	20602.1
564.71473	20681.4
568.7464	20888.7
572.7752	21178.6
576.80114	21158.4
580.82422	21132.6
584.84444	21230.6
588.86181	21306.1
592.87633	21449.5
596.888	21632.2
600.89682	22061.9
604.9028	23318.2
608.90594	26199.8
612.90624	29684.4
616.90371	28638.3
620.89834	23831.4
624.89015	21522.6
628.87913	21114.1
632.86528	21132.2
636.84862	21235.3
640.82913	21041.6
644.80683	20582.7
648.78172	20239.4
652.75379	20172.1
656.72306	20500.8
660.68952	20937.4
664.65319	20921.7
668.61405	20532.2
672.57211	20397.9
676.52738	20422.9
680.47986	20452.2
684.42955	20349.2
688.37646	20325.4
692.32058	20400.8
696.26192	20520.5
700.20048	20711.8
704.13626	20771.1
708.06928	20709.4
711.99952	20572
715.927	20527
719.85171	20530.4
723.77365	20562.3
727.69284	20426
731.60928	20344.8
735.52295	20324.1
739.43388	20364.2
743.34206	20466.5
747.24749	20576.3
751.15017	20675.8
755.05012	20894.2
758.94733	21377.5
762.8418	22329.9
766.73354	23956.4
770.62254	25687.6
774.50882	26666.7
778.39237	25880.8
782.27321	23915.6
786.15132	22231.7
790.02671	21194
793.89938	20705.8
797.76935	20520.6
801.6366	20469.3
805.50115	20449.2
809.36299	20421
813.22213	20377.8
817.07857	20337.5
820.93231	20338.5
824.78336	20325
828.63172	20327.4
832.47738	20354.6
836.32036	20371.6
840.16066	20388.2
843.99827	20435.8
847.8332	20431.7
851.66546	20393.3
855.49504	20339.9
859.32195	20333.6
863.1462	20349.6
866.96777	20250
870.78668	20273.5
874.60293	20265.9
878.41652	20330.7
882.22745	20374.4
886.03573	20440.5
889.84136	20443.8
893.64433	20372.1
897.44466	20248.6
901.24235	20194.6
905.0374	20182.2
908.8298	20134.2
912.61957	20135.8
916.40671	20198.6
920.19121	20345.1
923.97308	20489.6
927.75233	20618.5
931.52895	20670.1
935.30295	20532
939.07433	20297.3
942.84309	20040.2
946.60924	19978.7
950.37278	19881.7
954.13371	19757.8
957.89203	19665.7
961.64774	19629.2
965.40086	19548.7
969.15137	19503.4
972.89929	19467.8
976.64461	19452.7
980.38733	19473.5
984.12747	19545.4
987.86502	19651.4
991.59999	19824.1
995.33237	20128.1
999.06217	20549.8
1002.78939	21080
1006.51404	21437.8
1010.23611	21772.8
1013.95561	22022.9
1017.67255	22052.8
1021.38692	21952.2
1025.09872	21861
1028.80796	22000.2
1032.51465	22363.3
1036.21877	22726.5
1039.92035	22711.7
1043.61937	22432.2
1047.31584	22023.6
1051.00976	21545.4
1054.70114	21315.5
1058.38998	21213
1062.07627	21299.6
1065.76003	21392.6
1069.44126	21487.7
1073.11995	21621.4
1076.79611	21722.9
1080.46974	21841.9
1084.14085	21991.7
1087.80943	22160
1091.47549	22192.9
1095.13903	22053.6
1098.80005	21713.7
1102.45857	21408
1106.11456	21267.2
1109.76805	21306.7
1113.41903	21501.8
1117.06751	21744.1
1120.71348	22098.1
1124.35696	22379.9
1127.99793	22718.7
1131.63641	22806.2
1135.2724	22568.9
1138.90589	22205.8
1142.5369	21918.1
1146.16542	21684.5
1149.79145	21533.3
1153.415	21551.6
1157.03607	21701.7
1160.65467	21926.8
1164.27079	22400.5
1167.88443	23009.7
1171.49561	24008.5
1175.10432	25444.1
1178.71056	27395.5
1182.31434	29284
1185.91565	30267.8
1189.51451	30319.3
1193.11091	29338.8
1196.70485	27987.1
1200.29634	26812.9
1203.88538	25904.7
1207.47197	25066.3
1211.05612	24380.4
1214.63782	24007.1
1218.21708	23906.4
1221.79391	24016.2
1225.36829	24082.6
1228.94024	24127.1
1232.50976	24101.5
1236.07685	24071.6
1239.6415	24087.5
1243.20374	24132
1246.76355	24194.6
1250.32093	24427.3
1253.8759	24883.4
1257.42845	25420.9
1260.97859	25871.2
1264.52631	26290.7
1268.07163	26701
1271.61453	27190.6
1275.15503	27737.8
1278.69312	28286
1282.22882	28634.2
1285.76211	29048.3
1289.29301	29484.9
1292.82151	29961.8
1296.34761	30580.5
1299.87133	31543.4
1303.39266	32988.2
1306.9116	34941
1310.42815	37039.4
1313.94233	38315.4
1317.45412	38219.8
1320.96354	37161.9
1324.47058	35865.9
1327.97525	34687.9
1331.47754	33913.3
1334.97747	33769.4
1338.47502	34141.4
1341.97022	34625.5
1345.46305	34959.8
1348.95352	35201
1352.44163	35654
1355.92738	36747.8
1359.41078	38915.1
1362.89183	41213.1
1366.37053	40697.4
1369.84688	37005.5
1373.32088	33048.8
1376.79254	30351.4
1380.26186	28955.7
1383.72883	28303.2
1387.19347	27842.5
1390.65578	27312.8
1394.11575	27013.3
1397.57339	27005.3
1401.0287	27238.7
1404.48168	27647.4
1407.93234	28187.2
1411.38068	28615
1414.82669	28741.7
1418.27039	28368.6
1421.71177	27779.5
1425.15083	27178.7
1428.58758	26842.6
1432.02203	26796.2
1435.45416	26920.9
1438.88399	26991.6
1442.31151	27077.1
1445.73673	27213.1
1449.15965	27376.3
1452.58027	27433
1455.9986	27365.3
1459.41463	27389.2
1462.82837	27603
1466.23982	28001.8
1469.64898	28485.4
1473.05586	28838.9
1476.46045	29119.6
1479.86276	29353.7
1483.26279	29634.7
1486.66054	29992.2
1490.05602	30416.7
1493.44922	31069.2
1496.84016	31690.2
1500.22882	32618.3
1503.61521	34023.3
1506.99934	35671
1510.38121	37222.2
1513.76081	37688.5
1517.13816	36494
1520.51324	34273.4
1523.88607	32078.7
1527.25665	30546.8
1530.62498	29661.8
1533.99105	29136.4
1537.35488	28834.3
1540.71647	28672.7
1544.07581	28597.6
1547.4329	28523.2
1550.78776	28504.6
1554.14038	28509.4
1557.49077	28541.9
1560.83892	28645.9
1564.18484	28693.3
1567.52853	28787.3
1570.86999	28829.1
1574.20922	28939.6
1577.54624	28971.4
1580.88103	28618.8
1584.2136	28158.8
1587.54395	28157.3
1590.87208	28811.9
1594.19801	30180.9
1597.52172	31630.8
1600.84321	32425.6
1604.16251	31866.7
1607.47959	30363.6
1610.79447	28622.9
1614.10715	26995.9
1617.41763	25569.2
1620.7259	24684.5
1624.03199	24237.3
1627.33587	24242
1630.63757	24672
1633.93707	25536.6
1637.23439	26718.9
1640.52951	28176.2
1643.82246	29717.6
1647.11321	31194.7
1650.40179	31710.5
1653.68819	30688.5
1656.97241	28247.7
1660.25446	25597.7
1663.53433	23619.9
1666.81203	22392.2
1670.08756	21617.5
1673.36092	21081.2
1676.63211	20720.2
1679.90115	20490
1683.16801	20276.6
1686.43272	20137.1
1689.69527	20039.8
1692.95567	19998.2
1696.2139	19930
1699.46999	19878.1
1702.72392	19858.7
1705.97571	19818.2
1709.22535	19776.5
1712.47284	19769.4
1715.71819	19782.9
1718.96139	19784.6
1722.20246	19703.3
1725.44139	19628.6
1728.67818	19566.9
1731.91284	19505.8
1735.14537	19452.2
1738.37576	19378
1741.60403	19292.5
1744.83017	19273.5
1748.05418	19270.4
1751.27607	19224.5
1754.49584	19224.5
1757.71349	19210.7
1760.92903	19205.8
1764.14244	19223.3
1767.35375	19211.1
1770.56294	19222.7
1773.77002	19192.9
1776.97499	19200.3
1780.17785	19168.6
1783.37861	19138.9
1786.57727	19121.9
1789.77382	19076.8
1792.96828	19096.2
1796.16064	19062.8
1799.3509	19049.5
1802.53907	19047.2
1805.72514	19008.1
1808.90913	18964
1812.09102	18935.1
1815.27083	18905.4
1818.44856	18899.3
1821.6242	18873
1824.79776	18851.6
1827.96924	18883.8
1831.13864	18834
1834.30597	18874
1837.47122	18830.2
1840.6344	18820.7
1843.7955	18834.5
1846.95454	18847.7
1850.11151	18858.2
1853.26642	18824.8
1856.41926	18837.4
1859.57004	18849.2
1862.71876	18880.6
1865.86542	18858.6
1869.01003	18820.6
1872.15258	18843.6
1875.29308	18849.7
1878.43152	18874.8
1881.56792	18851.2
1884.70227	18852.4
1887.83457	18866.9
1890.96482	18890.3
1894.09304	18863
1897.21921	18846.4
1900.34335	18868.3
1903.46544	18831.4
1906.58551	18850.1
1909.70353	18838.3
1912.81953	18817.5
1915.93349	18840.1
1919.04543	18807.1
1922.15534	18734.9
1925.26322	18729
1928.36908	18728.1
1931.47292	18686.8
1934.57473	18618.8
1937.67453	18570.4
1940.77232	18529.4
1943.86808	18475.3
1946.96184	18447.3
1950.05358	18363
1953.14331	18337.1
1956.23103	18248.4
1959.31675	18221
1962.40046	18191.7
1965.48217	18131
1968.56188	18098.9
1971.63959	18059
1974.7153	18003.2
1977.78901	17950.8
1980.86073	17851.7
1983.93046	17812
1986.99819	17796.2
1990.06394	17736.4
1993.1277	17688
1996.18947	17596.3
1999.24925	17617.5
2002.30706	17528.7
2005.36288	17502.8
2008.41672	17480.9
2011.46859	17453.8
2014.51848	17418.5
2017.56639	17362.2
2020.61233	17323.9
2023.6563	17283.1
2026.6983	17252.6
2029.73833	17198.2
2032.7764	17187.6
2035.8125	17152.1
2038.84664	17145.6
2041.87881	17131.1
2044.90903	17104.6
2047.93729	17068.5
2050.96359	17053.7
2053.98794	17048.4
2057.01034	17013.8
2060.03078	17045.5
2063.04927	16980.3
2066.06582	16988.7
2069.08042	17001
2072.09307	16984.1
2075.10378	16941.4
2078.11255	16935.6
2081.11938	16934.8
2084.12426	16950.2
2087.12722	16900.2
2090.12824	16916.9
2093.12732	16941.3
2096.12447	16963.6
2099.11969	16945.9
2102.11299	16940.1
2105.10435	16928.7
2108.09379	16960.5
2111.08131	16971.9
2114.0669	16966.1
2117.05057	17002.7
2120.03233	16995.3
2123.01216	17011.1
2125.99008	17047.1
2128.96609	17052.3
2131.94018	17066.7
2134.91236	17112.2
2137.88263	17113.3
2140.851	17133.5
2143.81746	17139.9
2146.78201	17146.8
2149.74466	17159.5
2152.7054	17186.8
2155.66425	17172.3
2158.6212	17157
2161.57625	17153.4
2164.52941	17189.8
2167.48067	17202.8
2170.43004	17174.6
2173.37752	17164.9
2176.32311	17168.9
2179.26681	17183.9
2182.20863	17147.9
2185.14856	17162.2
2188.08661	17170.8
2191.02278	17164.2
2193.95707	17166.8
2196.88948	17203.2
2199.82001	17171.7
2202.74867	17149
2205.67545	17143.6
2208.60037	17171.5
2211.52341	17161.2
2214.44458	17092.2
2217.36388	17072.2
2220.28132	17089.2
2223.1969	17053.9
2226.11061	17050.6
2229.02246	17016.6
2231.93245	16994.7
2234.84058	16935.7
2237.74686	16895.7
2240.65128	16891.1
2243.55385	16872.4
2246.45456	16879.1
2249.35343	16864.7
2252.25044	16816.2
2255.14561	16784
2258.03893	16823.5
2260.93041	16794.7
2263.82004	16730.3
2266.70783	16720.1
2269.59378	16659.8
2272.4779	16651.2
2275.36017	16607.2
2278.24061	16566.8
2281.11922	16556.9
2283.996	16502.4
2286.87094	16491.5
2289.74405	16458.8
2292.61534	16462.5
2295.4848	16484.9
2298.35243	16456.6
2301.21824	16422.3
2304.08223	16469.2
2306.94439	16492.5
2309.80474	16470
2312.66327	16473.5
2315.51999	16469.3
2318.37489	16459.3
2321.22797	16446.8
2324.07925	16466.3
2326.92871	16438
2329.77637	16431.7
2332.62222	16426.8
2335.46626	16397.5
2338.3085	16373.8
2341.14893	16415.1
2343.98756	16404.2
2346.8244	16374.8
2349.65943	16361.1
2352.49267	16359.3
2355.32411	16358.3
2358.15376	16371.3
2360.98161	16373.3
2363.80768	16328
2366.63195	16331.2
2369.45444	16297.2
2372.27514	16284.1
2375.09405	16256.8
2377.91118	16217.4
2380.72652	16164.8
2383.54009	16152.4
2386.35187	16158.4
2389.16188	16085.5
2391.97011	16102.8
2394.77657	16036.5
2397.58125	16044.6
2400.38416	15991.7
2403.18529	15955.1
2405.98466	15958.6
2408.78226	15917.2
2411.57809	15896.3
2414.37216	15874.6
2417.16446	15848.9
2419.955	15848.2
2422.74378	15823.5
2425.5308	15812.8
2428.31606	15798.2
2431.09956	15816.7
2433.88131	15785.4
2436.6613	15771.4
2439.43954	15777.6
2442.21603	15770.6
2444.99077	15745.1
2447.76377	15768.6
2450.53501	15735.5
2453.30451	15739.6
2456.07226	15742.4
2458.83827	15712
2461.60254	15637.7
2464.36507	15671
2467.12586	15703.4
2469.88492	15684.9
2472.64224	15696.9
2475.39782	15677.1
2478.15167	15684.8
2480.90379	15670.9
2483.65417	15670.8
2486.40283	15687.5
2489.14976	15713.8
2491.89497	15682.1
2494.63845	15744.7
2497.3802	15696.6
2500.12024	15699.3
2502.85855	15712
2505.59514	15675.7
2508.33002	15644.9
2511.06318	15625.5
2513.79462	15596.5
2516.52435	15556.2
2519.25237	15580.4
2521.97867	15579
2524.70327	15576.6
2527.42616	15553.7
2530.14734	15549.7
2532.86681	15518.7
2535.58458	15528.8
2538.30065	15501.1
2541.01501	15490.1
2543.72768	15425.3
2546.43864	15445.1
2549.14791	15430.4
2551.85548	15426.4
2554.56136	15389.5
2557.26554	15374.9
2559.96803	15354.3
2562.66883	15366.8
2565.36794	15320.8
2568.06536	15313.9
2570.7611	15326.3
2573.45514	15293.8
2576.14751	15305.2
2578.83819	15251.7
2581.52719	15284
2584.21451	15266.7
2586.90015	15249.9
2589.58411	15211.5
2592.2664	15242.2
2594.94701	15191.6
2597.62594	15198.6
2600.30321	15163.3
2602.9788	15184
2605.65273	15180.3
2608.32498	15161.9
2610.99557	15130.2
2613.66449	15129.3
2616.33175	15105.4
2618.99734	15129.5
2621.66128	15117.4
2624.32355	15118.1
2626.98416	15138.7
2629.64311	15115.4
2632.30041	15118.2
2634.95605	15075.6
2637.61004	15084.6
2640.26238	15067.8
2642.91306	15076.6
2645.56209	15040.8
2648.20948	15021.6
2650.85521	14986.9
2653.4993	14995.4
2656.14175	14971.5
2658.78255	15005.3
2661.42171	15001.2
2664.05923	15023
2666.6951	15029.6
2669.32934	15033.7
2671.96194	15042.3
2674.59291	15032.4
2677.22224	15051.3
2679.84993	15080
2682.476	15066.9
2685.10043	15055.7
2687.72324	15025.6
2690.34441	15043.2
2692.96396	15032.6
2695.58188	15025
2698.19818	15003.9
2700.81285	15042.7
2703.4259	15034.2
2706.03733	15064
2708.64714	15045.5
2711.25533	15078.4
2713.86191	15089.6
2716.46687	15058.8
2719.07021	15084.1
2721.67194	15084.6
2724.27206	15032.4
2726.87057	15074.8
2729.46747	15071.7
2732.06276	15063.4
2734.65644	15049.4
2737.24852	15065.5
2739.83899	15055.1
2742.42786	15061.1
2745.01513	15004.8
2747.60079	15022.5
2750.18486	15002.8
2752.76733	15023.2
2755.3482	15017.4
2757.92747	15014.2
2760.50515	14979.8
2763.08123	14963.6
2765.65573	14938.1
2768.22863	14943.6
2770.79994	14938.1
2773.36967	14919.5
2775.9378	14903.8
2778.50435	14896.7
2781.06932	14894.1
2783.6327	14892.3
2786.1945	14866.6
2788.75471	14850.4
2791.31335	14832.7
2793.87041	14783
2796.42589	14774.4
2798.97979	14775.1
2801.53212	14718.7
2804.08288	14711.9
2806.63206	14685.3
2809.17967	14636.3
2811.72571	14636.7
2814.27018	14664.4
2816.81308	14609.2
2819.35442	14628.8
2821.89419	14574
2824.43239	14582.1
2826.96904	14572.8
2829.50412	14580.6
2832.03763	14558
2834.56959	14561
2837.1	14505.4
2839.62884	14522.7
2842.15613	14525.3
2844.68186	14544.4
2847.20604	14522.2
2849.72867	14567.5
2852.24974	14507.3
2854.76927	14509.8
2857.28724	14482.3
2859.80367	14474.8
2862.31855	14440
2864.83189	14412.6
2867.34368	14424.6
2869.85393	14402
2872.36264	14409.7
2874.8698	14420.2
2877.37543	14429.3
2879.87952	14427.7
2882.38207	14417
2884.88308	14415.3
2887.38256	14442
2889.88051	14424.8
2892.37692	14434.9
2894.8718	14414.3
2897.36515	14443.5
2899.85698	14441.8
2902.34727	14459.2
2904.83604	14468.3
2907.32328	14492.9
2909.809	14454.7
2912.29319	14496.7
2914.77587	14495.6
2917.25702	14471.4
2919.73665	14451.6
2922.21476	14451.4
2924.69136	14427.5
2927.16644	14453
2929.64	14423
2932.11205	14395.3
2934.58258	14372.5
2937.05161	14395
2939.51912	14362.2
2941.98513	14387.9
2944.44962	14355.5
2946.91261	14301.4
2949.37409	14357.4
2951.83407	14329.7
2954.29254	14349.4
2956.74951	14320.3
2959.20498	14314.9
2961.65895	14287
2964.11142	14292.1
2966.56239	14263.8
2969.01186	14272.1
2971.45984	14218
2973.90632	14231.7
2976.35131	14164.8
2978.7948	14164
2981.23681	14110.4
2983.67732	14117.4
2986.11635	14099.3
2988.55388	14030.1
2990.98993	14045.4
2993.4245	13994.7
2995.85758	13989.3
2998.28917	13954
3000.71928	13940.4
3003.14791	13931.1
3005.57506	13917.4
3008.00073	13894.5
3010.42493	13872.2
3012.84764	13853.5
3015.26888	13887.1
3017.68865	13839.8
3020.10694	13826.9
3022.52376	13773.1
3024.9391	13793.7
3027.35298	13749.9
3029.76539	13707.6
3032.17632	13713.6
3034.5858	13672.1
3036.9938	13729.1
3039.40034	13671.8
3041.80542	13657.7
3044.20903	13616.2
3046.61118	13643.1
3049.01187	13594.1
3051.4111	13578.7
3053.80888	13553.8
3056.20519	13552.6
3058.60005	13488.8
3060.99345	13497.4
3063.3854	13470.6
3065.7759	13429.7
3068.16494	13398.3
3070.55254	13364.8
3072.93868	13365.6
3075.32338	13330.3
3077.70662	13300.1
3080.08842	13291.3
3082.46878	13268.1
3084.84769	13264.1
3087.22515	13263.1
3089.60118	13237.7
3091.97576	13209.6
3094.3489	13225.2
3096.72061	13206.4
3099.09087	13218.4
3101.4597	13200.5
3103.82709	13222.4
3106.19305	13162.9
3108.55757	13172.1
3110.92066	13125.9
3113.28232	13141.8
3115.64255	13092.2
3118.00134	13067.3
3120.35871	13056.1
3122.71466	13031.2
3125.06917	12995.9
3127.42226	12985.8
3129.77393	12999.1
3132.12417	13006.4
3134.47299	13024.1
3136.82039	13001.2
3139.16636	12994.9
3141.51092	12991
3143.85406	13024.8
3146.19579	13015.8
3148.53609	12989.1
3150.87499	13029.7
3153.21246	13008.5
3155.54853	13036.8
3157.88318	13009.5
3160.21642	13029.9
3162.54826	13027.4
3164.87868	12999.5
3167.2077	12971.7
3169.5353	12992.9
3171.86151	13004.2
3174.18631	12976.6
3176.5097	12981.4
3178.83169	12913.3
3181.15228	12967.7
3183.47147	12920.4
3185.78926	12923.8
3188.10565	12895.3
3190.42065	12890
3192.73424	12895.4
3195.04645	12898.7
3197.35725	12866.1
3199.66667	12917
3201.97469	12925.9
3204.28132	12934.5
3206.58656	12961.1
3208.8904	12933
3211.19287	12920.3
3213.49394	12936.4
3215.79363	12939.3
3218.09193	12962.1
3220.38884	12958.1
3222.68438	12962.2
3224.97853	12907.6
3227.2713	12916.7
3229.56269	12880.6
3231.8527	12898.6
3234.14133	12852
3236.42858	12817.2
3238.71446	12822.2
3240.99896	12839.4
3243.28209	12826.2
3245.56384	12807.6
3247.84423	12807
3250.12324	12820.5
3252.40088	12804.2
3254.67715	12794.2
3256.95205	12743.1
3259.22558	12756.7
3261.49775	12743.8
3263.76855	12718.4
3266.03799	12727.7
3268.30606	12688.6
3270.57277	12664.7
3272.83812	12647.6
3275.10211	12636.6
3277.36474	12633.3
3279.62601	12636
3281.88593	12582.6
3284.14448	12614
3286.40168	12595.8
3288.65753	12597.7
3290.91202	12567
3293.16516	12500.8
3295.41695	12484.2
3297.66738	12424.4
3299.91647	12376.4
3302.16421	12322.1
3304.4106	12263.2
3306.65564	12225.6
3308.89933	12115.5
3311.14169	12085.6
3313.38269	11974.4
3315.62236	11939.9
3317.86068	11804.6
3320.09766	11694.5
3322.3333	11594.8
3324.5676	11619.2
3326.80056	11417.9
3329.03219	11370.2
3331.26248	2.6
3333.49143	1.1
3335.71905	-0.5
