Data from AgNPs_FTO_APTES_UA_0uM_R6G_10uM_NaF_0.1M_Addition_RamanShift__49__10-53-27-139.txt Node

Date: Fri Dec 17 10:53:27 GMT 2021
User: TCL
Spectrometer: QEP01345
Trigger mode: 4
Integration Time (sec): 7.000000E0
Scans to average: 10
Electric dark correction enabled: true
Nonlinearity correction enabled: false
Boxcar width: 0
XAxis mode: Raman Shifts
Number of Pixels in Spectrum: 1044
>>>>>Begin Spectral Data<<<<<
46.04893	-1.2
50.45542	-0.2
54.85868	-1
59.25871	-0.3
63.6555	76.3
68.04907	79.4
72.43941	83.4
76.82654	90.6
81.21044	87.1
85.59113	91.8
89.96862	96.8
94.34289	100.5
98.71396	102.9
103.08183	105.9
107.4465	107.6
111.80798	109.1
116.16626	111.9
120.52136	114
124.87327	122.5
129.222	128
133.56755	139.1
137.90993	147
142.24913	159.6
146.58517	174.7
150.91804	201.1
155.24774	237.3
159.57429	298.8
163.89768	379.2
168.21792	500.3
172.53501	668.8
176.84895	934.3
181.15975	1299.7
185.46741	1812.8
189.77193	2500.2
194.07331	3340.6
198.37157	4305.4
202.6667	5316
206.9587	6328.1
211.24758	7315.1
215.53334	8340.2
219.81599	9416.2
224.09553	10673.8
228.37195	12039.2
232.64527	13554.8
236.91549	15075.1
241.18261	16571.4
245.44663	17880.9
249.70755	18954.5
253.96539	19919.5
258.22014	20778.1
262.4718	21531.9
266.72039	22093.2
270.96589	22398.9
275.20832	22473.9
279.44768	22312.1
283.68397	22101.2
287.91719	21871.9
292.14735	21873.5
296.37445	21987.8
300.59849	22376.6
304.81948	22891.8
309.03742	23287.5
313.25231	23207.4
317.46415	22500.5
321.67296	21426.3
325.87872	20536.3
330.08145	20123.2
334.28114	20155.8
338.47781	20387.1
342.67145	20848
346.86207	21457.7
351.04966	22390.9
355.23424	23367
359.4158	24231
363.59435	24669.4
367.76989	24909.4
371.94243	24959.1
376.11196	24954.8
380.27849	24901.4
384.44203	24852.7
388.60257	24803.1
392.76012	24839.6
396.91468	25137.2
401.06626	25693.6
405.21485	26169
409.36047	26033.6
413.50311	25370.6
417.64277	24772
421.77947	24486.6
425.9132	24420.6
430.04396	24574.4
434.17176	24739.8
438.2966	25100.8
442.41849	25667.4
446.53742	26492.3
450.6534	27371.9
454.76644	28037.7
458.87653	28278.3
462.98368	28058.8
467.08789	27526
471.18916	26879.6
475.2875	26184.7
479.38291	25689
483.4754	25319.4
487.56496	25041.2
491.6516	24763.8
495.73531	24578.6
499.81612	24497.9
503.89401	24660.3
507.96899	24739.9
512.04106	24868.8
516.11023	25043.7
520.1765	25138.8
524.23987	25079.5
528.30034	24845.4
532.35792	24541
536.41261	24169.5
540.46441	23826
544.51333	23666.1
548.55936	23857.1
552.60252	24265.4
556.64279	24734.9
560.6802	25046.7
564.71473	25371.8
568.7464	26071.9
572.7752	26584.2
576.80114	26476.5
580.82422	26226.4
584.84444	26251.5
588.86181	26495.4
592.87633	26928.8
596.888	27414.3
600.89682	28110.4
604.9028	30037.3
608.90594	34801.9
612.90624	40472.4
616.90371	38608.5
620.89834	30372.1
624.89015	26524.2
628.87913	25798.7
632.86528	25689
636.84862	25568.4
640.82913	25091
644.80683	24357.2
648.78172	23903.2
652.75379	23969.9
656.72306	24578.1
660.68952	25393.6
664.65319	25290.2
668.61405	24569.6
672.57211	24268.5
676.52738	24219.9
680.47986	24205.8
684.42955	24131.6
688.37646	24103.2
692.32058	24180.3
696.26192	24462.8
700.20048	24710.4
704.13626	24906.5
708.06928	24829.2
711.99952	24623.3
715.927	24513.5
719.85171	24523.1
723.77365	24463.4
727.69284	24241.5
731.60928	24099.5
735.52295	24123.4
739.43388	24264.7
743.34206	24383.9
747.24749	24601.3
751.15017	24863.2
755.05012	25299.9
758.94733	26135.7
762.8418	27819
766.73354	30573.4
770.62254	33420.6
774.50882	34553.6
778.39237	33120.2
782.27321	30123.1
786.15132	27330.4
790.02671	25698.7
793.89938	24970.5
797.76935	24686.7
801.6366	24545.2
805.50115	24444.3
809.36299	24323.3
813.22213	24261.9
817.07857	24222.7
820.93231	24267.2
824.78336	24289.1
828.63172	24419
832.47738	24556.7
836.32036	24554.6
840.16066	24627.2
843.99827	24622.1
847.8332	24584.2
851.66546	24472.3
855.49504	24415.6
859.32195	24349.7
863.1462	24250.9
866.96777	24139.5
870.78668	24103.6
874.60293	24139.2
878.41652	24209
882.22745	24330.5
886.03573	24422.9
889.84136	24371.7
893.64433	24292.2
897.44466	24162.3
901.24235	24157
905.0374	24143
908.8298	24110
912.61957	24139.9
916.40671	24299.2
920.19121	24589.7
923.97308	24932
927.75233	25194.4
931.52895	25331.6
935.30295	25115.4
939.07433	24551.7
942.84309	24124.9
946.60924	23958.8
950.37278	23838.3
954.13371	23626.1
957.89203	23511.8
961.64774	23409.9
965.40086	23344.5
969.15137	23266.5
972.89929	23216.1
976.64461	23215.9
980.38733	23287.7
984.12747	23379.7
987.86502	23643
991.59999	23988.6
995.33237	24427.2
999.06217	25228
1002.78939	26221.3
1006.51404	26933.4
1010.23611	27387.7
1013.95561	27655
1017.67255	27660.1
1021.38692	27273.2
1025.09872	27081.5
1028.80796	27356.7
1032.51465	28217.4
1036.21877	28941.3
1039.92035	28982.8
1043.61937	28498.7
1047.31584	27597.9
1051.00976	26683.9
1054.70114	26140.6
1058.38998	25910.2
1062.07627	25874.5
1065.76003	25954
1069.44126	26079
1073.11995	26274
1076.79611	26547.4
1080.46974	26736.2
1084.14085	27090.4
1087.80943	27533.7
1091.47549	27635.4
1095.13903	27331.5
1098.80005	26739.9
1102.45857	26178.3
1106.11456	25933.1
1109.76805	25981.9
1113.41903	26262.1
1117.06751	26700.8
1120.71348	27254.4
1124.35696	27728.9
1127.99793	28261.7
1131.63641	28315.4
1135.2724	27763.9
1138.90589	27106.8
1142.5369	26671.8
1146.16542	26434.2
1149.79145	26336.5
1153.415	26390.3
1157.03607	26663.2
1160.65467	27085.7
1164.27079	27847.8
1167.88443	28992.5
1171.49561	30735.3
1175.10432	33502.7
1178.71056	37017
1182.31434	40026.6
1185.91565	41512.1
1189.51451	41335.8
1193.11091	39661.4
1196.70485	37281.7
1200.29634	35159.5
1203.88538	33649.8
1207.47197	32251.6
1211.05612	31248.3
1214.63782	30771.2
1218.21708	30762.6
1221.79391	31046.1
1225.36829	31220.4
1228.94024	31134.4
1232.50976	30925.1
1236.07685	30694.7
1239.6415	30669.7
1243.20374	30656.7
1246.76355	30802.3
1250.32093	31167.1
1253.8759	31865.9
1257.42845	32819.2
1260.97859	33702.6
1264.52631	34326
1268.07163	35024.5
1271.61453	35909.7
1275.15503	36745.5
1278.69312	37612.5
1282.22882	38354
1285.76211	39098.5
1289.29301	39971.7
1292.82151	40920.7
1296.34761	42032.8
1299.87133	43560.5
1303.39266	46057.9
1306.9116	49553
1310.42815	53602.3
1313.94233	56388.9
1317.45412	56427.6
1320.96354	54345.6
1324.47058	51778
1327.97525	49560.5
1331.47754	48108.2
1334.97747	47774
1338.47502	48147.7
1341.97022	48675.5
1345.46305	48868.5
1348.95352	49031.4
1352.44163	49761.1
1355.92738	51697.5
1359.41078	55692.4
1362.89183	59908.4
1366.37053	59293
1369.84688	53128.7
1373.32088	46309.6
1376.79254	41750.4
1380.26186	39527.1
1383.72883	38571
1387.19347	37884.8
1390.65578	37123.2
1394.11575	36694
1397.57339	36836.2
1401.0287	37470.5
1404.48168	38333.5
1407.93234	39289.5
1411.38068	40039.2
1414.82669	40009.5
1418.27039	39052.2
1421.71177	37792.7
1425.15083	36720.1
1428.58758	36087
1432.02203	36088.8
1435.45416	36342.1
1438.88399	36626.5
1442.31151	36835.8
1445.73673	37029.9
1449.15965	37274.1
1452.58027	37317.1
1455.9986	37057
1459.41463	36917
1462.82837	37167.9
1466.23982	37725.2
1469.64898	38421.3
1473.05586	38854.3
1476.46045	39218.2
1479.86276	39656.5
1483.26279	40134.8
1486.66054	40677.3
1490.05602	41401.6
1493.44922	42239.1
1496.84016	43165.5
1500.22882	44362.9
1503.61521	46099.7
1506.99934	48438.2
1510.38121	51066.8
1513.76081	52737
1517.13816	51882.3
1520.51324	48573
1523.88607	44887.9
1527.25665	42126.3
1530.62498	40533.8
1533.99105	39532
1537.35488	38965.6
1540.71647	38604.5
1544.07581	38382.2
1547.4329	38049.5
1550.78776	37633.7
1554.14038	37299.6
1557.49077	37194
1560.83892	37302.5
1564.18484	37524
1567.52853	37690.6
1570.86999	37758.7
1574.20922	37880.3
1577.54624	37922.3
1580.88103	37286.8
1584.2136	36676.8
1587.54395	37024.7
1590.87208	38653.5
1594.19801	41373.7
1597.52172	44446.5
1600.84321	46001.2
1604.16251	44820.7
1607.47959	41685.6
1610.79447	38000
1614.10715	34711.9
1617.41763	32275.9
1620.7259	30836
1624.03199	30157.1
1627.33587	30299.1
1630.63757	31049.5
1633.93707	32585.9
1637.23439	34752.4
1640.52951	37453.7
1643.82246	40397
1647.11321	42991.5
1650.40179	44198.1
1653.68819	42459.8
1656.97241	37998.6
1660.25446	33224.3
1663.53433	29615
1666.81203	27446.4
1670.08756	26125.7
1673.36092	25280.6
1676.63211	24737
1679.90115	24386.4
1683.16801	24068.3
1686.43272	23917.6
1689.69527	23743.5
1692.95567	23651.8
1696.2139	23599.2
1699.46999	23540.7
1702.72392	23507.9
1705.97571	23523.5
1709.22535	23539.7
1712.47284	23474.9
1715.71819	23513
1718.96139	23541.3
1722.20246	23418
1725.44139	23384.3
1728.67818	23291.6
1731.91284	23174.5
1735.14537	23073.7
1738.37576	22946
1741.60403	22916.2
1744.83017	22843.4
1748.05418	22780.5
1751.27607	22804.7
1754.49584	22718.4
1757.71349	22715.5
1760.92903	22730.5
1764.14244	22706.7
1767.35375	22706.8
1770.56294	22691.3
1773.77002	22640.9
1776.97499	22612.1
1780.17785	22583.1
1783.37861	22553.7
1786.57727	22558.2
1789.77382	22571.9
1792.96828	22552.4
1796.16064	22525.4
1799.3509	22523.1
1802.53907	22474.3
1805.72514	22444.8
1808.90913	22377
1812.09102	22326.4
1815.27083	22251.9
1818.44856	22264.1
1821.6242	22209.6
1824.79776	22225.8
1827.96924	22197
1831.13864	22159.7
1834.30597	22206.7
1837.47122	22228.5
1840.6344	22156.7
1843.7955	22205.9
1846.95454	22161.5
1850.11151	22150.7
1853.26642	22151.9
1856.41926	22203.9
1859.57004	22200.1
1862.71876	22199.2
1865.86542	22184.3
1869.01003	22183.9
1872.15258	22240.8
1875.29308	22250.9
1878.43152	22241
1881.56792	22246.1
1884.70227	22244.4
1887.83457	22298.5
1890.96482	22254.8
1894.09304	22284.6
1897.21921	22210.2
1900.34335	22260.1
1903.46544	22192.2
1906.58551	22255.8
1909.70353	22254.1
1912.81953	22259.6
1915.93349	22234.8
1919.04543	22183.2
1922.15534	22158.5
1925.26322	22143.9
1928.36908	22078.1
1931.47292	22029.1
1934.57473	21959.9
1937.67453	21894.5
1940.77232	21841.4
1943.86808	21745.9
1946.96184	21677
1950.05358	21627.3
1953.14331	21515.1
1956.23103	21451.8
1959.31675	21370.1
1962.40046	21307.8
1965.48217	21262.8
1968.56188	21239
1971.63959	21193.3
1974.7153	21112.5
1977.78901	20994.2
1980.86073	20934.1
1983.93046	20894.6
1986.99819	20792.1
1990.06394	20784.1
1993.1277	20690.4
1996.18947	20634.3
1999.24925	20606
2002.30706	20536.7
2005.36288	20474.4
2008.41672	20431.1
2011.46859	20387.1
2014.51848	20327.2
2017.56639	20254.3
2020.61233	20207.5
2023.6563	20213.4
2026.6983	20185
2029.73833	20136.7
2032.7764	20098.7
2035.8125	20051.6
2038.84664	20039.7
2041.87881	20037
2044.90903	19990.5
2047.93729	19952.6
2050.96359	19937.7
2053.98794	19902.4
2057.01034	19881.6
2060.03078	19865.5
2063.04927	19820.9
2066.06582	19802.1
2069.08042	19782.3
2072.09307	19768
2075.10378	19746.5
2078.11255	19725.7
2081.11938	19735.5
2084.12426	19721
2087.12722	19680.1
2090.12824	19692
2093.12732	19707.7
2096.12447	19674.8
2099.11969	19705.7
2102.11299	19697.7
2105.10435	19704.8
2108.09379	19682.7
2111.08131	19711.8
2114.0669	19702.5
2117.05057	19721.1
2120.03233	19746.8
2123.01216	19763.9
2125.99008	19739.9
2128.96609	19784.4
2131.94018	19789.3
2134.91236	19805.1
2137.88263	19811
2140.851	19813.2
2143.81746	19848.4
2146.78201	19890.2
2149.74466	19857.3
2152.7054	19826.7
2155.66425	19845.7
2158.6212	19854
2161.57625	19827.8
2164.52941	19836.4
2167.48067	19871
2170.43004	19853.7
2173.37752	19819.4
2176.32311	19818
2179.26681	19811.8
2182.20863	19819.4
2185.14856	19838.1
2188.08661	19804.2
2191.02278	19826.7
2193.95707	19820.3
2196.88948	19870.8
2199.82001	19828.4
2202.74867	19812.1
2205.67545	19795.6
2208.60037	19820
2211.52341	19790.7
2214.44458	19769.7
2217.36388	19722.8
2220.28132	19697.9
2223.1969	19629.5
2226.11061	19663.6
2229.02246	19615.2
2231.93245	19522.6
2234.84058	19532.2
2237.74686	19504.9
2240.65128	19501.4
2243.55385	19450.7
2246.45456	19431.9
2249.35343	19414.2
2252.25044	19381.2
2255.14561	19354.4
2258.03893	19367.6
2260.93041	19345.9
2263.82004	19235.6
2266.70783	19221.3
2269.59378	19185.4
2272.4779	19126.1
2275.36017	19076.6
2278.24061	19059.6
2281.11922	19034.1
2283.996	19026.2
2286.87094	18968.8
2289.74405	18948.9
2292.61534	18931.5
2295.4848	18910.5
2298.35243	18901.7
2301.21824	18931.6
2304.08223	18921.1
2306.94439	18913.7
2309.80474	18950.5
2312.66327	18953.7
2315.51999	18966.7
2318.37489	18955.9
2321.22797	18943.8
2324.07925	18911.2
2326.92871	18873
2329.77637	18885.6
2332.62222	18881.8
2335.46626	18873.5
2338.3085	18869
2341.14893	18884.2
2343.98756	18862.2
2346.8244	18867.7
2349.65943	18885.7
2352.49267	18844.9
2355.32411	18862.4
2358.15376	18823.9
2360.98161	18789.2
2363.80768	18801.6
2366.63195	18780.4
2369.45444	18692.6
2372.27514	18678.9
2375.09405	18645.4
2377.91118	18638.9
2380.72652	18559
2383.54009	18522.1
2386.35187	18520.8
2389.16188	18471.3
2391.97011	18405.3
2394.77657	18364.3
2397.58125	18349.9
2400.38416	18338.9
2403.18529	18300.7
2405.98466	18284.7
2408.78226	18206.6
2411.57809	18170.7
2414.37216	18145.8
2417.16446	18121.9
2419.955	18104.8
2422.74378	18079.7
2425.5308	18067.2
2428.31606	18048.5
2431.09956	18040.1
2433.88131	17979.2
2436.6613	17997.7
2439.43954	17978.5
2442.21603	17947.1
2444.99077	17942.5
2447.76377	17956.6
2450.53501	17969
2453.30451	17931.1
2456.07226	17937.1
2458.83827	17931.1
2461.60254	17882
2464.36507	17913
2467.12586	17931.1
2469.88492	17885
2472.64224	17863
2475.39782	17854.2
2478.15167	17886.2
2480.90379	17881.5
2483.65417	17924.6
2486.40283	17923.6
2489.14976	17914.5
2491.89497	17911.7
2494.63845	17957.7
2497.3802	17906.5
2500.12024	17929.3
2502.85855	17903.9
2505.59514	17929.2
2508.33002	17910.3
2511.06318	17835.8
2513.79462	17838.5
2516.52435	17795.2
2519.25237	17820.6
2521.97867	17726.2
2524.70327	17722.4
2527.42616	17706.8
2530.14734	17677.2
2532.86681	17671.6
2535.58458	17671
2538.30065	17654.4
2541.01501	17644.8
2543.72768	17603.3
2546.43864	17585.5
2549.14791	17598.1
2551.85548	17575.9
2554.56136	17563.4
2557.26554	17563.5
2559.96803	17548.2
2562.66883	17508.2
2565.36794	17518.7
2568.06536	17511
2570.7611	17460.6
2573.45514	17441
2576.14751	17447.5
2578.83819	17392.6
2581.52719	17428
2584.21451	17424.6
2586.90015	17396
2589.58411	17375.1
2592.2664	17376.8
2594.94701	17374.6
2597.62594	17356.9
2600.30321	17326.1
2602.9788	17335.5
2605.65273	17314
2608.32498	17322.2
2610.99557	17295.9
2613.66449	17309.4
2616.33175	17276.8
2618.99734	17286.8
2621.66128	17296.2
2624.32355	17281.7
2626.98416	17294.3
2629.64311	17257.4
2632.30041	17308.9
2634.95605	17285.7
2637.61004	17254.9
2640.26238	17184.2
2642.91306	17204.7
2645.56209	17149.9
2648.20948	17141.5
2650.85521	17094.9
2653.4993	17103.2
2656.14175	17096.5
2658.78255	17108.5
2661.42171	17084.9
2664.05923	17095.3
2666.6951	17095.6
2669.32934	17141
2671.96194	17161
2674.59291	17160.8
2677.22224	17174.2
2679.84993	17216.8
2682.476	17160.9
2685.10043	17174
2687.72324	17147.3
2690.34441	17141.7
2692.96396	17123
2695.58188	17137
2698.19818	17099.4
2700.81285	17114.7
2703.4259	17152
2706.03733	17125.5
2708.64714	17097.3
2711.25533	17100.6
2713.86191	17104.6
2716.46687	17128.6
2719.07021	17128.2
2721.67194	17116.5
2724.27206	17082.8
2726.87057	17071
2729.46747	17097
2732.06276	17112
2734.65644	17096.3
2737.24852	17125.2
2739.83899	17060.1
2742.42786	17106.1
2745.01513	17081.7
2747.60079	17053.9
2750.18486	17070.4
2752.76733	17088.8
2755.3482	17062.1
2757.92747	17044.8
2760.50515	17055.9
2763.08123	17068.1
2765.65573	17038.9
2768.22863	17050.1
2770.79994	16982.2
2773.36967	17008.4
2775.9378	16995.1
2778.50435	16999.8
2781.06932	16985.8
2783.6327	16987.1
2786.1945	16959.1
2788.75471	16950.9
2791.31335	16912.6
2793.87041	16858.5
2796.42589	16850
2798.97979	16811.1
2801.53212	16794
2804.08288	16759.4
2806.63206	16732.7
2809.17967	16714.5
2811.72571	16722.1
2814.27018	16678.3
2816.81308	16673.2
2819.35442	16707.3
2821.89419	16662.7
2824.43239	16694.8
2826.96904	16674.5
2829.50412	16662.6
2832.03763	16597.2
2834.56959	16609.5
2837.1	16624.6
2839.62884	16624.6
2842.15613	16621.3
2844.68186	16676.9
2847.20604	16680.9
2849.72867	16701.1
2852.24974	16708.5
2854.76927	16675.4
2857.28724	16636.2
2859.80367	16642.5
2862.31855	16586.4
2864.83189	16607.1
2867.34368	16563
2869.85393	16525.2
2872.36264	16540.5
2874.8698	16534.9
2877.37543	16536.2
2879.87952	16550.9
2882.38207	16503.8
2884.88308	16533.1
2887.38256	16569.1
2889.88051	16497.7
2892.37692	16541.4
2894.8718	16529.2
2897.36515	16557.5
2899.85698	16525.7
2902.34727	16557.9
2904.83604	16534.1
2907.32328	16593.8
2909.809	16536.5
2912.29319	16553
2914.77587	16570.6
2917.25702	16542.7
2919.73665	16510.7
2922.21476	16524.8
2924.69136	16478.7
2927.16644	16500.2
2929.64	16432.2
2932.11205	16448.9
2934.58258	16402.7
2937.05161	16395.8
2939.51912	16388.9
2941.98513	16352.6
2944.44962	16314.7
2946.91261	16247.5
2949.37409	16266.4
2951.83407	16227.4
2954.29254	16215.9
2956.74951	16216.9
2959.20498	16176.8
2961.65895	16149.3
2964.11142	16109.7
2966.56239	16087.9
2969.01186	16049.7
2971.45984	16030.6
2973.90632	16005.3
2976.35131	15941.2
2978.7948	15910.8
2981.23681	15868.1
2983.67732	15831.3
2986.11635	15786.6
2988.55388	15760
2990.98993	15729.5
2993.4245	15647.5
2995.85758	15665.9
2998.28917	15629.8
3000.71928	15636.7
3003.14791	15593.3
3005.57506	15559.9
3008.00073	15546.7
3010.42493	15514.5
3012.84764	15476.8
3015.26888	15477
3017.68865	15434.4
3020.10694	15406.3
3022.52376	15359.2
3024.9391	15343.6
3027.35298	15294.1
3029.76539	15298.4
3032.17632	15250
3034.5858	15265.2
3036.9938	15242.1
3039.40034	15219.1
3041.80542	15220
3044.20903	15173.5
3046.61118	15156.9
3049.01187	15114.4
3051.4111	15093
3053.80888	15030.7
3056.20519	15029.2
3058.60005	14978.6
3060.99345	14958.9
3063.3854	14906.9
3065.7759	14869.1
3068.16494	14815.3
3070.55254	14784.6
3072.93868	14757.4
3075.32338	14712.7
3077.70662	14720.3
3080.08842	14642.9
3082.46878	14641.4
3084.84769	14597.1
3087.22515	14597.2
3089.60118	14603.9
3091.97576	14578.3
3094.3489	14563.9
3096.72061	14550.5
3099.09087	14568.3
3101.4597	14522.6
3103.82709	14494.1
3106.19305	14454.1
3108.55757	14464.4
3110.92066	14422.2
3113.28232	14380.9
3115.64255	14360.3
3118.00134	14326.6
3120.35871	14311.3
3122.71466	14284.6
3125.06917	14256.5
3127.42226	14259.6
3129.77393	14272.5
3132.12417	14239.3
3134.47299	14243.7
3136.82039	14210.3
3139.16636	14223.7
3141.51092	14188.9
3143.85406	14226.1
3146.19579	14220.2
3148.53609	14175.3
3150.87499	14216.1
3153.21246	14213.4
3155.54853	14221.4
3157.88318	14178.2
3160.21642	14210.4
3162.54826	14141.3
3164.87868	14172.7
3167.2077	14145.2
3169.5353	14126.5
3171.86151	14116.9
3174.18631	14082.9
3176.5097	14082.5
3178.83169	14064.6
3181.15228	14050.6
3183.47147	14030.9
3185.78926	14040
3188.10565	14019.5
3190.42065	14038.3
3192.73424	14026
3195.04645	14048
3197.35725	14044.5
3199.66667	14025.7
3201.97469	14039.9
3204.28132	14020.3
3206.58656	14062.3
3208.8904	14029.1
3211.19287	14017.7
3213.49394	14012.6
3215.79363	13977.4
3218.09193	13987.4
3220.38884	14007.9
3222.68438	14017.8
3224.97853	13961.7
3227.2713	13938.4
3229.56269	13952.3
3231.8527	13949.8
3234.14133	13901
3236.42858	13873.8
3238.71446	13870.6
3240.99896	13859.4
3243.28209	13853.4
3245.56384	13886.2
3247.84423	13839.3
3250.12324	13828.8
3252.40088	13812.1
3254.67715	13787.6
3256.95205	13760
3259.22558	13767.3
3261.49775	13747.7
3263.76855	13719.7
3266.03799	13724.9
3268.30606	13695.1
3270.57277	13655.8
3272.83812	13635.2
3275.10211	13627.7
3277.36474	13631
3279.62601	13604.9
3281.88593	13596.1
3284.14448	13564.3
3286.40168	13547.1
3288.65753	13543.8
3290.91202	13552.4
3293.16516	13488.3
3295.41695	13477.9
3297.66738	13400.9
3299.91647	13320.9
3302.16421	13231.8
3304.4106	13202.4
3306.65564	13116.2
3308.89933	13057.8
3311.14169	12976.7
3313.38269	12871.7
3315.62236	12810.6
3317.86068	12679.1
3320.09766	12566.8
3322.3333	12475
3324.5676	12478.7
3326.80056	12251.8
3329.03219	12204.1
3331.26248	3.6
3333.49143	1.2
3335.71905	-0.9
