Data from AgNPs_FTO_APTES_UA_5uM_R6G_10uM_NaF_0.1M_Addition_RamanShift__15__12-43-07-265.txt Node

Date: Fri Dec 17 12:43:07 GMT 2021
User: TCL
Spectrometer: QEP01345
Trigger mode: 4
Integration Time (sec): 7.000000E0
Scans to average: 10
Electric dark correction enabled: true
Nonlinearity correction enabled: false
Boxcar width: 0
XAxis mode: Raman Shifts
Number of Pixels in Spectrum: 1044
>>>>>Begin Spectral Data<<<<<
46.04893	0.3375
50.45542	-0.7625
54.85868	-3.0625
59.25871	-0.0625
63.6555	114.0375
68.04907	118.3375
72.43941	123.3375
76.82654	135.0375
81.21044	131.8375
85.59113	138.7375
89.96862	147.3375
94.34289	146.3375
98.71396	155.1375
103.08183	155.8375
107.4465	165.8375
111.80798	165.6375
116.16626	173.0375
120.52136	170.9375
124.87327	186.1375
129.222	192.4375
133.56755	204.5375
137.90993	220.4375
142.24913	235.9375
146.58517	267.4375
150.91804	305.9375
155.24774	364.4375
159.57429	451.8375
163.89768	571.4375
168.21792	757.3375
172.53501	1024.5375
176.84895	1417.1375
181.15975	1988.8375
185.46741	2795.0375
189.77193	3831.0375
194.07331	5142.9375
198.37157	6610.6375
202.6667	8177.8375
206.9587	9699.9375
211.24758	11209.0375
215.53334	12699.0375
219.81599	14258.0375
224.09553	16029.3375
228.37195	17986.0375
232.64527	20187.9375
236.91549	22429.6375
241.18261	24747.0375
245.44663	26935.0375
249.70755	28837.2375
253.96539	30495.2375
258.22014	31922.3375
262.4718	33064.2375
266.72039	33913.7375
270.96589	34294.4375
275.20832	34380.1375
279.44768	34160.8375
283.68397	33817.1375
287.91719	33473.6375
292.14735	33235.7375
296.37445	33137.6375
300.59849	33231.9375
304.81948	33319.3375
309.03742	33358.5375
313.25231	33103.4375
317.46415	32483.2375
321.67296	31590.3375
325.87872	30917.0375
330.08145	30560.5375
334.28114	30501.9375
338.47781	30841.1375
342.67145	31257.1375
346.86207	31747.2375
351.04966	32403.8375
355.23424	33143.1375
359.4158	33768.3375
363.59435	34289.9375
367.76989	34631.0375
371.94243	34804.5375
376.11196	34949.6375
380.27849	35118.0375
384.44203	35272.9375
388.60257	35491.0375
392.76012	35719.2375
396.91468	36110.1375
401.06626	36645.2375
405.21485	37036.0375
409.36047	36904.4375
413.50311	36343.0375
417.64277	35891.4375
421.77947	35798.3375
425.9132	35826.5375
430.04396	35971.1375
434.17176	36102.9375
438.2966	36340.2375
442.41849	36770.6375
446.53742	37460.9375
450.6534	38283.3375
454.76644	38942.4375
458.87653	39216.2375
462.98368	39240.5375
467.08789	38941.3375
471.18916	38432.7375
475.2875	37911.6375
479.38291	37482.2375
483.4754	37124.2375
487.56496	36758.1375
491.6516	36407.5375
495.73531	36196.8375
499.81612	36217.7375
503.89401	36508.6375
507.96899	36704.2375
512.04106	36790.4375
516.11023	36708.2375
520.1765	36492.3375
524.23987	36302.6375
528.30034	35944.7375
532.35792	35623.2375
536.41261	35222.8375
540.46441	34906.8375
544.51333	34829.5375
548.55936	35194.2375
552.60252	35755.9375
556.64279	36402.5375
560.6802	36755.7375
564.71473	36940.6375
568.7464	37351.5375
572.7752	37951.6375
576.80114	38456.1375
580.82422	38960.0375
584.84444	39462.4375
588.86181	39703.3375
592.87633	39895.5375
596.888	39983.2375
600.89682	40347.7375
604.9028	42026.9375
608.90594	45918.7375
612.90624	49702.3375
616.90371	47049.8375
620.89834	40064.5375
624.89015	36897.1375
628.87913	36443.3375
632.86528	36500.0375
636.84862	36421.1375
640.82913	36011.5375
644.80683	35274.7375
648.78172	34618.6375
652.75379	34531.9375
656.72306	34957.1375
660.68952	35556.2375
664.65319	35354.7375
668.61405	34783.7375
672.57211	34637.0375
676.52738	34711.5375
680.47986	34683.2375
684.42955	34521.6375
688.37646	34481.5375
692.32058	34632.2375
696.26192	34939.7375
700.20048	35381.3375
704.13626	35585.6375
708.06928	35463.5375
711.99952	35228.6375
715.927	35149.9375
719.85171	35205.1375
723.77365	35066.0375
727.69284	34737.3375
731.60928	34392.7375
735.52295	34206.2375
739.43388	34248.7375
743.34206	34349.9375
747.24749	34481.9375
751.15017	34744.7375
755.05012	35151.9375
758.94733	36019.3375
762.8418	37600.5375
766.73354	40180.1375
770.62254	42769.9375
774.50882	43519.6375
778.39237	41902.1375
782.27321	39207.2375
786.15132	36881.5375
790.02671	35469.2375
793.89938	34800.4375
797.76935	34487.8375
801.6366	34409.5375
805.50115	34327.7375
809.36299	34118.3375
813.22213	33832.1375
817.07857	33585.5375
820.93231	33442.8375
824.78336	33360.1375
828.63172	33349.5375
832.47738	33337.4375
836.32036	33346.7375
840.16066	33422.2375
843.99827	33516.2375
847.8332	33460.1375
851.66546	33401.1375
855.49504	33375.1375
859.32195	33392.2375
863.1462	33358.0375
866.96777	33252.2375
870.78668	33207.8375
874.60293	33231.0375
878.41652	33275.6375
882.22745	33377.8375
886.03573	33484.3375
889.84136	33519.4375
893.64433	33398.1375
897.44466	33240.0375
901.24235	33130.7375
905.0374	33003.2375
908.8298	32959.6375
912.61957	32991.6375
916.40671	33134.7375
920.19121	33485.7375
923.97308	33770.7375
927.75233	33873.7375
931.52895	33797.5375
935.30295	33528.9375
939.07433	33020.1375
942.84309	32590.4375
946.60924	32460.9375
950.37278	32397.4375
954.13371	32323.3375
957.89203	32202.7375
961.64774	32101.1375
965.40086	32080.9375
969.15137	31990.3375
972.89929	31954.9375
976.64461	31942.5375
980.38733	32031.5375
984.12747	32182.6375
987.86502	32444.3375
991.59999	32813.4375
995.33237	33233.8375
999.06217	34026.0375
1002.78939	34882.0375
1006.51404	35450.5375
1010.23611	35874.3375
1013.95561	36128.4375
1017.67255	36110.9375
1021.38692	35734.8375
1025.09872	35362.0375
1028.80796	35368.4375
1032.51465	35847.0375
1036.21877	36454.6375
1039.92035	36600.3375
1043.61937	36308.1375
1047.31584	35776.1375
1051.00976	35158.4375
1054.70114	34925.4375
1058.38998	34970.4375
1062.07627	35271.0375
1065.76003	35570.0375
1069.44126	35952.2375
1073.11995	36512.6375
1076.79611	37011.4375
1080.46974	37394.9375
1084.14085	37608.1375
1087.80943	37837.4375
1091.47549	38013.0375
1095.13903	37848.6375
1098.80005	37416.3375
1102.45857	36768.3375
1106.11456	36295.4375
1109.76805	36025.6375
1113.41903	36103.8375
1117.06751	36210.0375
1120.71348	36519.7375
1124.35696	36742.6375
1127.99793	37152.1375
1131.63641	37336.4375
1135.2724	37120.7375
1138.90589	36875.8375
1142.5369	36710.5375
1146.16542	36659.0375
1149.79145	36667.9375
1153.415	36841.2375
1157.03607	37145.0375
1160.65467	37848.4375
1164.27079	39123.1375
1167.88443	40860.9375
1171.49561	43017.4375
1175.10432	45831.5375
1178.71056	49325.2375
1182.31434	52748.9375
1185.91565	54816.4375
1189.51451	55166.8375
1193.11091	53991.7375
1196.70485	51796.1375
1200.29634	49504.4375
1203.88538	47676.8375
1207.47197	46215.1375
1211.05612	45132.1375
1214.63782	44293.4375
1218.21708	43683.2375
1221.79391	43366.3375
1225.36829	43255.6375
1228.94024	43054.2375
1232.50976	42700.8375
1236.07685	42358.9375
1239.6415	42166.3375
1243.20374	42083.5375
1246.76355	42289.0375
1250.32093	42771.1375
1253.8759	43578.1375
1257.42845	44659.3375
1260.97859	45856.2375
1264.52631	47026.7375
1268.07163	48237.8375
1271.61453	49572.4375
1275.15503	50846.6375
1278.69312	52061.9375
1282.22882	52884.3375
1285.76211	53526.1375
1289.29301	54098.6375
1292.82151	55071.8375
1296.34761	56452.2375
1299.87133	58605.4375
1303.39266	61513.9375
1306.9116	65086.7375
1310.42815	68674.4375
1313.94233	70988.3375
1317.45412	71273.9375
1320.96354	70297.9375
1324.47058	69270.2375
1327.97525	68312.0375
1331.47754	67732.4375
1334.97747	67549.4375
1338.47502	67972.0375
1341.97022	68284.5375
1345.46305	68095.1375
1348.95352	67562.3375
1352.44163	67059.2375
1355.92738	67497.4375
1359.41078	69507.5375
1362.89183	71528.4375
1366.37053	70017.0375
1369.84688	64749.1375
1373.32088	58642.4375
1376.79254	54358.4375
1380.26186	52375.9375
1383.72883	51819.5375
1387.19347	51377.6375
1390.65578	50647.7375
1394.11575	50162.7375
1397.57339	50233.5375
1401.0287	50831.6375
1404.48168	51595.2375
1407.93234	52077.5375
1411.38068	52093.3375
1414.82669	51318.0375
1418.27039	50009.6375
1421.71177	48510.1375
1425.15083	47329.5375
1428.58758	46757.3375
1432.02203	46913.8375
1435.45416	47652.2375
1438.88399	48670.2375
1442.31151	49428.8375
1445.73673	49948.3375
1449.15965	50366.4375
1452.58027	50589.2375
1455.9986	50657.8375
1459.41463	51047.4375
1462.82837	51900.9375
1466.23982	52848.3375
1469.64898	53786.0375
1473.05586	54312.6375
1476.46045	54381.3375
1479.86276	54014.1375
1483.26279	53554.1375
1486.66054	53287.2375
1490.05602	53453.6375
1493.44922	53811.8375
1496.84016	54423.9375
1500.22882	55522.5375
1503.61521	57370.8375
1506.99934	59483.4375
1510.38121	61383.6375
1513.76081	61769.1375
1517.13816	60179.5375
1520.51324	57458.6375
1523.88607	54860.5375
1527.25665	53239.4375
1530.62498	52475.9375
1533.99105	52174.0375
1537.35488	51946.7375
1540.71647	51508.6375
1544.07581	50994.3375
1547.4329	50455.1375
1550.78776	49877.7375
1554.14038	49514.9375
1557.49077	49271.7375
1560.83892	49170.9375
1564.18484	49162.7375
1567.52853	49254.7375
1570.86999	49518.5375
1574.20922	50037.7375
1577.54624	50525.9375
1580.88103	50493.1375
1584.2136	50271.6375
1587.54395	50842.6375
1590.87208	52509.4375
1594.19801	55005.9375
1597.52172	57804.9375
1600.84321	58876.4375
1604.16251	57173.1375
1607.47959	53866.5375
1610.79447	50267.8375
1614.10715	46842.8375
1617.41763	43708.7375
1620.7259	41392.3375
1624.03199	40171.7375
1627.33587	40003.0375
1630.63757	40852.3375
1633.93707	42952.5375
1637.23439	46232.1375
1640.52951	50690.9375
1643.82246	55332.5375
1647.11321	58594.5375
1650.40179	58868.8375
1653.68819	55474.3375
1656.97241	49467.5375
1660.25446	43532.5375
1663.53433	39137.6375
1666.81203	36282.6375
1670.08756	34391.5375
1673.36092	33218.9375
1676.63211	32386.3375
1679.90115	31831.7375
1683.16801	31386.0375
1686.43272	31122.5375
1689.69527	30895.3375
1692.95567	30635.6375
1696.2139	30554.6375
1699.46999	30451.7375
1702.72392	30343.7375
1705.97571	30289.8375
1709.22535	30226.5375
1712.47284	30171.8375
1715.71819	30113.1375
1718.96139	30078.8375
1722.20246	30004.4375
1725.44139	29906.6375
1728.67818	29735.5375
1731.91284	29537.1375
1735.14537	29449.5375
1738.37576	29304.5375
1741.60403	29140.4375
1744.83017	29051.2375
1748.05418	29021.3375
1751.27607	28936.6375
1754.49584	28876.3375
1757.71349	28825.8375
1760.92903	28821.0375
1764.14244	28825.6375
1767.35375	28820.1375
1770.56294	28773.8375
1773.77002	28746.0375
1776.97499	28703.6375
1780.17785	28660.0375
1783.37861	28631.5375
1786.57727	28559.4375
1789.77382	28508.7375
1792.96828	28472.0375
1796.16064	28404.6375
1799.3509	28385.5375
1802.53907	28326.2375
1805.72514	28268.2375
1808.90913	28203.5375
1812.09102	28176.5375
1815.27083	28119.2375
1818.44856	28070.3375
1821.6242	28033.7375
1824.79776	28062.0375
1827.96924	28061.5375
1831.13864	28048.3375
1834.30597	28056.6375
1837.47122	28077.7375
1840.6344	28095.9375
1843.7955	28092.4375
1846.95454	28124.2375
1850.11151	28076.2375
1853.26642	28082.6375
1856.41926	28088.7375
1859.57004	28125.4375
1862.71876	28082.9375
1865.86542	28033.6375
1869.01003	27994.8375
1872.15258	28017.6375
1875.29308	27998.2375
1878.43152	27973.4375
1881.56792	27992.0375
1884.70227	27983.1375
1887.83457	27961.4375
1890.96482	27944.4375
1894.09304	27921.8375
1897.21921	27911.3375
1900.34335	27843.7375
1903.46544	27806.7375
1906.58551	27760.7375
1909.70353	27683.4375
1912.81953	27678.7375
1915.93349	27564.7375
1919.04543	27544.2375
1922.15534	27449.7375
1925.26322	27357.1375
1928.36908	27327.1375
1931.47292	27237.0375
1934.57473	27175.9375
1937.67453	27056.2375
1940.77232	27000.8375
1943.86808	26884.4375
1946.96184	26821.0375
1950.05358	26760.9375
1953.14331	26660.0375
1956.23103	26588.1375
1959.31675	26515.9375
1962.40046	26424.6375
1965.48217	26370.6375
1968.56188	26322.2375
1971.63959	26235.3375
1974.7153	26166.8375
1977.78901	26075.3375
1980.86073	26000.1375
1983.93046	25928.3375
1986.99819	25851.4375
1990.06394	25795.7375
1993.1277	25694.7375
1996.18947	25609.1375
1999.24925	25569.5375
2002.30706	25471.3375
2005.36288	25381.5375
2008.41672	25362.4375
2011.46859	25287.4375
2014.51848	25195.0375
2017.56639	25190.7375
2020.61233	25065.7375
2023.6563	25063.8375
2026.6983	24980.3375
2029.73833	24980.1375
2032.7764	24922.2375
2035.8125	24903.8375
2038.84664	24788.5375
2041.87881	24789.8375
2044.90903	24787.1375
2047.93729	24745.9375
2050.96359	24717.5375
2053.98794	24631.3375
2057.01034	24631.6375
2060.03078	24639.8375
2063.04927	24619.7375
2066.06582	24578.7375
2069.08042	24580.4375
2072.09307	24582.5375
2075.10378	24545.1375
2078.11255	24513.7375
2081.11938	24504.6375
2084.12426	24477.9375
2087.12722	24470.2375
2090.12824	24448.7375
2093.12732	24430.6375
2096.12447	24454.0375
2099.11969	24474.2375
2102.11299	24483.8375
2105.10435	24489.0375
2108.09379	24528.4375
2111.08131	24541.6375
2114.0669	24586.4375
2117.05057	24607.4375
2120.03233	24606.3375
2123.01216	24625.7375
2125.99008	24612.3375
2128.96609	24660.6375
2131.94018	24691.2375
2134.91236	24703.3375
2137.88263	24741.5375
2140.851	24720.0375
2143.81746	24728.6375
2146.78201	24754.8375
2149.74466	24759.3375
2152.7054	24731.2375
2155.66425	24768.5375
2158.6212	24731.6375
2161.57625	24740.4375
2164.52941	24734.9375
2167.48067	24731.3375
2170.43004	24745.3375
2173.37752	24721.6375
2176.32311	24737.5375
2179.26681	24706.8375
2182.20863	24743.3375
2185.14856	24746.4375
2188.08661	24739.2375
2191.02278	24727.6375
2193.95707	24715.8375
2196.88948	24731.4375
2199.82001	24714.9375
2202.74867	24708.5375
2205.67545	24688.1375
2208.60037	24661.9375
2211.52341	24627.8375
2214.44458	24597.4375
2217.36388	24562.0375
2220.28132	24535.3375
2223.1969	24473.2375
2226.11061	24446.7375
2229.02246	24418.5375
2231.93245	24373.6375
2234.84058	24327.1375
2237.74686	24277.6375
2240.65128	24268.9375
2243.55385	24242.2375
2246.45456	24193.0375
2249.35343	24140.1375
2252.25044	24099.3375
2255.14561	24084.3375
2258.03893	24066.2375
2260.93041	24018.2375
2263.82004	23944.4375
2266.70783	23924.4375
2269.59378	23855.6375
2272.4779	23829.3375
2275.36017	23790.0375
2278.24061	23748.3375
2281.11922	23679.1375
2283.996	23675.9375
2286.87094	23648.6375
2289.74405	23600.6375
2292.61534	23577.6375
2295.4848	23586.0375
2298.35243	23594.7375
2301.21824	23540.9375
2304.08223	23564.9375
2306.94439	23580.9375
2309.80474	23553.8375
2312.66327	23596.2375
2315.51999	23569.0375
2318.37489	23592.3375
2321.22797	23571.5375
2324.07925	23547.6375
2326.92871	23509.1375
2329.77637	23488.3375
2332.62222	23483.3375
2335.46626	23434.9375
2338.3085	23425.0375
2341.14893	23403.6375
2343.98756	23420.9375
2346.8244	23427.1375
2349.65943	23434.7375
2352.49267	23390.7375
2355.32411	23397.5375
2358.15376	23378.8375
2360.98161	23329.4375
2363.80768	23312.2375
2366.63195	23314.0375
2369.45444	23284.3375
2372.27514	23217.8375
2375.09405	23208.9375
2377.91118	23189.8375
2380.72652	23102.1375
2383.54009	23040.5375
2386.35187	22996.2375
2389.16188	22947.5375
2391.97011	22962.7375
2394.77657	22911.8375
2397.58125	22877.1375
2400.38416	22862.3375
2403.18529	22822.4375
2405.98466	22784.6375
2408.78226	22742.0375
2411.57809	22731.2375
2414.37216	22725.9375
2417.16446	22683.0375
2419.955	22667.5375
2422.74378	22649.1375
2425.5308	22616.2375
2428.31606	22601.5375
2431.09956	22628.9375
2433.88131	22569.5375
2436.6613	22592.2375
2439.43954	22595.5375
2442.21603	22583.4375
2444.99077	22549.2375
2447.76377	22538.5375
2450.53501	22535.3375
2453.30451	22477.6375
2456.07226	22533.9375
2458.83827	22479.3375
2461.60254	22487.1375
2464.36507	22494.1375
2467.12586	22480.3375
2469.88492	22493.1375
2472.64224	22496.6375
2475.39782	22505.0375
2478.15167	22539.8375
2480.90379	22476.8375
2483.65417	22487.9375
2486.40283	22479.9375
2489.14976	22482.7375
2491.89497	22441.4375
2494.63845	22544.8375
2497.3802	22482.6375
2500.12024	22464.4375
2502.85855	22455.9375
2505.59514	22446.8375
2508.33002	22429.3375
2511.06318	22376.3375
2513.79462	22390.1375
2516.52435	22360.3375
2519.25237	22371.7375
2521.97867	22327.5375
2524.70327	22378.7375
2527.42616	22293.6375
2530.14734	22321.2375
2532.86681	22275.4375
2535.58458	22286.9375
2538.30065	22228.3375
2541.01501	22234.7375
2543.72768	22208.2375
2546.43864	22197.1375
2549.14791	22164.2375
2551.85548	22148.3375
2554.56136	22114.4375
2557.26554	22102.2375
2559.96803	22105.6375
2562.66883	22054.9375
2565.36794	22048.1375
2568.06536	22051.1375
2570.7611	22005.3375
2573.45514	21967.9375
2576.14751	21953.9375
2578.83819	21936.8375
2581.52719	21900.4375
2584.21451	21899.7375
2586.90015	21912.5375
2589.58411	21877.8375
2592.2664	21851.1375
2594.94701	21833.2375
2597.62594	21793.5375
2600.30321	21779.7375
2602.9788	21754.6375
2605.65273	21754.3375
2608.32498	21768.2375
2610.99557	21720.0375
2613.66449	21740.4375
2616.33175	21710.3375
2618.99734	21700.6375
2621.66128	21701.4375
2624.32355	21677.5375
2626.98416	21671.4375
2629.64311	21689.5375
2632.30041	21701.4375
2634.95605	21644.8375
2637.61004	21637.2375
2640.26238	21599.1375
2642.91306	21629.3375
2645.56209	21590.0375
2648.20948	21609.5375
2650.85521	21533.5375
2653.4993	21591.5375
2656.14175	21560.0375
2658.78255	21613.5375
2661.42171	21576.5375
2664.05923	21614.5375
2666.6951	21609.4375
2669.32934	21630.7375
2671.96194	21601.0375
2674.59291	21642.7375
2677.22224	21595.4375
2679.84993	21627.6375
2682.476	21560.3375
2685.10043	21601.0375
2687.72324	21539.4375
2690.34441	21585.3375
2692.96396	21552.2375
2695.58188	21549.2375
2698.19818	21533.5375
2700.81285	21531.2375
2703.4259	21521.4375
2706.03733	21557.7375
2708.64714	21538.0375
2711.25533	21613.1375
2713.86191	21547.1375
2716.46687	21633.0375
2719.07021	21606.7375
2721.67194	21628.7375
2724.27206	21574.5375
2726.87057	21631.2375
2729.46747	21641.8375
2732.06276	21631.4375
2734.65644	21624.2375
2737.24852	21631.5375
2739.83899	21595.0375
2742.42786	21602.3375
2745.01513	21592.2375
2747.60079	21558.7375
2750.18486	21578.3375
2752.76733	21575.2375
2755.3482	21540.6375
2757.92747	21515.6375
2760.50515	21499.5375
2763.08123	21501.7375
2765.65573	21477.9375
2768.22863	21495.0375
2770.79994	21460.2375
2773.36967	21452.5375
2775.9378	21436.6375
2778.50435	21399.2375
2781.06932	21372.8375
2783.6327	21372.8375
2786.1945	21378.2375
2788.75471	21336.1375
2791.31335	21243.8375
2793.87041	21243.0375
2796.42589	21177.5375
2798.97979	21153.7375
2801.53212	21107.8375
2804.08288	21134.9375
2806.63206	21100.0375
2809.17967	21038.6375
2811.72571	20976.8375
2814.27018	21019.1375
2816.81308	20969.6375
2819.35442	20920.8375
2821.89419	20884.4375
2824.43239	20885.3375
2826.96904	20861.2375
2829.50412	20861.5375
2832.03763	20814.4375
2834.56959	20807.9375
2837.1	20747.1375
2839.62884	20742.4375
2842.15613	20690.9375
2844.68186	20710.3375
2847.20604	20708.3375
2849.72867	20743.5375
2852.24974	20681.9375
2854.76927	20678.4375
2857.28724	20665.5375
2859.80367	20645.9375
2862.31855	20583.0375
2864.83189	20609.4375
2867.34368	20578.8375
2869.85393	20600.6375
2872.36264	20552.1375
2874.8698	20577.6375
2877.37543	20586.8375
2879.87952	20588.6375
2882.38207	20593.9375
2884.88308	20580.0375
2887.38256	20615.1375
2889.88051	20598.7375
2892.37692	20619.1375
2894.8718	20561.9375
2897.36515	20599.7375
2899.85698	20602.4375
2902.34727	20685.5375
2904.83604	20708.3375
2907.32328	20691.6375
2909.809	20693.5375
2912.29319	20728.7375
2914.77587	20677.1375
2917.25702	20710.1375
2919.73665	20688.5375
2922.21476	20689.4375
2924.69136	20673.3375
2927.16644	20669.4375
2929.64	20611.9375
2932.11205	20594.1375
2934.58258	20517.8375
2937.05161	20570.1375
2939.51912	20535.9375
2941.98513	20520.9375
2944.44962	20481.0375
2946.91261	20413.9375
2949.37409	20473.8375
2951.83407	20457.9375
2954.29254	20416.8375
2956.74951	20405.9375
2959.20498	20415.1375
2961.65895	20358.6375
2964.11142	20354.8375
2966.56239	20270.6375
2969.01186	20318.6375
2971.45984	20248.2375
2973.90632	20233.3375
2976.35131	20155.6375
2978.7948	20178.0375
2981.23681	20124.3375
2983.67732	20068.3375
2986.11635	20022.1375
2988.55388	19982.7375
2990.98993	19944.7375
2993.4245	19915.5375
2995.85758	19893.4375
2998.28917	19835.2375
3000.71928	19795.0375
3003.14791	19797.6375
3005.57506	19743.8375
3008.00073	19715.1375
3010.42493	19698.0375
3012.84764	19703.3375
3015.26888	19644.9375
3017.68865	19625.4375
3020.10694	19650.5375
3022.52376	19567.7375
3024.9391	19548.5375
3027.35298	19542.9375
3029.76539	19516.8375
3032.17632	19436.5375
3034.5858	19440.5375
3036.9938	19391.3375
3039.40034	19392.9375
3041.80542	19367.3375
3044.20903	19341.7375
3046.61118	19300.3375
3049.01187	19283.8375
3051.4111	19311.6375
3053.80888	19220.3375
3056.20519	19215.6375
3058.60005	19156.5375
3060.99345	19162.9375
3063.3854	19149.3375
3065.7759	19065.9375
3068.16494	19026.6375
3070.55254	18913.3375
3072.93868	18894.2375
3075.32338	18880.5375
3077.70662	18864.4375
3080.08842	18809.4375
3082.46878	18805.6375
3084.84769	18760.4375
3087.22515	18728.2375
3089.60118	18737.2375
3091.97576	18727.9375
3094.3489	18730.5375
3096.72061	18696.3375
3099.09087	18697.4375
3101.4597	18669.5375
3103.82709	18676.7375
3106.19305	18653.3375
3108.55757	18621.6375
3110.92066	18553.1375
3113.28232	18531.1375
3115.64255	18493.5375
3118.00134	18469.2375
3120.35871	18419.2375
3122.71466	18384.2375
3125.06917	18372.9375
3127.42226	18321.3375
3129.77393	18336.1375
3132.12417	18298.0375
3134.47299	18295.6375
3136.82039	18286.0375
3139.16636	18284.3375
3141.51092	18259.8375
3143.85406	18264.2375
3146.19579	18303.2375
3148.53609	18282.0375
3150.87499	18326.1375
3153.21246	18297.5375
3155.54853	18330.4375
3157.88318	18294.0375
3160.21642	18308.6375
3162.54826	18295.1375
3164.87868	18272.8375
3167.2077	18215.4375
3169.5353	18215.5375
3171.86151	18218.4375
3174.18631	18186.6375
3176.5097	18175.7375
3178.83169	18140.8375
3181.15228	18161.2375
3183.47147	18121.2375
3185.78926	18116.5375
3188.10565	18108.4375
3190.42065	18098.6375
3192.73424	18106.3375
3195.04645	18082.7375
3197.35725	18108.3375
3199.66667	18103.1375
3201.97469	18085.4375
3204.28132	18087.7375
3206.58656	18108.1375
3208.8904	18131.7375
3211.19287	18132.5375
3213.49394	18089.1375
3215.79363	18078.1375
3218.09193	18086.8375
3220.38884	18008.5375
3222.68438	18057.0375
3224.97853	18018.2375
3227.2713	18024.1375
3229.56269	17977.6375
3231.8527	17950.8375
3234.14133	17919.0375
3236.42858	17899.9375
3238.71446	17890.4375
3240.99896	17834.4375
3243.28209	17857.1375
3245.56384	17842.8375
3247.84423	17865.7375
3250.12324	17832.0375
3252.40088	17795.5375
3254.67715	17808.8375
3256.95205	17733.0375
3259.22558	17731.2375
3261.49775	17730.9375
3263.76855	17712.8375
3266.03799	17668.6375
3268.30606	17627.4375
3270.57277	17621.2375
3272.83812	17570.6375
3275.10211	17566.0375
3277.36474	17559.5375
3279.62601	17567.9375
3281.88593	17533.2375
3284.14448	17541.9375
3286.40168	17506.4375
3288.65753	17490.7375
3290.91202	17468.6375
3293.16516	17440.7375
3295.41695	17414.1375
3297.66738	17270.1375
3299.91647	17199.3375
3302.16421	17117.0375
3304.4106	17073.7375
3306.65564	16971.4375
3308.89933	16854.8375
3311.14169	16773.0375
3313.38269	16643.2375
3315.62236	16556.4375
3317.86068	16424.9375
3320.09766	16268.0375
3322.3333	16124.6375
3324.5676	16112.4375
3326.80056	15856.3375
3329.03219	15774.5375
3331.26248	4.0375
3333.49143	1.7375
3335.71905	-0.6625
