Data from AgNPs_FTO_APTES_UA_2uM_R6G_10uM_NaF_0.1M_Addition_RamanShift__17__12-03-27-220.txt Node

Date: Fri Dec 17 12:03:27 GMT 2021
User: TCL
Spectrometer: QEP01345
Trigger mode: 4
Integration Time (sec): 7.000000E0
Scans to average: 10
Electric dark correction enabled: true
Nonlinearity correction enabled: false
Boxcar width: 0
XAxis mode: Raman Shifts
Number of Pixels in Spectrum: 1044
>>>>>Begin Spectral Data<<<<<
46.04893	-0.3125
50.45542	0.0875
54.85868	-1.6125
59.25871	0.3875
63.6555	112.1875
68.04907	115.0875
72.43941	123.8875
76.82654	130.1875
81.21044	134.0875
85.59113	138.6875
89.96862	147.1875
94.34289	146.4875
98.71396	152.4875
103.08183	154.5875
107.4465	160.6875
111.80798	163.4875
116.16626	171.1875
120.52136	173.3875
124.87327	185.8875
129.222	194.0875
133.56755	201.2875
137.90993	216.2875
142.24913	234.9875
146.58517	263.8875
150.91804	305.2875
155.24774	358.2875
159.57429	447.6875
163.89768	572.2875
168.21792	747.3875
172.53501	1012.6875
176.84895	1402.0875
181.15975	1961.0875
185.46741	2756.6875
189.77193	3792.2875
194.07331	5060.1875
198.37157	6543.9875
202.6667	8079.2875
206.9587	9562.9875
211.24758	11027.8875
215.53334	12561.8875
219.81599	14155.3875
224.09553	15923.0875
228.37195	17889.1875
232.64527	20015.0875
236.91549	22301.6875
241.18261	24537.0875
245.44663	26667.6875
249.70755	28519.4875
253.96539	30120.8875
258.22014	31438.5875
262.4718	32608.5875
266.72039	33395.8875
270.96589	33819.4875
275.20832	33884.6875
279.44768	33601.2875
283.68397	33173.7875
287.91719	32800.5875
292.14735	32571.4875
296.37445	32536.4875
300.59849	32631.1875
304.81948	32808.4875
309.03742	32871.2875
313.25231	32611.0875
317.46415	31956.4875
321.67296	31031.7875
325.87872	30319.6875
330.08145	29858.1875
334.28114	29925.3875
338.47781	30192.4875
342.67145	30566.4875
346.86207	31166.9875
351.04966	31881.0875
355.23424	32673.4875
359.4158	33416.3875
363.59435	33878.9875
367.76989	34207.5875
371.94243	34409.5875
376.11196	34523.0875
380.27849	34619.1875
384.44203	34759.3875
388.60257	34919.8875
392.76012	35165.0875
396.91468	35549.0875
401.06626	36177.1875
405.21485	36547.3875
409.36047	36359.2875
413.50311	35758.1875
417.64277	35179.6875
421.77947	34956.2875
425.9132	34948.2875
430.04396	35116.1875
434.17176	35262.1875
438.2966	35490.6875
442.41849	35974.2875
446.53742	36830.7875
450.6534	37653.2875
454.76644	38356.7875
458.87653	38644.4875
462.98368	38626.8875
467.08789	38283.9875
471.18916	37820.8875
475.2875	37209.4875
479.38291	36760.4875
483.4754	36484.2875
487.56496	36125.4875
491.6516	35783.2875
495.73531	35525.0875
499.81612	35492.6875
503.89401	35679.9875
507.96899	35958.2875
512.04106	35985.1875
516.11023	36002.6875
520.1765	35838.9875
524.23987	35686.3875
528.30034	35378.3875
532.35792	34998.3875
536.41261	34558.3875
540.46441	34138.3875
544.51333	34034.6875
548.55936	34325.3875
552.60252	34917.8875
556.64279	35521.5875
560.6802	35915.8875
564.71473	36130.5875
568.7464	36520.9875
572.7752	37100.6875
576.80114	37450.1875
580.82422	37871.5875
584.84444	38244.3875
588.86181	38528.8875
592.87633	38878.8875
596.888	39136.2875
600.89682	39596.4875
604.9028	41526.2875
608.90594	45900.3875
612.90624	50242.5875
616.90371	47516.8875
620.89834	39816.4875
624.89015	36395.4875
628.87913	35890.4875
632.86528	35919.2875
636.84862	35722.4875
640.82913	35246.9875
644.80683	34405.3875
648.78172	33780.9875
652.75379	33659.2875
656.72306	34127.5875
660.68952	34753.7875
664.65319	34621.2875
668.61405	34009.9875
672.57211	33814.2875
676.52738	33905.9875
680.47986	33839.0875
684.42955	33669.2875
688.37646	33648.4875
692.32058	33880.9875
696.26192	34195.3875
700.20048	34582.0875
704.13626	34763.2875
708.06928	34560.1875
711.99952	34258.5875
715.927	34212.1875
719.85171	34222.8875
723.77365	34144.9875
727.69284	33775.8875
731.60928	33461.8875
735.52295	33313.3875
739.43388	33351.6875
743.34206	33438.3875
747.24749	33533.0875
751.15017	33769.6875
755.05012	34243.1875
758.94733	35106.8875
762.8418	36785.2875
766.73354	39546.8875
770.62254	42358.8875
774.50882	43323.5875
778.39237	41595.1875
782.27321	38618.1875
786.15132	36108.5875
790.02671	34674.5875
793.89938	33896.7875
797.76935	33643.1875
801.6366	33543.5875
805.50115	33428.3875
809.36299	33205.7875
813.22213	32944.8875
817.07857	32728.6875
820.93231	32624.6875
824.78336	32536.1875
828.63172	32528.5875
832.47738	32537.8875
836.32036	32608.1875
840.16066	32732.6875
843.99827	32804.0875
847.8332	32785.7875
851.66546	32607.0875
855.49504	32549.8875
859.32195	32568.9875
863.1462	32494.1875
866.96777	32399.2875
870.78668	32373.3875
874.60293	32373.8875
878.41652	32370.5875
882.22745	32502.5875
886.03573	32633.9875
889.84136	32641.7875
893.64433	32544.9875
897.44466	32351.6875
901.24235	32268.5875
905.0374	32127.9875
908.8298	32093.7875
912.61957	32072.6875
916.40671	32284.4875
920.19121	32646.4875
923.97308	33101.4875
927.75233	33251.2875
931.52895	33213.6875
935.30295	32905.6875
939.07433	32372.7875
942.84309	31933.3875
946.60924	31777.3875
950.37278	31642.0875
954.13371	31548.4875
957.89203	31403.5875
961.64774	31246.5875
965.40086	31221.6875
969.15137	31172.4875
972.89929	31057.4875
976.64461	31060.0875
980.38733	31150.4875
984.12747	31286.1875
987.86502	31616.3875
991.59999	31974.3875
995.33237	32522.2875
999.06217	33438.6875
1002.78939	34401.2875
1006.51404	35061.3875
1010.23611	35425.4875
1013.95561	35655.3875
1017.67255	35623.3875
1021.38692	35184.4875
1025.09872	34933.3875
1028.80796	35050.1875
1032.51465	35922.7875
1036.21877	36741.3875
1039.92035	36861.9875
1043.61937	36416.9875
1047.31584	35624.8875
1051.00976	34772.8875
1054.70114	34398.8875
1058.38998	34363.8875
1062.07627	34603.2875
1065.76003	34877.9875
1069.44126	35182.5875
1073.11995	35731.2875
1076.79611	36287.9875
1080.46974	36618.3875
1084.14085	36917.0875
1087.80943	37176.8875
1091.47549	37273.8875
1095.13903	37067.8875
1098.80005	36545.3875
1102.45857	35848.8875
1106.11456	35362.8875
1109.76805	35122.1875
1113.41903	35220.7875
1117.06751	35386.5875
1120.71348	35661.3875
1124.35696	35960.1875
1127.99793	36387.8875
1131.63641	36619.7875
1135.2724	36340.6875
1138.90589	36028.1875
1142.5369	35813.8875
1146.16542	35685.7875
1149.79145	35613.2875
1153.415	35733.3875
1157.03607	36015.3875
1160.65467	36722.5875
1164.27079	37866.7875
1167.88443	39599.2875
1171.49561	41832.5875
1175.10432	44808.9875
1178.71056	48632.3875
1182.31434	52266.3875
1185.91565	54459.3875
1189.51451	54600.8875
1193.11091	53036.8875
1196.70485	50582.4875
1200.29634	48233.6875
1203.88538	46351.8875
1207.47197	44910.1875
1211.05612	43833.5875
1214.63782	43012.8875
1218.21708	42555.4875
1221.79391	42400.2875
1225.36829	42390.5875
1228.94024	42175.4875
1232.50976	41759.1875
1236.07685	41286.4875
1239.6415	41047.7875
1243.20374	40956.7875
1246.76355	41147.6875
1250.32093	41733.0875
1253.8759	42571.4875
1257.42845	43646.1875
1260.97859	44935.5875
1264.52631	46085.0875
1268.07163	47319.0875
1271.61453	48727.2875
1275.15503	50122.8875
1278.69312	51346.5875
1282.22882	52196.9875
1285.76211	52776.1875
1289.29301	53396.1875
1292.82151	54301.7875
1296.34761	55706.0875
1299.87133	57841.8875
1303.39266	60950.2875
1306.9116	64876.1875
1310.42815	69017.3875
1313.94233	71851.6875
1317.45412	72109.9875
1320.96354	70764.9875
1324.47058	69196.2875
1327.97525	67646.2875
1331.47754	66607.8875
1334.97747	66146.8875
1338.47502	66082.1875
1341.97022	66307.3875
1345.46305	65928.2875
1348.95352	65364.4875
1352.44163	65279.4875
1355.92738	66213.9875
1359.41078	69009.5875
1362.89183	71927.3875
1366.37053	70775.6875
1369.84688	64953.6875
1373.32088	58343.4875
1376.79254	53683.6875
1380.26186	51507.3875
1383.72883	50879.6875
1387.19347	50309.7875
1390.65578	49545.5875
1394.11575	49067.6875
1397.57339	49057.4875
1401.0287	49563.3875
1404.48168	50303.2875
1407.93234	50700.5875
1411.38068	50702.1875
1414.82669	49991.9875
1418.27039	48778.0875
1421.71177	47322.7875
1425.15083	46188.2875
1428.58758	45585.6875
1432.02203	45695.3875
1435.45416	46424.2875
1438.88399	47300.3875
1442.31151	48121.5875
1445.73673	48630.4875
1449.15965	49006.8875
1452.58027	49312.9875
1455.9986	49399.8875
1459.41463	49731.8875
1462.82837	50561.1875
1466.23982	51565.7875
1469.64898	52445.9875
1473.05586	53127.0875
1476.46045	53180.4875
1479.86276	52890.0875
1483.26279	52495.3875
1486.66054	52288.3875
1490.05602	52412.2875
1493.44922	52740.9875
1496.84016	53378.2875
1500.22882	54587.8875
1503.61521	56559.8875
1506.99934	58941.2875
1510.38121	61091.1875
1513.76081	61723.1875
1517.13816	59962.5875
1520.51324	56933.5875
1523.88607	53998.5875
1527.25665	52041.3875
1530.62498	51085.4875
1533.99105	50630.2875
1537.35488	50366.0875
1540.71647	49991.6875
1544.07581	49508.5875
1547.4329	48923.2875
1550.78776	48506.3875
1554.14038	48174.3875
1557.49077	48022.7875
1560.83892	47902.1875
1564.18484	47925.3875
1567.52853	48127.4875
1570.86999	48460.6875
1574.20922	49030.3875
1577.54624	49596.3875
1580.88103	49489.1875
1584.2136	49285.3875
1587.54395	49730.6875
1590.87208	51290.4875
1594.19801	53942.9875
1597.52172	56892.3875
1600.84321	57998.4875
1604.16251	56039.5875
1607.47959	52581.0875
1610.79447	48789.4875
1614.10715	45215.4875
1617.41763	42172.9875
1620.7259	40022.7875
1624.03199	38935.8875
1627.33587	38854.6875
1630.63757	39782.0875
1633.93707	41885.6875
1637.23439	45165.3875
1640.52951	49548.6875
1643.82246	54120.1875
1647.11321	57499.8875
1650.40179	57959.8875
1653.68819	54656.5875
1656.97241	48668.3875
1660.25446	42587.7875
1663.53433	38112.5875
1666.81203	35266.1875
1670.08756	33412.9875
1673.36092	32215.6875
1676.63211	31412.6875
1679.90115	30846.7875
1683.16801	30439.6875
1686.43272	30123.4875
1689.69527	29927.2875
1692.95567	29706.2875
1696.2139	29558.3875
1699.46999	29472.6875
1702.72392	29377.6875
1705.97571	29338.9875
1709.22535	29353.0875
1712.47284	29326.9875
1715.71819	29231.6875
1718.96139	29176.0875
1722.20246	29105.8875
1725.44139	28962.7875
1728.67818	28819.2875
1731.91284	28670.3875
1735.14537	28544.3875
1738.37576	28393.4875
1741.60403	28310.3875
1744.83017	28203.1875
1748.05418	28166.8875
1751.27607	28121.8875
1754.49584	28032.0875
1757.71349	28028.0875
1760.92903	27979.7875
1764.14244	27912.6875
1767.35375	27976.6875
1770.56294	27964.6875
1773.77002	27858.6875
1776.97499	27815.3875
1780.17785	27774.2875
1783.37861	27791.9875
1786.57727	27763.7875
1789.77382	27644.1875
1792.96828	27622.5875
1796.16064	27587.1875
1799.3509	27553.2875
1802.53907	27525.5875
1805.72514	27459.3875
1808.90913	27404.0875
1812.09102	27321.8875
1815.27083	27294.9875
1818.44856	27240.3875
1821.6242	27224.2875
1824.79776	27221.2875
1827.96924	27176.9875
1831.13864	27180.3875
1834.30597	27250.8875
1837.47122	27246.5875
1840.6344	27241.3875
1843.7955	27273.5875
1846.95454	27272.9875
1850.11151	27266.2875
1853.26642	27274.9875
1856.41926	27226.0875
1859.57004	27278.6875
1862.71876	27264.5875
1865.86542	27235.1875
1869.01003	27210.2875
1872.15258	27178.9875
1875.29308	27214.0875
1878.43152	27191.9875
1881.56792	27209.5875
1884.70227	27218.1875
1887.83457	27208.2875
1890.96482	27238.0875
1894.09304	27133.2875
1897.21921	27089.0875
1900.34335	27080.4875
1903.46544	27051.6875
1906.58551	27061.5875
1909.70353	27013.1875
1912.81953	26981.9875
1915.93349	26860.2875
1919.04543	26843.7875
1922.15534	26770.2875
1925.26322	26693.9875
1928.36908	26611.8875
1931.47292	26550.5875
1934.57473	26458.2875
1937.67453	26395.5875
1940.77232	26283.3875
1943.86808	26220.8875
1946.96184	26172.5875
1950.05358	26089.0875
1953.14331	26015.8875
1956.23103	25936.6875
1959.31675	25804.4875
1962.40046	25790.6875
1965.48217	25725.6875
1968.56188	25664.3875
1971.63959	25599.6875
1974.7153	25540.2875
1977.78901	25492.9875
1980.86073	25350.9875
1983.93046	25296.1875
1986.99819	25172.0875
1990.06394	25184.4875
1993.1277	25056.3875
1996.18947	24965.7875
1999.24925	24917.9875
2002.30706	24845.6875
2005.36288	24800.6875
2008.41672	24716.2875
2011.46859	24650.7875
2014.51848	24592.1875
2017.56639	24505.9875
2020.61233	24475.6875
2023.6563	24459.6875
2026.6983	24389.6875
2029.73833	24385.9875
2032.7764	24322.0875
2035.8125	24243.4875
2038.84664	24265.0875
2041.87881	24220.8875
2044.90903	24185.9875
2047.93729	24175.5875
2050.96359	24199.5875
2053.98794	24084.3875
2057.01034	24119.2875
2060.03078	24089.3875
2063.04927	24013.5875
2066.06582	24076.3875
2069.08042	24037.1875
2072.09307	23998.7875
2075.10378	24003.3875
2078.11255	23936.4875
2081.11938	23982.8875
2084.12426	23917.4875
2087.12722	23922.6875
2090.12824	23922.0875
2093.12732	23932.5875
2096.12447	23966.9875
2099.11969	23962.0875
2102.11299	23958.9875
2105.10435	23971.2875
2108.09379	23969.8875
2111.08131	24037.2875
2114.0669	24019.2875
2117.05057	24058.4875
2120.03233	24065.7875
2123.01216	24079.5875
2125.99008	24119.9875
2128.96609	24128.9875
2131.94018	24134.2875
2134.91236	24158.4875
2137.88263	24186.2875
2140.851	24177.1875
2143.81746	24236.8875
2146.78201	24218.5875
2149.74466	24260.0875
2152.7054	24242.6875
2155.66425	24260.5875
2158.6212	24244.2875
2161.57625	24220.7875
2164.52941	24249.2875
2167.48067	24237.5875
2170.43004	24246.6875
2173.37752	24206.6875
2176.32311	24246.7875
2179.26681	24232.8875
2182.20863	24221.5875
2185.14856	24235.8875
2188.08661	24226.9875
2191.02278	24250.1875
2193.95707	24231.9875
2196.88948	24238.1875
2199.82001	24262.8875
2202.74867	24191.0875
2205.67545	24231.7875
2208.60037	24225.7875
2211.52341	24192.7875
2214.44458	24165.8875
2217.36388	24134.3875
2220.28132	24115.1875
2223.1969	24078.5875
2226.11061	24014.3875
2229.02246	23967.8875
2231.93245	23926.9875
2234.84058	23898.3875
2237.74686	23853.9875
2240.65128	23839.5875
2243.55385	23780.1875
2246.45456	23753.6875
2249.35343	23701.6875
2252.25044	23726.7875
2255.14561	23661.6875
2258.03893	23616.1875
2260.93041	23615.7875
2263.82004	23551.8875
2266.70783	23534.0875
2269.59378	23477.2875
2272.4779	23444.6875
2275.36017	23383.4875
2278.24061	23346.1875
2281.11922	23287.3875
2283.996	23276.1875
2286.87094	23263.5875
2289.74405	23217.0875
2292.61534	23197.5875
2295.4848	23164.3875
2298.35243	23199.5875
2301.21824	23183.0875
2304.08223	23243.1875
2306.94439	23254.5875
2309.80474	23188.6875
2312.66327	23260.2875
2315.51999	23227.3875
2318.37489	23241.0875
2321.22797	23230.1875
2324.07925	23224.6875
2326.92871	23204.3875
2329.77637	23141.0875
2332.62222	23127.6875
2335.46626	23116.8875
2338.3085	23111.8875
2341.14893	23116.4875
2343.98756	23165.1875
2346.8244	23181.6875
2349.65943	23191.6875
2352.49267	23115.7875
2355.32411	23115.6875
2358.15376	23136.7875
2360.98161	23136.9875
2363.80768	23030.7875
2366.63195	23001.3875
2369.45444	22983.5875
2372.27514	22952.0875
2375.09405	22963.7875
2377.91118	22903.8875
2380.72652	22809.2875
2383.54009	22832.0875
2386.35187	22729.4875
2389.16188	22706.5875
2391.97011	22699.0875
2394.77657	22625.1875
2397.58125	22633.7875
2400.38416	22581.0875
2403.18529	22545.1875
2405.98466	22516.0875
2408.78226	22478.3875
2411.57809	22457.6875
2414.37216	22418.2875
2417.16446	22395.3875
2419.955	22390.4875
2422.74378	22345.2875
2425.5308	22333.0875
2428.31606	22371.6875
2431.09956	22310.8875
2433.88131	22274.3875
2436.6613	22301.0875
2439.43954	22285.2875
2442.21603	22306.3875
2444.99077	22292.3875
2447.76377	22279.9875
2450.53501	22271.6875
2453.30451	22264.5875
2456.07226	22293.8875
2458.83827	22281.9875
2461.60254	22280.5875
2464.36507	22243.1875
2467.12586	22231.6875
2469.88492	22238.8875
2472.64224	22224.9875
2475.39782	22226.6875
2478.15167	22212.3875
2480.90379	22270.1875
2483.65417	22261.8875
2486.40283	22286.9875
2489.14976	22295.0875
2491.89497	22244.8875
2494.63845	22299.3875
2497.3802	22257.4875
2500.12024	22272.0875
2502.85855	22269.9875
2505.59514	22239.0875
2508.33002	22222.8875
2511.06318	22199.8875
2513.79462	22156.5875
2516.52435	22129.6875
2519.25237	22156.5875
2521.97867	22129.0875
2524.70327	22100.1875
2527.42616	22081.1875
2530.14734	22105.4875
2532.86681	22053.3875
2535.58458	22093.1875
2538.30065	22051.4875
2541.01501	22051.9875
2543.72768	22014.9875
2546.43864	22010.3875
2549.14791	21960.1875
2551.85548	21933.4875
2554.56136	21949.2875
2557.26554	21911.5875
2559.96803	21862.8875
2562.66883	21863.9875
2565.36794	21866.7875
2568.06536	21872.3875
2570.7611	21839.8875
2573.45514	21778.5875
2576.14751	21767.1875
2578.83819	21753.4875
2581.52719	21730.7875
2584.21451	21754.1875
2586.90015	21731.1875
2589.58411	21731.8875
2592.2664	21716.8875
2594.94701	21671.1875
2597.62594	21656.0875
2600.30321	21602.1875
2602.9788	21639.2875
2605.65273	21593.8875
2608.32498	21607.1875
2610.99557	21582.7875
2613.66449	21575.7875
2616.33175	21589.3875
2618.99734	21580.6875
2621.66128	21580.1875
2624.32355	21602.6875
2626.98416	21524.3875
2629.64311	21544.2875
2632.30041	21563.4875
2634.95605	21558.8875
2637.61004	21529.4875
2640.26238	21500.0875
2642.91306	21495.6875
2645.56209	21481.2875
2648.20948	21486.7875
2650.85521	21444.5875
2653.4993	21442.7875
2656.14175	21436.5875
2658.78255	21451.6875
2661.42171	21416.9875
2664.05923	21446.0875
2666.6951	21466.4875
2669.32934	21502.3875
2671.96194	21457.0875
2674.59291	21508.3875
2677.22224	21496.1875
2679.84993	21472.3875
2682.476	21479.9875
2685.10043	21450.2875
2687.72324	21429.4875
2690.34441	21429.0875
2692.96396	21407.6875
2695.58188	21423.8875
2698.19818	21370.8875
2700.81285	21403.1875
2703.4259	21382.6875
2706.03733	21405.2875
2708.64714	21407.8875
2711.25533	21443.0875
2713.86191	21402.7875
2716.46687	21462.1875
2719.07021	21432.9875
2721.67194	21436.5875
2724.27206	21409.8875
2726.87057	21455.2875
2729.46747	21437.3875
2732.06276	21444.5875
2734.65644	21464.3875
2737.24852	21449.0875
2739.83899	21413.8875
2742.42786	21453.7875
2745.01513	21409.7875
2747.60079	21417.9875
2750.18486	21400.9875
2752.76733	21376.7875
2755.3482	21349.7875
2757.92747	21396.9875
2760.50515	21342.6875
2763.08123	21336.1875
2765.65573	21305.8875
2768.22863	21311.3875
2770.79994	21322.2875
2773.36967	21337.4875
2775.9378	21307.3875
2778.50435	21253.6875
2781.06932	21244.5875
2783.6327	21243.6875
2786.1945	21232.0875
2788.75471	21223.2875
2791.31335	21169.2875
2793.87041	21135.8875
2796.42589	21067.4875
2798.97979	21085.3875
2801.53212	21029.2875
2804.08288	20990.7875
2806.63206	20959.3875
2809.17967	20933.2875
2811.72571	20880.0875
2814.27018	20909.8875
2816.81308	20871.7875
2819.35442	20820.6875
2821.89419	20792.7875
2824.43239	20793.1875
2826.96904	20771.8875
2829.50412	20750.5875
2832.03763	20716.4875
2834.56959	20693.3875
2837.1	20644.1875
2839.62884	20691.8875
2842.15613	20610.2875
2844.68186	20632.2875
2847.20604	20629.6875
2849.72867	20616.7875
2852.24974	20622.3875
2854.76927	20598.3875
2857.28724	20587.5875
2859.80367	20570.4875
2862.31855	20538.0875
2864.83189	20566.3875
2867.34368	20540.4875
2869.85393	20574.4875
2872.36264	20566.4875
2874.8698	20565.6875
2877.37543	20584.6875
2879.87952	20553.6875
2882.38207	20545.1875
2884.88308	20549.5875
2887.38256	20571.9875
2889.88051	20600.3875
2892.37692	20618.7875
2894.8718	20552.8875
2897.36515	20610.5875
2899.85698	20593.4875
2902.34727	20684.3875
2904.83604	20670.4875
2907.32328	20706.2875
2909.809	20704.1875
2912.29319	20737.5875
2914.77587	20723.5875
2917.25702	20752.8875
2919.73665	20697.9875
2922.21476	20664.6875
2924.69136	20679.8875
2927.16644	20652.4875
2929.64	20618.0875
2932.11205	20600.8875
2934.58258	20531.2875
2937.05161	20552.7875
2939.51912	20567.4875
2941.98513	20528.4875
2944.44962	20471.0875
2946.91261	20418.0875
2949.37409	20443.1875
2951.83407	20429.0875
2954.29254	20394.3875
2956.74951	20401.7875
2959.20498	20367.8875
2961.65895	20308.7875
2964.11142	20309.1875
2966.56239	20291.9875
2969.01186	20296.2875
2971.45984	20202.0875
2973.90632	20188.9875
2976.35131	20152.7875
2978.7948	20122.4875
2981.23681	20043.5875
2983.67732	20043.0875
2986.11635	19999.2875
2988.55388	19940.6875
2990.98993	19891.4875
2993.4245	19873.3875
2995.85758	19867.4875
2998.28917	19809.1875
3000.71928	19756.1875
3003.14791	19774.8875
3005.57506	19739.5875
3008.00073	19695.6875
3010.42493	19669.6875
3012.84764	19645.2875
3015.26888	19605.9875
3017.68865	19593.4875
3020.10694	19557.1875
3022.52376	19541.1875
3024.9391	19496.4875
3027.35298	19458.6875
3029.76539	19442.6875
3032.17632	19422.1875
3034.5858	19387.6875
3036.9938	19355.5875
3039.40034	19306.8875
3041.80542	19373.3875
3044.20903	19294.9875
3046.61118	19292.5875
3049.01187	19255.9875
3051.4111	19227.9875
3053.80888	19186.3875
3056.20519	19128.9875
3058.60005	19100.3875
3060.99345	19123.3875
3063.3854	19089.0875
3065.7759	19030.4875
3068.16494	18967.1875
3070.55254	18932.6875
3072.93868	18931.5875
3075.32338	18852.6875
3077.70662	18821.5875
3080.08842	18819.1875
3082.46878	18804.2875
3084.84769	18795.1875
3087.22515	18726.9875
3089.60118	18737.0875
3091.97576	18716.3875
3094.3489	18736.9875
3096.72061	18704.3875
3099.09087	18739.6875
3101.4597	18697.5875
3103.82709	18670.2875
3106.19305	18619.8875
3108.55757	18650.9875
3110.92066	18581.7875
3113.28232	18571.3875
3115.64255	18520.4875
3118.00134	18486.2875
3120.35871	18460.2875
3122.71466	18431.4875
3125.06917	18365.7875
3127.42226	18356.2875
3129.77393	18345.4875
3132.12417	18339.8875
3134.47299	18304.2875
3136.82039	18325.0875
3139.16636	18308.5875
3141.51092	18329.9875
3143.85406	18366.4875
3146.19579	18337.6875
3148.53609	18338.5875
3150.87499	18356.9875
3153.21246	18342.6875
3155.54853	18340.9875
3157.88318	18303.5875
3160.21642	18329.6875
3162.54826	18305.1875
3164.87868	18298.8875
3167.2077	18308.5875
3169.5353	18298.1875
3171.86151	18268.8875
3174.18631	18248.7875
3176.5097	18229.6875
3178.83169	18200.9875
3181.15228	18193.6875
3183.47147	18179.5875
3185.78926	18188.1875
3188.10565	18144.4875
3190.42065	18157.1875
3192.73424	18141.2875
3195.04645	18151.8875
3197.35725	18165.2875
3199.66667	18146.0875
3201.97469	18186.1875
3204.28132	18173.2875
3206.58656	18218.3875
3208.8904	18198.3875
3211.19287	18191.9875
3213.49394	18198.6875
3215.79363	18171.6875
3218.09193	18199.0875
3220.38884	18157.1875
3222.68438	18143.4875
3224.97853	18110.1875
3227.2713	18098.4875
3229.56269	18074.1875
3231.8527	18083.6875
3234.14133	18079.4875
3236.42858	18005.0875
3238.71446	18002.2875
3240.99896	17979.2875
3243.28209	17969.5875
3245.56384	17944.4875
3247.84423	17971.4875
3250.12324	17986.4875
3252.40088	17974.8875
3254.67715	17931.1875
3256.95205	17903.1875
3259.22558	17903.2875
3261.49775	17835.0875
3263.76855	17833.5875
3266.03799	17781.7875
3268.30606	17778.0875
3270.57277	17730.9875
3272.83812	17686.7875
3275.10211	17670.3875
3277.36474	17681.7875
3279.62601	17688.5875
3281.88593	17697.0875
3284.14448	17697.9875
3286.40168	17656.1875
3288.65753	17661.6875
3290.91202	17610.8875
3293.16516	17565.4875
3295.41695	17514.4875
3297.66738	17425.6875
3299.91647	17350.9875
3302.16421	17247.7875
3304.4106	17203.3875
3306.65564	17146.4875
3308.89933	17009.1875
3311.14169	16906.6875
3313.38269	16786.6875
3315.62236	16704.2875
3317.86068	16555.0875
3320.09766	16407.9875
3322.3333	16273.5875
3324.5676	16285.6875
3326.80056	15994.9875
3329.03219	15940.5875
3331.26248	3.5875
3333.49143	0.4875
3335.71905	-0.3125
