Data from AgNPs_FTO_APTES_UA_200uM_R6G_10uM_NaF_0.1M_Addition_RamanShift__6__16-07-17-498.txt Node

Date: Fri Dec 17 16:07:17 GMT 2021
User: TCL
Spectrometer: QEP01345
Trigger mode: 4
Integration Time (sec): 7.000000E0
Scans to average: 10
Electric dark correction enabled: true
Nonlinearity correction enabled: false
Boxcar width: 0
XAxis mode: Raman Shifts
Number of Pixels in Spectrum: 1044
>>>>>Begin Spectral Data<<<<<
46.04893	-0.0625
50.45542	0.8375
54.85868	-1.1625
59.25871	0.2375
63.6555	57.3375
68.04907	57.1375
72.43941	59.8375
76.82654	68.0375
81.21044	66.7375
85.59113	72.8375
89.96862	75.1375
94.34289	80.1375
98.71396	82.3375
103.08183	84.5375
107.4465	85.0375
111.80798	85.3375
116.16626	86.1375
120.52136	83.4375
124.87327	89.1375
129.222	91.1375
133.56755	94.7375
137.90993	98.3375
142.24913	101.9375
146.58517	111.2375
150.91804	122.7375
155.24774	141.6375
159.57429	167.6375
163.89768	203.9375
168.21792	265.5375
172.53501	343.4375
176.84895	474.5375
181.15975	649.7375
185.46741	910.1375
189.77193	1248.6375
194.07331	1669.0375
198.37157	2160.9375
202.6667	2652.8375
206.9587	3177.9375
211.24758	3687.2375
215.53334	4180.3375
219.81599	4706.1375
224.09553	5279.6375
228.37195	5941.8375
232.64527	6657.0375
236.91549	7428.6375
241.18261	8225.1375
245.44663	8946.0375
249.70755	9608.6375
253.96539	10140.5375
258.22014	10602.7375
262.4718	10941.6375
266.72039	11209.2375
270.96589	11367.6375
275.20832	11343.9375
279.44768	11235.9375
283.68397	11044.3375
287.91719	10838.3375
292.14735	10728.6375
296.37445	10679.1375
300.59849	10751.9375
304.81948	10795.5375
309.03742	10808.3375
313.25231	10722.7375
317.46415	10474.3375
321.67296	10200.7375
325.87872	9991.9375
330.08145	9905.4375
334.28114	9908.9375
338.47781	9997.5375
342.67145	10149.7375
346.86207	10336.8375
351.04966	10553.9375
355.23424	10801.2375
359.4158	11011.4375
363.59435	11216.4375
367.76989	11377.6375
371.94243	11469.8375
376.11196	11559.0375
380.27849	11640.2375
384.44203	11692.2375
388.60257	11730.7375
392.76012	11771.8375
396.91468	11860.5375
401.06626	12006.3375
405.21485	12116.9375
409.36047	12058.6375
413.50311	11827.2375
417.64277	11629.2375
421.77947	11460.9375
425.9132	11377.0375
430.04396	11373.3375
434.17176	11390.6375
438.2966	11446.1375
442.41849	11553.2375
446.53742	11618.3375
450.6534	11773.4375
454.76644	11862.3375
458.87653	11930.9375
462.98368	11959.2375
467.08789	11933.8375
471.18916	11897.1375
475.2875	11824.4375
479.38291	11763.1375
483.4754	11692.5375
487.56496	11670.7375
491.6516	11622.8375
495.73531	11650.3375
499.81612	11644.4375
503.89401	11683.4375
507.96899	11719.1375
512.04106	11759.9375
516.11023	11834.9375
520.1765	11875.8375
524.23987	11858.2375
528.30034	11784.5375
532.35792	11701.3375
536.41261	11658.8375
540.46441	11555.0375
544.51333	11518.6375
548.55936	11544.7375
552.60252	11639.1375
556.64279	11743.5375
560.6802	11793.0375
564.71473	11816.1375
568.7464	11889.4375
572.7752	11940.3375
576.80114	11918.5375
580.82422	11917.9375
584.84444	11996.6375
588.86181	12059.5375
592.87633	12033.6375
596.888	12056.5375
600.89682	12132.4375
604.9028	12673.3375
608.90594	14022.7375
612.90624	15719.9375
616.90371	15403.2375
620.89834	13158.1375
624.89015	12083.4375
628.87913	11878.4375
632.86528	12050.1375
636.84862	12221.9375
640.82913	12229.9375
644.80683	11947.6375
648.78172	11686.6375
652.75379	11574.3375
656.72306	11669.9375
660.68952	11822.3375
664.65319	11793.0375
668.61405	11578.8375
672.57211	11495.0375
676.52738	11438.9375
680.47986	11451.3375
684.42955	11372.8375
688.37646	11376.3375
692.32058	11390.0375
696.26192	11414.9375
700.20048	11457.3375
704.13626	11490.3375
708.06928	11490.7375
711.99952	11483.3375
715.927	11471.1375
719.85171	11450.9375
723.77365	11453.0375
727.69284	11437.6375
731.60928	11385.2375
735.52295	11319.0375
739.43388	11324.5375
743.34206	11354.9375
747.24749	11357.5375
751.15017	11342.8375
755.05012	11428.4375
758.94733	11588.5375
762.8418	11978.0375
766.73354	12761.7375
770.62254	13725.4375
774.50882	14338.6375
778.39237	14013.2375
782.27321	12965.7375
786.15132	12116.8375
790.02671	11575.2375
793.89938	11327.5375
797.76935	11244.6375
801.6366	11177.0375
805.50115	11131.2375
809.36299	11138.4375
813.22213	11162.2375
817.07857	11146.2375
820.93231	11154.7375
824.78336	11119.7375
828.63172	11063.2375
832.47738	11039.7375
836.32036	11007.7375
840.16066	11002.9375
843.99827	10969.7375
847.8332	10965.1375
851.66546	10951.4375
855.49504	10945.1375
859.32195	10914.2375
863.1462	10909.8375
866.96777	10921.3375
870.78668	10908.7375
874.60293	10928.5375
878.41652	10907.6375
882.22745	10951.4375
886.03573	11024.3375
889.84136	11039.3375
893.64433	11020.0375
897.44466	10956.6375
901.24235	10899.1375
905.0374	10867.1375
908.8298	10806.9375
912.61957	10769.2375
916.40671	10781.6375
920.19121	10797.7375
923.97308	10845.5375
927.75233	10850.5375
931.52895	10842.7375
935.30295	10845.6375
939.07433	10716.4375
942.84309	10573.6375
946.60924	10494.5375
950.37278	10437.8375
954.13371	10374.0375
957.89203	10322.2375
961.64774	10334.9375
965.40086	10305.2375
969.15137	10262.8375
972.89929	10250.9375
976.64461	10240.5375
980.38733	10215.5375
984.12747	10217.2375
987.86502	10235.9375
991.59999	10250.8375
995.33237	10273.4375
999.06217	10343.9375
1002.78939	10383.2375
1006.51404	10472.3375
1010.23611	10540.7375
1013.95561	10616.7375
1017.67255	10634.9375
1021.38692	10588.5375
1025.09872	10547.5375
1028.80796	10439.2375
1032.51465	10451.7375
1036.21877	10435.3375
1039.92035	10464.9375
1043.61937	10481.8375
1047.31584	10501.1375
1051.00976	10515.8375
1054.70114	10546.6375
1058.38998	10567.9375
1062.07627	10575.7375
1065.76003	10653.3375
1069.44126	10752.1375
1073.11995	10857.7375
1076.79611	10997.5375
1080.46974	11026.0375
1084.14085	10992.4375
1087.80943	11026.1375
1091.47549	11039.8375
1095.13903	11037.0375
1098.80005	10972.5375
1102.45857	10824.4375
1106.11456	10693.1375
1109.76805	10634.9375
1113.41903	10694.4375
1117.06751	10829.1375
1120.71348	10994.8375
1124.35696	11156.2375
1127.99793	11350.4375
1131.63641	11476.5375
1135.2724	11359.2375
1138.90589	11156.7375
1142.5369	10958.5375
1146.16542	10814.0375
1149.79145	10662.7375
1153.415	10580.1375
1157.03607	10536.8375
1160.65467	10606.5375
1164.27079	10698.6375
1167.88443	10939.8375
1171.49561	11315.5375
1175.10432	11905.8375
1178.71056	12712.8375
1182.31434	13419.3375
1185.91565	13672.5375
1189.51451	13574.0375
1193.11091	13208.4375
1196.70485	12713.4375
1200.29634	12304.7375
1203.88538	12021.0375
1207.47197	11662.1375
1211.05612	11334.2375
1214.63782	11069.4375
1218.21708	10944.7375
1221.79391	10821.5375
1225.36829	10757.3375
1228.94024	10757.1375
1232.50976	10776.9375
1236.07685	10808.6375
1239.6415	10812.6375
1243.20374	10840.8375
1246.76355	10888.2375
1250.32093	10926.4375
1253.8759	11013.8375
1257.42845	11155.5375
1260.97859	11312.1375
1264.52631	11451.4375
1268.07163	11606.6375
1271.61453	11768.9375
1275.15503	11870.4375
1278.69312	11930.6375
1282.22882	11965.9375
1285.76211	12085.7375
1289.29301	12224.8375
1292.82151	12429.9375
1296.34761	12648.3375
1299.87133	12984.9375
1303.39266	13482.0375
1306.9116	14164.6375
1310.42815	14928.3375
1313.94233	15334.2375
1317.45412	15184.1375
1320.96354	14742.3375
1324.47058	14225.0375
1327.97525	13713.2375
1331.47754	13267.9375
1334.97747	13019.2375
1338.47502	12904.6375
1341.97022	12975.3375
1345.46305	13197.8375
1348.95352	13613.3375
1352.44163	14222.0375
1355.92738	15057.8375
1359.41078	16239.2375
1362.89183	17570.7375
1366.37053	17728.1375
1369.84688	16167.1375
1373.32088	14259.3375
1376.79254	12940.7375
1380.26186	12200.3375
1383.72883	11793.9375
1387.19347	11485.6375
1390.65578	11176.3375
1394.11575	10925.6375
1397.57339	10731.6375
1401.0287	10589.2375
1404.48168	10515.0375
1407.93234	10448.4375
1411.38068	10406.5375
1414.82669	10388.0375
1418.27039	10369.9375
1421.71177	10312.5375
1425.15083	10213.5375
1428.58758	10126.6375
1432.02203	10096.6375
1435.45416	10078.5375
1438.88399	10133.6375
1442.31151	10149.8375
1445.73673	10182.8375
1449.15965	10177.7375
1452.58027	10217.2375
1455.9986	10202.5375
1459.41463	10242.8375
1462.82837	10310.9375
1466.23982	10424.2375
1469.64898	10579.5375
1473.05586	10743.6375
1476.46045	10850.9375
1479.86276	10962.9375
1483.26279	11097.2375
1486.66054	11237.7375
1490.05602	11470.2375
1493.44922	11769.5375
1496.84016	12323.6375
1500.22882	13205.0375
1503.61521	14344.7375
1506.99934	15668.7375
1510.38121	16718.0375
1513.76081	17014.4375
1517.13816	16298.6375
1520.51324	14913.9375
1523.88607	13638.4375
1527.25665	12679.3375
1530.62498	12099.5375
1533.99105	11766.3375
1537.35488	11535.8375
1540.71647	11403.0375
1544.07581	11289.8375
1547.4329	11215.7375
1550.78776	11181.0375
1554.14038	11182.3375
1557.49077	11236.7375
1560.83892	11315.7375
1564.18484	11482.9375
1567.52853	11658.8375
1570.86999	11867.1375
1574.20922	12033.0375
1577.54624	12056.3375
1580.88103	11794.4375
1584.2136	11362.9375
1587.54395	10980.2375
1590.87208	10839.0375
1594.19801	10923.0375
1597.52172	11205.8375
1600.84321	11368.0375
1604.16251	11294.2375
1607.47959	11029.0375
1610.79447	10753.6375
1614.10715	10401.3375
1617.41763	10107.7375
1620.7259	9835.1375
1624.03199	9668.0375
1627.33587	9592.8375
1630.63757	9613.5375
1633.93707	9737.2375
1637.23439	9979.7375
1640.52951	10402.6375
1643.82246	11043.9375
1647.11321	11935.3375
1650.40179	12696.1375
1653.68819	12800.6375
1656.97241	12094.6375
1660.25446	11037.4375
1663.53433	10169.0375
1666.81203	9635.7375
1670.08756	9294.7375
1673.36092	9066.9375
1676.63211	8923.6375
1679.90115	8808.4375
1683.16801	8728.2375
1686.43272	8651.8375
1689.69527	8602.4375
1692.95567	8572.2375
1696.2139	8546.0375
1699.46999	8567.6375
1702.72392	8523.8375
1705.97571	8493.3375
1709.22535	8435.3375
1712.47284	8382.5375
1715.71819	8371.3375
1718.96139	8311.4375
1722.20246	8240.0375
1725.44139	8178.6375
1728.67818	8129.2375
1731.91284	8062.0375
1735.14537	8024.2375
1738.37576	8005.1375
1741.60403	7994.9375
1744.83017	7942.7375
1748.05418	7921.6375
1751.27607	7906.9375
1754.49584	7896.1375
1757.71349	7894.1375
1760.92903	7869.2375
1764.14244	7840.8375
1767.35375	7872.2375
1770.56294	7831.5375
1773.77002	7813.6375
1776.97499	7793.6375
1780.17785	7775.0375
1783.37861	7757.0375
1786.57727	7749.6375
1789.77382	7711.4375
1792.96828	7709.8375
1796.16064	7668.6375
1799.3509	7678.4375
1802.53907	7637.7375
1805.72514	7638.0375
1808.90913	7611.1375
1812.09102	7604.2375
1815.27083	7553.8375
1818.44856	7532.2375
1821.6242	7534.8375
1824.79776	7516.2375
1827.96924	7489.1375
1831.13864	7494.0375
1834.30597	7477.1375
1837.47122	7465.8375
1840.6344	7453.5375
1843.7955	7466.1375
1846.95454	7448.2375
1850.11151	7424.2375
1853.26642	7416.4375
1856.41926	7413.2375
1859.57004	7411.2375
1862.71876	7383.4375
1865.86542	7372.5375
1869.01003	7369.4375
1872.15258	7350.6375
1875.29308	7335.3375
1878.43152	7341.3375
1881.56792	7306.3375
1884.70227	7300.2375
1887.83457	7302.2375
1890.96482	7312.0375
1894.09304	7271.1375
1897.21921	7256.8375
1900.34335	7246.0375
1903.46544	7226.0375
1906.58551	7224.7375
1909.70353	7214.3375
1912.81953	7227.8375
1915.93349	7186.6375
1919.04543	7165.4375
1922.15534	7162.4375
1925.26322	7133.4375
1928.36908	7111.9375
1931.47292	7081.8375
1934.57473	7075.0375
1937.67453	7060.0375
1940.77232	7062.8375
1943.86808	7015.7375
1946.96184	7005.9375
1950.05358	6994.6375
1953.14331	6978.9375
1956.23103	6939.6375
1959.31675	6927.4375
1962.40046	6919.7375
1965.48217	6888.6375
1968.56188	6886.4375
1971.63959	6834.7375
1974.7153	6816.3375
1977.78901	6800.2375
1980.86073	6749.7375
1983.93046	6740.9375
1986.99819	6727.1375
1990.06394	6696.3375
1993.1277	6663.1375
1996.18947	6648.5375
1999.24925	6650.8375
2002.30706	6613.6375
2005.36288	6585.0375
2008.41672	6567.2375
2011.46859	6550.0375
2014.51848	6527.6375
2017.56639	6487.2375
2020.61233	6460.8375
2023.6563	6456.9375
2026.6983	6448.1375
2029.73833	6435.3375
2032.7764	6402.7375
2035.8125	6390.9375
2038.84664	6384.0375
2041.87881	6373.7375
2044.90903	6332.3375
2047.93729	6330.1375
2050.96359	6335.2375
2053.98794	6295.8375
2057.01034	6279.3375
2060.03078	6285.8375
2063.04927	6267.9375
2066.06582	6278.7375
2069.08042	6275.4375
2072.09307	6254.8375
2075.10378	6244.3375
2078.11255	6245.9375
2081.11938	6245.5375
2084.12426	6221.5375
2087.12722	6241.4375
2090.12824	6227.3375
2093.12732	6217.8375
2096.12447	6240.7375
2099.11969	6218.8375
2102.11299	6225.4375
2105.10435	6207.6375
2108.09379	6200.4375
2111.08131	6236.2375
2114.0669	6217.3375
2117.05057	6214.5375
2120.03233	6226.9375
2123.01216	6233.5375
2125.99008	6230.3375
2128.96609	6247.7375
2131.94018	6236.3375
2134.91236	6244.8375
2137.88263	6247.3375
2140.851	6230.4375
2143.81746	6236.5375
2146.78201	6228.6375
2149.74466	6247.6375
2152.7054	6214.7375
2155.66425	6223.4375
2158.6212	6218.4375
2161.57625	6219.6375
2164.52941	6213.1375
2167.48067	6209.6375
2170.43004	6211.5375
2173.37752	6210.0375
2176.32311	6186.8375
2179.26681	6164.6375
2182.20863	6179.4375
2185.14856	6175.0375
2188.08661	6155.2375
2191.02278	6166.7375
2193.95707	6163.8375
2196.88948	6131.5375
2199.82001	6145.4375
2202.74867	6118.0375
2205.67545	6123.0375
2208.60037	6134.7375
2211.52341	6104.1375
2214.44458	6085.3375
2217.36388	6064.0375
2220.28132	6038.0375
2223.1969	6036.6375
2226.11061	6038.7375
2229.02246	6009.9375
2231.93245	5983.0375
2234.84058	5988.2375
2237.74686	5958.4375
2240.65128	5957.1375
2243.55385	5956.5375
2246.45456	5953.9375
2249.35343	5936.9375
2252.25044	5908.8375
2255.14561	5907.5375
2258.03893	5921.6375
2260.93041	5901.9375
2263.82004	5881.9375
2266.70783	5865.9375
2269.59378	5853.9375
2272.4779	5850.9375
2275.36017	5815.7375
2278.24061	5821.3375
2281.11922	5801.1375
2283.996	5777.9375
2286.87094	5765.5375
2289.74405	5753.6375
2292.61534	5742.0375
2295.4848	5742.3375
2298.35243	5725.1375
2301.21824	5725.1375
2304.08223	5723.1375
2306.94439	5721.1375
2309.80474	5685.2375
2312.66327	5692.9375
2315.51999	5684.0375
2318.37489	5695.3375
2321.22797	5665.9375
2324.07925	5663.6375
2326.92871	5648.0375
2329.77637	5641.2375
2332.62222	5635.3375
2335.46626	5614.1375
2338.3085	5599.1375
2341.14893	5577.4375
2343.98756	5571.3375
2346.8244	5589.4375
2349.65943	5572.5375
2352.49267	5568.1375
2355.32411	5560.2375
2358.15376	5562.5375
2360.98161	5542.3375
2363.80768	5560.8375
2366.63195	5551.8375
2369.45444	5555.5375
2372.27514	5531.5375
2375.09405	5517.9375
2377.91118	5523.6375
2380.72652	5506.5375
2383.54009	5492.9375
2386.35187	5473.4375
2389.16188	5436.1375
2391.97011	5442.9375
2394.77657	5416.5375
2397.58125	5401.7375
2400.38416	5393.2375
2403.18529	5386.4375
2405.98466	5384.7375
2408.78226	5363.2375
2411.57809	5360.0375
2414.37216	5352.4375
2417.16446	5353.5375
2419.955	5321.2375
2422.74378	5314.5375
2425.5308	5318.8375
2428.31606	5317.4375
2431.09956	5305.5375
2433.88131	5296.7375
2436.6613	5292.4375
2439.43954	5274.6375
2442.21603	5285.4375
2444.99077	5289.2375
2447.76377	5277.8375
2450.53501	5264.8375
2453.30451	5244.4375
2456.07226	5238.9375
2458.83827	5246.8375
2461.60254	5252.9375
2464.36507	5234.1375
2467.12586	5220.4375
2469.88492	5205.1375
2472.64224	5215.7375
2475.39782	5206.2375
2478.15167	5200.0375
2480.90379	5190.7375
2483.65417	5191.8375
2486.40283	5188.2375
2489.14976	5194.7375
2491.89497	5178.1375
2494.63845	5180.5375
2497.3802	5167.7375
2500.12024	5154.6375
2502.85855	5148.5375
2505.59514	5151.9375
2508.33002	5148.7375
2511.06318	5125.8375
2513.79462	5105.5375
2516.52435	5093.2375
2519.25237	5091.3375
2521.97867	5074.6375
2524.70327	5056.6375
2527.42616	5034.8375
2530.14734	5045.9375
2532.86681	5029.2375
2535.58458	5023.6375
2538.30065	5006.4375
2541.01501	5001.6375
2543.72768	5005.3375
2546.43864	4984.2375
2549.14791	4983.9375
2551.85548	4959.2375
2554.56136	4952.4375
2557.26554	4961.5375
2559.96803	4961.5375
2562.66883	4922.6375
2565.36794	4926.5375
2568.06536	4901.0375
2570.7611	4926.6375
2573.45514	4903.6375
2576.14751	4883.6375
2578.83819	4884.2375
2581.52719	4864.7375
2584.21451	4862.0375
2586.90015	4848.8375
2589.58411	4834.7375
2592.2664	4834.6375
2594.94701	4814.2375
2597.62594	4794.0375
2600.30321	4776.0375
2602.9788	4781.3375
2605.65273	4764.1375
2608.32498	4753.0375
2610.99557	4744.0375
2613.66449	4736.6375
2616.33175	4740.0375
2618.99734	4722.5375
2621.66128	4721.2375
2624.32355	4732.3375
2626.98416	4694.7375
2629.64311	4687.4375
2632.30041	4684.1375
2634.95605	4689.3375
2637.61004	4680.6375
2640.26238	4671.6375
2642.91306	4670.8375
2645.56209	4654.9375
2648.20948	4638.5375
2650.85521	4633.2375
2653.4993	4630.5375
2656.14175	4629.5375
2658.78255	4635.3375
2661.42171	4633.6375
2664.05923	4621.1375
2666.6951	4614.0375
2669.32934	4621.7375
2671.96194	4610.3375
2674.59291	4622.1375
2677.22224	4595.8375
2679.84993	4616.1375
2682.476	4600.3375
2685.10043	4601.0375
2687.72324	4613.9375
2690.34441	4606.6375
2692.96396	4605.6375
2695.58188	4595.2375
2698.19818	4573.5375
2700.81285	4590.6375
2703.4259	4605.7375
2706.03733	4588.2375
2708.64714	4591.9375
2711.25533	4583.7375
2713.86191	4582.3375
2716.46687	4590.0375
2719.07021	4586.1375
2721.67194	4586.8375
2724.27206	4566.8375
2726.87057	4556.6375
2729.46747	4575.0375
2732.06276	4565.0375
2734.65644	4564.2375
2737.24852	4547.4375
2739.83899	4531.8375
2742.42786	4541.7375
2745.01513	4519.5375
2747.60079	4526.2375
2750.18486	4512.4375
2752.76733	4524.8375
2755.3482	4501.2375
2757.92747	4508.7375
2760.50515	4483.5375
2763.08123	4490.3375
2765.65573	4466.8375
2768.22863	4460.6375
2770.79994	4459.3375
2773.36967	4466.0375
2775.9378	4438.7375
2778.50435	4442.0375
2781.06932	4423.6375
2783.6327	4424.0375
2786.1945	4421.5375
2788.75471	4408.6375
2791.31335	4391.2375
2793.87041	4399.9375
2796.42589	4364.0375
2798.97979	4364.3375
2801.53212	4353.9375
2804.08288	4358.6375
2806.63206	4317.8375
2809.17967	4332.7375
2811.72571	4318.2375
2814.27018	4318.8375
2816.81308	4306.5375
2819.35442	4310.4375
2821.89419	4287.8375
2824.43239	4298.2375
2826.96904	4290.2375
2829.50412	4282.0375
2832.03763	4283.2375
2834.56959	4286.7375
2837.1	4272.7375
2839.62884	4265.9375
2842.15613	4282.4375
2844.68186	4275.0375
2847.20604	4279.8375
2849.72867	4285.7375
2852.24974	4279.0375
2854.76927	4260.9375
2857.28724	4274.5375
2859.80367	4264.3375
2862.31855	4260.5375
2864.83189	4261.6375
2867.34368	4234.8375
2869.85393	4260.6375
2872.36264	4260.8375
2874.8698	4263.4375
2877.37543	4242.9375
2879.87952	4265.3375
2882.38207	4262.3375
2884.88308	4234.0375
2887.38256	4242.6375
2889.88051	4234.3375
2892.37692	4221.0375
2894.8718	4226.4375
2897.36515	4234.6375
2899.85698	4222.5375
2902.34727	4228.2375
2904.83604	4228.4375
2907.32328	4232.1375
2909.809	4217.1375
2912.29319	4235.2375
2914.77587	4220.9375
2917.25702	4222.0375
2919.73665	4234.3375
2922.21476	4216.7375
2924.69136	4233.2375
2927.16644	4217.4375
2929.64	4203.3375
2932.11205	4217.3375
2934.58258	4183.6375
2937.05161	4197.4375
2939.51912	4176.4375
2941.98513	4177.8375
2944.44962	4168.5375
2946.91261	4141.9375
2949.37409	4168.6375
2951.83407	4153.4375
2954.29254	4141.6375
2956.74951	4134.3375
2959.20498	4148.5375
2961.65895	4133.8375
2964.11142	4139.5375
2966.56239	4129.1375
2969.01186	4116.9375
2971.45984	4102.1375
2973.90632	4110.3375
2976.35131	4097.8375
2978.7948	4074.7375
2981.23681	4070.6375
2983.67732	4053.7375
2986.11635	4050.7375
2988.55388	4049.5375
2990.98993	4053.7375
2993.4245	4046.3375
2995.85758	4023.4375
2998.28917	4034.6375
3000.71928	4015.4375
3003.14791	4009.6375
3005.57506	4010.2375
3008.00073	4010.5375
3010.42493	3995.5375
3012.84764	3988.9375
3015.26888	3997.4375
3017.68865	3983.0375
3020.10694	3990.5375
3022.52376	3972.3375
3024.9391	3974.6375
3027.35298	3950.1375
3029.76539	3945.0375
3032.17632	3939.0375
3034.5858	3936.5375
3036.9938	3930.8375
3039.40034	3929.8375
3041.80542	3927.2375
3044.20903	3925.6375
3046.61118	3926.0375
3049.01187	3911.2375
3051.4111	3910.6375
3053.80888	3908.8375
3056.20519	3910.6375
3058.60005	3901.8375
3060.99345	3891.0375
3063.3854	3896.7375
3065.7759	3883.1375
3068.16494	3884.6375
3070.55254	3881.4375
3072.93868	3863.3375
3075.32338	3871.7375
3077.70662	3873.8375
3080.08842	3860.6375
3082.46878	3866.9375
3084.84769	3856.8375
3087.22515	3883.0375
3089.60118	3869.6375
3091.97576	3869.9375
3094.3489	3859.0375
3096.72061	3863.5375
3099.09087	3895.7375
3101.4597	3882.9375
3103.82709	3884.8375
3106.19305	3872.9375
3108.55757	3887.0375
3110.92066	3868.9375
3113.28232	3862.3375
3115.64255	3855.5375
3118.00134	3857.5375
3120.35871	3863.1375
3122.71466	3861.3375
3125.06917	3876.8375
3127.42226	3857.8375
3129.77393	3847.0375
3132.12417	3853.0375
3134.47299	3863.5375
3136.82039	3864.1375
3139.16636	3875.7375
3141.51092	3876.6375
3143.85406	3894.1375
3146.19579	3874.8375
3148.53609	3903.0375
3150.87499	3901.1375
3153.21246	3902.2375
3155.54853	3925.2375
3157.88318	3923.5375
3160.21642	3931.0375
3162.54826	3926.4375
3164.87868	3930.2375
3167.2077	3937.3375
3169.5353	3928.5375
3171.86151	3933.4375
3174.18631	3929.3375
3176.5097	3929.7375
3178.83169	3941.9375
3181.15228	3945.3375
3183.47147	3938.1375
3185.78926	3933.1375
3188.10565	3939.5375
3190.42065	3951.0375
3192.73424	3940.8375
3195.04645	3941.7375
3197.35725	3933.5375
3199.66667	3954.5375
3201.97469	3946.3375
3204.28132	3946.5375
3206.58656	3962.7375
3208.8904	3958.8375
3211.19287	3970.3375
3213.49394	3983.8375
3215.79363	3974.5375
3218.09193	3987.1375
3220.38884	3986.5375
3222.68438	3976.1375
3224.97853	3972.4375
3227.2713	3989.7375
3229.56269	3982.1375
3231.8527	3967.9375
3234.14133	3962.7375
3236.42858	3963.8375
3238.71446	3938.9375
3240.99896	3941.2375
3243.28209	3949.4375
3245.56384	3948.0375
3247.84423	3931.2375
3250.12324	3955.1375
3252.40088	3947.3375
3254.67715	3942.0375
3256.95205	3927.9375
3259.22558	3932.7375
3261.49775	3923.5375
3263.76855	3912.6375
3266.03799	3903.6375
3268.30606	3919.1375
3270.57277	3909.6375
3272.83812	3907.2375
3275.10211	3891.6375
3277.36474	3898.5375
3279.62601	3889.8375
3281.88593	3881.1375
3284.14448	3883.3375
3286.40168	3861.3375
3288.65753	3875.7375
3290.91202	3873.7375
3293.16516	3858.1375
3295.41695	3851.1375
3297.66738	3827.4375
3299.91647	3806.6375
3302.16421	3781.8375
3304.4106	3778.1375
3306.65564	3740.8375
3308.89933	3736.0375
3311.14169	3702.8375
3313.38269	3684.7375
3315.62236	3680.4375
3317.86068	3646.4375
3320.09766	3616.0375
3322.3333	3576.7375
3324.5676	3589.1375
3326.80056	3512.3375
3329.03219	3487.1375
3331.26248	-0.1625
3333.49143	1.2375
3335.71905	-0.5625
