Data from AgNPs_FTO_APTES_UA_20uM_R6G_10uM_NaF_0.1M_Addition_RamanShift__6__14-02-27-356.txt Node

Date: Fri Dec 17 14:02:27 GMT 2021
User: TCL
Spectrometer: QEP01345
Trigger mode: 4
Integration Time (sec): 7.000000E0
Scans to average: 10
Electric dark correction enabled: true
Nonlinearity correction enabled: false
Boxcar width: 0
XAxis mode: Raman Shifts
Number of Pixels in Spectrum: 1044
>>>>>Begin Spectral Data<<<<<
46.04893	-0.175
50.45542	-1.575
54.85868	-1.075
59.25871	-0.275
63.6555	75.525
68.04907	76.325
72.43941	83.725
76.82654	87.125
81.21044	86.825
85.59113	91.225
89.96862	99.525
94.34289	99.425
98.71396	103.025
103.08183	107.325
107.4465	109.025
111.80798	111.125
116.16626	113.325
120.52136	115.425
124.87327	129.525
129.222	130.925
133.56755	137.725
137.90993	150.025
142.24913	167.725
146.58517	185.325
150.91804	215.025
155.24774	254.225
159.57429	322.425
163.89768	408.925
168.21792	540.725
172.53501	735.225
176.84895	1016.025
181.15975	1433.025
185.46741	2007.025
189.77193	2779.225
194.07331	3714.825
198.37157	4815.325
202.6667	5980.625
206.9587	7112.125
211.24758	8192.325
215.53334	9334.525
219.81599	10460.025
224.09553	11754.025
228.37195	13192.625
232.64527	14729.425
236.91549	16371.725
241.18261	18088.425
245.44663	19691.925
249.70755	21183.725
253.96539	22428.625
258.22014	23508.125
262.4718	24350.225
266.72039	24924.125
270.96589	25223.025
275.20832	25194.125
279.44768	25052.525
283.68397	24735.725
287.91719	24447.825
292.14735	24219.725
296.37445	24119.625
300.59849	24125.025
304.81948	24180.825
309.03742	24205.425
313.25231	24113.425
317.46415	23882.225
321.67296	23515.625
325.87872	23155.725
330.08145	22988.325
334.28114	23050.625
338.47781	23262.725
342.67145	23528.425
346.86207	23899.325
351.04966	24295.725
355.23424	24779.125
359.4158	25171.425
363.59435	25509.325
367.76989	25795.625
371.94243	25944.825
376.11196	26092.525
380.27849	26220.625
384.44203	26379.525
388.60257	26561.025
392.76012	26766.425
396.91468	27032.225
401.06626	27339.725
405.21485	27603.125
409.36047	27573.125
413.50311	27349.925
417.64277	27146.825
421.77947	27113.325
425.9132	27217.925
430.04396	27357.725
434.17176	27395.525
438.2966	27555.825
442.41849	27798.925
446.53742	28188.425
450.6534	28681.325
454.76644	29052.125
458.87653	29219.925
462.98368	29181.425
467.08789	29065.925
471.18916	28874.325
475.2875	28564.925
479.38291	28224.025
483.4754	28015.825
487.56496	27834.825
491.6516	27630.325
495.73531	27658.625
499.81612	27655.625
503.89401	27900.125
507.96899	28056.825
512.04106	28081.225
516.11023	28041.025
520.1765	27992.325
524.23987	27859.725
528.30034	27711.525
532.35792	27653.225
536.41261	27498.125
540.46441	27253.525
544.51333	27201.225
548.55936	27348.625
552.60252	27607.425
556.64279	27937.525
560.6802	28154.025
564.71473	28251.125
568.7464	28413.425
572.7752	28729.725
576.80114	29014.225
580.82422	29551.525
584.84444	30194.025
588.86181	30866.225
592.87633	31245.225
596.888	31112.925
600.89682	30807.025
604.9028	31228.425
608.90594	33206.725
612.90624	35423.525
616.90371	34042.625
620.89834	30284.325
624.89015	28449.625
628.87913	28208.225
632.86528	28332.825
636.84862	28452.325
640.82913	28255.325
644.80683	27873.525
648.78172	27542.425
652.75379	27500.325
656.72306	27754.325
660.68952	28090.425
664.65319	28088.225
668.61405	27729.725
672.57211	27738.425
676.52738	27866.525
680.47986	27830.025
684.42955	27686.025
688.37646	27650.525
692.32058	27769.625
696.26192	28013.725
700.20048	28276.425
704.13626	28429.625
708.06928	28325.525
711.99952	28216.325
715.927	28230.825
719.85171	28196.425
723.77365	28166.925
727.69284	27928.225
731.60928	27673.125
735.52295	27589.425
739.43388	27552.525
743.34206	27636.825
747.24749	27714.225
751.15017	27805.125
755.05012	28054.825
758.94733	28501.525
762.8418	29366.525
766.73354	30708.925
770.62254	32069.025
774.50882	32610.325
778.39237	31944.825
782.27321	30575.825
786.15132	29321.125
790.02671	28494.625
793.89938	28058.025
797.76935	27891.025
801.6366	27774.025
805.50115	27712.825
809.36299	27594.025
813.22213	27499.125
817.07857	27418.525
820.93231	27325.625
824.78336	27263.225
828.63172	27248.425
832.47738	27240.825
836.32036	27275.425
840.16066	27236.425
843.99827	27220.825
847.8332	27225.025
851.66546	27268.425
855.49504	27267.425
859.32195	27292.325
863.1462	27306.825
866.96777	27329.325
870.78668	27349.825
874.60293	27312.025
878.41652	27400.625
882.22745	27467.525
886.03573	27559.725
889.84136	27620.125
893.64433	27494.325
897.44466	27378.625
901.24235	27305.925
905.0374	27233.425
908.8298	27165.325
912.61957	27175.525
916.40671	27238.325
920.19121	27374.425
923.97308	27538.825
927.75233	27533.225
931.52895	27537.325
935.30295	27376.225
939.07433	27070.125
942.84309	26902.325
946.60924	26808.725
950.37278	26763.325
954.13371	26712.825
957.89203	26687.225
961.64774	26633.325
965.40086	26619.525
969.15137	26594.425
972.89929	26583.725
976.64461	26588.925
980.38733	26621.125
984.12747	26648.625
987.86502	26769.825
991.59999	26856.325
995.33237	27007.625
999.06217	27297.125
1002.78939	27628.125
1006.51404	27970.725
1010.23611	28289.725
1013.95561	28503.525
1017.67255	28493.825
1021.38692	28370.125
1025.09872	28139.925
1028.80796	27907.925
1032.51465	27883.225
1036.21877	27927.125
1039.92035	28020.625
1043.61937	28034.225
1047.31584	28049.125
1051.00976	27996.925
1054.70114	27978.225
1058.38998	28032.425
1062.07627	28247.525
1065.76003	28515.625
1069.44126	28834.225
1073.11995	29191.825
1076.79611	29585.125
1080.46974	29768.625
1084.14085	29828.625
1087.80943	29934.125
1091.47549	29993.225
1095.13903	29949.425
1098.80005	29724.725
1102.45857	29317.925
1106.11456	28999.025
1109.76805	28766.725
1113.41903	28737.525
1117.06751	28804.725
1120.71348	28955.325
1124.35696	29153.525
1127.99793	29388.025
1131.63641	29463.325
1135.2724	29365.425
1138.90589	29213.425
1142.5369	29160.525
1146.16542	29109.825
1149.79145	29080.825
1153.415	29071.425
1157.03607	29106.925
1160.65467	29427.425
1164.27079	30004.325
1167.88443	30830.625
1171.49561	31853.825
1175.10432	33084.625
1178.71056	34742.025
1182.31434	36363.025
1185.91565	37406.325
1189.51451	37763.825
1193.11091	37453.025
1196.70485	36598.325
1200.29634	35647.725
1203.88538	34731.625
1207.47197	34024.625
1211.05612	33401.925
1214.63782	32948.925
1218.21708	32341.625
1221.79391	31876.225
1225.36829	31562.725
1228.94024	31354.525
1232.50976	31253.425
1236.07685	31185.425
1239.6415	31105.625
1243.20374	31124.525
1246.76355	31270.525
1250.32093	31562.725
1253.8759	31937.325
1257.42845	32503.925
1260.97859	33162.425
1264.52631	33778.625
1268.07163	34391.825
1271.61453	35017.025
1275.15503	35501.725
1278.69312	35915.625
1282.22882	36248.625
1285.76211	36580.325
1289.29301	37127.725
1292.82151	37834.425
1296.34761	38658.025
1299.87133	39828.125
1303.39266	41224.125
1306.9116	42720.525
1310.42815	44161.325
1313.94233	45005.125
1317.45412	44858.925
1320.96354	44167.125
1324.47058	43535.025
1327.97525	43002.725
1331.47754	42698.525
1334.97747	42657.025
1338.47502	42773.925
1341.97022	43020.625
1345.46305	43287.125
1348.95352	43639.525
1352.44163	44031.625
1355.92738	44619.025
1359.41078	45642.825
1362.89183	46540.225
1366.37053	45780.725
1369.84688	42955.325
1373.32088	39596.825
1376.79254	37084.525
1380.26186	35875.825
1383.72883	35413.925
1387.19347	35085.025
1390.65578	34643.025
1394.11575	34256.225
1397.57339	34112.725
1401.0287	34236.825
1404.48168	34419.325
1407.93234	34579.125
1411.38068	34522.325
1414.82669	34232.125
1418.27039	33686.725
1421.71177	33072.125
1425.15083	32578.025
1428.58758	32366.225
1432.02203	32630.925
1435.45416	33058.625
1438.88399	33536.325
1442.31151	33846.225
1445.73673	33952.525
1449.15965	33927.325
1452.58027	33904.925
1455.9986	33819.525
1459.41463	33973.925
1462.82837	34384.925
1466.23982	34937.125
1469.64898	35369.925
1473.05586	35662.725
1476.46045	35813.425
1479.86276	35762.925
1483.26279	35729.725
1486.66054	35794.125
1490.05602	36091.925
1493.44922	36491.025
1496.84016	37043.125
1500.22882	37968.825
1503.61521	39254.125
1506.99934	40666.325
1510.38121	41620.825
1513.76081	41592.425
1517.13816	40523.625
1520.51324	38908.425
1523.88607	37467.025
1527.25665	36630.725
1530.62498	36268.225
1533.99105	36027.225
1537.35488	35720.225
1540.71647	35395.425
1544.07581	34946.725
1547.4329	34648.525
1550.78776	34267.925
1554.14038	33938.925
1557.49077	33755.325
1560.83892	33650.825
1564.18484	33716.525
1567.52853	33872.325
1570.86999	34080.325
1574.20922	34448.825
1577.54624	34654.825
1580.88103	34514.425
1584.2136	34277.525
1587.54395	34453.225
1590.87208	35095.825
1594.19801	36308.525
1597.52172	37658.025
1600.84321	38225.125
1604.16251	37631.125
1607.47959	36231.825
1610.79447	34618.525
1614.10715	32827.625
1617.41763	31199.125
1620.7259	30034.425
1624.03199	29395.225
1627.33587	29228.125
1630.63757	29549.025
1633.93707	30444.825
1637.23439	32100.525
1640.52951	34365.825
1643.82246	37225.725
1647.11321	39372.025
1650.40179	39869.325
1653.68819	38070.325
1656.97241	34768.025
1660.25446	31610.825
1663.53433	29183.225
1666.81203	27726.825
1670.08756	26776.225
1673.36092	26200.325
1676.63211	25778.025
1679.90115	25476.825
1683.16801	25287.825
1686.43272	25103.225
1689.69527	24974.825
1692.95567	24834.325
1696.2139	24795.425
1699.46999	24697.225
1702.72392	24673.625
1705.97571	24642.025
1709.22535	24596.525
1712.47284	24597.525
1715.71819	24564.225
1718.96139	24521.825
1722.20246	24487.925
1725.44139	24446.125
1728.67818	24328.625
1731.91284	24220.425
1735.14537	24131.725
1738.37576	24040.425
1741.60403	23955.325
1744.83017	23899.025
1748.05418	23870.825
1751.27607	23828.925
1754.49584	23787.625
1757.71349	23803.325
1760.92903	23773.625
1764.14244	23801.625
1767.35375	23794.425
1770.56294	23772.025
1773.77002	23685.425
1776.97499	23698.625
1780.17785	23661.325
1783.37861	23624.025
1786.57727	23544.625
1789.77382	23547.825
1792.96828	23521.725
1796.16064	23456.525
1799.3509	23411.325
1802.53907	23417.025
1805.72514	23314.925
1808.90913	23299.425
1812.09102	23277.925
1815.27083	23221.425
1818.44856	23189.325
1821.6242	23185.925
1824.79776	23149.425
1827.96924	23122.025
1831.13864	23117.025
1834.30597	23109.625
1837.47122	23106.625
1840.6344	23100.025
1843.7955	23080.025
1846.95454	23073.625
1850.11151	23047.625
1853.26642	23036.425
1856.41926	23008.025
1859.57004	22974.225
1862.71876	23008.525
1865.86542	22961.225
1869.01003	22922.925
1872.15258	22907.825
1875.29308	22870.425
1878.43152	22833.225
1881.56792	22821.825
1884.70227	22809.325
1887.83457	22788.425
1890.96482	22766.525
1894.09304	22760.725
1897.21921	22714.125
1900.34335	22690.125
1903.46544	22654.525
1906.58551	22620.925
1909.70353	22589.125
1912.81953	22578.125
1915.93349	22551.525
1919.04543	22505.425
1922.15534	22449.325
1925.26322	22421.825
1928.36908	22379.025
1931.47292	22378.425
1934.57473	22290.825
1937.67453	22213.825
1940.77232	22152.025
1943.86808	22121.925
1946.96184	22103.825
1950.05358	22012.225
1953.14331	21966.225
1956.23103	21899.625
1959.31675	21861.725
1962.40046	21793.025
1965.48217	21755.125
1968.56188	21665.025
1971.63959	21589.225
1974.7153	21550.225
1977.78901	21480.425
1980.86073	21422.625
1983.93046	21346.725
1986.99819	21325.025
1990.06394	21235.425
1993.1277	21195.125
1996.18947	21133.225
1999.24925	21084.325
2002.30706	20995.825
2005.36288	20956.325
2008.41672	20917.725
2011.46859	20856.025
2014.51848	20811.325
2017.56639	20774.525
2020.61233	20693.425
2023.6563	20624.425
2026.6983	20572.025
2029.73833	20554.925
2032.7764	20515.425
2035.8125	20446.525
2038.84664	20451.725
2041.87881	20397.425
2044.90903	20383.325
2047.93729	20328.825
2050.96359	20295.025
2053.98794	20262.825
2057.01034	20230.025
2060.03078	20199.625
2063.04927	20221.725
2066.06582	20187.825
2069.08042	20214.525
2072.09307	20195.025
2075.10378	20178.625
2078.11255	20143.725
2081.11938	20167.425
2084.12426	20156.225
2087.12722	20126.725
2090.12824	20132.925
2093.12732	20143.825
2096.12447	20160.125
2099.11969	20130.125
2102.11299	20157.825
2105.10435	20143.725
2108.09379	20187.825
2111.08131	20206.825
2114.0669	20211.425
2117.05057	20243.025
2120.03233	20237.125
2123.01216	20264.725
2125.99008	20292.025
2128.96609	20251.825
2131.94018	20304.125
2134.91236	20330.025
2137.88263	20328.525
2140.851	20344.425
2143.81746	20328.025
2146.78201	20422.125
2149.74466	20377.525
2152.7054	20330.925
2155.66425	20366.425
2158.6212	20368.325
2161.57625	20355.625
2164.52941	20383.825
2167.48067	20336.125
2170.43004	20368.825
2173.37752	20330.825
2176.32311	20364.125
2179.26681	20343.825
2182.20863	20325.225
2185.14856	20321.625
2188.08661	20288.625
2191.02278	20295.025
2193.95707	20279.525
2196.88948	20290.925
2199.82001	20312.825
2202.74867	20236.625
2205.67545	20241.125
2208.60037	20187.625
2211.52341	20208.925
2214.44458	20165.825
2217.36388	20090.525
2220.28132	20068.925
2223.1969	20049.625
2226.11061	20040.325
2229.02246	19990.525
2231.93245	19970.525
2234.84058	19883.225
2237.74686	19910.925
2240.65128	19882.725
2243.55385	19842.325
2246.45456	19845.525
2249.35343	19825.925
2252.25044	19770.125
2255.14561	19734.725
2258.03893	19747.225
2260.93041	19675.425
2263.82004	19680.225
2266.70783	19574.025
2269.59378	19546.125
2272.4779	19494.825
2275.36017	19487.925
2278.24061	19442.325
2281.11922	19403.925
2283.996	19376.525
2286.87094	19359.025
2289.74405	19357.525
2292.61534	19268.225
2295.4848	19258.325
2298.35243	19296.225
2301.21824	19260.025
2304.08223	19253.625
2306.94439	19251.525
2309.80474	19216.125
2312.66327	19244.225
2315.51999	19217.425
2318.37489	19175.325
2321.22797	19118.225
2324.07925	19165.925
2326.92871	19104.725
2329.77637	19063.625
2332.62222	19052.425
2335.46626	19017.725
2338.3085	18997.325
2341.14893	18979.325
2343.98756	18972.125
2346.8244	18944.425
2349.65943	18931.925
2352.49267	18905.325
2355.32411	18914.025
2358.15376	18918.725
2360.98161	18901.825
2363.80768	18883.425
2366.63195	18872.925
2369.45444	18843.625
2372.27514	18830.225
2375.09405	18845.125
2377.91118	18775.025
2380.72652	18733.625
2383.54009	18688.125
2386.35187	18668.325
2389.16188	18648.525
2391.97011	18598.725
2394.77657	18583.025
2397.58125	18574.525
2400.38416	18538.025
2403.18529	18474.725
2405.98466	18441.925
2408.78226	18445.125
2411.57809	18437.825
2414.37216	18402.325
2417.16446	18406.325
2419.955	18377.425
2422.74378	18347.825
2425.5308	18324.525
2428.31606	18331.425
2431.09956	18302.625
2433.88131	18276.025
2436.6613	18261.325
2439.43954	18246.325
2442.21603	18252.625
2444.99077	18196.925
2447.76377	18214.425
2450.53501	18220.225
2453.30451	18233.425
2456.07226	18195.125
2458.83827	18165.625
2461.60254	18143.925
2464.36507	18129.325
2467.12586	18164.025
2469.88492	18147.025
2472.64224	18117.125
2475.39782	18125.125
2478.15167	18098.225
2480.90379	18029.125
2483.65417	18052.125
2486.40283	18063.825
2489.14976	18061.025
2491.89497	18025.825
2494.63845	18048.825
2497.3802	18028.025
2500.12024	17977.225
2502.85855	17986.125
2505.59514	17974.125
2508.33002	17917.425
2511.06318	17915.525
2513.79462	17900.525
2516.52435	17912.025
2519.25237	17883.525
2521.97867	17849.625
2524.70327	17825.725
2527.42616	17808.125
2530.14734	17817.525
2532.86681	17803.725
2535.58458	17787.025
2538.30065	17761.425
2541.01501	17749.125
2543.72768	17695.825
2546.43864	17686.725
2549.14791	17643.625
2551.85548	17617.725
2554.56136	17610.025
2557.26554	17569.525
2559.96803	17573.125
2562.66883	17541.625
2565.36794	17477.325
2568.06536	17524.325
2570.7611	17472.225
2573.45514	17452.225
2576.14751	17431.425
2578.83819	17391.325
2581.52719	17374.525
2584.21451	17346.125
2586.90015	17323.425
2589.58411	17308.925
2592.2664	17274.725
2594.94701	17225.325
2597.62594	17214.125
2600.30321	17170.125
2602.9788	17170.725
2605.65273	17148.825
2608.32498	17150.625
2610.99557	17103.625
2613.66449	17097.925
2616.33175	17039.925
2618.99734	17021.525
2621.66128	17017.425
2624.32355	17016.825
2626.98416	16968.825
2629.64311	16993.025
2632.30041	16986.025
2634.95605	16929.325
2637.61004	16921.625
2640.26238	16890.925
2642.91306	16870.425
2645.56209	16880.125
2648.20948	16857.425
2650.85521	16873.725
2653.4993	16864.025
2656.14175	16809.425
2658.78255	16860.525
2661.42171	16864.225
2664.05923	16870.525
2666.6951	16865.225
2669.32934	16884.325
2671.96194	16854.725
2674.59291	16864.625
2677.22224	16806.925
2679.84993	16868.225
2682.476	16838.225
2685.10043	16853.625
2687.72324	16802.125
2690.34441	16818.725
2692.96396	16801.325
2695.58188	16849.525
2698.19818	16785.425
2700.81285	16835.425
2703.4259	16821.625
2706.03733	16834.025
2708.64714	16835.325
2711.25533	16832.925
2713.86191	16857.925
2716.46687	16876.425
2719.07021	16828.125
2721.67194	16823.125
2724.27206	16812.325
2726.87057	16796.725
2729.46747	16836.025
2732.06276	16838.825
2734.65644	16834.825
2737.24852	16816.925
2739.83899	16789.325
2742.42786	16823.125
2745.01513	16755.825
2747.60079	16768.825
2750.18486	16732.225
2752.76733	16747.625
2755.3482	16728.925
2757.92747	16707.825
2760.50515	16673.125
2763.08123	16663.425
2765.65573	16628.825
2768.22863	16627.825
2770.79994	16602.125
2773.36967	16611.725
2775.9378	16559.725
2778.50435	16512.525
2781.06932	16513.625
2783.6327	16503.925
2786.1945	16482.625
2788.75471	16450.825
2791.31335	16431.025
2793.87041	16409.925
2796.42589	16326.725
2798.97979	16316.325
2801.53212	16286.225
2804.08288	16249.525
2806.63206	16235.325
2809.17967	16191.125
2811.72571	16161.925
2814.27018	16179.325
2816.81308	16143.525
2819.35442	16114.525
2821.89419	16062.725
2824.43239	16058.025
2826.96904	16050.925
2829.50412	16025.325
2832.03763	15971.125
2834.56959	15975.925
2837.1	15956.725
2839.62884	15960.825
2842.15613	15896.525
2844.68186	15912.525
2847.20604	15903.525
2849.72867	15924.525
2852.24974	15909.325
2854.76927	15909.825
2857.28724	15820.625
2859.80367	15813.325
2862.31855	15768.325
2864.83189	15766.825
2867.34368	15754.625
2869.85393	15771.825
2872.36264	15728.925
2874.8698	15757.725
2877.37543	15750.525
2879.87952	15758.025
2882.38207	15748.025
2884.88308	15759.925
2887.38256	15751.025
2889.88051	15731.725
2892.37692	15734.425
2894.8718	15696.925
2897.36515	15737.625
2899.85698	15737.025
2902.34727	15787.925
2904.83604	15775.025
2907.32328	15755.825
2909.809	15745.725
2912.29319	15767.025
2914.77587	15747.025
2917.25702	15775.225
2919.73665	15732.225
2922.21476	15703.325
2924.69136	15694.625
2927.16644	15733.025
2929.64	15705.625
2932.11205	15667.025
2934.58258	15644.025
2937.05161	15672.125
2939.51912	15624.925
2941.98513	15605.325
2944.44962	15605.225
2946.91261	15528.325
2949.37409	15587.825
2951.83407	15582.125
2954.29254	15573.225
2956.74951	15545.125
2959.20498	15511.325
2961.65895	15507.125
2964.11142	15529.825
2966.56239	15480.125
2969.01186	15464.425
2971.45984	15433.325
2973.90632	15425.725
2976.35131	15389.425
2978.7948	15388.125
2981.23681	15305.825
2983.67732	15311.725
2986.11635	15292.625
2988.55388	15265.125
2990.98993	15251.225
2993.4245	15210.425
2995.85758	15181.725
2998.28917	15119.125
3000.71928	15124.025
3003.14791	15088.925
3005.57506	15068.725
3008.00073	15057.725
3010.42493	15022.725
3012.84764	15022.125
3015.26888	15006.825
3017.68865	14973.925
3020.10694	14957.825
3022.52376	14932.525
3024.9391	14900.925
3027.35298	14883.525
3029.76539	14887.925
3032.17632	14824.325
3034.5858	14811.725
3036.9938	14792.925
3039.40034	14767.625
3041.80542	14759.925
3044.20903	14738.825
3046.61118	14708.825
3049.01187	14687.025
3051.4111	14670.225
3053.80888	14653.125
3056.20519	14625.225
3058.60005	14584.725
3060.99345	14589.125
3063.3854	14563.325
3065.7759	14513.525
3068.16494	14501.425
3070.55254	14452.425
3072.93868	14425.725
3075.32338	14403.325
3077.70662	14379.425
3080.08842	14361.925
3082.46878	14337.125
3084.84769	14313.425
3087.22515	14313.025
3089.60118	14318.525
3091.97576	14272.325
3094.3489	14286.025
3096.72061	14264.925
3099.09087	14295.925
3101.4597	14243.025
3103.82709	14241.725
3106.19305	14224.325
3108.55757	14215.125
3110.92066	14164.125
3113.28232	14187.325
3115.64255	14131.625
3118.00134	14075.525
3120.35871	14081.625
3122.71466	14026.925
3125.06917	14005.125
3127.42226	13976.725
3129.77393	13985.925
3132.12417	13969.425
3134.47299	13993.825
3136.82039	13976.525
3139.16636	13947.425
3141.51092	13965.525
3143.85406	13993.225
3146.19579	13979.425
3148.53609	13985.725
3150.87499	13995.625
3153.21246	13986.525
3155.54853	13997.725
3157.88318	13968.125
3160.21642	13974.525
3162.54826	13950.425
3164.87868	13946.625
3167.2077	13910.025
3169.5353	13941.025
3171.86151	13930.825
3174.18631	13910.325
3176.5097	13871.225
3178.83169	13861.725
3181.15228	13862.025
3183.47147	13835.425
3185.78926	13802.625
3188.10565	13815.925
3190.42065	13791.125
3192.73424	13818.825
3195.04645	13785.125
3197.35725	13765.025
3199.66667	13760.425
3201.97469	13790.225
3204.28132	13772.925
3206.58656	13798.825
3208.8904	13779.225
3211.19287	13766.425
3213.49394	13794.525
3215.79363	13773.825
3218.09193	13769.925
3220.38884	13740.925
3222.68438	13758.025
3224.97853	13714.225
3227.2713	13726.325
3229.56269	13683.625
3231.8527	13691.325
3234.14133	13638.025
3236.42858	13595.625
3238.71446	13619.025
3240.99896	13597.125
3243.28209	13607.825
3245.56384	13596.025
3247.84423	13588.625
3250.12324	13564.725
3252.40088	13566.825
3254.67715	13534.525
3256.95205	13535.125
3259.22558	13530.225
3261.49775	13466.025
3263.76855	13488.025
3266.03799	13455.825
3268.30606	13453.325
3270.57277	13400.725
3272.83812	13386.025
3275.10211	13360.125
3277.36474	13348.025
3279.62601	13325.425
3281.88593	13348.525
3284.14448	13323.025
3286.40168	13299.425
3288.65753	13304.625
3290.91202	13228.625
3293.16516	13192.625
3295.41695	13188.425
3297.66738	13106.825
3299.91647	13043.425
3302.16421	12947.025
3304.4106	12927.525
3306.65564	12869.225
3308.89933	12788.225
3311.14169	12715.125
3313.38269	12611.325
3315.62236	12563.025
3317.86068	12435.725
3320.09766	12298.525
3322.3333	12222.325
3324.5676	12206.925
3326.80056	12029.125
3329.03219	11973.025
3331.26248	3.625
3333.49143	0.525
3335.71905	-0.675
