Data from AgNPs_FTO_APTES_UA_10uM_R6G_10uM_NaF_0.1M_Addition_RamanShift__22__13-35-37-325.txt Node

Date: Fri Dec 17 13:35:37 GMT 2021
User: TCL
Spectrometer: QEP01345
Trigger mode: 4
Integration Time (sec): 7.000000E0
Scans to average: 10
Electric dark correction enabled: true
Nonlinearity correction enabled: false
Boxcar width: 0
XAxis mode: Raman Shifts
Number of Pixels in Spectrum: 1044
>>>>>Begin Spectral Data<<<<<
46.04893	-1
50.45542	-0.2
54.85868	-0.4
59.25871	-0.6
63.6555	84.3
68.04907	85.2
72.43941	90.1
76.82654	98.7
81.21044	97.2
85.59113	107
89.96862	103.4
94.34289	111.8
98.71396	113.7
103.08183	115
107.4465	118.2
111.80798	118.5
116.16626	124
120.52136	126.4
124.87327	134.2
129.222	142.2
133.56755	151.1
137.90993	162.6
142.24913	179.7
146.58517	201.5
150.91804	228.9
155.24774	269.7
159.57429	334.7
163.89768	430
168.21792	570.8
172.53501	779.6
176.84895	1079
181.15975	1518.7
185.46741	2123.7
189.77193	2928.9
194.07331	3912.4
198.37157	5046.9
202.6667	6254.2
206.9587	7420.4
211.24758	8598.9
215.53334	9744.3
219.81599	10999.6
224.09553	12378.7
228.37195	13933.1
232.64527	15674.4
236.91549	17488.3
241.18261	19305.6
245.44663	20957.8
249.70755	22372.1
253.96539	23588.4
258.22014	24601.8
262.4718	25507.2
266.72039	26190.8
270.96589	26541.9
275.20832	26596.5
279.44768	26367.4
283.68397	26042.3
287.91719	25715.2
292.14735	25605.8
296.37445	25689.2
300.59849	25906.5
304.81948	26278.8
309.03742	26374
313.25231	26144.7
317.46415	25457.9
321.67296	24506.7
325.87872	23679.4
330.08145	23354.1
334.28114	23368
338.47781	23636.4
342.67145	24022.1
346.86207	24600.8
351.04966	25377.9
355.23424	26231
359.4158	26911.2
363.59435	27473.5
367.76989	27735.7
371.94243	28003.5
376.11196	28112.3
380.27849	28198.7
384.44203	28293.6
388.60257	28332.4
392.76012	28427.2
396.91468	28721.3
401.06626	29221.7
405.21485	29598.2
409.36047	29389.5
413.50311	28708.4
417.64277	28059.3
421.77947	27768.9
425.9132	27734.5
430.04396	27800.9
434.17176	27933
438.2966	28214
442.41849	28661
446.53742	29342.3
450.6534	30023.6
454.76644	30602.5
458.87653	30884
462.98368	30784.5
467.08789	30440.2
471.18916	29953
475.2875	29394.3
479.38291	28980.2
483.4754	28601.3
487.56496	28312.8
491.6516	28106.8
495.73531	27924.1
499.81612	27867.5
503.89401	28019.6
507.96899	28247.5
512.04106	28363.5
516.11023	28596.3
520.1765	28664.5
524.23987	28664.6
528.30034	28348.2
532.35792	28096.1
536.41261	27714.9
540.46441	27364.8
544.51333	27204.1
548.55936	27362.5
552.60252	27791.4
556.64279	28176.1
560.6802	28477.1
564.71473	28493.2
568.7464	28865.5
572.7752	29295.7
576.80114	29314.5
580.82422	29306.4
584.84444	29473.7
588.86181	29656
592.87633	29898.8
596.888	30212.4
600.89682	30810.8
604.9028	32678.3
608.90594	37266.8
612.90624	42573.9
616.90371	40890.7
620.89834	33109.4
624.89015	29501.8
628.87913	28851
632.86528	28843.8
636.84862	28864.8
640.82913	28542.6
644.80683	27796.3
648.78172	27170.5
652.75379	27111.7
656.72306	27546.8
660.68952	28189.1
664.65319	28138.9
668.61405	27448.3
672.57211	27230.4
676.52738	27196.9
680.47986	27286.2
684.42955	27173
688.37646	27109.6
692.32058	27178.7
696.26192	27365.9
700.20048	27607.3
704.13626	27735
708.06928	27603.4
711.99952	27363.5
715.927	27257.5
719.85171	27295.7
723.77365	27252.2
727.69284	27105.4
731.60928	26885.2
735.52295	26874
739.43388	26947.1
743.34206	27082.3
747.24749	27197.3
751.15017	27337.7
755.05012	27702.8
758.94733	28482.7
762.8418	29988
766.73354	32608.7
770.62254	35533
774.50882	36910
778.39237	35524.4
782.27321	32506
786.15132	29798.8
790.02671	28239.4
793.89938	27519.3
797.76935	27224.4
801.6366	27068.3
805.50115	26980.6
809.36299	26844.6
813.22213	26732.3
817.07857	26581.9
820.93231	26569.9
824.78336	26527.8
828.63172	26653.9
832.47738	26660.9
836.32036	26693
840.16066	26799.9
843.99827	26865.7
847.8332	26806.3
851.66546	26672.3
855.49504	26593.5
859.32195	26635.5
863.1462	26522.5
866.96777	26424.2
870.78668	26410
874.60293	26444.9
878.41652	26432.3
882.22745	26524.6
886.03573	26657.6
889.84136	26649.8
893.64433	26524.9
897.44466	26388.9
901.24235	26301.1
905.0374	26210.7
908.8298	26161.4
912.61957	26176.2
916.40671	26355.7
920.19121	26585.2
923.97308	26911.5
927.75233	27142.2
931.52895	27232.4
935.30295	26988.5
939.07433	26525.7
942.84309	26170.3
946.60924	25982.1
950.37278	25818.8
954.13371	25641.1
957.89203	25485.5
961.64774	25388.5
965.40086	25282.8
969.15137	25153.7
972.89929	25141.5
976.64461	25118
980.38733	25151.5
984.12747	25258.4
987.86502	25502.5
991.59999	25830
995.33237	26374.2
999.06217	27160.5
1002.78939	28136.8
1006.51404	28763.1
1010.23611	29145.9
1013.95561	29425.9
1017.67255	29418.5
1021.38692	29196.4
1025.09872	29048.9
1028.80796	29341.5
1032.51465	30257
1036.21877	31065.5
1039.92035	31163.2
1043.61937	30676.9
1047.31584	29744.8
1051.00976	28756.9
1054.70114	28164.4
1058.38998	27953.1
1062.07627	27990.5
1065.76003	28127.6
1069.44126	28253.3
1073.11995	28534.8
1076.79611	28861.4
1080.46974	29003.3
1084.14085	29239
1087.80943	29503.2
1091.47549	29607.1
1095.13903	29321.8
1098.80005	28780.9
1102.45857	28278.5
1106.11456	28009
1109.76805	28051.4
1113.41903	28334.1
1117.06751	28701
1120.71348	29168.8
1124.35696	29579.3
1127.99793	30053.1
1131.63641	30317.5
1135.2724	29921.9
1138.90589	29338
1142.5369	28954.8
1146.16542	28602.6
1149.79145	28386.2
1153.415	28396.5
1157.03607	28550.8
1160.65467	29044.7
1164.27079	29874.3
1167.88443	31140.6
1171.49561	32843.7
1175.10432	35337.3
1178.71056	38730.8
1182.31434	41960.5
1185.91565	43758.7
1189.51451	43775.7
1193.11091	42189.8
1196.70485	39814.6
1200.29634	37655.4
1203.88538	36052
1207.47197	34634.6
1211.05612	33547.2
1214.63782	32896.9
1218.21708	32752.8
1221.79391	32940.9
1225.36829	33134.7
1228.94024	33105.4
1232.50976	32952.3
1236.07685	32763.4
1239.6415	32644.9
1243.20374	32583.7
1246.76355	32692.7
1250.32093	33038.2
1253.8759	33753.6
1257.42845	34670.6
1260.97859	35554.9
1264.52631	36359.2
1268.07163	37231.4
1271.61453	38286.6
1275.15503	39365.8
1278.69312	40474.9
1282.22882	41202.9
1285.76211	41766
1289.29301	42380.9
1292.82151	43114.6
1296.34761	44178.6
1299.87133	45855.5
1303.39266	48403.1
1306.9116	51807.9
1310.42815	55561
1313.94233	57870.3
1317.45412	57772.8
1320.96354	55968.7
1324.47058	53787
1327.97525	51711.3
1331.47754	50218
1334.97747	49598.2
1338.47502	49874.6
1341.97022	50441.8
1345.46305	50799.2
1348.95352	51117.4
1352.44163	51832
1355.92738	53753.6
1359.41078	57305.3
1362.89183	61108.2
1366.37053	60250.1
1369.84688	54158
1373.32088	47366.8
1376.79254	42879.1
1380.26186	40682.2
1383.72883	39682.8
1387.19347	38954.4
1390.65578	38182.3
1394.11575	37750.1
1397.57339	37836.1
1401.0287	38251.4
1404.48168	38880.9
1407.93234	39518.7
1411.38068	39973.7
1414.82669	39960.3
1418.27039	39302
1421.71177	38338.1
1425.15083	37535.6
1428.58758	37022.4
1432.02203	36899.2
1435.45416	37110.5
1438.88399	37534
1442.31151	37803.6
1445.73673	38106.9
1449.15965	38377.9
1452.58027	38554.2
1455.9986	38497.6
1459.41463	38609.5
1462.82837	39020.6
1466.23982	39714.3
1469.64898	40551.8
1473.05586	41075.8
1476.46045	41339.3
1479.86276	41407.7
1483.26279	41628.3
1486.66054	41945.2
1490.05602	42515.7
1493.44922	43279
1496.84016	44164.4
1500.22882	45493.3
1503.61521	47548.5
1506.99934	50177.3
1510.38121	52709.6
1513.76081	53629.5
1517.13816	52035
1520.51324	48595.1
1523.88607	45126.9
1527.25665	42697.9
1530.62498	41216
1533.99105	40317.5
1537.35488	39836.5
1540.71647	39507.6
1544.07581	39202.8
1547.4329	39053.4
1550.78776	38970.7
1554.14038	38904.8
1557.49077	39124.5
1560.83892	39284.2
1564.18484	39418.1
1567.52853	39513.8
1570.86999	39625
1574.20922	39908.9
1577.54624	40067.1
1580.88103	39672.7
1584.2136	39127.3
1587.54395	39253.8
1590.87208	40366.4
1594.19801	42485.2
1597.52172	44896.8
1600.84321	45990.9
1604.16251	44756.1
1607.47959	42110.6
1610.79447	39196
1614.10715	36405.5
1617.41763	34115
1620.7259	32574.6
1624.03199	31830.3
1627.33587	31922.1
1630.63757	32771.1
1633.93707	34264.6
1637.23439	36472.4
1640.52951	39172.4
1643.82246	41980.8
1647.11321	44287.7
1650.40179	45076.3
1653.68819	43107.6
1656.97241	38839.6
1660.25446	34207.4
1663.53433	30899.5
1666.81203	28783
1670.08756	27449.4
1673.36092	26628.7
1676.63211	26060.7
1679.90115	25648.4
1683.16801	25381.6
1686.43272	25098.8
1689.69527	24981.5
1692.95567	24814.9
1696.2139	24769
1699.46999	24707.6
1702.72392	24635.3
1705.97571	24616.5
1709.22535	24556.3
1712.47284	24527
1715.71819	24520.5
1718.96139	24450.1
1722.20246	24416.5
1725.44139	24322.5
1728.67818	24198.9
1731.91284	24073
1735.14537	23948.1
1738.37576	23877.5
1741.60403	23814.2
1744.83017	23781.4
1748.05418	23698.1
1751.27607	23680.3
1754.49584	23597.8
1757.71349	23642.5
1760.92903	23608
1764.14244	23640
1767.35375	23647.9
1770.56294	23584.2
1773.77002	23571.3
1776.97499	23537.6
1780.17785	23470.1
1783.37861	23474.5
1786.57727	23417.2
1789.77382	23400.1
1792.96828	23404.7
1796.16064	23382.5
1799.3509	23293.3
1802.53907	23317.4
1805.72514	23247.7
1808.90913	23205.8
1812.09102	23184.3
1815.27083	23182.5
1818.44856	23104.9
1821.6242	23091.1
1824.79776	23055.2
1827.96924	23087.7
1831.13864	23070.4
1834.30597	23074.9
1837.47122	23089.5
1840.6344	23109.8
1843.7955	23114.5
1846.95454	23118.1
1850.11151	23118
1853.26642	23090.5
1856.41926	23125.4
1859.57004	23115.2
1862.71876	23144.8
1865.86542	23122.5
1869.01003	23138.8
1872.15258	23169.7
1875.29308	23175
1878.43152	23166
1881.56792	23197.6
1884.70227	23217.2
1887.83457	23213.4
1890.96482	23207.6
1894.09304	23227.3
1897.21921	23201.2
1900.34335	23232.9
1903.46544	23228.6
1906.58551	23246.8
1909.70353	23222.2
1912.81953	23190.3
1915.93349	23153.5
1919.04543	23103.1
1922.15534	23047.4
1925.26322	23026.2
1928.36908	22950.3
1931.47292	22873.8
1934.57473	22800.4
1937.67453	22721.6
1940.77232	22643.8
1943.86808	22539.7
1946.96184	22491.1
1950.05358	22413.4
1953.14331	22307.6
1956.23103	22274.9
1959.31675	22178.6
1962.40046	22078.5
1965.48217	22056.8
1968.56188	22028.5
1971.63959	21940.1
1974.7153	21849.3
1977.78901	21835.7
1980.86073	21744.6
1983.93046	21681.7
1986.99819	21598.1
1990.06394	21541.4
1993.1277	21487.2
1996.18947	21398.8
1999.24925	21354
2002.30706	21270.5
2005.36288	21243.2
2008.41672	21193.2
2011.46859	21183.9
2014.51848	21123
2017.56639	21072
2020.61233	21023
2023.6563	20967.9
2026.6983	20947.5
2029.73833	20910.6
2032.7764	20882.6
2035.8125	20804.7
2038.84664	20848.1
2041.87881	20768.3
2044.90903	20757.5
2047.93729	20713.4
2050.96359	20711.7
2053.98794	20685.6
2057.01034	20667.3
2060.03078	20635.2
2063.04927	20612.9
2066.06582	20603.9
2069.08042	20575.3
2072.09307	20607.5
2075.10378	20540.5
2078.11255	20594.5
2081.11938	20538.9
2084.12426	20521.9
2087.12722	20509.3
2090.12824	20518.5
2093.12732	20527.5
2096.12447	20511
2099.11969	20514.1
2102.11299	20520.3
2105.10435	20531.2
2108.09379	20565.4
2111.08131	20568.8
2114.0669	20553.4
2117.05057	20587.6
2120.03233	20606.3
2123.01216	20651.3
2125.99008	20693
2128.96609	20655.7
2131.94018	20664
2134.91236	20726.1
2137.88263	20739.6
2140.851	20758.1
2143.81746	20762.9
2146.78201	20748.3
2149.74466	20798.5
2152.7054	20774
2155.66425	20772.8
2158.6212	20758.1
2161.57625	20780.8
2164.52941	20752.2
2167.48067	20774.3
2170.43004	20765.3
2173.37752	20754.2
2176.32311	20779
2179.26681	20785.5
2182.20863	20751.1
2185.14856	20789.2
2188.08661	20798.7
2191.02278	20784.1
2193.95707	20792.8
2196.88948	20788
2199.82001	20799.5
2202.74867	20793.4
2205.67545	20816.8
2208.60037	20793.3
2211.52341	20764.7
2214.44458	20743.8
2217.36388	20741.1
2220.28132	20707.5
2223.1969	20659.7
2226.11061	20640.4
2229.02246	20612
2231.93245	20565.9
2234.84058	20517.6
2237.74686	20492.2
2240.65128	20488.3
2243.55385	20441.4
2246.45456	20411.6
2249.35343	20424.3
2252.25044	20393.4
2255.14561	20343.8
2258.03893	20327.4
2260.93041	20323.9
2263.82004	20292.7
2266.70783	20265.1
2269.59378	20174.8
2272.4779	20162.5
2275.36017	20119
2278.24061	20099.3
2281.11922	20029.5
2283.996	20006.1
2286.87094	19986.3
2289.74405	19965.2
2292.61534	19990
2295.4848	19945.7
2298.35243	19938.6
2301.21824	19951.9
2304.08223	19962.7
2306.94439	19980.9
2309.80474	19985.6
2312.66327	20037.2
2315.51999	20017
2318.37489	20048.2
2321.22797	19981
2324.07925	20024.2
2326.92871	19963.2
2329.77637	19957
2332.62222	19925.1
2335.46626	19918.2
2338.3085	19929
2341.14893	19953
2343.98756	19934.1
2346.8244	19966.9
2349.65943	19982.1
2352.49267	19970
2355.32411	19973.6
2358.15376	19941.5
2360.98161	19941.2
2363.80768	19893.3
2366.63195	19891
2369.45444	19844.3
2372.27514	19806.3
2375.09405	19803.8
2377.91118	19737.7
2380.72652	19645.9
2383.54009	19625.4
2386.35187	19594.4
2389.16188	19569.7
2391.97011	19538.8
2394.77657	19495.2
2397.58125	19496
2400.38416	19472.7
2403.18529	19443
2405.98466	19380.7
2408.78226	19347.1
2411.57809	19344.7
2414.37216	19277
2417.16446	19286.3
2419.955	19259
2422.74378	19217.1
2425.5308	19229.9
2428.31606	19211
2431.09956	19164.2
2433.88131	19166
2436.6613	19171.5
2439.43954	19180.6
2442.21603	19170.7
2444.99077	19161.6
2447.76377	19153.3
2450.53501	19125.9
2453.30451	19138.7
2456.07226	19091.1
2458.83827	19120.9
2461.60254	19118.4
2464.36507	19118.2
2467.12586	19095
2469.88492	19093.5
2472.64224	19121.4
2475.39782	19151.8
2478.15167	19137.9
2480.90379	19120.4
2483.65417	19169.1
2486.40283	19203.3
2489.14976	19194.2
2491.89497	19168.8
2494.63845	19225.1
2497.3802	19170.8
2500.12024	19188.9
2502.85855	19158
2505.59514	19197.2
2508.33002	19155.3
2511.06318	19108.6
2513.79462	19068.5
2516.52435	19063.4
2519.25237	19039.5
2521.97867	19024.8
2524.70327	19017.5
2527.42616	18974.4
2530.14734	18990.6
2532.86681	18952.8
2535.58458	18940.8
2538.30065	18936.9
2541.01501	18944.5
2543.72768	18938.3
2546.43864	18944.7
2549.14791	18926.7
2551.85548	18877.6
2554.56136	18844.6
2557.26554	18854.6
2559.96803	18802.2
2562.66883	18830.7
2565.36794	18808.3
2568.06536	18841.9
2570.7611	18790
2573.45514	18761.7
2576.14751	18756.9
2578.83819	18737.4
2581.52719	18739.9
2584.21451	18739.6
2586.90015	18744.7
2589.58411	18723.6
2592.2664	18722.7
2594.94701	18682.8
2597.62594	18698.9
2600.30321	18652.9
2602.9788	18626.8
2605.65273	18648.5
2608.32498	18605.3
2610.99557	18619.3
2613.66449	18656.4
2616.33175	18613.2
2618.99734	18619.6
2621.66128	18633.7
2624.32355	18643.4
2626.98416	18625.2
2629.64311	18630.7
2632.30041	18648.8
2634.95605	18594.2
2637.61004	18568.4
2640.26238	18567.5
2642.91306	18541.6
2645.56209	18571.1
2648.20948	18514
2650.85521	18497.8
2653.4993	18494.3
2656.14175	18483.2
2658.78255	18473.9
2661.42171	18508.2
2664.05923	18508.7
2666.6951	18498.3
2669.32934	18548.3
2671.96194	18544.6
2674.59291	18546.6
2677.22224	18512.5
2679.84993	18573.1
2682.476	18537.4
2685.10043	18533.3
2687.72324	18540
2690.34441	18479.8
2692.96396	18492.4
2695.58188	18485.3
2698.19818	18470.1
2700.81285	18478.3
2703.4259	18471.2
2706.03733	18527.9
2708.64714	18553
2711.25533	18534.9
2713.86191	18487
2716.46687	18549.6
2719.07021	18509.1
2721.67194	18518.5
2724.27206	18487.3
2726.87057	18543.8
2729.46747	18528.3
2732.06276	18548.4
2734.65644	18540.2
2737.24852	18528.5
2739.83899	18524.1
2742.42786	18532.3
2745.01513	18492.3
2747.60079	18501.2
2750.18486	18505.2
2752.76733	18499.9
2755.3482	18476.9
2757.92747	18495.2
2760.50515	18449.5
2763.08123	18468.4
2765.65573	18438
2768.22863	18398.1
2770.79994	18424.6
2773.36967	18411.8
2775.9378	18405.9
2778.50435	18382.5
2781.06932	18330.1
2783.6327	18356.7
2786.1945	18355.8
2788.75471	18357.6
2791.31335	18306.2
2793.87041	18297.6
2796.42589	18216.5
2798.97979	18209.9
2801.53212	18156.6
2804.08288	18154.5
2806.63206	18106
2809.17967	18116.7
2811.72571	18086.8
2814.27018	18150.3
2816.81308	18099
2819.35442	18049
2821.89419	18024.8
2824.43239	18001.5
2826.96904	18029.3
2829.50412	18017.1
2832.03763	17996.7
2834.56959	18004.1
2837.1	17961
2839.62884	17961.2
2842.15613	17971
2844.68186	17985.9
2847.20604	17992.5
2849.72867	18013.5
2852.24974	17992.7
2854.76927	17970.1
2857.28724	17946
2859.80367	17887.4
2862.31855	17887.7
2864.83189	17895.6
2867.34368	17880.7
2869.85393	17879
2872.36264	17889.5
2874.8698	17876.3
2877.37543	17910.3
2879.87952	17888.1
2882.38207	17899.9
2884.88308	17906.7
2887.38256	17885.2
2889.88051	17902.9
2892.37692	17916
2894.8718	17892.8
2897.36515	17965.6
2899.85698	17946.8
2902.34727	17971.4
2904.83604	17992.7
2907.32328	18012.7
2909.809	17973
2912.29319	18025.1
2914.77587	18010.9
2917.25702	17999.5
2919.73665	18000.2
2922.21476	17981.8
2924.69136	17934.9
2927.16644	17948.2
2929.64	17934.2
2932.11205	17879.4
2934.58258	17841.2
2937.05161	17893.4
2939.51912	17846.8
2941.98513	17845.4
2944.44962	17824
2946.91261	17764.7
2949.37409	17792.3
2951.83407	17811.5
2954.29254	17766.8
2956.74951	17725.7
2959.20498	17708.6
2961.65895	17699.3
2964.11142	17691
2966.56239	17644
2969.01186	17665.5
2971.45984	17580.1
2973.90632	17578.9
2976.35131	17502.7
2978.7948	17489.7
2981.23681	17446.4
2983.67732	17423.2
2986.11635	17366
2988.55388	17317.7
2990.98993	17282.6
2993.4245	17292.1
2995.85758	17279.8
2998.28917	17202.7
3000.71928	17224.5
3003.14791	17149.8
3005.57506	17147.8
3008.00073	17133.3
3010.42493	17123
3012.84764	17059.6
3015.26888	17077.7
3017.68865	17049.3
3020.10694	17030.2
3022.52376	17005.1
3024.9391	16956
3027.35298	16975.2
3029.76539	16895.2
3032.17632	16896.5
3034.5858	16857.3
3036.9938	16849
3039.40034	16843.8
3041.80542	16815.7
3044.20903	16786
3046.61118	16779.2
3049.01187	16729.6
3051.4111	16718.1
3053.80888	16661.6
3056.20519	16659.3
3058.60005	16584.4
3060.99345	16596.9
3063.3854	16597.9
3065.7759	16510.1
3068.16494	16496.4
3070.55254	16419.4
3072.93868	16411.9
3075.32338	16367.2
3077.70662	16344.6
3080.08842	16320.7
3082.46878	16301.3
3084.84769	16307.1
3087.22515	16262
3089.60118	16243
3091.97576	16243.5
3094.3489	16255.7
3096.72061	16213.8
3099.09087	16231.3
3101.4597	16193.4
3103.82709	16226.3
3106.19305	16186.8
3108.55757	16201.1
3110.92066	16129.2
3113.28232	16108.7
3115.64255	16107.7
3118.00134	16006.8
3120.35871	16010.7
3122.71466	15987.4
3125.06917	15956.3
3127.42226	15942.5
3129.77393	15928.8
3132.12417	15940.6
3134.47299	15931.9
3136.82039	15925
3139.16636	15927.5
3141.51092	15935.5
3143.85406	15925.1
3146.19579	15921.8
3148.53609	15925.4
3150.87499	15928.3
3153.21246	15931.6
3155.54853	15956.4
3157.88318	15899.2
3160.21642	15952.4
3162.54826	15920.5
3164.87868	15925.7
3167.2077	15896.8
3169.5353	15898.8
3171.86151	15868.7
3174.18631	15892.7
3176.5097	15862.3
3178.83169	15832.5
3181.15228	15846.6
3183.47147	15814.2
3185.78926	15770.8
3188.10565	15794.7
3190.42065	15797.3
3192.73424	15790.2
3195.04645	15782.4
3197.35725	15760.2
3199.66667	15784.4
3201.97469	15831.9
3204.28132	15820.3
3206.58656	15816.4
3208.8904	15808.3
3211.19287	15820.7
3213.49394	15830.5
3215.79363	15837.6
3218.09193	15830.9
3220.38884	15829
3222.68438	15803.4
3224.97853	15794.3
3227.2713	15767.8
3229.56269	15739.8
3231.8527	15754.8
3234.14133	15738.6
3236.42858	15685.9
3238.71446	15642.5
3240.99896	15662.8
3243.28209	15658.7
3245.56384	15669.9
3247.84423	15652.2
3250.12324	15634.6
3252.40088	15645.2
3254.67715	15618.1
3256.95205	15580
3259.22558	15560.2
3261.49775	15554.2
3263.76855	15545.5
3266.03799	15514.4
3268.30606	15481.2
3270.57277	15475.6
3272.83812	15433.7
3275.10211	15434.4
3277.36474	15415
3279.62601	15441.8
3281.88593	15406.2
3284.14448	15410.6
3286.40168	15409
3288.65753	15376.6
3290.91202	15315
3293.16516	15304.7
3295.41695	15275.6
3297.66738	15177.5
3299.91647	15110.2
3302.16421	15037.5
3304.4106	14998.4
3306.65564	14916
3308.89933	14828.6
3311.14169	14719.3
3313.38269	14635.7
3315.62236	14560.9
3317.86068	14451.5
3320.09766	14310.4
3322.3333	14203.1
3324.5676	14189.6
3326.80056	13968
3329.03219	13906.7
3331.26248	4.1
3333.49143	0.2
3335.71905	-1.3
