Data from AgNPs_FTO_APTES_UA_5uM_R6G_10uM_NaF_0.1M_Addition_RamanShift__10__12-37-17-258.txt Node

Date: Fri Dec 17 12:37:17 GMT 2021
User: TCL
Spectrometer: QEP01345
Trigger mode: 4
Integration Time (sec): 7.000000E0
Scans to average: 10
Electric dark correction enabled: true
Nonlinearity correction enabled: false
Boxcar width: 0
XAxis mode: Raman Shifts
Number of Pixels in Spectrum: 1044
>>>>>Begin Spectral Data<<<<<
46.04893	-0.875
50.45542	-0.875
54.85868	-0.275
59.25871	0.125
63.6555	110.725
68.04907	117.925
72.43941	121.125
76.82654	127.125
81.21044	130.525
85.59113	139.025
89.96862	140.025
94.34289	149.125
98.71396	156.025
103.08183	156.625
107.4465	162.925
111.80798	164.325
116.16626	170.725
120.52136	173.925
124.87327	185.525
129.222	193.525
133.56755	199.025
137.90993	214.825
142.24913	234.025
146.58517	265.025
150.91804	301.025
155.24774	356.725
159.57429	442.625
163.89768	559.625
168.21792	735.725
172.53501	999.625
176.84895	1385.025
181.15975	1930.025
185.46741	2713.825
189.77193	3719.625
194.07331	4988.125
198.37157	6442.325
202.6667	7947.425
206.9587	9479.625
211.24758	10948.225
215.53334	12385.125
219.81599	13884.425
224.09553	15584.825
228.37195	17412.625
232.64527	19486.725
236.91549	21721.425
241.18261	24011.625
245.44663	26189.725
249.70755	28189.225
253.96539	29930.825
258.22014	31381.625
262.4718	32486.325
266.72039	33276.425
270.96589	33670.925
275.20832	33705.325
279.44768	33484.425
283.68397	33140.425
287.91719	32782.425
292.14735	32488.125
296.37445	32288.425
300.59849	32167.625
304.81948	32108.025
309.03742	32116.625
313.25231	31980.525
317.46415	31740.825
321.67296	31314.525
325.87872	30923.325
330.08145	30770.225
334.28114	30757.825
338.47781	31019.725
342.67145	31395.725
346.86207	31769.525
351.04966	32194.825
355.23424	32647.525
359.4158	33100.025
363.59435	33495.825
367.76989	33777.525
371.94243	33922.625
376.11196	34056.125
380.27849	34192.025
384.44203	34410.025
388.60257	34669.825
392.76012	34972.825
396.91468	35468.625
401.06626	35962.125
405.21485	36308.025
409.36047	36340.825
413.50311	36079.925
417.64277	36058.425
421.77947	36186.525
425.9132	36473.625
430.04396	36763.825
434.17176	36845.925
438.2966	37014.925
442.41849	37238.125
446.53742	37758.525
450.6534	38368.025
454.76644	38777.125
458.87653	38974.125
462.98368	39063.025
467.08789	38914.825
471.18916	38563.325
475.2875	38111.325
479.38291	37783.525
483.4754	37517.725
487.56496	37229.525
491.6516	36998.425
495.73531	36859.225
499.81612	36775.225
503.89401	37057.425
507.96899	37326.225
512.04106	37429.125
516.11023	37368.925
520.1765	37155.725
524.23987	36872.525
528.30034	36559.425
532.35792	36318.525
536.41261	36117.825
540.46441	35886.025
544.51333	35937.425
548.55936	36206.925
552.60252	36697.525
556.64279	37115.325
560.6802	37481.825
564.71473	37633.325
568.7464	37990.725
572.7752	38635.825
576.80114	39597.025
580.82422	40678.425
584.84444	41925.325
588.86181	43188.825
592.87633	44107.525
596.888	43905.225
600.89682	42936.225
604.9028	42803.525
608.90594	44485.025
612.90624	46012.725
616.90371	43904.225
620.89834	39590.525
624.89015	37660.225
628.87913	37522.625
632.86528	37716.325
636.84862	37810.225
640.82913	37361.525
644.80683	36741.525
648.78172	36282.525
652.75379	36264.925
656.72306	36554.025
660.68952	36935.025
664.65319	36870.225
668.61405	36478.625
672.57211	36512.825
676.52738	36639.525
680.47986	36589.425
684.42955	36415.725
688.37646	36324.225
692.32058	36525.425
696.26192	36857.125
700.20048	37202.625
704.13626	37486.625
708.06928	37533.525
711.99952	37387.225
715.927	37329.825
719.85171	37321.525
723.77365	37177.825
727.69284	36784.025
731.60928	36426.225
735.52295	36233.325
739.43388	36184.925
743.34206	36289.925
747.24749	36392.825
751.15017	36683.625
755.05012	37134.925
758.94733	37779.325
762.8418	38974.825
766.73354	40671.025
770.62254	42271.625
774.50882	42562.325
778.39237	41322.825
782.27321	39665.725
786.15132	38225.825
790.02671	37306.325
793.89938	36798.425
797.76935	36551.525
801.6366	36422.325
805.50115	36343.725
809.36299	36212.625
813.22213	36035.625
817.07857	35858.025
820.93231	35697.025
824.78336	35700.325
828.63172	35638.925
832.47738	35574.725
836.32036	35576.425
840.16066	35550.925
843.99827	35509.325
847.8332	35571.925
851.66546	35602.525
855.49504	35707.725
859.32195	35729.425
863.1462	35713.125
866.96777	35717.425
870.78668	35741.725
874.60293	35753.725
878.41652	35793.025
882.22745	35909.525
886.03573	36023.625
889.84136	36100.325
893.64433	36046.425
897.44466	35935.125
901.24235	35905.525
905.0374	35825.025
908.8298	35786.325
912.61957	35866.025
916.40671	36048.725
920.19121	36363.725
923.97308	36591.025
927.75233	36556.625
931.52895	36323.625
935.30295	35983.825
939.07433	35543.025
942.84309	35238.825
946.60924	35139.925
950.37278	35061.325
954.13371	35041.525
957.89203	34975.925
961.64774	34916.025
965.40086	34905.525
969.15137	34858.525
972.89929	34777.225
976.64461	34767.425
980.38733	34749.425
984.12747	34761.225
987.86502	34842.125
991.59999	35002.825
995.33237	35192.725
999.06217	35567.325
1002.78939	36030.425
1006.51404	36631.525
1010.23611	37215.125
1013.95561	37578.425
1017.67255	37595.325
1021.38692	37248.425
1025.09872	36815.025
1028.80796	36437.825
1032.51465	36248.125
1036.21877	36204.225
1039.92035	36306.225
1043.61937	36454.925
1047.31584	36525.425
1051.00976	36589.725
1054.70114	36675.825
1058.38998	36894.425
1062.07627	37229.925
1065.76003	37707.125
1069.44126	38143.825
1073.11995	38663.425
1076.79611	39171.325
1080.46974	39425.225
1084.14085	39533.525
1087.80943	39654.525
1091.47549	39916.825
1095.13903	40001.825
1098.80005	39711.125
1102.45857	39136.125
1106.11456	38530.025
1109.76805	38122.225
1113.41903	37983.625
1117.06751	37998.225
1120.71348	38100.825
1124.35696	38278.225
1127.99793	38551.725
1131.63641	38758.525
1135.2724	38731.525
1138.90589	38705.625
1142.5369	38771.625
1146.16542	38938.525
1149.79145	39139.025
1153.415	39312.425
1157.03607	39528.325
1160.65467	40201.425
1164.27079	41296.425
1167.88443	42741.225
1171.49561	44303.725
1175.10432	46039.425
1178.71056	48159.425
1182.31434	50304.725
1185.91565	51886.025
1189.51451	52614.525
1193.11091	52477.425
1196.70485	51598.525
1200.29634	50091.525
1203.88538	48748.425
1207.47197	47969.525
1211.05612	47432.825
1214.63782	46750.725
1218.21708	45855.825
1221.79391	44888.525
1225.36829	44156.725
1228.94024	43734.225
1232.50976	43528.025
1236.07685	43463.425
1239.6415	43311.225
1243.20374	43356.825
1246.76355	43546.325
1250.32093	43982.725
1253.8759	44673.825
1257.42845	45598.825
1260.97859	46605.425
1264.52631	47590.925
1268.07163	48601.325
1271.61453	49483.525
1275.15503	50361.725
1278.69312	51271.525
1282.22882	52031.725
1285.76211	52954.825
1289.29301	53877.825
1292.82151	55179.425
1296.34761	56644.425
1299.87133	58514.325
1303.39266	60504.325
1306.9116	62390.225
1310.42815	63898.425
1313.94233	64676.725
1317.45412	64608.825
1320.96354	64219.525
1324.47058	64217.025
1327.97525	64333.225
1331.47754	64607.125
1334.97747	65088.425
1338.47502	65552.825
1341.97022	66073.225
1345.46305	66371.525
1348.95352	66286.425
1352.44163	65891.925
1355.92738	65476.025
1359.41078	65598.225
1362.89183	65552.725
1366.37053	64079.625
1369.84688	60796.825
1373.32088	56691.925
1376.79254	53418.825
1380.26186	51927.625
1383.72883	51536.825
1387.19347	51402.525
1390.65578	50958.225
1394.11575	50673.425
1397.57339	50832.025
1401.0287	51232.125
1404.48168	51704.225
1407.93234	51835.525
1411.38068	51435.525
1414.82669	50526.925
1418.27039	49233.325
1421.71177	47870.925
1425.15083	46943.625
1428.58758	46666.325
1432.02203	47004.925
1435.45416	47859.925
1438.88399	48780.625
1442.31151	49536.425
1445.73673	49792.125
1449.15965	49912.525
1452.58027	49915.225
1455.9986	49951.525
1459.41463	50315.325
1462.82837	51072.025
1466.23982	51870.325
1469.64898	52461.025
1473.05586	52756.625
1476.46045	52730.625
1479.86276	52514.625
1483.26279	52109.225
1486.66054	52018.725
1490.05602	52187.525
1493.44922	52662.225
1496.84016	53240.525
1500.22882	54147.625
1503.61521	55206.825
1506.99934	56311.325
1510.38121	56986.825
1513.76081	56960.325
1517.13816	56244.025
1520.51324	55186.925
1523.88607	54434.425
1527.25665	54129.825
1530.62498	54039.125
1533.99105	53818.225
1537.35488	53355.125
1540.71647	52542.625
1544.07581	51594.925
1547.4329	50716.025
1550.78776	49923.825
1554.14038	49368.325
1557.49077	48963.925
1560.83892	48806.025
1564.18484	48652.725
1567.52853	48668.125
1570.86999	48863.625
1574.20922	49305.425
1577.54624	49761.525
1580.88103	49992.125
1584.2136	50201.825
1587.54395	51000.025
1590.87208	52592.825
1594.19801	54595.125
1597.52172	56581.825
1600.84321	57104.425
1604.16251	55570.925
1607.47959	52887.925
1610.79447	49979.825
1614.10715	47061.325
1617.41763	44369.425
1620.7259	42426.425
1624.03199	41306.225
1627.33587	41188.525
1630.63757	41849.125
1633.93707	43670.925
1637.23439	46654.925
1640.52951	50961.425
1643.82246	55737.625
1647.11321	59001.625
1650.40179	59024.425
1653.68819	55582.925
1656.97241	50061.125
1660.25446	44827.725
1663.53433	40971.225
1666.81203	38376.925
1670.08756	36752.425
1673.36092	35666.225
1676.63211	34935.625
1679.90115	34453.425
1683.16801	34027.425
1686.43272	33745.125
1689.69527	33505.325
1692.95567	33339.325
1696.2139	33239.825
1699.46999	33130.425
1702.72392	33047.325
1705.97571	32979.125
1709.22535	32936.725
1712.47284	32873.225
1715.71819	32887.225
1718.96139	32783.725
1722.20246	32702.425
1725.44139	32620.625
1728.67818	32461.625
1731.91284	32375.025
1735.14537	32168.725
1738.37576	32059.425
1741.60403	31914.625
1744.83017	31828.825
1748.05418	31789.725
1751.27607	31787.525
1754.49584	31634.125
1757.71349	31637.925
1760.92903	31597.525
1764.14244	31560.225
1767.35375	31602.225
1770.56294	31529.625
1773.77002	31561.425
1776.97499	31455.625
1780.17785	31419.525
1783.37861	31361.825
1786.57727	31299.025
1789.77382	31232.025
1792.96828	31239.225
1796.16064	31184.125
1799.3509	31108.025
1802.53907	31085.525
1805.72514	30980.225
1808.90913	30904.625
1812.09102	30874.925
1815.27083	30809.725
1818.44856	30791.825
1821.6242	30847.025
1824.79776	30789.825
1827.96924	30738.725
1831.13864	30741.525
1834.30597	30804.625
1837.47122	30782.225
1840.6344	30798.825
1843.7955	30816.625
1846.95454	30757.625
1850.11151	30761.725
1853.26642	30736.525
1856.41926	30684.525
1859.57004	30712.225
1862.71876	30654.825
1865.86542	30648.725
1869.01003	30542.225
1872.15258	30523.525
1875.29308	30498.325
1878.43152	30419.225
1881.56792	30421.925
1884.70227	30390.725
1887.83457	30337.325
1890.96482	30274.825
1894.09304	30210.225
1897.21921	30201.825
1900.34335	30157.825
1903.46544	30139.925
1906.58551	30059.925
1909.70353	29983.625
1912.81953	29951.025
1915.93349	29891.925
1919.04543	29856.925
1922.15534	29829.325
1925.26322	29725.925
1928.36908	29715.825
1931.47292	29618.925
1934.57473	29532.325
1937.67453	29472.025
1940.77232	29375.225
1943.86808	29324.225
1946.96184	29206.125
1950.05358	29187.125
1953.14331	29087.125
1956.23103	29036.325
1959.31675	28915.625
1962.40046	28830.825
1965.48217	28790.425
1968.56188	28740.325
1971.63959	28599.125
1974.7153	28547.625
1977.78901	28413.925
1980.86073	28375.325
1983.93046	28258.925
1986.99819	28172.425
1990.06394	28162.725
1993.1277	28055.025
1996.18947	27938.625
1999.24925	27915.625
2002.30706	27796.525
2005.36288	27688.225
2008.41672	27669.425
2011.46859	27580.525
2014.51848	27498.625
2017.56639	27430.225
2020.61233	27365.725
2023.6563	27344.825
2026.6983	27221.525
2029.73833	27217.525
2032.7764	27180.625
2035.8125	27050.925
2038.84664	27030.025
2041.87881	26990.025
2044.90903	26932.925
2047.93729	26857.725
2050.96359	26843.625
2053.98794	26796.525
2057.01034	26729.125
2060.03078	26761.025
2063.04927	26711.625
2066.06582	26667.925
2069.08042	26715.025
2072.09307	26686.625
2075.10378	26670.025
2078.11255	26632.625
2081.11938	26612.925
2084.12426	26646.225
2087.12722	26614.325
2090.12824	26577.425
2093.12732	26549.925
2096.12447	26613.825
2099.11969	26631.525
2102.11299	26634.525
2105.10435	26628.225
2108.09379	26619.525
2111.08131	26644.825
2114.0669	26685.925
2117.05057	26703.025
2120.03233	26720.625
2123.01216	26730.525
2125.99008	26761.225
2128.96609	26771.125
2131.94018	26786.425
2134.91236	26782.025
2137.88263	26816.725
2140.851	26804.625
2143.81746	26834.125
2146.78201	26812.925
2149.74466	26851.225
2152.7054	26833.125
2155.66425	26816.325
2158.6212	26843.125
2161.57625	26807.325
2164.52941	26821.525
2167.48067	26785.725
2170.43004	26809.225
2173.37752	26785.125
2176.32311	26800.625
2179.26681	26754.525
2182.20863	26742.725
2185.14856	26779.325
2188.08661	26775.325
2191.02278	26767.725
2193.95707	26749.725
2196.88948	26718.125
2199.82001	26708.025
2202.74867	26650.425
2205.67545	26661.525
2208.60037	26568.825
2211.52341	26520.625
2214.44458	26513.625
2217.36388	26433.825
2220.28132	26445.525
2223.1969	26366.025
2226.11061	26329.825
2229.02246	26289.125
2231.93245	26253.825
2234.84058	26186.725
2237.74686	26152.425
2240.65128	26173.925
2243.55385	26066.025
2246.45456	26104.725
2249.35343	25999.525
2252.25044	25954.125
2255.14561	25892.725
2258.03893	25897.625
2260.93041	25858.925
2263.82004	25768.625
2266.70783	25754.725
2269.59378	25663.625
2272.4779	25623.325
2275.36017	25567.625
2278.24061	25522.425
2281.11922	25436.225
2283.996	25400.725
2286.87094	25392.525
2289.74405	25330.825
2292.61534	25317.125
2295.4848	25276.325
2298.35243	25284.025
2301.21824	25258.025
2304.08223	25216.325
2306.94439	25217.725
2309.80474	25185.625
2312.66327	25185.925
2315.51999	25171.825
2318.37489	25137.425
2321.22797	25107.425
2324.07925	25087.025
2326.92871	25009.225
2329.77637	25011.225
2332.62222	24940.225
2335.46626	24918.825
2338.3085	24868.425
2341.14893	24877.125
2343.98756	24888.225
2346.8244	24833.025
2349.65943	24852.225
2352.49267	24762.625
2355.32411	24784.925
2358.15376	24775.725
2360.98161	24758.525
2363.80768	24749.425
2366.63195	24731.625
2369.45444	24652.525
2372.27514	24663.625
2375.09405	24654.525
2377.91118	24594.425
2380.72652	24555.425
2383.54009	24469.625
2386.35187	24435.225
2389.16188	24443.725
2391.97011	24347.025
2394.77657	24320.525
2397.58125	24278.125
2400.38416	24235.925
2403.18529	24184.925
2405.98466	24163.125
2408.78226	24119.625
2411.57809	24111.825
2414.37216	24104.925
2417.16446	24061.125
2419.955	24043.125
2422.74378	24058.125
2425.5308	24017.425
2428.31606	23998.325
2431.09956	23956.825
2433.88131	23943.225
2436.6613	23931.625
2439.43954	23940.625
2442.21603	23912.825
2444.99077	23878.225
2447.76377	23877.025
2450.53501	23840.525
2453.30451	23846.125
2456.07226	23813.225
2458.83827	23770.825
2461.60254	23729.525
2464.36507	23772.325
2467.12586	23751.625
2469.88492	23721.125
2472.64224	23733.825
2475.39782	23703.525
2478.15167	23676.825
2480.90379	23667.225
2483.65417	23610.625
2486.40283	23593.425
2489.14976	23617.425
2491.89497	23587.725
2494.63845	23617.625
2497.3802	23542.925
2500.12024	23541.225
2502.85855	23551.825
2505.59514	23491.125
2508.33002	23489.625
2511.06318	23463.625
2513.79462	23441.525
2516.52435	23442.025
2519.25237	23481.625
2521.97867	23423.925
2524.70327	23418.125
2527.42616	23358.325
2530.14734	23406.425
2532.86681	23306.125
2535.58458	23311.325
2538.30065	23272.025
2541.01501	23224.025
2543.72768	23175.825
2546.43864	23169.325
2549.14791	23131.225
2551.85548	23131.425
2554.56136	23083.825
2557.26554	23060.625
2559.96803	23046.925
2562.66883	23018.425
2565.36794	22980.425
2568.06536	22964.325
2570.7611	22885.425
2573.45514	22844.625
2576.14751	22857.225
2578.83819	22791.125
2581.52719	22782.725
2584.21451	22724.125
2586.90015	22721.725
2589.58411	22664.525
2592.2664	22664.925
2594.94701	22605.125
2597.62594	22583.025
2600.30321	22525.525
2602.9788	22495.025
2605.65273	22458.925
2608.32498	22470.025
2610.99557	22416.825
2613.66449	22430.925
2616.33175	22383.525
2618.99734	22385.325
2621.66128	22362.125
2624.32355	22308.625
2626.98416	22261.125
2629.64311	22285.525
2632.30041	22270.225
2634.95605	22256.425
2637.61004	22150.225
2640.26238	22165.725
2642.91306	22178.525
2645.56209	22176.125
2648.20948	22212.525
2650.85521	22160.425
2653.4993	22132.125
2656.14175	22177.625
2658.78255	22155.925
2661.42171	22170.725
2664.05923	22191.425
2666.6951	22190.325
2669.32934	22203.925
2671.96194	22194.525
2674.59291	22193.425
2677.22224	22173.825
2679.84993	22154.825
2682.476	22132.625
2685.10043	22169.025
2687.72324	22083.125
2690.34441	22134.725
2692.96396	22115.925
2695.58188	22111.625
2698.19818	22078.325
2700.81285	22114.125
2703.4259	22110.225
2706.03733	22126.525
2708.64714	22079.125
2711.25533	22150.025
2713.86191	22143.625
2716.46687	22126.125
2719.07021	22137.725
2721.67194	22144.825
2724.27206	22095.625
2726.87057	22119.925
2729.46747	22136.325
2732.06276	22171.525
2734.65644	22168.825
2737.24852	22149.125
2739.83899	22104.525
2742.42786	22101.525
2745.01513	22039.025
2747.60079	22047.825
2750.18486	22052.525
2752.76733	22046.925
2755.3482	21987.025
2757.92747	21984.825
2760.50515	21919.325
2763.08123	21903.225
2765.65573	21890.325
2768.22863	21857.025
2770.79994	21863.225
2773.36967	21870.625
2775.9378	21800.825
2778.50435	21795.525
2781.06932	21737.025
2783.6327	21735.625
2786.1945	21699.425
2788.75471	21688.925
2791.31335	21603.925
2793.87041	21569.725
2796.42589	21509.225
2798.97979	21502.125
2801.53212	21419.625
2804.08288	21404.525
2806.63206	21388.325
2809.17967	21323.125
2811.72571	21314.325
2814.27018	21276.525
2816.81308	21210.425
2819.35442	21169.625
2821.89419	21107.425
2824.43239	21154.625
2826.96904	21061.125
2829.50412	21053.625
2832.03763	21029.425
2834.56959	21009.025
2837.1	20960.525
2839.62884	20937.325
2842.15613	20923.325
2844.68186	20928.225
2847.20604	20949.625
2849.72867	20900.725
2852.24974	20879.925
2854.76927	20859.725
2857.28724	20777.725
2859.80367	20797.025
2862.31855	20745.125
2864.83189	20743.225
2867.34368	20669.225
2869.85393	20707.325
2872.36264	20703.725
2874.8698	20647.825
2877.37543	20714.025
2879.87952	20693.125
2882.38207	20673.225
2884.88308	20646.125
2887.38256	20678.525
2889.88051	20654.625
2892.37692	20614.225
2894.8718	20646.925
2897.36515	20646.325
2899.85698	20645.325
2902.34727	20687.525
2904.83604	20690.725
2907.32328	20696.725
2909.809	20649.025
2912.29319	20694.125
2914.77587	20650.225
2917.25702	20637.925
2919.73665	20657.425
2922.21476	20634.525
2924.69136	20566.925
2927.16644	20596.825
2929.64	20574.225
2932.11205	20533.725
2934.58258	20460.625
2937.05161	20514.625
2939.51912	20527.425
2941.98513	20501.325
2944.44962	20409.225
2946.91261	20390.925
2949.37409	20402.125
2951.83407	20429.425
2954.29254	20388.125
2956.74951	20370.625
2959.20498	20342.825
2961.65895	20297.425
2964.11142	20278.125
2966.56239	20238.625
2969.01186	20215.425
2971.45984	20164.525
2973.90632	20170.025
2976.35131	20121.025
2978.7948	20096.825
2981.23681	20025.925
2983.67732	20018.325
2986.11635	19984.425
2988.55388	19930.725
2990.98993	19874.125
2993.4245	19857.225
2995.85758	19796.925
2998.28917	19745.525
3000.71928	19720.125
3003.14791	19672.825
3005.57506	19643.725
3008.00073	19588.725
3010.42493	19610.225
3012.84764	19541.625
3015.26888	19549.525
3017.68865	19532.725
3020.10694	19462.025
3022.52376	19397.825
3024.9391	19415.425
3027.35298	19378.225
3029.76539	19360.525
3032.17632	19286.325
3034.5858	19215.125
3036.9938	19215.825
3039.40034	19205.825
3041.80542	19228.025
3044.20903	19132.025
3046.61118	19134.025
3049.01187	19084.425
3051.4111	19088.425
3053.80888	19052.525
3056.20519	19008.725
3058.60005	18982.125
3060.99345	18944.925
3063.3854	18890.725
3065.7759	18826.825
3068.16494	18783.425
3070.55254	18712.525
3072.93868	18698.825
3075.32338	18646.625
3077.70662	18620.025
3080.08842	18554.325
3082.46878	18530.525
3084.84769	18512.125
3087.22515	18457.625
3089.60118	18461.025
3091.97576	18397.525
3094.3489	18430.225
3096.72061	18415.425
3099.09087	18387.325
3101.4597	18336.825
3103.82709	18354.825
3106.19305	18341.525
3108.55757	18327.925
3110.92066	18254.525
3113.28232	18213.825
3115.64255	18127.125
3118.00134	18093.525
3120.35871	18064.225
3122.71466	18028.225
3125.06917	18023.025
3127.42226	17962.325
3129.77393	17966.325
3132.12417	17942.725
3134.47299	17939.925
3136.82039	17920.525
3139.16636	17937.225
3141.51092	17894.325
3143.85406	17887.825
3146.19579	17927.325
3148.53609	17907.025
3150.87499	17899.925
3153.21246	17901.525
3155.54853	17919.925
3157.88318	17881.625
3160.21642	17882.925
3162.54826	17882.125
3164.87868	17842.325
3167.2077	17818.625
3169.5353	17795.925
3171.86151	17772.325
3174.18631	17755.225
3176.5097	17735.925
3178.83169	17692.625
3181.15228	17693.825
3183.47147	17662.125
3185.78926	17626.225
3188.10565	17610.325
3190.42065	17652.125
3192.73424	17629.025
3195.04645	17613.425
3197.35725	17600.625
3199.66667	17570.325
3201.97469	17572.125
3204.28132	17547.325
3206.58656	17607.725
3208.8904	17592.025
3211.19287	17565.625
3213.49394	17549.225
3215.79363	17491.425
3218.09193	17529.125
3220.38884	17464.925
3222.68438	17446.325
3224.97853	17424.925
3227.2713	17421.325
3229.56269	17380.625
3231.8527	17373.825
3234.14133	17346.225
3236.42858	17302.325
3238.71446	17255.725
3240.99896	17227.625
3243.28209	17227.125
3245.56384	17223.325
3247.84423	17215.325
3250.12324	17188.625
3252.40088	17162.225
3254.67715	17139.325
3256.95205	17093.225
3259.22558	17066.225
3261.49775	17032.125
3263.76855	17036.525
3266.03799	16982.025
3268.30606	16974.725
3270.57277	16921.825
3272.83812	16898.225
3275.10211	16884.025
3277.36474	16869.625
3279.62601	16864.225
3281.88593	16799.925
3284.14448	16832.325
3286.40168	16811.725
3288.65753	16800.525
3290.91202	16743.225
3293.16516	16692.125
3295.41695	16614.525
3297.66738	16566.325
3299.91647	16487.625
3302.16421	16370.925
3304.4106	16315.425
3306.65564	16213.225
3308.89933	16130.525
3311.14169	16000.225
3313.38269	15848.125
3315.62236	15803.725
3317.86068	15637.825
3320.09766	15481.025
3322.3333	15357.925
3324.5676	15340.725
3326.80056	15073.225
3329.03219	15014.925
3331.26248	3.525
3333.49143	1.425
3335.71905	-2.075
