Data from AgNPs_FTO_APTES_UA_100uM_R6G_10uM_NaF_0.1M_Addition_RamanShift__31__15-53-17-482.txt Node

Date: Fri Dec 17 15:53:17 GMT 2021
User: TCL
Spectrometer: QEP01345
Trigger mode: 4
Integration Time (sec): 7.000000E0
Scans to average: 10
Electric dark correction enabled: true
Nonlinearity correction enabled: false
Boxcar width: 0
XAxis mode: Raman Shifts
Number of Pixels in Spectrum: 1044
>>>>>Begin Spectral Data<<<<<
46.04893	-0.1125
50.45542	-0.2125
54.85868	-0.2125
59.25871	0.7875
63.6555	44.9875
68.04907	48.4875
72.43941	53.2875
76.82654	57.7875
81.21044	55.5875
85.59113	61.3875
89.96862	59.4875
94.34289	66.6875
98.71396	66.9875
103.08183	68.9875
107.4465	68.6875
111.80798	70.7875
116.16626	70.4875
120.52136	71.1875
124.87327	72.6875
129.222	77.1875
133.56755	77.1875
137.90993	81.3875
142.24913	85.4875
146.58517	89.0875
150.91804	100.6875
155.24774	111.5875
159.57429	138.1875
163.89768	164.4875
168.21792	209.3875
172.53501	272.5875
176.84895	371.1875
181.15975	508.3875
185.46741	697.2875
189.77193	964.3875
194.07331	1283.7875
198.37157	1655.7875
202.6667	2032.7875
206.9587	2416.8875
211.24758	2801.2875
215.53334	3188.1875
219.81599	3610.7875
224.09553	4097.1875
228.37195	4623.6875
232.64527	5210.1875
236.91549	5800.3875
241.18261	6366.9875
245.44663	6855.8875
249.70755	7235.5875
253.96539	7579.6875
258.22014	7859.4875
262.4718	8131.5875
266.72039	8325.6875
270.96589	8452.8875
275.20832	8457.2875
279.44768	8343.9875
283.68397	8209.3875
287.91719	8092.8875
292.14735	8057.5875
296.37445	8185.0875
300.59849	8427.0875
304.81948	8755.3875
309.03742	8942.9875
313.25231	8886.3875
317.46415	8505.2875
321.67296	7942.5875
325.87872	7482.4875
330.08145	7258.5875
334.28114	7254.4875
338.47781	7354.1875
342.67145	7541.2875
346.86207	7828.7875
351.04966	8235.7875
355.23424	8700.4875
359.4158	9082.0875
363.59435	9313.2875
367.76989	9403.6875
371.94243	9474.5875
376.11196	9492.8875
380.27849	9493.3875
384.44203	9453.6875
388.60257	9332.8875
392.76012	9255.3875
396.91468	9310.7875
401.06626	9491.3875
405.21485	9652.8875
409.36047	9505.2875
413.50311	9056.6875
417.64277	8597.8875
421.77947	8316.2875
425.9132	8213.5875
430.04396	8174.2875
434.17176	8180.8875
438.2966	8254.8875
442.41849	8405.8875
446.53742	8532.4875
450.6534	8687.6875
454.76644	8791.6875
458.87653	8815.6875
462.98368	8789.4875
467.08789	8703.2875
471.18916	8586.1875
475.2875	8448.0875
479.38291	8363.4875
483.4754	8242.6875
487.56496	8210.5875
491.6516	8186.2875
495.73531	8167.3875
499.81612	8218.1875
503.89401	8301.9875
507.96899	8387.0875
512.04106	8542.7875
516.11023	8699.2875
520.1765	8836.2875
524.23987	8819.4875
528.30034	8698.7875
532.35792	8552.5875
536.41261	8375.6875
540.46441	8189.1875
544.51333	8106.2875
548.55936	8091.5875
552.60252	8211.6875
556.64279	8357.0875
560.6802	8428.0875
564.71473	8506.2875
568.7464	8729.4875
572.7752	8876.8875
576.80114	8664.2875
580.82422	8391.2875
584.84444	8289.7875
588.86181	8229.5875
592.87633	8227.4875
596.888	8330.0875
600.89682	8607.8875
604.9028	9502.1875
608.90594	11885.6875
612.90624	15093.3875
616.90371	14778.4875
620.89834	10797.1875
624.89015	8915.5875
628.87913	8626.9875
632.86528	8755.4875
636.84862	8923.4875
640.82913	8854.7875
644.80683	8535.1875
648.78172	8231.4875
652.75379	8189.1875
656.72306	8403.0875
660.68952	8704.7875
664.65319	8611.5875
668.61405	8251.8875
672.57211	8057.8875
676.52738	8052.7875
680.47986	8048.7875
684.42955	8015.1875
688.37646	7966.8875
692.32058	7999.4875
696.26192	8028.1875
700.20048	8106.8875
704.13626	8157.7875
708.06928	8167.3875
711.99952	8103.9875
715.927	8106.0875
719.85171	8123.9875
723.77365	8135.7875
727.69284	8102.7875
731.60928	8067.0875
735.52295	8039.8875
739.43388	8035.7875
743.34206	8071.8875
747.24749	8091.2875
751.15017	8098.4875
755.05012	8209.5875
758.94733	8467.2875
762.8418	9161.5875
766.73354	10391.2875
770.62254	11844.1875
774.50882	12791.2875
778.39237	12400.2875
782.27321	10930.1875
786.15132	9461.6875
790.02671	8638.9875
793.89938	8293.3875
797.76935	8136.4875
801.6366	8104.9875
805.50115	8108.7875
809.36299	8134.8875
813.22213	8140.1875
817.07857	8118.4875
820.93231	8068.7875
824.78336	8060.6875
828.63172	8030.7875
832.47738	7987.2875
836.32036	7990.0875
840.16066	7930.7875
843.99827	7889.7875
847.8332	7891.6875
851.66546	7867.0875
855.49504	7876.1875
859.32195	7874.5875
863.1462	7853.0875
866.96777	7846.0875
870.78668	7862.7875
874.60293	7888.3875
878.41652	7945.9875
882.22745	8021.1875
886.03573	8067.5875
889.84136	8071.2875
893.64433	8026.7875
897.44466	7961.6875
901.24235	7919.3875
905.0374	7868.2875
908.8298	7820.1875
912.61957	7785.2875
916.40671	7764.7875
920.19121	7807.2875
923.97308	7831.3875
927.75233	7879.4875
931.52895	7959.6875
935.30295	7941.5875
939.07433	7785.1875
942.84309	7622.1875
946.60924	7547.1875
950.37278	7475.0875
954.13371	7433.6875
957.89203	7407.8875
961.64774	7390.0875
965.40086	7374.5875
969.15137	7345.0875
972.89929	7354.6875
976.64461	7331.8875
980.38733	7342.4875
984.12747	7331.5875
987.86502	7357.5875
991.59999	7378.8875
995.33237	7412.9875
999.06217	7488.0875
1002.78939	7570.9875
1006.51404	7686.7875
1010.23611	7855.5875
1013.95561	7947.8875
1017.67255	7966.4875
1021.38692	7921.0875
1025.09872	7836.5875
1028.80796	7743.9875
1032.51465	7719.6875
1036.21877	7726.3875
1039.92035	7750.1875
1043.61937	7765.2875
1047.31584	7754.4875
1051.00976	7775.1875
1054.70114	7762.6875
1058.38998	7765.8875
1062.07627	7800.5875
1065.76003	7818.2875
1069.44126	7848.1875
1073.11995	7924.4875
1076.79611	8005.3875
1080.46974	8058.6875
1084.14085	8190.2875
1087.80943	8345.1875
1091.47549	8427.2875
1095.13903	8333.5875
1098.80005	8103.5875
1102.45857	7944.8875
1106.11456	7874.5875
1109.76805	7934.5875
1113.41903	8081.2875
1117.06751	8328.4875
1120.71348	8597.9875
1124.35696	8910.0875
1127.99793	9207.1875
1131.63641	9293.8875
1135.2724	9009.1875
1138.90589	8655.0875
1142.5369	8418.5875
1146.16542	8206.7875
1149.79145	8053.7875
1153.415	7933.8875
1157.03607	7945.6875
1160.65467	8020.3875
1164.27079	8178.0875
1167.88443	8449.0875
1171.49561	8938.2875
1175.10432	9776.5875
1178.71056	10993.4875
1182.31434	12006.1875
1185.91565	12293.5875
1189.51451	11961.9875
1193.11091	11187.0875
1196.70485	10386.4875
1200.29634	9846.3875
1203.88538	9565.7875
1207.47197	9149.8875
1211.05612	8726.3875
1214.63782	8446.8875
1218.21708	8270.3875
1221.79391	8190.9875
1225.36829	8178.6875
1228.94024	8197.6875
1232.50976	8249.0875
1236.07685	8255.7875
1239.6415	8297.7875
1243.20374	8329.0875
1246.76355	8400.5875
1250.32093	8470.8875
1253.8759	8563.1875
1257.42845	8724.8875
1260.97859	8876.5875
1264.52631	9055.7875
1268.07163	9247.2875
1271.61453	9417.4875
1275.15503	9520.6875
1278.69312	9541.6875
1282.22882	9507.5875
1285.76211	9578.6875
1289.29301	9781.5875
1292.82151	10036.3875
1296.34761	10310.6875
1299.87133	10720.8875
1303.39266	11493.0875
1306.9116	12661.3875
1310.42815	14028.9875
1313.94233	14756.3875
1317.45412	14453.7875
1320.96354	13426.7875
1324.47058	12293.0875
1327.97525	11306.0875
1331.47754	10638.9875
1334.97747	10414.5875
1338.47502	10443.6875
1341.97022	10727.2875
1345.46305	11217.3875
1348.95352	11972.0875
1352.44163	13043.9875
1355.92738	14458.8875
1359.41078	16626.7875
1362.89183	18821.2875
1366.37053	18715.1875
1369.84688	16017.2875
1373.32088	13155.8875
1376.79254	11254.0875
1380.26186	10291.2875
1383.72883	9841.4875
1387.19347	9531.3875
1390.65578	9149.8875
1394.11575	8839.8875
1397.57339	8599.7875
1401.0287	8543.0875
1404.48168	8497.3875
1407.93234	8535.2875
1411.38068	8599.1875
1414.82669	8654.4875
1418.27039	8655.9875
1421.71177	8619.5875
1425.15083	8542.7875
1428.58758	8441.1875
1432.02203	8411.1875
1435.45416	8429.6875
1438.88399	8490.4875
1442.31151	8460.6875
1445.73673	8488.7875
1449.15965	8533.5875
1452.58027	8495.4875
1455.9986	8438.8875
1459.41463	8421.9875
1462.82837	8469.3875
1466.23982	8593.7875
1469.64898	8728.5875
1473.05586	8839.8875
1476.46045	8959.6875
1479.86276	9114.5875
1483.26279	9327.5875
1486.66054	9632.4875
1490.05602	9930.6875
1493.44922	10375.5875
1496.84016	11106.4875
1500.22882	12260.6875
1503.61521	13812.8875
1506.99934	15677.1875
1510.38121	17334.9875
1513.76081	18021.1875
1517.13816	17158.6875
1520.51324	15059.4875
1523.88607	12912.6875
1527.25665	11397.6875
1530.62498	10546.2875
1533.99105	10033.6875
1537.35488	9797.9875
1540.71647	9648.7875
1544.07581	9566.8875
1547.4329	9629.7875
1550.78776	9686.2875
1554.14038	9747.2875
1557.49077	9803.2875
1560.83892	9961.5875
1564.18484	10176.2875
1567.52853	10510.0875
1570.86999	10792.5875
1574.20922	11026.9875
1577.54624	11022.8875
1580.88103	10547.9875
1584.2136	9824.8875
1587.54395	9316.7875
1590.87208	9206.2875
1594.19801	9414.9875
1597.52172	9853.0875
1600.84321	10122.7875
1604.16251	9938.2875
1607.47959	9521.0875
1610.79447	9156.6875
1614.10715	8735.9875
1617.41763	8341.9875
1620.7259	8098.8875
1624.03199	7972.1875
1627.33587	7936.2875
1630.63757	8010.3875
1633.93707	8179.1875
1637.23439	8527.9875
1640.52951	9057.4875
1643.82246	9877.7875
1647.11321	11046.2875
1650.40179	12167.7875
1653.68819	12309.8875
1656.97241	11146.0875
1660.25446	9638.8875
1663.53433	8522.8875
1666.81203	7869.3875
1670.08756	7488.9875
1673.36092	7248.9875
1676.63211	7087.9875
1679.90115	6985.9875
1683.16801	6895.2875
1686.43272	6819.1875
1689.69527	6787.8875
1692.95567	6757.5875
1696.2139	6740.9875
1699.46999	6736.0875
1702.72392	6692.5875
1705.97571	6664.2875
1709.22535	6641.5875
1712.47284	6617.4875
1715.71819	6612.9875
1718.96139	6612.9875
1722.20246	6577.3875
1725.44139	6569.3875
1728.67818	6512.2875
1731.91284	6473.0875
1735.14537	6446.0875
1738.37576	6435.5875
1741.60403	6395.8875
1744.83017	6393.8875
1748.05418	6356.2875
1751.27607	6345.8875
1754.49584	6347.1875
1757.71349	6345.0875
1760.92903	6343.6875
1764.14244	6356.2875
1767.35375	6309.6875
1770.56294	6301.2875
1773.77002	6292.6875
1776.97499	6276.5875
1780.17785	6256.7875
1783.37861	6232.5875
1786.57727	6226.7875
1789.77382	6211.3875
1792.96828	6210.0875
1796.16064	6186.9875
1799.3509	6202.9875
1802.53907	6185.9875
1805.72514	6162.7875
1808.90913	6153.6875
1812.09102	6127.1875
1815.27083	6123.1875
1818.44856	6094.5875
1821.6242	6082.5875
1824.79776	6071.4875
1827.96924	6070.0875
1831.13864	6053.2875
1834.30597	6061.8875
1837.47122	6051.2875
1840.6344	6032.4875
1843.7955	6033.7875
1846.95454	6047.2875
1850.11151	6023.1875
1853.26642	6018.3875
1856.41926	6011.7875
1859.57004	6024.1875
1862.71876	6013.1875
1865.86542	5999.4875
1869.01003	5996.7875
1872.15258	6005.6875
1875.29308	6000.3875
1878.43152	5979.4875
1881.56792	5971.3875
1884.70227	5981.1875
1887.83457	5973.4875
1890.96482	5964.8875
1894.09304	5970.3875
1897.21921	5937.7875
1900.34335	5950.8875
1903.46544	5933.6875
1906.58551	5941.8875
1909.70353	5930.3875
1912.81953	5931.1875
1915.93349	5926.9875
1919.04543	5907.8875
1922.15534	5887.4875
1925.26322	5893.6875
1928.36908	5886.4875
1931.47292	5877.7875
1934.57473	5839.5875
1937.67453	5821.2875
1940.77232	5818.0875
1943.86808	5803.5875
1946.96184	5780.3875
1950.05358	5781.7875
1953.14331	5760.2875
1956.23103	5727.4875
1959.31675	5717.7875
1962.40046	5717.5875
1965.48217	5700.5875
1968.56188	5679.2875
1971.63959	5665.7875
1974.7153	5644.7875
1977.78901	5629.4875
1980.86073	5611.8875
1983.93046	5588.8875
1986.99819	5584.0875
1990.06394	5564.4875
1993.1277	5528.1875
1996.18947	5512.1875
1999.24925	5521.5875
2002.30706	5501.4875
2005.36288	5472.4875
2008.41672	5476.6875
2011.46859	5445.8875
2014.51848	5431.0875
2017.56639	5414.2875
2020.61233	5395.6875
2023.6563	5383.9875
2026.6983	5367.8875
2029.73833	5359.8875
2032.7764	5358.4875
2035.8125	5338.3875
2038.84664	5316.6875
2041.87881	5316.1875
2044.90903	5302.5875
2047.93729	5300.4875
2050.96359	5289.0875
2053.98794	5267.7875
2057.01034	5263.4875
2060.03078	5259.1875
2063.04927	5252.4875
2066.06582	5244.0875
2069.08042	5258.5875
2072.09307	5243.3875
2075.10378	5224.1875
2078.11255	5236.3875
2081.11938	5237.6875
2084.12426	5234.2875
2087.12722	5230.1875
2090.12824	5214.3875
2093.12732	5246.1875
2096.12447	5231.0875
2099.11969	5226.1875
2102.11299	5224.7875
2105.10435	5222.3875
2108.09379	5222.6875
2111.08131	5252.6875
2114.0669	5246.6875
2117.05057	5251.2875
2120.03233	5244.1875
2123.01216	5245.2875
2125.99008	5253.4875
2128.96609	5241.8875
2131.94018	5251.1875
2134.91236	5265.9875
2137.88263	5265.9875
2140.851	5244.1875
2143.81746	5280.5875
2146.78201	5266.3875
2149.74466	5274.2875
2152.7054	5278.6875
2155.66425	5269.4875
2158.6212	5271.1875
2161.57625	5238.5875
2164.52941	5245.8875
2167.48067	5243.6875
2170.43004	5232.0875
2173.37752	5242.4875
2176.32311	5238.4875
2179.26681	5232.0875
2182.20863	5246.0875
2185.14856	5234.0875
2188.08661	5226.9875
2191.02278	5237.8875
2193.95707	5230.6875
2196.88948	5217.5875
2199.82001	5219.5875
2202.74867	5192.8875
2205.67545	5201.5875
2208.60037	5184.3875
2211.52341	5167.1875
2214.44458	5171.4875
2217.36388	5172.7875
2220.28132	5161.6875
2223.1969	5142.3875
2226.11061	5133.8875
2229.02246	5107.5875
2231.93245	5109.8875
2234.84058	5105.8875
2237.74686	5081.2875
2240.65128	5095.1875
2243.55385	5098.5875
2246.45456	5072.6875
2249.35343	5077.3875
2252.25044	5061.0875
2255.14561	5058.5875
2258.03893	5058.0875
2260.93041	5052.4875
2263.82004	5047.6875
2266.70783	5058.0875
2269.59378	5027.4875
2272.4779	5027.2875
2275.36017	4989.1875
2278.24061	4988.2875
2281.11922	4979.0875
2283.996	4970.5875
2286.87094	4976.8875
2289.74405	4941.1875
2292.61534	4944.0875
2295.4848	4928.9875
2298.35243	4933.0875
2301.21824	4905.6875
2304.08223	4905.9875
2306.94439	4915.2875
2309.80474	4910.4875
2312.66327	4889.4875
2315.51999	4906.7875
2318.37489	4899.8875
2321.22797	4883.6875
2324.07925	4864.6875
2326.92871	4873.3875
2329.77637	4867.7875
2332.62222	4856.2875
2335.46626	4847.2875
2338.3085	4859.5875
2341.14893	4831.4875
2343.98756	4827.3875
2346.8244	4835.3875
2349.65943	4835.2875
2352.49267	4843.7875
2355.32411	4843.2875
2358.15376	4842.0875
2360.98161	4848.4875
2363.80768	4863.1875
2366.63195	4851.4875
2369.45444	4824.6875
2372.27514	4844.3875
2375.09405	4830.2875
2377.91118	4830.1875
2380.72652	4797.7875
2383.54009	4777.6875
2386.35187	4778.5875
2389.16188	4751.8875
2391.97011	4735.2875
2394.77657	4716.4875
2397.58125	4714.3875
2400.38416	4705.6875
2403.18529	4692.7875
2405.98466	4687.9875
2408.78226	4667.6875
2411.57809	4663.9875
2414.37216	4662.1875
2417.16446	4656.8875
2419.955	4656.7875
2422.74378	4657.5875
2425.5308	4640.5875
2428.31606	4645.2875
2431.09956	4626.2875
2433.88131	4639.1875
2436.6613	4629.8875
2439.43954	4621.8875
2442.21603	4615.5875
2444.99077	4617.5875
2447.76377	4621.7875
2450.53501	4615.4875
2453.30451	4615.3875
2456.07226	4607.1875
2458.83827	4599.8875
2461.60254	4587.2875
2464.36507	4595.0875
2467.12586	4586.7875
2469.88492	4585.5875
2472.64224	4580.0875
2475.39782	4578.2875
2478.15167	4584.7875
2480.90379	4590.3875
2483.65417	4593.3875
2486.40283	4583.7875
2489.14976	4599.6875
2491.89497	4599.4875
2494.63845	4601.2875
2497.3802	4581.4875
2500.12024	4577.2875
2502.85855	4559.7875
2505.59514	4562.9875
2508.33002	4538.3875
2511.06318	4533.8875
2513.79462	4519.4875
2516.52435	4518.1875
2519.25237	4491.9875
2521.97867	4480.1875
2524.70327	4479.0875
2527.42616	4453.3875
2530.14734	4456.8875
2532.86681	4440.4875
2535.58458	4428.8875
2538.30065	4418.8875
2541.01501	4430.2875
2543.72768	4406.8875
2546.43864	4410.0875
2549.14791	4409.7875
2551.85548	4406.5875
2554.56136	4402.3875
2557.26554	4396.4875
2559.96803	4382.5875
2562.66883	4387.9875
2565.36794	4380.3875
2568.06536	4362.9875
2570.7611	4390.2875
2573.45514	4372.7875
2576.14751	4344.3875
2578.83819	4337.9875
2581.52719	4319.1875
2584.21451	4330.0875
2586.90015	4319.2875
2589.58411	4310.0875
2592.2664	4284.7875
2594.94701	4292.3875
2597.62594	4282.9875
2600.30321	4263.4875
2602.9788	4255.1875
2605.65273	4262.3875
2608.32498	4253.9875
2610.99557	4245.3875
2613.66449	4246.9875
2616.33175	4253.4875
2618.99734	4242.4875
2621.66128	4225.7875
2624.32355	4228.6875
2626.98416	4221.2875
2629.64311	4220.6875
2632.30041	4212.1875
2634.95605	4192.6875
2637.61004	4188.9875
2640.26238	4181.5875
2642.91306	4175.6875
2645.56209	4182.1875
2648.20948	4159.7875
2650.85521	4168.1875
2653.4993	4163.8875
2656.14175	4165.4875
2658.78255	4160.2875
2661.42171	4157.1875
2664.05923	4162.8875
2666.6951	4167.8875
2669.32934	4182.9875
2671.96194	4181.1875
2674.59291	4184.0875
2677.22224	4169.3875
2679.84993	4174.1875
2682.476	4165.0875
2685.10043	4171.0875
2687.72324	4174.6875
2690.34441	4171.3875
2692.96396	4160.0875
2695.58188	4172.6875
2698.19818	4166.2875
2700.81285	4171.7875
2703.4259	4164.7875
2706.03733	4179.7875
2708.64714	4167.7875
2711.25533	4149.2875
2713.86191	4168.3875
2716.46687	4170.1875
2719.07021	4178.9875
2721.67194	4153.1875
2724.27206	4162.4875
2726.87057	4163.2875
2729.46747	4161.7875
2732.06276	4157.1875
2734.65644	4131.2875
2737.24852	4153.2875
2739.83899	4129.5875
2742.42786	4139.3875
2745.01513	4124.4875
2747.60079	4123.8875
2750.18486	4117.3875
2752.76733	4113.5875
2755.3482	4107.5875
2757.92747	4110.2875
2760.50515	4101.4875
2763.08123	4087.4875
2765.65573	4087.2875
2768.22863	4076.2875
2770.79994	4079.1875
2773.36967	4071.2875
2775.9378	4066.0875
2778.50435	4058.9875
2781.06932	4063.3875
2783.6327	4050.6875
2786.1945	4043.2875
2788.75471	4044.1875
2791.31335	4022.7875
2793.87041	4022.3875
2796.42589	4016.4875
2798.97979	4022.2875
2801.53212	4010.4875
2804.08288	3991.8875
2806.63206	3982.2875
2809.17967	4005.1875
2811.72571	3983.8875
2814.27018	3981.4875
2816.81308	3990.4875
2819.35442	3992.9875
2821.89419	3981.5875
2824.43239	3986.1875
2826.96904	3979.4875
2829.50412	3990.2875
2832.03763	3974.0875
2834.56959	3990.8875
2837.1	3989.1875
2839.62884	3989.3875
2842.15613	3983.8875
2844.68186	4001.4875
2847.20604	4003.8875
2849.72867	4033.8875
2852.24974	4044.1875
2854.76927	4042.0875
2857.28724	4020.1875
2859.80367	4014.9875
2862.31855	4013.1875
2864.83189	4009.6875
2867.34368	4009.3875
2869.85393	4008.7875
2872.36264	4017.3875
2874.8698	4004.7875
2877.37543	4008.6875
2879.87952	4005.4875
2882.38207	3999.9875
2884.88308	4004.2875
2887.38256	3991.7875
2889.88051	3990.3875
2892.37692	3994.9875
2894.8718	3989.5875
2897.36515	4013.0875
2899.85698	3976.0875
2902.34727	4006.1875
2904.83604	3981.9875
2907.32328	3982.9875
2909.809	3988.4875
2912.29319	3994.9875
2914.77587	3999.5875
2917.25702	4012.9875
2919.73665	3986.9875
2922.21476	3991.5875
2924.69136	3971.6875
2927.16644	3979.2875
2929.64	3984.8875
2932.11205	3979.8875
2934.58258	3949.9875
2937.05161	3950.2875
2939.51912	3953.8875
2941.98513	3932.9875
2944.44962	3933.2875
2946.91261	3904.5875
2949.37409	3906.9875
2951.83407	3902.9875
2954.29254	3905.0875
2956.74951	3892.3875
2959.20498	3881.9875
2961.65895	3875.0875
2964.11142	3867.9875
2966.56239	3864.8875
2969.01186	3870.2875
2971.45984	3864.9875
2973.90632	3840.3875
2976.35131	3832.1875
2978.7948	3833.8875
2981.23681	3815.8875
2983.67732	3809.8875
2986.11635	3796.2875
2988.55388	3789.5875
2990.98993	3793.6875
2993.4245	3764.9875
2995.85758	3780.6875
2998.28917	3770.3875
3000.71928	3768.4875
3003.14791	3763.6875
3005.57506	3769.9875
3008.00073	3755.4875
3010.42493	3755.0875
3012.84764	3748.7875
3015.26888	3763.5875
3017.68865	3755.3875
3020.10694	3741.0875
3022.52376	3736.8875
3024.9391	3744.9875
3027.35298	3724.7875
3029.76539	3731.5875
3032.17632	3712.3875
3034.5858	3709.2875
3036.9938	3702.2875
3039.40034	3695.9875
3041.80542	3703.3875
3044.20903	3708.3875
3046.61118	3690.1875
3049.01187	3686.0875
3051.4111	3681.1875
3053.80888	3697.4875
3056.20519	3688.9875
3058.60005	3665.5875
3060.99345	3673.3875
3063.3854	3678.9875
3065.7759	3664.0875
3068.16494	3661.0875
3070.55254	3647.3875
3072.93868	3675.1875
3075.32338	3657.5875
3077.70662	3650.0875
3080.08842	3648.6875
3082.46878	3640.5875
3084.84769	3632.5875
3087.22515	3640.1875
3089.60118	3640.5875
3091.97576	3640.0875
3094.3489	3640.5875
3096.72061	3650.0875
3099.09087	3650.4875
3101.4597	3650.6875
3103.82709	3644.9875
3106.19305	3653.1875
3108.55757	3642.5875
3110.92066	3647.3875
3113.28232	3639.2875
3115.64255	3634.4875
3118.00134	3627.9875
3120.35871	3627.3875
3122.71466	3628.7875
3125.06917	3613.5875
3127.42226	3608.2875
3129.77393	3623.9875
3132.12417	3640.5875
3134.47299	3637.6875
3136.82039	3637.9875
3139.16636	3647.0875
3141.51092	3662.6875
3143.85406	3659.0875
3146.19579	3683.2875
3148.53609	3667.8875
3150.87499	3675.7875
3153.21246	3684.1875
3155.54853	3716.6875
3157.88318	3703.3875
3160.21642	3701.6875
3162.54826	3707.9875
3164.87868	3716.1875
3167.2077	3722.2875
3169.5353	3722.5875
3171.86151	3717.7875
3174.18631	3705.6875
3176.5097	3709.0875
3178.83169	3718.0875
3181.15228	3710.6875
3183.47147	3723.6875
3185.78926	3714.2875
3188.10565	3730.8875
3190.42065	3723.3875
3192.73424	3737.0875
3195.04645	3736.7875
3197.35725	3739.6875
3199.66667	3736.0875
3201.97469	3753.6875
3204.28132	3745.5875
3206.58656	3760.2875
3208.8904	3762.3875
3211.19287	3780.1875
3213.49394	3790.1875
3215.79363	3772.8875
3218.09193	3787.6875
3220.38884	3779.5875
3222.68438	3788.6875
3224.97853	3778.1875
3227.2713	3776.3875
3229.56269	3774.1875
3231.8527	3786.8875
3234.14133	3774.7875
3236.42858	3767.6875
3238.71446	3761.7875
3240.99896	3754.1875
3243.28209	3773.7875
3245.56384	3757.3875
3247.84423	3753.6875
3250.12324	3766.4875
3252.40088	3763.3875
3254.67715	3745.4875
3256.95205	3745.6875
3259.22558	3743.6875
3261.49775	3736.3875
3263.76855	3743.4875
3266.03799	3729.0875
3268.30606	3740.0875
3270.57277	3733.7875
3272.83812	3715.8875
3275.10211	3719.8875
3277.36474	3703.0875
3279.62601	3708.0875
3281.88593	3707.1875
3284.14448	3710.0875
3286.40168	3695.1875
3288.65753	3707.0875
3290.91202	3687.9875
3293.16516	3674.7875
3295.41695	3664.6875
3297.66738	3648.2875
3299.91647	3646.8875
3302.16421	3614.3875
3304.4106	3603.4875
3306.65564	3587.2875
3308.89933	3569.0875
3311.14169	3539.0875
3313.38269	3523.0875
3315.62236	3496.0875
3317.86068	3479.0875
3320.09766	3426.6875
3322.3333	3419.0875
3324.5676	3410.7875
3326.80056	3354.7875
3329.03219	3328.8875
3331.26248	0.6875
3333.49143	0.9875
3335.71905	-0.9125
