Data from AgNPs_FTO_APTES_UA_20uM_R6G_10uM_NaF_0.1M_Addition_RamanShift__13__14-10-37-365.txt Node

Date: Fri Dec 17 14:10:37 GMT 2021
User: TCL
Spectrometer: QEP01345
Trigger mode: 4
Integration Time (sec): 7.000000E0
Scans to average: 10
Electric dark correction enabled: true
Nonlinearity correction enabled: false
Boxcar width: 0
XAxis mode: Raman Shifts
Number of Pixels in Spectrum: 1044
>>>>>Begin Spectral Data<<<<<
46.04893	-0.5125
50.45542	-0.2125
54.85868	-2.0125
59.25871	0.7875
63.6555	75.3875
68.04907	77.5875
72.43941	79.6875
76.82654	83.9875
81.21044	84.3875
85.59113	91.1875
89.96862	93.3875
94.34289	95.7875
98.71396	101.4875
103.08183	100.1875
107.4465	106.7875
111.80798	108.5875
116.16626	111.8875
120.52136	113.9875
124.87327	119.8875
129.222	125.8875
133.56755	133.7875
137.90993	141.8875
142.24913	155.1875
146.58517	176.8875
150.91804	205.8875
155.24774	241.7875
159.57429	300.6875
163.89768	385.6875
168.21792	508.2875
172.53501	690.4875
176.84895	967.3875
181.15975	1357.1875
185.46741	1907.4875
189.77193	2646.1875
194.07331	3554.0875
198.37157	4609.8875
202.6667	5707.2875
206.9587	6808.8875
211.24758	7879.2875
215.53334	8959.3875
219.81599	10036.2875
224.09553	11287.7875
228.37195	12604.1875
232.64527	14123.4875
236.91549	15700.1875
241.18261	17362.1875
245.44663	18988.6875
249.70755	20432.1875
253.96539	21721.5875
258.22014	22740.6875
262.4718	23625.6875
266.72039	24095.4875
270.96589	24416.7875
275.20832	24396.8875
279.44768	24178.6875
283.68397	23861.4875
287.91719	23527.6875
292.14735	23332.2875
296.37445	23149.4875
300.59849	23105.6875
304.81948	23069.7875
309.03742	23040.4875
313.25231	22924.4875
317.46415	22645.2875
321.67296	22357.3875
325.87872	22058.6875
330.08145	21968.0875
334.28114	22058.3875
338.47781	22254.6875
342.67145	22522.6875
346.86207	22834.9875
351.04966	23207.9875
355.23424	23601.4875
359.4158	23945.3875
363.59435	24271.2875
367.76989	24517.3875
371.94243	24669.1875
376.11196	24842.0875
380.27849	24988.8875
384.44203	25135.1875
388.60257	25276.0875
392.76012	25462.0875
396.91468	25661.7875
401.06626	25928.1875
405.21485	26194.5875
409.36047	26181.0875
413.50311	25923.7875
417.64277	25714.4875
421.77947	25621.4875
425.9132	25708.6875
430.04396	25783.8875
434.17176	25896.0875
438.2966	26025.8875
442.41849	26225.4875
446.53742	26517.5875
450.6534	26820.0875
454.76644	27051.2875
458.87653	27277.5875
462.98368	27355.8875
467.08789	27370.5875
471.18916	27290.9875
475.2875	27112.5875
479.38291	26932.9875
483.4754	26800.4875
487.56496	26706.8875
491.6516	26634.4875
495.73531	26579.0875
499.81612	26627.1875
503.89401	26743.4875
507.96899	26826.6875
512.04106	26951.1875
516.11023	26959.6875
520.1765	26923.6875
524.23987	26840.7875
528.30034	26710.9875
532.35792	26662.1875
536.41261	26557.1875
540.46441	26416.8875
544.51333	26374.4875
548.55936	26468.7875
552.60252	26684.5875
556.64279	26955.9875
560.6802	27161.5875
564.71473	27166.0875
568.7464	27255.6875
572.7752	27398.0875
576.80114	27557.5875
580.82422	27801.0875
584.84444	28035.3875
588.86181	28239.8875
592.87633	28293.9875
596.888	28269.2875
600.89682	28342.2875
604.9028	29067.7875
608.90594	30835.2875
612.90624	32744.6875
616.90371	31844.1875
620.89834	28862.4875
624.89015	27429.9875
628.87913	27183.9875
632.86528	27320.9875
636.84862	27473.9875
640.82913	27392.3875
644.80683	27102.0875
648.78172	26810.9875
652.75379	26792.6875
656.72306	27018.0875
660.68952	27323.4875
664.65319	27282.4875
668.61405	27112.0875
672.57211	27062.4875
676.52738	27141.7875
680.47986	27139.4875
684.42955	27094.9875
688.37646	27029.6875
692.32058	27092.5875
696.26192	27227.0875
700.20048	27416.4875
704.13626	27523.7875
708.06928	27502.5875
711.99952	27437.4875
715.927	27338.7875
719.85171	27321.1875
723.77365	27278.6875
727.69284	27170.5875
731.60928	27002.1875
735.52295	26913.7875
739.43388	26870.2875
743.34206	26924.1875
747.24749	27000.4875
751.15017	27082.0875
755.05012	27201.6875
758.94733	27579.6875
762.8418	28230.8875
766.73354	29290.8875
770.62254	30490.4875
774.50882	31004.5875
778.39237	30501.5875
782.27321	29421.4875
786.15132	28364.9875
790.02671	27652.0875
793.89938	27283.3875
797.76935	27126.5875
801.6366	26986.2875
805.50115	26903.2875
809.36299	26825.4875
813.22213	26741.7875
817.07857	26712.5875
820.93231	26691.3875
824.78336	26732.0875
828.63172	26715.5875
832.47738	26748.9875
836.32036	26701.8875
840.16066	26679.4875
843.99827	26678.3875
847.8332	26653.1875
851.66546	26722.0875
855.49504	26698.4875
859.32195	26722.3875
863.1462	26724.6875
866.96777	26768.2875
870.78668	26759.6875
874.60293	26802.1875
878.41652	26799.3875
882.22745	26869.0875
886.03573	26913.1875
889.84136	26934.1875
893.64433	26883.0875
897.44466	26828.1875
901.24235	26739.6875
905.0374	26711.4875
908.8298	26713.1875
912.61957	26713.0875
916.40671	26731.1875
920.19121	26827.1875
923.97308	26862.6875
927.75233	26846.4875
931.52895	26857.4875
935.30295	26759.3875
939.07433	26548.7875
942.84309	26388.6875
946.60924	26273.9875
950.37278	26194.1875
954.13371	26097.7875
957.89203	26067.0875
961.64774	26079.1875
965.40086	26044.5875
969.15137	25977.1875
972.89929	25958.5875
976.64461	25946.5875
980.38733	25895.3875
984.12747	25924.6875
987.86502	25984.7875
991.59999	25990.7875
995.33237	26108.0875
999.06217	26178.5875
1002.78939	26390.7875
1006.51404	26619.8875
1010.23611	26828.8875
1013.95561	26984.1875
1017.67255	27001.8875
1021.38692	26886.0875
1025.09872	26773.2875
1028.80796	26566.4875
1032.51465	26517.5875
1036.21877	26504.0875
1039.92035	26528.7875
1043.61937	26572.5875
1047.31584	26646.6875
1051.00976	26736.3875
1054.70114	26810.5875
1058.38998	26886.9875
1062.07627	27053.3875
1065.76003	27214.2875
1069.44126	27422.2875
1073.11995	27704.9875
1076.79611	27976.9875
1080.46974	28126.4875
1084.14085	28091.3875
1087.80943	28090.3875
1091.47549	28180.0875
1095.13903	28176.8875
1098.80005	28096.1875
1102.45857	27807.5875
1106.11456	27657.4875
1109.76805	27532.5875
1113.41903	27460.8875
1117.06751	27484.1875
1120.71348	27565.7875
1124.35696	27690.0875
1127.99793	27834.0875
1131.63641	27878.4875
1135.2724	27754.9875
1138.90589	27625.7875
1142.5369	27491.1875
1146.16542	27386.6875
1149.79145	27371.1875
1153.415	27325.6875
1157.03607	27362.6875
1160.65467	27491.6875
1164.27079	27843.4875
1167.88443	28325.3875
1171.49561	28991.0875
1175.10432	29873.0875
1178.71056	31044.4875
1182.31434	32244.3875
1185.91565	32962.1875
1189.51451	33329.6875
1193.11091	33200.0875
1196.70485	32661.4875
1200.29634	31971.0875
1203.88538	31271.0875
1207.47197	30530.9875
1211.05612	29888.3875
1214.63782	29406.7875
1218.21708	29079.5875
1221.79391	28744.2875
1225.36829	28586.9875
1228.94024	28524.8875
1232.50976	28486.2875
1236.07685	28521.8875
1239.6415	28559.8875
1243.20374	28590.6875
1246.76355	28648.2875
1250.32093	28802.3875
1253.8759	29013.4875
1257.42845	29346.6875
1260.97859	29736.8875
1264.52631	30095.9875
1268.07163	30457.2875
1271.61453	30793.5875
1275.15503	31081.8875
1278.69312	31314.2875
1282.22882	31448.2875
1285.76211	31656.0875
1289.29301	31922.5875
1292.82151	32230.0875
1296.34761	32644.1875
1299.87133	33181.4875
1303.39266	33901.4875
1306.9116	34857.9875
1310.42815	35821.8875
1313.94233	36369.2875
1317.45412	36299.5875
1320.96354	35923.0875
1324.47058	35660.6875
1327.97525	35230.7875
1331.47754	35007.6875
1334.97747	35002.1875
1338.47502	35257.7875
1341.97022	35690.4875
1345.46305	36287.8875
1348.95352	36895.8875
1352.44163	37394.9875
1355.92738	37780.1875
1359.41078	38300.7875
1362.89183	38805.5875
1366.37053	38217.6875
1369.84688	36106.3875
1373.32088	33742.2875
1376.79254	32055.2875
1380.26186	31065.5875
1383.72883	30581.7875
1387.19347	30233.6875
1390.65578	29786.6875
1394.11575	29429.2875
1397.57339	29145.5875
1401.0287	29046.5875
1404.48168	29004.5875
1407.93234	29024.5875
1411.38068	28996.3875
1414.82669	28912.2875
1418.27039	28622.7875
1421.71177	28309.5875
1425.15083	28054.0875
1428.58758	27902.1875
1432.02203	27919.0875
1435.45416	27999.5875
1438.88399	28165.4875
1442.31151	28231.7875
1445.73673	28268.3875
1449.15965	28362.4875
1452.58027	28426.2875
1455.9986	28461.7875
1459.41463	28628.2875
1462.82837	28905.0875
1466.23982	29256.5875
1469.64898	29586.0875
1473.05586	29839.0875
1476.46045	30004.7875
1479.86276	30113.0875
1483.26279	30203.5875
1486.66054	30362.5875
1490.05602	30640.8875
1493.44922	31051.2875
1496.84016	31759.7875
1500.22882	32802.2875
1503.61521	34181.9875
1506.99934	35499.9875
1510.38121	36351.9875
1513.76081	36296.0875
1517.13816	35212.8875
1520.51324	33787.3875
1523.88607	32557.0875
1527.25665	31655.4875
1530.62498	31263.4875
1533.99105	30928.8875
1537.35488	30684.9875
1540.71647	30472.8875
1544.07581	30203.9875
1547.4329	29999.3875
1550.78776	29828.5875
1554.14038	29680.5875
1557.49077	29618.1875
1560.83892	29647.3875
1564.18484	29761.3875
1567.52853	29949.8875
1570.86999	30156.5875
1574.20922	30370.7875
1577.54624	30413.6875
1580.88103	30129.8875
1584.2136	29654.3875
1587.54395	29440.5875
1590.87208	29527.9875
1594.19801	30016.7875
1597.52172	30667.7875
1600.84321	31006.9875
1604.16251	30811.6875
1607.47959	30195.6875
1610.79447	29421.8875
1614.10715	28577.6875
1617.41763	27561.3875
1620.7259	26810.0875
1624.03199	26357.4875
1627.33587	26154.8875
1630.63757	26247.1875
1633.93707	26643.7875
1637.23439	27453.1875
1640.52951	28600.8875
1643.82246	30181.7875
1647.11321	31527.1875
1650.40179	32204.0875
1653.68819	31591.5875
1656.97241	29802.4875
1660.25446	27850.6875
1663.53433	26282.4875
1666.81203	25254.8875
1670.08756	24596.5875
1673.36092	24143.1875
1676.63211	23854.7875
1679.90115	23625.8875
1683.16801	23473.8875
1686.43272	23335.7875
1689.69527	23235.4875
1692.95567	23136.0875
1696.2139	23118.1875
1699.46999	23061.6875
1702.72392	23013.7875
1705.97571	22990.8875
1709.22535	22949.0875
1712.47284	22942.0875
1715.71819	22941.6875
1718.96139	22893.1875
1722.20246	22821.6875
1725.44139	22774.3875
1728.67818	22749.6875
1731.91284	22603.8875
1735.14537	22509.7875
1738.37576	22461.9875
1741.60403	22385.8875
1744.83017	22290.1875
1748.05418	22311.4875
1751.27607	22276.8875
1754.49584	22225.2875
1757.71349	22208.5875
1760.92903	22191.1875
1764.14244	22189.6875
1767.35375	22166.9875
1770.56294	22136.5875
1773.77002	22083.4875
1776.97499	22080.5875
1780.17785	22022.7875
1783.37861	22002.7875
1786.57727	21984.2875
1789.77382	21902.3875
1792.96828	21882.4875
1796.16064	21813.2875
1799.3509	21816.9875
1802.53907	21726.6875
1805.72514	21696.9875
1808.90913	21671.7875
1812.09102	21644.0875
1815.27083	21603.7875
1818.44856	21568.7875
1821.6242	21501.2875
1824.79776	21500.9875
1827.96924	21486.3875
1831.13864	21459.6875
1834.30597	21443.4875
1837.47122	21436.9875
1840.6344	21397.7875
1843.7955	21401.8875
1846.95454	21401.8875
1850.11151	21358.4875
1853.26642	21329.0875
1856.41926	21339.1875
1859.57004	21344.0875
1862.71876	21281.7875
1865.86542	21260.4875
1869.01003	21219.5875
1872.15258	21146.2875
1875.29308	21150.1875
1878.43152	21117.0875
1881.56792	21132.4875
1884.70227	21113.6875
1887.83457	21073.7875
1890.96482	21009.1875
1894.09304	20987.8875
1897.21921	20957.4875
1900.34335	20946.3875
1903.46544	20926.3875
1906.58551	20873.1875
1909.70353	20817.1875
1912.81953	20780.1875
1915.93349	20762.2875
1919.04543	20747.5875
1922.15534	20694.0875
1925.26322	20642.1875
1928.36908	20626.8875
1931.47292	20604.3875
1934.57473	20529.5875
1937.67453	20461.4875
1940.77232	20412.7875
1943.86808	20334.4875
1946.96184	20304.0875
1950.05358	20232.9875
1953.14331	20199.6875
1956.23103	20098.3875
1959.31675	20074.1875
1962.40046	19985.7875
1965.48217	19971.9875
1968.56188	19904.4875
1971.63959	19837.4875
1974.7153	19776.6875
1977.78901	19703.6875
1980.86073	19675.2875
1983.93046	19602.9875
1986.99819	19571.1875
1990.06394	19490.9875
1993.1277	19409.2875
1996.18947	19331.4875
1999.24925	19308.6875
2002.30706	19215.2875
2005.36288	19150.6875
2008.41672	19142.0875
2011.46859	19083.1875
2014.51848	19022.6875
2017.56639	18987.7875
2020.61233	18928.4875
2023.6563	18855.2875
2026.6983	18778.6875
2029.73833	18763.7875
2032.7764	18702.2875
2035.8125	18656.9875
2038.84664	18601.2875
2041.87881	18555.2875
2044.90903	18542.3875
2047.93729	18481.2875
2050.96359	18454.7875
2053.98794	18427.9875
2057.01034	18413.4875
2060.03078	18394.8875
2063.04927	18361.7875
2066.06582	18381.3875
2069.08042	18394.4875
2072.09307	18325.9875
2075.10378	18312.4875
2078.11255	18324.6875
2081.11938	18320.3875
2084.12426	18280.5875
2087.12722	18276.1875
2090.12824	18256.6875
2093.12732	18288.7875
2096.12447	18278.0875
2099.11969	18222.3875
2102.11299	18260.6875
2105.10435	18279.5875
2108.09379	18306.6875
2111.08131	18282.9875
2114.0669	18286.6875
2117.05057	18326.3875
2120.03233	18326.0875
2123.01216	18361.9875
2125.99008	18317.6875
2128.96609	18337.4875
2131.94018	18362.5875
2134.91236	18369.3875
2137.88263	18425.6875
2140.851	18373.2875
2143.81746	18386.9875
2146.78201	18396.1875
2149.74466	18413.7875
2152.7054	18390.3875
2155.66425	18365.0875
2158.6212	18369.6875
2161.57625	18376.4875
2164.52941	18366.3875
2167.48067	18370.3875
2170.43004	18359.6875
2173.37752	18371.9875
2176.32311	18321.5875
2179.26681	18277.3875
2182.20863	18314.9875
2185.14856	18245.1875
2188.08661	18273.7875
2191.02278	18283.5875
2193.95707	18241.9875
2196.88948	18249.6875
2199.82001	18253.7875
2202.74867	18212.4875
2205.67545	18192.5875
2208.60037	18158.9875
2211.52341	18119.6875
2214.44458	18107.7875
2217.36388	18046.2875
2220.28132	18015.6875
2223.1969	17956.4875
2226.11061	17953.7875
2229.02246	17910.6875
2231.93245	17899.5875
2234.84058	17833.3875
2237.74686	17779.2875
2240.65128	17797.1875
2243.55385	17762.3875
2246.45456	17747.3875
2249.35343	17738.4875
2252.25044	17686.4875
2255.14561	17647.9875
2258.03893	17623.3875
2260.93041	17574.3875
2263.82004	17567.3875
2266.70783	17502.7875
2269.59378	17469.1875
2272.4779	17425.9875
2275.36017	17383.3875
2278.24061	17342.0875
2281.11922	17308.1875
2283.996	17257.9875
2286.87094	17245.6875
2289.74405	17213.2875
2292.61534	17209.1875
2295.4848	17143.8875
2298.35243	17135.1875
2301.21824	17117.0875
2304.08223	17135.9875
2306.94439	17097.2875
2309.80474	17069.4875
2312.66327	17074.9875
2315.51999	17019.4875
2318.37489	17010.7875
2321.22797	16967.2875
2324.07925	16950.2875
2326.92871	16935.7875
2329.77637	16917.7875
2332.62222	16872.2875
2335.46626	16807.3875
2338.3085	16801.1875
2341.14893	16787.3875
2343.98756	16785.1875
2346.8244	16724.9875
2349.65943	16720.8875
2352.49267	16702.7875
2355.32411	16717.4875
2358.15376	16701.0875
2360.98161	16668.6875
2363.80768	16666.6875
2366.63195	16642.9875
2369.45444	16641.9875
2372.27514	16600.6875
2375.09405	16566.8875
2377.91118	16561.2875
2380.72652	16530.2875
2383.54009	16473.9875
2386.35187	16462.5875
2389.16188	16448.8875
2391.97011	16389.2875
2394.77657	16330.9875
2397.58125	16315.8875
2400.38416	16288.0875
2403.18529	16253.3875
2405.98466	16228.5875
2408.78226	16199.5875
2411.57809	16190.5875
2414.37216	16137.7875
2417.16446	16156.9875
2419.955	16101.2875
2422.74378	16092.4875
2425.5308	16089.4875
2428.31606	16056.6875
2431.09956	16023.8875
2433.88131	16014.9875
2436.6613	16003.0875
2439.43954	15989.3875
2442.21603	15953.7875
2444.99077	15932.0875
2447.76377	15938.7875
2450.53501	15921.0875
2453.30451	15885.8875
2456.07226	15893.8875
2458.83827	15882.8875
2461.60254	15831.7875
2464.36507	15821.1875
2467.12586	15834.9875
2469.88492	15780.3875
2472.64224	15770.7875
2475.39782	15749.2875
2478.15167	15730.1875
2480.90379	15703.9875
2483.65417	15697.9875
2486.40283	15695.9875
2489.14976	15699.3875
2491.89497	15665.5875
2494.63845	15662.0875
2497.3802	15608.4875
2500.12024	15585.0875
2502.85855	15601.7875
2505.59514	15571.8875
2508.33002	15546.6875
2511.06318	15537.3875
2513.79462	15515.3875
2516.52435	15482.3875
2519.25237	15474.4875
2521.97867	15453.4875
2524.70327	15460.6875
2527.42616	15415.4875
2530.14734	15403.1875
2532.86681	15383.3875
2535.58458	15357.2875
2538.30065	15307.9875
2541.01501	15300.5875
2543.72768	15265.6875
2546.43864	15252.3875
2549.14791	15228.3875
2551.85548	15190.7875
2554.56136	15141.1875
2557.26554	15135.0875
2559.96803	15083.0875
2562.66883	15076.0875
2565.36794	15054.0875
2568.06536	15026.9875
2570.7611	15009.0875
2573.45514	14941.0875
2576.14751	14930.5875
2578.83819	14911.3875
2581.52719	14875.9875
2584.21451	14851.7875
2586.90015	14857.9875
2589.58411	14776.3875
2592.2664	14752.6875
2594.94701	14742.1875
2597.62594	14735.4875
2600.30321	14661.9875
2602.9788	14664.6875
2605.65273	14637.6875
2608.32498	14621.8875
2610.99557	14583.0875
2613.66449	14550.3875
2616.33175	14529.6875
2618.99734	14522.3875
2621.66128	14464.8875
2624.32355	14473.2875
2626.98416	14419.2875
2629.64311	14422.8875
2632.30041	14398.6875
2634.95605	14373.0875
2637.61004	14369.5875
2640.26238	14309.9875
2642.91306	14303.3875
2645.56209	14330.8875
2648.20948	14289.6875
2650.85521	14275.2875
2653.4993	14261.5875
2656.14175	14256.3875
2658.78255	14267.7875
2661.42171	14270.7875
2664.05923	14240.5875
2666.6951	14239.9875
2669.32934	14219.5875
2671.96194	14245.7875
2674.59291	14222.7875
2677.22224	14213.8875
2679.84993	14221.6875
2682.476	14192.2875
2685.10043	14218.3875
2687.72324	14184.9875
2690.34441	14208.5875
2692.96396	14175.9875
2695.58188	14195.9875
2698.19818	14177.9875
2700.81285	14170.4875
2703.4259	14156.8875
2706.03733	14217.3875
2708.64714	14174.8875
2711.25533	14185.9875
2713.86191	14150.1875
2716.46687	14187.4875
2719.07021	14149.9875
2721.67194	14166.0875
2724.27206	14127.3875
2726.87057	14126.1875
2729.46747	14133.9875
2732.06276	14145.8875
2734.65644	14090.3875
2737.24852	14093.0875
2739.83899	14070.7875
2742.42786	14073.6875
2745.01513	14066.3875
2747.60079	14012.3875
2750.18486	13974.7875
2752.76733	13991.8875
2755.3482	13978.1875
2757.92747	13956.2875
2760.50515	13900.8875
2763.08123	13912.7875
2765.65573	13864.1875
2768.22863	13841.9875
2770.79994	13830.8875
2773.36967	13833.1875
2775.9378	13791.4875
2778.50435	13769.4875
2781.06932	13729.6875
2783.6327	13705.3875
2786.1945	13695.0875
2788.75471	13701.3875
2791.31335	13619.4875
2793.87041	13613.9875
2796.42589	13545.8875
2798.97979	13538.6875
2801.53212	13496.1875
2804.08288	13494.4875
2806.63206	13435.6875
2809.17967	13447.7875
2811.72571	13389.5875
2814.27018	13383.2875
2816.81308	13365.0875
2819.35442	13347.0875
2821.89419	13303.9875
2824.43239	13283.5875
2826.96904	13246.8875
2829.50412	13218.3875
2832.03763	13242.2875
2834.56959	13198.7875
2837.1	13179.2875
2839.62884	13163.2875
2842.15613	13145.5875
2844.68186	13135.7875
2847.20604	13133.8875
2849.72867	13115.7875
2852.24974	13108.0875
2854.76927	13094.4875
2857.28724	13043.9875
2859.80367	13029.4875
2862.31855	12980.4875
2864.83189	12987.2875
2867.34368	12983.2875
2869.85393	12979.3875
2872.36264	12964.2875
2874.8698	12948.9875
2877.37543	12953.6875
2879.87952	12948.0875
2882.38207	12951.4875
2884.88308	12950.5875
2887.38256	12905.2875
2889.88051	12921.6875
2892.37692	12912.6875
2894.8718	12901.4875
2897.36515	12921.6875
2899.85698	12905.7875
2902.34727	12917.0875
2904.83604	12916.8875
2907.32328	12919.2875
2909.809	12867.0875
2912.29319	12903.3875
2914.77587	12898.7875
2917.25702	12888.8875
2919.73665	12869.8875
2922.21476	12843.1875
2924.69136	12839.8875
2927.16644	12851.6875
2929.64	12823.4875
2932.11205	12786.4875
2934.58258	12768.0875
2937.05161	12758.0875
2939.51912	12750.1875
2941.98513	12754.9875
2944.44962	12726.9875
2946.91261	12680.4875
2949.37409	12719.7875
2951.83407	12698.6875
2954.29254	12697.9875
2956.74951	12682.5875
2959.20498	12674.6875
2961.65895	12647.2875
2964.11142	12656.1875
2966.56239	12593.7875
2969.01186	12613.3875
2971.45984	12558.6875
2973.90632	12601.1875
2976.35131	12529.9875
2978.7948	12525.3875
2981.23681	12470.4875
2983.67732	12470.6875
2986.11635	12448.8875
2988.55388	12403.1875
2990.98993	12387.0875
2993.4245	12394.7875
2995.85758	12354.2875
2998.28917	12295.4875
3000.71928	12304.8875
3003.14791	12287.4875
3005.57506	12276.0875
3008.00073	12236.4875
3010.42493	12231.7875
3012.84764	12210.7875
3015.26888	12195.3875
3017.68865	12171.7875
3020.10694	12168.2875
3022.52376	12127.1875
3024.9391	12109.4875
3027.35298	12103.9875
3029.76539	12060.3875
3032.17632	12040.2875
3034.5858	12014.8875
3036.9938	12014.2875
3039.40034	11972.9875
3041.80542	11975.3875
3044.20903	11920.5875
3046.61118	11927.9875
3049.01187	11904.0875
3051.4111	11880.7875
3053.80888	11845.7875
3056.20519	11851.4875
3058.60005	11818.5875
3060.99345	11816.1875
3063.3854	11798.1875
3065.7759	11762.2875
3068.16494	11715.0875
3070.55254	11691.1875
3072.93868	11688.6875
3075.32338	11669.5875
3077.70662	11632.9875
3080.08842	11612.9875
3082.46878	11594.7875
3084.84769	11588.9875
3087.22515	11594.2875
3089.60118	11557.5875
3091.97576	11529.4875
3094.3489	11528.5875
3096.72061	11523.0875
3099.09087	11519.4875
3101.4597	11505.3875
3103.82709	11551.2875
3106.19305	11523.7875
3108.55757	11502.5875
3110.92066	11454.1875
3113.28232	11425.2875
3115.64255	11418.9875
3118.00134	11402.0875
3120.35871	11377.9875
3122.71466	11316.7875
3125.06917	11299.0875
3127.42226	11304.0875
3129.77393	11296.6875
3132.12417	11295.3875
3134.47299	11293.0875
3136.82039	11286.8875
3139.16636	11278.4875
3141.51092	11284.0875
3143.85406	11292.7875
3146.19579	11305.3875
3148.53609	11311.9875
3150.87499	11323.8875
3153.21246	11316.7875
3155.54853	11293.7875
3157.88318	11293.6875
3160.21642	11299.9875
3162.54826	11271.0875
3164.87868	11249.9875
3167.2077	11247.6875
3169.5353	11260.7875
3171.86151	11267.8875
3174.18631	11212.3875
3176.5097	11198.6875
3178.83169	11194.4875
3181.15228	11183.3875
3183.47147	11155.6875
3185.78926	11152.9875
3188.10565	11125.9875
3190.42065	11129.4875
3192.73424	11119.1875
3195.04645	11138.1875
3197.35725	11098.7875
3199.66667	11110.3875
3201.97469	11141.2875
3204.28132	11144.8875
3206.58656	11125.2875
3208.8904	11121.1875
3211.19287	11104.2875
3213.49394	11127.5875
3215.79363	11102.7875
3218.09193	11115.5875
3220.38884	11105.1875
3222.68438	11073.1875
3224.97853	11074.5875
3227.2713	11045.0875
3229.56269	11046.5875
3231.8527	11023.6875
3234.14133	10982.0875
3236.42858	10971.7875
3238.71446	10934.2875
3240.99896	10958.3875
3243.28209	10939.1875
3245.56384	10940.3875
3247.84423	10943.7875
3250.12324	10908.4875
3252.40088	10922.3875
3254.67715	10897.7875
3256.95205	10868.0875
3259.22558	10864.8875
3261.49775	10847.1875
3263.76855	10818.7875
3266.03799	10815.5875
3268.30606	10796.9875
3270.57277	10774.5875
3272.83812	10751.1875
3275.10211	10721.6875
3277.36474	10716.0875
3279.62601	10702.2875
3281.88593	10696.4875
3284.14448	10694.7875
3286.40168	10655.2875
3288.65753	10651.4875
3290.91202	10593.8875
3293.16516	10557.6875
3295.41695	10547.1875
3297.66738	10512.0875
3299.91647	10432.2875
3302.16421	10344.7875
3304.4106	10356.9875
3306.65564	10314.8875
3308.89933	10242.2875
3311.14169	10202.4875
3313.38269	10111.5875
3315.62236	10054.7875
3317.86068	9966.1875
3320.09766	9846.1875
3322.3333	9783.4875
3324.5676	9775.2875
3326.80056	9633.0875
3329.03219	9586.6875
3331.26248	2.9875
3333.49143	0.7875
3335.71905	-1.2125
