Data from AgNPs_FTO_APTES_UA_10uM_R6G_10uM_NaF_0.1M_Addition_RamanShift__35__13-50-47-342.txt Node

Date: Fri Dec 17 13:50:47 GMT 2021
User: TCL
Spectrometer: QEP01345
Trigger mode: 4
Integration Time (sec): 7.000000E0
Scans to average: 10
Electric dark correction enabled: true
Nonlinearity correction enabled: false
Boxcar width: 0
XAxis mode: Raman Shifts
Number of Pixels in Spectrum: 1044
>>>>>Begin Spectral Data<<<<<
46.04893	-1.0625
50.45542	-2.2625
54.85868	-1.3625
59.25871	0.1375
63.6555	133.1375
68.04907	139.0375
72.43941	140.9375
76.82654	148.8375
81.21044	152.6375
85.59113	157.9375
89.96862	165.6375
94.34289	167.0375
98.71396	171.7375
103.08183	177.3375
107.4465	179.8375
111.80798	189.8375
116.16626	195.9375
120.52136	203.8375
124.87327	213.7375
129.222	228.8375
133.56755	244.7375
137.90993	267.4375
142.24913	297.5375
146.58517	332.9375
150.91804	390.0375
155.24774	464.9375
159.57429	587.1375
163.89768	750.0375
168.21792	998.9375
172.53501	1359.4375
176.84895	1901.5375
181.15975	2684.7375
185.46741	3776.3375
189.77193	5217.0375
194.07331	6986.2375
198.37157	9043.8375
202.6667	11200.2375
206.9587	13333.5375
211.24758	15424.1375
215.53334	17514.4375
219.81599	19691.5375
224.09553	22068.5375
228.37195	24751.6375
232.64527	27592.1375
236.91549	30687.3375
241.18261	33893.0375
245.44663	36925.8375
249.70755	39765.6375
253.96539	42164.1375
258.22014	44165.5375
262.4718	45830.5375
266.72039	46931.7375
270.96589	47530.3375
275.20832	47535.9375
279.44768	47144.4375
283.68397	46610.9375
287.91719	46049.0375
292.14735	45592.0375
296.37445	45353.8375
300.59849	45234.0375
304.81948	45270.5375
309.03742	45229.6375
313.25231	45095.1375
317.46415	44661.4375
321.67296	44130.6375
325.87872	43766.9375
330.08145	43631.3375
334.28114	43765.3375
338.47781	44073.5375
342.67145	44656.6375
346.86207	45306.4375
351.04966	46079.5375
355.23424	46973.0375
359.4158	47709.8375
363.59435	48518.3375
367.76989	49045.5375
371.94243	49453.4375
376.11196	49803.4375
380.27849	50063.5375
384.44203	50477.5375
388.60257	50891.1375
392.76012	51308.4375
396.91468	51886.8375
401.06626	52504.3375
405.21485	53117.1375
409.36047	53205.2375
413.50311	52977.4375
417.64277	52929.2375
421.77947	53122.4375
425.9132	53445.5375
430.04396	53680.2375
434.17176	53870.7375
438.2966	54156.1375
442.41849	54798.2375
446.53742	55942.4375
450.6534	57124.2375
454.76644	58055.2375
458.87653	58464.0375
462.98368	58224.9375
467.08789	57428.1375
471.18916	56631.4375
475.2875	55648.7375
479.38291	54778.6375
483.4754	54100.1375
487.56496	53732.2375
491.6516	53531.8375
495.73531	53506.0375
499.81612	53757.5375
503.89401	54277.2375
507.96899	54499.6375
512.04106	54501.6375
516.11023	54323.2375
520.1765	54048.4375
524.23987	53784.9375
528.30034	53487.3375
532.35792	53217.0375
536.41261	52750.1375
540.46441	52254.9375
544.51333	52160.8375
548.55936	52333.6375
552.60252	52848.6375
556.64279	53509.9375
560.6802	54136.3375
564.71473	54442.6375
568.7464	54868.7375
572.7752	55597.2375
576.80114	56675.4375
580.82422	58069.3375
584.84444	60022.2375
588.86181	62311.5375
592.87633	63830.3375
596.888	63541.5375
600.89682	62150.2375
604.9028	62211.5375
608.90594	65394.2375
612.90624	68576.5375
616.90371	65544.0375
620.89834	58739.5375
624.89015	55521.6375
628.87913	54945.9375
632.86528	54876.3375
636.84862	54634.5375
640.82913	53932.0375
644.80683	53078.2375
648.78172	52476.9375
652.75379	52607.8375
656.72306	53185.4375
660.68952	53870.6375
664.65319	53749.0375
668.61405	53230.2375
672.57211	53348.0375
676.52738	53697.1375
680.47986	53570.5375
684.42955	53260.0375
688.37646	53143.5375
692.32058	53577.6375
696.26192	54294.2375
700.20048	55021.1375
704.13626	55186.3375
708.06928	54869.6375
711.99952	54498.9375
715.927	54491.6375
719.85171	54799.7375
723.77365	54760.5375
727.69284	54055.7375
731.60928	53438.9375
735.52295	53115.2375
739.43388	53070.5375
743.34206	53234.2375
747.24749	53478.4375
751.15017	53786.7375
755.05012	54253.7375
758.94733	55234.8375
762.8418	56569.2375
766.73354	58673.9375
770.62254	60693.6375
774.50882	61357.4375
778.39237	60224.9375
782.27321	57959.5375
786.15132	56039.8375
790.02671	54682.7375
793.89938	54106.1375
797.76935	53928.5375
801.6366	53876.3375
805.50115	53807.2375
809.36299	53626.5375
813.22213	53303.5375
817.07857	52986.6375
820.93231	52733.4375
824.78336	52643.3375
828.63172	52672.8375
832.47738	52673.6375
836.32036	52806.0375
840.16066	52849.4375
843.99827	53034.2375
847.8332	52995.1375
851.66546	52889.5375
855.49504	52884.7375
859.32195	52982.9375
863.1462	52906.2375
866.96777	52843.3375
870.78668	52813.3375
874.60293	52890.3375
878.41652	52965.8375
882.22745	53097.1375
886.03573	53345.0375
889.84136	53392.2375
893.64433	53123.5375
897.44466	52816.3375
901.24235	52589.8375
905.0374	52481.2375
908.8298	52388.6375
912.61957	52436.0375
916.40671	52719.3375
920.19121	53022.8375
923.97308	53512.9375
927.75233	53780.7375
931.52895	53726.0375
935.30295	53336.5375
939.07433	52786.7375
942.84309	52485.6375
946.60924	52421.5375
950.37278	52387.6375
954.13371	52320.5375
957.89203	52155.5375
961.64774	52030.3375
965.40086	52055.4375
969.15137	52048.6375
972.89929	52106.2375
976.64461	52245.8375
980.38733	52450.2375
984.12747	52684.7375
987.86502	52989.9375
991.59999	53354.5375
995.33237	53972.7375
999.06217	54953.1375
1002.78939	56191.0375
1006.51404	57225.9375
1010.23611	58062.7375
1013.95561	58424.0375
1017.67255	58272.2375
1021.38692	57691.7375
1025.09872	57190.4375
1028.80796	57226.5375
1032.51465	58214.0375
1036.21877	59148.4375
1039.92035	59408.2375
1043.61937	58969.4375
1047.31584	58104.0375
1051.00976	57115.2375
1054.70114	56511.6375
1058.38998	56407.7375
1062.07627	56575.9375
1065.76003	56840.0375
1069.44126	57232.1375
1073.11995	57877.1375
1076.79611	58622.9375
1080.46974	59139.4375
1084.14085	59477.3375
1087.80943	59635.6375
1091.47549	59773.2375
1095.13903	59545.4375
1098.80005	58888.1375
1102.45857	58118.0375
1106.11456	57679.2375
1109.76805	57411.2375
1113.41903	57296.5375
1117.06751	57245.2375
1120.71348	57374.3375
1124.35696	57623.6375
1127.99793	57857.6375
1131.63641	58161.4375
1135.2724	58016.3375
1138.90589	57942.2375
1142.5369	57932.5375
1146.16542	58056.6375
1149.79145	58208.8375
1153.415	58371.0375
1157.03607	58647.4375
1160.65467	59624.2375
1164.27079	61278.9375
1167.88443	63297.6375
1171.49561	65439.4375
1175.10432	67990.3375
1178.71056	71480.3375
1182.31434	75120.8375
1185.91565	77397.5375
1189.51451	77807.3375
1193.11091	76592.9375
1196.70485	74698.3375
1200.29634	72779.3375
1203.88538	71434.7375
1207.47197	70619.4375
1211.05612	69846.4375
1214.63782	68849.2375
1218.21708	67761.9375
1221.79391	66715.4375
1225.36829	66023.9375
1228.94024	65410.0375
1232.50976	64687.7375
1236.07685	64019.6375
1239.6415	63670.2375
1243.20374	63722.8375
1246.76355	64306.5375
1250.32093	65273.4375
1253.8759	66403.6375
1257.42845	67793.2375
1260.97859	69308.1375
1264.52631	70973.2375
1268.07163	72898.3375
1271.61453	74885.3375
1275.15503	76536.1375
1278.69312	78015.3375
1282.22882	79053.7375
1285.76211	80028.6375
1289.29301	81260.0375
1292.82151	83119.1375
1296.34761	85430.4375
1299.87133	88962.6375
1303.39266	93093.4375
1306.9116	97236.5375
1310.42815	100512.9375
1313.94233	101886.0375
1317.45412	101135.8375
1320.96354	99132.1375
1324.47058	97397.5375
1327.97525	96302.0375
1331.47754	95829.2375
1334.97747	95795.6375
1338.47502	95511.3375
1341.97022	94461.8375
1345.46305	92688.2375
1348.95352	91327.6375
1352.44163	91199.3375
1355.92738	93079.9375
1359.41078	96338.9375
1362.89183	98935.2375
1366.37053	97688.8375
1369.84688	92003.0375
1373.32088	84542.9375
1376.79254	79148.4375
1380.26186	76886.9375
1383.72883	76568.4375
1387.19347	76341.2375
1390.65578	75487.6375
1394.11575	74783.0375
1397.57339	74896.0375
1401.0287	75569.6375
1404.48168	76635.2375
1407.93234	77501.0375
1411.38068	77733.3375
1414.82669	76943.8375
1418.27039	75376.3375
1421.71177	73453.0375
1425.15083	71967.2375
1428.58758	71504.2375
1432.02203	72333.6375
1435.45416	74010.3375
1438.88399	75629.4375
1442.31151	76667.8375
1445.73673	76776.9375
1449.15965	76512.1375
1452.58027	76034.3375
1455.9986	75451.8375
1459.41463	75619.1375
1462.82837	76691.6375
1466.23982	78178.5375
1469.64898	79514.5375
1473.05586	80489.6375
1476.46045	80774.6375
1479.86276	80556.3375
1483.26279	80089.3375
1486.66054	79853.4375
1490.05602	80156.8375
1493.44922	80478.2375
1496.84016	80332.4375
1500.22882	80506.0375
1503.61521	81090.5375
1506.99934	82044.4375
1510.38121	82881.2375
1513.76081	82648.5375
1517.13816	81110.0375
1520.51324	79036.0375
1523.88607	77235.2375
1527.25665	76408.5375
1530.62498	76311.5375
1533.99105	76310.0375
1537.35488	76013.5375
1540.71647	75268.2375
1544.07581	74331.8375
1547.4329	73561.5375
1550.78776	72779.8375
1554.14038	71992.6375
1557.49077	71531.3375
1560.83892	71156.7375
1564.18484	70848.8375
1567.52853	70762.9375
1570.86999	71032.8375
1574.20922	71605.4375
1577.54624	72341.0375
1580.88103	72804.0375
1584.2136	73666.8375
1587.54395	75790.8375
1590.87208	79672.3375
1594.19801	84463.2375
1597.52172	88760.3375
1600.84321	90038.9375
1604.16251	86978.0375
1607.47959	81114.8375
1610.79447	74880.9375
1614.10715	69579.9375
1617.41763	65513.7375
1620.7259	63005.6375
1624.03199	61856.7375
1627.33587	62017.9375
1630.63757	63387.9375
1633.93707	66263.3375
1637.23439	70810.3375
1640.52951	77167.7375
1643.82246	84484.3375
1647.11321	89485.9375
1650.40179	89144.0375
1653.68819	82855.6375
1656.97241	73853.1375
1660.25446	65913.9375
1663.53433	60582.9375
1666.81203	57222.0375
1670.08756	55216.4375
1673.36092	53909.5375
1676.63211	53027.3375
1679.90115	52427.4375
1683.16801	51955.6375
1686.43272	51593.5375
1689.69527	51393.4375
1692.95567	51089.2375
1696.2139	50957.4375
1699.46999	50876.9375
1702.72392	50797.0375
1705.97571	50768.2375
1709.22535	50753.0375
1712.47284	50718.8375
1715.71819	50667.9375
1718.96139	50627.7375
1722.20246	50511.9375
1725.44139	50380.1375
1728.67818	50169.1375
1731.91284	49996.2375
1735.14537	49794.9375
1738.37576	49603.6375
1741.60403	49499.4375
1744.83017	49332.7375
1748.05418	49271.1375
1751.27607	49253.3375
1754.49584	49101.5375
1757.71349	49131.0375
1760.92903	49119.1375
1764.14244	49128.4375
1767.35375	49139.9375
1770.56294	49077.5375
1773.77002	49042.1375
1776.97499	48940.8375
1780.17785	48892.3375
1783.37861	48875.1375
1786.57727	48894.6375
1789.77382	48751.6375
1792.96828	48676.7375
1796.16064	48657.4375
1799.3509	48598.9375
1802.53907	48516.6375
1805.72514	48384.8375
1808.90913	48342.1375
1812.09102	48316.1375
1815.27083	48147.5375
1818.44856	48131.0375
1821.6242	48063.3375
1824.79776	47993.2375
1827.96924	48061.1375
1831.13864	47994.6375
1834.30597	48054.3375
1837.47122	48066.3375
1840.6344	48007.9375
1843.7955	48018.0375
1846.95454	48016.6375
1850.11151	47993.0375
1853.26642	47924.7375
1856.41926	47964.5375
1859.57004	47897.5375
1862.71876	47872.6375
1865.86542	47842.7375
1869.01003	47812.6375
1872.15258	47717.5375
1875.29308	47778.5375
1878.43152	47732.6375
1881.56792	47697.4375
1884.70227	47721.3375
1887.83457	47704.9375
1890.96482	47665.2375
1894.09304	47562.5375
1897.21921	47500.1375
1900.34335	47460.8375
1903.46544	47524.8375
1906.58551	47376.4375
1909.70353	47340.6375
1912.81953	47298.6375
1915.93349	47185.0375
1919.04543	47110.5375
1922.15534	47033.3375
1925.26322	46945.1375
1928.36908	46908.7375
1931.47292	46914.9375
1934.57473	46786.8375
1937.67453	46634.6375
1940.77232	46569.4375
1943.86808	46442.1375
1946.96184	46362.0375
1950.05358	46252.9375
1953.14331	46102.3375
1956.23103	45978.3375
1959.31675	45892.9375
1962.40046	45841.3375
1965.48217	45719.0375
1968.56188	45621.4375
1971.63959	45477.6375
1974.7153	45309.0375
1977.78901	45227.0375
1980.86073	45118.8375
1983.93046	44994.8375
1986.99819	44860.1375
1990.06394	44767.3375
1993.1277	44670.7375
1996.18947	44443.1375
1999.24925	44404.8375
2002.30706	44321.3375
2005.36288	44192.4375
2008.41672	44119.6375
2011.46859	44055.4375
2014.51848	43923.6375
2017.56639	43842.3375
2020.61233	43694.0375
2023.6563	43660.4375
2026.6983	43602.0375
2029.73833	43505.9375
2032.7764	43457.1375
2035.8125	43308.8375
2038.84664	43293.9375
2041.87881	43260.0375
2044.90903	43189.0375
2047.93729	43126.3375
2050.96359	43083.5375
2053.98794	43017.7375
2057.01034	42975.9375
2060.03078	42947.3375
2063.04927	42932.7375
2066.06582	42928.4375
2069.08042	42937.9375
2072.09307	42907.5375
2075.10378	42816.7375
2078.11255	42778.2375
2081.11938	42808.1375
2084.12426	42762.3375
2087.12722	42764.5375
2090.12824	42814.9375
2093.12732	42832.6375
2096.12447	42867.1375
2099.11969	42838.8375
2102.11299	42773.9375
2105.10435	42864.1375
2108.09379	42883.4375
2111.08131	43007.3375
2114.0669	42954.3375
2117.05057	43030.1375
2120.03233	43002.5375
2123.01216	43129.8375
2125.99008	43144.5375
2128.96609	43198.1375
2131.94018	43202.6375
2134.91236	43251.0375
2137.88263	43346.6375
2140.851	43320.5375
2143.81746	43465.7375
2146.78201	43413.8375
2149.74466	43446.0375
2152.7054	43428.9375
2155.66425	43461.0375
2158.6212	43466.8375
2161.57625	43487.9375
2164.52941	43436.3375
2167.48067	43474.3375
2170.43004	43478.4375
2173.37752	43438.0375
2176.32311	43458.1375
2179.26681	43516.0375
2182.20863	43468.7375
2185.14856	43480.4375
2188.08661	43471.5375
2191.02278	43441.4375
2193.95707	43388.2375
2196.88948	43413.7375
2199.82001	43513.7375
2202.74867	43446.9375
2205.67545	43418.7375
2208.60037	43358.1375
2211.52341	43309.5375
2214.44458	43308.6375
2217.36388	43231.5375
2220.28132	43185.9375
2223.1969	43078.6375
2226.11061	43033.0375
2229.02246	43002.9375
2231.93245	42965.8375
2234.84058	42883.8375
2237.74686	42882.9375
2240.65128	42823.1375
2243.55385	42702.0375
2246.45456	42679.6375
2249.35343	42660.0375
2252.25044	42514.0375
2255.14561	42458.2375
2258.03893	42431.7375
2260.93041	42385.3375
2263.82004	42325.1375
2266.70783	42239.3375
2269.59378	42158.5375
2272.4779	42098.8375
2275.36017	42052.3375
2278.24061	41973.6375
2281.11922	41833.6375
2283.996	41752.4375
2286.87094	41764.0375
2289.74405	41726.9375
2292.61534	41678.4375
2295.4848	41704.4375
2298.35243	41648.9375
2301.21824	41696.5375
2304.08223	41716.5375
2306.94439	41705.9375
2309.80474	41749.1375
2312.66327	41713.2375
2315.51999	41698.1375
2318.37489	41690.0375
2321.22797	41649.1375
2324.07925	41582.2375
2326.92871	41552.4375
2329.77637	41491.5375
2332.62222	41464.9375
2335.46626	41399.4375
2338.3085	41350.7375
2341.14893	41407.1375
2343.98756	41361.4375
2346.8244	41375.1375
2349.65943	41350.4375
2352.49267	41313.3375
2355.32411	41274.1375
2358.15376	41211.5375
2360.98161	41218.2375
2363.80768	41144.1375
2366.63195	41103.4375
2369.45444	41031.2375
2372.27514	40992.5375
2375.09405	40994.8375
2377.91118	40884.4375
2380.72652	40825.0375
2383.54009	40786.9375
2386.35187	40767.5375
2389.16188	40676.8375
2391.97011	40619.4375
2394.77657	40616.0375
2397.58125	40536.5375
2400.38416	40502.8375
2403.18529	40419.6375
2405.98466	40368.9375
2408.78226	40257.8375
2411.57809	40244.4375
2414.37216	40244.3375
2417.16446	40264.9375
2419.955	40163.4375
2422.74378	40140.0375
2425.5308	40103.9375
2428.31606	40020.6375
2431.09956	40049.0375
2433.88131	39974.1375
2436.6613	40020.3375
2439.43954	40000.7375
2442.21603	39966.8375
2444.99077	39925.9375
2447.76377	39945.9375
2450.53501	39899.1375
2453.30451	39874.1375
2456.07226	39826.8375
2458.83827	39829.6375
2461.60254	39847.3375
2464.36507	39827.1375
2467.12586	39831.2375
2469.88492	39788.7375
2472.64224	39823.8375
2475.39782	39769.7375
2478.15167	39792.7375
2480.90379	39746.4375
2483.65417	39738.8375
2486.40283	39764.9375
2489.14976	39765.0375
2491.89497	39710.9375
2494.63845	39749.7375
2497.3802	39694.9375
2500.12024	39723.7375
2502.85855	39707.0375
2505.59514	39663.9375
2508.33002	39709.0375
2511.06318	39693.7375
2513.79462	39628.5375
2516.52435	39611.4375
2519.25237	39639.0375
2521.97867	39599.2375
2524.70327	39572.4375
2527.42616	39498.8375
2530.14734	39565.7375
2532.86681	39531.7375
2535.58458	39444.3375
2538.30065	39422.3375
2541.01501	39364.2375
2543.72768	39334.1375
2546.43864	39300.9375
2549.14791	39210.8375
2551.85548	39206.7375
2554.56136	39148.8375
2557.26554	39125.4375
2559.96803	39135.3375
2562.66883	39036.6375
2565.36794	39048.2375
2568.06536	39094.2375
2570.7611	39037.8375
2573.45514	38957.4375
2576.14751	38978.3375
2578.83819	38872.5375
2581.52719	38856.9375
2584.21451	38847.0375
2586.90015	38829.6375
2589.58411	38786.5375
2592.2664	38810.7375
2594.94701	38676.0375
2597.62594	38712.6375
2600.30321	38572.7375
2602.9788	38522.1375
2605.65273	38504.4375
2608.32498	38511.4375
2610.99557	38480.8375
2613.66449	38549.4375
2616.33175	38437.7375
2618.99734	38388.6375
2621.66128	38359.3375
2624.32355	38305.8375
2626.98416	38306.2375
2629.64311	38315.1375
2632.30041	38332.3375
2634.95605	38251.0375
2637.61004	38189.4375
2640.26238	38163.7375
2642.91306	38144.7375
2645.56209	38194.2375
2648.20948	38149.5375
2650.85521	38143.5375
2653.4993	38117.3375
2656.14175	38070.3375
2658.78255	38135.0375
2661.42171	38170.7375
2664.05923	38205.4375
2666.6951	38170.0375
2669.32934	38169.2375
2671.96194	38184.7375
2674.59291	38232.6375
2677.22224	38146.2375
2679.84993	38199.0375
2682.476	38187.2375
2685.10043	38196.4375
2687.72324	38096.8375
2690.34441	38101.6375
2692.96396	38053.9375
2695.58188	38079.3375
2698.19818	38112.9375
2700.81285	38098.3375
2703.4259	38144.6375
2706.03733	38200.1375
2708.64714	38223.5375
2711.25533	38247.6375
2713.86191	38240.4375
2716.46687	38263.5375
2719.07021	38203.7375
2721.67194	38221.9375
2724.27206	38217.1375
2726.87057	38260.5375
2729.46747	38299.6375
2732.06276	38303.7375
2734.65644	38240.5375
2737.24852	38271.0375
2739.83899	38215.3375
2742.42786	38244.8375
2745.01513	38207.5375
2747.60079	38181.4375
2750.18486	38168.1375
2752.76733	38205.9375
2755.3482	38130.4375
2757.92747	38090.6375
2760.50515	38060.2375
2763.08123	38067.9375
2765.65573	38018.8375
2768.22863	38009.6375
2770.79994	37996.0375
2773.36967	38011.2375
2775.9378	37933.2375
2778.50435	37888.4375
2781.06932	37825.2375
2783.6327	37874.4375
2786.1945	37832.3375
2788.75471	37796.4375
2791.31335	37643.9375
2793.87041	37606.2375
2796.42589	37480.4375
2798.97979	37492.0375
2801.53212	37371.8375
2804.08288	37389.3375
2806.63206	37249.0375
2809.17967	37234.7375
2811.72571	37221.3375
2814.27018	37190.7375
2816.81308	37090.1375
2819.35442	37007.6375
2821.89419	36925.9375
2824.43239	36888.1375
2826.96904	36917.4375
2829.50412	36904.6375
2832.03763	36763.1375
2834.56959	36758.4375
2837.1	36658.3375
2839.62884	36658.8375
2842.15613	36579.1375
2844.68186	36573.5375
2847.20604	36559.7375
2849.72867	36601.4375
2852.24974	36551.8375
2854.76927	36519.7375
2857.28724	36411.0375
2859.80367	36384.9375
2862.31855	36352.1375
2864.83189	36380.2375
2867.34368	36317.2375
2869.85393	36322.0375
2872.36264	36220.9375
2874.8698	36314.8375
2877.37543	36333.6375
2879.87952	36337.7375
2882.38207	36312.8375
2884.88308	36349.5375
2887.38256	36348.4375
2889.88051	36357.1375
2892.37692	36315.8375
2894.8718	36334.6375
2897.36515	36378.7375
2899.85698	36383.9375
2902.34727	36495.3375
2904.83604	36468.9375
2907.32328	36546.1375
2909.809	36475.1375
2912.29319	36509.7375
2914.77587	36478.8375
2917.25702	36454.0375
2919.73665	36458.1375
2922.21476	36486.1375
2924.69136	36392.1375
2927.16644	36363.1375
2929.64	36357.9375
2932.11205	36288.5375
2934.58258	36193.5375
2937.05161	36282.4375
2939.51912	36238.8375
2941.98513	36241.1375
2944.44962	36213.2375
2946.91261	36091.8375
2949.37409	36233.3375
2951.83407	36226.6375
2954.29254	36164.2375
2956.74951	36101.0375
2959.20498	36064.1375
2961.65895	36047.3375
2964.11142	36042.4375
2966.56239	35997.9375
2969.01186	35940.3375
2971.45984	35881.9375
2973.90632	35858.3375
2976.35131	35819.2375
2978.7948	35731.0375
2981.23681	35649.8375
2983.67732	35631.5375
2986.11635	35532.8375
2988.55388	35459.4375
2990.98993	35410.2375
2993.4245	35400.7375
2995.85758	35324.5375
2998.28917	35201.5375
3000.71928	35144.0375
3003.14791	35124.1375
3005.57506	35113.1375
3008.00073	35053.1375
3010.42493	35060.3375
3012.84764	34952.6375
3015.26888	34928.3375
3017.68865	34920.5375
3020.10694	34853.6375
3022.52376	34792.8375
3024.9391	34775.6375
3027.35298	34732.2375
3029.76539	34654.8375
3032.17632	34590.3375
3034.5858	34542.0375
3036.9938	34530.9375
3039.40034	34490.0375
3041.80542	34467.4375
3044.20903	34359.0375
3046.61118	34366.0375
3049.01187	34301.9375
3051.4111	34279.8375
3053.80888	34179.8375
3056.20519	34159.5375
3058.60005	34107.9375
3060.99345	34067.0375
3063.3854	33995.8375
3065.7759	33906.7375
3068.16494	33806.9375
3070.55254	33712.8375
3072.93868	33682.3375
3075.32338	33563.2375
3077.70662	33623.4375
3080.08842	33503.1375
3082.46878	33470.4375
3084.84769	33442.4375
3087.22515	33420.3375
3089.60118	33402.9375
3091.97576	33360.3375
3094.3489	33334.9375
3096.72061	33260.4375
3099.09087	33326.4375
3101.4597	33298.0375
3103.82709	33273.8375
3106.19305	33267.3375
3108.55757	33190.1375
3110.92066	33075.8375
3113.28232	33085.8375
3115.64255	32924.7375
3118.00134	32868.6375
3120.35871	32816.9375
3122.71466	32775.1375
3125.06917	32667.8375
3127.42226	32596.3375
3129.77393	32639.6375
3132.12417	32579.1375
3134.47299	32618.4375
3136.82039	32583.5375
3139.16636	32645.5375
3141.51092	32551.2375
3143.85406	32592.5375
3146.19579	32577.4375
3148.53609	32606.4375
3150.87499	32601.7375
3153.21246	32570.2375
3155.54853	32557.3375
3157.88318	32482.9375
3160.21642	32554.0375
3162.54826	32490.3375
3164.87868	32410.3375
3167.2077	32445.6375
3169.5353	32426.1375
3171.86151	32433.5375
3174.18631	32358.9375
3176.5097	32299.8375
3178.83169	32247.4375
3181.15228	32221.2375
3183.47147	32180.7375
3185.78926	32132.2375
3188.10565	32115.8375
3190.42065	32139.2375
3192.73424	32168.0375
3195.04645	32081.4375
3197.35725	32116.0375
3199.66667	32106.7375
3201.97469	32109.3375
3204.28132	32127.2375
3206.58656	32129.2375
3208.8904	32060.6375
3211.19287	32135.7375
3213.49394	32106.2375
3215.79363	32058.4375
3218.09193	32049.5375
3220.38884	32012.0375
3222.68438	32033.5375
3224.97853	31983.3375
3227.2713	31902.7375
3229.56269	31871.0375
3231.8527	31882.1375
3234.14133	31823.0375
3236.42858	31732.9375
3238.71446	31675.4375
3240.99896	31671.9375
3243.28209	31685.8375
3245.56384	31674.9375
3247.84423	31739.2375
3250.12324	31637.8375
3252.40088	31610.8375
3254.67715	31606.0375
3256.95205	31495.7375
3259.22558	31471.6375
3261.49775	31419.1375
3263.76855	31405.4375
3266.03799	31337.0375
3268.30606	31300.7375
3270.57277	31252.3375
3272.83812	31210.9375
3275.10211	31122.2375
3277.36474	31129.0375
3279.62601	31131.2375
3281.88593	31054.1375
3284.14448	31083.9375
3286.40168	31072.3375
3288.65753	30994.4375
3290.91202	30950.0375
3293.16516	30863.7375
3295.41695	30789.7375
3297.66738	30625.6375
3299.91647	30467.9375
3302.16421	30323.5375
3304.4106	30189.1375
3306.65564	30048.9375
3308.89933	29882.6375
3311.14169	29679.3375
3313.38269	29493.1375
3315.62236	29369.7375
3317.86068	29088.0375
3320.09766	28811.6375
3322.3333	28607.3375
3324.5676	28571.0375
3326.80056	28122.0375
3329.03219	27943.3375
3331.26248	5.9375
3333.49143	1.2375
3335.71905	-1.2625
