Data from AgNPs_FTO_APTES_UA_10uM_R6G_10uM_NaF_0.1M_Addition_RamanShift__20__13-33-17-322.txt Node

Date: Fri Dec 17 13:33:17 GMT 2021
User: TCL
Spectrometer: QEP01345
Trigger mode: 4
Integration Time (sec): 7.000000E0
Scans to average: 10
Electric dark correction enabled: true
Nonlinearity correction enabled: false
Boxcar width: 0
XAxis mode: Raman Shifts
Number of Pixels in Spectrum: 1044
>>>>>Begin Spectral Data<<<<<
46.04893	-0.6
50.45542	-1.2
54.85868	-3.4
59.25871	0
63.6555	89.2
68.04907	89.9
72.43941	94.4
76.82654	100.9
81.21044	100
85.59113	106.2
89.96862	109.4
94.34289	114.6
98.71396	115.3
103.08183	118.6
107.4465	122
111.80798	124
116.16626	126.7
120.52136	134.1
124.87327	139.9
129.222	145.8
133.56755	155.3
137.90993	167.6
142.24913	185.2
146.58517	208.1
150.91804	240.8
155.24774	285.3
159.57429	351.8
163.89768	446.9
168.21792	597.6
172.53501	805.3
176.84895	1120.3
181.15975	1573.5
185.46741	2201.1
189.77193	3056.2
194.07331	4071.8
198.37157	5259.3
202.6667	6487.8
206.9587	7711.7
211.24758	8918.4
215.53334	10124.9
219.81599	11427.1
224.09553	12819.9
228.37195	14408.4
232.64527	16175.4
236.91549	18088.9
241.18261	19975.1
245.44663	21702.2
249.70755	23197.4
253.96539	24487
258.22014	25575.4
262.4718	26540.2
266.72039	27208.9
270.96589	27558.8
275.20832	27616.8
279.44768	27402.3
283.68397	27060.7
287.91719	26730.2
292.14735	26577.5
296.37445	26591.7
300.59849	26817.8
304.81948	27033.2
309.03742	27095.5
313.25231	26849.8
317.46415	26153.7
321.67296	25305.4
325.87872	24576.9
330.08145	24287.2
334.28114	24318.8
338.47781	24515.3
342.67145	24954.6
346.86207	25495.1
351.04966	26160.6
355.23424	26925.3
359.4158	27605.3
363.59435	28085.9
367.76989	28385.2
371.94243	28611
376.11196	28768.8
380.27849	28905.4
384.44203	29048
388.60257	29130.7
392.76012	29281.3
396.91468	29600.2
401.06626	30028.6
405.21485	30415.5
409.36047	30295.9
413.50311	29662.3
417.64277	29080
421.77947	28854.6
425.9132	28839.4
430.04396	28944
434.17176	29051.9
438.2966	29306.6
442.41849	29731.7
446.53742	30381.1
450.6534	31098.9
454.76644	31657
458.87653	31947.1
462.98368	31905.9
467.08789	31525.6
471.18916	31060.2
475.2875	30534.8
479.38291	30121.2
483.4754	29808.1
487.56496	29513.8
491.6516	29215.1
495.73531	29081.5
499.81612	29087.6
503.89401	29278.8
507.96899	29457.4
512.04106	29561.1
516.11023	29737.4
520.1765	29792.1
524.23987	29688.3
528.30034	29509
532.35792	29188.1
536.41261	28826.1
540.46441	28485.9
544.51333	28348.3
548.55936	28537.4
552.60252	28956.2
556.64279	29394.1
560.6802	29619.5
564.71473	29699.1
568.7464	29996.6
572.7752	30384.4
576.80114	30526.4
580.82422	30665.4
584.84444	30818.8
588.86181	31011.6
592.87633	31206
596.888	31467.3
600.89682	31979.3
604.9028	33739.5
608.90594	37986.8
612.90624	42752.4
616.90371	40938.4
620.89834	33804.6
624.89015	30520.3
628.87913	30010.4
632.86528	29983
636.84862	29938.6
640.82913	29536.5
644.80683	28873
648.78172	28276
652.75379	28192.9
656.72306	28620.6
660.68952	29216.9
664.65319	29084.7
668.61405	28457.7
672.57211	28282.5
676.52738	28338.7
680.47986	28408.1
684.42955	28277.5
688.37646	28225.5
692.32058	28329.8
696.26192	28473.1
700.20048	28746.5
704.13626	28904.3
708.06928	28795.2
711.99952	28534.9
715.927	28447.5
719.85171	28426.4
723.77365	28379.7
727.69284	28221.6
731.60928	27997.7
735.52295	27948.2
739.43388	28032.6
743.34206	28160.7
747.24749	28280.6
751.15017	28439.8
755.05012	28804.8
758.94733	29465.4
762.8418	30902.3
766.73354	33419.3
770.62254	36094.1
774.50882	37385.4
778.39237	36026.3
782.27321	33211.7
786.15132	30723.5
790.02671	29242.4
793.89938	28548.2
797.76935	28291
801.6366	28163.6
805.50115	28080.8
809.36299	27950.2
813.22213	27753.3
817.07857	27657.3
820.93231	27545.4
824.78336	27535.6
828.63172	27589.3
832.47738	27640
836.32036	27714.3
840.16066	27788.9
843.99827	27848.6
847.8332	27827
851.66546	27717.3
855.49504	27638.2
859.32195	27636.1
863.1462	27560.3
866.96777	27504.4
870.78668	27439.1
874.60293	27458.1
878.41652	27483.6
882.22745	27559.8
886.03573	27660.4
889.84136	27699
893.64433	27585.8
897.44466	27467.6
901.24235	27354.2
905.0374	27276.8
908.8298	27193.6
912.61957	27223
916.40671	27355.8
920.19121	27647.4
923.97308	27986.1
927.75233	28147.2
931.52895	28292.2
935.30295	28052.4
939.07433	27551.4
942.84309	27230.5
946.60924	26979.7
950.37278	26868.4
954.13371	26700.7
957.89203	26524.7
961.64774	26442.2
965.40086	26320.4
969.15137	26231.4
972.89929	26181
976.64461	26170.8
980.38733	26223.7
984.12747	26355
987.86502	26597.9
991.59999	26958.1
995.33237	27493.2
999.06217	28321.4
1002.78939	29272.7
1006.51404	29834.8
1010.23611	30146.3
1013.95561	30363.2
1017.67255	30438.6
1021.38692	30175.6
1025.09872	29983.2
1028.80796	30353.6
1032.51465	31277.7
1036.21877	32132.9
1039.92035	32246.7
1043.61937	31739.4
1047.31584	30800.8
1051.00976	29848
1054.70114	29297.4
1058.38998	29161.3
1062.07627	29223
1065.76003	29335.4
1069.44126	29476.4
1073.11995	29828.2
1076.79611	30155.4
1080.46974	30409.2
1084.14085	30563.7
1087.80943	30756.2
1091.47549	30840.9
1095.13903	30517.9
1098.80005	30097.8
1102.45857	29541
1106.11456	29251
1109.76805	29298.1
1113.41903	29482.1
1117.06751	29821.8
1120.71348	30200.8
1124.35696	30586.5
1127.99793	31004.5
1131.63641	31269.1
1135.2724	30908.7
1138.90589	30455.5
1142.5369	30065.9
1146.16542	29782.5
1149.79145	29609.6
1153.415	29612.7
1157.03607	29757
1160.65467	30250.1
1164.27079	31164.3
1167.88443	32432
1171.49561	34166.6
1175.10432	36661.5
1178.71056	39936.5
1182.31434	43106.8
1185.91565	44992.8
1189.51451	45148.3
1193.11091	43732
1196.70485	41391.9
1200.29634	39303.5
1203.88538	37624.7
1207.47197	36227.5
1211.05612	35149.7
1214.63782	34433.4
1218.21708	34256.6
1221.79391	34311.6
1225.36829	34523.6
1228.94024	34526.9
1232.50976	34284.6
1236.07685	34049.9
1239.6415	33923.4
1243.20374	33843.4
1246.76355	33924.3
1250.32093	34329.7
1253.8759	35009.8
1257.42845	35986.9
1260.97859	36894.4
1264.52631	37727
1268.07163	38632.6
1271.61453	39749.3
1275.15503	40933.1
1278.69312	42021.8
1282.22882	42867.2
1285.76211	43332.4
1289.29301	43885.4
1292.82151	44596.8
1296.34761	45616.6
1299.87133	47282.4
1303.39266	49819.2
1306.9116	53160.1
1310.42815	56730.2
1313.94233	58939.1
1317.45412	58972.7
1320.96354	57335.2
1324.47058	55473.5
1327.97525	53572.3
1331.47754	52249.9
1334.97747	51758
1338.47502	52053.7
1341.97022	52444.8
1345.46305	52761.9
1348.95352	52957.5
1352.44163	53389.9
1355.92738	54877.6
1359.41078	58089.3
1362.89183	61245.1
1366.37053	60228.2
1369.84688	54599.9
1373.32088	48359.3
1376.79254	44033.4
1380.26186	41947.3
1383.72883	41031.2
1387.19347	40344.8
1390.65578	39601
1394.11575	39118.8
1397.57339	39205.4
1401.0287	39709.3
1404.48168	40262
1407.93234	40857.2
1411.38068	41200.7
1414.82669	41076.7
1418.27039	40374.2
1421.71177	39450
1425.15083	38568.1
1428.58758	38030.6
1432.02203	37996.2
1435.45416	38268.2
1438.88399	38681.9
1442.31151	38998.4
1445.73673	39357.2
1449.15965	39643.2
1452.58027	39805
1455.9986	39886.9
1459.41463	40006.3
1462.82837	40555.1
1466.23982	41384
1469.64898	42135.2
1473.05586	42661.7
1476.46045	42896.1
1479.86276	42926.3
1483.26279	42967.2
1486.66054	43160
1490.05602	43644.1
1493.44922	44275.7
1496.84016	45096.2
1500.22882	46295.4
1503.61521	48141.3
1506.99934	50544.4
1510.38121	52749.5
1513.76081	53460.6
1517.13816	51920.1
1520.51324	48873.3
1523.88607	45777.1
1527.25665	43633.7
1530.62498	42320.4
1533.99105	41643.7
1537.35488	41212.2
1540.71647	40900.4
1544.07581	40679.1
1547.4329	40462.8
1550.78776	40264.4
1554.14038	40224.6
1557.49077	40306.5
1560.83892	40420.7
1564.18484	40508.4
1567.52853	40524.8
1570.86999	40700.3
1574.20922	41002
1577.54624	41179.1
1580.88103	40867.7
1584.2136	40414.8
1587.54395	40544.7
1590.87208	41799.2
1594.19801	43858.4
1597.52172	46259
1600.84321	47416.8
1604.16251	46140.3
1607.47959	43459.7
1610.79447	40590.8
1614.10715	37734.7
1617.41763	35401.2
1620.7259	33720.9
1624.03199	32906.2
1627.33587	32933.3
1630.63757	33673.3
1633.93707	35266.6
1637.23439	37521.1
1640.52951	40383.9
1643.82246	43309.1
1647.11321	45516.7
1650.40179	46004.1
1653.68819	43945.8
1656.97241	39649.8
1660.25446	35183.2
1663.53433	31854.3
1666.81203	29768.5
1670.08756	28449.1
1673.36092	27610.9
1676.63211	27024.8
1679.90115	26601.7
1683.16801	26273.8
1686.43272	26040.2
1689.69527	25847.1
1692.95567	25741.7
1696.2139	25653.2
1699.46999	25596.9
1702.72392	25537.9
1705.97571	25541.6
1709.22535	25500.2
1712.47284	25417.2
1715.71819	25407.6
1718.96139	25387.6
1722.20246	25295.3
1725.44139	25209.2
1728.67818	25090.6
1731.91284	24953.3
1735.14537	24846.7
1738.37576	24779.5
1741.60403	24685.7
1744.83017	24613.9
1748.05418	24609.4
1751.27607	24543.7
1754.49584	24501.6
1757.71349	24508.2
1760.92903	24499.3
1764.14244	24468.5
1767.35375	24468.3
1770.56294	24451.4
1773.77002	24424.3
1776.97499	24383.9
1780.17785	24342.9
1783.37861	24323.2
1786.57727	24279.3
1789.77382	24286.4
1792.96828	24238.9
1796.16064	24214.7
1799.3509	24173.8
1802.53907	24188.9
1805.72514	24105.7
1808.90913	24040.9
1812.09102	24039.4
1815.27083	24010.9
1818.44856	23977.3
1821.6242	23919.5
1824.79776	23935.8
1827.96924	23931.6
1831.13864	23916.9
1834.30597	23943.9
1837.47122	23947.6
1840.6344	23932.9
1843.7955	23959.3
1846.95454	23990.7
1850.11151	23994.6
1853.26642	23943.6
1856.41926	23942.8
1859.57004	23994
1862.71876	23983.1
1865.86542	24020.5
1869.01003	23966.3
1872.15258	23973
1875.29308	24012.9
1878.43152	23990.8
1881.56792	24008
1884.70227	23986.1
1887.83457	24034.1
1890.96482	24010.4
1894.09304	24005.2
1897.21921	23994.4
1900.34335	24026.4
1903.46544	23978.3
1906.58551	23997.3
1909.70353	23965.9
1912.81953	23950.7
1915.93349	23921.3
1919.04543	23855.5
1922.15534	23780.6
1925.26322	23725.3
1928.36908	23679.5
1931.47292	23605.6
1934.57473	23521.2
1937.67453	23475.3
1940.77232	23369.8
1943.86808	23301.9
1946.96184	23190.7
1950.05358	23125.8
1953.14331	23058
1956.23103	22975
1959.31675	22915
1962.40046	22852.4
1965.48217	22807.4
1968.56188	22754.6
1971.63959	22680.1
1974.7153	22640.2
1977.78901	22541.7
1980.86073	22491.7
1983.93046	22427.9
1986.99819	22343.7
1990.06394	22319.6
1993.1277	22250.7
1996.18947	22139.7
1999.24925	22113.1
2002.30706	22055
2005.36288	21948.1
2008.41672	21927.9
2011.46859	21884.3
2014.51848	21876.6
2017.56639	21785.3
2020.61233	21741.1
2023.6563	21693.9
2026.6983	21653.7
2029.73833	21655.3
2032.7764	21582.5
2035.8125	21561.5
2038.84664	21549.6
2041.87881	21517.6
2044.90903	21497.1
2047.93729	21435.2
2050.96359	21442.3
2053.98794	21379
2057.01034	21401.7
2060.03078	21376.4
2063.04927	21356.8
2066.06582	21363.9
2069.08042	21344.4
2072.09307	21355
2075.10378	21298.8
2078.11255	21250.7
2081.11938	21258.4
2084.12426	21233.5
2087.12722	21227.9
2090.12824	21226.8
2093.12732	21248.6
2096.12447	21298.7
2099.11969	21255.6
2102.11299	21250.6
2105.10435	21285.1
2108.09379	21275.6
2111.08131	21311.1
2114.0669	21286.4
2117.05057	21354.5
2120.03233	21384.9
2123.01216	21359.3
2125.99008	21402.1
2128.96609	21406.9
2131.94018	21405.2
2134.91236	21451.4
2137.88263	21467
2140.851	21462.4
2143.81746	21506.9
2146.78201	21523.9
2149.74466	21521.4
2152.7054	21493.2
2155.66425	21515.9
2158.6212	21530.1
2161.57625	21527.6
2164.52941	21515.7
2167.48067	21543.9
2170.43004	21524.2
2173.37752	21525.3
2176.32311	21521.8
2179.26681	21512.3
2182.20863	21523.9
2185.14856	21521
2188.08661	21540.4
2191.02278	21546.7
2193.95707	21501.8
2196.88948	21543.6
2199.82001	21529.5
2202.74867	21512.3
2205.67545	21558.1
2208.60037	21535.6
2211.52341	21549.6
2214.44458	21492.3
2217.36388	21451
2220.28132	21459.4
2223.1969	21406.7
2226.11061	21418.3
2229.02246	21348.2
2231.93245	21328.1
2234.84058	21248.1
2237.74686	21270
2240.65128	21202.2
2243.55385	21176.9
2246.45456	21114
2249.35343	21140.2
2252.25044	21079.5
2255.14561	21052
2258.03893	21066
2260.93041	21065.1
2263.82004	21000.8
2266.70783	20936.2
2269.59378	20901.8
2272.4779	20877.8
2275.36017	20866.9
2278.24061	20819.1
2281.11922	20750.2
2283.996	20723.2
2286.87094	20718
2289.74405	20675.3
2292.61534	20661.4
2295.4848	20657.1
2298.35243	20699.8
2301.21824	20671.7
2304.08223	20697.2
2306.94439	20691.3
2309.80474	20717.9
2312.66327	20734
2315.51999	20708.8
2318.37489	20733
2321.22797	20731.5
2324.07925	20703
2326.92871	20685.6
2329.77637	20642.1
2332.62222	20616.3
2335.46626	20593.3
2338.3085	20620.1
2341.14893	20618.7
2343.98756	20666.9
2346.8244	20661.3
2349.65943	20670.5
2352.49267	20663
2355.32411	20647.9
2358.15376	20607.8
2360.98161	20603.8
2363.80768	20583.1
2366.63195	20560
2369.45444	20543.1
2372.27514	20501.6
2375.09405	20457.3
2377.91118	20432.2
2380.72652	20356.6
2383.54009	20313.1
2386.35187	20300.9
2389.16188	20251
2391.97011	20227.7
2394.77657	20181.2
2397.58125	20171.2
2400.38416	20138.3
2403.18529	20094.1
2405.98466	20075.2
2408.78226	20010.7
2411.57809	20009.8
2414.37216	19966.6
2417.16446	19939.1
2419.955	19889.3
2422.74378	19920.7
2425.5308	19905.2
2428.31606	19869.9
2431.09956	19881.1
2433.88131	19848
2436.6613	19859.7
2439.43954	19844.6
2442.21603	19849.6
2444.99077	19838.2
2447.76377	19835.1
2450.53501	19826.4
2453.30451	19790.5
2456.07226	19814.5
2458.83827	19808.9
2461.60254	19797.5
2464.36507	19745.7
2467.12586	19762.7
2469.88492	19786.3
2472.64224	19789.4
2475.39782	19821.2
2478.15167	19800.5
2480.90379	19814.1
2483.65417	19789.7
2486.40283	19836.9
2489.14976	19819.5
2491.89497	19818.8
2494.63845	19847.2
2497.3802	19852.1
2500.12024	19843.7
2502.85855	19822.4
2505.59514	19780.7
2508.33002	19774.7
2511.06318	19788.8
2513.79462	19756.3
2516.52435	19721.1
2519.25237	19709.2
2521.97867	19696.5
2524.70327	19672.5
2527.42616	19634.4
2530.14734	19670.5
2532.86681	19655.2
2535.58458	19621
2538.30065	19615
2541.01501	19642.5
2543.72768	19596.7
2546.43864	19557.4
2549.14791	19555.2
2551.85548	19519.3
2554.56136	19491.4
2557.26554	19460.5
2559.96803	19480.9
2562.66883	19435.3
2565.36794	19443.1
2568.06536	19445.1
2570.7611	19426.6
2573.45514	19380.1
2576.14751	19423.7
2578.83819	19362.1
2581.52719	19376
2584.21451	19342.4
2586.90015	19393.8
2589.58411	19361.9
2592.2664	19366.3
2594.94701	19336
2597.62594	19312.9
2600.30321	19271.2
2602.9788	19276.4
2605.65273	19264.5
2608.32498	19260.9
2610.99557	19241.7
2613.66449	19235.2
2616.33175	19229.8
2618.99734	19274.2
2621.66128	19212.9
2624.32355	19220.3
2626.98416	19254.5
2629.64311	19247
2632.30041	19238.1
2634.95605	19230.1
2637.61004	19215.6
2640.26238	19190.2
2642.91306	19178.6
2645.56209	19138.4
2648.20948	19132.5
2650.85521	19106.2
2653.4993	19087.7
2656.14175	19101.2
2658.78255	19098.9
2661.42171	19115.1
2664.05923	19135.5
2666.6951	19124.1
2669.32934	19115.6
2671.96194	19120.1
2674.59291	19151.6
2677.22224	19119.1
2679.84993	19135.6
2682.476	19174.8
2685.10043	19167.4
2687.72324	19131.9
2690.34441	19101.3
2692.96396	19098.9
2695.58188	19100.8
2698.19818	19084.1
2700.81285	19113.9
2703.4259	19088.1
2706.03733	19132.1
2708.64714	19105.7
2711.25533	19129.1
2713.86191	19142.2
2716.46687	19153.5
2719.07021	19120.9
2721.67194	19152.9
2724.27206	19118.4
2726.87057	19155.9
2729.46747	19128.7
2732.06276	19158.3
2734.65644	19115.8
2737.24852	19118.9
2739.83899	19132.5
2742.42786	19122
2745.01513	19096.7
2747.60079	19095.8
2750.18486	19122.7
2752.76733	19098.1
2755.3482	19110.5
2757.92747	19104.3
2760.50515	19076.6
2763.08123	19042.9
2765.65573	19046.4
2768.22863	19045.2
2770.79994	19038.4
2773.36967	19009.3
2775.9378	18996.5
2778.50435	18989
2781.06932	18968.7
2783.6327	18966.9
2786.1945	18983.6
2788.75471	18918.8
2791.31335	18907.6
2793.87041	18864.3
2796.42589	18805.2
2798.97979	18830.4
2801.53212	18734.4
2804.08288	18748.9
2806.63206	18698.4
2809.17967	18701.6
2811.72571	18679.7
2814.27018	18667.8
2816.81308	18663.6
2819.35442	18606
2821.89419	18598.4
2824.43239	18593.9
2826.96904	18582.4
2829.50412	18589
2832.03763	18534.1
2834.56959	18564.3
2837.1	18509
2839.62884	18514.8
2842.15613	18508
2844.68186	18532.7
2847.20604	18525.9
2849.72867	18541.2
2852.24974	18503.2
2854.76927	18488
2857.28724	18466.2
2859.80367	18469.1
2862.31855	18475.5
2864.83189	18410.7
2867.34368	18392.8
2869.85393	18431
2872.36264	18411.1
2874.8698	18466.3
2877.37543	18446.1
2879.87952	18470.8
2882.38207	18450.3
2884.88308	18453.7
2887.38256	18450.3
2889.88051	18468.9
2892.37692	18473.4
2894.8718	18512.6
2897.36515	18486.2
2899.85698	18493.3
2902.34727	18550
2904.83604	18556.1
2907.32328	18590.7
2909.809	18571.3
2912.29319	18580
2914.77587	18563.2
2917.25702	18575.1
2919.73665	18555.1
2922.21476	18551.6
2924.69136	18491.1
2927.16644	18520.3
2929.64	18498.4
2932.11205	18499.5
2934.58258	18400.2
2937.05161	18448.4
2939.51912	18449.4
2941.98513	18431.6
2944.44962	18398.5
2946.91261	18355.5
2949.37409	18384.7
2951.83407	18388
2954.29254	18366.3
2956.74951	18312.4
2959.20498	18311
2961.65895	18268.9
2964.11142	18272.4
2966.56239	18214.9
2969.01186	18208
2971.45984	18159.9
2973.90632	18175.2
2976.35131	18092
2978.7948	18060.3
2981.23681	18011.6
2983.67732	17997.4
2986.11635	17932.6
2988.55388	17899.3
2990.98993	17847
2993.4245	17854
2995.85758	17817.2
2998.28917	17803.3
3000.71928	17754.6
3003.14791	17768.6
3005.57506	17727.4
3008.00073	17693.7
3010.42493	17673.4
3012.84764	17659.9
3015.26888	17656.1
3017.68865	17627.5
3020.10694	17629.4
3022.52376	17555.6
3024.9391	17589.9
3027.35298	17521.8
3029.76539	17503.7
3032.17632	17472.1
3034.5858	17431.6
3036.9938	17435.4
3039.40034	17394.7
3041.80542	17390
3044.20903	17363.9
3046.61118	17376.9
3049.01187	17317.6
3051.4111	17303.3
3053.80888	17280.2
3056.20519	17230.2
3058.60005	17192.7
3060.99345	17189.6
3063.3854	17177.2
3065.7759	17106.9
3068.16494	17090.2
3070.55254	17007.8
3072.93868	17017.5
3075.32338	16952.7
3077.70662	16975.6
3080.08842	16915.6
3082.46878	16900.5
3084.84769	16875
3087.22515	16894
3089.60118	16893.1
3091.97576	16873.2
3094.3489	16849.2
3096.72061	16838.1
3099.09087	16864.9
3101.4597	16829.6
3103.82709	16807.3
3106.19305	16801.3
3108.55757	16795.5
3110.92066	16748.7
3113.28232	16723.3
3115.64255	16661.7
3118.00134	16641
3120.35871	16642.8
3122.71466	16601.9
3125.06917	16568.7
3127.42226	16519.6
3129.77393	16565
3132.12417	16540.3
3134.47299	16562.2
3136.82039	16518.7
3139.16636	16531
3141.51092	16505.8
3143.85406	16542.2
3146.19579	16497.1
3148.53609	16541.6
3150.87499	16521.9
3153.21246	16542.6
3155.54853	16527.7
3157.88318	16529.6
3160.21642	16554.7
3162.54826	16548.3
3164.87868	16514.6
3167.2077	16526.9
3169.5353	16517
3171.86151	16506.3
3174.18631	16521.9
3176.5097	16479.7
3178.83169	16430.6
3181.15228	16429
3183.47147	16408.4
3185.78926	16407.9
3188.10565	16430
3190.42065	16405.7
3192.73424	16406
3195.04645	16393.2
3197.35725	16407.1
3199.66667	16414
3201.97469	16462.7
3204.28132	16436.6
3206.58656	16443.7
3208.8904	16449.9
3211.19287	16461.2
3213.49394	16481.3
3215.79363	16463
3218.09193	16478.1
3220.38884	16442.2
3222.68438	16442.3
3224.97853	16406.2
3227.2713	16418.4
3229.56269	16369.1
3231.8527	16394.7
3234.14133	16350.9
3236.42858	16298
3238.71446	16309.8
3240.99896	16293.9
3243.28209	16306.8
3245.56384	16287.1
3247.84423	16299.6
3250.12324	16274.1
3252.40088	16247.5
3254.67715	16272.7
3256.95205	16192.8
3259.22558	16222.6
3261.49775	16185.1
3263.76855	16181.8
3266.03799	16135.1
3268.30606	16118.6
3270.57277	16099.9
3272.83812	16089
3275.10211	16069.1
3277.36474	16063.1
3279.62601	16052.8
3281.88593	15997.8
3284.14448	16041.6
3286.40168	16021.3
3288.65753	16007.6
3290.91202	15990.1
3293.16516	15926.8
3295.41695	15876.8
3297.66738	15816.7
3299.91647	15750.5
3302.16421	15638
3304.4106	15591.1
3306.65564	15523.1
3308.89933	15449.5
3311.14169	15350.5
3313.38269	15242.9
3315.62236	15165.4
3317.86068	15041.7
3320.09766	14904.6
3322.3333	14769.7
3324.5676	14769.5
3326.80056	14574.5
3329.03219	14496.1
3331.26248	3.6
3333.49143	1.5
3335.71905	0.2
