Data from AgNPs_FTO_APTES_UA_2uM_R6G_10uM_NaF_0.1M_Addition_RamanShift__8__11-52-57-207.txt Node

Date: Fri Dec 17 11:52:57 GMT 2021
User: TCL
Spectrometer: QEP01345
Trigger mode: 4
Integration Time (sec): 7.000000E0
Scans to average: 10
Electric dark correction enabled: true
Nonlinearity correction enabled: false
Boxcar width: 0
XAxis mode: Raman Shifts
Number of Pixels in Spectrum: 1044
>>>>>Begin Spectral Data<<<<<
46.04893	-0.5625
50.45542	-1.2625
54.85868	-1.9625
59.25871	0.3375
63.6555	122.9375
68.04907	125.5375
72.43941	131.7375
76.82654	140.5375
81.21044	142.7375
85.59113	150.9375
89.96862	152.9375
94.34289	159.9375
98.71396	162.6375
103.08183	168.4375
107.4465	172.1375
111.80798	174.9375
116.16626	180.5375
120.52136	185.5375
124.87327	193.3375
129.222	202.5375
133.56755	212.9375
137.90993	233.3375
142.24913	253.3375
146.58517	277.5375
150.91804	320.4375
155.24774	384.6375
159.57429	469.9375
163.89768	602.4375
168.21792	795.9375
172.53501	1077.2375
176.84895	1485.9375
181.15975	2097.1375
185.46741	2921.2375
189.77193	4034.4375
194.07331	5384.2375
198.37157	6928.7375
202.6667	8582.3375
206.9587	10218.2375
211.24758	11767.2375
215.53334	13369.4375
219.81599	15039.2375
224.09553	16892.4375
228.37195	18942.3375
232.64527	21186.8375
236.91549	23516.7375
241.18261	25965.4375
245.44663	28332.2375
249.70755	30455.6375
253.96539	32306.2375
258.22014	33852.2375
262.4718	35044.1375
266.72039	35895.2375
270.96589	36324.6375
275.20832	36328.7375
279.44768	36038.5375
283.68397	35608.5375
287.91719	35152.8375
292.14735	34856.8375
296.37445	34648.0375
300.59849	34564.5375
304.81948	34552.9375
309.03742	34544.5375
313.25231	34351.7375
317.46415	34076.8375
321.67296	33610.1375
325.87872	33209.8375
330.08145	33053.5375
334.28114	33115.1375
338.47781	33378.6375
342.67145	33704.3375
346.86207	34205.0375
351.04966	34770.9375
355.23424	35337.7375
359.4158	35901.5375
363.59435	36335.7375
367.76989	36684.3375
371.94243	36929.6375
376.11196	37024.2375
380.27849	37128.3375
384.44203	37348.9375
388.60257	37641.9375
392.76012	37999.7375
396.91468	38517.4375
401.06626	39063.4375
405.21485	39462.9375
409.36047	39467.1375
413.50311	39200.2375
417.64277	39065.9375
421.77947	39239.4375
425.9132	39495.4375
430.04396	39702.8375
434.17176	39818.7375
438.2966	39961.2375
442.41849	40279.2375
446.53742	40984.3375
450.6534	41750.5375
454.76644	42314.4375
458.87653	42555.2375
462.98368	42545.8375
467.08789	42285.8375
471.18916	41851.5375
475.2875	41302.6375
479.38291	40908.1375
483.4754	40609.3375
487.56496	40397.1375
491.6516	40130.7375
495.73531	39989.8375
499.81612	39980.5375
503.89401	40300.2375
507.96899	40489.9375
512.04106	40530.6375
516.11023	40421.7375
520.1765	40169.9375
524.23987	39807.0375
528.30034	39541.6375
532.35792	39279.1375
536.41261	39037.7375
540.46441	38785.7375
544.51333	38754.7375
548.55936	38998.9375
552.60252	39480.5375
556.64279	39962.0375
560.6802	40366.0375
564.71473	40643.9375
568.7464	40982.1375
572.7752	41611.5375
576.80114	42485.4375
580.82422	43503.1375
584.84444	44826.0375
588.86181	46250.2375
592.87633	47223.2375
596.888	46958.8375
600.89682	45985.5375
604.9028	46280.8375
608.90594	48554.0375
612.90624	50777.9375
616.90371	48316.5375
620.89834	43057.3375
624.89015	40675.8375
628.87913	40362.0375
632.86528	40467.4375
636.84862	40447.1375
640.82913	40048.0375
644.80683	39376.9375
648.78172	38964.3375
652.75379	38975.8375
656.72306	39356.7375
660.68952	39831.3375
664.65319	39677.1375
668.61405	39297.5375
672.57211	39352.5375
676.52738	39526.2375
680.47986	39503.0375
684.42955	39246.8375
688.37646	39067.2375
692.32058	39366.9375
696.26192	39834.9375
700.20048	40341.8375
704.13626	40530.6375
708.06928	40415.1375
711.99952	40215.8375
715.927	40168.9375
719.85171	40263.3375
723.77365	40183.2375
727.69284	39787.1375
731.60928	39357.2375
735.52295	39143.9375
739.43388	39135.4375
743.34206	39213.2375
747.24749	39359.0375
751.15017	39646.5375
755.05012	40045.8375
758.94733	40842.5375
762.8418	42100.8375
766.73354	43976.5375
770.62254	45743.2375
774.50882	46051.4375
778.39237	44751.1375
782.27321	42836.9375
786.15132	41321.3375
790.02671	40271.2375
793.89938	39778.7375
797.76935	39534.6375
801.6366	39427.4375
805.50115	39411.5375
809.36299	39227.0375
813.22213	39038.9375
817.07857	38849.4375
820.93231	38703.9375
824.78336	38550.3375
828.63172	38502.6375
832.47738	38490.7375
836.32036	38467.8375
840.16066	38512.9375
843.99827	38540.5375
847.8332	38510.1375
851.66546	38508.2375
855.49504	38614.1375
859.32195	38628.8375
863.1462	38644.5375
866.96777	38582.0375
870.78668	38640.6375
874.60293	38661.8375
878.41652	38751.6375
882.22745	38909.8375
886.03573	39069.1375
889.84136	39085.6375
893.64433	39012.0375
897.44466	38888.3375
901.24235	38802.9375
905.0374	38691.8375
908.8298	38681.1375
912.61957	38705.3375
916.40671	38875.8375
920.19121	39177.0375
923.97308	39491.7375
927.75233	39583.9375
931.52895	39359.3375
935.30295	39023.3375
939.07433	38620.3375
942.84309	38250.3375
946.60924	38069.3375
950.37278	38070.0375
954.13371	38031.3375
957.89203	37972.2375
961.64774	37919.2375
965.40086	37893.1375
969.15137	37886.7375
972.89929	37831.5375
976.64461	37745.5375
980.38733	37767.7375
984.12747	37901.7375
987.86502	38024.1375
991.59999	38187.0375
995.33237	38406.0375
999.06217	38865.6375
1002.78939	39575.3375
1006.51404	40266.1375
1010.23611	40879.9375
1013.95561	41244.6375
1017.67255	41250.4375
1021.38692	40870.1375
1025.09872	40419.9375
1028.80796	40050.8375
1032.51465	40097.5375
1036.21877	40245.2375
1039.92035	40395.8375
1043.61937	40411.5375
1047.31584	40267.4375
1051.00976	40141.0375
1054.70114	40141.0375
1058.38998	40334.7375
1062.07627	40649.4375
1065.76003	41048.6375
1069.44126	41532.7375
1073.11995	42071.9375
1076.79611	42645.5375
1080.46974	42934.4375
1084.14085	43128.5375
1087.80943	43366.8375
1091.47549	43436.1375
1095.13903	43433.5375
1098.80005	43050.1375
1102.45857	42423.1375
1106.11456	41787.5375
1109.76805	41433.7375
1113.41903	41342.4375
1117.06751	41320.2375
1120.71348	41433.1375
1124.35696	41660.5375
1127.99793	41880.3375
1131.63641	42078.2375
1135.2724	42079.6375
1138.90589	41996.3375
1142.5369	41983.1375
1146.16542	42152.2375
1149.79145	42345.8375
1153.415	42491.3375
1157.03607	42745.8375
1160.65467	43525.3375
1164.27079	44768.7375
1167.88443	46419.3375
1171.49561	48162.2375
1175.10432	50172.6375
1178.71056	52664.1375
1182.31434	55301.5375
1185.91565	56978.4375
1189.51451	57419.2375
1193.11091	56970.9375
1196.70485	55641.3375
1200.29634	54034.4375
1203.88538	52702.4375
1207.47197	51880.2375
1211.05612	51292.7375
1214.63782	50494.2375
1218.21708	49557.0375
1221.79391	48694.1375
1225.36829	47937.0375
1228.94024	47550.6375
1232.50976	47275.8375
1236.07685	47052.1375
1239.6415	46881.2375
1243.20374	46908.5375
1246.76355	47165.6375
1250.32093	47763.0375
1253.8759	48476.0375
1257.42845	49537.2375
1260.97859	50641.6375
1264.52631	51908.6375
1268.07163	53057.9375
1271.61453	54216.8375
1275.15503	55255.9375
1278.69312	56182.1375
1282.22882	56978.1375
1285.76211	57900.8375
1289.29301	58951.4375
1292.82151	60408.7375
1296.34761	62221.7375
1299.87133	64484.7375
1303.39266	66972.0375
1306.9116	69452.7375
1310.42815	71311.7375
1313.94233	72467.1375
1317.45412	72302.6375
1320.96354	71660.3375
1324.47058	71359.2375
1327.97525	71361.0375
1331.47754	71517.5375
1334.97747	71696.6375
1338.47502	71786.1375
1341.97022	71550.2375
1345.46305	71071.2375
1348.95352	70408.0375
1352.44163	70002.1375
1355.92738	70253.2375
1359.41078	71401.5375
1362.89183	72399.7375
1366.37053	71390.5375
1369.84688	67462.0375
1373.32088	62374.5375
1376.79254	58430.7375
1380.26186	56699.3375
1383.72883	56408.2375
1387.19347	56369.2375
1390.65578	55856.3375
1394.11575	55448.4375
1397.57339	55521.7375
1401.0287	56008.5375
1404.48168	56629.9375
1407.93234	56879.7375
1411.38068	56635.6375
1414.82669	55758.6375
1418.27039	54505.7375
1421.71177	53047.2375
1425.15083	51936.6375
1428.58758	51606.5375
1432.02203	52028.9375
1435.45416	53057.2375
1438.88399	54191.6375
1442.31151	54997.1375
1445.73673	55278.9375
1449.15965	55285.4375
1452.58027	55106.6375
1455.9986	54946.4375
1459.41463	55132.0375
1462.82837	55864.6375
1466.23982	56730.7375
1469.64898	57459.6375
1473.05586	57936.6375
1476.46045	58089.9375
1479.86276	57778.1375
1483.26279	57500.3375
1486.66054	57373.0375
1490.05602	57661.1375
1493.44922	58083.2375
1496.84016	58462.6375
1500.22882	59106.8375
1503.61521	60057.4375
1506.99934	61115.5375
1510.38121	61913.1375
1513.76081	61806.3375
1517.13816	60818.0375
1520.51324	59346.0375
1523.88607	58212.7375
1527.25665	57753.6375
1530.62498	57594.8375
1533.99105	57513.5375
1537.35488	57015.9375
1540.71647	56260.9375
1544.07581	55270.3375
1547.4329	54391.0375
1550.78776	53659.8375
1554.14038	53086.0375
1557.49077	52796.1375
1560.83892	52634.2375
1564.18484	52452.6375
1567.52853	52387.5375
1570.86999	52572.7375
1574.20922	53197.8375
1577.54624	53925.4375
1580.88103	54252.2375
1584.2136	54740.5375
1587.54395	55863.7375
1590.87208	57941.0375
1594.19801	60498.5375
1597.52172	62985.2375
1600.84321	63555.7375
1604.16251	61489.8375
1607.47959	57945.3375
1610.79447	54298.5375
1614.10715	50762.4375
1617.41763	47882.0375
1620.7259	45827.4375
1624.03199	44813.3375
1627.33587	44816.8375
1630.63757	45764.9375
1633.93707	47894.8375
1637.23439	51440.8375
1640.52951	56320.1375
1643.82246	61786.1375
1647.11321	65486.5375
1650.40179	65451.6375
1653.68819	61113.4375
1656.97241	54599.2375
1660.25446	48581.6375
1663.53433	44395.8375
1666.81203	41640.3375
1670.08756	39938.6375
1673.36092	38808.7375
1676.63211	38087.4375
1679.90115	37586.4375
1683.16801	37193.5375
1686.43272	36905.3375
1689.69527	36706.9375
1692.95567	36465.0375
1696.2139	36341.5375
1699.46999	36268.5375
1702.72392	36159.3375
1705.97571	36134.4375
1709.22535	36104.0375
1712.47284	36092.2375
1715.71819	36082.2375
1718.96139	35999.1375
1722.20246	35919.0375
1725.44139	35806.4375
1728.67818	35638.1375
1731.91284	35491.6375
1735.14537	35380.9375
1738.37576	35227.7375
1741.60403	35108.7375
1744.83017	34924.4375
1748.05418	34928.1375
1751.27607	34886.9375
1754.49584	34807.3375
1757.71349	34731.1375
1760.92903	34800.4375
1764.14244	34757.1375
1767.35375	34764.0375
1770.56294	34703.9375
1773.77002	34699.3375
1776.97499	34658.2375
1780.17785	34592.2375
1783.37861	34569.3375
1786.57727	34541.9375
1789.77382	34417.2375
1792.96828	34380.2375
1796.16064	34337.9375
1799.3509	34334.7375
1802.53907	34269.0375
1805.72514	34191.7375
1808.90913	34089.8375
1812.09102	34053.3375
1815.27083	34021.3375
1818.44856	33986.4375
1821.6242	33991.6375
1824.79776	33931.0375
1827.96924	33972.1375
1831.13864	33951.9375
1834.30597	33963.9375
1837.47122	34001.1375
1840.6344	34010.3375
1843.7955	34020.6375
1846.95454	34022.8375
1850.11151	33977.1375
1853.26642	33947.8375
1856.41926	33930.8375
1859.57004	33907.4375
1862.71876	33877.2375
1865.86542	33854.5375
1869.01003	33793.8375
1872.15258	33757.8375
1875.29308	33758.2375
1878.43152	33683.5375
1881.56792	33675.7375
1884.70227	33598.0375
1887.83457	33623.9375
1890.96482	33531.7375
1894.09304	33438.2375
1897.21921	33462.2375
1900.34335	33428.3375
1903.46544	33370.1375
1906.58551	33349.7375
1909.70353	33274.0375
1912.81953	33245.9375
1915.93349	33172.0375
1919.04543	33036.6375
1922.15534	33010.6375
1925.26322	33017.4375
1928.36908	32914.7375
1931.47292	32861.5375
1934.57473	32767.6375
1937.67453	32664.9375
1940.77232	32635.9375
1943.86808	32598.9375
1946.96184	32482.0375
1950.05358	32401.5375
1953.14331	32336.6375
1956.23103	32289.7375
1959.31675	32141.8375
1962.40046	32043.2375
1965.48217	32005.2375
1968.56188	31953.0375
1971.63959	31875.8375
1974.7153	31756.4375
1977.78901	31656.5375
1980.86073	31585.2375
1983.93046	31473.6375
1986.99819	31377.1375
1990.06394	31334.6375
1993.1277	31190.1375
1996.18947	31082.3375
1999.24925	31053.1375
2002.30706	30959.8375
2005.36288	30873.3375
2008.41672	30783.5375
2011.46859	30734.2375
2014.51848	30646.3375
2017.56639	30515.0375
2020.61233	30492.4375
2023.6563	30440.3375
2026.6983	30402.4375
2029.73833	30318.9375
2032.7764	30219.8375
2035.8125	30183.3375
2038.84664	30162.3375
2041.87881	30130.2375
2044.90903	30106.8375
2047.93729	29999.1375
2050.96359	30025.2375
2053.98794	29941.3375
2057.01034	29929.0375
2060.03078	29873.1375
2063.04927	29892.0375
2066.06582	29875.5375
2069.08042	29871.5375
2072.09307	29811.7375
2075.10378	29778.9375
2078.11255	29751.0375
2081.11938	29768.1375
2084.12426	29714.3375
2087.12722	29734.3375
2090.12824	29764.3375
2093.12732	29795.0375
2096.12447	29811.7375
2099.11969	29831.5375
2102.11299	29816.0375
2105.10435	29837.8375
2108.09379	29867.4375
2111.08131	29914.6375
2114.0669	29895.2375
2117.05057	29887.7375
2120.03233	29932.0375
2123.01216	29944.2375
2125.99008	29986.5375
2128.96609	30005.6375
2131.94018	30084.8375
2134.91236	30039.1375
2137.88263	30042.5375
2140.851	30048.0375
2143.81746	30128.0375
2146.78201	30101.6375
2149.74466	30146.2375
2152.7054	30173.5375
2155.66425	30172.6375
2158.6212	30150.0375
2161.57625	30126.3375
2164.52941	30153.0375
2167.48067	30092.9375
2170.43004	30122.1375
2173.37752	30120.2375
2176.32311	30117.7375
2179.26681	30145.2375
2182.20863	30076.1375
2185.14856	30119.5375
2188.08661	30103.0375
2191.02278	30096.3375
2193.95707	30085.6375
2196.88948	30098.0375
2199.82001	30106.3375
2202.74867	30019.3375
2205.67545	30042.4375
2208.60037	29990.8375
2211.52341	29966.5375
2214.44458	29883.6375
2217.36388	29849.2375
2220.28132	29806.5375
2223.1969	29746.7375
2226.11061	29746.6375
2229.02246	29625.8375
2231.93245	29609.7375
2234.84058	29586.7375
2237.74686	29545.8375
2240.65128	29528.9375
2243.55385	29463.3375
2246.45456	29406.6375
2249.35343	29405.2375
2252.25044	29365.6375
2255.14561	29325.1375
2258.03893	29304.3375
2260.93041	29237.8375
2263.82004	29158.2375
2266.70783	29117.4375
2269.59378	29069.9375
2272.4779	29065.4375
2275.36017	28954.4375
2278.24061	28929.4375
2281.11922	28827.6375
2283.996	28823.6375
2286.87094	28776.1375
2289.74405	28701.0375
2292.61534	28696.3375
2295.4848	28671.2375
2298.35243	28697.3375
2301.21824	28693.0375
2304.08223	28695.9375
2306.94439	28665.8375
2309.80474	28671.3375
2312.66327	28661.2375
2315.51999	28610.4375
2318.37489	28588.2375
2321.22797	28581.2375
2324.07925	28521.3375
2326.92871	28500.1375
2329.77637	28442.1375
2332.62222	28399.4375
2335.46626	28381.3375
2338.3085	28354.6375
2341.14893	28341.1375
2343.98756	28357.8375
2346.8244	28340.4375
2349.65943	28312.0375
2352.49267	28295.2375
2355.32411	28294.5375
2358.15376	28253.9375
2360.98161	28233.0375
2363.80768	28190.6375
2366.63195	28171.6375
2369.45444	28155.7375
2372.27514	28112.8375
2375.09405	28090.5375
2377.91118	28058.1375
2380.72652	27987.7375
2383.54009	27930.3375
2386.35187	27933.0375
2389.16188	27830.1375
2391.97011	27808.7375
2394.77657	27765.9375
2397.58125	27728.5375
2400.38416	27704.1375
2403.18529	27638.8375
2405.98466	27661.3375
2408.78226	27551.3375
2411.57809	27568.1375
2414.37216	27537.8375
2417.16446	27566.7375
2419.955	27493.8375
2422.74378	27468.6375
2425.5308	27453.9375
2428.31606	27453.6375
2431.09956	27417.4375
2433.88131	27329.2375
2436.6613	27370.4375
2439.43954	27397.7375
2442.21603	27358.2375
2444.99077	27363.3375
2447.76377	27373.8375
2450.53501	27347.0375
2453.30451	27311.1375
2456.07226	27316.1375
2458.83827	27279.1375
2461.60254	27238.3375
2464.36507	27212.9375
2467.12586	27234.3375
2469.88492	27179.5375
2472.64224	27169.9375
2475.39782	27187.5375
2478.15167	27167.2375
2480.90379	27153.1375
2483.65417	27129.1375
2486.40283	27154.7375
2489.14976	27132.0375
2491.89497	27081.6375
2494.63845	27099.2375
2497.3802	27074.7375
2500.12024	27061.1375
2502.85855	27080.3375
2505.59514	27043.5375
2508.33002	27039.5375
2511.06318	26955.4375
2513.79462	26969.3375
2516.52435	26947.5375
2519.25237	26942.6375
2521.97867	26968.4375
2524.70327	26936.8375
2527.42616	26864.2375
2530.14734	26867.4375
2532.86681	26842.9375
2535.58458	26877.7375
2538.30065	26779.5375
2541.01501	26773.7375
2543.72768	26702.9375
2546.43864	26731.0375
2549.14791	26661.0375
2551.85548	26641.7375
2554.56136	26617.0375
2557.26554	26581.6375
2559.96803	26529.2375
2562.66883	26480.6375
2565.36794	26468.1375
2568.06536	26501.9375
2570.7611	26432.3375
2573.45514	26419.9375
2576.14751	26394.2375
2578.83819	26349.7375
2581.52719	26311.5375
2584.21451	26249.9375
2586.90015	26281.3375
2589.58411	26207.7375
2592.2664	26193.9375
2594.94701	26133.0375
2597.62594	26134.8375
2600.30321	26044.0375
2602.9788	26093.2375
2605.65273	26023.7375
2608.32498	26028.9375
2610.99557	25989.4375
2613.66449	26001.6375
2616.33175	25984.3375
2618.99734	25929.3375
2621.66128	25930.4375
2624.32355	25885.4375
2626.98416	25858.6375
2629.64311	25812.1375
2632.30041	25848.6375
2634.95605	25782.9375
2637.61004	25761.6375
2640.26238	25762.1375
2642.91306	25750.1375
2645.56209	25722.6375
2648.20948	25711.2375
2650.85521	25686.0375
2653.4993	25725.4375
2656.14175	25699.0375
2658.78255	25708.3375
2661.42171	25735.7375
2664.05923	25734.5375
2666.6951	25751.1375
2669.32934	25726.8375
2671.96194	25740.2375
2674.59291	25739.9375
2677.22224	25720.1375
2679.84993	25729.3375
2682.476	25708.6375
2685.10043	25739.9375
2687.72324	25719.1375
2690.34441	25719.6375
2692.96396	25720.5375
2695.58188	25767.6375
2698.19818	25729.3375
2700.81285	25728.8375
2703.4259	25710.3375
2706.03733	25734.6375
2708.64714	25727.2375
2711.25533	25748.3375
2713.86191	25751.2375
2716.46687	25743.5375
2719.07021	25728.4375
2721.67194	25761.3375
2724.27206	25698.3375
2726.87057	25742.2375
2729.46747	25717.2375
2732.06276	25723.9375
2734.65644	25758.3375
2737.24852	25750.9375
2739.83899	25673.2375
2742.42786	25760.9375
2745.01513	25703.8375
2747.60079	25688.5375
2750.18486	25646.6375
2752.76733	25640.1375
2755.3482	25611.1375
2757.92747	25620.9375
2760.50515	25614.3375
2763.08123	25592.9375
2765.65573	25518.3375
2768.22863	25503.2375
2770.79994	25486.3375
2773.36967	25493.1375
2775.9378	25478.0375
2778.50435	25436.7375
2781.06932	25403.2375
2783.6327	25412.2375
2786.1945	25356.0375
2788.75471	25325.7375
2791.31335	25292.2375
2793.87041	25281.1375
2796.42589	25193.3375
2798.97979	25190.2375
2801.53212	25096.5375
2804.08288	25077.7375
2806.63206	25024.0375
2809.17967	24978.4375
2811.72571	24912.2375
2814.27018	24939.2375
2816.81308	24866.5375
2819.35442	24834.3375
2821.89419	24755.4375
2824.43239	24732.7375
2826.96904	24713.0375
2829.50412	24675.2375
2832.03763	24618.6375
2834.56959	24600.9375
2837.1	24610.5375
2839.62884	24618.6375
2842.15613	24518.3375
2844.68186	24516.4375
2847.20604	24532.1375
2849.72867	24552.9375
2852.24974	24492.2375
2854.76927	24465.7375
2857.28724	24425.3375
2859.80367	24396.1375
2862.31855	24400.8375
2864.83189	24411.3375
2867.34368	24371.3375
2869.85393	24371.9375
2872.36264	24367.3375
2874.8698	24351.6375
2877.37543	24330.8375
2879.87952	24365.4375
2882.38207	24371.0375
2884.88308	24356.0375
2887.38256	24345.1375
2889.88051	24341.9375
2892.37692	24369.7375
2894.8718	24381.4375
2897.36515	24375.1375
2899.85698	24357.8375
2902.34727	24406.5375
2904.83604	24412.6375
2907.32328	24439.9375
2909.809	24417.3375
2912.29319	24427.6375
2914.77587	24395.5375
2917.25702	24419.8375
2919.73665	24393.6375
2922.21476	24395.2375
2924.69136	24390.6375
2927.16644	24360.0375
2929.64	24325.7375
2932.11205	24275.9375
2934.58258	24208.5375
2937.05161	24282.1375
2939.51912	24265.1375
2941.98513	24249.4375
2944.44962	24184.2375
2946.91261	24078.0375
2949.37409	24168.8375
2951.83407	24109.9375
2954.29254	24125.2375
2956.74951	24092.5375
2959.20498	24041.7375
2961.65895	24003.5375
2964.11142	23997.9375
2966.56239	23941.5375
2969.01186	23933.4375
2971.45984	23858.8375
2973.90632	23866.3375
2976.35131	23822.4375
2978.7948	23766.4375
2981.23681	23733.4375
2983.67732	23690.0375
2986.11635	23636.5375
2988.55388	23573.0375
2990.98993	23515.3375
2993.4245	23487.5375
2995.85758	23453.5375
2998.28917	23406.3375
3000.71928	23365.0375
3003.14791	23337.9375
3005.57506	23318.8375
3008.00073	23243.8375
3010.42493	23230.6375
3012.84764	23205.8375
3015.26888	23161.6375
3017.68865	23117.6375
3020.10694	23111.0375
3022.52376	23049.3375
3024.9391	22998.0375
3027.35298	22950.8375
3029.76539	22930.7375
3032.17632	22915.9375
3034.5858	22840.3375
3036.9938	22847.8375
3039.40034	22839.7375
3041.80542	22816.1375
3044.20903	22732.9375
3046.61118	22717.5375
3049.01187	22677.5375
3051.4111	22701.4375
3053.80888	22622.2375
3056.20519	22584.3375
3058.60005	22500.8375
3060.99345	22510.7375
3063.3854	22483.5375
3065.7759	22360.3375
3068.16494	22338.4375
3070.55254	22269.6375
3072.93868	22267.9375
3075.32338	22187.1375
3077.70662	22166.1375
3080.08842	22137.3375
3082.46878	22125.0375
3084.84769	22083.6375
3087.22515	22064.7375
3089.60118	22047.0375
3091.97576	22004.3375
3094.3489	22029.2375
3096.72061	22005.6375
3099.09087	21989.5375
3101.4597	21957.7375
3103.82709	21924.7375
3106.19305	21891.1375
3108.55757	21871.2375
3110.92066	21822.3375
3113.28232	21794.0375
3115.64255	21701.6375
3118.00134	21689.4375
3120.35871	21635.6375
3122.71466	21572.0375
3125.06917	21503.5375
3127.42226	21467.6375
3129.77393	21474.0375
3132.12417	21474.0375
3134.47299	21464.4375
3136.82039	21460.0375
3139.16636	21452.1375
3141.51092	21462.8375
3143.85406	21450.7375
3146.19579	21442.2375
3148.53609	21456.0375
3150.87499	21459.7375
3153.21246	21436.8375
3155.54853	21451.0375
3157.88318	21372.8375
3160.21642	21422.5375
3162.54826	21373.4375
3164.87868	21336.0375
3167.2077	21341.2375
3169.5353	21342.1375
3171.86151	21313.1375
3174.18631	21312.8375
3176.5097	21278.5375
3178.83169	21231.0375
3181.15228	21194.3375
3183.47147	21163.7375
3185.78926	21169.2375
3188.10565	21136.4375
3190.42065	21105.4375
3192.73424	21109.7375
3195.04645	21083.5375
3197.35725	21114.7375
3199.66667	21082.0375
3201.97469	21116.0375
3204.28132	21106.2375
3206.58656	21116.7375
3208.8904	21106.7375
3211.19287	21121.9375
3213.49394	21080.8375
3215.79363	21093.0375
3218.09193	21051.9375
3220.38884	21035.6375
3222.68438	21003.2375
3224.97853	20964.4375
3227.2713	20978.0375
3229.56269	20902.3375
3231.8527	20907.7375
3234.14133	20867.4375
3236.42858	20835.7375
3238.71446	20800.3375
3240.99896	20762.5375
3243.28209	20764.6375
3245.56384	20718.9375
3247.84423	20802.9375
3250.12324	20768.6375
3252.40088	20704.7375
3254.67715	20732.8375
3256.95205	20663.8375
3259.22558	20630.7375
3261.49775	20607.1375
3263.76855	20538.3375
3266.03799	20526.4375
3268.30606	20464.7375
3270.57277	20440.6375
3272.83812	20409.3375
3275.10211	20376.4375
3277.36474	20353.9375
3279.62601	20327.9375
3281.88593	20335.9375
3284.14448	20347.5375
3286.40168	20338.8375
3288.65753	20288.1375
3290.91202	20270.0375
3293.16516	20218.0375
3295.41695	20118.3375
3297.66738	19979.0375
3299.91647	19921.9375
3302.16421	19800.3375
3304.4106	19726.7375
3306.65564	19599.4375
3308.89933	19509.0375
3311.14169	19383.3375
3313.38269	19255.3375
3315.62236	19175.1375
3317.86068	19006.0375
3320.09766	18752.3375
3322.3333	18645.0375
3324.5676	18605.8375
3326.80056	18301.6375
3329.03219	18192.3375
3331.26248	4.6375
3333.49143	1.2375
3335.71905	-0.5625
