Data from AgNPs_FTO_APTES_UA_0uM_R6G_10uM_NaF_0.1M_Addition_RamanShift__55__11-00-27-147.txt Node

Date: Fri Dec 17 11:00:27 GMT 2021
User: TCL
Spectrometer: QEP01345
Trigger mode: 4
Integration Time (sec): 7.000000E0
Scans to average: 10
Electric dark correction enabled: true
Nonlinearity correction enabled: false
Boxcar width: 0
XAxis mode: Raman Shifts
Number of Pixels in Spectrum: 1044
>>>>>Begin Spectral Data<<<<<
46.04893	0.5625
50.45542	-0.2375
54.85868	-1.1375
59.25871	0.2625
63.6555	45.4625
68.04907	46.9625
72.43941	51.7625
76.82654	56.1625
81.21044	53.8625
85.59113	57.1625
89.96862	65.6625
94.34289	63.9625
98.71396	65.4625
103.08183	65.8625
107.4465	70.6625
111.80798	70.2625
116.16626	71.9625
120.52136	71.4625
124.87327	76.1625
129.222	78.2625
133.56755	78.4625
137.90993	84.7625
142.24913	89.6625
146.58517	93.3625
150.91804	104.7625
155.24774	124.3625
159.57429	151.0625
163.89768	188.0625
168.21792	240.0625
172.53501	319.0625
176.84895	433.6625
181.15975	595.6625
185.46741	829.8625
189.77193	1128.8625
194.07331	1507.6625
198.37157	1937.5625
202.6667	2393.0625
206.9587	2832.9625
211.24758	3286.9625
215.53334	3755.9625
219.81599	4286.0625
224.09553	4891.9625
228.37195	5558.2625
232.64527	6264.6625
236.91549	6945.5625
241.18261	7582.1625
245.44663	8088.4625
249.70755	8468.0625
253.96539	8794.4625
258.22014	9109.5625
262.4718	9422.7625
266.72039	9624.2625
270.96589	9767.5625
275.20832	9769.0625
279.44768	9701.4625
283.68397	9564.2625
287.91719	9501.1625
292.14735	9498.3625
296.37445	9702.4625
300.59849	10084.6625
304.81948	10571.7625
309.03742	10930.3625
313.25231	10933.3625
317.46415	10440.4625
321.67296	9626.1625
325.87872	8939.6625
330.08145	8593.1625
334.28114	8586.8625
338.47781	8718.0625
342.67145	8989.4625
346.86207	9440.7625
351.04966	10045.5625
355.23424	10731.7625
359.4158	11277.4625
363.59435	11505.2625
367.76989	11580.0625
371.94243	11526.3625
376.11196	11426.3625
380.27849	11308.7625
384.44203	11181.6625
388.60257	11058.5625
392.76012	10953.9625
396.91468	11080.0625
401.06626	11383.6625
405.21485	11658.9625
409.36047	11466.9625
413.50311	10936.1625
417.64277	10372.9625
421.77947	10077.7625
425.9132	9987.2625
430.04396	9964.3625
434.17176	10052.0625
438.2966	10214.4625
442.41849	10532.4625
446.53742	10931.7625
450.6534	11331.4625
454.76644	11603.2625
458.87653	11617.4625
462.98368	11477.8625
467.08789	11214.5625
471.18916	10848.0625
475.2875	10528.4625
479.38291	10283.3625
483.4754	10081.0625
487.56496	9883.6625
491.6516	9777.5625
495.73531	9718.4625
499.81612	9703.4625
503.89401	9820.2625
507.96899	9928.2625
512.04106	10098.1625
516.11023	10241.8625
520.1765	10359.3625
524.23987	10359.4625
528.30034	10193.9625
532.35792	9975.7625
536.41261	9719.7625
540.46441	9474.8625
544.51333	9352.6625
548.55936	9388.4625
552.60252	9589.6625
556.64279	9866.8625
560.6802	10021.4625
564.71473	10256.2625
568.7464	10753.0625
572.7752	11066.6625
576.80114	10776.7625
580.82422	10401.9625
584.84444	10315.4625
588.86181	10337.5625
592.87633	10465.9625
596.888	10705.5625
600.89682	11098.7625
604.9028	12339.1625
608.90594	15669.4625
612.90624	19933.6625
616.90371	19093.7625
620.89834	13273.4625
624.89015	10493.6625
628.87913	9938.3625
632.86528	9954.1625
636.84862	10063.0625
640.82913	9907.7625
644.80683	9470.1625
648.78172	9227.4625
652.75379	9295.6625
656.72306	9737.6625
660.68952	10283.3625
664.65319	10161.0625
668.61405	9623.8625
672.57211	9354.6625
676.52738	9328.0625
680.47986	9314.8625
684.42955	9237.4625
688.37646	9199.3625
692.32058	9232.9625
696.26192	9337.9625
700.20048	9499.2625
704.13626	9629.4625
708.06928	9611.8625
711.99952	9505.6625
715.927	9455.0625
719.85171	9455.6625
723.77365	9439.7625
727.69284	9353.9625
731.60928	9238.7625
735.52295	9268.4625
739.43388	9317.4625
743.34206	9423.5625
747.24749	9493.3625
751.15017	9590.0625
755.05012	9798.7625
758.94733	10296.0625
762.8418	11396.8625
766.73354	13245.7625
770.62254	15257.1625
774.50882	16212.1625
778.39237	15538.1625
782.27321	13540.6625
786.15132	11490.3625
790.02671	10327.3625
793.89938	9788.5625
797.76935	9599.4625
801.6366	9475.3625
805.50115	9406.9625
809.36299	9350.8625
813.22213	9294.5625
817.07857	9315.8625
820.93231	9298.5625
824.78336	9329.9625
828.63172	9374.0625
832.47738	9440.4625
836.32036	9414.1625
840.16066	9382.9625
843.99827	9309.5625
847.8332	9262.8625
851.66546	9270.3625
855.49504	9250.7625
859.32195	9226.6625
863.1462	9170.3625
866.96777	9097.1625
870.78668	9112.5625
874.60293	9141.3625
878.41652	9213.5625
882.22745	9235.9625
886.03573	9298.7625
889.84136	9262.1625
893.64433	9225.2625
897.44466	9203.2625
901.24235	9202.2625
905.0374	9183.4625
908.8298	9145.8625
912.61957	9127.1625
916.40671	9182.6625
920.19121	9270.4625
923.97308	9381.3625
927.75233	9476.9625
931.52895	9613.1625
935.30295	9494.5625
939.07433	9183.4625
942.84309	8950.0625
946.60924	8830.0625
950.37278	8745.3625
954.13371	8720.8625
957.89203	8650.7625
961.64774	8631.9625
965.40086	8614.5625
969.15137	8596.2625
972.89929	8562.7625
976.64461	8572.2625
980.38733	8579.3625
984.12747	8580.1625
987.86502	8629.1625
991.59999	8698.9625
995.33237	8823.4625
999.06217	9061.4625
1002.78939	9340.4625
1006.51404	9632.1625
1010.23611	9867.7625
1013.95561	10008.3625
1017.67255	9975.9625
1021.38692	9819.2625
1025.09872	9594.7625
1028.80796	9515.1625
1032.51465	9601.4625
1036.21877	9784.8625
1039.92035	9888.7625
1043.61937	9889.7625
1047.31584	9790.0625
1051.00976	9638.1625
1054.70114	9527.4625
1058.38998	9463.2625
1062.07627	9465.0625
1065.76003	9510.4625
1069.44126	9596.3625
1073.11995	9731.8625
1076.79611	9853.1625
1080.46974	10010.9625
1084.14085	10255.0625
1087.80943	10544.7625
1091.47549	10616.2625
1095.13903	10418.0625
1098.80005	10020.5625
1102.45857	9747.8625
1106.11456	9607.8625
1109.76805	9633.1625
1113.41903	9830.0625
1117.06751	10110.8625
1120.71348	10536.0625
1124.35696	10981.1625
1127.99793	11389.8625
1131.63641	11341.3625
1135.2724	10861.0625
1138.90589	10350.9625
1142.5369	10105.9625
1146.16542	9901.8625
1149.79145	9826.8625
1153.415	9847.2625
1157.03607	9950.2625
1160.65467	10179.5625
1164.27079	10523.6625
1167.88443	11117.5625
1171.49561	12071.4625
1175.10432	13629.2625
1178.71056	15725.6625
1182.31434	17255.5625
1185.91565	17645.2625
1189.51451	17266.8625
1193.11091	16275.3625
1196.70485	14929.6625
1200.29634	13890.9625
1203.88538	13107.9625
1207.47197	12273.3625
1211.05612	11630.0625
1214.63782	11320.4625
1218.21708	11227.4625
1221.79391	11284.8625
1225.36829	11343.1625
1228.94024	11395.3625
1232.50976	11398.5625
1236.07685	11440.5625
1239.6415	11498.8625
1243.20374	11538.6625
1246.76355	11611.7625
1250.32093	11673.6625
1253.8759	11958.8625
1257.42845	12329.8625
1260.97859	12736.2625
1264.52631	13124.0625
1268.07163	13508.6625
1271.61453	13887.1625
1275.15503	14113.5625
1278.69312	14281.0625
1282.22882	14400.2625
1285.76211	14705.0625
1289.29301	15245.7625
1292.82151	15733.5625
1296.34761	16222.8625
1299.87133	16930.8625
1303.39266	18094.3625
1306.9116	19954.3625
1310.42815	22162.6625
1313.94233	23693.8625
1317.45412	23512.5625
1320.96354	22186.7625
1324.47058	20586.6625
1327.97525	19289.0625
1331.47754	18574.4625
1334.97747	18362.5625
1338.47502	18473.2625
1341.97022	18758.3625
1345.46305	19149.8625
1348.95352	19893.7625
1352.44163	21048.4625
1355.92738	22911.8625
1359.41078	25707.7625
1362.89183	28635.2625
1366.37053	28158.7625
1369.84688	24201.4625
1373.32088	20080.3625
1376.79254	17311.0625
1380.26186	15980.5625
1383.72883	15349.2625
1387.19347	14884.4625
1390.65578	14359.8625
1394.11575	13907.8625
1397.57339	13768.9625
1401.0287	13888.4625
1404.48168	14208.3625
1407.93234	14605.4625
1411.38068	14907.4625
1414.82669	14871.9625
1418.27039	14518.9625
1421.71177	14034.2625
1425.15083	13674.6625
1428.58758	13476.6625
1432.02203	13552.0625
1435.45416	13664.0625
1438.88399	13796.9625
1442.31151	13840.4625
1445.73673	13905.8625
1449.15965	13972.4625
1452.58027	13913.8625
1455.9986	13758.8625
1459.41463	13686.6625
1462.82837	13761.7625
1466.23982	14039.6625
1469.64898	14346.4625
1473.05586	14544.2625
1476.46045	14710.5625
1479.86276	14931.8625
1483.26279	15261.6625
1486.66054	15580.7625
1490.05602	16023.9625
1493.44922	16612.3625
1496.84016	17454.5625
1500.22882	18788.2625
1503.61521	20549.5625
1506.99934	22631.2625
1510.38121	24760.9625
1513.76081	25943.8625
1517.13816	25081.5625
1520.51324	22401.7625
1523.88607	19495.9625
1527.25665	17494.1625
1530.62498	16362.4625
1533.99105	15731.1625
1537.35488	15324.3625
1540.71647	15059.7625
1544.07581	14890.9625
1547.4329	14759.1625
1550.78776	14562.4625
1554.14038	14391.3625
1557.49077	14363.9625
1560.83892	14476.4625
1564.18484	14780.3625
1567.52853	15119.7625
1570.86999	15495.8625
1574.20922	15766.3625
1577.54624	15743.4625
1580.88103	15112.3625
1584.2136	14277.3625
1587.54395	13957.3625
1590.87208	14318.6625
1594.19801	15361.4625
1597.52172	16714.3625
1600.84321	17422.9625
1604.16251	16946.0625
1607.47959	15734.7625
1610.79447	14243.5625
1614.10715	12855.0625
1617.41763	11837.2625
1620.7259	11232.7625
1624.03199	10947.8625
1627.33587	10948.7625
1630.63757	11221.9625
1633.93707	11792.7625
1637.23439	12714.5625
1640.52951	13971.1625
1643.82246	15627.9625
1647.11321	17421.2625
1650.40179	18626.0625
1653.68819	18122.5625
1656.97241	15806.1625
1660.25446	13173.1625
1663.53433	11242.3625
1666.81203	10121.6625
1670.08756	9490.3625
1673.36092	9085.4625
1676.63211	8832.0625
1679.90115	8688.0625
1683.16801	8557.9625
1686.43272	8468.4625
1689.69527	8403.1625
1692.95567	8361.7625
1696.2139	8321.6625
1699.46999	8310.0625
1702.72392	8280.6625
1705.97571	8260.9625
1709.22535	8262.5625
1712.47284	8271.5625
1715.71819	8269.0625
1718.96139	8269.3625
1722.20246	8250.9625
1725.44139	8198.5625
1728.67818	8162.8625
1731.91284	8106.1625
1735.14537	8035.2625
1738.37576	8016.6625
1741.60403	7961.9625
1744.83017	7913.5625
1748.05418	7901.4625
1751.27607	7871.8625
1754.49584	7881.5625
1757.71349	7860.3625
1760.92903	7843.4625
1764.14244	7831.1625
1767.35375	7836.7625
1770.56294	7810.3625
1773.77002	7802.0625
1776.97499	7752.6625
1780.17785	7746.0625
1783.37861	7719.2625
1786.57727	7734.4625
1789.77382	7702.6625
1792.96828	7701.9625
1796.16064	7687.3625
1799.3509	7687.9625
1802.53907	7682.1625
1805.72514	7631.9625
1808.90913	7615.3625
1812.09102	7594.6625
1815.27083	7587.0625
1818.44856	7563.1625
1821.6242	7560.0625
1824.79776	7538.6625
1827.96924	7530.5625
1831.13864	7507.2625
1834.30597	7501.8625
1837.47122	7498.9625
1840.6344	7523.1625
1843.7955	7508.6625
1846.95454	7505.1625
1850.11151	7479.6625
1853.26642	7483.3625
1856.41926	7492.8625
1859.57004	7485.4625
1862.71876	7489.2625
1865.86542	7482.6625
1869.01003	7495.9625
1872.15258	7503.2625
1875.29308	7477.0625
1878.43152	7484.1625
1881.56792	7486.1625
1884.70227	7502.7625
1887.83457	7496.6625
1890.96482	7489.8625
1894.09304	7492.8625
1897.21921	7471.6625
1900.34335	7477.7625
1903.46544	7473.7625
1906.58551	7489.6625
1909.70353	7480.2625
1912.81953	7467.3625
1915.93349	7468.8625
1919.04543	7466.2625
1922.15534	7447.8625
1925.26322	7433.8625
1928.36908	7419.9625
1931.47292	7392.2625
1934.57473	7348.2625
1937.67453	7342.9625
1940.77232	7331.8625
1943.86808	7281.0625
1946.96184	7251.7625
1950.05358	7223.3625
1953.14331	7198.7625
1956.23103	7173.1625
1959.31675	7135.5625
1962.40046	7102.3625
1965.48217	7120.3625
1968.56188	7059.4625
1971.63959	7047.2625
1974.7153	7020.8625
1977.78901	7007.1625
1980.86073	6989.4625
1983.93046	6947.3625
1986.99819	6929.5625
1990.06394	6887.7625
1993.1277	6875.9625
1996.18947	6852.5625
1999.24925	6835.5625
2002.30706	6810.8625
2005.36288	6786.4625
2008.41672	6788.1625
2011.46859	6752.8625
2014.51848	6730.0625
2017.56639	6711.5625
2020.61233	6707.9625
2023.6563	6687.4625
2026.6983	6676.4625
2029.73833	6642.5625
2032.7764	6621.7625
2035.8125	6612.2625
2038.84664	6615.6625
2041.87881	6604.8625
2044.90903	6591.1625
2047.93729	6565.9625
2050.96359	6568.6625
2053.98794	6539.6625
2057.01034	6522.5625
2060.03078	6514.6625
2063.04927	6516.0625
2066.06582	6503.4625
2069.08042	6512.4625
2072.09307	6500.1625
2075.10378	6463.3625
2078.11255	6482.6625
2081.11938	6479.7625
2084.12426	6471.5625
2087.12722	6466.0625
2090.12824	6464.7625
2093.12732	6468.6625
2096.12447	6468.5625
2099.11969	6444.5625
2102.11299	6459.8625
2105.10435	6458.4625
2108.09379	6465.9625
2111.08131	6451.5625
2114.0669	6445.5625
2117.05057	6431.1625
2120.03233	6445.2625
2123.01216	6464.2625
2125.99008	6448.2625
2128.96609	6464.5625
2131.94018	6469.9625
2134.91236	6463.2625
2137.88263	6471.1625
2140.851	6472.2625
2143.81746	6463.1625
2146.78201	6461.4625
2149.74466	6455.3625
2152.7054	6457.1625
2155.66425	6445.3625
2158.6212	6443.0625
2161.57625	6449.2625
2164.52941	6443.6625
2167.48067	6441.7625
2170.43004	6422.6625
2173.37752	6421.4625
2176.32311	6416.6625
2179.26681	6413.7625
2182.20863	6444.0625
2185.14856	6443.5625
2188.08661	6415.1625
2191.02278	6413.9625
2193.95707	6421.2625
2196.88948	6411.9625
2199.82001	6415.2625
2202.74867	6388.4625
2205.67545	6405.2625
2208.60037	6383.8625
2211.52341	6361.3625
2214.44458	6392.9625
2217.36388	6336.5625
2220.28132	6316.5625
2223.1969	6286.2625
2226.11061	6293.9625
2229.02246	6280.8625
2231.93245	6263.4625
2234.84058	6243.5625
2237.74686	6257.4625
2240.65128	6235.2625
2243.55385	6244.4625
2246.45456	6223.4625
2249.35343	6216.2625
2252.25044	6200.3625
2255.14561	6193.7625
2258.03893	6183.2625
2260.93041	6179.6625
2263.82004	6160.7625
2266.70783	6130.4625
2269.59378	6158.1625
2272.4779	6140.4625
2275.36017	6122.3625
2278.24061	6105.0625
2281.11922	6079.1625
2283.996	6075.0625
2286.87094	6046.6625
2289.74405	6047.4625
2292.61534	6028.7625
2295.4848	6002.7625
2298.35243	6009.6625
2301.21824	6001.3625
2304.08223	6011.6625
2306.94439	6008.4625
2309.80474	5998.8625
2312.66327	5977.1625
2315.51999	5988.7625
2318.37489	5975.1625
2321.22797	5980.4625
2324.07925	5977.3625
2326.92871	5968.0625
2329.77637	5959.2625
2332.62222	5964.5625
2335.46626	5937.2625
2338.3085	5911.5625
2341.14893	5937.5625
2343.98756	5935.9625
2346.8244	5921.6625
2349.65943	5938.7625
2352.49267	5939.9625
2355.32411	5936.2625
2358.15376	5945.4625
2360.98161	5946.2625
2363.80768	5935.4625
2366.63195	5941.7625
2369.45444	5921.2625
2372.27514	5927.0625
2375.09405	5900.3625
2377.91118	5907.0625
2380.72652	5879.5625
2383.54009	5864.3625
2386.35187	5821.9625
2389.16188	5805.4625
2391.97011	5799.0625
2394.77657	5780.2625
2397.58125	5759.1625
2400.38416	5750.0625
2403.18529	5718.2625
2405.98466	5716.8625
2408.78226	5703.1625
2411.57809	5692.8625
2414.37216	5698.7625
2417.16446	5679.9625
2419.955	5667.6625
2422.74378	5658.1625
2425.5308	5646.6625
2428.31606	5650.6625
2431.09956	5645.0625
2433.88131	5637.1625
2436.6613	5633.4625
2439.43954	5644.4625
2442.21603	5638.9625
2444.99077	5627.0625
2447.76377	5624.3625
2450.53501	5615.0625
2453.30451	5638.9625
2456.07226	5616.2625
2458.83827	5624.6625
2461.60254	5616.8625
2464.36507	5597.6625
2467.12586	5598.3625
2469.88492	5581.1625
2472.64224	5596.5625
2475.39782	5591.5625
2478.15167	5597.1625
2480.90379	5601.2625
2483.65417	5620.6625
2486.40283	5605.9625
2489.14976	5630.6625
2491.89497	5627.6625
2494.63845	5619.3625
2497.3802	5623.2625
2500.12024	5604.7625
2502.85855	5612.5625
2505.59514	5590.2625
2508.33002	5570.2625
2511.06318	5573.1625
2513.79462	5547.7625
2516.52435	5527.3625
2519.25237	5516.8625
2521.97867	5511.4625
2524.70327	5491.2625
2527.42616	5470.7625
2530.14734	5475.7625
2532.86681	5460.6625
2535.58458	5463.5625
2538.30065	5471.4625
2541.01501	5458.7625
2543.72768	5437.4625
2546.43864	5450.0625
2549.14791	5423.2625
2551.85548	5440.2625
2554.56136	5431.3625
2557.26554	5431.0625
2559.96803	5418.9625
2562.66883	5410.6625
2565.36794	5406.0625
2568.06536	5405.7625
2570.7611	5386.1625
2573.45514	5367.2625
2576.14751	5373.7625
2578.83819	5347.8625
2581.52719	5360.4625
2584.21451	5353.7625
2586.90015	5317.5625
2589.58411	5334.5625
2592.2664	5339.6625
2594.94701	5320.8625
2597.62594	5317.4625
2600.30321	5301.9625
2602.9788	5313.5625
2605.65273	5304.9625
2608.32498	5302.2625
2610.99557	5298.5625
2613.66449	5297.9625
2616.33175	5272.8625
2618.99734	5283.2625
2621.66128	5277.4625
2624.32355	5273.2625
2626.98416	5261.9625
2629.64311	5270.4625
2632.30041	5273.1625
2634.95605	5257.8625
2637.61004	5264.0625
2640.26238	5242.8625
2642.91306	5231.3625
2645.56209	5225.3625
2648.20948	5205.7625
2650.85521	5201.2625
2653.4993	5204.4625
2656.14175	5198.5625
2658.78255	5227.9625
2661.42171	5195.0625
2664.05923	5215.3625
2666.6951	5219.1625
2669.32934	5225.0625
2671.96194	5244.7625
2674.59291	5240.8625
2677.22224	5259.8625
2679.84993	5244.2625
2682.476	5244.4625
2685.10043	5234.2625
2687.72324	5241.1625
2690.34441	5238.7625
2692.96396	5243.9625
2695.58188	5249.3625
2698.19818	5215.2625
2700.81285	5230.6625
2703.4259	5249.2625
2706.03733	5257.7625
2708.64714	5266.9625
2711.25533	5257.5625
2713.86191	5243.9625
2716.46687	5250.2625
2719.07021	5254.7625
2721.67194	5252.8625
2724.27206	5258.7625
2726.87057	5241.8625
2729.46747	5261.0625
2732.06276	5259.7625
2734.65644	5242.3625
2737.24852	5256.2625
2739.83899	5229.2625
2742.42786	5235.5625
2745.01513	5229.6625
2747.60079	5233.6625
2750.18486	5209.4625
2752.76733	5213.4625
2755.3482	5216.8625
2757.92747	5212.5625
2760.50515	5186.5625
2763.08123	5179.5625
2765.65573	5196.6625
2768.22863	5188.3625
2770.79994	5182.9625
2773.36967	5186.0625
2775.9378	5175.5625
2778.50435	5190.5625
2781.06932	5170.8625
2783.6327	5184.7625
2786.1945	5179.1625
2788.75471	5181.6625
2791.31335	5176.1625
2793.87041	5171.5625
2796.42589	5158.5625
2798.97979	5164.6625
2801.53212	5153.4625
2804.08288	5148.8625
2806.63206	5147.9625
2809.17967	5161.1625
2811.72571	5166.9625
2814.27018	5151.4625
2816.81308	5182.3625
2819.35442	5176.6625
2821.89419	5163.3625
2824.43239	5184.3625
2826.96904	5186.6625
2829.50412	5181.7625
2832.03763	5172.0625
2834.56959	5187.9625
2837.1	5180.6625
2839.62884	5228.3625
2842.15613	5245.3625
2844.68186	5290.1625
2847.20604	5337.8625
2849.72867	5358.6625
2852.24974	5384.5625
2854.76927	5388.0625
2857.28724	5377.5625
2859.80367	5352.1625
2862.31855	5330.2625
2864.83189	5336.2625
2867.34368	5310.0625
2869.85393	5301.2625
2872.36264	5299.9625
2874.8698	5302.4625
2877.37543	5287.4625
2879.87952	5265.2625
2882.38207	5275.7625
2884.88308	5268.3625
2887.38256	5276.4625
2889.88051	5244.8625
2892.37692	5248.2625
2894.8718	5271.8625
2897.36515	5267.4625
2899.85698	5250.9625
2902.34727	5263.1625
2904.83604	5255.9625
2907.32328	5276.0625
2909.809	5248.8625
2912.29319	5253.9625
2914.77587	5237.0625
2917.25702	5228.7625
2919.73665	5218.5625
2922.21476	5226.2625
2924.69136	5204.4625
2927.16644	5225.6625
2929.64	5188.7625
2932.11205	5187.0625
2934.58258	5154.0625
2937.05161	5155.5625
2939.51912	5137.7625
2941.98513	5096.8625
2944.44962	5050.3625
2946.91261	5011.4625
2949.37409	4997.3625
2951.83407	4979.6625
2954.29254	4950.1625
2956.74951	4911.8625
2959.20498	4921.3625
2961.65895	4905.4625
2964.11142	4894.7625
2966.56239	4859.6625
2969.01186	4849.5625
2971.45984	4827.9625
2973.90632	4820.4625
2976.35131	4788.8625
2978.7948	4783.2625
2981.23681	4755.9625
2983.67732	4753.7625
2986.11635	4730.5625
2988.55388	4709.6625
2990.98993	4687.7625
2993.4245	4672.6625
2995.85758	4661.1625
2998.28917	4663.4625
3000.71928	4640.2625
3003.14791	4620.5625
3005.57506	4618.0625
3008.00073	4616.1625
3010.42493	4593.6625
3012.84764	4598.0625
3015.26888	4596.0625
3017.68865	4569.8625
3020.10694	4563.3625
3022.52376	4562.4625
3024.9391	4541.5625
3027.35298	4539.6625
3029.76539	4528.6625
3032.17632	4510.9625
3034.5858	4508.4625
3036.9938	4520.7625
3039.40034	4497.4625
3041.80542	4495.5625
3044.20903	4493.0625
3046.61118	4478.5625
3049.01187	4467.2625
3051.4111	4463.3625
3053.80888	4449.9625
3056.20519	4440.5625
3058.60005	4429.5625
3060.99345	4435.4625
3063.3854	4418.7625
3065.7759	4394.8625
3068.16494	4391.1625
3070.55254	4385.0625
3072.93868	4369.2625
3075.32338	4361.7625
3077.70662	4339.8625
3080.08842	4323.2625
3082.46878	4316.8625
3084.84769	4290.1625
3087.22515	4292.4625
3089.60118	4291.6625
3091.97576	4282.3625
3094.3489	4273.5625
3096.72061	4280.2625
3099.09087	4263.6625
3101.4597	4255.7625
3103.82709	4258.3625
3106.19305	4234.1625
3108.55757	4237.6625
3110.92066	4224.8625
3113.28232	4224.4625
3115.64255	4216.3625
3118.00134	4210.0625
3120.35871	4197.8625
3122.71466	4189.1625
3125.06917	4183.1625
3127.42226	4177.8625
3129.77393	4198.7625
3132.12417	4185.7625
3134.47299	4183.6625
3136.82039	4183.0625
3139.16636	4179.7625
3141.51092	4183.5625
3143.85406	4201.7625
3146.19579	4197.4625
3148.53609	4186.0625
3150.87499	4191.1625
3153.21246	4200.3625
3155.54853	4192.7625
3157.88318	4180.2625
3160.21642	4191.5625
3162.54826	4197.0625
3164.87868	4178.3625
3167.2077	4182.5625
3169.5353	4179.3625
3171.86151	4182.2625
3174.18631	4177.7625
3176.5097	4183.3625
3178.83169	4159.4625
3181.15228	4181.2625
3183.47147	4163.8625
3185.78926	4165.6625
3188.10565	4152.7625
3190.42065	4181.7625
3192.73424	4173.3625
3195.04645	4183.4625
3197.35725	4188.7625
3199.66667	4172.8625
3201.97469	4191.3625
3204.28132	4168.0625
3206.58656	4181.4625
3208.8904	4191.1625
3211.19287	4178.5625
3213.49394	4178.6625
3215.79363	4171.0625
3218.09193	4177.3625
3220.38884	4181.6625
3222.68438	4170.2625
3224.97853	4165.8625
3227.2713	4174.1625
3229.56269	4165.3625
3231.8527	4173.0625
3234.14133	4158.5625
3236.42858	4144.7625
3238.71446	4146.6625
3240.99896	4132.8625
3243.28209	4139.0625
3245.56384	4128.0625
3247.84423	4131.6625
3250.12324	4128.5625
3252.40088	4114.4625
3254.67715	4113.6625
3256.95205	4102.6625
3259.22558	4091.2625
3261.49775	4086.3625
3263.76855	4095.7625
3266.03799	4080.9625
3268.30606	4084.0625
3270.57277	4061.1625
3272.83812	4077.5625
3275.10211	4058.9625
3277.36474	4049.5625
3279.62601	4055.2625
3281.88593	4039.2625
3284.14448	4038.7625
3286.40168	4034.2625
3288.65753	4029.9625
3290.91202	4015.2625
3293.16516	4006.4625
3295.41695	3994.7625
3297.66738	3963.0625
3299.91647	3959.4625
3302.16421	3941.4625
3304.4106	3916.1625
3306.65564	3899.6625
3308.89933	3866.6625
3311.14169	3852.3625
3313.38269	3817.1625
3315.62236	3779.1625
3317.86068	3755.9625
3320.09766	3704.8625
3322.3333	3675.4625
3324.5676	3688.7625
3326.80056	3620.0625
3329.03219	3607.9625
3331.26248	1.2625
3333.49143	0.3625
3335.71905	-0.7375
