Data from AgNPs_FTO_APTES_UA_200uM_R6G_10uM_NaF_0.1M_Addition_RamanShift__24__16-28-17-522.txt Node

Date: Fri Dec 17 16:28:17 GMT 2021
User: TCL
Spectrometer: QEP01345
Trigger mode: 4
Integration Time (sec): 7.000000E0
Scans to average: 10
Electric dark correction enabled: true
Nonlinearity correction enabled: false
Boxcar width: 0
XAxis mode: Raman Shifts
Number of Pixels in Spectrum: 1044
>>>>>Begin Spectral Data<<<<<
46.04893	1.1375
50.45542	-0.2625
54.85868	-1.9625
59.25871	1.5375
63.6555	49.5375
68.04907	49.8375
72.43941	54.1375
76.82654	59.2375
81.21044	57.9375
85.59113	59.6375
89.96862	62.4375
94.34289	64.8375
98.71396	66.9375
103.08183	70.6375
107.4465	73.5375
111.80798	73.9375
116.16626	76.3375
120.52136	77.9375
124.87327	77.7375
129.222	81.7375
133.56755	86.7375
137.90993	94.3375
142.24913	98.9375
146.58517	107.2375
150.91804	124.9375
155.24774	148.9375
159.57429	185.3375
163.89768	231.5375
168.21792	306.4375
172.53501	412.5375
176.84895	569.6375
181.15975	796.1375
185.46741	1117.3375
189.77193	1543.3375
194.07331	2080.2375
198.37157	2682.2375
202.6667	3318.6375
206.9587	3939.5375
211.24758	4566.6375
215.53334	5179.8375
219.81599	5826.2375
224.09553	6533.2375
228.37195	7309.9375
232.64527	8173.3375
236.91549	9102.6375
241.18261	10024.8375
245.44663	10901.1375
249.70755	11676.0375
253.96539	12405.7375
258.22014	13001.7375
262.4718	13480.7375
266.72039	13831.9375
270.96589	13977.8375
275.20832	14016.2375
279.44768	13880.6375
283.68397	13697.8375
287.91719	13468.7375
292.14735	13360.5375
296.37445	13321.3375
300.59849	13374.9375
304.81948	13460.6375
309.03742	13492.8375
313.25231	13329.1375
317.46415	13031.0375
321.67296	12641.9375
325.87872	12379.3375
330.08145	12273.8375
334.28114	12297.2375
338.47781	12394.0375
342.67145	12559.1375
346.86207	12795.9375
351.04966	13043.0375
355.23424	13362.6375
359.4158	13690.4375
363.59435	13894.8375
367.76989	14076.4375
371.94243	14209.8375
376.11196	14351.3375
380.27849	14401.2375
384.44203	14470.9375
388.60257	14486.4375
392.76012	14512.3375
396.91468	14617.8375
401.06626	14750.3375
405.21485	14900.7375
409.36047	14853.5375
413.50311	14598.4375
417.64277	14317.0375
421.77947	14149.8375
425.9132	14073.2375
430.04396	14078.8375
434.17176	14103.2375
438.2966	14179.0375
442.41849	14300.5375
446.53742	14459.6375
450.6534	14570.1375
454.76644	14722.0375
458.87653	14818.4375
462.98368	14820.4375
467.08789	14802.2375
471.18916	14767.9375
475.2875	14693.1375
479.38291	14610.1375
483.4754	14552.4375
487.56496	14492.5375
491.6516	14476.3375
495.73531	14481.6375
499.81612	14456.0375
503.89401	14506.2375
507.96899	14530.0375
512.04106	14630.8375
516.11023	14731.2375
520.1765	14793.0375
524.23987	14841.6375
528.30034	14744.7375
532.35792	14678.4375
536.41261	14581.5375
540.46441	14460.4375
544.51333	14373.4375
548.55936	14361.4375
552.60252	14424.9375
556.64279	14539.6375
560.6802	14530.9375
564.71473	14557.9375
568.7464	14643.7375
572.7752	14730.1375
576.80114	14637.0375
580.82422	14542.5375
584.84444	14493.5375
588.86181	14505.5375
592.87633	14551.7375
596.888	14607.9375
600.89682	14759.2375
604.9028	15428.9375
608.90594	17028.6375
612.90624	19100.5375
616.90371	18779.1375
620.89834	16161.5375
624.89015	14919.3375
628.87913	14768.5375
632.86528	14907.1375
636.84862	15106.6375
640.82913	15032.2375
644.80683	14713.9375
648.78172	14378.4375
652.75379	14269.1375
656.72306	14348.2375
660.68952	14555.6375
664.65319	14530.7375
668.61405	14313.0375
672.57211	14256.9375
676.52738	14284.2375
680.47986	14243.0375
684.42955	14143.2375
688.37646	14106.1375
692.32058	14056.4375
696.26192	14078.3375
700.20048	14106.7375
704.13626	14161.5375
708.06928	14110.5375
711.99952	14081.6375
715.927	14034.2375
719.85171	14029.1375
723.77365	14050.2375
727.69284	14009.5375
731.60928	13948.0375
735.52295	13934.5375
739.43388	13911.1375
743.34206	13939.2375
747.24749	13963.4375
751.15017	13925.1375
755.05012	13928.1375
758.94733	14104.5375
762.8418	14601.4375
766.73354	15498.1375
770.62254	16585.7375
774.50882	17328.1375
778.39237	16984.3375
782.27321	15775.8375
786.15132	14734.9375
790.02671	14106.8375
793.89938	13787.3375
797.76935	13652.6375
801.6366	13632.2375
805.50115	13653.8375
809.36299	13654.2375
813.22213	13642.1375
817.07857	13638.9375
820.93231	13552.2375
824.78336	13475.3375
828.63172	13412.3375
832.47738	13382.6375
836.32036	13362.2375
840.16066	13307.9375
843.99827	13249.4375
847.8332	13257.8375
851.66546	13231.1375
855.49504	13195.7375
859.32195	13209.5375
863.1462	13205.7375
866.96777	13205.8375
870.78668	13229.5375
874.60293	13229.5375
878.41652	13260.9375
882.22745	13291.2375
886.03573	13305.0375
889.84136	13348.0375
893.64433	13283.8375
897.44466	13182.9375
901.24235	13092.9375
905.0374	12996.4375
908.8298	12916.1375
912.61957	12870.2375
916.40671	12849.3375
920.19121	12870.1375
923.97308	12890.7375
927.75233	12886.7375
931.52895	12887.8375
935.30295	12862.9375
939.07433	12716.8375
942.84309	12619.1375
946.60924	12516.9375
950.37278	12480.4375
954.13371	12445.0375
957.89203	12382.2375
961.64774	12335.8375
965.40086	12292.8375
969.15137	12197.2375
972.89929	12177.5375
976.64461	12161.4375
980.38733	12114.5375
984.12747	12117.6375
987.86502	12111.5375
991.59999	12137.4375
995.33237	12145.5375
999.06217	12246.6375
1002.78939	12353.0375
1006.51404	12454.7375
1010.23611	12536.7375
1013.95561	12646.0375
1017.67255	12704.2375
1021.38692	12611.7375
1025.09872	12544.2375
1028.80796	12450.4375
1032.51465	12429.9375
1036.21877	12403.1375
1039.92035	12441.6375
1043.61937	12421.1375
1047.31584	12440.6375
1051.00976	12406.0375
1054.70114	12385.1375
1058.38998	12405.1375
1062.07627	12434.3375
1065.76003	12519.5375
1069.44126	12570.6375
1073.11995	12668.8375
1076.79611	12744.4375
1080.46974	12748.0375
1084.14085	12713.7375
1087.80943	12714.9375
1091.47549	12729.0375
1095.13903	12651.1375
1098.80005	12503.3375
1102.45857	12354.6375
1106.11456	12273.3375
1109.76805	12271.1375
1113.41903	12376.7375
1117.06751	12519.7375
1120.71348	12735.4375
1124.35696	12963.0375
1127.99793	13206.9375
1131.63641	13419.5375
1135.2724	13341.4375
1138.90589	13101.3375
1142.5369	12877.3375
1146.16542	12617.2375
1149.79145	12374.5375
1153.415	12229.4375
1157.03607	12167.8375
1160.65467	12229.5375
1164.27079	12383.4375
1167.88443	12614.6375
1171.49561	13005.0375
1175.10432	13622.3375
1178.71056	14483.8375
1182.31434	15319.1375
1185.91565	15623.6375
1189.51451	15534.7375
1193.11091	15108.4375
1196.70485	14480.6375
1200.29634	14028.3375
1203.88538	13710.9375
1207.47197	13313.9375
1211.05612	12883.0375
1214.63782	12598.4375
1218.21708	12441.8375
1221.79391	12329.6375
1225.36829	12266.3375
1228.94024	12255.3375
1232.50976	12286.7375
1236.07685	12290.9375
1239.6415	12285.1375
1243.20374	12330.7375
1246.76355	12393.3375
1250.32093	12441.1375
1253.8759	12530.3375
1257.42845	12691.5375
1260.97859	12819.1375
1264.52631	12976.8375
1268.07163	13143.2375
1271.61453	13313.7375
1275.15503	13457.3375
1278.69312	13535.8375
1282.22882	13577.2375
1285.76211	13710.5375
1289.29301	13865.5375
1292.82151	14111.4375
1296.34761	14365.3375
1299.87133	14773.4375
1303.39266	15404.9375
1306.9116	16210.3375
1310.42815	17086.0375
1313.94233	17647.5375
1317.45412	17470.8375
1320.96354	16854.7375
1324.47058	16127.3375
1327.97525	15456.4375
1331.47754	14971.1375
1334.97747	14741.1375
1338.47502	14700.3375
1341.97022	14844.6375
1345.46305	15140.8375
1348.95352	15614.2375
1352.44163	16347.6375
1355.92738	17328.4375
1359.41078	18731.2375
1362.89183	20226.4375
1366.37053	20315.3375
1369.84688	18336.8375
1373.32088	16092.0375
1376.79254	14621.4375
1380.26186	13794.9375
1383.72883	13374.9375
1387.19347	13088.7375
1390.65578	12802.9375
1394.11575	12536.2375
1397.57339	12342.1375
1401.0287	12245.5375
1404.48168	12182.4375
1407.93234	12160.2375
1411.38068	12137.3375
1414.82669	12092.5375
1418.27039	12027.9375
1421.71177	11974.6375
1425.15083	11825.9375
1428.58758	11716.5375
1432.02203	11643.3375
1435.45416	11670.8375
1438.88399	11722.1375
1442.31151	11715.4375
1445.73673	11738.7375
1449.15965	11823.9375
1452.58027	11819.2375
1455.9986	11823.2375
1459.41463	11876.1375
1462.82837	11941.3375
1466.23982	12041.5375
1469.64898	12154.8375
1473.05586	12285.1375
1476.46045	12354.0375
1479.86276	12441.3375
1483.26279	12589.1375
1486.66054	12754.7375
1490.05602	12930.5375
1493.44922	13216.3375
1496.84016	13691.0375
1500.22882	14470.0375
1503.61521	15536.4375
1506.99934	16820.0375
1510.38121	18043.3375
1513.76081	18510.0375
1517.13816	17950.1375
1520.51324	16538.6375
1523.88607	15101.3375
1527.25665	14039.0375
1530.62498	13436.5375
1533.99105	13072.3375
1537.35488	12856.7375
1540.71647	12717.5375
1544.07581	12627.5375
1547.4329	12595.8375
1550.78776	12602.9375
1554.14038	12659.7375
1557.49077	12753.9375
1560.83892	12894.5375
1564.18484	13064.0375
1567.52853	13243.2375
1570.86999	13434.9375
1574.20922	13595.1375
1577.54624	13651.3375
1580.88103	13382.1375
1584.2136	12878.4375
1587.54395	12487.1375
1590.87208	12341.0375
1594.19801	12480.2375
1597.52172	12825.4375
1600.84321	13046.5375
1604.16251	12885.9375
1607.47959	12516.7375
1610.79447	12154.4375
1614.10715	11756.6375
1617.41763	11393.5375
1620.7259	11115.1375
1624.03199	10945.9375
1627.33587	10873.5375
1630.63757	10952.0375
1633.93707	11092.1375
1637.23439	11399.3375
1640.52951	11877.1375
1643.82246	12593.2375
1647.11321	13514.1375
1650.40179	14300.2375
1653.68819	14418.2375
1656.97241	13511.7375
1660.25446	12310.6375
1663.53433	11361.6375
1666.81203	10755.2375
1670.08756	10378.8375
1673.36092	10113.4375
1676.63211	9946.9375
1679.90115	9818.0375
1683.16801	9715.5375
1686.43272	9619.6375
1689.69527	9557.8375
1692.95567	9561.6375
1696.2139	9510.5375
1699.46999	9504.7375
1702.72392	9449.2375
1705.97571	9365.6375
1709.22535	9289.0375
1712.47284	9263.3375
1715.71819	9215.6375
1718.96139	9167.7375
1722.20246	9118.5375
1725.44139	9096.3375
1728.67818	9036.4375
1731.91284	8998.5375
1735.14537	8918.9375
1738.37576	8922.1375
1741.60403	8877.4375
1744.83017	8847.4375
1748.05418	8819.9375
1751.27607	8815.2375
1754.49584	8802.6375
1757.71349	8773.2375
1760.92903	8773.1375
1764.14244	8773.4375
1767.35375	8758.1375
1770.56294	8730.6375
1773.77002	8719.3375
1776.97499	8673.6375
1780.17785	8645.1375
1783.37861	8616.1375
1786.57727	8617.2375
1789.77382	8598.9375
1792.96828	8575.2375
1796.16064	8537.3375
1799.3509	8515.4375
1802.53907	8517.7375
1805.72514	8479.3375
1808.90913	8431.1375
1812.09102	8418.8375
1815.27083	8392.9375
1818.44856	8377.2375
1821.6242	8357.8375
1824.79776	8325.1375
1827.96924	8326.5375
1831.13864	8305.4375
1834.30597	8311.6375
1837.47122	8298.8375
1840.6344	8294.7375
1843.7955	8288.4375
1846.95454	8261.2375
1850.11151	8259.5375
1853.26642	8227.2375
1856.41926	8237.7375
1859.57004	8223.1375
1862.71876	8205.0375
1865.86542	8207.5375
1869.01003	8197.3375
1872.15258	8182.1375
1875.29308	8163.3375
1878.43152	8150.9375
1881.56792	8164.0375
1884.70227	8121.6375
1887.83457	8120.6375
1890.96482	8092.1375
1894.09304	8089.3375
1897.21921	8087.2375
1900.34335	8058.1375
1903.46544	8046.8375
1906.58551	8050.0375
1909.70353	8014.4375
1912.81953	7998.4375
1915.93349	8010.2375
1919.04543	7980.5375
1922.15534	7949.8375
1925.26322	7957.6375
1928.36908	7948.3375
1931.47292	7918.0375
1934.57473	7882.5375
1937.67453	7837.9375
1940.77232	7855.4375
1943.86808	7818.6375
1946.96184	7812.6375
1950.05358	7791.9375
1953.14331	7787.1375
1956.23103	7755.1375
1959.31675	7707.3375
1962.40046	7708.4375
1965.48217	7702.1375
1968.56188	7650.5375
1971.63959	7633.5375
1974.7153	7602.9375
1977.78901	7568.6375
1980.86073	7566.3375
1983.93046	7514.4375
1986.99819	7496.3375
1990.06394	7478.0375
1993.1277	7456.0375
1996.18947	7416.5375
1999.24925	7406.4375
2002.30706	7358.7375
2005.36288	7325.1375
2008.41672	7304.5375
2011.46859	7288.0375
2014.51848	7293.0375
2017.56639	7229.2375
2020.61233	7232.9375
2023.6563	7217.7375
2026.6983	7197.0375
2029.73833	7186.6375
2032.7764	7162.7375
2035.8125	7117.2375
2038.84664	7123.7375
2041.87881	7092.3375
2044.90903	7084.4375
2047.93729	7085.3375
2050.96359	7054.4375
2053.98794	7041.2375
2057.01034	7043.1375
2060.03078	7034.4375
2063.04927	7025.4375
2066.06582	7000.2375
2069.08042	6992.6375
2072.09307	6989.2375
2075.10378	6989.1375
2078.11255	6968.0375
2081.11938	6971.4375
2084.12426	6969.4375
2087.12722	6981.9375
2090.12824	6962.4375
2093.12732	6941.2375
2096.12447	6956.4375
2099.11969	6958.5375
2102.11299	6984.4375
2105.10435	6939.1375
2108.09379	6948.4375
2111.08131	6962.2375
2114.0669	6934.9375
2117.05057	6958.9375
2120.03233	6959.4375
2123.01216	6972.4375
2125.99008	6984.9375
2128.96609	6988.6375
2131.94018	6976.0375
2134.91236	6990.1375
2137.88263	6999.8375
2140.851	6982.3375
2143.81746	6975.6375
2146.78201	6981.3375
2149.74466	6983.4375
2152.7054	6973.3375
2155.66425	6966.7375
2158.6212	6955.6375
2161.57625	6979.9375
2164.52941	6949.9375
2167.48067	6973.2375
2170.43004	6940.1375
2173.37752	6939.6375
2176.32311	6927.3375
2179.26681	6930.1375
2182.20863	6915.8375
2185.14856	6923.2375
2188.08661	6911.0375
2191.02278	6908.1375
2193.95707	6894.4375
2196.88948	6890.8375
2199.82001	6880.3375
2202.74867	6886.1375
2205.67545	6864.3375
2208.60037	6864.5375
2211.52341	6857.7375
2214.44458	6816.7375
2217.36388	6806.4375
2220.28132	6778.4375
2223.1969	6793.4375
2226.11061	6783.9375
2229.02246	6772.0375
2231.93245	6753.8375
2234.84058	6717.4375
2237.74686	6716.3375
2240.65128	6725.5375
2243.55385	6715.4375
2246.45456	6694.0375
2249.35343	6695.0375
2252.25044	6673.0375
2255.14561	6651.6375
2258.03893	6667.1375
2260.93041	6640.9375
2263.82004	6615.7375
2266.70783	6611.6375
2269.59378	6604.1375
2272.4779	6576.0375
2275.36017	6564.0375
2278.24061	6556.0375
2281.11922	6519.5375
2283.996	6501.0375
2286.87094	6499.8375
2289.74405	6487.6375
2292.61534	6466.9375
2295.4848	6465.9375
2298.35243	6446.2375
2301.21824	6448.2375
2304.08223	6449.2375
2306.94439	6437.3375
2309.80474	6423.2375
2312.66327	6415.0375
2315.51999	6426.2375
2318.37489	6411.3375
2321.22797	6392.2375
2324.07925	6400.9375
2326.92871	6389.4375
2329.77637	6395.2375
2332.62222	6348.9375
2335.46626	6347.4375
2338.3085	6348.6375
2341.14893	6313.2375
2343.98756	6331.0375
2346.8244	6304.6375
2349.65943	6305.5375
2352.49267	6316.1375
2355.32411	6291.3375
2358.15376	6310.2375
2360.98161	6295.6375
2363.80768	6294.4375
2366.63195	6294.4375
2369.45444	6279.1375
2372.27514	6278.5375
2375.09405	6276.8375
2377.91118	6253.9375
2380.72652	6226.5375
2383.54009	6220.1375
2386.35187	6209.6375
2389.16188	6191.3375
2391.97011	6159.0375
2394.77657	6144.5375
2397.58125	6128.2375
2400.38416	6130.1375
2403.18529	6108.7375
2405.98466	6106.4375
2408.78226	6088.4375
2411.57809	6082.9375
2414.37216	6065.5375
2417.16446	6067.9375
2419.955	6053.0375
2422.74378	6054.4375
2425.5308	6061.5375
2428.31606	6050.9375
2431.09956	6027.8375
2433.88131	6029.4375
2436.6613	6022.0375
2439.43954	6010.5375
2442.21603	5997.2375
2444.99077	5983.9375
2447.76377	5983.0375
2450.53501	5982.2375
2453.30451	5994.5375
2456.07226	5957.4375
2458.83827	5960.2375
2461.60254	5969.1375
2464.36507	5948.9375
2467.12586	5942.1375
2469.88492	5919.3375
2472.64224	5942.8375
2475.39782	5914.4375
2478.15167	5917.5375
2480.90379	5925.4375
2483.65417	5922.4375
2486.40283	5921.7375
2489.14976	5920.0375
2491.89497	5900.3375
2494.63845	5902.0375
2497.3802	5913.6375
2500.12024	5887.5375
2502.85855	5876.2375
2505.59514	5867.1375
2508.33002	5860.0375
2511.06318	5853.8375
2513.79462	5841.3375
2516.52435	5835.7375
2519.25237	5814.2375
2521.97867	5803.9375
2524.70327	5791.4375
2527.42616	5768.9375
2530.14734	5783.3375
2532.86681	5769.3375
2535.58458	5741.3375
2538.30065	5735.5375
2541.01501	5736.7375
2543.72768	5710.3375
2546.43864	5727.8375
2549.14791	5693.0375
2551.85548	5690.8375
2554.56136	5677.8375
2557.26554	5658.8375
2559.96803	5667.6375
2562.66883	5666.1375
2565.36794	5648.5375
2568.06536	5652.0375
2570.7611	5622.8375
2573.45514	5612.2375
2576.14751	5610.7375
2578.83819	5588.0375
2581.52719	5588.8375
2584.21451	5583.4375
2586.90015	5576.5375
2589.58411	5559.6375
2592.2664	5539.2375
2594.94701	5536.8375
2597.62594	5534.3375
2600.30321	5510.7375
2602.9788	5492.7375
2605.65273	5483.0375
2608.32498	5489.6375
2610.99557	5471.6375
2613.66449	5478.6375
2616.33175	5473.3375
2618.99734	5469.9375
2621.66128	5443.1375
2624.32355	5428.3375
2626.98416	5449.2375
2629.64311	5434.5375
2632.30041	5438.1375
2634.95605	5428.8375
2637.61004	5425.2375
2640.26238	5406.0375
2642.91306	5388.4375
2645.56209	5386.2375
2648.20948	5385.2375
2650.85521	5390.1375
2653.4993	5367.7375
2656.14175	5367.5375
2658.78255	5376.4375
2661.42171	5368.5375
2664.05923	5384.2375
2666.6951	5357.2375
2669.32934	5353.4375
2671.96194	5341.2375
2674.59291	5356.7375
2677.22224	5353.3375
2679.84993	5358.2375
2682.476	5369.8375
2685.10043	5359.7375
2687.72324	5346.2375
2690.34441	5349.7375
2692.96396	5357.3375
2695.58188	5341.9375
2698.19818	5340.3375
2700.81285	5357.9375
2703.4259	5359.9375
2706.03733	5363.1375
2708.64714	5373.9375
2711.25533	5351.8375
2713.86191	5343.0375
2716.46687	5343.0375
2719.07021	5336.5375
2721.67194	5330.1375
2724.27206	5321.3375
2726.87057	5330.7375
2729.46747	5324.0375
2732.06276	5314.3375
2734.65644	5301.1375
2737.24852	5310.9375
2739.83899	5299.9375
2742.42786	5298.3375
2745.01513	5301.3375
2747.60079	5298.9375
2750.18486	5279.0375
2752.76733	5290.0375
2755.3482	5283.4375
2757.92747	5276.9375
2760.50515	5268.2375
2763.08123	5257.8375
2765.65573	5245.0375
2768.22863	5230.3375
2770.79994	5218.7375
2773.36967	5230.4375
2775.9378	5243.8375
2778.50435	5214.5375
2781.06932	5208.9375
2783.6327	5205.9375
2786.1945	5172.9375
2788.75471	5174.7375
2791.31335	5158.7375
2793.87041	5153.0375
2796.42589	5141.3375
2798.97979	5130.9375
2801.53212	5123.2375
2804.08288	5122.1375
2806.63206	5098.9375
2809.17967	5086.2375
2811.72571	5095.0375
2814.27018	5081.9375
2816.81308	5069.1375
2819.35442	5049.8375
2821.89419	5054.8375
2824.43239	5059.3375
2826.96904	5052.0375
2829.50412	5063.2375
2832.03763	5040.0375
2834.56959	5042.7375
2837.1	5046.8375
2839.62884	5049.1375
2842.15613	5029.2375
2844.68186	5070.1375
2847.20604	5042.5375
2849.72867	5045.6375
2852.24974	5054.4375
2854.76927	5049.6375
2857.28724	5030.7375
2859.80367	5033.3375
2862.31855	5006.6375
2864.83189	5007.7375
2867.34368	5005.8375
2869.85393	5005.1375
2872.36264	5016.7375
2874.8698	5018.2375
2877.37543	5006.6375
2879.87952	5008.8375
2882.38207	5002.5375
2884.88308	4999.2375
2887.38256	4991.2375
2889.88051	4990.5375
2892.37692	4980.0375
2894.8718	4984.5375
2897.36515	4999.2375
2899.85698	4983.6375
2902.34727	4998.2375
2904.83604	4994.7375
2907.32328	5008.6375
2909.809	4989.5375
2912.29319	5009.6375
2914.77587	4991.8375
2917.25702	4992.4375
2919.73665	4979.6375
2922.21476	4989.6375
2924.69136	4981.9375
2927.16644	4980.9375
2929.64	4976.5375
2932.11205	4990.7375
2934.58258	4972.3375
2937.05161	4950.9375
2939.51912	4951.9375
2941.98513	4957.8375
2944.44962	4931.4375
2946.91261	4917.4375
2949.37409	4929.9375
2951.83407	4927.0375
2954.29254	4914.1375
2956.74951	4935.7375
2959.20498	4915.0375
2961.65895	4909.4375
2964.11142	4914.4375
2966.56239	4896.1375
2969.01186	4895.1375
2971.45984	4871.0375
2973.90632	4872.1375
2976.35131	4863.4375
2978.7948	4837.2375
2981.23681	4844.5375
2983.67732	4838.2375
2986.11635	4834.7375
2988.55388	4821.1375
2990.98993	4819.1375
2993.4245	4805.0375
2995.85758	4800.6375
2998.28917	4792.0375
3000.71928	4782.7375
3003.14791	4786.1375
3005.57506	4787.7375
3008.00073	4776.4375
3010.42493	4766.9375
3012.84764	4750.0375
3015.26888	4782.7375
3017.68865	4736.1375
3020.10694	4740.4375
3022.52376	4746.4375
3024.9391	4727.6375
3027.35298	4714.5375
3029.76539	4712.0375
3032.17632	4709.9375
3034.5858	4707.2375
3036.9938	4712.4375
3039.40034	4686.6375
3041.80542	4686.4375
3044.20903	4690.5375
3046.61118	4678.7375
3049.01187	4679.4375
3051.4111	4673.0375
3053.80888	4669.5375
3056.20519	4674.2375
3058.60005	4660.0375
3060.99345	4645.3375
3063.3854	4628.5375
3065.7759	4633.3375
3068.16494	4635.4375
3070.55254	4626.3375
3072.93868	4616.2375
3075.32338	4612.9375
3077.70662	4606.9375
3080.08842	4611.5375
3082.46878	4606.0375
3084.84769	4605.5375
3087.22515	4621.3375
3089.60118	4616.3375
3091.97576	4607.3375
3094.3489	4616.3375
3096.72061	4615.2375
3099.09087	4630.7375
3101.4597	4619.8375
3103.82709	4628.8375
3106.19305	4619.7375
3108.55757	4612.9375
3110.92066	4605.0375
3113.28232	4599.2375
3115.64255	4597.4375
3118.00134	4590.7375
3120.35871	4602.6375
3122.71466	4584.4375
3125.06917	4591.1375
3127.42226	4572.8375
3129.77393	4585.2375
3132.12417	4589.3375
3134.47299	4588.5375
3136.82039	4600.4375
3139.16636	4607.4375
3141.51092	4610.1375
3143.85406	4628.6375
3146.19579	4624.0375
3148.53609	4621.3375
3150.87499	4634.3375
3153.21246	4651.1375
3155.54853	4649.6375
3157.88318	4658.9375
3160.21642	4652.5375
3162.54826	4673.2375
3164.87868	4663.4375
3167.2077	4658.5375
3169.5353	4678.9375
3171.86151	4657.8375
3174.18631	4666.0375
3176.5097	4663.8375
3178.83169	4645.7375
3181.15228	4669.4375
3183.47147	4670.7375
3185.78926	4685.4375
3188.10565	4677.4375
3190.42065	4666.6375
3192.73424	4667.3375
3195.04645	4677.3375
3197.35725	4675.6375
3199.66667	4697.7375
3201.97469	4692.7375
3204.28132	4687.3375
3206.58656	4704.9375
3208.8904	4715.2375
3211.19287	4724.1375
3213.49394	4710.0375
3215.79363	4730.3375
3218.09193	4731.0375
3220.38884	4719.8375
3222.68438	4712.7375
3224.97853	4690.8375
3227.2713	4706.3375
3229.56269	4693.4375
3231.8527	4709.0375
3234.14133	4711.4375
3236.42858	4686.2375
3238.71446	4693.9375
3240.99896	4677.4375
3243.28209	4679.3375
3245.56384	4685.8375
3247.84423	4685.2375
3250.12324	4685.4375
3252.40088	4681.4375
3254.67715	4679.7375
3256.95205	4665.7375
3259.22558	4654.3375
3261.49775	4648.4375
3263.76855	4658.3375
3266.03799	4647.7375
3268.30606	4641.8375
3270.57277	4644.8375
3272.83812	4628.6375
3275.10211	4627.9375
3277.36474	4631.4375
3279.62601	4617.4375
3281.88593	4608.6375
3284.14448	4615.2375
3286.40168	4606.7375
3288.65753	4612.6375
3290.91202	4605.7375
3293.16516	4576.4375
3295.41695	4569.5375
3297.66738	4549.7375
3299.91647	4528.8375
3302.16421	4497.8375
3304.4106	4485.1375
3306.65564	4472.2375
3308.89933	4437.6375
3311.14169	4415.4375
3313.38269	4395.8375
3315.62236	4372.1375
3317.86068	4332.7375
3320.09766	4287.3375
3322.3333	4256.8375
3324.5676	4274.1375
3326.80056	4190.4375
3329.03219	4164.4375
3331.26248	0.8375
3333.49143	0.2375
3335.71905	-0.4625
