Data from AgNPs_FTO_APTES_UA_200uM_R6G_10uM_NaF_0.1M_Addition_RamanShift__30__16-35-17-529.txt Node

Date: Fri Dec 17 16:35:17 GMT 2021
User: TCL
Spectrometer: QEP01345
Trigger mode: 4
Integration Time (sec): 7.000000E0
Scans to average: 10
Electric dark correction enabled: true
Nonlinearity correction enabled: false
Boxcar width: 0
XAxis mode: Raman Shifts
Number of Pixels in Spectrum: 1044
>>>>>Begin Spectral Data<<<<<
46.04893	-0.0125
50.45542	0.1875
54.85868	-0.5125
59.25871	0.9875
63.6555	34.7875
68.04907	37.2875
72.43941	38.4875
76.82654	44.1875
81.21044	41.4875
85.59113	43.5875
89.96862	51.1875
94.34289	48.8875
98.71396	47.6875
103.08183	52.6875
107.4465	56.1875
111.80798	52.5875
116.16626	54.7875
120.52136	49.3875
124.87327	57.3875
129.222	58.7875
133.56755	58.4875
137.90993	62.0875
142.24913	66.7875
146.58517	70.9875
150.91804	79.0875
155.24774	90.6875
159.57429	111.3875
163.89768	134.3875
168.21792	173.2875
172.53501	226.0875
176.84895	309.0875
181.15975	430.9875
185.46741	594.6875
189.77193	812.5875
194.07331	1099.3875
198.37157	1400.9875
202.6667	1738.2875
206.9587	2064.8875
211.24758	2397.2875
215.53334	2716.0875
219.81599	3072.5875
224.09553	3454.0875
228.37195	3887.4875
232.64527	4350.0875
236.91549	4830.9875
241.18261	5309.1875
245.44663	5742.6875
249.70755	6096.6875
253.96539	6404.4875
258.22014	6660.4875
262.4718	6898.3875
266.72039	7048.2875
270.96589	7152.3875
275.20832	7163.4875
279.44768	7070.1875
283.68397	6938.5875
287.91719	6857.4875
292.14735	6830.7875
296.37445	6831.2875
300.59849	6972.4875
304.81948	7161.3875
309.03742	7249.1875
313.25231	7190.4875
317.46415	6947.5875
321.67296	6579.8875
325.87872	6296.0875
330.08145	6160.2875
334.28114	6155.9875
338.47781	6233.4875
342.67145	6379.4875
346.86207	6545.1875
351.04966	6804.6875
355.23424	7091.4875
359.4158	7381.0875
363.59435	7537.8875
367.76989	7634.9875
371.94243	7681.5875
376.11196	7737.5875
380.27849	7768.2875
384.44203	7744.0875
388.60257	7685.4875
392.76012	7653.7875
396.91468	7683.7875
401.06626	7815.7875
405.21485	7922.8875
409.36047	7850.0875
413.50311	7568.4875
417.64277	7277.0875
421.77947	7070.6875
425.9132	6987.4875
430.04396	6967.7875
434.17176	6978.9875
438.2966	7038.1875
442.41849	7134.7875
446.53742	7211.8875
450.6534	7308.4875
454.76644	7364.3875
458.87653	7392.5875
462.98368	7366.9875
467.08789	7333.6875
471.18916	7284.0875
475.2875	7198.7875
479.38291	7146.1875
483.4754	7088.5875
487.56496	7084.3875
491.6516	7058.8875
495.73531	7093.6875
499.81612	7091.7875
503.89401	7131.4875
507.96899	7180.2875
512.04106	7258.8875
516.11023	7406.7875
520.1765	7476.6875
524.23987	7509.7875
528.30034	7414.7875
532.35792	7325.2875
536.41261	7208.6875
540.46441	7095.6875
544.51333	6998.7875
548.55936	6963.1875
552.60252	7036.5875
556.64279	7076.0875
560.6802	7119.7875
564.71473	7155.2875
568.7464	7279.5875
572.7752	7364.3875
576.80114	7270.0875
580.82422	7118.2875
584.84444	7055.0875
588.86181	7046.0875
592.87633	7030.9875
596.888	7080.9875
600.89682	7261.9875
604.9028	7808.8875
608.90594	9302.2875
612.90624	11382.4875
616.90371	11250.7875
620.89834	8815.3875
624.89015	7651.3875
628.87913	7528.4875
632.86528	7661.9875
636.84862	7818.0875
640.82913	7732.5875
644.80683	7447.2875
648.78172	7182.3875
652.75379	7067.7875
656.72306	7143.0875
660.68952	7313.1875
664.65319	7231.9875
668.61405	6990.5875
672.57211	6878.3875
676.52738	6856.7875
680.47986	6844.9875
684.42955	6827.5875
688.37646	6797.4875
692.32058	6800.1875
696.26192	6833.7875
700.20048	6871.6875
704.13626	6903.4875
708.06928	6902.8875
711.99952	6852.4875
715.927	6844.5875
719.85171	6860.8875
723.77365	6884.1875
727.69284	6843.9875
731.60928	6811.4875
735.52295	6767.0875
739.43388	6780.6875
743.34206	6797.0875
747.24749	6795.6875
751.15017	6815.1875
755.05012	6857.0875
758.94733	7009.6875
762.8418	7432.1875
766.73354	8187.0875
770.62254	9124.4875
774.50882	9762.0875
778.39237	9540.1875
782.27321	8593.4875
786.15132	7651.2875
790.02671	7122.8875
793.89938	6899.6875
797.76935	6789.0875
801.6366	6800.6875
805.50115	6838.5875
809.36299	6918.4875
813.22213	6983.3875
817.07857	6938.9875
820.93231	6855.0875
824.78336	6734.3875
828.63172	6682.1875
832.47738	6641.9875
836.32036	6610.0875
840.16066	6587.1875
843.99827	6562.1875
847.8332	6568.2875
851.66546	6509.6875
855.49504	6529.3875
859.32195	6508.2875
863.1462	6499.7875
866.96777	6525.2875
870.78668	6528.5875
874.60293	6590.3875
878.41652	6613.8875
882.22745	6706.3875
886.03573	6774.6875
889.84136	6783.0875
893.64433	6717.5875
897.44466	6629.8875
901.24235	6544.8875
905.0374	6491.7875
908.8298	6403.0875
912.61957	6390.0875
916.40671	6371.1875
920.19121	6373.4875
923.97308	6380.9875
927.75233	6422.7875
931.52895	6442.9875
935.30295	6417.2875
939.07433	6335.9875
942.84309	6228.8875
946.60924	6166.1875
950.37278	6115.6875
954.13371	6105.5875
957.89203	6048.7875
961.64774	6046.3875
965.40086	6026.7875
969.15137	6012.5875
972.89929	5980.7875
976.64461	5985.5875
980.38733	5972.7875
984.12747	5972.4875
987.86502	6003.0875
991.59999	6002.4875
995.33237	6020.0875
999.06217	6079.6875
1002.78939	6147.7875
1006.51404	6233.7875
1010.23611	6340.1875
1013.95561	6424.4875
1017.67255	6441.5875
1021.38692	6385.7875
1025.09872	6330.8875
1028.80796	6249.0875
1032.51465	6194.1875
1036.21877	6190.4875
1039.92035	6193.4875
1043.61937	6191.0875
1047.31584	6187.0875
1051.00976	6183.7875
1054.70114	6193.9875
1058.38998	6214.1875
1062.07627	6230.0875
1065.76003	6271.1875
1069.44126	6310.2875
1073.11995	6369.4875
1076.79611	6393.2875
1080.46974	6420.5875
1084.14085	6456.2875
1087.80943	6528.0875
1091.47549	6547.0875
1095.13903	6501.1875
1098.80005	6359.4875
1102.45857	6223.0875
1106.11456	6186.3875
1109.76805	6222.2875
1113.41903	6317.2875
1117.06751	6486.8875
1120.71348	6699.0875
1124.35696	6922.4875
1127.99793	7150.3875
1131.63641	7271.7875
1135.2724	7155.0875
1138.90589	6960.0875
1142.5369	6777.0875
1146.16542	6589.1875
1149.79145	6402.8875
1153.415	6281.2875
1157.03607	6246.4875
1160.65467	6242.1875
1164.27079	6325.1875
1167.88443	6495.9875
1171.49561	6772.9875
1175.10432	7287.0875
1178.71056	8058.5875
1182.31434	8730.5875
1185.91565	8962.6875
1189.51451	8813.7875
1193.11091	8353.5875
1196.70485	7893.6875
1200.29634	7573.5875
1203.88538	7421.6875
1207.47197	7153.8875
1211.05612	6866.2875
1214.63782	6623.6875
1218.21708	6465.4875
1221.79391	6352.9875
1225.36829	6298.6875
1228.94024	6300.3875
1232.50976	6318.2875
1236.07685	6338.0875
1239.6415	6318.7875
1243.20374	6347.5875
1246.76355	6404.0875
1250.32093	6436.2875
1253.8759	6490.8875
1257.42845	6560.2875
1260.97859	6659.6875
1264.52631	6741.6875
1268.07163	6832.6875
1271.61453	6958.9875
1275.15503	7008.9875
1278.69312	7027.6875
1282.22882	7005.6875
1285.76211	7028.1875
1289.29301	7172.2875
1292.82151	7341.5875
1296.34761	7489.2875
1299.87133	7792.1875
1303.39266	8246.6875
1306.9116	8979.1875
1310.42815	9809.9875
1313.94233	10286.6875
1317.45412	10084.2875
1320.96354	9464.5875
1324.47058	8776.1875
1327.97525	8173.7875
1331.47754	7768.9875
1334.97747	7610.6875
1338.47502	7593.3875
1341.97022	7780.9875
1345.46305	8058.1875
1348.95352	8562.5875
1352.44163	9244.2875
1355.92738	10176.9875
1359.41078	11506.1875
1362.89183	12853.1875
1366.37053	12866.0875
1369.84688	11247.1875
1373.32088	9445.2875
1376.79254	8224.6875
1380.26186	7576.4875
1383.72883	7250.8875
1387.19347	7022.9875
1390.65578	6759.7875
1394.11575	6513.3875
1397.57339	6377.6875
1401.0287	6295.2875
1404.48168	6271.3875
1407.93234	6231.5875
1411.38068	6229.5875
1414.82669	6263.1875
1418.27039	6262.4875
1421.71177	6231.7875
1425.15083	6161.9875
1428.58758	6088.3875
1432.02203	6079.6875
1435.45416	6111.7875
1438.88399	6097.4875
1442.31151	6092.5875
1445.73673	6097.7875
1449.15965	6101.4875
1452.58027	6098.4875
1455.9986	6046.1875
1459.41463	6034.5875
1462.82837	6052.2875
1466.23982	6096.9875
1469.64898	6217.5875
1473.05586	6287.0875
1476.46045	6342.4875
1479.86276	6461.5875
1483.26279	6610.5875
1486.66054	6783.2875
1490.05602	7000.1875
1493.44922	7303.5875
1496.84016	7773.3875
1500.22882	8546.6875
1503.61521	9552.3875
1506.99934	10739.4875
1510.38121	11758.6875
1513.76081	12121.2875
1517.13816	11552.0875
1520.51324	10214.6875
1523.88607	8886.2875
1527.25665	7957.5875
1530.62498	7432.8875
1533.99105	7148.0875
1537.35488	6963.5875
1540.71647	6901.9875
1544.07581	6898.7875
1547.4329	6938.4875
1550.78776	6966.6875
1554.14038	7001.1875
1557.49077	7048.9875
1560.83892	7138.9875
1564.18484	7294.7875
1567.52853	7470.6875
1570.86999	7679.5875
1574.20922	7821.9875
1577.54624	7831.5875
1580.88103	7539.9875
1584.2136	7083.4875
1587.54395	6728.1875
1590.87208	6611.5875
1594.19801	6748.3875
1597.52172	7012.4875
1600.84321	7159.7875
1604.16251	7046.1875
1607.47959	6812.4875
1610.79447	6589.7875
1614.10715	6330.9875
1617.41763	6111.4875
1620.7259	5963.3875
1624.03199	5889.4875
1627.33587	5883.1875
1630.63757	5911.1875
1633.93707	6005.1875
1637.23439	6223.2875
1640.52951	6521.1875
1643.82246	7014.1875
1647.11321	7717.2875
1650.40179	8431.5875
1653.68819	8562.5875
1656.97241	7913.7875
1660.25446	6982.2875
1663.53433	6276.2875
1666.81203	5859.3875
1670.08756	5595.6875
1673.36092	5406.1875
1676.63211	5326.8875
1679.90115	5228.0875
1683.16801	5176.1875
1686.43272	5115.5875
1689.69527	5073.5875
1692.95567	5059.7875
1696.2139	5078.0875
1699.46999	5059.6875
1702.72392	5031.1875
1705.97571	4974.4875
1709.22535	4932.9875
1712.47284	4899.0875
1715.71819	4874.2875
1718.96139	4869.6875
1722.20246	4849.7875
1725.44139	4822.7875
1728.67818	4783.5875
1731.91284	4754.1875
1735.14537	4725.3875
1738.37576	4713.0875
1741.60403	4685.2875
1744.83017	4674.3875
1748.05418	4667.4875
1751.27607	4645.0875
1754.49584	4644.4875
1757.71349	4662.7875
1760.92903	4655.3875
1764.14244	4655.0875
1767.35375	4628.0875
1770.56294	4630.4875
1773.77002	4604.5875
1776.97499	4592.6875
1780.17785	4566.0875
1783.37861	4540.3875
1786.57727	4530.4875
1789.77382	4524.3875
1792.96828	4514.6875
1796.16064	4520.5875
1799.3509	4493.9875
1802.53907	4489.4875
1805.72514	4468.3875
1808.90913	4454.0875
1812.09102	4445.2875
1815.27083	4426.2875
1818.44856	4395.7875
1821.6242	4402.8875
1824.79776	4395.8875
1827.96924	4389.1875
1831.13864	4378.9875
1834.30597	4375.6875
1837.47122	4369.4875
1840.6344	4367.7875
1843.7955	4358.9875
1846.95454	4354.0875
1850.11151	4355.4875
1853.26642	4355.8875
1856.41926	4328.4875
1859.57004	4343.0875
1862.71876	4328.7875
1865.86542	4311.7875
1869.01003	4322.1875
1872.15258	4322.8875
1875.29308	4317.6875
1878.43152	4305.5875
1881.56792	4283.8875
1884.70227	4291.7875
1887.83457	4273.7875
1890.96482	4287.5875
1894.09304	4280.1875
1897.21921	4268.8875
1900.34335	4273.2875
1903.46544	4252.7875
1906.58551	4248.7875
1909.70353	4243.9875
1912.81953	4236.5875
1915.93349	4234.1875
1919.04543	4216.6875
1922.15534	4211.4875
1925.26322	4219.9875
1928.36908	4185.7875
1931.47292	4177.3875
1934.57473	4167.9875
1937.67453	4151.7875
1940.77232	4143.3875
1943.86808	4133.0875
1946.96184	4130.1875
1950.05358	4135.0875
1953.14331	4120.3875
1956.23103	4098.7875
1959.31675	4074.4875
1962.40046	4061.0875
1965.48217	4052.0875
1968.56188	4052.1875
1971.63959	4025.9875
1974.7153	4017.5875
1977.78901	3994.0875
1980.86073	3979.2875
1983.93046	3980.3875
1986.99819	3957.5875
1990.06394	3934.7875
1993.1277	3939.1875
1996.18947	3922.0875
1999.24925	3918.7875
2002.30706	3896.9875
2005.36288	3880.0875
2008.41672	3871.5875
2011.46859	3849.9875
2014.51848	3844.8875
2017.56639	3824.3875
2020.61233	3824.3875
2023.6563	3803.6875
2026.6983	3812.6875
2029.73833	3793.5875
2032.7764	3777.9875
2035.8125	3763.7875
2038.84664	3768.3875
2041.87881	3749.7875
2044.90903	3752.8875
2047.93729	3741.4875
2050.96359	3745.4875
2053.98794	3715.4875
2057.01034	3729.6875
2060.03078	3709.2875
2063.04927	3708.0875
2066.06582	3708.2875
2069.08042	3706.5875
2072.09307	3707.1875
2075.10378	3686.0875
2078.11255	3680.1875
2081.11938	3710.3875
2084.12426	3688.8875
2087.12722	3679.7875
2090.12824	3684.1875
2093.12732	3703.4875
2096.12447	3695.7875
2099.11969	3688.8875
2102.11299	3677.6875
2105.10435	3666.4875
2108.09379	3678.5875
2111.08131	3674.1875
2114.0669	3675.9875
2117.05057	3675.8875
2120.03233	3681.5875
2123.01216	3689.4875
2125.99008	3692.9875
2128.96609	3692.6875
2131.94018	3698.3875
2134.91236	3692.5875
2137.88263	3701.5875
2140.851	3702.1875
2143.81746	3699.1875
2146.78201	3687.9875
2149.74466	3691.0875
2152.7054	3687.4875
2155.66425	3665.9875
2158.6212	3688.9875
2161.57625	3680.3875
2164.52941	3676.2875
2167.48067	3680.4875
2170.43004	3669.6875
2173.37752	3678.2875
2176.32311	3664.4875
2179.26681	3663.2875
2182.20863	3664.3875
2185.14856	3650.6875
2188.08661	3659.7875
2191.02278	3646.3875
2193.95707	3650.4875
2196.88948	3634.6875
2199.82001	3627.5875
2202.74867	3627.5875
2205.67545	3631.6875
2208.60037	3622.8875
2211.52341	3617.3875
2214.44458	3619.0875
2217.36388	3598.0875
2220.28132	3592.7875
2223.1969	3572.5875
2226.11061	3574.7875
2229.02246	3562.6875
2231.93245	3560.0875
2234.84058	3545.6875
2237.74686	3539.7875
2240.65128	3548.2875
2243.55385	3542.2875
2246.45456	3511.6875
2249.35343	3519.9875
2252.25044	3522.1875
2255.14561	3506.5875
2258.03893	3508.0875
2260.93041	3501.0875
2263.82004	3495.7875
2266.70783	3486.6875
2269.59378	3478.3875
2272.4779	3480.6875
2275.36017	3466.7875
2278.24061	3458.3875
2281.11922	3440.8875
2283.996	3443.3875
2286.87094	3426.6875
2289.74405	3414.3875
2292.61534	3419.2875
2295.4848	3401.6875
2298.35243	3405.5875
2301.21824	3400.2875
2304.08223	3395.6875
2306.94439	3392.1875
2309.80474	3388.2875
2312.66327	3389.6875
2315.51999	3377.5875
2318.37489	3366.6875
2321.22797	3373.4875
2324.07925	3360.3875
2326.92871	3367.0875
2329.77637	3346.4875
2332.62222	3340.9875
2335.46626	3346.2875
2338.3085	3339.1875
2341.14893	3325.5875
2343.98756	3311.7875
2346.8244	3320.6875
2349.65943	3315.4875
2352.49267	3325.1875
2355.32411	3319.1875
2358.15376	3324.6875
2360.98161	3322.0875
2363.80768	3319.5875
2366.63195	3313.2875
2369.45444	3308.4875
2372.27514	3317.8875
2375.09405	3302.1875
2377.91118	3306.3875
2380.72652	3290.0875
2383.54009	3279.4875
2386.35187	3273.5875
2389.16188	3252.3875
2391.97011	3241.8875
2394.77657	3238.3875
2397.58125	3222.1875
2400.38416	3213.3875
2403.18529	3214.9875
2405.98466	3209.9875
2408.78226	3207.4875
2411.57809	3183.9875
2414.37216	3190.9875
2417.16446	3174.5875
2419.955	3170.8875
2422.74378	3167.0875
2425.5308	3170.3875
2428.31606	3164.4875
2431.09956	3165.3875
2433.88131	3164.3875
2436.6613	3163.3875
2439.43954	3156.7875
2442.21603	3137.0875
2444.99077	3156.5875
2447.76377	3150.9875
2450.53501	3142.9875
2453.30451	3148.4875
2456.07226	3143.2875
2458.83827	3139.0875
2461.60254	3128.9875
2464.36507	3136.7875
2467.12586	3118.2875
2469.88492	3116.8875
2472.64224	3115.0875
2475.39782	3097.8875
2478.15167	3118.4875
2480.90379	3109.2875
2483.65417	3117.3875
2486.40283	3111.1875
2489.14976	3106.9875
2491.89497	3105.0875
2494.63845	3118.9875
2497.3802	3121.7875
2500.12024	3094.1875
2502.85855	3088.9875
2505.59514	3079.7875
2508.33002	3077.5875
2511.06318	3064.4875
2513.79462	3051.6875
2516.52435	3048.9875
2519.25237	3037.9875
2521.97867	3025.6875
2524.70327	3029.7875
2527.42616	3024.3875
2530.14734	3005.0875
2532.86681	2992.4875
2535.58458	2991.2875
2538.30065	2994.7875
2541.01501	2988.1875
2543.72768	2991.2875
2546.43864	2980.8875
2549.14791	2970.0875
2551.85548	2970.3875
2554.56136	2969.5875
2557.26554	2963.9875
2559.96803	2955.9875
2562.66883	2954.9875
2565.36794	2937.2875
2568.06536	2945.2875
2570.7611	2937.0875
2573.45514	2938.5875
2576.14751	2927.9875
2578.83819	2908.5875
2581.52719	2909.7875
2584.21451	2900.6875
2586.90015	2899.1875
2589.58411	2890.5875
2592.2664	2889.5875
2594.94701	2874.5875
2597.62594	2868.2875
2600.30321	2864.0875
2602.9788	2868.3875
2605.65273	2851.2875
2608.32498	2849.1875
2610.99557	2852.3875
2613.66449	2852.7875
2616.33175	2844.2875
2618.99734	2831.4875
2621.66128	2830.4875
2624.32355	2826.4875
2626.98416	2823.6875
2629.64311	2823.8875
2632.30041	2817.6875
2634.95605	2813.9875
2637.61004	2800.9875
2640.26238	2795.1875
2642.91306	2794.9875
2645.56209	2796.9875
2648.20948	2795.0875
2650.85521	2783.6875
2653.4993	2794.7875
2656.14175	2779.9875
2658.78255	2783.7875
2661.42171	2782.0875
2664.05923	2777.0875
2666.6951	2779.6875
2669.32934	2773.3875
2671.96194	2784.0875
2674.59291	2790.1875
2677.22224	2782.8875
2679.84993	2775.6875
2682.476	2780.8875
2685.10043	2785.0875
2687.72324	2773.8875
2690.34441	2768.9875
2692.96396	2767.1875
2695.58188	2761.4875
2698.19818	2772.3875
2700.81285	2781.4875
2703.4259	2777.0875
2706.03733	2805.6875
2708.64714	2784.5875
2711.25533	2775.8875
2713.86191	2764.8875
2716.46687	2780.8875
2719.07021	2767.2875
2721.67194	2766.9875
2724.27206	2765.4875
2726.87057	2763.6875
2729.46747	2769.6875
2732.06276	2751.0875
2734.65644	2757.7875
2737.24852	2751.8875
2739.83899	2747.0875
2742.42786	2745.1875
2745.01513	2740.4875
2747.60079	2740.0875
2750.18486	2731.8875
2752.76733	2738.3875
2755.3482	2729.5875
2757.92747	2720.3875
2760.50515	2718.3875
2763.08123	2715.5875
2765.65573	2710.8875
2768.22863	2691.6875
2770.79994	2701.4875
2773.36967	2703.5875
2775.9378	2700.5875
2778.50435	2692.3875
2781.06932	2687.5875
2783.6327	2687.3875
2786.1945	2678.1875
2788.75471	2674.1875
2791.31335	2676.5875
2793.87041	2661.2875
2796.42589	2662.2875
2798.97979	2664.2875
2801.53212	2654.3875
2804.08288	2651.4875
2806.63206	2638.9875
2809.17967	2641.9875
2811.72571	2642.8875
2814.27018	2642.7875
2816.81308	2646.9875
2819.35442	2626.7875
2821.89419	2636.6875
2824.43239	2637.6875
2826.96904	2632.5875
2829.50412	2643.3875
2832.03763	2629.5875
2834.56959	2626.9875
2837.1	2623.2875
2839.62884	2631.8875
2842.15613	2631.4875
2844.68186	2646.4875
2847.20604	2651.1875
2849.72867	2668.7875
2852.24974	2667.7875
2854.76927	2672.3875
2857.28724	2665.3875
2859.80367	2657.3875
2862.31855	2645.4875
2864.83189	2649.2875
2867.34368	2651.6875
2869.85393	2652.0875
2872.36264	2654.5875
2874.8698	2656.2875
2877.37543	2645.1875
2879.87952	2648.1875
2882.38207	2647.8875
2884.88308	2639.9875
2887.38256	2643.1875
2889.88051	2643.0875
2892.37692	2650.4875
2894.8718	2638.6875
2897.36515	2638.3875
2899.85698	2649.0875
2902.34727	2658.4875
2904.83604	2651.4875
2907.32328	2654.6875
2909.809	2648.1875
2912.29319	2646.5875
2914.77587	2641.3875
2917.25702	2648.6875
2919.73665	2641.5875
2922.21476	2637.7875
2924.69136	2631.6875
2927.16644	2632.5875
2929.64	2633.1875
2932.11205	2623.0875
2934.58258	2624.2875
2937.05161	2618.3875
2939.51912	2616.3875
2941.98513	2610.5875
2944.44962	2604.0875
2946.91261	2581.7875
2949.37409	2592.0875
2951.83407	2567.6875
2954.29254	2570.8875
2956.74951	2570.9875
2959.20498	2564.4875
2961.65895	2576.5875
2964.11142	2561.4875
2966.56239	2562.2875
2969.01186	2559.6875
2971.45984	2552.8875
2973.90632	2545.6875
2976.35131	2543.6875
2978.7948	2521.8875
2981.23681	2528.0875
2983.67732	2518.2875
2986.11635	2510.8875
2988.55388	2514.2875
2990.98993	2497.9875
2993.4245	2506.8875
2995.85758	2503.3875
2998.28917	2488.8875
3000.71928	2497.8875
3003.14791	2495.2875
3005.57506	2496.4875
3008.00073	2492.7875
3010.42493	2491.7875
3012.84764	2493.0875
3015.26888	2500.2875
3017.68865	2483.3875
3020.10694	2490.0875
3022.52376	2470.9875
3024.9391	2472.9875
3027.35298	2481.3875
3029.76539	2473.0875
3032.17632	2479.1875
3034.5858	2468.4875
3036.9938	2464.1875
3039.40034	2462.4875
3041.80542	2470.3875
3044.20903	2470.6875
3046.61118	2470.2875
3049.01187	2468.7875
3051.4111	2453.6875
3053.80888	2468.2875
3056.20519	2456.5875
3058.60005	2462.7875
3060.99345	2446.9875
3063.3854	2466.7875
3065.7759	2460.1875
3068.16494	2467.9875
3070.55254	2453.7875
3072.93868	2466.0875
3075.32338	2452.7875
3077.70662	2460.6875
3080.08842	2449.9875
3082.46878	2461.0875
3084.84769	2447.6875
3087.22515	2465.4875
3089.60118	2460.2875
3091.97576	2469.2875
3094.3489	2460.7875
3096.72061	2471.7875
3099.09087	2476.7875
3101.4597	2476.1875
3103.82709	2480.2875
3106.19305	2479.6875
3108.55757	2488.6875
3110.92066	2484.2875
3113.28232	2487.0875
3115.64255	2478.3875
3118.00134	2477.6875
3120.35871	2490.1875
3122.71466	2483.8875
3125.06917	2487.7875
3127.42226	2483.0875
3129.77393	2505.7875
3132.12417	2500.5875
3134.47299	2513.7875
3136.82039	2503.0875
3139.16636	2518.8875
3141.51092	2520.8875
3143.85406	2537.2875
3146.19579	2553.2875
3148.53609	2544.5875
3150.87499	2558.9875
3153.21246	2561.1875
3155.54853	2571.2875
3157.88318	2576.0875
3160.21642	2593.6875
3162.54826	2588.0875
3164.87868	2589.0875
3167.2077	2595.8875
3169.5353	2596.7875
3171.86151	2612.1875
3174.18631	2613.7875
3176.5097	2603.9875
3178.83169	2613.8875
3181.15228	2612.9875
3183.47147	2628.2875
3185.78926	2623.4875
3188.10565	2619.7875
3190.42065	2637.2875
3192.73424	2631.3875
3195.04645	2638.8875
3197.35725	2654.6875
3199.66667	2650.8875
3201.97469	2668.8875
3204.28132	2664.5875
3206.58656	2665.6875
3208.8904	2670.4875
3211.19287	2676.3875
3213.49394	2675.6875
3215.79363	2693.7875
3218.09193	2688.5875
3220.38884	2694.9875
3222.68438	2704.0875
3224.97853	2693.8875
3227.2713	2697.4875
3229.56269	2685.3875
3231.8527	2692.3875
3234.14133	2699.1875
3236.42858	2692.0875
3238.71446	2686.7875
3240.99896	2689.8875
3243.28209	2679.3875
3245.56384	2695.0875
3247.84423	2702.3875
3250.12324	2684.3875
3252.40088	2685.2875
3254.67715	2691.6875
3256.95205	2683.9875
3259.22558	2678.3875
3261.49775	2677.6875
3263.76855	2674.2875
3266.03799	2672.1875
3268.30606	2670.5875
3270.57277	2672.9875
3272.83812	2655.2875
3275.10211	2672.7875
3277.36474	2665.2875
3279.62601	2672.8875
3281.88593	2649.4875
3284.14448	2661.2875
3286.40168	2656.2875
3288.65753	2657.8875
3290.91202	2642.7875
3293.16516	2636.8875
3295.41695	2632.1875
3297.66738	2616.5875
3299.91647	2606.0875
3302.16421	2594.6875
3304.4106	2584.3875
3306.65564	2581.6875
3308.89933	2559.9875
3311.14169	2548.5875
3313.38269	2541.9875
3315.62236	2511.6875
3317.86068	2497.2875
3320.09766	2476.2875
3322.3333	2461.2875
3324.5676	2466.4875
3326.80056	2418.0875
3329.03219	2401.9875
3331.26248	0.4875
3333.49143	0.2875
3335.71905	-0.2125
