Data from AgNPs_FTO_APTES_UA_1uM_R6G_10uM_NaF_0.1M_Addition_RamanShift__25__11-33-07-185.txt Node

Date: Fri Dec 17 11:33:07 GMT 2021
User: TCL
Spectrometer: QEP01345
Trigger mode: 4
Integration Time (sec): 7.000000E0
Scans to average: 10
Electric dark correction enabled: true
Nonlinearity correction enabled: false
Boxcar width: 0
XAxis mode: Raman Shifts
Number of Pixels in Spectrum: 1044
>>>>>Begin Spectral Data<<<<<
46.04893	-0.5625
50.45542	-0.6625
54.85868	-2.0625
59.25871	-0.2625
63.6555	97.0375
68.04907	99.2375
72.43941	106.2375
76.82654	115.6375
81.21044	119.2375
85.59113	125.6375
89.96862	126.7375
94.34289	132.5375
98.71396	136.6375
103.08183	138.3375
107.4465	145.1375
111.80798	145.4375
116.16626	146.5375
120.52136	149.1375
124.87327	158.2375
129.222	159.7375
133.56755	166.8375
137.90993	181.3375
142.24913	196.8375
146.58517	207.6375
150.91804	239.4375
155.24774	273.8375
159.57429	338.6375
163.89768	424.2375
168.21792	551.5375
172.53501	738.2375
176.84895	1008.9375
181.15975	1393.9375
185.46741	1949.5375
189.77193	2680.1375
194.07331	3572.1375
198.37157	4609.1375
202.6667	5694.4375
206.9587	6754.6375
211.24758	7822.6375
215.53334	8897.2375
219.81599	10057.1375
224.09553	11347.8375
228.37195	12796.3375
232.64527	14384.5375
236.91549	16039.1375
241.18261	17597.6375
245.44663	19017.0375
249.70755	20306.5375
253.96539	21336.5375
258.22014	22349.1375
262.4718	23122.0375
266.72039	23712.9375
270.96589	24058.9375
275.20832	24121.3375
279.44768	23963.6375
283.68397	23676.4375
287.91719	23442.7375
292.14735	23285.0375
296.37445	23428.0375
300.59849	23720.0375
304.81948	24188.3375
309.03742	24527.6375
313.25231	24411.0375
317.46415	23691.7375
321.67296	22637.9375
325.87872	21765.8375
330.08145	21459.8375
334.28114	21453.6375
338.47781	21723.1375
342.67145	22214.3375
346.86207	22858.4375
351.04966	23735.1375
355.23424	24788.4375
359.4158	25625.6375
363.59435	26126.7375
367.76989	26412.6375
371.94243	26510.7375
376.11196	26596.3375
380.27849	26588.2375
384.44203	26566.2375
388.60257	26505.5375
392.76012	26561.2375
396.91468	26898.9375
401.06626	27462.0375
405.21485	27917.5375
409.36047	27779.7375
413.50311	27107.4375
417.64277	26410.7375
421.77947	26110.4375
425.9132	26052.8375
430.04396	26150.6375
434.17176	26323.3375
438.2966	26643.0375
442.41849	27192.5375
446.53742	27889.5375
450.6534	28665.3375
454.76644	29258.7375
458.87653	29530.4375
462.98368	29436.0375
467.08789	29070.9375
471.18916	28456.8375
475.2875	27859.7375
479.38291	27426.3375
483.4754	27112.5375
487.56496	26877.1375
491.6516	26632.0375
495.73531	26454.8375
499.81612	26384.3375
503.89401	26543.2375
507.96899	26706.6375
512.04106	26896.9375
516.11023	27120.7375
520.1765	27275.0375
524.23987	27268.3375
528.30034	27007.5375
532.35792	26694.1375
536.41261	26329.7375
540.46441	25979.1375
544.51333	25841.1375
548.55936	25991.6375
552.60252	26385.3375
556.64279	26786.1375
560.6802	27009.6375
564.71473	27235.5375
568.7464	27798.1375
572.7752	28277.6375
576.80114	28125.1375
580.82422	27920.6375
584.84444	27966.6375
588.86181	28170.2375
592.87633	28392.6375
596.888	28800.8375
600.89682	29605.4375
604.9028	31598.6375
608.90594	36345.1375
612.90624	41987.0375
616.90371	40319.4375
620.89834	32380.2375
624.89015	28713.6375
628.87913	28055.8375
632.86528	28024.2375
636.84862	27937.7375
640.82913	27569.8375
644.80683	26894.1375
648.78172	26410.4375
652.75379	26429.0375
656.72306	27028.4375
660.68952	27835.2375
664.65319	27787.8375
668.61405	27070.6375
672.57211	26767.0375
676.52738	26711.5375
680.47986	26720.3375
684.42955	26689.8375
688.37646	26654.3375
692.32058	26824.2375
696.26192	27000.1375
700.20048	27294.5375
704.13626	27467.0375
708.06928	27405.2375
711.99952	27212.0375
715.927	27194.2375
719.85171	27157.0375
723.77365	27107.8375
727.69284	26906.4375
731.60928	26704.7375
735.52295	26747.3375
739.43388	26835.7375
743.34206	27009.8375
747.24749	27124.1375
751.15017	27360.0375
755.05012	27750.4375
758.94733	28522.7375
762.8418	30134.6375
766.73354	32721.8375
770.62254	35543.0375
774.50882	36861.8375
778.39237	35560.9375
782.27321	32621.8375
786.15132	29933.6375
790.02671	28349.9375
793.89938	27605.6375
797.76935	27363.4375
801.6366	27197.0375
805.50115	27066.7375
809.36299	26966.0375
813.22213	26873.1375
817.07857	26896.2375
820.93231	26857.7375
824.78336	26925.4375
828.63172	27050.1375
832.47738	27115.3375
836.32036	27206.5375
840.16066	27280.8375
843.99827	27275.1375
847.8332	27256.2375
851.66546	27207.4375
855.49504	27135.6375
859.32195	27092.5375
863.1462	27035.9375
866.96777	26973.9375
870.78668	26940.7375
874.60293	26975.8375
878.41652	27025.9375
882.22745	27142.8375
886.03573	27219.8375
889.84136	27216.3375
893.64433	27142.4375
897.44466	27044.8375
901.24235	27041.5375
905.0374	27004.2375
908.8298	26991.1375
912.61957	27046.8375
916.40671	27162.4375
920.19121	27405.8375
923.97308	27694.6375
927.75233	27996.9375
931.52895	28122.0375
935.30295	27975.8375
939.07433	27488.4375
942.84309	27082.0375
946.60924	26890.0375
950.37278	26731.3375
954.13371	26588.8375
957.89203	26441.5375
961.64774	26371.4375
965.40086	26320.2375
969.15137	26221.4375
972.89929	26165.0375
976.64461	26234.5375
980.38733	26287.0375
984.12747	26364.5375
987.86502	26568.6375
991.59999	26903.6375
995.33237	27289.7375
999.06217	27939.8375
1002.78939	28825.1375
1006.51404	29444.3375
1010.23611	29908.0375
1013.95561	30248.3375
1017.67255	30271.3375
1021.38692	30035.8375
1025.09872	29831.6375
1028.80796	30080.0375
1032.51465	30651.0375
1036.21877	31213.9375
1039.92035	31321.7375
1043.61937	30865.6375
1047.31584	30196.1375
1051.00976	29392.0375
1054.70114	28968.0375
1058.38998	28866.9375
1062.07627	28896.3375
1065.76003	29009.9375
1069.44126	29173.3375
1073.11995	29431.3375
1076.79611	29643.4375
1080.46974	29875.0375
1084.14085	30147.7375
1087.80943	30483.5375
1091.47549	30533.5375
1095.13903	30224.3375
1098.80005	29578.4375
1102.45857	29043.9375
1106.11456	28810.2375
1109.76805	28815.6375
1113.41903	29091.8375
1117.06751	29496.5375
1120.71348	30028.2375
1124.35696	30555.6375
1127.99793	31001.6375
1131.63641	31103.8375
1135.2724	30569.9375
1138.90589	29947.0375
1142.5369	29490.6375
1146.16542	29195.3375
1149.79145	29014.5375
1153.415	29045.1375
1157.03607	29256.5375
1160.65467	29712.7375
1164.27079	30414.2375
1167.88443	31453.3375
1171.49561	33001.1375
1175.10432	35423.6375
1178.71056	38755.9375
1182.31434	41681.0375
1185.91565	43098.6375
1189.51451	43088.1375
1193.11091	41455.0375
1196.70485	39175.4375
1200.29634	37186.7375
1203.88538	35683.3375
1207.47197	34306.3375
1211.05612	33322.5375
1214.63782	32742.5375
1218.21708	32723.5375
1221.79391	32918.9375
1225.36829	33239.8375
1228.94024	33439.5375
1232.50976	33455.1375
1236.07685	33434.7375
1239.6415	33392.3375
1243.20374	33328.1375
1246.76355	33325.0375
1250.32093	33576.4375
1253.8759	34206.9375
1257.42845	35015.4375
1260.97859	35838.7375
1264.52631	36480.3375
1268.07163	37168.7375
1271.61453	37953.0375
1275.15503	38774.1375
1278.69312	39541.5375
1282.22882	40111.7375
1285.76211	40774.3375
1289.29301	41611.6375
1292.82151	42384.9375
1296.34761	43164.4375
1299.87133	44475.9375
1303.39266	46607.6375
1306.9116	49848.9375
1310.42815	53674.9375
1313.94233	56428.4375
1317.45412	56564.4375
1320.96354	54768.7375
1324.47058	52516.1375
1327.97525	50393.7375
1331.47754	49002.1375
1334.97747	48402.3375
1338.47502	48583.5375
1341.97022	49150.4375
1345.46305	49504.0375
1348.95352	49913.5375
1352.44163	50738.9375
1355.92738	52656.2375
1359.41078	56410.8375
1362.89183	60462.3375
1366.37053	59750.3375
1369.84688	53918.7375
1373.32088	47556.0375
1376.79254	43391.6375
1380.26186	41326.0375
1383.72883	40293.2375
1387.19347	39488.0375
1390.65578	38642.8375
1394.11575	38152.3375
1397.57339	38091.2375
1401.0287	38578.6375
1404.48168	39323.9375
1407.93234	40099.8375
1411.38068	40762.0375
1414.82669	40834.2375
1418.27039	40190.7375
1421.71177	39262.5375
1425.15083	38501.5375
1428.58758	38022.0375
1432.02203	37985.4375
1435.45416	38086.7375
1438.88399	38251.0375
1442.31151	38310.6375
1445.73673	38465.4375
1449.15965	38647.0375
1452.58027	38635.8375
1455.9986	38435.3375
1459.41463	38363.0375
1462.82837	38566.5375
1466.23982	39063.2375
1469.64898	39597.8375
1473.05586	40035.3375
1476.46045	40273.8375
1479.86276	40642.1375
1483.26279	41149.9375
1486.66054	41712.8375
1490.05602	42509.6375
1493.44922	43417.3375
1496.84016	44465.3375
1500.22882	45842.1375
1503.61521	47818.1375
1506.99934	50286.6375
1510.38121	52887.6375
1513.76081	54226.8375
1517.13816	53135.9375
1520.51324	49655.3375
1523.88607	46065.6375
1527.25665	43348.1375
1530.62498	41761.6375
1533.99105	40698.1375
1537.35488	40145.8375
1540.71647	39738.3375
1544.07581	39577.7375
1547.4329	39420.0375
1550.78776	39286.2375
1554.14038	39179.7375
1557.49077	39285.3375
1560.83892	39561.4375
1564.18484	39849.9375
1567.52853	39980.8375
1570.86999	40156.7375
1574.20922	40328.4375
1577.54624	40461.8375
1580.88103	39957.4375
1584.2136	39299.5375
1587.54395	39426.7375
1590.87208	40598.6375
1594.19801	42610.5375
1597.52172	44993.8375
1600.84321	46079.2375
1604.16251	44858.1375
1607.47959	42355.3375
1610.79447	39467.4375
1614.10715	36794.9375
1617.41763	34768.4375
1620.7259	33461.7375
1624.03199	32914.6375
1627.33587	33048.8375
1630.63757	33888.2375
1633.93707	35324.7375
1637.23439	37335.0375
1640.52951	39738.0375
1643.82246	42139.1375
1647.11321	44171.4375
1650.40179	44905.8375
1653.68819	43267.5375
1656.97241	39345.9375
1660.25446	35123.0375
1663.53433	32048.7375
1666.81203	30171.8375
1670.08756	29014.9375
1673.36092	28314.6375
1676.63211	27800.5375
1679.90115	27447.2375
1683.16801	27241.0375
1686.43272	26970.4375
1689.69527	26864.5375
1692.95567	26752.6375
1696.2139	26702.1375
1699.46999	26673.1375
1702.72392	26673.5375
1705.97571	26651.0375
1709.22535	26611.6375
1712.47284	26623.9375
1715.71819	26667.6375
1718.96139	26689.6375
1722.20246	26645.7375
1725.44139	26545.7375
1728.67818	26440.4375
1731.91284	26330.6375
1735.14537	26215.5375
1738.37576	26136.9375
1741.60403	26058.6375
1744.83017	26023.2375
1748.05418	25951.0375
1751.27607	25925.4375
1754.49584	25915.0375
1757.71349	25924.3375
1760.92903	25913.8375
1764.14244	25842.9375
1767.35375	25893.2375
1770.56294	25854.3375
1773.77002	25806.6375
1776.97499	25797.2375
1780.17785	25806.0375
1783.37861	25776.0375
1786.57727	25760.0375
1789.77382	25726.4375
1792.96828	25721.8375
1796.16064	25754.4375
1799.3509	25690.7375
1802.53907	25687.3375
1805.72514	25653.1375
1808.90913	25587.1375
1812.09102	25554.5375
1815.27083	25479.0375
1818.44856	25480.7375
1821.6242	25471.3375
1824.79776	25414.6375
1827.96924	25427.2375
1831.13864	25399.5375
1834.30597	25439.0375
1837.47122	25452.3375
1840.6344	25430.5375
1843.7955	25445.6375
1846.95454	25428.8375
1850.11151	25453.2375
1853.26642	25469.3375
1856.41926	25468.6375
1859.57004	25501.7375
1862.71876	25532.3375
1865.86542	25535.4375
1869.01003	25524.6375
1872.15258	25517.2375
1875.29308	25586.1375
1878.43152	25574.5375
1881.56792	25597.2375
1884.70227	25638.0375
1887.83457	25624.5375
1890.96482	25656.1375
1894.09304	25606.4375
1897.21921	25624.4375
1900.34335	25611.2375
1903.46544	25627.3375
1906.58551	25635.6375
1909.70353	25657.4375
1912.81953	25619.7375
1915.93349	25567.5375
1919.04543	25548.6375
1922.15534	25497.7375
1925.26322	25472.7375
1928.36908	25394.6375
1931.47292	25360.5375
1934.57473	25276.4375
1937.67453	25178.2375
1940.77232	25145.6375
1943.86808	25031.4375
1946.96184	24925.8375
1950.05358	24839.3375
1953.14331	24758.2375
1956.23103	24647.6375
1959.31675	24583.1375
1962.40046	24494.3375
1965.48217	24427.6375
1968.56188	24361.2375
1971.63959	24306.6375
1974.7153	24255.6375
1977.78901	24160.5375
1980.86073	24092.4375
1983.93046	24019.4375
1986.99819	23945.3375
1990.06394	23881.6375
1993.1277	23864.8375
1996.18947	23766.6375
1999.24925	23719.8375
2002.30706	23617.0375
2005.36288	23541.7375
2008.41672	23529.2375
2011.46859	23479.1375
2014.51848	23414.9375
2017.56639	23364.0375
2020.61233	23280.0375
2023.6563	23262.4375
2026.6983	23206.0375
2029.73833	23139.2375
2032.7764	23107.4375
2035.8125	23102.5375
2038.84664	23090.8375
2041.87881	23051.0375
2044.90903	23013.1375
2047.93729	22993.7375
2050.96359	22999.2375
2053.98794	22920.5375
2057.01034	22911.0375
2060.03078	22872.5375
2063.04927	22841.5375
2066.06582	22840.9375
2069.08042	22833.9375
2072.09307	22815.5375
2075.10378	22786.8375
2078.11255	22775.3375
2081.11938	22775.0375
2084.12426	22793.4375
2087.12722	22766.7375
2090.12824	22727.4375
2093.12732	22766.4375
2096.12447	22796.4375
2099.11969	22764.1375
2102.11299	22797.8375
2105.10435	22759.5375
2108.09379	22787.5375
2111.08131	22820.8375
2114.0669	22802.2375
2117.05057	22857.0375
2120.03233	22856.6375
2123.01216	22899.2375
2125.99008	22902.3375
2128.96609	22899.8375
2131.94018	22950.0375
2134.91236	22899.8375
2137.88263	22995.6375
2140.851	22980.3375
2143.81746	23021.4375
2146.78201	23008.8375
2149.74466	23023.3375
2152.7054	23070.5375
2155.66425	23013.8375
2158.6212	23043.8375
2161.57625	23019.2375
2164.52941	23023.6375
2167.48067	23010.6375
2170.43004	23061.4375
2173.37752	23024.6375
2176.32311	23025.3375
2179.26681	23028.9375
2182.20863	23026.4375
2185.14856	23070.2375
2188.08661	23035.8375
2191.02278	23051.6375
2193.95707	23045.7375
2196.88948	23016.2375
2199.82001	23067.2375
2202.74867	23054.5375
2205.67545	23033.9375
2208.60037	22988.7375
2211.52341	22989.7375
2214.44458	22936.7375
2217.36388	22924.2375
2220.28132	22912.7375
2223.1969	22863.1375
2226.11061	22808.1375
2229.02246	22812.2375
2231.93245	22755.6375
2234.84058	22705.7375
2237.74686	22692.9375
2240.65128	22679.1375
2243.55385	22644.9375
2246.45456	22646.2375
2249.35343	22636.1375
2252.25044	22610.6375
2255.14561	22551.4375
2258.03893	22523.2375
2260.93041	22523.3375
2263.82004	22440.1375
2266.70783	22408.7375
2269.59378	22394.6375
2272.4779	22317.3375
2275.36017	22283.9375
2278.24061	22240.1375
2281.11922	22222.6375
2283.996	22174.2375
2286.87094	22170.7375
2289.74405	22111.7375
2292.61534	22102.4375
2295.4848	22082.1375
2298.35243	22058.8375
2301.21824	22044.0375
2304.08223	22100.7375
2306.94439	22082.1375
2309.80474	22101.6375
2312.66327	22101.9375
2315.51999	22080.1375
2318.37489	22068.8375
2321.22797	22086.3375
2324.07925	22074.6375
2326.92871	22054.5375
2329.77637	22014.6375
2332.62222	22008.3375
2335.46626	21972.5375
2338.3085	21961.9375
2341.14893	21983.0375
2343.98756	21997.4375
2346.8244	22002.7375
2349.65943	21953.3375
2352.49267	21974.9375
2355.32411	21920.0375
2358.15376	21952.4375
2360.98161	21910.7375
2363.80768	21915.9375
2366.63195	21823.5375
2369.45444	21847.8375
2372.27514	21784.7375
2375.09405	21774.1375
2377.91118	21776.6375
2380.72652	21696.6375
2383.54009	21635.9375
2386.35187	21646.7375
2389.16188	21589.6375
2391.97011	21533.6375
2394.77657	21494.8375
2397.58125	21478.3375
2400.38416	21421.0375
2403.18529	21407.9375
2405.98466	21426.1375
2408.78226	21333.6375
2411.57809	21308.8375
2414.37216	21266.5375
2417.16446	21220.5375
2419.955	21215.5375
2422.74378	21209.1375
2425.5308	21171.8375
2428.31606	21143.2375
2431.09956	21131.6375
2433.88131	21129.3375
2436.6613	21121.4375
2439.43954	21086.3375
2442.21603	21107.3375
2444.99077	21060.0375
2447.76377	21092.7375
2450.53501	21062.8375
2453.30451	21078.6375
2456.07226	21045.1375
2458.83827	21010.6375
2461.60254	21007.3375
2464.36507	20998.5375
2467.12586	21001.3375
2469.88492	21007.5375
2472.64224	20977.4375
2475.39782	20985.4375
2478.15167	20958.3375
2480.90379	21009.2375
2483.65417	20989.2375
2486.40283	21014.4375
2489.14976	20996.1375
2491.89497	20988.9375
2494.63845	21029.6375
2497.3802	21007.7375
2500.12024	21037.0375
2502.85855	21006.7375
2505.59514	21020.4375
2508.33002	20919.4375
2511.06318	20916.5375
2513.79462	20912.5375
2516.52435	20933.5375
2519.25237	20893.9375
2521.97867	20860.3375
2524.70327	20823.8375
2527.42616	20782.1375
2530.14734	20769.2375
2532.86681	20737.8375
2535.58458	20759.9375
2538.30065	20729.3375
2541.01501	20730.4375
2543.72768	20673.5375
2546.43864	20660.4375
2549.14791	20636.7375
2551.85548	20634.0375
2554.56136	20630.4375
2557.26554	20626.8375
2559.96803	20587.0375
2562.66883	20561.1375
2565.36794	20503.9375
2568.06536	20543.3375
2570.7611	20467.0375
2573.45514	20461.4375
2576.14751	20443.9375
2578.83819	20427.6375
2581.52719	20417.0375
2584.21451	20437.0375
2586.90015	20426.1375
2589.58411	20367.4375
2592.2664	20360.5375
2594.94701	20350.9375
2597.62594	20348.9375
2600.30321	20321.4375
2602.9788	20293.5375
2605.65273	20261.2375
2608.32498	20249.4375
2610.99557	20244.5375
2613.66449	20265.6375
2616.33175	20230.5375
2618.99734	20242.6375
2621.66128	20222.3375
2624.32355	20246.1375
2626.98416	20214.0375
2629.64311	20248.4375
2632.30041	20220.1375
2634.95605	20222.2375
2637.61004	20164.8375
2640.26238	20136.5375
2642.91306	20135.7375
2645.56209	20077.3375
2648.20948	20048.8375
2650.85521	20063.7375
2653.4993	20064.9375
2656.14175	20096.6375
2658.78255	20084.5375
2661.42171	20043.5375
2664.05923	20063.8375
2666.6951	20089.0375
2669.32934	20098.3375
2671.96194	20083.7375
2674.59291	20130.9375
2677.22224	20130.0375
2679.84993	20123.0375
2682.476	20129.6375
2685.10043	20135.6375
2687.72324	20103.5375
2690.34441	20123.1375
2692.96396	20058.9375
2695.58188	20118.4375
2698.19818	20080.7375
2700.81285	20100.6375
2703.4259	20061.8375
2706.03733	20059.0375
2708.64714	20063.7375
2711.25533	20121.4375
2713.86191	20090.7375
2716.46687	20143.0375
2719.07021	20128.4375
2721.67194	20144.8375
2724.27206	20119.7375
2726.87057	20151.8375
2729.46747	20120.2375
2732.06276	20118.4375
2734.65644	20124.7375
2737.24852	20112.3375
2739.83899	20091.6375
2742.42786	20085.0375
2745.01513	20090.6375
2747.60079	20114.3375
2750.18486	20092.0375
2752.76733	20104.0375
2755.3482	20038.2375
2757.92747	20080.7375
2760.50515	20064.1375
2763.08123	20054.0375
2765.65573	20031.0375
2768.22863	20052.3375
2770.79994	19993.4375
2773.36967	20015.3375
2775.9378	19953.2375
2778.50435	19980.1375
2781.06932	19949.4375
2783.6327	19962.0375
2786.1945	19921.7375
2788.75471	19906.4375
2791.31335	19873.3375
2793.87041	19854.7375
2796.42589	19783.3375
2798.97979	19776.1375
2801.53212	19775.5375
2804.08288	19696.2375
2806.63206	19662.0375
2809.17967	19676.2375
2811.72571	19638.9375
2814.27018	19669.6375
2816.81308	19614.0375
2819.35442	19640.5375
2821.89419	19599.2375
2824.43239	19598.2375
2826.96904	19584.7375
2829.50412	19559.5375
2832.03763	19538.4375
2834.56959	19539.8375
2837.1	19542.9375
2839.62884	19559.6375
2842.15613	19570.7375
2844.68186	19627.7375
2847.20604	19639.3375
2849.72867	19652.2375
2852.24974	19628.0375
2854.76927	19594.2375
2857.28724	19625.8375
2859.80367	19588.9375
2862.31855	19529.7375
2864.83189	19521.1375
2867.34368	19460.1375
2869.85393	19490.8375
2872.36264	19515.3375
2874.8698	19503.8375
2877.37543	19501.3375
2879.87952	19531.8375
2882.38207	19516.7375
2884.88308	19514.6375
2887.38256	19506.8375
2889.88051	19505.0375
2892.37692	19528.5375
2894.8718	19523.0375
2897.36515	19539.2375
2899.85698	19534.9375
2902.34727	19578.1375
2904.83604	19541.8375
2907.32328	19588.4375
2909.809	19551.0375
2912.29319	19567.8375
2914.77587	19571.5375
2917.25702	19590.6375
2919.73665	19522.2375
2922.21476	19544.2375
2924.69136	19485.2375
2927.16644	19501.0375
2929.64	19485.9375
2932.11205	19480.9375
2934.58258	19435.8375
2937.05161	19435.6375
2939.51912	19431.7375
2941.98513	19383.0375
2944.44962	19340.1375
2946.91261	19272.0375
2949.37409	19295.9375
2951.83407	19205.4375
2954.29254	19215.8375
2956.74951	19179.8375
2959.20498	19183.3375
2961.65895	19151.0375
2964.11142	19093.8375
2966.56239	19033.8375
2969.01186	19039.0375
2971.45984	18980.6375
2973.90632	18945.7375
2976.35131	18913.1375
2978.7948	18872.9375
2981.23681	18795.6375
2983.67732	18809.1375
2986.11635	18749.4375
2988.55388	18648.4375
2990.98993	18652.7375
2993.4245	18614.6375
2995.85758	18552.3375
2998.28917	18530.7375
3000.71928	18532.4375
3003.14791	18468.8375
3005.57506	18471.9375
3008.00073	18426.4375
3010.42493	18405.1375
3012.84764	18367.1375
3015.26888	18374.6375
3017.68865	18347.5375
3020.10694	18342.9375
3022.52376	18279.8375
3024.9391	18281.0375
3027.35298	18200.8375
3029.76539	18198.7375
3032.17632	18164.0375
3034.5858	18138.3375
3036.9938	18154.3375
3039.40034	18082.0375
3041.80542	18110.2375
3044.20903	18043.9375
3046.61118	18009.7375
3049.01187	17965.2375
3051.4111	17964.6375
3053.80888	17885.2375
3056.20519	17885.5375
3058.60005	17821.4375
3060.99345	17832.0375
3063.3854	17777.2375
3065.7759	17692.0375
3068.16494	17699.8375
3070.55254	17634.5375
3072.93868	17635.4375
3075.32338	17561.7375
3077.70662	17546.8375
3080.08842	17485.4375
3082.46878	17480.2375
3084.84769	17462.9375
3087.22515	17454.4375
3089.60118	17460.8375
3091.97576	17438.9375
3094.3489	17411.4375
3096.72061	17407.2375
3099.09087	17379.3375
3101.4597	17396.6375
3103.82709	17384.1375
3106.19305	17325.5375
3108.55757	17329.9375
3110.92066	17268.1375
3113.28232	17277.0375
3115.64255	17188.1375
3118.00134	17191.7375
3120.35871	17174.1375
3122.71466	17156.3375
3125.06917	17123.6375
3127.42226	17076.6375
3129.77393	17100.0375
3132.12417	17068.9375
3134.47299	17072.0375
3136.82039	17085.0375
3139.16636	17067.7375
3141.51092	17068.7375
3143.85406	17080.2375
3146.19579	17085.0375
3148.53609	17076.0375
3150.87499	17053.0375
3153.21246	17067.5375
3155.54853	17093.3375
3157.88318	17081.1375
3160.21642	17115.7375
3162.54826	17039.2375
3164.87868	17046.3375
3167.2077	17027.6375
3169.5353	17021.6375
3171.86151	16971.6375
3174.18631	16947.8375
3176.5097	16973.7375
3178.83169	16915.6375
3181.15228	16924.0375
3183.47147	16882.7375
3185.78926	16897.3375
3188.10565	16904.8375
3190.42065	16879.2375
3192.73424	16920.8375
3195.04645	16912.8375
3197.35725	16910.0375
3199.66667	16888.5375
3201.97469	16925.8375
3204.28132	16935.2375
3206.58656	16937.9375
3208.8904	16920.2375
3211.19287	16917.2375
3213.49394	16901.8375
3215.79363	16900.4375
3218.09193	16891.9375
3220.38884	16862.1375
3222.68438	16878.6375
3224.97853	16866.8375
3227.2713	16835.3375
3229.56269	16827.8375
3231.8527	16859.6375
3234.14133	16817.3375
3236.42858	16795.7375
3238.71446	16762.9375
3240.99896	16714.6375
3243.28209	16739.7375
3245.56384	16722.8375
3247.84423	16787.0375
3250.12324	16733.6375
3252.40088	16719.5375
3254.67715	16680.7375
3256.95205	16663.7375
3259.22558	16668.5375
3261.49775	16617.5375
3263.76855	16599.4375
3266.03799	16589.4375
3268.30606	16589.1375
3270.57277	16528.0375
3272.83812	16544.4375
3275.10211	16512.9375
3277.36474	16507.4375
3279.62601	16506.9375
3281.88593	16486.1375
3284.14448	16454.2375
3286.40168	16465.0375
3288.65753	16447.7375
3290.91202	16379.3375
3293.16516	16349.7375
3295.41695	16332.8375
3297.66738	16229.0375
3299.91647	16115.7375
3302.16421	16057.6375
3304.4106	16004.7375
3306.65564	15949.1375
3308.89933	15817.0375
3311.14169	15738.7375
3313.38269	15617.4375
3315.62236	15539.3375
3317.86068	15400.5375
3320.09766	15273.9375
3322.3333	15114.0375
3324.5676	15108.2375
3326.80056	14869.8375
3329.03219	14794.7375
3331.26248	3.5375
3333.49143	1.4375
3335.71905	-0.2625
