Data from AgNPs_FTO_APTES_UA_0uM_R6G_10uM_NaF_0.1M_Addition_RamanShift__54__10-59-17-146.txt Node

Date: Fri Dec 17 10:59:17 GMT 2021
User: TCL
Spectrometer: QEP01345
Trigger mode: 4
Integration Time (sec): 7.000000E0
Scans to average: 10
Electric dark correction enabled: true
Nonlinearity correction enabled: false
Boxcar width: 0
XAxis mode: Raman Shifts
Number of Pixels in Spectrum: 1044
>>>>>Begin Spectral Data<<<<<
46.04893	0.8
50.45542	0.4
54.85868	-1.4
59.25871	1.1
63.6555	47
68.04907	49.6
72.43941	50.7
76.82654	54.9
81.21044	56.8
85.59113	60.5
89.96862	64.5
94.34289	67.3
98.71396	68.6
103.08183	68.5
107.4465	72.2
111.80798	68
116.16626	73.9
120.52136	71.7
124.87327	80.7
129.222	76.7
133.56755	80.9
137.90993	88.2
142.24913	86.3
146.58517	96.4
150.91804	110
155.24774	127.5
159.57429	154.2
163.89768	187.2
168.21792	252.9
172.53501	328.4
176.84895	451.5
181.15975	614.6
185.46741	849.8
189.77193	1171.9
194.07331	1565.3
198.37157	1995.1
202.6667	2464.2
206.9587	2922
211.24758	3399.5
215.53334	3897.2
219.81599	4425.2
224.09553	5026.8
228.37195	5728.1
232.64527	6449.6
236.91549	7149.3
241.18261	7817.6
245.44663	8348
249.70755	8764.3
253.96539	9143.4
258.22014	9465.1
262.4718	9764.8
266.72039	10018.9
270.96589	10158.8
275.20832	10172.9
279.44768	10075.3
283.68397	9960.8
287.91719	9851.2
292.14735	9867.4
296.37445	10070.5
300.59849	10441.5
304.81948	10903.6
309.03742	11242.3
313.25231	11254.3
317.46415	10751.5
321.67296	9961.6
325.87872	9285.3
330.08145	8974.8
334.28114	8945.7
338.47781	9113
342.67145	9369.2
346.86207	9803.3
351.04966	10406.9
355.23424	11123.9
359.4158	11613.1
363.59435	11869.2
367.76989	11919.6
371.94243	11875.9
376.11196	11780.4
380.27849	11691.5
384.44203	11604.2
388.60257	11426.9
392.76012	11376.5
396.91468	11510.7
401.06626	11833
405.21485	12088.1
409.36047	11933.2
413.50311	11402.4
417.64277	10902.5
421.77947	10598.4
425.9132	10505.1
430.04396	10499.5
434.17176	10601.8
438.2966	10768.3
442.41849	11092.5
446.53742	11495.8
450.6534	11894.6
454.76644	12173
458.87653	12212
462.98368	12069.6
467.08789	11804.9
471.18916	11470.8
475.2875	11131.5
479.38291	10847.8
483.4754	10648.6
487.56496	10480.8
491.6516	10360
495.73531	10291
499.81612	10293.7
503.89401	10365.5
507.96899	10542.4
512.04106	10659.6
516.11023	10838.9
520.1765	10909.2
524.23987	10896.6
528.30034	10731.7
532.35792	10533.4
536.41261	10289.5
540.46441	10017.8
544.51333	9931.9
548.55936	9966.9
552.60252	10187.3
556.64279	10437
560.6802	10602.9
564.71473	10811.6
568.7464	11294.1
572.7752	11631.7
576.80114	11377.6
580.82422	11029.5
584.84444	10907
588.86181	10974.2
592.87633	11098.9
596.888	11347.4
600.89682	11747.2
604.9028	13006.4
608.90594	16248.8
612.90624	20342.6
616.90371	19488
620.89834	13853.8
624.89015	11131.6
628.87913	10561.1
632.86528	10576.7
636.84862	10664
640.82913	10500.5
644.80683	10095
648.78172	9830
652.75379	9905.7
656.72306	10333.8
660.68952	10879.3
664.65319	10779
668.61405	10250.8
672.57211	9969.3
676.52738	9967.2
680.47986	9934
684.42955	9861.9
688.37646	9853.2
692.32058	9875.2
696.26192	10008.8
700.20048	10148.7
704.13626	10269.6
708.06928	10266.5
711.99952	10163.9
715.927	10093.7
719.85171	10129.9
723.77365	10081.1
727.69284	9981.7
731.60928	9879.8
735.52295	9906.7
739.43388	9976.7
743.34206	10047.9
747.24749	10141
751.15017	10239.4
755.05012	10487.6
758.94733	10969
762.8418	12046.1
766.73354	13851.7
770.62254	15785.2
774.50882	16785.9
778.39237	16107.1
782.27321	14126.3
786.15132	12092.3
790.02671	10950.3
793.89938	10456.5
797.76935	10225.3
801.6366	10128.4
805.50115	10040.1
809.36299	9986.9
813.22213	9968.3
817.07857	9955.7
820.93231	9949.1
824.78336	10006.2
828.63172	10059.7
832.47738	10076.9
836.32036	10074.5
840.16066	10006.2
843.99827	9944.5
847.8332	9919.1
851.66546	9923.3
855.49504	9905.1
859.32195	9886.7
863.1462	9851.4
866.96777	9792.7
870.78668	9799.5
874.60293	9819.4
878.41652	9865.2
882.22745	9896.3
886.03573	9966.1
889.84136	9918.7
893.64433	9887.9
897.44466	9851.6
901.24235	9856.9
905.0374	9866.9
908.8298	9817.5
912.61957	9801.3
916.40671	9854.1
920.19121	9954.5
923.97308	10088.2
927.75233	10206.2
931.52895	10275.2
935.30295	10179.5
939.07433	9883.1
942.84309	9655.6
946.60924	9519.1
950.37278	9455.7
954.13371	9357.7
957.89203	9327.6
961.64774	9305.4
965.40086	9283.4
969.15137	9245.4
972.89929	9239.1
976.64461	9226.9
980.38733	9243.7
984.12747	9274.4
987.86502	9323.8
991.59999	9384.7
995.33237	9498.9
999.06217	9766.1
1002.78939	10065.1
1006.51404	10375.2
1010.23611	10624.1
1013.95561	10772
1017.67255	10750.9
1021.38692	10566.3
1025.09872	10326.1
1028.80796	10286.1
1032.51465	10398.3
1036.21877	10575.2
1039.92035	10703.4
1043.61937	10662.4
1047.31584	10539.2
1051.00976	10391.7
1054.70114	10258.2
1058.38998	10188.6
1062.07627	10223.4
1065.76003	10241.3
1069.44126	10357.2
1073.11995	10489
1076.79611	10614.7
1080.46974	10774.3
1084.14085	10979.7
1087.80943	11265.6
1091.47549	11335.3
1095.13903	11160.2
1098.80005	10766.4
1102.45857	10442.7
1106.11456	10295
1109.76805	10341.3
1113.41903	10528.8
1117.06751	10827.9
1120.71348	11231
1124.35696	11637.4
1127.99793	12071.4
1131.63641	12041.2
1135.2724	11536.9
1138.90589	11076.1
1142.5369	10793.9
1146.16542	10608.1
1149.79145	10551.1
1153.415	10576.7
1157.03607	10666.9
1160.65467	10921.2
1164.27079	11286.3
1167.88443	11843.5
1171.49561	12790.8
1175.10432	14336.4
1178.71056	16405.6
1182.31434	17932
1185.91565	18368.2
1189.51451	18017
1193.11091	17040.9
1196.70485	15758.5
1200.29634	14691
1203.88538	13880.3
1207.47197	13062.9
1211.05612	12417.3
1214.63782	12128.4
1218.21708	12029.4
1221.79391	12101.8
1225.36829	12187.4
1228.94024	12229
1232.50976	12239.1
1236.07685	12261.3
1239.6415	12347
1243.20374	12355.4
1246.76355	12407.8
1250.32093	12513.4
1253.8759	12796.4
1257.42845	13212.3
1260.97859	13606.7
1264.52631	13989.9
1268.07163	14356.9
1271.61453	14704.6
1275.15503	15023.1
1278.69312	15199.8
1282.22882	15328.6
1285.76211	15695.7
1289.29301	16170.1
1292.82151	16708
1296.34761	17189.4
1299.87133	17862.5
1303.39266	19031
1306.9116	20873.9
1310.42815	23127.7
1313.94233	24566.5
1317.45412	24446.2
1320.96354	23121.8
1324.47058	21611.3
1327.97525	20300.7
1331.47754	19599.7
1334.97747	19470.3
1338.47502	19639.6
1341.97022	19924.7
1345.46305	20288.3
1348.95352	20972.4
1352.44163	22053.3
1355.92738	23727.6
1359.41078	26492.4
1362.89183	29275.2
1366.37053	28803.2
1369.84688	24999.6
1373.32088	20851.8
1376.79254	18195.3
1380.26186	16856.3
1383.72883	16244.2
1387.19347	15787.9
1390.65578	15268.8
1394.11575	14847.9
1397.57339	14668.7
1401.0287	14833.5
1404.48168	15198.9
1407.93234	15611.2
1411.38068	15916.3
1414.82669	15911.7
1418.27039	15557.8
1421.71177	15031.8
1425.15083	14619.9
1428.58758	14438.9
1432.02203	14452
1435.45416	14659.4
1438.88399	14743.8
1442.31151	14767.3
1445.73673	14853.9
1449.15965	14935.9
1452.58027	14879
1455.9986	14685.9
1459.41463	14621.8
1462.82837	14716.9
1466.23982	14983.6
1469.64898	15283.7
1473.05586	15481.1
1476.46045	15655.4
1479.86276	15867.7
1483.26279	16198
1486.66054	16558.1
1490.05602	17004.4
1493.44922	17624.9
1496.84016	18452.2
1500.22882	19707.8
1503.61521	21384.1
1506.99934	23373.3
1510.38121	25373.8
1513.76081	26499.4
1517.13816	25664.7
1520.51324	23094.7
1523.88607	20283.3
1527.25665	18325.8
1530.62498	17289.5
1533.99105	16675.6
1537.35488	16288.3
1540.71647	16022.5
1544.07581	15866
1547.4329	15723.4
1550.78776	15518.9
1554.14038	15337.3
1557.49077	15273
1560.83892	15405.1
1564.18484	15688.8
1567.52853	16002.7
1570.86999	16310.5
1574.20922	16563.9
1577.54624	16510.4
1580.88103	15955.4
1584.2136	15137
1587.54395	14874.6
1590.87208	15309.3
1594.19801	16389
1597.52172	17757.1
1600.84321	18481
1604.16251	18028.8
1607.47959	16761.4
1610.79447	15222
1614.10715	13801.7
1617.41763	12694.9
1620.7259	12070.5
1624.03199	11804.4
1627.33587	11807.1
1630.63757	12108.9
1633.93707	12679.8
1637.23439	13620.9
1640.52951	14911.5
1643.82246	16552.9
1647.11321	18312.9
1650.40179	19409
1653.68819	18819.9
1656.97241	16530.3
1660.25446	13867
1663.53433	11993.4
1666.81203	10863
1670.08756	10227.3
1673.36092	9813.7
1676.63211	9580.5
1679.90115	9405.9
1683.16801	9259.5
1686.43272	9173.1
1689.69527	9095.6
1692.95567	9054.7
1696.2139	9026.2
1699.46999	9018
1702.72392	8997.1
1705.97571	8999.5
1709.22535	8975.6
1712.47284	8979.5
1715.71819	8981.2
1718.96139	8981.7
1722.20246	8966
1725.44139	8910.9
1728.67818	8870.8
1731.91284	8797.5
1735.14537	8746
1738.37576	8720.2
1741.60403	8643.7
1744.83017	8623.2
1748.05418	8614.2
1751.27607	8597.2
1754.49584	8578.9
1757.71349	8571.1
1760.92903	8548.9
1764.14244	8538.6
1767.35375	8541.1
1770.56294	8516.8
1773.77002	8502.1
1776.97499	8473.8
1780.17785	8461.8
1783.37861	8429.2
1786.57727	8428.5
1789.77382	8411.5
1792.96828	8410.5
1796.16064	8386.1
1799.3509	8376.6
1802.53907	8386.7
1805.72514	8350.2
1808.90913	8337.4
1812.09102	8280
1815.27083	8274.8
1818.44856	8267.5
1821.6242	8242.3
1824.79776	8240.3
1827.96924	8212.6
1831.13864	8230.5
1834.30597	8219.7
1837.47122	8208.6
1840.6344	8200.3
1843.7955	8203.3
1846.95454	8211.5
1850.11151	8194.6
1853.26642	8180.1
1856.41926	8192.4
1859.57004	8192.9
1862.71876	8197.8
1865.86542	8196.9
1869.01003	8201.8
1872.15258	8212
1875.29308	8193.7
1878.43152	8212.3
1881.56792	8194.7
1884.70227	8207.4
1887.83457	8206.7
1890.96482	8215.3
1894.09304	8191.7
1897.21921	8188.8
1900.34335	8206
1903.46544	8211.2
1906.58551	8202.7
1909.70353	8195
1912.81953	8194.2
1915.93349	8197.4
1919.04543	8164.2
1922.15534	8165.2
1925.26322	8148.5
1928.36908	8117.8
1931.47292	8113.5
1934.57473	8080.7
1937.67453	8038.9
1940.77232	8015.3
1943.86808	7985.8
1946.96184	7930.8
1950.05358	7906.3
1953.14331	7885.9
1956.23103	7860.5
1959.31675	7814.6
1962.40046	7797.2
1965.48217	7781.6
1968.56188	7741.9
1971.63959	7740.1
1974.7153	7700.7
1977.78901	7675.1
1980.86073	7656.3
1983.93046	7608.4
1986.99819	7599.8
1990.06394	7593.1
1993.1277	7525.9
1996.18947	7515.7
1999.24925	7510.8
2002.30706	7474.9
2005.36288	7433.2
2008.41672	7427
2011.46859	7390.8
2014.51848	7376.5
2017.56639	7383.5
2020.61233	7346.5
2023.6563	7344.5
2026.6983	7312.8
2029.73833	7271.9
2032.7764	7271.5
2035.8125	7266.5
2038.84664	7241.7
2041.87881	7233.5
2044.90903	7222
2047.93729	7217.9
2050.96359	7200.2
2053.98794	7178.1
2057.01034	7195.7
2060.03078	7153.3
2063.04927	7166.4
2066.06582	7123.8
2069.08042	7135.3
2072.09307	7123.9
2075.10378	7106.5
2078.11255	7104.8
2081.11938	7102.6
2084.12426	7104
2087.12722	7090.4
2090.12824	7099.5
2093.12732	7100.2
2096.12447	7076.5
2099.11969	7093
2102.11299	7081.7
2105.10435	7088.6
2108.09379	7084.6
2111.08131	7096.9
2114.0669	7087.5
2117.05057	7087.2
2120.03233	7099.7
2123.01216	7099.2
2125.99008	7106.6
2128.96609	7099.7
2131.94018	7107.4
2134.91236	7113.4
2137.88263	7104.3
2140.851	7102.8
2143.81746	7118.8
2146.78201	7093.2
2149.74466	7087.9
2152.7054	7098.9
2155.66425	7097.6
2158.6212	7081.4
2161.57625	7084.8
2164.52941	7065
2167.48067	7063.6
2170.43004	7085.8
2173.37752	7069.8
2176.32311	7052.3
2179.26681	7060.4
2182.20863	7048.1
2185.14856	7058.8
2188.08661	7065.3
2191.02278	7045.9
2193.95707	7046
2196.88948	7034.9
2199.82001	7039.4
2202.74867	7029.5
2205.67545	7043
2208.60037	7012.7
2211.52341	7003.4
2214.44458	6982.4
2217.36388	6965.5
2220.28132	6939.4
2223.1969	6928.7
2226.11061	6898.3
2229.02246	6923.5
2231.93245	6882.3
2234.84058	6871.2
2237.74686	6883.4
2240.65128	6867
2243.55385	6833.5
2246.45456	6842
2249.35343	6838.7
2252.25044	6840.7
2255.14561	6827.4
2258.03893	6833.3
2260.93041	6785.1
2263.82004	6787.1
2266.70783	6771.7
2269.59378	6743.9
2272.4779	6745.5
2275.36017	6709
2278.24061	6706.4
2281.11922	6678.6
2283.996	6691.5
2286.87094	6654
2289.74405	6627.6
2292.61534	6634.3
2295.4848	6613.3
2298.35243	6598.1
2301.21824	6611.8
2304.08223	6605.2
2306.94439	6601.3
2309.80474	6605
2312.66327	6599.2
2315.51999	6583.6
2318.37489	6581.5
2321.22797	6564.1
2324.07925	6563.6
2326.92871	6553.2
2329.77637	6555.7
2332.62222	6553.6
2335.46626	6535.5
2338.3085	6506.7
2341.14893	6513.9
2343.98756	6519.4
2346.8244	6528.5
2349.65943	6531.1
2352.49267	6513.6
2355.32411	6517.7
2358.15376	6503.4
2360.98161	6525.7
2363.80768	6522
2366.63195	6510.9
2369.45444	6512.2
2372.27514	6496.9
2375.09405	6486
2377.91118	6482.7
2380.72652	6453.8
2383.54009	6438.4
2386.35187	6424.9
2389.16188	6386.7
2391.97011	6360.5
2394.77657	6352
2397.58125	6345.6
2400.38416	6316.2
2403.18529	6312.2
2405.98466	6297.4
2408.78226	6290.7
2411.57809	6279.8
2414.37216	6270.9
2417.16446	6245.8
2419.955	6223.4
2422.74378	6231.3
2425.5308	6216.1
2428.31606	6208.6
2431.09956	6212.5
2433.88131	6205.8
2436.6613	6200.3
2439.43954	6210.3
2442.21603	6192.8
2444.99077	6183
2447.76377	6180.5
2450.53501	6174
2453.30451	6184.6
2456.07226	6174.6
2458.83827	6155.7
2461.60254	6166.2
2464.36507	6159
2467.12586	6149.1
2469.88492	6125.8
2472.64224	6164.1
2475.39782	6139.8
2478.15167	6127.5
2480.90379	6155.3
2483.65417	6165.5
2486.40283	6158.6
2489.14976	6159.6
2491.89497	6172.2
2494.63845	6175.2
2497.3802	6170.7
2500.12024	6157.9
2502.85855	6164.3
2505.59514	6146.9
2508.33002	6122
2511.06318	6101.9
2513.79462	6079
2516.52435	6071.5
2519.25237	6056.7
2521.97867	6033.4
2524.70327	6036.6
2527.42616	6024.7
2530.14734	6022.2
2532.86681	6004
2535.58458	5996
2538.30065	5991.7
2541.01501	6001.1
2543.72768	5975.7
2546.43864	5961.6
2549.14791	5980.2
2551.85548	5974.4
2554.56136	5960.5
2557.26554	5945.6
2559.96803	5945
2562.66883	5936.6
2565.36794	5934.5
2568.06536	5930.9
2570.7611	5931.1
2573.45514	5914.4
2576.14751	5904.5
2578.83819	5895.4
2581.52719	5874.7
2584.21451	5882.6
2586.90015	5882.9
2589.58411	5868.8
2592.2664	5845.9
2594.94701	5838.8
2597.62594	5845.3
2600.30321	5830.5
2602.9788	5828
2605.65273	5817.5
2608.32498	5823
2610.99557	5819.5
2613.66449	5816.6
2616.33175	5822.2
2618.99734	5805.9
2621.66128	5803.1
2624.32355	5796.3
2626.98416	5779.3
2629.64311	5802.4
2632.30041	5789.8
2634.95605	5777.1
2637.61004	5774.1
2640.26238	5764.3
2642.91306	5746.5
2645.56209	5732.4
2648.20948	5714.3
2650.85521	5719.3
2653.4993	5722.4
2656.14175	5704.7
2658.78255	5739.9
2661.42171	5723.3
2664.05923	5727
2666.6951	5747.2
2669.32934	5747.3
2671.96194	5756
2674.59291	5747.6
2677.22224	5756.8
2679.84993	5777.3
2682.476	5771.3
2685.10043	5758.3
2687.72324	5748.5
2690.34441	5742.1
2692.96396	5748.3
2695.58188	5760.4
2698.19818	5735.4
2700.81285	5755.2
2703.4259	5757.5
2706.03733	5760.6
2708.64714	5728.9
2711.25533	5765.5
2713.86191	5750
2716.46687	5764.5
2719.07021	5768.8
2721.67194	5776.3
2724.27206	5755.5
2726.87057	5758.2
2729.46747	5743.3
2732.06276	5751.4
2734.65644	5771.8
2737.24852	5755.8
2739.83899	5732
2742.42786	5733.8
2745.01513	5712.5
2747.60079	5732.3
2750.18486	5722.4
2752.76733	5731.4
2755.3482	5701.1
2757.92747	5708.5
2760.50515	5708
2763.08123	5700.6
2765.65573	5703.1
2768.22863	5686.6
2770.79994	5682.7
2773.36967	5694.2
2775.9378	5689.7
2778.50435	5688.1
2781.06932	5679.1
2783.6327	5683.6
2786.1945	5679.7
2788.75471	5681.1
2791.31335	5658
2793.87041	5669.1
2796.42589	5639.8
2798.97979	5658.1
2801.53212	5645.8
2804.08288	5654.5
2806.63206	5627.3
2809.17967	5639.2
2811.72571	5640.4
2814.27018	5634.4
2816.81308	5658.8
2819.35442	5650.5
2821.89419	5657.7
2824.43239	5673.7
2826.96904	5664.6
2829.50412	5660.9
2832.03763	5654.7
2834.56959	5664.8
2837.1	5662.7
2839.62884	5686.7
2842.15613	5725.3
2844.68186	5752
2847.20604	5784.5
2849.72867	5829.3
2852.24974	5834.9
2854.76927	5842.3
2857.28724	5834.2
2859.80367	5834.8
2862.31855	5816.3
2864.83189	5794.4
2867.34368	5782.2
2869.85393	5777.7
2872.36264	5761.4
2874.8698	5753.4
2877.37543	5752.5
2879.87952	5754.9
2882.38207	5751.6
2884.88308	5728.6
2887.38256	5742.4
2889.88051	5718.2
2892.37692	5723.5
2894.8718	5711
2897.36515	5731.1
2899.85698	5710.9
2902.34727	5723.1
2904.83604	5723.6
2907.32328	5746.9
2909.809	5707.3
2912.29319	5715.7
2914.77587	5689.2
2917.25702	5710.2
2919.73665	5680.8
2922.21476	5699.8
2924.69136	5671.7
2927.16644	5664.9
2929.64	5649.8
2932.11205	5636.9
2934.58258	5626.6
2937.05161	5622
2939.51912	5591.8
2941.98513	5548.7
2944.44962	5511.5
2946.91261	5457.5
2949.37409	5443.4
2951.83407	5414.4
2954.29254	5406.1
2956.74951	5377.9
2959.20498	5374.7
2961.65895	5345.3
2964.11142	5324.6
2966.56239	5300.4
2969.01186	5299.4
2971.45984	5271.6
2973.90632	5274.7
2976.35131	5248.5
2978.7948	5228
2981.23681	5201.5
2983.67732	5184.6
2986.11635	5175
2988.55388	5149.7
2990.98993	5141
2993.4245	5112.9
2995.85758	5107.8
2998.28917	5095.9
3000.71928	5071.8
3003.14791	5071.8
3005.57506	5060.5
3008.00073	5041.9
3010.42493	5036.7
3012.84764	5029
3015.26888	5022
3017.68865	5010.9
3020.10694	4998.6
3022.52376	4991.5
3024.9391	4984.6
3027.35298	4961.1
3029.76539	4959.6
3032.17632	4969.9
3034.5858	4946.2
3036.9938	4925.9
3039.40034	4913.2
3041.80542	4920.5
3044.20903	4918.7
3046.61118	4892.8
3049.01187	4898.6
3051.4111	4879.3
3053.80888	4872.4
3056.20519	4860.3
3058.60005	4843.9
3060.99345	4841.7
3063.3854	4834.7
3065.7759	4819.3
3068.16494	4816.6
3070.55254	4805.5
3072.93868	4783.3
3075.32338	4753.6
3077.70662	4758
3080.08842	4730.9
3082.46878	4718.8
3084.84769	4718.5
3087.22515	4706.1
3089.60118	4700.9
3091.97576	4692.7
3094.3489	4696.4
3096.72061	4683.1
3099.09087	4674.6
3101.4597	4664.9
3103.82709	4659.7
3106.19305	4650.3
3108.55757	4638
3110.92066	4621.6
3113.28232	4607
3115.64255	4605.6
3118.00134	4600.9
3120.35871	4589.4
3122.71466	4579.5
3125.06917	4583.5
3127.42226	4568.9
3129.77393	4585.1
3132.12417	4577.8
3134.47299	4575.4
3136.82039	4570.8
3139.16636	4581
3141.51092	4554.9
3143.85406	4562.1
3146.19579	4566.5
3148.53609	4578
3150.87499	4582.3
3153.21246	4581.9
3155.54853	4578.8
3157.88318	4565.2
3160.21642	4577.4
3162.54826	4562
3164.87868	4560.6
3167.2077	4564.9
3169.5353	4566.4
3171.86151	4553.6
3174.18631	4555
3176.5097	4556.3
3178.83169	4532.5
3181.15228	4541.9
3183.47147	4543.5
3185.78926	4535.5
3188.10565	4543.8
3190.42065	4551.8
3192.73424	4551.7
3195.04645	4560.1
3197.35725	4565.1
3199.66667	4550.1
3201.97469	4550.2
3204.28132	4541.9
3206.58656	4577.4
3208.8904	4554.9
3211.19287	4550.5
3213.49394	4553.8
3215.79363	4553.2
3218.09193	4563.3
3220.38884	4551.6
3222.68438	4537.7
3224.97853	4555.9
3227.2713	4547.8
3229.56269	4530.6
3231.8527	4550.1
3234.14133	4513.5
3236.42858	4510.2
3238.71446	4503.6
3240.99896	4488.5
3243.28209	4492.6
3245.56384	4498.3
3247.84423	4506.4
3250.12324	4480.7
3252.40088	4494.6
3254.67715	4473
3256.95205	4455.6
3259.22558	4463.8
3261.49775	4462.7
3263.76855	4431.2
3266.03799	4443.8
3268.30606	4434.1
3270.57277	4416.8
3272.83812	4409.6
3275.10211	4406.8
3277.36474	4401.8
3279.62601	4412.6
3281.88593	4375.2
3284.14448	4394.4
3286.40168	4376
3288.65753	4381
3290.91202	4360
3293.16516	4355.6
3295.41695	4349.9
3297.66738	4310.5
3299.91647	4305.2
3302.16421	4266.5
3304.4106	4254.6
3306.65564	4228.9
3308.89933	4210.6
3311.14169	4184.1
3313.38269	4137
3315.62236	4124.3
3317.86068	4083.3
3320.09766	4045
3322.3333	3998.3
3324.5676	4006.1
3326.80056	3940.7
3329.03219	3905
3331.26248	0.2
3333.49143	1
3335.71905	-0.7
