Data from AgNPs_FTO_APTES_UA_10uM_R6G_10uM_NaF_0.1M_Addition_RamanShift__32__13-47-17-338.txt Node

Date: Fri Dec 17 13:47:17 GMT 2021
User: TCL
Spectrometer: QEP01345
Trigger mode: 4
Integration Time (sec): 7.000000E0
Scans to average: 10
Electric dark correction enabled: true
Nonlinearity correction enabled: false
Boxcar width: 0
XAxis mode: Raman Shifts
Number of Pixels in Spectrum: 1044
>>>>>Begin Spectral Data<<<<<
46.04893	0.2
50.45542	0.4
54.85868	-1.4
59.25871	-0.1
63.6555	46.8
68.04907	46.8
72.43941	49.6
76.82654	55.8
81.21044	55.6
85.59113	59.8
89.96862	61.5
94.34289	64.1
98.71396	70
103.08183	68.4
107.4465	71.1
111.80798	73.3
116.16626	73.1
120.52136	69.7
124.87327	73.4
129.222	79
133.56755	77.6
137.90993	81.6
142.24913	88.6
146.58517	91.9
150.91804	99.5
155.24774	116.5
159.57429	137.7
163.89768	171.3
168.21792	213.2
172.53501	280.6
176.84895	381.5
181.15975	521.1
185.46741	725.3
189.77193	987.1
194.07331	1316.5
198.37157	1699.7
202.6667	2088.6
206.9587	2488.1
211.24758	2870.6
215.53334	3273.3
219.81599	3747.1
224.09553	4273.4
228.37195	4866.5
232.64527	5493.7
236.91549	6138
241.18261	6716.3
245.44663	7160.4
249.70755	7530.8
253.96539	7819.4
258.22014	8087.5
262.4718	8360.2
266.72039	8575.7
270.96589	8715.5
275.20832	8713
279.44768	8584.4
283.68397	8421.9
287.91719	8300.4
292.14735	8340.7
296.37445	8522.5
300.59849	8886.5
304.81948	9330
309.03742	9643.6
313.25231	9614.8
317.46415	9136.2
321.67296	8409.4
325.87872	7806.3
330.08145	7541.4
334.28114	7519.3
338.47781	7664.4
342.67145	7920.3
346.86207	8288.3
351.04966	8843
355.23424	9484.4
359.4158	9975.9
363.59435	10259
367.76989	10404.6
371.94243	10394.9
376.11196	10372.9
380.27849	10358.3
384.44203	10237.3
388.60257	10091.6
392.76012	9993.2
396.91468	10038.3
401.06626	10290.4
405.21485	10510.6
409.36047	10289.1
413.50311	9697.1
417.64277	9139.1
421.77947	8835.2
425.9132	8696.2
430.04396	8669.2
434.17176	8701.8
438.2966	8835.4
442.41849	9069.8
446.53742	9306.8
450.6534	9540.9
454.76644	9703.8
458.87653	9733.6
462.98368	9666.1
467.08789	9495.3
471.18916	9318.5
475.2875	9079.2
479.38291	8921.9
483.4754	8843.4
487.56496	8751
491.6516	8701.5
495.73531	8688.5
499.81612	8714.8
503.89401	8822.9
507.96899	8974.4
512.04106	9162.8
516.11023	9410.8
520.1765	9558.2
524.23987	9547.8
528.30034	9335.9
532.35792	9121.4
536.41261	8898.6
540.46441	8671.8
544.51333	8569.7
548.55936	8618.6
552.60252	8762
556.64279	8965.1
560.6802	9084.7
564.71473	9201
568.7464	9544.5
572.7752	9739.7
576.80114	9482.5
580.82422	9146.9
584.84444	8992.4
588.86181	8986.9
592.87633	9004
596.888	9130.4
600.89682	9469.1
604.9028	10666
608.90594	13750.6
612.90624	17852.4
616.90371	17443.1
620.89834	12275.9
624.89015	9724.7
628.87913	9261.6
632.86528	9298
636.84862	9478.4
640.82913	9450.8
644.80683	9078.2
648.78172	8804.2
652.75379	8871.5
656.72306	9249.7
660.68952	9692.8
664.65319	9576.4
668.61405	9057
672.57211	8838
676.52738	8829.3
680.47986	8836.2
684.42955	8796
688.37646	8775.1
692.32058	8828.8
696.26192	8889.5
700.20048	9014.3
704.13626	9103.9
708.06928	9088.9
711.99952	9024.1
715.927	8985.9
719.85171	9022.9
723.77365	9031.3
727.69284	8984.3
731.60928	8926.7
735.52295	8930.3
739.43388	8968.8
743.34206	9012.3
747.24749	9034.8
751.15017	9114.2
755.05012	9281.2
758.94733	9645
762.8418	10573.1
766.73354	12168.9
770.62254	14001.8
774.50882	15140
778.39237	14743.2
782.27321	12867.1
786.15132	10991.1
790.02671	9903.7
793.89938	9468.6
797.76935	9276.2
801.6366	9207.1
805.50115	9162.2
809.36299	9152.9
813.22213	9152.7
817.07857	9132.6
820.93231	9105.2
824.78336	9139.3
828.63172	9178.3
832.47738	9182.8
836.32036	9144.8
840.16066	9095.9
843.99827	9096.4
847.8332	9061.2
851.66546	9083.9
855.49504	9061.3
859.32195	9078.3
863.1462	9047.7
866.96777	9053.5
870.78668	9039.2
874.60293	9086.2
878.41652	9124.8
882.22745	9180.2
886.03573	9263.2
889.84136	9237.7
893.64433	9179.4
897.44466	9164.8
901.24235	9166
905.0374	9120.5
908.8298	9097.7
912.61957	9074
916.40671	9068.5
920.19121	9116.9
923.97308	9182.8
927.75233	9282.8
931.52895	9385.1
935.30295	9327.8
939.07433	9136
942.84309	8944.7
946.60924	8825.5
950.37278	8763.5
954.13371	8717.7
957.89203	8691.5
961.64774	8668.2
965.40086	8656.2
969.15137	8628.1
972.89929	8624.7
976.64461	8608.3
980.38733	8637
984.12747	8621.4
987.86502	8672.3
991.59999	8703.5
995.33237	8793.2
999.06217	8924.7
1002.78939	9075.1
1006.51404	9226.4
1010.23611	9426.8
1013.95561	9546.4
1017.67255	9543.8
1021.38692	9462.5
1025.09872	9321.5
1028.80796	9254.3
1032.51465	9241
1036.21877	9319.3
1039.92035	9418.1
1043.61937	9469.2
1047.31584	9455.3
1051.00976	9405.8
1054.70114	9370.5
1058.38998	9343.4
1062.07627	9395
1065.76003	9435.5
1069.44126	9467
1073.11995	9564.6
1076.79611	9673.6
1080.46974	9778.5
1084.14085	10008.2
1087.80943	10252.2
1091.47549	10316.5
1095.13903	10158.6
1098.80005	9833.4
1102.45857	9594
1106.11456	9541
1109.76805	9620.1
1113.41903	9804.5
1117.06751	10115.4
1120.71348	10475.8
1124.35696	10878.7
1127.99793	11241.8
1131.63641	11236.6
1135.2724	10807.8
1138.90589	10359.6
1142.5369	10060.1
1146.16542	9826.1
1149.79145	9692.9
1153.415	9645.2
1157.03607	9722.5
1160.65467	9884.5
1164.27079	10118.7
1167.88443	10510.2
1171.49561	11199.2
1175.10432	12391.3
1178.71056	14026.1
1182.31434	15341.3
1185.91565	15696.4
1189.51451	15253.3
1193.11091	14259.1
1196.70485	13134
1200.29634	12359.8
1203.88538	11838.5
1207.47197	11230.6
1211.05612	10717.3
1214.63782	10407.4
1218.21708	10291.5
1221.79391	10268.7
1225.36829	10322.1
1228.94024	10445.9
1232.50976	10556.6
1236.07685	10650.5
1239.6415	10722.7
1243.20374	10704.8
1246.76355	10741.7
1250.32093	10811.2
1253.8759	10963.8
1257.42845	11191
1260.97859	11450.1
1264.52631	11685.1
1268.07163	11991.2
1271.61453	12285.5
1275.15503	12464.9
1278.69312	12551
1282.22882	12550.4
1285.76211	12730.1
1289.29301	13053.4
1292.82151	13386.7
1296.34761	13708.7
1299.87133	14183.8
1303.39266	15121.5
1306.9116	16666.3
1310.42815	18444.9
1313.94233	19456.7
1317.45412	19021.7
1320.96354	17772.1
1324.47058	16367.8
1327.97525	15138.8
1331.47754	14404.4
1334.97747	14202.7
1338.47502	14317.7
1341.97022	14650.7
1345.46305	15287.7
1348.95352	16234.2
1352.44163	17566.4
1355.92738	19338.3
1359.41078	22016.2
1362.89183	24554.5
1366.37053	24117.9
1369.84688	20666.4
1373.32088	17089.8
1376.79254	14757.9
1380.26186	13587.2
1383.72883	12993.8
1387.19347	12532.2
1390.65578	12025.6
1394.11575	11594.7
1397.57339	11336.4
1401.0287	11271
1404.48168	11396.8
1407.93234	11563.3
1411.38068	11759.3
1414.82669	11860.9
1418.27039	11823.9
1421.71177	11711.7
1425.15083	11607.2
1428.58758	11531.2
1432.02203	11552.6
1435.45416	11634.3
1438.88399	11701.6
1442.31151	11702.3
1445.73673	11731.7
1449.15965	11766.1
1452.58027	11735.7
1455.9986	11631.2
1459.41463	11538.4
1462.82837	11635.2
1466.23982	11762.6
1469.64898	11971.9
1473.05586	12140.7
1476.46045	12237.1
1479.86276	12400.7
1483.26279	12708.3
1486.66054	13048.4
1490.05602	13516.1
1493.44922	14141.9
1496.84016	15162.7
1500.22882	16644.4
1503.61521	18623.4
1506.99934	20799.7
1510.38121	22761.3
1513.76081	23434.2
1517.13816	22225.6
1520.51324	19506.8
1523.88607	16804.7
1527.25665	14985.8
1530.62498	13942.8
1533.99105	13352.4
1537.35488	12998.7
1540.71647	12792.2
1544.07581	12741.2
1547.4329	12778.8
1550.78776	12811.3
1554.14038	12792.5
1557.49077	12882.2
1560.83892	13040.2
1564.18484	13351
1567.52853	13686.6
1570.86999	14080.3
1574.20922	14380.8
1577.54624	14354.2
1580.88103	13784.4
1584.2136	12898.3
1587.54395	12337.7
1590.87208	12349.5
1594.19801	12808.7
1597.52172	13550.5
1600.84321	13919
1604.16251	13634.5
1607.47959	12980.8
1610.79447	12296.1
1614.10715	11590.6
1617.41763	11004
1620.7259	10635.3
1624.03199	10481.9
1627.33587	10474.9
1630.63757	10624.1
1633.93707	10985
1637.23439	11535.2
1640.52951	12356.6
1643.82246	13419
1647.11321	14771.5
1650.40179	15945
1653.68819	15767.6
1656.97241	14177.9
1660.25446	12265.7
1663.53433	10897.4
1666.81203	10076
1670.08756	9624.2
1673.36092	9318.5
1676.63211	9149.3
1679.90115	9001.2
1683.16801	8888.4
1686.43272	8823.6
1689.69527	8771.9
1692.95567	8748.8
1696.2139	8752.6
1699.46999	8724
1702.72392	8736.6
1705.97571	8709.7
1709.22535	8679.5
1712.47284	8673.7
1715.71819	8697.7
1718.96139	8677.7
1722.20246	8664.6
1725.44139	8629
1728.67818	8594.9
1731.91284	8512
1735.14537	8459
1738.37576	8435.8
1741.60403	8418.4
1744.83017	8384.9
1748.05418	8350.3
1751.27607	8350.1
1754.49584	8344.3
1757.71349	8346.3
1760.92903	8327.4
1764.14244	8324.5
1767.35375	8320.8
1770.56294	8301.5
1773.77002	8292.7
1776.97499	8256.9
1780.17785	8222.9
1783.37861	8240.3
1786.57727	8231
1789.77382	8193.7
1792.96828	8197.6
1796.16064	8177.8
1799.3509	8160.9
1802.53907	8178.4
1805.72514	8134.7
1808.90913	8122.4
1812.09102	8109.3
1815.27083	8063.8
1818.44856	8071
1821.6242	8057.4
1824.79776	8037.8
1827.96924	8027.9
1831.13864	8032.2
1834.30597	8047.4
1837.47122	8052.3
1840.6344	8021.1
1843.7955	8008.4
1846.95454	8032
1850.11151	8002.9
1853.26642	8002.5
1856.41926	8008.4
1859.57004	8010.3
1862.71876	7999.9
1865.86542	7996.7
1869.01003	7991.5
1872.15258	8006.1
1875.29308	7997.7
1878.43152	8004.8
1881.56792	8012
1884.70227	8015.7
1887.83457	8010.2
1890.96482	8035.9
1894.09304	8000.4
1897.21921	7998
1900.34335	7995.6
1903.46544	7992.3
1906.58551	8008.3
1909.70353	7991.5
1912.81953	7988.4
1915.93349	7988.7
1919.04543	7974.5
1922.15534	7964.1
1925.26322	7970.5
1928.36908	7933.5
1931.47292	7901.2
1934.57473	7879.3
1937.67453	7846.6
1940.77232	7825.3
1943.86808	7802.8
1946.96184	7765.9
1950.05358	7750.7
1953.14331	7723.6
1956.23103	7687.6
1959.31675	7649.3
1962.40046	7635.3
1965.48217	7623.9
1968.56188	7600.2
1971.63959	7587.3
1974.7153	7555.9
1977.78901	7513.5
1980.86073	7514.5
1983.93046	7499.5
1986.99819	7443.9
1990.06394	7446.4
1993.1277	7425.6
1996.18947	7378.2
1999.24925	7382.7
2002.30706	7347
2005.36288	7327.6
2008.41672	7316.7
2011.46859	7281.6
2014.51848	7275.1
2017.56639	7242.7
2020.61233	7226
2023.6563	7225.9
2026.6983	7200.9
2029.73833	7184.7
2032.7764	7150
2035.8125	7148.3
2038.84664	7148.3
2041.87881	7124.5
2044.90903	7103.1
2047.93729	7098
2050.96359	7096.4
2053.98794	7069.3
2057.01034	7080.7
2060.03078	7046.7
2063.04927	7038.9
2066.06582	7051
2069.08042	7032.2
2072.09307	7041.2
2075.10378	7021.5
2078.11255	7011.7
2081.11938	7029.4
2084.12426	7016.6
2087.12722	7015.7
2090.12824	7008.1
2093.12732	7024.8
2096.12447	7018.3
2099.11969	7011.8
2102.11299	7016.4
2105.10435	7012.3
2108.09379	7018.9
2111.08131	7026.2
2114.0669	7021.2
2117.05057	7054.7
2120.03233	7019.6
2123.01216	7046.4
2125.99008	7050.5
2128.96609	7059.8
2131.94018	7057.5
2134.91236	7072.6
2137.88263	7056.7
2140.851	7068.1
2143.81746	7072.9
2146.78201	7066.8
2149.74466	7079.4
2152.7054	7059.4
2155.66425	7064.6
2158.6212	7040.2
2161.57625	7052.2
2164.52941	7036.4
2167.48067	7038.8
2170.43004	7060.3
2173.37752	7032.3
2176.32311	7049.4
2179.26681	7040.1
2182.20863	7056
2185.14856	7037.3
2188.08661	7035.7
2191.02278	7040.3
2193.95707	7045.7
2196.88948	7009.7
2199.82001	7007.4
2202.74867	6985.1
2205.67545	6994.8
2208.60037	6992.2
2211.52341	6973.4
2214.44458	6961.6
2217.36388	6937.1
2220.28132	6935.9
2223.1969	6926.4
2226.11061	6913.4
2229.02246	6886.6
2231.93245	6883.2
2234.84058	6860.2
2237.74686	6832.8
2240.65128	6857
2243.55385	6828.5
2246.45456	6813.6
2249.35343	6824
2252.25044	6820.6
2255.14561	6796.2
2258.03893	6813.6
2260.93041	6788.3
2263.82004	6784.2
2266.70783	6773.8
2269.59378	6756.7
2272.4779	6745.9
2275.36017	6741.1
2278.24061	6705
2281.11922	6697.9
2283.996	6681.2
2286.87094	6662.4
2289.74405	6658.2
2292.61534	6625
2295.4848	6606.5
2298.35243	6614.5
2301.21824	6624.2
2304.08223	6611.3
2306.94439	6595.4
2309.80474	6593.1
2312.66327	6591.3
2315.51999	6590.8
2318.37489	6580.1
2321.22797	6565.3
2324.07925	6549.8
2326.92871	6546.3
2329.77637	6538.5
2332.62222	6533.2
2335.46626	6488.3
2338.3085	6501
2341.14893	6511.8
2343.98756	6498.9
2346.8244	6507.5
2349.65943	6495.4
2352.49267	6508.6
2355.32411	6498.4
2358.15376	6497.3
2360.98161	6495.3
2363.80768	6493.3
2366.63195	6503.5
2369.45444	6492.2
2372.27514	6484.9
2375.09405	6495.8
2377.91118	6469.8
2380.72652	6445.1
2383.54009	6426.3
2386.35187	6416.1
2389.16188	6391.3
2391.97011	6361.4
2394.77657	6351.1
2397.58125	6322.3
2400.38416	6304.1
2403.18529	6277.3
2405.98466	6279
2408.78226	6255.2
2411.57809	6260.8
2414.37216	6254.7
2417.16446	6264.2
2419.955	6223.4
2422.74378	6228.7
2425.5308	6226.8
2428.31606	6206.1
2431.09956	6214.1
2433.88131	6213.8
2436.6613	6185.7
2439.43954	6213
2442.21603	6202.9
2444.99077	6187.1
2447.76377	6190.5
2450.53501	6201.2
2453.30451	6192.8
2456.07226	6175.9
2458.83827	6170
2461.60254	6162
2464.36507	6156.2
2467.12586	6155.3
2469.88492	6135.9
2472.64224	6160.8
2475.39782	6151.3
2478.15167	6140.8
2480.90379	6146.6
2483.65417	6153
2486.40283	6142.8
2489.14976	6159
2491.89497	6140.2
2494.63845	6176.5
2497.3802	6158.1
2500.12024	6122.9
2502.85855	6142.9
2505.59514	6115
2508.33002	6097.4
2511.06318	6079.4
2513.79462	6060.3
2516.52435	6042.2
2519.25237	6027.3
2521.97867	6006.3
2524.70327	5990.3
2527.42616	5988.7
2530.14734	5986.5
2532.86681	5962.7
2535.58458	5959.8
2538.30065	5953.9
2541.01501	5964.6
2543.72768	5941.5
2546.43864	5934.3
2549.14791	5927
2551.85548	5946
2554.56136	5909.7
2557.26554	5888.7
2559.96803	5884.8
2562.66883	5885.2
2565.36794	5865.5
2568.06536	5875.4
2570.7611	5864.3
2573.45514	5865.3
2576.14751	5838.2
2578.83819	5825.5
2581.52719	5813.9
2584.21451	5776.6
2586.90015	5800.5
2589.58411	5778.9
2592.2664	5794.1
2594.94701	5767.4
2597.62594	5756.7
2600.30321	5766.7
2602.9788	5748.1
2605.65273	5737.3
2608.32498	5722
2610.99557	5720.3
2613.66449	5716.6
2616.33175	5697.3
2618.99734	5690.1
2621.66128	5697.8
2624.32355	5670
2626.98416	5672.9
2629.64311	5664.1
2632.30041	5656.4
2634.95605	5645.1
2637.61004	5640.4
2640.26238	5631
2642.91306	5624.1
2645.56209	5607.4
2648.20948	5612.2
2650.85521	5615.1
2653.4993	5596
2656.14175	5582.5
2658.78255	5598.8
2661.42171	5594.4
2664.05923	5604.5
2666.6951	5619.1
2669.32934	5607
2671.96194	5617.5
2674.59291	5613
2677.22224	5605
2679.84993	5627.4
2682.476	5614.7
2685.10043	5619.3
2687.72324	5609.4
2690.34441	5607.1
2692.96396	5603.1
2695.58188	5620.8
2698.19818	5589.6
2700.81285	5598.9
2703.4259	5613
2706.03733	5635.2
2708.64714	5610
2711.25533	5625
2713.86191	5613.6
2716.46687	5629.7
2719.07021	5618.2
2721.67194	5614.3
2724.27206	5609.2
2726.87057	5597.1
2729.46747	5609.2
2732.06276	5598.5
2734.65644	5589.4
2737.24852	5604
2739.83899	5591.8
2742.42786	5587.3
2745.01513	5562.3
2747.60079	5558.3
2750.18486	5542.2
2752.76733	5531.5
2755.3482	5550.4
2757.92747	5540.3
2760.50515	5518.9
2763.08123	5521.5
2765.65573	5501.7
2768.22863	5497.6
2770.79994	5491.7
2773.36967	5484.2
2775.9378	5483.9
2778.50435	5498.3
2781.06932	5461.1
2783.6327	5450.3
2786.1945	5466.2
2788.75471	5463.6
2791.31335	5435
2793.87041	5425.6
2796.42589	5440.7
2798.97979	5424.4
2801.53212	5419
2804.08288	5421.1
2806.63206	5397.7
2809.17967	5409.9
2811.72571	5386.3
2814.27018	5404
2816.81308	5394.5
2819.35442	5400.6
2821.89419	5407.7
2824.43239	5399
2826.96904	5405.2
2829.50412	5415.4
2832.03763	5387.5
2834.56959	5400.3
2837.1	5411.7
2839.62884	5429.8
2842.15613	5435.2
2844.68186	5473.1
2847.20604	5519.8
2849.72867	5574.5
2852.24974	5570.1
2854.76927	5576.7
2857.28724	5561.6
2859.80367	5536.2
2862.31855	5552.3
2864.83189	5522.5
2867.34368	5522.2
2869.85393	5524.8
2872.36264	5503.1
2874.8698	5505.1
2877.37543	5511
2879.87952	5488.9
2882.38207	5492.6
2884.88308	5489.8
2887.38256	5495.1
2889.88051	5494
2892.37692	5484.4
2894.8718	5483.3
2897.36515	5475.8
2899.85698	5492.4
2902.34727	5509.1
2904.83604	5513.3
2907.32328	5516.8
2909.809	5508.1
2912.29319	5497.1
2914.77587	5493.1
2917.25702	5485.4
2919.73665	5467.7
2922.21476	5464
2924.69136	5462.4
2927.16644	5461.5
2929.64	5422.9
2932.11205	5415.4
2934.58258	5403.5
2937.05161	5396.5
2939.51912	5372.8
2941.98513	5339.1
2944.44962	5315.4
2946.91261	5279.6
2949.37409	5270.9
2951.83407	5244.1
2954.29254	5227.6
2956.74951	5211.1
2959.20498	5194.1
2961.65895	5168.6
2964.11142	5185.3
2966.56239	5148.4
2969.01186	5148
2971.45984	5119.6
2973.90632	5125.2
2976.35131	5100.3
2978.7948	5080.5
2981.23681	5053.2
2983.67732	5045
2986.11635	5041.9
2988.55388	5004.1
2990.98993	4995.9
2993.4245	4992.1
2995.85758	4972.4
2998.28917	4967.5
3000.71928	4942.3
3003.14791	4940.5
3005.57506	4946.7
3008.00073	4917.8
3010.42493	4926.7
3012.84764	4910.1
3015.26888	4909
3017.68865	4905.4
3020.10694	4896.5
3022.52376	4886.1
3024.9391	4890.8
3027.35298	4866.8
3029.76539	4860.7
3032.17632	4832.8
3034.5858	4836.2
3036.9938	4835.5
3039.40034	4817.6
3041.80542	4830.7
3044.20903	4823.3
3046.61118	4804.7
3049.01187	4799
3051.4111	4783.1
3053.80888	4777.6
3056.20519	4777.2
3058.60005	4770.8
3060.99345	4773.3
3063.3854	4760
3065.7759	4741.3
3068.16494	4749.6
3070.55254	4726.4
3072.93868	4723.1
3075.32338	4700.2
3077.70662	4687.1
3080.08842	4678.4
3082.46878	4666.9
3084.84769	4674.6
3087.22515	4663.8
3089.60118	4657.9
3091.97576	4660.1
3094.3489	4653.6
3096.72061	4651.5
3099.09087	4637.9
3101.4597	4623.4
3103.82709	4641.7
3106.19305	4629.7
3108.55757	4624.3
3110.92066	4610.5
3113.28232	4599.8
3115.64255	4592.3
3118.00134	4595.3
3120.35871	4577.1
3122.71466	4570.6
3125.06917	4570.3
3127.42226	4566.9
3129.77393	4564.2
3132.12417	4558.3
3134.47299	4566
3136.82039	4579.7
3139.16636	4568.2
3141.51092	4575.6
3143.85406	4580.1
3146.19579	4571.6
3148.53609	4603.1
3150.87499	4584.6
3153.21246	4602.2
3155.54853	4614.2
3157.88318	4593.5
3160.21642	4606.1
3162.54826	4603
3164.87868	4611.1
3167.2077	4600.2
3169.5353	4600.4
3171.86151	4596.3
3174.18631	4597.7
3176.5097	4587.8
3178.83169	4599.2
3181.15228	4586.2
3183.47147	4574.7
3185.78926	4585.7
3188.10565	4580.2
3190.42065	4580.8
3192.73424	4585.8
3195.04645	4583.8
3197.35725	4590.8
3199.66667	4595.3
3201.97469	4611.3
3204.28132	4608.1
3206.58656	4615.8
3208.8904	4617
3211.19287	4603.1
3213.49394	4614.4
3215.79363	4610.8
3218.09193	4622.8
3220.38884	4615.7
3222.68438	4616.7
3224.97853	4625.1
3227.2713	4600.1
3229.56269	4619
3231.8527	4595.7
3234.14133	4595.6
3236.42858	4580.3
3238.71446	4573.8
3240.99896	4565.1
3243.28209	4573.8
3245.56384	4557.9
3247.84423	4564
3250.12324	4566.1
3252.40088	4551.9
3254.67715	4566.4
3256.95205	4548.3
3259.22558	4526.6
3261.49775	4538.5
3263.76855	4518.9
3266.03799	4523.5
3268.30606	4512.5
3270.57277	4499.8
3272.83812	4495
3275.10211	4490.3
3277.36474	4482.6
3279.62601	4477.8
3281.88593	4484.6
3284.14448	4464.8
3286.40168	4480.9
3288.65753	4450.9
3290.91202	4461.6
3293.16516	4443.6
3295.41695	4430.2
3297.66738	4400.7
3299.91647	4384.6
3302.16421	4355.2
3304.4106	4337
3306.65564	4310.7
3308.89933	4300.6
3311.14169	4274.4
3313.38269	4231.9
3315.62236	4214.5
3317.86068	4184.1
3320.09766	4133.1
3322.3333	4094.2
3324.5676	4096.3
3326.80056	4025.8
3329.03219	4023.2
3331.26248	1.2
3333.49143	0.4
3335.71905	0.1
