Data from AgNPs_FTO_APTES_UA_1uM_R6G_10uM_NaF_0.1M_Addition_RamanShift__29__11-37-47-190.txt Node

Date: Fri Dec 17 11:37:47 GMT 2021
User: TCL
Spectrometer: QEP01345
Trigger mode: 4
Integration Time (sec): 7.000000E0
Scans to average: 10
Electric dark correction enabled: true
Nonlinearity correction enabled: false
Boxcar width: 0
XAxis mode: Raman Shifts
Number of Pixels in Spectrum: 1044
>>>>>Begin Spectral Data<<<<<
46.04893	-0.8
50.45542	-0.3
54.85868	-1.4
59.25871	1.6
63.6555	72.3
68.04907	79.8
72.43941	81.2
76.82654	88
81.21044	90.1
85.59113	97
89.96862	101.9
94.34289	103.6
98.71396	105.8
103.08183	110.3
107.4465	111.6
111.80798	110
116.16626	118.5
120.52136	117.3
124.87327	119.7
129.222	123.8
133.56755	124.7
137.90993	131.4
142.24913	134.1
146.58517	144.3
150.91804	156.7
155.24774	182.8
159.57429	209.7
163.89768	257.6
168.21792	330.5
172.53501	422.6
176.84895	577.2
181.15975	786.1
185.46741	1087.3
189.77193	1486.1
194.07331	1979.4
198.37157	2529.4
202.6667	3121.4
206.9587	3706.8
211.24758	4282.4
215.53334	4871.1
219.81599	5505.7
224.09553	6209.2
228.37195	6985
232.64527	7836.5
236.91549	8717.1
241.18261	9567.8
245.44663	10325.5
249.70755	10998.4
253.96539	11578.4
258.22014	12079.4
262.4718	12509.7
266.72039	12838.4
270.96589	13020.1
275.20832	13023.6
279.44768	12938
283.68397	12804.8
287.91719	12664.5
292.14735	12617.5
296.37445	12653.9
300.59849	12828.4
304.81948	13114.2
309.03742	13330.3
313.25231	13271.2
317.46415	12882.2
321.67296	12278.3
325.87872	11816.5
330.08145	11582.9
334.28114	11607.9
338.47781	11791.8
342.67145	11995.6
346.86207	12402.7
351.04966	12920.2
355.23424	13526.5
359.4158	14004.4
363.59435	14287.1
367.76989	14433.6
371.94243	14475.5
376.11196	14458.2
380.27849	14460.2
384.44203	14418.9
388.60257	14396
392.76012	14421.8
396.91468	14590.2
401.06626	14912.8
405.21485	15152.9
409.36047	15132.6
413.50311	14715.1
417.64277	14416.9
421.77947	14179.7
425.9132	14154.3
430.04396	14182.7
434.17176	14270.4
438.2966	14476.4
442.41849	14821.1
446.53742	15215.4
450.6534	15638.5
454.76644	15948.1
458.87653	16055.4
462.98368	16004.6
467.08789	15805.3
471.18916	15439.2
475.2875	15140.5
479.38291	14880.9
483.4754	14723.8
487.56496	14606.3
491.6516	14470.8
495.73531	14377.2
499.81612	14368.8
503.89401	14441.6
507.96899	14532.2
512.04106	14643.8
516.11023	14792.5
520.1765	14868.5
524.23987	14877
528.30034	14709.7
532.35792	14565.7
536.41261	14349.6
540.46441	14157.3
544.51333	14108.6
548.55936	14131
552.60252	14338.7
556.64279	14556.8
560.6802	14683.3
564.71473	14791.2
568.7464	15158.4
572.7752	15437.9
576.80114	15335.5
580.82422	15240.3
584.84444	15247.3
588.86181	15292.3
592.87633	15415.7
596.888	15625.6
600.89682	16053.1
604.9028	17202.5
608.90594	19821.7
612.90624	22951.7
616.90371	22093.3
620.89834	17684.3
624.89015	15595.4
628.87913	15155.2
632.86528	15150.8
636.84862	15212.4
640.82913	15023.3
644.80683	14655.4
648.78172	14439.3
652.75379	14501.7
656.72306	14898.7
660.68952	15363.5
664.65319	15268.7
668.61405	14882.1
672.57211	14685.3
676.52738	14679.7
680.47986	14665.6
684.42955	14647.7
688.37646	14652.1
692.32058	14731.4
696.26192	14843.2
700.20048	15001.6
704.13626	15128.7
708.06928	15130.1
711.99952	14988.5
715.927	14939.2
719.85171	14936.1
723.77365	14884.1
727.69284	14772.3
731.60928	14717.5
735.52295	14678.6
739.43388	14791
743.34206	14903.8
747.24749	15003
751.15017	15115.6
755.05012	15320.4
758.94733	15795.4
762.8418	16652.3
766.73354	18131.7
770.62254	19682.8
774.50882	20362.6
778.39237	19757.8
782.27321	18138.6
786.15132	16592.6
790.02671	15657.3
793.89938	15250.1
797.76935	15097.6
801.6366	14999.4
805.50115	14965.7
809.36299	14905.1
813.22213	14862.7
817.07857	14847.6
820.93231	14868.6
824.78336	14901.4
828.63172	14968.6
832.47738	15000.3
836.32036	15056
840.16066	15040.1
843.99827	15007.5
847.8332	15007.6
851.66546	14947
855.49504	14972.2
859.32195	14967.1
863.1462	14897.6
866.96777	14863.9
870.78668	14893
874.60293	14922.6
878.41652	14982.8
882.22745	15054.7
886.03573	15067.1
889.84136	15070.4
893.64433	15009.1
897.44466	15002.2
901.24235	14977.6
905.0374	15001
908.8298	14985.4
912.61957	14993
916.40671	15069.6
920.19121	15178
923.97308	15349.8
927.75233	15461.5
931.52895	15506.7
935.30295	15418.7
939.07433	15158.1
942.84309	14973.2
946.60924	14870.8
950.37278	14801.9
954.13371	14697.7
957.89203	14657.1
961.64774	14641.5
965.40086	14568.3
969.15137	14514.1
972.89929	14518.2
976.64461	14497.5
980.38733	14529.5
984.12747	14584.6
987.86502	14648.7
991.59999	14771.4
995.33237	14930.7
999.06217	15226.9
1002.78939	15635.5
1006.51404	16004.2
1010.23611	16278.9
1013.95561	16427.8
1017.67255	16429.2
1021.38692	16246.6
1025.09872	16083.5
1028.80796	16048.3
1032.51465	16214.6
1036.21877	16468.7
1039.92035	16562.7
1043.61937	16502.8
1047.31584	16278.4
1051.00976	15985.1
1054.70114	15879.1
1058.38998	15816.1
1062.07627	15797.6
1065.76003	15919.3
1069.44126	16017.3
1073.11995	16177.3
1076.79611	16295.7
1080.46974	16362.3
1084.14085	16529.9
1087.80943	16684.9
1091.47549	16763.1
1095.13903	16552.7
1098.80005	16204.4
1102.45857	15916.3
1106.11456	15753.6
1109.76805	15765.4
1113.41903	15908.7
1117.06751	16121.6
1120.71348	16461.8
1124.35696	16809.5
1127.99793	17098.3
1131.63641	17083.7
1135.2724	16766
1138.90589	16398
1142.5369	16192.8
1146.16542	16020.2
1149.79145	15928.9
1153.415	15937.2
1157.03607	16056
1160.65467	16300.3
1164.27079	16683.1
1167.88443	17181
1171.49561	17984.9
1175.10432	19298.6
1178.71056	21041.5
1182.31434	22612.7
1185.91565	23312.4
1189.51451	23272.5
1193.11091	22408
1196.70485	21222.5
1200.29634	20189.4
1203.88538	19344.6
1207.47197	18526.6
1211.05612	17999.2
1214.63782	17710.2
1218.21708	17690.1
1221.79391	17765.7
1225.36829	17929.8
1228.94024	18140.3
1232.50976	18299.8
1236.07685	18398.5
1239.6415	18387.9
1243.20374	18363.1
1246.76355	18335.7
1250.32093	18448.2
1253.8759	18716.8
1257.42845	19122.2
1260.97859	19549.1
1264.52631	19877.3
1268.07163	20235.3
1271.61453	20591.9
1275.15503	20915.4
1278.69312	21238.8
1282.22882	21527.3
1285.76211	21877.8
1289.29301	22328.3
1292.82151	22759.6
1296.34761	23199.4
1299.87133	23751.8
1303.39266	24725.1
1306.9116	26300.9
1310.42815	28191.6
1313.94233	29510.3
1317.45412	29594
1320.96354	28786
1324.47058	27699.7
1327.97525	26673.8
1331.47754	26097.3
1334.97747	25955.2
1338.47502	26139.8
1341.97022	26466.6
1345.46305	26684.1
1348.95352	27081.1
1352.44163	27676.7
1355.92738	28814.3
1359.41078	30827.5
1362.89183	32832.5
1366.37053	32338.4
1369.84688	29250.9
1373.32088	25969.2
1376.79254	23734.8
1380.26186	22651.5
1383.72883	22023.6
1387.19347	21540
1390.65578	21001.1
1394.11575	20647.4
1397.57339	20520.4
1401.0287	20768.2
1404.48168	21162.7
1407.93234	21654.9
1411.38068	22069.5
1414.82669	22158.5
1418.27039	21774.8
1421.71177	21285.8
1425.15083	20949.6
1428.58758	20701.5
1432.02203	20691
1435.45416	20750.2
1438.88399	20809.3
1442.31151	20867.2
1445.73673	20904.8
1449.15965	20984
1452.58027	20916.8
1455.9986	20767.8
1459.41463	20709
1462.82837	20774.8
1466.23982	20996
1469.64898	21283
1473.05586	21523.6
1476.46045	21655.6
1479.86276	21875.4
1483.26279	22196.3
1486.66054	22572.5
1490.05602	23054.2
1493.44922	23647.5
1496.84016	24347.1
1500.22882	25218.5
1503.61521	26423.5
1506.99934	27820.4
1510.38121	29182.9
1513.76081	29820.6
1517.13816	29047.6
1520.51324	27146.7
1523.88607	25072.9
1527.25665	23624.3
1530.62498	22744.1
1533.99105	22207.6
1537.35488	21852.6
1540.71647	21685
1544.07581	21567.1
1547.4329	21477.2
1550.78776	21358.7
1554.14038	21250.8
1557.49077	21263.9
1560.83892	21411.9
1564.18484	21576.6
1567.52853	21735.1
1570.86999	21839.5
1574.20922	22023.2
1577.54624	21995.3
1580.88103	21663.4
1584.2136	21169.6
1587.54395	21164.2
1590.87208	21726.5
1594.19801	22776
1597.52172	23992.3
1600.84321	24566.8
1604.16251	24056.9
1607.47959	22793.1
1610.79447	21309.5
1614.10715	19891.9
1617.41763	18837.9
1620.7259	18195.8
1624.03199	17956.6
1627.33587	18006.3
1630.63757	18366.9
1633.93707	19102.1
1637.23439	20102.4
1640.52951	21408.1
1643.82246	22673.7
1647.11321	23753.7
1650.40179	24162.7
1653.68819	23323.3
1656.97241	21256.5
1660.25446	19025.5
1663.53433	17409.9
1666.81203	16420.5
1670.08756	15800.4
1673.36092	15411.7
1676.63211	15179.7
1679.90115	14978.3
1683.16801	14848.8
1686.43272	14740.1
1689.69527	14645
1692.95567	14611.2
1696.2139	14600.6
1699.46999	14574.2
1702.72392	14551.5
1705.97571	14529.8
1709.22535	14540.8
1712.47284	14528
1715.71819	14546.4
1718.96139	14534.4
1722.20246	14521.7
1725.44139	14485.7
1728.67818	14423.1
1731.91284	14369
1735.14537	14276.1
1738.37576	14257.9
1741.60403	14240.6
1744.83017	14147.2
1748.05418	14098
1751.27607	14076
1754.49584	14067.5
1757.71349	14070.9
1760.92903	14067.2
1764.14244	14058.1
1767.35375	14047.7
1770.56294	14041
1773.77002	14019.5
1776.97499	14007.5
1780.17785	13997.5
1783.37861	13991.4
1786.57727	14002.2
1789.77382	13938.3
1792.96828	13959
1796.16064	13958.7
1799.3509	13940.3
1802.53907	13914.1
1805.72514	13897.9
1808.90913	13854.7
1812.09102	13834.5
1815.27083	13828.8
1818.44856	13790.9
1821.6242	13809.6
1824.79776	13772.1
1827.96924	13743.1
1831.13864	13732.9
1834.30597	13751.6
1837.47122	13748.7
1840.6344	13760.1
1843.7955	13773.1
1846.95454	13756
1850.11151	13758
1853.26642	13737.9
1856.41926	13769.3
1859.57004	13772.7
1862.71876	13794.8
1865.86542	13788.9
1869.01003	13793.4
1872.15258	13801
1875.29308	13804.5
1878.43152	13827.5
1881.56792	13835.9
1884.70227	13825.8
1887.83457	13851.4
1890.96482	13846.9
1894.09304	13836.8
1897.21921	13850.3
1900.34335	13839.8
1903.46544	13849.9
1906.58551	13860.4
1909.70353	13822.9
1912.81953	13831.6
1915.93349	13797.1
1919.04543	13796.6
1922.15534	13762.1
1925.26322	13717.2
1928.36908	13707.9
1931.47292	13674.7
1934.57473	13607.9
1937.67453	13556.2
1940.77232	13519
1943.86808	13486.6
1946.96184	13404.5
1950.05358	13356.8
1953.14331	13296.5
1956.23103	13238.4
1959.31675	13238
1962.40046	13156.2
1965.48217	13146.5
1968.56188	13129.4
1971.63959	13086.9
1974.7153	13018.4
1977.78901	12985.7
1980.86073	12924
1983.93046	12909.2
1986.99819	12840.9
1990.06394	12827.5
1993.1277	12784.4
1996.18947	12743.7
1999.24925	12730
2002.30706	12690.8
2005.36288	12636.5
2008.41672	12599.6
2011.46859	12575
2014.51848	12530.5
2017.56639	12505.4
2020.61233	12468.7
2023.6563	12456.6
2026.6983	12422.9
2029.73833	12410
2032.7764	12358.7
2035.8125	12342
2038.84664	12318.3
2041.87881	12317.5
2044.90903	12309.7
2047.93729	12254.7
2050.96359	12271
2053.98794	12239.1
2057.01034	12213
2060.03078	12202.1
2063.04927	12174.2
2066.06582	12191.8
2069.08042	12171.9
2072.09307	12175.5
2075.10378	12149.8
2078.11255	12130.3
2081.11938	12150.8
2084.12426	12134.9
2087.12722	12149
2090.12824	12137.3
2093.12732	12149.7
2096.12447	12130
2099.11969	12121
2102.11299	12149.4
2105.10435	12136
2108.09379	12140.9
2111.08131	12132.6
2114.0669	12146.1
2117.05057	12144.3
2120.03233	12163.4
2123.01216	12155.5
2125.99008	12159.2
2128.96609	12196.9
2131.94018	12186.3
2134.91236	12184.5
2137.88263	12206.8
2140.851	12193.1
2143.81746	12224.5
2146.78201	12216.4
2149.74466	12221.3
2152.7054	12196.6
2155.66425	12217.8
2158.6212	12226.4
2161.57625	12228.5
2164.52941	12207.1
2167.48067	12214.2
2170.43004	12208.3
2173.37752	12206.2
2176.32311	12182
2179.26681	12201.5
2182.20863	12179.6
2185.14856	12216.7
2188.08661	12188
2191.02278	12192.8
2193.95707	12184.8
2196.88948	12190
2199.82001	12168.5
2202.74867	12161
2205.67545	12168.1
2208.60037	12152.7
2211.52341	12132.9
2214.44458	12093.7
2217.36388	12092
2220.28132	12047.7
2223.1969	12036.2
2226.11061	12003.4
2229.02246	11963.6
2231.93245	11977.6
2234.84058	11947.3
2237.74686	11948.6
2240.65128	11906.9
2243.55385	11915.9
2246.45456	11916.6
2249.35343	11872.6
2252.25044	11880.8
2255.14561	11847.9
2258.03893	11868.9
2260.93041	11803.7
2263.82004	11791.1
2266.70783	11799.6
2269.59378	11703.2
2272.4779	11714.9
2275.36017	11690
2278.24061	11657.3
2281.11922	11639.1
2283.996	11633.6
2286.87094	11631
2289.74405	11575.7
2292.61534	11567.2
2295.4848	11555.2
2298.35243	11569.8
2301.21824	11528.7
2304.08223	11563.4
2306.94439	11532.6
2309.80474	11514.3
2312.66327	11544.5
2315.51999	11506.8
2318.37489	11502.8
2321.22797	11491.3
2324.07925	11463.1
2326.92871	11474.2
2329.77637	11452.1
2332.62222	11446.4
2335.46626	11442.7
2338.3085	11382.4
2341.14893	11426.2
2343.98756	11408.8
2346.8244	11398.2
2349.65943	11406.3
2352.49267	11368.7
2355.32411	11364.7
2358.15376	11358.8
2360.98161	11371.3
2363.80768	11345.3
2366.63195	11348.7
2369.45444	11330
2372.27514	11322.3
2375.09405	11310.8
2377.91118	11306.3
2380.72652	11239.4
2383.54009	11225.8
2386.35187	11212.9
2389.16188	11162.1
2391.97011	11160.7
2394.77657	11139.3
2397.58125	11099.9
2400.38416	11069.9
2403.18529	11076.3
2405.98466	11063.9
2408.78226	11056.4
2411.57809	11035.1
2414.37216	10996.3
2417.16446	10984.4
2419.955	10975.4
2422.74378	10979.5
2425.5308	10941.8
2428.31606	10933.8
2431.09956	10927.8
2433.88131	10909.6
2436.6613	10898.2
2439.43954	10893.2
2442.21603	10893.4
2444.99077	10864.6
2447.76377	10881.4
2450.53501	10870.7
2453.30451	10875.2
2456.07226	10850.1
2458.83827	10831.3
2461.60254	10806.5
2464.36507	10822.3
2467.12586	10815.4
2469.88492	10800
2472.64224	10810.1
2475.39782	10789
2478.15167	10793.7
2480.90379	10805
2483.65417	10801.7
2486.40283	10770.3
2489.14976	10797.4
2491.89497	10782.6
2494.63845	10785
2497.3802	10779.2
2500.12024	10764.9
2502.85855	10777.2
2505.59514	10738.3
2508.33002	10760.4
2511.06318	10726.6
2513.79462	10711.5
2516.52435	10705.8
2519.25237	10690.1
2521.97867	10672.3
2524.70327	10666.5
2527.42616	10627.6
2530.14734	10658.8
2532.86681	10589.7
2535.58458	10596.1
2538.30065	10571.1
2541.01501	10571.1
2543.72768	10546
2546.43864	10570.7
2549.14791	10543.3
2551.85548	10537.4
2554.56136	10548
2557.26554	10504.7
2559.96803	10497.7
2562.66883	10486.9
2565.36794	10478.1
2568.06536	10470.9
2570.7611	10437.4
2573.45514	10422.7
2576.14751	10395.2
2578.83819	10374
2581.52719	10387.9
2584.21451	10359.7
2586.90015	10383.4
2589.58411	10360.3
2592.2664	10335.7
2594.94701	10326.2
2597.62594	10322.4
2600.30321	10309.9
2602.9788	10311.2
2605.65273	10290.3
2608.32498	10276.3
2610.99557	10267
2613.66449	10266.7
2616.33175	10252.5
2618.99734	10239.1
2621.66128	10220.3
2624.32355	10235
2626.98416	10230.2
2629.64311	10204.5
2632.30041	10229.2
2634.95605	10191.4
2637.61004	10204.4
2640.26238	10168.6
2642.91306	10140.8
2645.56209	10130.6
2648.20948	10136.4
2650.85521	10131.8
2653.4993	10120.4
2656.14175	10135.4
2658.78255	10128.9
2661.42171	10107
2664.05923	10126.2
2666.6951	10131.7
2669.32934	10121.6
2671.96194	10147.5
2674.59291	10136.6
2677.22224	10173
2679.84993	10171.9
2682.476	10167.4
2685.10043	10171.9
2687.72324	10128.7
2690.34441	10163.7
2692.96396	10145.3
2695.58188	10150
2698.19818	10153.2
2700.81285	10148.8
2703.4259	10141.8
2706.03733	10137.5
2708.64714	10161.1
2711.25533	10159.7
2713.86191	10170.2
2716.46687	10174.1
2719.07021	10149.4
2721.67194	10166.3
2724.27206	10174
2726.87057	10193.7
2729.46747	10166.8
2732.06276	10193.4
2734.65644	10172.4
2737.24852	10162.7
2739.83899	10160.8
2742.42786	10149.5
2745.01513	10124.1
2747.60079	10149.9
2750.18486	10136.6
2752.76733	10099.7
2755.3482	10129.6
2757.92747	10130.8
2760.50515	10125.8
2763.08123	10111.4
2765.65573	10096.8
2768.22863	10108.1
2770.79994	10100.2
2773.36967	10079.2
2775.9378	10084.4
2778.50435	10055.1
2781.06932	10059.9
2783.6327	10058.2
2786.1945	10051
2788.75471	10054.6
2791.31335	10041.5
2793.87041	10033.2
2796.42589	10024.2
2798.97979	10018.5
2801.53212	10018.3
2804.08288	10008.2
2806.63206	9993.1
2809.17967	9996.5
2811.72571	9977.8
2814.27018	9976.4
2816.81308	9989.6
2819.35442	9981.1
2821.89419	9997.7
2824.43239	9981.7
2826.96904	9974
2829.50412	9979
2832.03763	9961.7
2834.56959	9977.4
2837.1	9971.5
2839.62884	9974.7
2842.15613	10011
2844.68186	10070.1
2847.20604	10103
2849.72867	10145.1
2852.24974	10163.4
2854.76927	10150.8
2857.28724	10122.8
2859.80367	10111.4
2862.31855	10091.6
2864.83189	10062.7
2867.34368	10038.9
2869.85393	10041.6
2872.36264	10020.3
2874.8698	9996.8
2877.37543	10013
2879.87952	10029.1
2882.38207	10002.4
2884.88308	9981.2
2887.38256	10007.9
2889.88051	9986.6
2892.37692	9982.9
2894.8718	9990.3
2897.36515	10004.4
2899.85698	9984.4
2902.34727	10026.4
2904.83604	10006.6
2907.32328	10030.4
2909.809	10006.3
2912.29319	10001
2914.77587	9977.1
2917.25702	9964.9
2919.73665	9940.7
2922.21476	9962.9
2924.69136	9935.2
2927.16644	9925.8
2929.64	9878.9
2932.11205	9870.8
2934.58258	9825.5
2937.05161	9843
2939.51912	9812.8
2941.98513	9777.3
2944.44962	9722.6
2946.91261	9649.7
2949.37409	9632.6
2951.83407	9619
2954.29254	9581.1
2956.74951	9555.4
2959.20498	9562.5
2961.65895	9504.5
2964.11142	9488.3
2966.56239	9458.4
2969.01186	9455.9
2971.45984	9415.3
2973.90632	9385.9
2976.35131	9326.6
2978.7948	9334.3
2981.23681	9292.4
2983.67732	9255
2986.11635	9229.2
2988.55388	9203.9
2990.98993	9179.3
2993.4245	9133.4
2995.85758	9136.9
2998.28917	9122.6
3000.71928	9095.8
3003.14791	9084.9
3005.57506	9066.6
3008.00073	9046.5
3010.42493	9021.9
3012.84764	9030.8
3015.26888	9008.8
3017.68865	8973.2
3020.10694	8966
3022.52376	8949.8
3024.9391	8931.3
3027.35298	8899.6
3029.76539	8903.1
3032.17632	8879.9
3034.5858	8837.4
3036.9938	8862.5
3039.40034	8856.3
3041.80542	8824.6
3044.20903	8808.9
3046.61118	8820
3049.01187	8761
3051.4111	8727
3053.80888	8734.6
3056.20519	8713.7
3058.60005	8698.1
3060.99345	8694.7
3063.3854	8659
3065.7759	8637.3
3068.16494	8626.8
3070.55254	8603.5
3072.93868	8605.5
3075.32338	8569
3077.70662	8541.2
3080.08842	8523.6
3082.46878	8513.4
3084.84769	8496.4
3087.22515	8496.1
3089.60118	8478.6
3091.97576	8489.3
3094.3489	8493.2
3096.72061	8458.8
3099.09087	8469.4
3101.4597	8443.2
3103.82709	8435.5
3106.19305	8422.8
3108.55757	8421.5
3110.92066	8409.9
3113.28232	8393.4
3115.64255	8380.6
3118.00134	8355.8
3120.35871	8350.3
3122.71466	8309.2
3125.06917	8308.3
3127.42226	8273.9
3129.77393	8305.5
3132.12417	8312.6
3134.47299	8290.9
3136.82039	8285.3
3139.16636	8287.1
3141.51092	8293.1
3143.85406	8302.5
3146.19579	8279.9
3148.53609	8281.5
3150.87499	8288
3153.21246	8296.3
3155.54853	8316.3
3157.88318	8297.2
3160.21642	8325.4
3162.54826	8281.5
3164.87868	8283.6
3167.2077	8284.8
3169.5353	8259.7
3171.86151	8273.3
3174.18631	8264.7
3176.5097	8268.9
3178.83169	8246.8
3181.15228	8237.6
3183.47147	8230.1
3185.78926	8234.1
3188.10565	8226.5
3190.42065	8233.4
3192.73424	8247
3195.04645	8240.3
3197.35725	8215.2
3199.66667	8210.8
3201.97469	8238
3204.28132	8212.2
3206.58656	8251.6
3208.8904	8249.7
3211.19287	8246.8
3213.49394	8217
3215.79363	8212.2
3218.09193	8224.6
3220.38884	8226
3222.68438	8219
3224.97853	8208.6
3227.2713	8198.6
3229.56269	8180.8
3231.8527	8183.7
3234.14133	8172.4
3236.42858	8158.5
3238.71446	8144.9
3240.99896	8136.9
3243.28209	8135.4
3245.56384	8127
3247.84423	8121.3
3250.12324	8112.2
3252.40088	8119
3254.67715	8103.9
3256.95205	8094
3259.22558	8090.5
3261.49775	8077
3263.76855	8063.2
3266.03799	8039.3
3268.30606	8037.1
3270.57277	8050.1
3272.83812	7989.9
3275.10211	8017.6
3277.36474	7986.7
3279.62601	8008.1
3281.88593	7976.3
3284.14448	7978.8
3286.40168	7982.3
3288.65753	7956.6
3290.91202	7953.7
3293.16516	7912.3
3295.41695	7887.4
3297.66738	7840.6
3299.91647	7813.1
3302.16421	7758.9
3304.4106	7748.3
3306.65564	7703.9
3308.89933	7638.5
3311.14169	7591.4
3313.38269	7539.7
3315.62236	7488
3317.86068	7414
3320.09766	7359.1
3322.3333	7301.4
3324.5676	7287.4
3326.80056	7156.3
3329.03219	7114.8
3331.26248	1.6
3333.49143	0.4
3335.71905	0.3
