Data from AgNPs_FTO_APTES_UA_1uM_R6G_10uM_NaF_0.1M_Addition_RamanShift__26__11-34-17-186.txt Node

Date: Fri Dec 17 11:34:17 GMT 2021
User: TCL
Spectrometer: QEP01345
Trigger mode: 4
Integration Time (sec): 7.000000E0
Scans to average: 10
Electric dark correction enabled: true
Nonlinearity correction enabled: false
Boxcar width: 0
XAxis mode: Raman Shifts
Number of Pixels in Spectrum: 1044
>>>>>Begin Spectral Data<<<<<
46.04893	-0.4125
50.45542	-0.8125
54.85868	-2.7125
59.25871	0.6875
63.6555	94.4875
68.04907	98.3875
72.43941	107.2875
76.82654	107.3875
81.21044	113.6875
85.59113	118.2875
89.96862	124.5875
94.34289	124.4875
98.71396	130.0875
103.08183	135.3875
107.4465	134.4875
111.80798	138.2875
116.16626	138.7875
120.52136	144.7875
124.87327	151.0875
129.222	150.9875
133.56755	166.1875
137.90993	170.4875
142.24913	178.5875
146.58517	192.9875
150.91804	216.5875
155.24774	254.4875
159.57429	309.6875
163.89768	383.4875
168.21792	492.3875
172.53501	660.4875
176.84895	899.7875
181.15975	1246.4875
185.46741	1744.2875
189.77193	2380.3875
194.07331	3189.5875
198.37157	4097.3875
202.6667	5061.0875
206.9587	6021.3875
211.24758	6945.4875
215.53334	7959.1875
219.81599	8980.2875
224.09553	10129.5875
228.37195	11425.8875
232.64527	12852.5875
236.91549	14332.1875
241.18261	15713.9875
245.44663	16968.7875
249.70755	18046.5875
253.96539	18976.4875
258.22014	19772.9875
262.4718	20491.6875
266.72039	21006.3875
270.96589	21320.9875
275.20832	21401.9875
279.44768	21253.9875
283.68397	20970.3875
287.91719	20741.4875
292.14735	20653.8875
296.37445	20789.8875
300.59849	21171.1875
304.81948	21613.1875
309.03742	22003.1875
313.25231	21920.1875
317.46415	21222.7875
321.67296	20160.3875
325.87872	19292.7875
330.08145	18917.5875
334.28114	18907.1875
338.47781	19158.9875
342.67145	19616.3875
346.86207	20235.0875
351.04966	21112.5875
355.23424	22119.9875
359.4158	22931.9875
363.59435	23466.4875
367.76989	23678.8875
371.94243	23750.2875
376.11196	23779.7875
380.27849	23755.2875
384.44203	23723.1875
388.60257	23624.3875
392.76012	23629.0875
396.91468	23896.1875
401.06626	24408.1875
405.21485	24868.9875
409.36047	24650.8875
413.50311	23963.5875
417.64277	23315.7875
421.77947	22950.3875
425.9132	22913.1875
430.04396	22917.8875
434.17176	23090.8875
438.2966	23389.9875
442.41849	23895.2875
446.53742	24581.3875
450.6534	25263.3875
454.76644	25753.0875
458.87653	25949.4875
462.98368	25925.8875
467.08789	25541.2875
471.18916	25000.2875
475.2875	24425.5875
479.38291	24034.1875
483.4754	23751.0875
487.56496	23479.9875
491.6516	23309.0875
495.73531	23123.3875
499.81612	23076.6875
503.89401	23168.5875
507.96899	23360.2875
512.04106	23559.7875
516.11023	23821.9875
520.1765	23988.4875
524.23987	23957.0875
528.30034	23725.6875
532.35792	23404.5875
536.41261	23074.4875
540.46441	22699.2875
544.51333	22586.2875
548.55936	22726.0875
552.60252	23063.2875
556.64279	23438.9875
560.6802	23642.2875
564.71473	23883.6875
568.7464	24473.6875
572.7752	24898.8875
576.80114	24683.9875
580.82422	24462.2875
584.84444	24440.8875
588.86181	24546.9875
592.87633	24769.0875
596.888	25116.9875
600.89682	25857.3875
604.9028	27857.8875
608.90594	32552.1875
612.90624	38132.4875
616.90371	36661.8875
620.89834	28793.8875
624.89015	25140.5875
628.87913	24466.8875
632.86528	24395.7875
636.84862	24448.0875
640.82913	24085.8875
644.80683	23442.7875
648.78172	23030.1875
652.75379	23098.3875
656.72306	23676.0875
660.68952	24462.0875
664.65319	24386.9875
668.61405	23676.8875
672.57211	23317.8875
676.52738	23349.9875
680.47986	23342.8875
684.42955	23285.0875
688.37646	23270.3875
692.32058	23359.3875
696.26192	23559.6875
700.20048	23795.7875
704.13626	24003.6875
708.06928	23938.4875
711.99952	23740.9875
715.927	23694.8875
719.85171	23709.8875
723.77365	23681.1875
727.69284	23489.4875
731.60928	23355.2875
735.52295	23367.5875
739.43388	23406.5875
743.34206	23600.4875
747.24749	23708.6875
751.15017	23909.3875
755.05012	24304.0875
758.94733	25046.1875
762.8418	26574.6875
766.73354	29072.0875
770.62254	31827.2875
774.50882	33174.3875
778.39237	32013.0875
782.27321	29091.6875
786.15132	26418.7875
790.02671	24843.0875
793.89938	24160.8875
797.76935	23905.2875
801.6366	23694.8875
805.50115	23623.4875
809.36299	23561.6875
813.22213	23448.5875
817.07857	23408.1875
820.93231	23426.7875
824.78336	23536.9875
828.63172	23630.5875
832.47738	23707.9875
836.32036	23768.7875
840.16066	23785.4875
843.99827	23816.4875
847.8332	23765.8875
851.66546	23654.1875
855.49504	23670.4875
859.32195	23626.3875
863.1462	23549.3875
866.96777	23515.4875
870.78668	23485.1875
874.60293	23557.3875
878.41652	23599.7875
882.22745	23705.7875
886.03573	23793.2875
889.84136	23729.9875
893.64433	23660.3875
897.44466	23593.2875
901.24235	23619.8875
905.0374	23612.4875
908.8298	23591.8875
912.61957	23612.0875
916.40671	23684.2875
920.19121	23958.2875
923.97308	24180.6875
927.75233	24427.8875
931.52895	24577.9875
935.30295	24445.9875
939.07433	24014.1875
942.84309	23636.7875
946.60924	23440.6875
950.37278	23300.9875
954.13371	23139.5875
957.89203	23028.7875
961.64774	22994.5875
965.40086	22876.5875
969.15137	22822.3875
972.89929	22797.7875
976.64461	22847.0875
980.38733	22880.9875
984.12747	22958.2875
987.86502	23154.7875
991.59999	23389.9875
995.33237	23750.3875
999.06217	24309.6875
1002.78939	25016.2875
1006.51404	25598.4875
1010.23611	26047.2875
1013.95561	26342.5875
1017.67255	26389.9875
1021.38692	26152.9875
1025.09872	25908.2875
1028.80796	25991.8875
1032.51465	26473.0875
1036.21877	26920.1875
1039.92035	27025.8875
1043.61937	26743.5875
1047.31584	26195.7875
1051.00976	25576.7875
1054.70114	25236.0875
1058.38998	25081.8875
1062.07627	25139.5875
1065.76003	25250.7875
1069.44126	25363.4875
1073.11995	25624.9875
1076.79611	25809.7875
1080.46974	26015.1875
1084.14085	26312.5875
1087.80943	26638.4875
1091.47549	26720.3875
1095.13903	26408.4875
1098.80005	25867.6875
1102.45857	25359.0875
1106.11456	25103.4875
1109.76805	25190.0875
1113.41903	25471.7875
1117.06751	25833.3875
1120.71348	26386.8875
1124.35696	26862.4875
1127.99793	27357.8875
1131.63641	27400.5875
1135.2724	26909.8875
1138.90589	26227.7875
1142.5369	25805.2875
1146.16542	25478.5875
1149.79145	25361.7875
1153.415	25401.4875
1157.03607	25544.7875
1160.65467	25912.2875
1164.27079	26614.2875
1167.88443	27498.5875
1171.49561	28970.5875
1175.10432	31242.6875
1178.71056	34306.0875
1182.31434	36991.4875
1185.91565	38299.0875
1189.51451	38195.8875
1193.11091	36676.9875
1196.70485	34500.2875
1200.29634	32687.8875
1203.88538	31298.0875
1207.47197	30012.0875
1211.05612	29053.3875
1214.63782	28595.8875
1218.21708	28472.5875
1221.79391	28664.0875
1225.36829	28920.2875
1228.94024	29120.4875
1232.50976	29169.4875
1236.07685	29239.7875
1239.6415	29199.4875
1243.20374	29164.8875
1246.76355	29170.6875
1250.32093	29373.4875
1253.8759	29918.7875
1257.42845	30694.7875
1260.97859	31395.0875
1264.52631	31941.5875
1268.07163	32570.0875
1271.61453	33281.4875
1275.15503	33977.6875
1278.69312	34596.2875
1282.22882	35081.9875
1285.76211	35644.1875
1289.29301	36405.0875
1292.82151	37129.1875
1296.34761	37820.0875
1299.87133	38922.9875
1303.39266	40807.1875
1306.9116	43739.2875
1310.42815	47259.0875
1313.94233	49779.0875
1317.45412	49899.3875
1320.96354	48262.0875
1324.47058	46112.2875
1327.97525	44084.0875
1331.47754	42826.0875
1334.97747	42346.6875
1338.47502	42592.1875
1341.97022	43129.5875
1345.46305	43537.5875
1348.95352	44074.5875
1352.44163	45073.9875
1355.92738	47019.3875
1359.41078	50743.0875
1362.89183	54645.6875
1366.37053	54078.6875
1369.84688	48533.2875
1373.32088	42452.7875
1376.79254	38464.0875
1380.26186	36472.2875
1383.72883	35475.4875
1387.19347	34702.5875
1390.65578	33861.7875
1394.11575	33359.7875
1397.57339	33303.4875
1401.0287	33679.9875
1404.48168	34349.9875
1407.93234	35131.5875
1411.38068	35773.7875
1414.82669	35894.1875
1418.27039	35316.2875
1421.71177	34513.8875
1425.15083	33779.4875
1428.58758	33376.6875
1432.02203	33332.7875
1435.45416	33472.2875
1438.88399	33588.2875
1442.31151	33655.7875
1445.73673	33782.9875
1449.15965	33964.7875
1452.58027	33913.1875
1455.9986	33733.4875
1459.41463	33610.5875
1462.82837	33795.0875
1466.23982	34199.4875
1469.64898	34707.7875
1473.05586	35045.6875
1476.46045	35296.8875
1479.86276	35666.4875
1483.26279	36194.6875
1486.66054	36809.5875
1490.05602	37588.9875
1493.44922	38430.1875
1496.84016	39528.7875
1500.22882	40888.8875
1503.61521	42867.9875
1506.99934	45384.1875
1510.38121	47976.9875
1513.76081	49436.4875
1517.13816	48301.3875
1520.51324	44966.5875
1523.88607	41264.3875
1527.25665	38562.6875
1530.62498	36932.7875
1533.99105	35937.3875
1537.35488	35284.2875
1540.71647	34877.6875
1544.07581	34732.3875
1547.4329	34627.8875
1550.78776	34453.8875
1554.14038	34416.3875
1557.49077	34582.3875
1560.83892	34830.3875
1564.18484	35121.4875
1567.52853	35387.1875
1570.86999	35484.3875
1574.20922	35721.6875
1577.54624	35750.4875
1580.88103	35219.9875
1584.2136	34431.3875
1587.54395	34445.7875
1590.87208	35421.4875
1594.19801	37229.3875
1597.52172	39409.3875
1600.84321	40347.7875
1604.16251	39314.7875
1607.47959	37129.6875
1610.79447	34549.2875
1614.10715	32200.3875
1617.41763	30360.8875
1620.7259	29267.9875
1624.03199	28752.0875
1627.33587	28855.7875
1630.63757	29541.1875
1633.93707	30812.5875
1637.23439	32589.5875
1640.52951	34701.9875
1643.82246	37008.3875
1647.11321	39002.9875
1650.40179	39948.1875
1653.68819	38639.4875
1656.97241	35008.9875
1660.25446	31039.3875
1663.53433	28157.1875
1666.81203	26406.7875
1670.08756	25359.7875
1673.36092	24653.2875
1676.63211	24248.3875
1679.90115	23947.7875
1683.16801	23654.5875
1686.43272	23529.3875
1689.69527	23335.7875
1692.95567	23291.5875
1696.2139	23248.3875
1699.46999	23221.7875
1702.72392	23184.1875
1705.97571	23208.7875
1709.22535	23185.5875
1712.47284	23230.4875
1715.71819	23214.8875
1718.96139	23194.1875
1722.20246	23166.6875
1725.44139	23097.9875
1728.67818	22996.4875
1731.91284	22924.0875
1735.14537	22807.2875
1738.37576	22753.7875
1741.60403	22673.8875
1744.83017	22593.0875
1748.05418	22527.5875
1751.27607	22549.4875
1754.49584	22518.6875
1757.71349	22497.0875
1760.92903	22476.3875
1764.14244	22471.0875
1767.35375	22457.0875
1770.56294	22411.5875
1773.77002	22401.4875
1776.97499	22384.6875
1780.17785	22370.0875
1783.37861	22405.6875
1786.57727	22374.8875
1789.77382	22350.0875
1792.96828	22352.2875
1796.16064	22342.3875
1799.3509	22307.3875
1802.53907	22298.1875
1805.72514	22246.1875
1808.90913	22210.3875
1812.09102	22153.4875
1815.27083	22120.2875
1818.44856	22070.5875
1821.6242	22070.4875
1824.79776	22099.1875
1827.96924	22068.5875
1831.13864	22044.8875
1834.30597	22049.8875
1837.47122	22034.9875
1840.6344	22094.3875
1843.7955	22053.0875
1846.95454	22053.6875
1850.11151	22077.3875
1853.26642	22097.4875
1856.41926	22106.2875
1859.57004	22138.6875
1862.71876	22122.7875
1865.86542	22114.4875
1869.01003	22163.0875
1872.15258	22127.1875
1875.29308	22160.5875
1878.43152	22179.6875
1881.56792	22227.0875
1884.70227	22225.5875
1887.83457	22218.9875
1890.96482	22258.8875
1894.09304	22226.3875
1897.21921	22204.4875
1900.34335	22246.6875
1903.46544	22229.0875
1906.58551	22245.6875
1909.70353	22214.5875
1912.81953	22234.3875
1915.93349	22234.3875
1919.04543	22179.5875
1922.15534	22117.4875
1925.26322	22075.2875
1928.36908	22071.1875
1931.47292	21997.6875
1934.57473	21899.4875
1937.67453	21839.0875
1940.77232	21738.9875
1943.86808	21708.6875
1946.96184	21616.8875
1950.05358	21528.9875
1953.14331	21426.1875
1956.23103	21403.8875
1959.31675	21315.4875
1962.40046	21229.6875
1965.48217	21180.7875
1968.56188	21130.1875
1971.63959	21078.1875
1974.7153	21001.4875
1977.78901	20954.2875
1980.86073	20885.2875
1983.93046	20770.2875
1986.99819	20735.0875
1990.06394	20710.8875
1993.1277	20634.0875
1996.18947	20569.9875
1999.24925	20556.6875
2002.30706	20494.2875
2005.36288	20414.7875
2008.41672	20417.1875
2011.46859	20311.9875
2014.51848	20261.6875
2017.56639	20219.3875
2020.61233	20214.5875
2023.6563	20137.3875
2026.6983	20120.2875
2029.73833	20039.8875
2032.7764	20017.5875
2035.8125	19993.7875
2038.84664	19950.6875
2041.87881	19992.8875
2044.90903	19948.4875
2047.93729	19884.5875
2050.96359	19887.0875
2053.98794	19840.8875
2057.01034	19833.7875
2060.03078	19782.0875
2063.04927	19740.3875
2066.06582	19772.9875
2069.08042	19748.6875
2072.09307	19713.7875
2075.10378	19713.9875
2078.11255	19705.1875
2081.11938	19713.2875
2084.12426	19696.0875
2087.12722	19675.6875
2090.12824	19693.3875
2093.12732	19677.8875
2096.12447	19701.4875
2099.11969	19688.3875
2102.11299	19724.9875
2105.10435	19695.6875
2108.09379	19683.2875
2111.08131	19702.4875
2114.0669	19736.8875
2117.05057	19730.8875
2120.03233	19706.7875
2123.01216	19761.0875
2125.99008	19758.3875
2128.96609	19817.8875
2131.94018	19817.7875
2134.91236	19850.0875
2137.88263	19833.4875
2140.851	19875.3875
2143.81746	19886.0875
2146.78201	19881.1875
2149.74466	19896.4875
2152.7054	19906.7875
2155.66425	19912.2875
2158.6212	19886.0875
2161.57625	19919.6875
2164.52941	19879.7875
2167.48067	19876.5875
2170.43004	19872.2875
2173.37752	19897.6875
2176.32311	19873.0875
2179.26681	19867.2875
2182.20863	19896.3875
2185.14856	19937.7875
2188.08661	19895.3875
2191.02278	19918.0875
2193.95707	19870.5875
2196.88948	19878.9875
2199.82001	19881.7875
2202.74867	19850.5875
2205.67545	19909.9875
2208.60037	19859.0875
2211.52341	19848.1875
2214.44458	19782.5875
2217.36388	19786.3875
2220.28132	19735.8875
2223.1969	19704.4875
2226.11061	19687.3875
2229.02246	19636.4875
2231.93245	19621.6875
2234.84058	19576.9875
2237.74686	19557.0875
2240.65128	19547.1875
2243.55385	19508.9875
2246.45456	19522.3875
2249.35343	19521.8875
2252.25044	19466.2875
2255.14561	19454.3875
2258.03893	19434.8875
2260.93041	19382.2875
2263.82004	19351.9875
2266.70783	19339.8875
2269.59378	19276.0875
2272.4779	19224.5875
2275.36017	19164.5875
2278.24061	19159.0875
2281.11922	19127.6875
2283.996	19099.8875
2286.87094	19091.9875
2289.74405	19034.1875
2292.61534	19024.1875
2295.4848	19012.6875
2298.35243	18991.7875
2301.21824	19024.7875
2304.08223	18984.8875
2306.94439	19013.4875
2309.80474	19000.3875
2312.66327	18988.3875
2315.51999	19024.7875
2318.37489	19022.8875
2321.22797	18990.9875
2324.07925	18937.7875
2326.92871	18955.7875
2329.77637	18899.8875
2332.62222	18908.0875
2335.46626	18895.4875
2338.3085	18879.0875
2341.14893	18893.3875
2343.98756	18893.9875
2346.8244	18877.5875
2349.65943	18892.3875
2352.49267	18875.2875
2355.32411	18881.3875
2358.15376	18803.1875
2360.98161	18811.5875
2363.80768	18837.9875
2366.63195	18779.1875
2369.45444	18764.9875
2372.27514	18746.2875
2375.09405	18738.2875
2377.91118	18716.4875
2380.72652	18639.9875
2383.54009	18590.9875
2386.35187	18607.4875
2389.16188	18533.5875
2391.97011	18486.7875
2394.77657	18471.7875
2397.58125	18446.2875
2400.38416	18407.8875
2403.18529	18372.7875
2405.98466	18335.4875
2408.78226	18311.7875
2411.57809	18302.9875
2414.37216	18237.6875
2417.16446	18252.5875
2419.955	18237.6875
2422.74378	18201.4875
2425.5308	18207.2875
2428.31606	18181.6875
2431.09956	18155.7875
2433.88131	18117.5875
2436.6613	18149.3875
2439.43954	18116.7875
2442.21603	18105.4875
2444.99077	18105.2875
2447.76377	18097.4875
2450.53501	18065.2875
2453.30451	18068.8875
2456.07226	18045.9875
2458.83827	18048.3875
2461.60254	18031.3875
2464.36507	18021.2875
2467.12586	18035.7875
2469.88492	18001.1875
2472.64224	18017.4875
2475.39782	17969.8875
2478.15167	18012.2875
2480.90379	18023.5875
2483.65417	18034.2875
2486.40283	18031.0875
2489.14976	18026.9875
2491.89497	17993.7875
2494.63845	18043.0875
2497.3802	18009.9875
2500.12024	18029.4875
2502.85855	18033.2875
2505.59514	18019.9875
2508.33002	18014.7875
2511.06318	17968.0875
2513.79462	17915.3875
2516.52435	17913.3875
2519.25237	17906.8875
2521.97867	17857.2875
2524.70327	17852.4875
2527.42616	17798.6875
2530.14734	17801.9875
2532.86681	17769.0875
2535.58458	17772.3875
2538.30065	17735.1875
2541.01501	17727.7875
2543.72768	17719.0875
2546.43864	17715.8875
2549.14791	17685.2875
2551.85548	17703.7875
2554.56136	17654.1875
2557.26554	17663.6875
2559.96803	17629.8875
2562.66883	17598.5875
2565.36794	17583.4875
2568.06536	17570.5875
2570.7611	17560.5875
2573.45514	17542.7875
2576.14751	17528.0875
2578.83819	17498.3875
2581.52719	17459.6875
2584.21451	17466.5875
2586.90015	17466.6875
2589.58411	17453.0875
2592.2664	17405.9875
2594.94701	17387.8875
2597.62594	17406.1875
2600.30321	17400.7875
2602.9788	17337.5875
2605.65273	17346.0875
2608.32498	17326.8875
2610.99557	17326.3875
2613.66449	17305.9875
2616.33175	17306.2875
2618.99734	17335.9875
2621.66128	17303.7875
2624.32355	17280.4875
2626.98416	17265.7875
2629.64311	17286.7875
2632.30041	17283.6875
2634.95605	17264.1875
2637.61004	17212.5875
2640.26238	17213.5875
2642.91306	17192.8875
2645.56209	17158.0875
2648.20948	17126.4875
2650.85521	17124.8875
2653.4993	17131.0875
2656.14175	17138.3875
2658.78255	17140.2875
2661.42171	17117.1875
2664.05923	17134.8875
2666.6951	17132.2875
2669.32934	17161.9875
2671.96194	17156.9875
2674.59291	17191.5875
2677.22224	17202.2875
2679.84993	17216.8875
2682.476	17173.8875
2685.10043	17186.3875
2687.72324	17160.7875
2690.34441	17180.8875
2692.96396	17166.3875
2695.58188	17196.8875
2698.19818	17130.2875
2700.81285	17174.8875
2703.4259	17142.6875
2706.03733	17133.3875
2708.64714	17147.8875
2711.25533	17181.7875
2713.86191	17156.5875
2716.46687	17198.9875
2719.07021	17160.2875
2721.67194	17224.4875
2724.27206	17180.0875
2726.87057	17162.4875
2729.46747	17160.8875
2732.06276	17165.9875
2734.65644	17180.9875
2737.24852	17196.8875
2739.83899	17164.1875
2742.42786	17167.2875
2745.01513	17148.4875
2747.60079	17164.3875
2750.18486	17178.3875
2752.76733	17163.4875
2755.3482	17140.3875
2757.92747	17151.1875
2760.50515	17130.7875
2763.08123	17115.9875
2765.65573	17087.9875
2768.22863	17120.7875
2770.79994	17064.1875
2773.36967	17088.0875
2775.9378	17099.3875
2778.50435	17063.8875
2781.06932	17051.9875
2783.6327	17018.3875
2786.1945	17032.9875
2788.75471	17009.2875
2791.31335	16999.1875
2793.87041	16961.3875
2796.42589	16918.0875
2798.97979	16898.5875
2801.53212	16904.6875
2804.08288	16836.7875
2806.63206	16785.9875
2809.17967	16793.7875
2811.72571	16796.8875
2814.27018	16813.1875
2816.81308	16786.4875
2819.35442	16789.8875
2821.89419	16740.8875
2824.43239	16787.7875
2826.96904	16759.1875
2829.50412	16714.6875
2832.03763	16733.7875
2834.56959	16711.3875
2837.1	16713.0875
2839.62884	16729.1875
2842.15613	16728.1875
2844.68186	16813.1875
2847.20604	16826.3875
2849.72867	16831.1875
2852.24974	16824.1875
2854.76927	16814.6875
2857.28724	16782.9875
2859.80367	16789.9875
2862.31855	16752.0875
2864.83189	16734.6875
2867.34368	16752.3875
2869.85393	16712.7875
2872.36264	16700.1875
2874.8698	16724.5875
2877.37543	16732.3875
2879.87952	16713.5875
2882.38207	16720.5875
2884.88308	16688.5875
2887.38256	16743.0875
2889.88051	16709.4875
2892.37692	16712.7875
2894.8718	16714.5875
2897.36515	16743.0875
2899.85698	16713.0875
2902.34727	16753.1875
2904.83604	16737.8875
2907.32328	16761.3875
2909.809	16732.8875
2912.29319	16753.3875
2914.77587	16736.5875
2917.25702	16749.9875
2919.73665	16714.8875
2922.21476	16723.9875
2924.69136	16696.5875
2927.16644	16673.0875
2929.64	16665.7875
2932.11205	16653.4875
2934.58258	16581.7875
2937.05161	16617.4875
2939.51912	16590.8875
2941.98513	16535.5875
2944.44962	16474.0875
2946.91261	16413.8875
2949.37409	16414.4875
2951.83407	16377.8875
2954.29254	16371.0875
2956.74951	16343.6875
2959.20498	16338.0875
2961.65895	16285.9875
2964.11142	16262.5875
2966.56239	16218.3875
2969.01186	16182.2875
2971.45984	16125.4875
2973.90632	16119.9875
2976.35131	16063.8875
2978.7948	16043.7875
2981.23681	15971.0875
2983.67732	15945.2875
2986.11635	15930.7875
2988.55388	15862.6875
2990.98993	15832.2875
2993.4245	15823.9875
2995.85758	15781.4875
2998.28917	15738.0875
3000.71928	15733.2875
3003.14791	15691.8875
3005.57506	15690.0875
3008.00073	15612.0875
3010.42493	15626.7875
3012.84764	15605.5875
3015.26888	15596.9875
3017.68865	15558.5875
3020.10694	15534.0875
3022.52376	15499.5875
3024.9391	15506.9875
3027.35298	15442.0875
3029.76539	15411.5875
3032.17632	15390.1875
3034.5858	15350.2875
3036.9938	15370.3875
3039.40034	15319.8875
3041.80542	15339.2875
3044.20903	15291.5875
3046.61118	15271.3875
3049.01187	15223.0875
3051.4111	15212.2875
3053.80888	15181.5875
3056.20519	15138.1875
3058.60005	15088.6875
3060.99345	15063.2875
3063.3854	15032.2875
3065.7759	15029.0875
3068.16494	14962.2875
3070.55254	14928.1875
3072.93868	14935.6875
3075.32338	14852.9875
3077.70662	14848.8875
3080.08842	14815.9875
3082.46878	14831.1875
3084.84769	14763.9875
3087.22515	14747.3875
3089.60118	14767.9875
3091.97576	14764.5875
3094.3489	14727.9875
3096.72061	14724.4875
3099.09087	14729.9875
3101.4597	14705.9875
3103.82709	14662.9875
3106.19305	14656.7875
3108.55757	14620.1875
3110.92066	14612.0875
3113.28232	14582.7875
3115.64255	14493.1875
3118.00134	14528.6875
3120.35871	14480.8875
3122.71466	14476.3875
3125.06917	14436.4875
3127.42226	14429.1875
3129.77393	14462.6875
3132.12417	14443.4875
3134.47299	14397.1875
3136.82039	14401.9875
3139.16636	14414.4875
3141.51092	14401.4875
3143.85406	14396.2875
3146.19579	14390.7875
3148.53609	14407.6875
3150.87499	14405.5875
3153.21246	14418.4875
3155.54853	14432.3875
3157.88318	14427.2875
3160.21642	14408.0875
3162.54826	14385.0875
3164.87868	14368.7875
3167.2077	14362.0875
3169.5353	14352.5875
3171.86151	14332.4875
3174.18631	14350.0875
3176.5097	14317.3875
3178.83169	14261.0875
3181.15228	14298.5875
3183.47147	14250.0875
3185.78926	14249.5875
3188.10565	14244.3875
3190.42065	14273.6875
3192.73424	14261.2875
3195.04645	14226.9875
3197.35725	14258.0875
3199.66667	14274.0875
3201.97469	14253.6875
3204.28132	14248.3875
3206.58656	14284.4875
3208.8904	14280.2875
3211.19287	14233.4875
3213.49394	14275.6875
3215.79363	14258.2875
3218.09193	14267.3875
3220.38884	14234.7875
3222.68438	14207.3875
3224.97853	14214.2875
3227.2713	14204.0875
3229.56269	14204.5875
3231.8527	14182.8875
3234.14133	14156.0875
3236.42858	14180.8875
3238.71446	14127.5875
3240.99896	14109.8875
3243.28209	14114.0875
3245.56384	14093.0875
3247.84423	14125.0875
3250.12324	14084.2875
3252.40088	14061.8875
3254.67715	14059.5875
3256.95205	14057.0875
3259.22558	14021.8875
3261.49775	14000.9875
3263.76855	14002.0875
3266.03799	13990.0875
3268.30606	13956.3875
3270.57277	13946.1875
3272.83812	13899.2875
3275.10211	13890.4875
3277.36474	13897.0875
3279.62601	13881.4875
3281.88593	13853.7875
3284.14448	13858.8875
3286.40168	13839.6875
3288.65753	13847.9875
3290.91202	13808.9875
3293.16516	13771.3875
3295.41695	13719.9875
3297.66738	13635.7875
3299.91647	13576.5875
3302.16421	13531.9875
3304.4106	13476.1875
3306.65564	13403.5875
3308.89933	13327.9875
3311.14169	13254.4875
3313.38269	13133.2875
3315.62236	13094.7875
3317.86068	12961.8875
3320.09766	12840.8875
3322.3333	12699.8875
3324.5676	12686.4875
3326.80056	12503.0875
3329.03219	12447.5875
3331.26248	2.1875
3333.49143	0.9875
3335.71905	-0.0125
