Data from AgNPs_FTO_APTES_UA_2uM_R6G_10uM_NaF_0.1M_Addition_RamanShift__6__11-50-37-205.txt Node

Date: Fri Dec 17 11:50:37 GMT 2021
User: TCL
Spectrometer: QEP01345
Trigger mode: 4
Integration Time (sec): 7.000000E0
Scans to average: 10
Electric dark correction enabled: true
Nonlinearity correction enabled: false
Boxcar width: 0
XAxis mode: Raman Shifts
Number of Pixels in Spectrum: 1044
>>>>>Begin Spectral Data<<<<<
46.04893	-1.4875
50.45542	-0.3875
54.85868	-1.0875
59.25871	-0.1875
63.6555	129.3125
68.04907	127.5125
72.43941	136.5125
76.82654	145.4125
81.21044	149.4125
85.59113	156.0125
89.96862	160.2125
94.34289	168.3125
98.71396	169.9125
103.08183	172.7125
107.4465	182.2125
111.80798	182.8125
116.16626	189.4125
120.52136	193.2125
124.87327	205.5125
129.222	213.9125
133.56755	222.2125
137.90993	239.5125
142.24913	265.4125
146.58517	298.8125
150.91804	338.4125
155.24774	403.2125
159.57429	493.6125
163.89768	631.6125
168.21792	829.1125
172.53501	1114.5125
176.84895	1541.9125
181.15975	2158.7125
185.46741	3051.9125
189.77193	4174.1125
194.07331	5583.0125
198.37157	7203.0125
202.6667	8896.3125
206.9587	10593.6125
211.24758	12231.0125
215.53334	13910.5125
219.81599	15629.1125
224.09553	17544.6125
228.37195	19700.0125
232.64527	22015.8125
236.91549	24495.6125
241.18261	27028.7125
245.44663	29483.4125
249.70755	31639.1125
253.96539	33531.1125
258.22014	35129.9125
262.4718	36402.2125
266.72039	37250.0125
270.96589	37646.7125
275.20832	37632.5125
279.44768	37315.1125
283.68397	36872.0125
287.91719	36413.2125
292.14735	36110.9125
296.37445	35896.3125
300.59849	35772.0125
304.81948	35782.7125
309.03742	35791.4125
313.25231	35693.7125
317.46415	35411.9125
321.67296	34949.7125
325.87872	34563.8125
330.08145	34451.3125
334.28114	34514.4125
338.47781	34733.2125
342.67145	35107.2125
346.86207	35577.5125
351.04966	36177.4125
355.23424	36841.7125
359.4158	37409.4125
363.59435	37933.3125
367.76989	38235.2125
371.94243	38456.2125
376.11196	38659.4125
380.27849	38775.8125
384.44203	39014.6125
388.60257	39326.6125
392.76012	39717.4125
396.91468	40208.6125
401.06626	40798.5125
405.21485	41181.1125
409.36047	41240.5125
413.50311	40993.6125
417.64277	40915.0125
421.77947	41097.5125
425.9132	41380.0125
430.04396	41580.7125
434.17176	41758.9125
438.2966	41880.9125
442.41849	42332.6125
446.53742	43098.3125
450.6534	44018.3125
454.76644	44689.1125
458.87653	44921.6125
462.98368	44873.8125
467.08789	44440.4125
471.18916	43850.5125
475.2875	43197.6125
479.38291	42705.5125
483.4754	42351.6125
487.56496	42116.0125
491.6516	41875.9125
495.73531	41683.0125
499.81612	41744.0125
503.89401	42091.0125
507.96899	42265.7125
512.04106	42276.1125
516.11023	42138.5125
520.1765	41840.2125
524.23987	41599.6125
528.30034	41351.7125
532.35792	41048.9125
536.41261	40751.6125
540.46441	40464.2125
544.51333	40307.1125
548.55936	40598.5125
552.60252	41126.8125
556.64279	41662.4125
560.6802	42097.2125
564.71473	42388.5125
568.7464	42739.7125
572.7752	43443.0125
576.80114	44316.5125
580.82422	45468.6125
584.84444	46943.3125
588.86181	48631.7125
592.87633	49894.5125
596.888	49698.5125
600.89682	48557.4125
604.9028	48696.7125
608.90594	51117.2125
612.90624	53427.5125
616.90371	50837.6125
620.89834	45220.4125
624.89015	42690.8125
628.87913	42268.4125
632.86528	42336.0125
636.84862	42246.2125
640.82913	41747.1125
644.80683	40948.5125
648.78172	40567.3125
652.75379	40597.3125
656.72306	41070.7125
660.68952	41504.9125
664.65319	41343.6125
668.61405	40978.7125
672.57211	41026.7125
676.52738	41282.6125
680.47986	41150.1125
684.42955	40877.4125
688.37646	40763.2125
692.32058	41043.0125
696.26192	41632.4125
700.20048	42158.1125
704.13626	42420.6125
708.06928	42219.4125
711.99952	42027.2125
715.927	41968.6125
719.85171	42063.5125
723.77365	42038.1125
727.69284	41583.2125
731.60928	41068.2125
735.52295	40857.7125
739.43388	40876.8125
743.34206	40993.6125
747.24749	41153.9125
751.15017	41433.0125
755.05012	41907.8125
758.94733	42715.4125
762.8418	44005.5125
766.73354	45995.1125
770.62254	47815.4125
774.50882	48105.5125
778.39237	46704.1125
782.27321	44722.6125
786.15132	43094.6125
790.02671	42005.3125
793.89938	41498.9125
797.76935	41303.2125
801.6366	41186.9125
805.50115	41203.1125
809.36299	41026.4125
813.22213	40781.3125
817.07857	40579.2125
820.93231	40408.8125
824.78336	40258.5125
828.63172	40280.3125
832.47738	40228.9125
836.32036	40245.0125
840.16066	40356.0125
843.99827	40431.6125
847.8332	40390.4125
851.66546	40355.4125
855.49504	40374.5125
859.32195	40409.2125
863.1462	40388.9125
866.96777	40324.8125
870.78668	40361.4125
874.60293	40373.1125
878.41652	40489.6125
882.22745	40703.2125
886.03573	40827.2125
889.84136	40846.3125
893.64433	40769.7125
897.44466	40591.7125
901.24235	40430.1125
905.0374	40330.2125
908.8298	40381.6125
912.61957	40422.9125
916.40671	40576.2125
920.19121	40957.3125
923.97308	41325.7125
927.75233	41473.3125
931.52895	41290.7125
935.30295	40873.9125
939.07433	40486.2125
942.84309	40111.2125
946.60924	39930.4125
950.37278	39950.0125
954.13371	39904.7125
957.89203	39803.5125
961.64774	39723.3125
965.40086	39734.8125
969.15137	39720.5125
972.89929	39741.5125
976.64461	39742.6125
980.38733	39893.0125
984.12747	39984.1125
987.86502	40201.4125
991.59999	40375.2125
995.33237	40755.4125
999.06217	41368.4125
1002.78939	42212.5125
1006.51404	43000.1125
1010.23611	43666.6125
1013.95561	44029.3125
1017.67255	43968.9125
1021.38692	43497.5125
1025.09872	43028.8125
1028.80796	42855.7125
1032.51465	43195.2125
1036.21877	43573.4125
1039.92035	43741.1125
1043.61937	43620.7125
1047.31584	43230.2125
1051.00976	42889.0125
1054.70114	42691.2125
1058.38998	42797.7125
1062.07627	43076.9125
1065.76003	43526.7125
1069.44126	43916.3125
1073.11995	44532.3125
1076.79611	45209.4125
1080.46974	45491.7125
1084.14085	45709.6125
1087.80943	45924.8125
1091.47549	46066.9125
1095.13903	46029.7125
1098.80005	45500.7125
1102.45857	44798.6125
1106.11456	44175.5125
1109.76805	43794.6125
1113.41903	43729.5125
1117.06751	43689.3125
1120.71348	43849.7125
1124.35696	44095.2125
1127.99793	44315.7125
1131.63641	44554.1125
1135.2724	44531.5125
1138.90589	44463.0125
1142.5369	44434.7125
1146.16542	44604.3125
1149.79145	44782.7125
1153.415	44904.8125
1157.03607	45255.6125
1160.65467	46104.7125
1164.27079	47582.2125
1167.88443	49367.1125
1171.49561	51278.2125
1175.10432	53469.0125
1178.71056	56252.5125
1182.31434	59168.5125
1185.91565	61016.8125
1189.51451	61425.0125
1193.11091	60631.4125
1196.70485	59252.5125
1200.29634	57427.0125
1203.88538	56120.4125
1207.47197	55331.5125
1211.05612	54702.8125
1214.63782	53922.7125
1218.21708	52870.9125
1221.79391	51999.3125
1225.36829	51251.3125
1228.94024	50845.0125
1232.50976	50442.1125
1236.07685	50038.2125
1239.6415	49865.8125
1243.20374	49827.4125
1246.76355	50222.1125
1250.32093	50876.4125
1253.8759	51807.4125
1257.42845	52889.2125
1260.97859	54204.8125
1264.52631	55570.0125
1268.07163	56954.5125
1271.61453	58367.5125
1275.15503	59591.3125
1278.69312	60653.6125
1282.22882	61582.1125
1285.76211	62617.7125
1289.29301	63914.1125
1292.82151	65523.1125
1296.34761	67545.4125
1299.87133	70243.2125
1303.39266	73191.0125
1306.9116	76152.9125
1310.42815	78418.1125
1313.94233	79581.2125
1317.45412	79367.4125
1320.96354	78337.5125
1324.47058	77712.8125
1327.97525	77483.8125
1331.47754	77421.5125
1334.97747	77427.6125
1338.47502	77283.0125
1341.97022	76667.9125
1345.46305	75600.2125
1348.95352	74636.8125
1352.44163	74306.8125
1355.92738	75039.5125
1359.41078	77000.1125
1362.89183	78443.5125
1366.37053	77568.1125
1369.84688	73229.3125
1373.32088	67370.4125
1376.79254	62959.5125
1380.26186	61089.8125
1383.72883	60879.3125
1387.19347	60804.4125
1390.65578	60267.6125
1394.11575	59730.9125
1397.57339	59831.1125
1401.0287	60415.7125
1404.48168	61073.1125
1407.93234	61556.6125
1411.38068	61318.4125
1414.82669	60468.7125
1418.27039	59092.1125
1421.71177	57441.1125
1425.15083	56221.0125
1428.58758	55865.9125
1432.02203	56388.9125
1435.45416	57595.2125
1438.88399	58881.5125
1442.31151	59825.2125
1445.73673	60037.8125
1449.15965	60061.0125
1452.58027	59764.4125
1455.9986	59479.1125
1459.41463	59568.3125
1462.82837	60344.1125
1466.23982	61418.9125
1469.64898	62317.8125
1473.05586	62929.0125
1476.46045	63155.3125
1479.86276	62917.5125
1483.26279	62577.3125
1486.66054	62541.2125
1490.05602	62740.2125
1493.44922	63100.7125
1496.84016	63356.4125
1500.22882	63802.5125
1503.61521	64563.6125
1506.99934	65370.0125
1510.38121	66063.2125
1513.76081	65965.3125
1517.13816	64872.1125
1520.51324	63365.9125
1523.88607	62157.1125
1527.25665	61698.5125
1530.62498	61706.5125
1533.99105	61611.2125
1537.35488	61168.6125
1540.71647	60356.9125
1544.07581	59316.1125
1547.4329	58348.3125
1550.78776	57554.3125
1554.14038	56921.4125
1557.49077	56603.0125
1560.83892	56366.1125
1564.18484	56186.5125
1567.52853	56101.3125
1570.86999	56245.3125
1574.20922	56959.8125
1577.54624	57649.5125
1580.88103	58154.5125
1584.2136	58863.7125
1587.54395	60381.1125
1590.87208	62899.6125
1594.19801	66155.3125
1597.52172	69088.3125
1600.84321	69872.5125
1604.16251	67410.2125
1607.47959	63161.1125
1610.79447	58603.2125
1614.10715	54529.8125
1617.41763	51282.8125
1620.7259	49141.3125
1624.03199	48085.1125
1627.33587	48206.5125
1630.63757	49340.9125
1633.93707	51805.8125
1637.23439	55752.9125
1640.52951	61289.4125
1643.82246	67448.8125
1647.11321	71532.4125
1650.40179	71226.5125
1653.68819	66158.9125
1656.97241	58771.5125
1660.25446	52044.8125
1663.53433	47406.8125
1666.81203	44517.6125
1670.08756	42726.0125
1673.36092	41554.6125
1676.63211	40790.3125
1679.90115	40245.6125
1683.16801	39776.2125
1686.43272	39575.3125
1689.69527	39262.9125
1692.95567	39066.5125
1696.2139	38909.7125
1699.46999	38847.9125
1702.72392	38760.9125
1705.97571	38709.4125
1709.22535	38679.1125
1712.47284	38712.4125
1715.71819	38652.9125
1718.96139	38581.5125
1722.20246	38531.6125
1725.44139	38406.7125
1728.67818	38210.9125
1731.91284	38010.6125
1735.14537	37894.9125
1738.37576	37774.9125
1741.60403	37622.7125
1744.83017	37483.7125
1748.05418	37507.3125
1751.27607	37423.7125
1754.49584	37337.6125
1757.71349	37313.6125
1760.92903	37265.5125
1764.14244	37314.9125
1767.35375	37294.0125
1770.56294	37297.2125
1773.77002	37216.9125
1776.97499	37203.8125
1780.17785	37133.2125
1783.37861	37152.9125
1786.57727	37075.2125
1789.77382	36986.0125
1792.96828	36940.2125
1796.16064	36916.6125
1799.3509	36893.7125
1802.53907	36827.4125
1805.72514	36790.3125
1808.90913	36688.2125
1812.09102	36626.5125
1815.27083	36605.0125
1818.44856	36571.9125
1821.6242	36556.4125
1824.79776	36482.3125
1827.96924	36517.5125
1831.13864	36480.8125
1834.30597	36568.6125
1837.47122	36580.7125
1840.6344	36567.3125
1843.7955	36606.6125
1846.95454	36595.6125
1850.11151	36554.6125
1853.26642	36513.1125
1856.41926	36453.0125
1859.57004	36482.1125
1862.71876	36500.2125
1865.86542	36439.3125
1869.01003	36388.1125
1872.15258	36327.9125
1875.29308	36343.6125
1878.43152	36287.7125
1881.56792	36282.3125
1884.70227	36246.6125
1887.83457	36255.9125
1890.96482	36209.4125
1894.09304	36111.4125
1897.21921	36096.9125
1900.34335	36086.3125
1903.46544	36057.2125
1906.58551	35997.2125
1909.70353	35935.7125
1912.81953	35883.5125
1915.93349	35801.3125
1919.04543	35763.8125
1922.15534	35634.9125
1925.26322	35672.2125
1928.36908	35564.1125
1931.47292	35490.2125
1934.57473	35448.2125
1937.67453	35358.5125
1940.77232	35291.7125
1943.86808	35219.8125
1946.96184	35145.1125
1950.05358	35061.0125
1953.14331	34974.7125
1956.23103	34911.5125
1959.31675	34775.8125
1962.40046	34676.3125
1965.48217	34627.4125
1968.56188	34636.4125
1971.63959	34477.1125
1974.7153	34385.5125
1977.78901	34259.9125
1980.86073	34207.9125
1983.93046	34103.4125
1986.99819	34000.9125
1990.06394	33851.1125
1993.1277	33807.6125
1996.18947	33718.2125
1999.24925	33637.0125
2002.30706	33508.9125
2005.36288	33442.8125
2008.41672	33389.5125
2011.46859	33300.2125
2014.51848	33225.5125
2017.56639	33103.6125
2020.61233	33077.2125
2023.6563	33027.7125
2026.6983	33009.6125
2029.73833	32921.9125
2032.7764	32830.9125
2035.8125	32799.9125
2038.84664	32778.2125
2041.87881	32761.6125
2044.90903	32684.8125
2047.93729	32626.8125
2050.96359	32619.6125
2053.98794	32562.1125
2057.01034	32500.2125
2060.03078	32505.1125
2063.04927	32499.2125
2066.06582	32504.8125
2069.08042	32472.4125
2072.09307	32416.5125
2075.10378	32442.6125
2078.11255	32367.7125
2081.11938	32364.0125
2084.12426	32355.0125
2087.12722	32369.1125
2090.12824	32358.2125
2093.12732	32388.2125
2096.12447	32468.6125
2099.11969	32442.4125
2102.11299	32449.7125
2105.10435	32484.0125
2108.09379	32503.3125
2111.08131	32532.5125
2114.0669	32616.3125
2117.05057	32613.0125
2120.03233	32600.3125
2123.01216	32637.6125
2125.99008	32661.1125
2128.96609	32673.8125
2131.94018	32716.5125
2134.91236	32750.5125
2137.88263	32757.2125
2140.851	32752.6125
2143.81746	32853.0125
2146.78201	32816.0125
2149.74466	32858.1125
2152.7054	32849.0125
2155.66425	32821.0125
2158.6212	32865.7125
2161.57625	32860.0125
2164.52941	32892.5125
2167.48067	32904.2125
2170.43004	32866.0125
2173.37752	32890.1125
2176.32311	32893.5125
2179.26681	32860.0125
2182.20863	32840.9125
2185.14856	32893.8125
2188.08661	32919.7125
2191.02278	32900.4125
2193.95707	32876.6125
2196.88948	32849.4125
2199.82001	32862.9125
2202.74867	32813.3125
2205.67545	32812.1125
2208.60037	32821.0125
2211.52341	32779.7125
2214.44458	32695.4125
2217.36388	32636.8125
2220.28132	32573.6125
2223.1969	32530.2125
2226.11061	32506.8125
2229.02246	32501.6125
2231.93245	32444.4125
2234.84058	32417.8125
2237.74686	32362.7125
2240.65128	32344.4125
2243.55385	32282.9125
2246.45456	32209.4125
2249.35343	32202.9125
2252.25044	32183.7125
2255.14561	32111.9125
2258.03893	32109.2125
2260.93041	32061.8125
2263.82004	31937.2125
2266.70783	31913.3125
2269.59378	31846.2125
2272.4779	31796.2125
2275.36017	31722.7125
2278.24061	31716.2125
2281.11922	31611.5125
2283.996	31596.0125
2286.87094	31548.8125
2289.74405	31478.8125
2292.61534	31527.3125
2295.4848	31512.3125
2298.35243	31519.9125
2301.21824	31550.0125
2304.08223	31546.8125
2306.94439	31520.1125
2309.80474	31468.7125
2312.66327	31506.8125
2315.51999	31483.9125
2318.37489	31471.5125
2321.22797	31421.5125
2324.07925	31420.1125
2326.92871	31364.2125
2329.77637	31336.9125
2332.62222	31284.1125
2335.46626	31246.0125
2338.3085	31240.6125
2341.14893	31260.5125
2343.98756	31235.9125
2346.8244	31226.0125
2349.65943	31214.9125
2352.49267	31167.3125
2355.32411	31164.4125
2358.15376	31156.0125
2360.98161	31105.5125
2363.80768	31097.4125
2366.63195	31069.9125
2369.45444	31014.2125
2372.27514	30990.8125
2375.09405	30960.9125
2377.91118	30909.8125
2380.72652	30839.3125
2383.54009	30835.3125
2386.35187	30759.9125
2389.16188	30739.2125
2391.97011	30695.4125
2394.77657	30645.1125
2397.58125	30564.6125
2400.38416	30595.5125
2403.18529	30525.7125
2405.98466	30529.3125
2408.78226	30481.1125
2411.57809	30477.3125
2414.37216	30406.6125
2417.16446	30421.0125
2419.955	30353.6125
2422.74378	30366.6125
2425.5308	30320.9125
2428.31606	30298.2125
2431.09956	30301.4125
2433.88131	30268.0125
2436.6613	30249.5125
2439.43954	30263.0125
2442.21603	30279.5125
2444.99077	30238.0125
2447.76377	30250.3125
2450.53501	30147.9125
2453.30451	30217.7125
2456.07226	30221.7125
2458.83827	30214.9125
2461.60254	30117.8125
2464.36507	30183.3125
2467.12586	30091.2125
2469.88492	30072.0125
2472.64224	30051.2125
2475.39782	30062.0125
2478.15167	30101.1125
2480.90379	30079.6125
2483.65417	30061.9125
2486.40283	30074.1125
2489.14976	30090.4125
2491.89497	30032.7125
2494.63845	30027.7125
2497.3802	30052.2125
2500.12024	30029.5125
2502.85855	30002.7125
2505.59514	30002.2125
2508.33002	30014.5125
2511.06318	29921.2125
2513.79462	29935.5125
2516.52435	29939.5125
2519.25237	29957.3125
2521.97867	29891.6125
2524.70327	29896.5125
2527.42616	29861.2125
2530.14734	29862.3125
2532.86681	29835.7125
2535.58458	29789.6125
2538.30065	29774.9125
2541.01501	29741.0125
2543.72768	29712.8125
2546.43864	29699.7125
2549.14791	29660.0125
2551.85548	29637.3125
2554.56136	29604.9125
2557.26554	29594.4125
2559.96803	29534.5125
2562.66883	29530.8125
2565.36794	29483.8125
2568.06536	29475.8125
2570.7611	29492.9125
2573.45514	29464.9125
2576.14751	29398.9125
2578.83819	29378.5125
2581.52719	29353.7125
2584.21451	29336.0125
2586.90015	29314.9125
2589.58411	29302.4125
2592.2664	29271.9125
2594.94701	29184.7125
2597.62594	29188.2125
2600.30321	29100.8125
2602.9788	29132.5125
2605.65273	29075.7125
2608.32498	29127.6125
2610.99557	29063.0125
2613.66449	29052.9125
2616.33175	29033.8125
2618.99734	28994.4125
2621.66128	29018.6125
2624.32355	28926.1125
2626.98416	28900.9125
2629.64311	28902.1125
2632.30041	28898.1125
2634.95605	28876.9125
2637.61004	28844.6125
2640.26238	28807.7125
2642.91306	28817.6125
2645.56209	28770.1125
2648.20948	28782.5125
2650.85521	28758.3125
2653.4993	28766.2125
2656.14175	28796.0125
2658.78255	28786.1125
2661.42171	28806.0125
2664.05923	28846.0125
2666.6951	28842.6125
2669.32934	28872.8125
2671.96194	28821.9125
2674.59291	28854.5125
2677.22224	28838.6125
2679.84993	28869.8125
2682.476	28818.1125
2685.10043	28868.4125
2687.72324	28838.3125
2690.34441	28860.0125
2692.96396	28835.7125
2695.58188	28855.0125
2698.19818	28788.9125
2700.81285	28817.7125
2703.4259	28778.2125
2706.03733	28840.4125
2708.64714	28856.5125
2711.25533	28922.3125
2713.86191	28865.5125
2716.46687	28896.8125
2719.07021	28866.6125
2721.67194	28908.3125
2724.27206	28855.4125
2726.87057	28879.9125
2729.46747	28905.5125
2732.06276	28926.6125
2734.65644	28916.1125
2737.24852	28909.9125
2739.83899	28884.3125
2742.42786	28892.0125
2745.01513	28892.7125
2747.60079	28892.5125
2750.18486	28851.3125
2752.76733	28821.9125
2755.3482	28815.5125
2757.92747	28787.8125
2760.50515	28766.8125
2763.08123	28765.6125
2765.65573	28715.9125
2768.22863	28737.5125
2770.79994	28682.5125
2773.36967	28692.6125
2775.9378	28677.9125
2778.50435	28639.4125
2781.06932	28594.1125
2783.6327	28636.7125
2786.1945	28540.9125
2788.75471	28554.0125
2791.31335	28469.1125
2793.87041	28453.4125
2796.42589	28409.3125
2798.97979	28364.8125
2801.53212	28343.8125
2804.08288	28285.2125
2806.63206	28215.9125
2809.17967	28177.0125
2811.72571	28105.9125
2814.27018	28076.7125
2816.81308	28031.4125
2819.35442	28018.3125
2821.89419	27904.7125
2824.43239	27900.7125
2826.96904	27877.0125
2829.50412	27874.0125
2832.03763	27789.6125
2834.56959	27800.1125
2837.1	27760.0125
2839.62884	27748.7125
2842.15613	27712.0125
2844.68186	27736.6125
2847.20604	27727.1125
2849.72867	27692.4125
2852.24974	27665.5125
2854.76927	27641.6125
2857.28724	27647.0125
2859.80367	27620.5125
2862.31855	27531.8125
2864.83189	27558.7125
2867.34368	27519.3125
2869.85393	27586.6125
2872.36264	27515.8125
2874.8698	27490.3125
2877.37543	27510.3125
2879.87952	27531.7125
2882.38207	27586.9125
2884.88308	27564.8125
2887.38256	27591.3125
2889.88051	27614.1125
2892.37692	27592.8125
2894.8718	27586.5125
2897.36515	27589.0125
2899.85698	27579.3125
2902.34727	27692.0125
2904.83604	27667.6125
2907.32328	27651.6125
2909.809	27662.2125
2912.29319	27725.8125
2914.77587	27667.5125
2917.25702	27675.6125
2919.73665	27588.6125
2922.21476	27672.7125
2924.69136	27585.0125
2927.16644	27591.8125
2929.64	27518.1125
2932.11205	27557.2125
2934.58258	27420.6125
2937.05161	27547.6125
2939.51912	27540.7125
2941.98513	27508.7125
2944.44962	27468.1125
2946.91261	27348.2125
2949.37409	27400.2125
2951.83407	27383.9125
2954.29254	27367.0125
2956.74951	27374.4125
2959.20498	27311.1125
2961.65895	27231.8125
2964.11142	27244.3125
2966.56239	27166.2125
2969.01186	27185.6125
2971.45984	27126.5125
2973.90632	27108.4125
2976.35131	27035.3125
2978.7948	26978.9125
2981.23681	26965.0125
2983.67732	26926.6125
2986.11635	26838.5125
2988.55388	26798.8125
2990.98993	26733.3125
2993.4245	26737.1125
2995.85758	26657.3125
2998.28917	26570.1125
3000.71928	26534.3125
3003.14791	26529.2125
3005.57506	26525.6125
3008.00073	26426.4125
3010.42493	26412.5125
3012.84764	26368.2125
3015.26888	26358.4125
3017.68865	26338.1125
3020.10694	26293.6125
3022.52376	26229.0125
3024.9391	26164.3125
3027.35298	26149.0125
3029.76539	26114.6125
3032.17632	26077.2125
3034.5858	26056.9125
3036.9938	25982.6125
3039.40034	26011.7125
3041.80542	25988.0125
3044.20903	25939.8125
3046.61118	25954.7125
3049.01187	25879.4125
3051.4111	25848.1125
3053.80888	25774.0125
3056.20519	25751.7125
3058.60005	25670.7125
3060.99345	25689.0125
3063.3854	25585.8125
3065.7759	25520.7125
3068.16494	25481.6125
3070.55254	25420.2125
3072.93868	25427.9125
3075.32338	25305.7125
3077.70662	25298.3125
3080.08842	25238.0125
3082.46878	25235.0125
3084.84769	25177.7125
3087.22515	25202.4125
3089.60118	25197.4125
3091.97576	25154.8125
3094.3489	25178.3125
3096.72061	25166.6125
3099.09087	25125.7125
3101.4597	25091.0125
3103.82709	25084.2125
3106.19305	25002.3125
3108.55757	24996.1125
3110.92066	24917.4125
3113.28232	24897.5125
3115.64255	24823.9125
3118.00134	24785.3125
3120.35871	24736.6125
3122.71466	24689.0125
3125.06917	24623.7125
3127.42226	24582.8125
3129.77393	24591.9125
3132.12417	24527.9125
3134.47299	24564.3125
3136.82039	24553.8125
3139.16636	24571.8125
3141.51092	24550.5125
3143.85406	24549.6125
3146.19579	24539.2125
3148.53609	24546.2125
3150.87499	24564.7125
3153.21246	24531.8125
3155.54853	24567.6125
3157.88318	24481.2125
3160.21642	24502.6125
3162.54826	24517.8125
3164.87868	24449.0125
3167.2077	24436.2125
3169.5353	24453.1125
3171.86151	24419.7125
3174.18631	24385.4125
3176.5097	24338.2125
3178.83169	24325.6125
3181.15228	24327.3125
3183.47147	24282.0125
3185.78926	24255.4125
3188.10565	24249.0125
3190.42065	24247.8125
3192.73424	24197.4125
3195.04645	24211.6125
3197.35725	24202.6125
3199.66667	24173.6125
3201.97469	24207.9125
3204.28132	24190.5125
3206.58656	24195.2125
3208.8904	24207.7125
3211.19287	24189.9125
3213.49394	24196.5125
3215.79363	24169.2125
3218.09193	24169.0125
3220.38884	24126.0125
3222.68438	24109.9125
3224.97853	24074.1125
3227.2713	24085.7125
3229.56269	24021.1125
3231.8527	24030.5125
3234.14133	23960.7125
3236.42858	23937.5125
3238.71446	23883.3125
3240.99896	23857.7125
3243.28209	23871.3125
3245.56384	23851.0125
3247.84423	23880.2125
3250.12324	23843.7125
3252.40088	23844.9125
3254.67715	23827.9125
3256.95205	23730.6125
3259.22558	23720.1125
3261.49775	23704.1125
3263.76855	23614.6125
3266.03799	23578.6125
3268.30606	23569.4125
3270.57277	23473.7125
3272.83812	23503.3125
3275.10211	23469.5125
3277.36474	23441.4125
3279.62601	23446.0125
3281.88593	23412.1125
3284.14448	23468.4125
3286.40168	23397.7125
3288.65753	23387.4125
3290.91202	23309.9125
3293.16516	23223.0125
3295.41695	23191.1125
3297.66738	23067.1125
3299.91647	22930.4125
3302.16421	22848.7125
3304.4106	22734.7125
3306.65564	22628.1125
3308.89933	22509.9125
3311.14169	22372.3125
3313.38269	22183.6125
3315.62236	22080.3125
3317.86068	21919.0125
3320.09766	21677.7125
3322.3333	21510.8125
3324.5676	21498.1125
3326.80056	21128.7125
3329.03219	21045.6125
3331.26248	3.8125
3333.49143	0.4125
3335.71905	-0.5875
