Data from AgNPs_FTO_APTES_UA_100uM_R6G_10uM_NaF_0.1M_Addition_RamanShift__18__15-38-07-464.txt Node

Date: Fri Dec 17 15:38:07 GMT 2021
User: TCL
Spectrometer: QEP01345
Trigger mode: 4
Integration Time (sec): 7.000000E0
Scans to average: 10
Electric dark correction enabled: true
Nonlinearity correction enabled: false
Boxcar width: 0
XAxis mode: Raman Shifts
Number of Pixels in Spectrum: 1044
>>>>>Begin Spectral Data<<<<<
46.04893	-0.4
50.45542	0.1
54.85868	-1.1
59.25871	0.4
63.6555	60
68.04907	61.6
72.43941	64.1
76.82654	73.7
81.21044	72.9
85.59113	73.2
89.96862	78.4
94.34289	83.2
98.71396	84.4
103.08183	84.4
107.4465	89.8
111.80798	89.5
116.16626	95
120.52136	92.9
124.87327	97.6
129.222	100.8
133.56755	105.6
137.90993	114.1
142.24913	118.3
146.58517	130.2
150.91804	147.1
155.24774	172.4
159.57429	208.4
163.89768	262.9
168.21792	338.4
172.53501	456.1
176.84895	619.6
181.15975	867.8
185.46741	1206.8
189.77193	1668.1
194.07331	2227.1
198.37157	2878.1
202.6667	3555.4
206.9587	4221.9
211.24758	4887.9
215.53334	5538.4
219.81599	6246.2
224.09553	7001.4
228.37195	7849.1
232.64527	8813.2
236.91549	9864.1
241.18261	10903.1
245.44663	11892.3
249.70755	12731.7
253.96539	13436
258.22014	14060.5
262.4718	14560.2
266.72039	14907.1
270.96589	15091.7
275.20832	15107.6
279.44768	14981.6
283.68397	14789.7
287.91719	14619.3
292.14735	14486.1
296.37445	14488.7
300.59849	14558
304.81948	14631.3
309.03742	14607.6
313.25231	14399.2
317.46415	14049.8
321.67296	13623.5
325.87872	13286
330.08145	13156.3
334.28114	13152.3
338.47781	13298.8
342.67145	13504.3
346.86207	13727.6
351.04966	14013
355.23424	14323.4
359.4158	14623.8
363.59435	14845.7
367.76989	15042.8
371.94243	15169
376.11196	15275.2
380.27849	15384.6
384.44203	15482.5
388.60257	15538.6
392.76012	15642
396.91468	15759.4
401.06626	15987.2
405.21485	16105.5
409.36047	15961.8
413.50311	15659.9
417.64277	15375.5
421.77947	15144.1
425.9132	15024.6
430.04396	15052.6
434.17176	15106
438.2966	15212.6
442.41849	15363.9
446.53742	15595.2
450.6534	15827.3
454.76644	16068.1
458.87653	16229.9
462.98368	16276.2
467.08789	16261.8
471.18916	16184.9
475.2875	16073.5
479.38291	15953.2
483.4754	15828.6
487.56496	15728.9
491.6516	15599.3
495.73531	15570.8
499.81612	15599.2
503.89401	15719.8
507.96899	15815.5
512.04106	15888.4
516.11023	15954
520.1765	16002.4
524.23987	15983.1
528.30034	15932.7
532.35792	15874.5
536.41261	15888.3
540.46441	15800.6
544.51333	15720.4
548.55936	15738.7
552.60252	15764.9
556.64279	15887.1
560.6802	15906
564.71473	15887.4
568.7464	15914.9
572.7752	16007.6
576.80114	16014.1
580.82422	16025.5
584.84444	16097.2
588.86181	16122.4
592.87633	16111.5
596.888	16206.8
600.89682	16511
604.9028	17363.2
608.90594	19304.9
612.90624	21422.5
616.90371	20688.5
620.89834	17458.7
624.89015	15922.1
628.87913	15676.7
632.86528	15869
636.84862	16148.9
640.82913	16142.9
644.80683	15759.7
648.78172	15365.6
652.75379	15209.5
656.72306	15318.3
660.68952	15566.6
664.65319	15560.1
668.61405	15378.2
672.57211	15361.4
676.52738	15462.6
680.47986	15514.6
684.42955	15388.3
688.37646	15207.9
692.32058	15114.1
696.26192	15151.6
700.20048	15185.4
704.13626	15241.8
708.06928	15265.7
711.99952	15217.6
715.927	15163.9
719.85171	15188.4
723.77365	15187.4
727.69284	15166
731.60928	15120.4
735.52295	15115.6
739.43388	15193.6
743.34206	15215.2
747.24749	15223.8
751.15017	15158.7
755.05012	15144.4
758.94733	15371.6
762.8418	16038.4
766.73354	17258.5
770.62254	18748.7
774.50882	19726.8
778.39237	19257.1
782.27321	17740.8
786.15132	16317.4
790.02671	15417.5
793.89938	14984.8
797.76935	14767.7
801.6366	14716.9
805.50115	14674.8
809.36299	14616.4
813.22213	14529.4
817.07857	14489
820.93231	14419.6
824.78336	14410.5
828.63172	14412.5
832.47738	14383.6
836.32036	14370.8
840.16066	14304.6
843.99827	14273.1
847.8332	14286.5
851.66546	14253.3
855.49504	14246
859.32195	14302.1
863.1462	14335.9
866.96777	14371.1
870.78668	14385.7
874.60293	14372.8
878.41652	14346.2
882.22745	14371.7
886.03573	14476.4
889.84136	14525.1
893.64433	14467.4
897.44466	14388.6
901.24235	14298.5
905.0374	14184.2
908.8298	14109
912.61957	14064.1
916.40671	14120.1
920.19121	14163.6
923.97308	14227.3
927.75233	14255.3
931.52895	14265
935.30295	14164.5
939.07433	14019.4
942.84309	13870.3
946.60924	13796.2
950.37278	13785.5
954.13371	13712
957.89203	13664.1
961.64774	13593.5
965.40086	13507
969.15137	13466
972.89929	13403.3
976.64461	13354.5
980.38733	13336.8
984.12747	13350.8
987.86502	13392
991.59999	13407
995.33237	13521.4
999.06217	13685.4
1002.78939	13846.2
1006.51404	14012.7
1010.23611	14192.2
1013.95561	14314.6
1017.67255	14392.1
1021.38692	14361
1025.09872	14204
1028.80796	14080.4
1032.51465	14083.1
1036.21877	14179.3
1039.92035	14227.8
1043.61937	14267.1
1047.31584	14289.7
1051.00976	14251.4
1054.70114	14295.3
1058.38998	14271
1062.07627	14340.6
1065.76003	14453.3
1069.44126	14561.7
1073.11995	14717.7
1076.79611	14865.1
1080.46974	14889.9
1084.14085	14880.1
1087.80943	14908.1
1091.47549	15000.6
1095.13903	14988.2
1098.80005	14879.7
1102.45857	14704.7
1106.11456	14549.1
1109.76805	14527.9
1113.41903	14619.5
1117.06751	14754
1120.71348	14967.5
1124.35696	15225.3
1127.99793	15511.8
1131.63641	15807.8
1135.2724	15799.3
1138.90589	15577.1
1142.5369	15340.8
1146.16542	15074.9
1149.79145	14854.7
1153.415	14718
1157.03607	14734
1160.65467	14861.3
1164.27079	15231.9
1167.88443	15718.8
1171.49561	16383.2
1175.10432	17318.3
1178.71056	18533.1
1182.31434	19643.8
1185.91565	20269.3
1189.51451	20333.8
1193.11091	19905.7
1196.70485	19170.3
1200.29634	18430.1
1203.88538	17723.3
1207.47197	17098.1
1211.05612	16443.6
1214.63782	16061.7
1218.21708	15795.3
1221.79391	15645.6
1225.36829	15606.5
1228.94024	15563.6
1232.50976	15560.2
1236.07685	15542.8
1239.6415	15583.3
1243.20374	15586.9
1246.76355	15685.7
1250.32093	15827.9
1253.8759	16059.3
1257.42845	16410
1260.97859	16677.1
1264.52631	17032.8
1268.07163	17395.7
1271.61453	17729.6
1275.15503	18068.8
1278.69312	18364.7
1282.22882	18630.9
1285.76211	18863
1289.29301	19227.7
1292.82151	19740.3
1296.34761	20339.1
1299.87133	21016.5
1303.39266	21814.4
1306.9116	22814
1310.42815	23737.4
1313.94233	24249.1
1317.45412	24066.8
1320.96354	23445.3
1324.47058	22773.8
1327.97525	22152.8
1331.47754	21629.6
1334.97747	21365.7
1338.47502	21385.8
1341.97022	21640.1
1345.46305	22163.1
1348.95352	22804.3
1352.44163	23686
1355.92738	24799.2
1359.41078	26106.8
1362.89183	27186.1
1366.37053	26742.6
1369.84688	24236.4
1373.32088	21477.8
1376.79254	19666
1380.26186	18673.4
1383.72883	18157.6
1387.19347	17845.4
1390.65578	17510.3
1394.11575	17219
1397.57339	17052.9
1401.0287	16939.1
1404.48168	16958.8
1407.93234	16954.7
1411.38068	16855.3
1414.82669	16672.7
1418.27039	16416.7
1421.71177	16141
1425.15083	15898.4
1428.58758	15678
1432.02203	15664.6
1435.45416	15781.5
1438.88399	15966.8
1442.31151	16167.8
1445.73673	16331.1
1449.15965	16513
1452.58027	16696.8
1455.9986	16903
1459.41463	17143.5
1462.82837	17375.3
1466.23982	17601.7
1469.64898	17789.7
1473.05586	17922.4
1476.46045	17952
1479.86276	17961.9
1483.26279	17921.9
1486.66054	17979.8
1490.05602	18114.3
1493.44922	18371.7
1496.84016	18907
1500.22882	19825.8
1503.61521	21078.9
1506.99934	22592.9
1510.38121	23826.7
1513.76081	24213.6
1517.13816	23424.1
1520.51324	21908
1523.88607	20432
1527.25665	19393.7
1530.62498	18826.2
1533.99105	18465
1537.35488	18187.7
1540.71647	17981.5
1544.07581	17825.7
1547.4329	17618.3
1550.78776	17513.9
1554.14038	17482.3
1557.49077	17561.8
1560.83892	17728.9
1564.18484	17916.9
1567.52853	18054.4
1570.86999	18243
1574.20922	18406.5
1577.54624	18461.6
1580.88103	18175.9
1584.2136	17703.2
1587.54395	17346.9
1590.87208	17336.4
1594.19801	17723.2
1597.52172	18351.6
1600.84321	18645.4
1604.16251	18381.3
1607.47959	17723.7
1610.79447	17020.3
1614.10715	16301.8
1617.41763	15549.7
1620.7259	14974.5
1624.03199	14638.7
1627.33587	14502.4
1630.63757	14637
1633.93707	14938.3
1637.23439	15587.1
1640.52951	16560.5
1643.82246	17798.6
1647.11321	19075.2
1650.40179	19903.6
1653.68819	19613.8
1656.97241	18203.2
1660.25446	16396
1663.53433	15021
1666.81203	14063.1
1670.08756	13436.1
1673.36092	13039.4
1676.63211	12727.7
1679.90115	12513.4
1683.16801	12350.4
1686.43272	12236.1
1689.69527	12136.7
1692.95567	12045.2
1696.2139	12001.8
1699.46999	11968.4
1702.72392	11888.9
1705.97571	11872
1709.22535	11814.2
1712.47284	11761.4
1715.71819	11722.7
1718.96139	11685.8
1722.20246	11639.4
1725.44139	11615.2
1728.67818	11563.1
1731.91284	11504.1
1735.14537	11454.6
1738.37576	11396.4
1741.60403	11342.8
1744.83017	11312.8
1748.05418	11285.8
1751.27607	11259.4
1754.49584	11220.3
1757.71349	11255
1760.92903	11234.5
1764.14244	11205.9
1767.35375	11212.9
1770.56294	11177.6
1773.77002	11188.8
1776.97499	11148.1
1780.17785	11121.2
1783.37861	11096.2
1786.57727	11061.7
1789.77382	11041
1792.96828	11030.9
1796.16064	10998.2
1799.3509	10973.7
1802.53907	10970.3
1805.72514	10948.9
1808.90913	10914.6
1812.09102	10891.2
1815.27083	10848.7
1818.44856	10832.8
1821.6242	10801.9
1824.79776	10802
1827.96924	10782.2
1831.13864	10795.6
1834.30597	10778
1837.47122	10776.1
1840.6344	10765.6
1843.7955	10752.1
1846.95454	10723.3
1850.11151	10747.6
1853.26642	10712.5
1856.41926	10703.3
1859.57004	10713.8
1862.71876	10676.2
1865.86542	10658.6
1869.01003	10682.6
1872.15258	10642.7
1875.29308	10628.6
1878.43152	10619.8
1881.56792	10615.7
1884.70227	10582.6
1887.83457	10625.3
1890.96482	10578
1894.09304	10564.1
1897.21921	10563.3
1900.34335	10569.8
1903.46544	10539.2
1906.58551	10514.6
1909.70353	10523.5
1912.81953	10491.2
1915.93349	10487
1919.04543	10476.2
1922.15534	10464.2
1925.26322	10439.1
1928.36908	10407.6
1931.47292	10380.4
1934.57473	10369.6
1937.67453	10334.9
1940.77232	10296
1943.86808	10278
1946.96184	10266.8
1950.05358	10236.3
1953.14331	10217.8
1956.23103	10186.8
1959.31675	10171.5
1962.40046	10122.3
1965.48217	10118.3
1968.56188	10102.3
1971.63959	10046.9
1974.7153	10005.8
1977.78901	9994.5
1980.86073	9976.7
1983.93046	9919.1
1986.99819	9881.9
1990.06394	9876.9
1993.1277	9830.8
1996.18947	9791.1
1999.24925	9781.7
2002.30706	9770.5
2005.36288	9728
2008.41672	9701.4
2011.46859	9661
2014.51848	9648.1
2017.56639	9610.6
2020.61233	9577.3
2023.6563	9575.8
2026.6983	9549.1
2029.73833	9513.9
2032.7764	9511.6
2035.8125	9481
2038.84664	9465.7
2041.87881	9452.6
2044.90903	9448.8
2047.93729	9406.7
2050.96359	9408.5
2053.98794	9378.1
2057.01034	9393.5
2060.03078	9350
2063.04927	9358.3
2066.06582	9371
2069.08042	9355.9
2072.09307	9348.3
2075.10378	9329.3
2078.11255	9317.5
2081.11938	9326.2
2084.12426	9317.2
2087.12722	9301.6
2090.12824	9304
2093.12732	9324.2
2096.12447	9296.9
2099.11969	9315.2
2102.11299	9311.3
2105.10435	9338.4
2108.09379	9306
2111.08131	9335.1
2114.0669	9340.7
2117.05057	9329
2120.03233	9344.4
2123.01216	9357.4
2125.99008	9382.9
2128.96609	9374.9
2131.94018	9380.1
2134.91236	9387.3
2137.88263	9388.3
2140.851	9385.2
2143.81746	9434.4
2146.78201	9407.2
2149.74466	9394.7
2152.7054	9395
2155.66425	9398.1
2158.6212	9398.2
2161.57625	9383.2
2164.52941	9374.3
2167.48067	9389.4
2170.43004	9381
2173.37752	9386.6
2176.32311	9387.5
2179.26681	9394
2182.20863	9377.9
2185.14856	9361
2188.08661	9356.8
2191.02278	9353.8
2193.95707	9342.6
2196.88948	9339.1
2199.82001	9333.1
2202.74867	9311.9
2205.67545	9318.5
2208.60037	9306.3
2211.52341	9277
2214.44458	9278.8
2217.36388	9261.9
2220.28132	9238.7
2223.1969	9227.3
2226.11061	9213.1
2229.02246	9208.3
2231.93245	9205.8
2234.84058	9150.9
2237.74686	9145.5
2240.65128	9146.1
2243.55385	9131.5
2246.45456	9103.5
2249.35343	9127.2
2252.25044	9110.2
2255.14561	9070
2258.03893	9091.8
2260.93041	9067.9
2263.82004	9054.3
2266.70783	9011.9
2269.59378	9007.5
2272.4779	8981.9
2275.36017	8962.3
2278.24061	8936.1
2281.11922	8931.1
2283.996	8923.5
2286.87094	8887.9
2289.74405	8870.1
2292.61534	8870.4
2295.4848	8844.2
2298.35243	8853.5
2301.21824	8860
2304.08223	8856.1
2306.94439	8857.1
2309.80474	8832.1
2312.66327	8826.5
2315.51999	8820.8
2318.37489	8822.5
2321.22797	8808.9
2324.07925	8780
2326.92871	8778.5
2329.77637	8780
2332.62222	8758.2
2335.46626	8758.1
2338.3085	8731.4
2341.14893	8729
2343.98756	8705.6
2346.8244	8720.9
2349.65943	8718.2
2352.49267	8708.5
2355.32411	8712.1
2358.15376	8727.9
2360.98161	8713.1
2363.80768	8709.3
2366.63195	8704.7
2369.45444	8692.2
2372.27514	8666.7
2375.09405	8676.5
2377.91118	8666.3
2380.72652	8656
2383.54009	8626.3
2386.35187	8595.9
2389.16188	8588.5
2391.97011	8550.2
2394.77657	8554.4
2397.58125	8522.2
2400.38416	8505.4
2403.18529	8493.6
2405.98466	8489.3
2408.78226	8474
2411.57809	8459.3
2414.37216	8433.5
2417.16446	8434.3
2419.955	8454.1
2422.74378	8444
2425.5308	8436
2428.31606	8449.9
2431.09956	8405.3
2433.88131	8416.6
2436.6613	8405.4
2439.43954	8386.7
2442.21603	8399.5
2444.99077	8400.3
2447.76377	8381.4
2450.53501	8401.4
2453.30451	8371.6
2456.07226	8358.6
2458.83827	8357.3
2461.60254	8345.4
2464.36507	8334
2467.12586	8337.4
2469.88492	8330.7
2472.64224	8330.6
2475.39782	8339.8
2478.15167	8355.3
2480.90379	8357.5
2483.65417	8342
2486.40283	8325.9
2489.14976	8328
2491.89497	8327.5
2494.63845	8329.2
2497.3802	8334.8
2500.12024	8311.5
2502.85855	8307.1
2505.59514	8291.9
2508.33002	8294
2511.06318	8279.1
2513.79462	8261.5
2516.52435	8241.3
2519.25237	8210.8
2521.97867	8225.3
2524.70327	8212.6
2527.42616	8186.4
2530.14734	8180.5
2532.86681	8174.4
2535.58458	8198.7
2538.30065	8150.8
2541.01501	8164.6
2543.72768	8146.3
2546.43864	8133.7
2549.14791	8124.6
2551.85548	8116.7
2554.56136	8104.6
2557.26554	8096.5
2559.96803	8099.8
2562.66883	8097.8
2565.36794	8075.2
2568.06536	8083.7
2570.7611	8063.7
2573.45514	8048.8
2576.14751	8029.7
2578.83819	8031.9
2581.52719	8014.4
2584.21451	8009.5
2586.90015	7995.9
2589.58411	7976
2592.2664	7976.1
2594.94701	7951.4
2597.62594	7945.9
2600.30321	7919.4
2602.9788	7925.1
2605.65273	7901.5
2608.32498	7895.1
2610.99557	7909.5
2613.66449	7886.4
2616.33175	7886.7
2618.99734	7891.2
2621.66128	7856.2
2624.32355	7845.5
2626.98416	7849.5
2629.64311	7860.2
2632.30041	7863.2
2634.95605	7828.7
2637.61004	7817.5
2640.26238	7821.9
2642.91306	7800.4
2645.56209	7797.2
2648.20948	7814.8
2650.85521	7801.8
2653.4993	7805.2
2656.14175	7815.9
2658.78255	7799
2661.42171	7803.7
2664.05923	7788.6
2666.6951	7773.5
2669.32934	7805.5
2671.96194	7783.6
2674.59291	7806.1
2677.22224	7769.2
2679.84993	7804.1
2682.476	7804.6
2685.10043	7777.9
2687.72324	7781.6
2690.34441	7767.3
2692.96396	7785
2695.58188	7786
2698.19818	7784.8
2700.81285	7794.5
2703.4259	7790.3
2706.03733	7807.2
2708.64714	7787.4
2711.25533	7794.2
2713.86191	7795.6
2716.46687	7787.6
2719.07021	7809
2721.67194	7765.6
2724.27206	7763.5
2726.87057	7788.5
2729.46747	7777.1
2732.06276	7766.2
2734.65644	7767.1
2737.24852	7781.2
2739.83899	7773.8
2742.42786	7766.4
2745.01513	7758.8
2747.60079	7730.9
2750.18486	7751.2
2752.76733	7737.4
2755.3482	7728.1
2757.92747	7737.9
2760.50515	7734.4
2763.08123	7713.1
2765.65573	7707.6
2768.22863	7683.4
2770.79994	7690.2
2773.36967	7714.2
2775.9378	7666.8
2778.50435	7672.2
2781.06932	7677.8
2783.6327	7646.1
2786.1945	7675.9
2788.75471	7631.4
2791.31335	7597
2793.87041	7597.5
2796.42589	7603.8
2798.97979	7593.1
2801.53212	7561.2
2804.08288	7557.8
2806.63206	7536.8
2809.17967	7515.2
2811.72571	7507.9
2814.27018	7499.4
2816.81308	7485.9
2819.35442	7478.1
2821.89419	7461.6
2824.43239	7465.3
2826.96904	7458.5
2829.50412	7486.6
2832.03763	7454.6
2834.56959	7443.4
2837.1	7459.5
2839.62884	7439.2
2842.15613	7439.8
2844.68186	7450.4
2847.20604	7430.8
2849.72867	7460
2852.24974	7438.4
2854.76927	7448.5
2857.28724	7421
2859.80367	7428.2
2862.31855	7404.5
2864.83189	7401.2
2867.34368	7396.4
2869.85393	7408.7
2872.36264	7405.3
2874.8698	7416.9
2877.37543	7402.6
2879.87952	7407.8
2882.38207	7399.7
2884.88308	7399.8
2887.38256	7396.3
2889.88051	7382.7
2892.37692	7391.1
2894.8718	7382
2897.36515	7415.1
2899.85698	7384.4
2902.34727	7408.2
2904.83604	7397.5
2907.32328	7391.9
2909.809	7386.6
2912.29319	7423
2914.77587	7408.1
2917.25702	7430
2919.73665	7386.7
2922.21476	7398.6
2924.69136	7394.9
2927.16644	7399.9
2929.64	7389.3
2932.11205	7379.4
2934.58258	7350.2
2937.05161	7383.2
2939.51912	7354.7
2941.98513	7360.9
2944.44962	7349.4
2946.91261	7318.1
2949.37409	7328.1
2951.83407	7317.8
2954.29254	7321.7
2956.74951	7307.9
2959.20498	7301.4
2961.65895	7299.8
2964.11142	7296.9
2966.56239	7278
2969.01186	7293.5
2971.45984	7247.5
2973.90632	7246.3
2976.35131	7235.1
2978.7948	7226.9
2981.23681	7212.9
2983.67732	7194.1
2986.11635	7183.6
2988.55388	7170.3
2990.98993	7174.4
2993.4245	7163.9
2995.85758	7150
2998.28917	7135.9
3000.71928	7134.1
3003.14791	7093.7
3005.57506	7108.5
3008.00073	7093.9
3010.42493	7099
3012.84764	7086
3015.26888	7077.8
3017.68865	7074.3
3020.10694	7061.8
3022.52376	7046.5
3024.9391	7032.7
3027.35298	7021.8
3029.76539	7009.6
3032.17632	6993.7
3034.5858	6975.5
3036.9938	6973.2
3039.40034	6975.2
3041.80542	6984.3
3044.20903	6975.7
3046.61118	6950.1
3049.01187	6961.1
3051.4111	6962.1
3053.80888	6936.1
3056.20519	6936.3
3058.60005	6920.9
3060.99345	6891.8
3063.3854	6904.5
3065.7759	6905
3068.16494	6885.5
3070.55254	6865.4
3072.93868	6882.5
3075.32338	6878.3
3077.70662	6853.7
3080.08842	6838.3
3082.46878	6852.1
3084.84769	6826.5
3087.22515	6841.6
3089.60118	6855.3
3091.97576	6848.9
3094.3489	6841.7
3096.72061	6845.6
3099.09087	6827.5
3101.4597	6839.5
3103.82709	6831.7
3106.19305	6824.9
3108.55757	6838.3
3110.92066	6822.3
3113.28232	6808
3115.64255	6784.8
3118.00134	6778.5
3120.35871	6782.1
3122.71466	6791.2
3125.06917	6770.5
3127.42226	6742.3
3129.77393	6790.1
3132.12417	6748.6
3134.47299	6776.8
3136.82039	6770.1
3139.16636	6781
3141.51092	6790.1
3143.85406	6770.4
3146.19579	6783.7
3148.53609	6790.4
3150.87499	6806.9
3153.21246	6800
3155.54853	6818.7
3157.88318	6830.8
3160.21642	6820.3
3162.54826	6832.4
3164.87868	6814.4
3167.2077	6827.5
3169.5353	6823.5
3171.86151	6825.5
3174.18631	6817.2
3176.5097	6810
3178.83169	6823.1
3181.15228	6815.2
3183.47147	6811.9
3185.78926	6801.6
3188.10565	6785.6
3190.42065	6787.6
3192.73424	6802
3195.04645	6807.8
3197.35725	6798.9
3199.66667	6791.3
3201.97469	6808.9
3204.28132	6824.6
3206.58656	6838.7
3208.8904	6817.6
3211.19287	6855.2
3213.49394	6853.2
3215.79363	6830.5
3218.09193	6845.9
3220.38884	6850.2
3222.68438	6848.6
3224.97853	6846.4
3227.2713	6829.6
3229.56269	6819.2
3231.8527	6838.3
3234.14133	6827.1
3236.42858	6807.8
3238.71446	6813.3
3240.99896	6786.5
3243.28209	6799.2
3245.56384	6784.7
3247.84423	6789
3250.12324	6771.2
3252.40088	6789.8
3254.67715	6776.6
3256.95205	6767.4
3259.22558	6767.3
3261.49775	6748.5
3263.76855	6737.2
3266.03799	6748.5
3268.30606	6729
3270.57277	6734.2
3272.83812	6716.4
3275.10211	6694.8
3277.36474	6706.7
3279.62601	6704.4
3281.88593	6684
3284.14448	6692.4
3286.40168	6694
3288.65753	6674.1
3290.91202	6644.1
3293.16516	6636.9
3295.41695	6630.9
3297.66738	6570.4
3299.91647	6562
3302.16421	6530.9
3304.4106	6498.9
3306.65564	6470.7
3308.89933	6448.9
3311.14169	6406.2
3313.38269	6363.7
3315.62236	6321.4
3317.86068	6261.9
3320.09766	6209.4
3322.3333	6176
3324.5676	6165.6
3326.80056	6043.5
3329.03219	6027.1
3331.26248	2.3
3333.49143	0.2
3335.71905	-0.7
