Data from AgNPs_FTO_APTES_UA_200uM_R6G_10uM_NaF_0.1M_Addition_RamanShift__21__16-24-47-517.txt Node

Date: Fri Dec 17 16:24:47 GMT 2021
User: TCL
Spectrometer: QEP01345
Trigger mode: 4
Integration Time (sec): 7.000000E0
Scans to average: 10
Electric dark correction enabled: true
Nonlinearity correction enabled: false
Boxcar width: 0
XAxis mode: Raman Shifts
Number of Pixels in Spectrum: 1044
>>>>>Begin Spectral Data<<<<<
46.04893	-0.2625
50.45542	-0.0625
54.85868	-0.5625
59.25871	1.5375
63.6555	47.8375
68.04907	49.6375
72.43941	51.2375
76.82654	57.2375
81.21044	55.2375
85.59113	59.1375
89.96862	66.7375
94.34289	65.1375
98.71396	67.9375
103.08183	69.5375
107.4465	70.9375
111.80798	69.0375
116.16626	76.1375
120.52136	72.8375
124.87327	76.2375
129.222	80.7375
133.56755	85.1375
137.90993	91.3375
142.24913	96.1375
146.58517	104.3375
150.91804	122.5375
155.24774	147.2375
159.57429	174.6375
163.89768	220.3375
168.21792	289.2375
172.53501	389.4375
176.84895	543.2375
181.15975	763.9375
185.46741	1063.7375
189.77193	1470.7375
194.07331	1962.0375
198.37157	2536.7375
202.6667	3141.1375
206.9587	3751.8375
211.24758	4319.4375
215.53334	4913.2375
219.81599	5531.0375
224.09553	6215.3375
228.37195	6956.5375
232.64527	7793.7375
236.91549	8681.4375
241.18261	9581.4375
245.44663	10438.7375
249.70755	11201.0375
253.96539	11858.5375
258.22014	12426.9375
262.4718	12839.3375
266.72039	13170.8375
270.96589	13331.1375
275.20832	13377.6375
279.44768	13229.4375
283.68397	13020.7375
287.91719	12829.9375
292.14735	12686.7375
296.37445	12675.8375
300.59849	12739.9375
304.81948	12814.1375
309.03742	12801.7375
313.25231	12651.3375
317.46415	12345.5375
321.67296	11997.3375
325.87872	11748.3375
330.08145	11660.2375
334.28114	11669.0375
338.47781	11794.9375
342.67145	11963.2375
346.86207	12149.8375
351.04966	12428.1375
355.23424	12723.8375
359.4158	13011.8375
363.59435	13204.2375
367.76989	13371.6375
371.94243	13498.1375
376.11196	13635.6375
380.27849	13715.5375
384.44203	13788.2375
388.60257	13825.9375
392.76012	13891.9375
396.91468	13976.1375
401.06626	14117.8375
405.21485	14256.4375
409.36047	14186.4375
413.50311	13938.5375
417.64277	13659.7375
421.77947	13468.7375
425.9132	13406.9375
430.04396	13398.5375
434.17176	13404.2375
438.2966	13481.2375
442.41849	13620.8375
446.53742	13748.2375
450.6534	13886.3375
454.76644	14040.0375
458.87653	14156.6375
462.98368	14169.8375
467.08789	14148.0375
471.18916	14103.5375
475.2875	14053.0375
479.38291	14011.1375
483.4754	13928.4375
487.56496	13877.2375
491.6516	13856.0375
495.73531	13872.8375
499.81612	13846.0375
503.89401	13912.4375
507.96899	13943.6375
512.04106	14014.9375
516.11023	14113.0375
520.1765	14182.7375
524.23987	14176.1375
528.30034	14171.9375
532.35792	14104.8375
536.41261	14037.5375
540.46441	13938.6375
544.51333	13843.8375
548.55936	13816.1375
552.60252	13852.8375
556.64279	13925.4375
560.6802	13929.9375
564.71473	13960.6375
568.7464	14012.3375
572.7752	14070.1375
576.80114	14009.0375
580.82422	13908.8375
584.84444	13917.4375
588.86181	13958.2375
592.87633	13966.8375
596.888	14025.4375
600.89682	14261.8375
604.9028	14888.6375
608.90594	16482.7375
612.90624	18465.4375
616.90371	18110.5375
620.89834	15522.0375
624.89015	14257.8375
628.87913	14105.7375
632.86528	14299.9375
636.84862	14483.0375
640.82913	14481.1375
644.80683	14161.0375
648.78172	13782.7375
652.75379	13679.4375
656.72306	13753.6375
660.68952	13950.9375
664.65319	13964.7375
668.61405	13783.6375
672.57211	13783.8375
676.52738	13806.1375
680.47986	13767.6375
684.42955	13672.1375
688.37646	13544.1375
692.32058	13491.3375
696.26192	13484.8375
700.20048	13510.0375
704.13626	13585.6375
708.06928	13538.1375
711.99952	13485.7375
715.927	13466.8375
719.85171	13445.3375
723.77365	13468.7375
727.69284	13450.2375
731.60928	13415.8375
735.52295	13393.1375
739.43388	13401.6375
743.34206	13435.5375
747.24749	13421.2375
751.15017	13382.4375
755.05012	13399.6375
758.94733	13553.0375
762.8418	13966.3375
766.73354	14926.8375
770.62254	16081.3375
774.50882	16870.8375
778.39237	16587.1375
782.27321	15366.3375
786.15132	14253.7375
790.02671	13562.8375
793.89938	13233.8375
797.76935	13112.1375
801.6366	13071.1375
805.50115	13032.5375
809.36299	13074.4375
813.22213	13031.1375
817.07857	13022.7375
820.93231	12985.4375
824.78336	12910.4375
828.63172	12843.1375
832.47738	12808.6375
836.32036	12763.8375
840.16066	12729.4375
843.99827	12697.9375
847.8332	12681.7375
851.66546	12679.0375
855.49504	12655.3375
859.32195	12662.8375
863.1462	12674.2375
866.96777	12685.0375
870.78668	12700.1375
874.60293	12711.4375
878.41652	12741.8375
882.22745	12743.4375
886.03573	12807.7375
889.84136	12790.5375
893.64433	12786.7375
897.44466	12691.6375
901.24235	12580.6375
905.0374	12468.2375
908.8298	12405.1375
912.61957	12349.2375
916.40671	12361.9375
920.19121	12369.4375
923.97308	12385.4375
927.75233	12397.9375
931.52895	12432.3375
935.30295	12366.4375
939.07433	12256.1375
942.84309	12119.5375
946.60924	12061.2375
950.37278	12044.1375
954.13371	11973.8375
957.89203	11932.8375
961.64774	11912.2375
965.40086	11845.2375
969.15137	11740.2375
972.89929	11716.8375
976.64461	11654.9375
980.38733	11652.3375
984.12747	11622.0375
987.86502	11653.0375
991.59999	11664.0375
995.33237	11702.8375
999.06217	11801.1375
1002.78939	11879.0375
1006.51404	11996.3375
1010.23611	12098.2375
1013.95561	12175.1375
1017.67255	12259.3375
1021.38692	12206.9375
1025.09872	12115.1375
1028.80796	12033.3375
1032.51465	11981.3375
1036.21877	11997.2375
1039.92035	12026.7375
1043.61937	12049.8375
1047.31584	12062.1375
1051.00976	12055.9375
1054.70114	12020.0375
1058.38998	12017.2375
1062.07627	12075.2375
1065.76003	12134.9375
1069.44126	12243.7375
1073.11995	12330.7375
1076.79611	12392.1375
1080.46974	12392.1375
1084.14085	12373.0375
1087.80943	12386.6375
1091.47549	12409.8375
1095.13903	12351.6375
1098.80005	12216.1375
1102.45857	12061.5375
1106.11456	12013.8375
1109.76805	11997.8375
1113.41903	12076.5375
1117.06751	12219.5375
1120.71348	12453.6375
1124.35696	12682.6375
1127.99793	12959.7375
1131.63641	13155.5375
1135.2724	13134.8375
1138.90589	12895.9375
1142.5369	12661.8375
1146.16542	12355.0375
1149.79145	12144.1375
1153.415	11982.4375
1157.03607	11912.4375
1160.65467	11984.0375
1164.27079	12141.8375
1167.88443	12414.8375
1171.49561	12838.7375
1175.10432	13441.8375
1178.71056	14332.0375
1182.31434	15118.0375
1185.91565	15460.3375
1189.51451	15363.5375
1193.11091	14916.9375
1196.70485	14380.4375
1200.29634	13869.3375
1203.88538	13525.7375
1207.47197	13098.2375
1211.05612	12658.9375
1214.63782	12374.1375
1218.21708	12198.1375
1221.79391	12100.6375
1225.36829	12078.3375
1228.94024	12067.5375
1232.50976	12050.7375
1236.07685	12081.3375
1239.6415	12112.6375
1243.20374	12105.2375
1246.76355	12188.2375
1250.32093	12245.3375
1253.8759	12348.0375
1257.42845	12501.2375
1260.97859	12697.1375
1264.52631	12887.3375
1268.07163	13082.7375
1271.61453	13284.5375
1275.15503	13425.8375
1278.69312	13557.4375
1282.22882	13628.3375
1285.76211	13736.5375
1289.29301	13922.5375
1292.82151	14208.9375
1296.34761	14527.8375
1299.87133	14977.1375
1303.39266	15586.7375
1306.9116	16374.8375
1310.42815	17187.6375
1313.94233	17639.1375
1317.45412	17480.0375
1320.96354	16868.4375
1324.47058	16173.4375
1327.97525	15549.7375
1331.47754	15063.0375
1334.97747	14786.5375
1338.47502	14740.9375
1341.97022	14861.5375
1345.46305	15199.5375
1348.95352	15719.3375
1352.44163	16528.8375
1355.92738	17556.5375
1359.41078	18918.9375
1362.89183	20326.9375
1366.37053	20303.1375
1369.84688	18310.2375
1373.32088	16056.5375
1376.79254	14529.1375
1380.26186	13745.9375
1383.72883	13303.6375
1387.19347	13031.4375
1390.65578	12717.7375
1394.11575	12482.1375
1397.57339	12286.9375
1401.0287	12175.2375
1404.48168	12146.5375
1407.93234	12123.3375
1411.38068	12057.2375
1414.82669	12011.1375
1418.27039	11917.5375
1421.71177	11839.9375
1425.15083	11713.0375
1428.58758	11603.1375
1432.02203	11570.7375
1435.45416	11569.8375
1438.88399	11632.4375
1442.31151	11681.0375
1445.73673	11702.0375
1449.15965	11797.6375
1452.58027	11846.3375
1455.9986	11896.3375
1459.41463	11992.4375
1462.82837	12072.4375
1466.23982	12205.5375
1469.64898	12322.7375
1473.05586	12441.4375
1476.46045	12507.8375
1479.86276	12557.1375
1483.26279	12647.0375
1486.66054	12795.9375
1490.05602	12978.6375
1493.44922	13246.8375
1496.84016	13694.1375
1500.22882	14478.3375
1503.61521	15524.0375
1506.99934	16820.1375
1510.38121	17983.2375
1513.76081	18426.8375
1517.13816	17772.5375
1520.51324	16431.1375
1523.88607	14980.5375
1527.25665	13984.8375
1530.62498	13398.9375
1533.99105	13057.6375
1537.35488	12843.6375
1540.71647	12709.6375
1544.07581	12596.4375
1547.4329	12551.2375
1550.78776	12560.6375
1554.14038	12604.9375
1557.49077	12699.3375
1560.83892	12885.2375
1564.18484	13052.1375
1567.52853	13218.4375
1570.86999	13424.2375
1574.20922	13551.0375
1577.54624	13576.4375
1580.88103	13325.6375
1584.2136	12852.7375
1587.54395	12482.1375
1590.87208	12306.0375
1594.19801	12459.9375
1597.52172	12808.8375
1600.84321	13013.0375
1604.16251	12860.7375
1607.47959	12532.3375
1610.79447	12127.3375
1614.10715	11754.3375
1617.41763	11336.4375
1620.7259	11083.7375
1624.03199	10865.0375
1627.33587	10817.8375
1630.63757	10842.6375
1633.93707	11025.8375
1637.23439	11363.8375
1640.52951	11841.0375
1643.82246	12618.1375
1647.11321	13535.8375
1650.40179	14336.6375
1653.68819	14420.0375
1656.97241	13488.2375
1660.25446	12280.9375
1663.53433	11336.0375
1666.81203	10686.3375
1670.08756	10305.4375
1673.36092	10045.3375
1676.63211	9883.7375
1679.90115	9764.7375
1683.16801	9639.8375
1686.43272	9573.3375
1689.69527	9490.5375
1692.95567	9478.8375
1696.2139	9473.2375
1699.46999	9420.6375
1702.72392	9354.4375
1705.97571	9291.2375
1709.22535	9227.8375
1712.47284	9175.8375
1715.71819	9140.0375
1718.96139	9101.9375
1722.20246	9061.2375
1725.44139	9003.4375
1728.67818	8955.9375
1731.91284	8896.6375
1735.14537	8843.6375
1738.37576	8826.3375
1741.60403	8786.0375
1744.83017	8748.5375
1748.05418	8760.9375
1751.27607	8722.3375
1754.49584	8713.6375
1757.71349	8714.6375
1760.92903	8703.1375
1764.14244	8692.1375
1767.35375	8692.5375
1770.56294	8633.8375
1773.77002	8658.9375
1776.97499	8623.6375
1780.17785	8584.2375
1783.37861	8541.9375
1786.57727	8531.8375
1789.77382	8503.6375
1792.96828	8509.9375
1796.16064	8483.1375
1799.3509	8443.3375
1802.53907	8437.7375
1805.72514	8396.3375
1808.90913	8378.9375
1812.09102	8364.5375
1815.27083	8331.5375
1818.44856	8319.5375
1821.6242	8288.3375
1824.79776	8286.0375
1827.96924	8259.8375
1831.13864	8247.9375
1834.30597	8259.0375
1837.47122	8245.9375
1840.6344	8226.2375
1843.7955	8237.5375
1846.95454	8224.9375
1850.11151	8211.2375
1853.26642	8188.7375
1856.41926	8182.4375
1859.57004	8175.0375
1862.71876	8173.4375
1865.86542	8154.9375
1869.01003	8147.0375
1872.15258	8124.2375
1875.29308	8116.8375
1878.43152	8104.8375
1881.56792	8101.9375
1884.70227	8089.8375
1887.83457	8065.8375
1890.96482	8066.2375
1894.09304	8066.4375
1897.21921	8044.6375
1900.34335	8039.3375
1903.46544	8045.0375
1906.58551	8016.1375
1909.70353	7989.8375
1912.81953	7985.0375
1915.93349	7988.3375
1919.04543	7963.1375
1922.15534	7939.2375
1925.26322	7932.6375
1928.36908	7928.6375
1931.47292	7900.5375
1934.57473	7866.0375
1937.67453	7823.1375
1940.77232	7812.3375
1943.86808	7797.3375
1946.96184	7783.2375
1950.05358	7773.7375
1953.14331	7753.2375
1956.23103	7732.2375
1959.31675	7692.8375
1962.40046	7680.0375
1965.48217	7658.3375
1968.56188	7654.4375
1971.63959	7619.9375
1974.7153	7584.4375
1977.78901	7552.1375
1980.86073	7543.7375
1983.93046	7507.3375
1986.99819	7483.0375
1990.06394	7446.0375
1993.1277	7435.5375
1996.18947	7415.6375
1999.24925	7376.9375
2002.30706	7354.2375
2005.36288	7312.5375
2008.41672	7300.3375
2011.46859	7276.0375
2014.51848	7288.9375
2017.56639	7238.2375
2020.61233	7221.9375
2023.6563	7207.9375
2026.6983	7204.8375
2029.73833	7180.3375
2032.7764	7158.5375
2035.8125	7135.5375
2038.84664	7120.9375
2041.87881	7107.2375
2044.90903	7088.1375
2047.93729	7082.9375
2050.96359	7063.0375
2053.98794	7034.8375
2057.01034	7018.4375
2060.03078	7031.3375
2063.04927	7031.9375
2066.06582	7008.9375
2069.08042	7022.5375
2072.09307	7010.3375
2075.10378	6994.1375
2078.11255	6994.6375
2081.11938	7000.9375
2084.12426	6991.8375
2087.12722	6985.7375
2090.12824	6959.3375
2093.12732	6981.3375
2096.12447	6987.4375
2099.11969	6964.8375
2102.11299	6980.0375
2105.10435	6964.7375
2108.09379	6962.5375
2111.08131	6974.5375
2114.0669	6969.4375
2117.05057	6987.6375
2120.03233	6992.9375
2123.01216	6979.8375
2125.99008	6995.4375
2128.96609	7020.6375
2131.94018	7000.7375
2134.91236	6999.6375
2137.88263	7006.0375
2140.851	6996.7375
2143.81746	7024.0375
2146.78201	7017.7375
2149.74466	7021.8375
2152.7054	7003.8375
2155.66425	6996.2375
2158.6212	6998.2375
2161.57625	6981.5375
2164.52941	6974.5375
2167.48067	6974.5375
2170.43004	7007.4375
2173.37752	6977.3375
2176.32311	6981.3375
2179.26681	6974.4375
2182.20863	6957.2375
2185.14856	6977.4375
2188.08661	6949.2375
2191.02278	6959.1375
2193.95707	6950.4375
2196.88948	6950.8375
2199.82001	6939.7375
2202.74867	6907.6375
2205.67545	6912.5375
2208.60037	6915.3375
2211.52341	6900.0375
2214.44458	6884.1375
2217.36388	6838.6375
2220.28132	6836.2375
2223.1969	6834.4375
2226.11061	6831.2375
2229.02246	6796.3375
2231.93245	6799.0375
2234.84058	6785.0375
2237.74686	6761.8375
2240.65128	6763.8375
2243.55385	6771.3375
2246.45456	6744.6375
2249.35343	6736.2375
2252.25044	6745.6375
2255.14561	6740.4375
2258.03893	6711.2375
2260.93041	6709.9375
2263.82004	6676.1375
2266.70783	6664.1375
2269.59378	6643.8375
2272.4779	6643.9375
2275.36017	6618.9375
2278.24061	6603.0375
2281.11922	6595.3375
2283.996	6589.3375
2286.87094	6562.3375
2289.74405	6541.5375
2292.61534	6544.3375
2295.4848	6530.5375
2298.35243	6520.3375
2301.21824	6533.2375
2304.08223	6519.8375
2306.94439	6494.9375
2309.80474	6500.1375
2312.66327	6494.6375
2315.51999	6490.8375
2318.37489	6505.5375
2321.22797	6467.9375
2324.07925	6463.6375
2326.92871	6466.5375
2329.77637	6453.0375
2332.62222	6436.4375
2335.46626	6426.5375
2338.3085	6431.8375
2341.14893	6400.2375
2343.98756	6382.5375
2346.8244	6393.3375
2349.65943	6394.9375
2352.49267	6371.2375
2355.32411	6382.1375
2358.15376	6383.5375
2360.98161	6365.7375
2363.80768	6370.7375
2366.63195	6353.9375
2369.45444	6352.6375
2372.27514	6364.2375
2375.09405	6349.3375
2377.91118	6336.9375
2380.72652	6297.1375
2383.54009	6302.8375
2386.35187	6302.6375
2389.16188	6268.8375
2391.97011	6249.6375
2394.77657	6229.5375
2397.58125	6225.1375
2400.38416	6216.7375
2403.18529	6195.7375
2405.98466	6207.7375
2408.78226	6189.6375
2411.57809	6181.0375
2414.37216	6155.9375
2417.16446	6164.6375
2419.955	6153.7375
2422.74378	6138.5375
2425.5308	6140.9375
2428.31606	6127.8375
2431.09956	6112.0375
2433.88131	6115.2375
2436.6613	6120.3375
2439.43954	6099.6375
2442.21603	6097.5375
2444.99077	6088.0375
2447.76377	6093.0375
2450.53501	6098.5375
2453.30451	6067.1375
2456.07226	6075.0375
2458.83827	6080.3375
2461.60254	6065.7375
2464.36507	6053.3375
2467.12586	6037.7375
2469.88492	6048.4375
2472.64224	6025.9375
2475.39782	6041.7375
2478.15167	6024.5375
2480.90379	6035.8375
2483.65417	6021.7375
2486.40283	6034.6375
2489.14976	6022.0375
2491.89497	6008.3375
2494.63845	6024.7375
2497.3802	6016.8375
2500.12024	6001.9375
2502.85855	5989.4375
2505.59514	5983.0375
2508.33002	5977.5375
2511.06318	5948.9375
2513.79462	5951.4375
2516.52435	5940.6375
2519.25237	5933.6375
2521.97867	5916.8375
2524.70327	5902.1375
2527.42616	5888.3375
2530.14734	5885.2375
2532.86681	5885.0375
2535.58458	5857.1375
2538.30065	5865.6375
2541.01501	5855.6375
2543.72768	5849.9375
2546.43864	5835.7375
2549.14791	5813.8375
2551.85548	5835.2375
2554.56136	5805.8375
2557.26554	5802.7375
2559.96803	5790.0375
2562.66883	5784.6375
2565.36794	5773.3375
2568.06536	5762.5375
2570.7611	5765.1375
2573.45514	5755.3375
2576.14751	5722.4375
2578.83819	5729.9375
2581.52719	5724.0375
2584.21451	5710.0375
2586.90015	5711.0375
2589.58411	5693.8375
2592.2664	5680.3375
2594.94701	5679.6375
2597.62594	5657.4375
2600.30321	5630.7375
2602.9788	5632.1375
2605.65273	5631.3375
2608.32498	5622.7375
2610.99557	5605.4375
2613.66449	5624.4375
2616.33175	5602.0375
2618.99734	5595.4375
2621.66128	5580.3375
2624.32355	5580.7375
2626.98416	5576.2375
2629.64311	5576.4375
2632.30041	5577.2375
2634.95605	5570.5375
2637.61004	5569.1375
2640.26238	5550.7375
2642.91306	5537.6375
2645.56209	5536.5375
2648.20948	5533.1375
2650.85521	5528.8375
2653.4993	5523.0375
2656.14175	5527.5375
2658.78255	5538.8375
2661.42171	5533.2375
2664.05923	5536.5375
2666.6951	5512.0375
2669.32934	5515.4375
2671.96194	5514.2375
2674.59291	5509.8375
2677.22224	5511.8375
2679.84993	5514.2375
2682.476	5495.1375
2685.10043	5516.4375
2687.72324	5492.2375
2690.34441	5509.1375
2692.96396	5497.8375
2695.58188	5500.8375
2698.19818	5496.5375
2700.81285	5496.8375
2703.4259	5511.4375
2706.03733	5524.3375
2708.64714	5503.5375
2711.25533	5504.6375
2713.86191	5509.8375
2716.46687	5517.4375
2719.07021	5491.7375
2721.67194	5514.8375
2724.27206	5467.5375
2726.87057	5486.1375
2729.46747	5485.8375
2732.06276	5459.1375
2734.65644	5480.4375
2737.24852	5474.7375
2739.83899	5455.7375
2742.42786	5460.2375
2745.01513	5438.1375
2747.60079	5445.4375
2750.18486	5461.1375
2752.76733	5440.4375
2755.3482	5433.9375
2757.92747	5438.9375
2760.50515	5425.3375
2763.08123	5401.1375
2765.65573	5401.4375
2768.22863	5392.4375
2770.79994	5387.2375
2773.36967	5389.5375
2775.9378	5382.0375
2778.50435	5367.5375
2781.06932	5366.4375
2783.6327	5366.0375
2786.1945	5352.4375
2788.75471	5348.1375
2791.31335	5337.8375
2793.87041	5325.9375
2796.42589	5320.5375
2798.97979	5307.4375
2801.53212	5277.1375
2804.08288	5269.6375
2806.63206	5255.9375
2809.17967	5264.6375
2811.72571	5252.3375
2814.27018	5255.7375
2816.81308	5233.8375
2819.35442	5249.7375
2821.89419	5232.0375
2824.43239	5236.1375
2826.96904	5207.1375
2829.50412	5224.0375
2832.03763	5194.2375
2834.56959	5223.3375
2837.1	5203.6375
2839.62884	5220.2375
2842.15613	5216.5375
2844.68186	5210.5375
2847.20604	5206.2375
2849.72867	5206.1375
2852.24974	5212.4375
2854.76927	5224.6375
2857.28724	5202.3375
2859.80367	5202.4375
2862.31855	5185.3375
2864.83189	5171.7375
2867.34368	5164.9375
2869.85393	5173.7375
2872.36264	5199.2375
2874.8698	5174.0375
2877.37543	5186.9375
2879.87952	5198.6375
2882.38207	5172.8375
2884.88308	5184.3375
2887.38256	5168.7375
2889.88051	5152.0375
2892.37692	5158.4375
2894.8718	5151.9375
2897.36515	5162.1375
2899.85698	5162.9375
2902.34727	5172.4375
2904.83604	5167.5375
2907.32328	5162.2375
2909.809	5172.8375
2912.29319	5162.7375
2914.77587	5171.9375
2917.25702	5172.5375
2919.73665	5160.7375
2922.21476	5158.0375
2924.69136	5155.8375
2927.16644	5173.3375
2929.64	5140.7375
2932.11205	5147.7375
2934.58258	5132.0375
2937.05161	5139.9375
2939.51912	5146.6375
2941.98513	5123.1375
2944.44962	5102.6375
2946.91261	5107.1375
2949.37409	5104.6375
2951.83407	5113.8375
2954.29254	5099.5375
2956.74951	5092.4375
2959.20498	5097.5375
2961.65895	5099.9375
2964.11142	5085.8375
2966.56239	5061.7375
2969.01186	5079.7375
2971.45984	5058.7375
2973.90632	5050.0375
2976.35131	5036.1375
2978.7948	5023.0375
2981.23681	5026.0375
2983.67732	5023.9375
2986.11635	4999.1375
2988.55388	5015.2375
2990.98993	4995.5375
2993.4245	4983.8375
2995.85758	4983.7375
2998.28917	4974.0375
3000.71928	4958.9375
3003.14791	4952.7375
3005.57506	4942.1375
3008.00073	4956.3375
3010.42493	4948.4375
3012.84764	4939.7375
3015.26888	4930.3375
3017.68865	4931.4375
3020.10694	4924.0375
3022.52376	4924.9375
3024.9391	4901.8375
3027.35298	4904.5375
3029.76539	4892.6375
3032.17632	4894.7375
3034.5858	4874.1375
3036.9938	4866.2375
3039.40034	4866.3375
3041.80542	4878.3375
3044.20903	4873.8375
3046.61118	4867.3375
3049.01187	4846.2375
3051.4111	4847.5375
3053.80888	4837.9375
3056.20519	4838.1375
3058.60005	4826.6375
3060.99345	4825.6375
3063.3854	4825.2375
3065.7759	4805.4375
3068.16494	4804.8375
3070.55254	4800.2375
3072.93868	4798.4375
3075.32338	4781.6375
3077.70662	4798.9375
3080.08842	4779.5375
3082.46878	4778.4375
3084.84769	4782.9375
3087.22515	4793.4375
3089.60118	4791.7375
3091.97576	4799.2375
3094.3489	4791.9375
3096.72061	4807.1375
3099.09087	4791.5375
3101.4597	4795.1375
3103.82709	4789.3375
3106.19305	4789.5375
3108.55757	4796.6375
3110.92066	4783.1375
3113.28232	4777.9375
3115.64255	4762.1375
3118.00134	4765.1375
3120.35871	4763.2375
3122.71466	4762.3375
3125.06917	4768.8375
3127.42226	4739.5375
3129.77393	4753.4375
3132.12417	4753.4375
3134.47299	4777.8375
3136.82039	4775.3375
3139.16636	4784.9375
3141.51092	4774.7375
3143.85406	4775.3375
3146.19579	4795.9375
3148.53609	4800.8375
3150.87499	4834.2375
3153.21246	4822.6375
3155.54853	4825.4375
3157.88318	4826.0375
3160.21642	4834.5375
3162.54826	4831.8375
3164.87868	4837.8375
3167.2077	4844.0375
3169.5353	4831.9375
3171.86151	4838.7375
3174.18631	4826.4375
3176.5097	4839.2375
3178.83169	4843.8375
3181.15228	4852.2375
3183.47147	4839.7375
3185.78926	4842.5375
3188.10565	4838.8375
3190.42065	4836.8375
3192.73424	4838.9375
3195.04645	4846.8375
3197.35725	4833.6375
3199.66667	4861.3375
3201.97469	4852.8375
3204.28132	4871.8375
3206.58656	4864.1375
3208.8904	4885.6375
3211.19287	4885.7375
3213.49394	4883.5375
3215.79363	4891.6375
3218.09193	4891.3375
3220.38884	4867.6375
3222.68438	4890.8375
3224.97853	4873.1375
3227.2713	4894.8375
3229.56269	4878.9375
3231.8527	4862.0375
3234.14133	4879.1375
3236.42858	4859.6375
3238.71446	4854.2375
3240.99896	4836.9375
3243.28209	4855.6375
3245.56384	4843.5375
3247.84423	4856.8375
3250.12324	4846.3375
3252.40088	4863.0375
3254.67715	4843.7375
3256.95205	4849.9375
3259.22558	4847.5375
3261.49775	4828.5375
3263.76855	4817.3375
3266.03799	4817.2375
3268.30606	4822.8375
3270.57277	4807.1375
3272.83812	4805.8375
3275.10211	4794.4375
3277.36474	4802.6375
3279.62601	4798.6375
3281.88593	4788.0375
3284.14448	4784.3375
3286.40168	4778.7375
3288.65753	4753.5375
3290.91202	4758.8375
3293.16516	4745.1375
3295.41695	4725.2375
3297.66738	4712.3375
3299.91647	4699.7375
3302.16421	4660.8375
3304.4106	4644.3375
3306.65564	4640.5375
3308.89933	4609.3375
3311.14169	4594.9375
3313.38269	4558.2375
3315.62236	4539.3375
3317.86068	4496.5375
3320.09766	4453.0375
3322.3333	4423.4375
3324.5676	4411.4375
3326.80056	4344.3375
3329.03219	4315.0375
3331.26248	0.9375
3333.49143	0.5375
3335.71905	-1.2625
