Data from AgNPs_FTO_APTES_UA_20uM_R6G_10uM_NaF_0.1M_Addition_RamanShift__19__14-17-37-373.txt Node

Date: Fri Dec 17 14:17:37 GMT 2021
User: TCL
Spectrometer: QEP01345
Trigger mode: 4
Integration Time (sec): 7.000000E0
Scans to average: 10
Electric dark correction enabled: true
Nonlinearity correction enabled: false
Boxcar width: 0
XAxis mode: Raman Shifts
Number of Pixels in Spectrum: 1044
>>>>>Begin Spectral Data<<<<<
46.04893	0.2375
50.45542	-1.1625
54.85868	-2.1625
59.25871	-0.0625
63.6555	72.8375
68.04907	73.3375
72.43941	79.6375
76.82654	84.7375
81.21044	83.7375
85.59113	87.4375
89.96862	92.2375
94.34289	92.7375
98.71396	96.4375
103.08183	98.2375
107.4465	104.1375
111.80798	105.4375
116.16626	104.9375
120.52136	114.4375
124.87327	119.5375
129.222	121.4375
133.56755	126.6375
137.90993	138.4375
142.24913	149.8375
146.58517	167.3375
150.91804	192.1375
155.24774	231.2375
159.57429	278.8375
163.89768	361.2375
168.21792	481.6375
172.53501	643.2375
176.84895	891.6375
181.15975	1252.8375
185.46741	1749.2375
189.77193	2417.8375
194.07331	3242.4375
198.37157	4169.8375
202.6667	5154.5375
206.9587	6123.7375
211.24758	7061.0375
215.53334	8020.7375
219.81599	9022.2375
224.09553	10133.1375
228.37195	11369.9375
232.64527	12759.5375
236.91549	14196.1375
241.18261	15677.4375
245.44663	17043.9375
249.70755	18317.8375
253.96539	19372.5375
258.22014	20255.0375
262.4718	20979.5375
266.72039	21474.9375
270.96589	21780.2375
275.20832	21833.7375
279.44768	21645.9375
283.68397	21325.6375
287.91719	21135.8375
292.14735	21018.2375
296.37445	20962.1375
300.59849	21075.3375
304.81948	21160.4375
309.03742	21169.5375
313.25231	20948.3375
317.46415	20507.6375
321.67296	19968.0375
325.87872	19520.3375
330.08145	19291.5375
334.28114	19316.0375
338.47781	19475.5375
342.67145	19755.9375
346.86207	20082.8375
351.04966	20522.4375
355.23424	20999.7375
359.4158	21461.3375
363.59435	21771.8375
367.76989	22013.4375
371.94243	22216.9375
376.11196	22360.0375
380.27849	22455.4375
384.44203	22539.4375
388.60257	22661.3375
392.76012	22775.1375
396.91468	23015.3375
401.06626	23290.9375
405.21485	23556.3375
409.36047	23471.1375
413.50311	23052.0375
417.64277	22707.1375
421.77947	22531.3375
425.9132	22567.4375
430.04396	22616.8375
434.17176	22693.2375
438.2966	22891.3375
442.41849	23140.9375
446.53742	23605.9375
450.6534	24090.5375
454.76644	24476.7375
458.87653	24682.7375
462.98368	24679.4375
467.08789	24464.9375
471.18916	24211.1375
475.2875	23912.1375
479.38291	23642.3375
483.4754	23466.0375
487.56496	23224.0375
491.6516	23013.8375
495.73531	22874.3375
499.81612	22873.2375
503.89401	23009.6375
507.96899	23143.1375
512.04106	23257.8375
516.11023	23289.7375
520.1765	23242.0375
524.23987	23155.0375
528.30034	23010.2375
532.35792	22792.2375
536.41261	22599.8375
540.46441	22432.2375
544.51333	22359.1375
548.55936	22438.5375
552.60252	22745.4375
556.64279	23089.7375
560.6802	23265.0375
564.71473	23334.4375
568.7464	23492.3375
572.7752	23813.6375
576.80114	23963.7375
580.82422	24158.7375
584.84444	24429.8375
588.86181	24583.1375
592.87633	24728.5375
596.888	24826.2375
600.89682	25066.4375
604.9028	26179.1375
608.90594	28817.2375
612.90624	31633.2375
616.90371	30170.7375
620.89834	25608.2375
624.89015	23526.3375
628.87913	23148.6375
632.86528	23232.2375
636.84862	23233.5375
640.82913	23033.5375
644.80683	22517.1375
648.78172	22137.2375
652.75379	22015.1375
656.72306	22268.5375
660.68952	22603.1375
664.65319	22536.4375
668.61405	22158.3375
672.57211	22044.5375
676.52738	22103.1375
680.47986	22148.6375
684.42955	22091.4375
688.37646	22014.5375
692.32058	22074.5375
696.26192	22206.4375
700.20048	22366.2375
704.13626	22439.9375
708.06928	22400.7375
711.99952	22256.0375
715.927	22198.6375
719.85171	22189.1375
723.77365	22164.9375
727.69284	22022.2375
731.60928	21829.3375
735.52295	21803.3375
739.43388	21803.2375
743.34206	21892.1375
747.24749	21945.4375
751.15017	22067.9375
755.05012	22270.6375
758.94733	22709.0375
762.8418	23675.8375
766.73354	25339.0375
770.62254	27119.3375
774.50882	27963.5375
778.39237	27056.6375
782.27321	25112.3375
786.15132	23473.6375
790.02671	22503.6375
793.89938	22028.4375
797.76935	21832.9375
801.6366	21771.0375
805.50115	21745.9375
809.36299	21608.7375
813.22213	21448.9375
817.07857	21343.6375
820.93231	21278.4375
824.78336	21246.4375
828.63172	21217.9375
832.47738	21220.7375
836.32036	21265.6375
840.16066	21286.3375
843.99827	21334.4375
847.8332	21280.5375
851.66546	21235.3375
855.49504	21168.9375
859.32195	21178.0375
863.1462	21171.0375
866.96777	21129.2375
870.78668	21113.6375
874.60293	21096.0375
878.41652	21086.9375
882.22745	21150.8375
886.03573	21258.6375
889.84136	21241.6375
893.64433	21199.8375
897.44466	21076.2375
901.24235	20964.7375
905.0374	20911.9375
908.8298	20826.4375
912.61957	20821.2375
916.40671	20943.0375
920.19121	21096.3375
923.97308	21287.1375
927.75233	21373.9375
931.52895	21382.3375
935.30295	21226.7375
939.07433	20915.1375
942.84309	20650.8375
946.60924	20504.8375
950.37278	20447.7375
954.13371	20362.9375
957.89203	20239.0375
961.64774	20169.4375
965.40086	20136.2375
969.15137	20065.6375
972.89929	20037.2375
976.64461	19999.4375
980.38733	20023.4375
984.12747	20106.1375
987.86502	20230.7375
991.59999	20409.1375
995.33237	20700.6375
999.06217	21212.5375
1002.78939	21728.2375
1006.51404	22033.0375
1010.23611	22232.1375
1013.95561	22370.7375
1017.67255	22385.1375
1021.38692	22242.5375
1025.09872	22044.2375
1028.80796	22156.2375
1032.51465	22609.7375
1036.21877	23043.5375
1039.92035	23093.5375
1043.61937	22896.3375
1047.31584	22441.1375
1051.00976	22010.1375
1054.70114	21815.0375
1058.38998	21748.1375
1062.07627	21817.7375
1065.76003	21974.8375
1069.44126	22077.6375
1073.11995	22330.9375
1076.79611	22559.2375
1080.46974	22723.1375
1084.14085	22825.0375
1087.80943	22976.3375
1091.47549	23011.3375
1095.13903	22995.5375
1098.80005	22694.7375
1102.45857	22320.4375
1106.11456	22095.4375
1109.76805	22044.9375
1113.41903	22143.5375
1117.06751	22337.1375
1120.71348	22539.3375
1124.35696	22798.5375
1127.99793	23061.1375
1131.63641	23264.3375
1135.2724	23110.6375
1138.90589	22847.6375
1142.5369	22622.8375
1146.16542	22497.4375
1149.79145	22376.8375
1153.415	22423.6375
1157.03607	22565.2375
1160.65467	22936.4375
1164.27079	23617.3375
1167.88443	24513.9375
1171.49561	25762.6375
1175.10432	27344.0375
1178.71056	29526.7375
1182.31434	31550.6375
1185.91565	32751.1375
1189.51451	32760.2375
1193.11091	31859.6375
1196.70485	30430.3375
1200.29634	29052.3375
1203.88538	28042.5375
1207.47197	27119.3375
1211.05612	26458.8375
1214.63782	25915.1375
1218.21708	25671.3375
1221.79391	25576.4375
1225.36829	25624.0375
1228.94024	25482.1375
1232.50976	25185.9375
1236.07685	24986.1375
1239.6415	24866.4375
1243.20374	24834.0375
1246.76355	24995.3375
1250.32093	25287.4375
1253.8759	25771.7375
1257.42845	26365.0375
1260.97859	26978.7375
1264.52631	27564.6375
1268.07163	28267.5375
1271.61453	28974.5375
1275.15503	29694.6375
1278.69312	30356.0375
1282.22882	30890.3375
1285.76211	31255.7375
1289.29301	31590.2375
1292.82151	32266.0375
1296.34761	33108.8375
1299.87133	34360.1375
1303.39266	36055.4375
1306.9116	38234.5375
1310.42815	40404.4375
1313.94233	41721.5375
1317.45412	41673.5375
1320.96354	40759.6375
1324.47058	39642.2375
1327.97525	38607.5375
1331.47754	37877.6375
1334.97747	37567.4375
1338.47502	37625.7375
1341.97022	37790.6375
1345.46305	37882.8375
1348.95352	37955.5375
1352.44163	38235.9375
1355.92738	39203.1375
1359.41078	40996.1375
1362.89183	42814.1375
1366.37053	42159.5375
1369.84688	38611.7375
1373.32088	34494.4375
1376.79254	31672.2375
1380.26186	30354.7375
1383.72883	29831.5375
1387.19347	29423.8375
1390.65578	28995.9375
1394.11575	28639.1375
1397.57339	28610.4375
1401.0287	28857.1375
1404.48168	29192.1375
1407.93234	29430.8375
1411.38068	29428.7375
1414.82669	29094.0375
1418.27039	28481.2375
1421.71177	27747.1375
1425.15083	27137.5375
1428.58758	26790.8375
1432.02203	26814.9375
1435.45416	27155.9375
1438.88399	27630.4375
1442.31151	27984.2375
1445.73673	28301.1375
1449.15965	28547.3375
1452.58027	28682.8375
1455.9986	28801.5375
1459.41463	28997.6375
1462.82837	29454.4375
1466.23982	29988.3375
1469.64898	30530.3375
1473.05586	30911.5375
1476.46045	30981.8375
1479.86276	30873.6375
1483.26279	30743.5375
1486.66054	30688.2375
1490.05602	30838.8375
1493.44922	31131.6375
1496.84016	31587.6375
1500.22882	32479.1375
1503.61521	33867.6375
1506.99934	35511.0375
1510.38121	36995.8375
1513.76081	37350.6375
1517.13816	36250.5375
1520.51324	34272.5375
1523.88607	32378.5375
1527.25665	31097.9375
1530.62498	30432.4375
1533.99105	30078.2375
1537.35488	29869.0375
1540.71647	29619.1375
1544.07581	29394.9375
1547.4329	29150.4375
1550.78776	28886.3375
1554.14038	28779.4375
1557.49077	28700.8375
1560.83892	28678.2375
1564.18484	28731.1375
1567.52853	28854.0375
1570.86999	29082.3375
1574.20922	29354.0375
1577.54624	29502.2375
1580.88103	29346.6375
1584.2136	28936.7375
1587.54395	28986.0375
1590.87208	29768.0375
1594.19801	31099.6375
1597.52172	32758.6375
1600.84321	33484.2375
1604.16251	32701.4375
1607.47959	30917.6375
1610.79447	29000.8375
1614.10715	27155.8375
1617.41763	25486.5375
1620.7259	24322.5375
1624.03199	23667.8375
1627.33587	23534.9375
1630.63757	23973.5375
1633.93707	24987.4375
1637.23439	26567.3375
1640.52951	28790.2375
1643.82246	31291.6375
1647.11321	33312.3375
1650.40179	33857.4375
1653.68819	32364.8375
1656.97241	29196.0375
1660.25446	25918.8375
1663.53433	23410.3375
1666.81203	21866.9375
1670.08756	20852.3375
1673.36092	20155.5375
1676.63211	19709.9375
1679.90115	19403.2375
1683.16801	19134.1375
1686.43272	18964.8375
1689.69527	18814.6375
1692.95567	18708.3375
1696.2139	18645.0375
1699.46999	18576.7375
1702.72392	18527.4375
1705.97571	18464.3375
1709.22535	18422.6375
1712.47284	18388.9375
1715.71819	18370.5375
1718.96139	18314.7375
1722.20246	18242.1375
1725.44139	18173.1375
1728.67818	18084.4375
1731.91284	18037.6375
1735.14537	17938.4375
1738.37576	17851.4375
1741.60403	17752.4375
1744.83017	17759.4375
1748.05418	17689.9375
1751.27607	17677.8375
1754.49584	17631.1375
1757.71349	17678.5375
1760.92903	17644.2375
1764.14244	17640.0375
1767.35375	17610.9375
1770.56294	17589.0375
1773.77002	17559.4375
1776.97499	17514.4375
1780.17785	17489.8375
1783.37861	17451.2375
1786.57727	17427.9375
1789.77382	17400.4375
1792.96828	17386.7375
1796.16064	17340.0375
1799.3509	17316.3375
1802.53907	17294.0375
1805.72514	17260.9375
1808.90913	17215.7375
1812.09102	17186.6375
1815.27083	17145.8375
1818.44856	17115.0375
1821.6242	17115.9375
1824.79776	17101.4375
1827.96924	17094.7375
1831.13864	17066.2375
1834.30597	17068.9375
1837.47122	17068.7375
1840.6344	17053.6375
1843.7955	17071.6375
1846.95454	17063.5375
1850.11151	17050.0375
1853.26642	17017.7375
1856.41926	17047.4375
1859.57004	17017.4375
1862.71876	17068.4375
1865.86542	16971.6375
1869.01003	16983.5375
1872.15258	16954.7375
1875.29308	16979.7375
1878.43152	16959.7375
1881.56792	16954.6375
1884.70227	16935.0375
1887.83457	16940.1375
1890.96482	16905.2375
1894.09304	16916.2375
1897.21921	16882.8375
1900.34335	16834.8375
1903.46544	16854.2375
1906.58551	16849.5375
1909.70353	16781.4375
1912.81953	16765.7375
1915.93349	16739.1375
1919.04543	16710.9375
1922.15534	16672.6375
1925.26322	16635.6375
1928.36908	16594.4375
1931.47292	16597.3375
1934.57473	16534.8375
1937.67453	16485.5375
1940.77232	16436.1375
1943.86808	16404.4375
1946.96184	16362.9375
1950.05358	16292.3375
1953.14331	16267.2375
1956.23103	16226.7375
1959.31675	16180.1375
1962.40046	16103.1375
1965.48217	16082.3375
1968.56188	16047.4375
1971.63959	16004.9375
1974.7153	15959.7375
1977.78901	15913.0375
1980.86073	15900.1375
1983.93046	15805.4375
1986.99819	15758.6375
1990.06394	15753.6375
1993.1277	15669.7375
1996.18947	15635.1375
1999.24925	15581.5375
2002.30706	15537.9375
2005.36288	15515.3375
2008.41672	15482.9375
2011.46859	15454.7375
2014.51848	15406.1375
2017.56639	15366.2375
2020.61233	15309.1375
2023.6563	15296.9375
2026.6983	15249.6375
2029.73833	15238.7375
2032.7764	15209.5375
2035.8125	15146.2375
2038.84664	15137.1375
2041.87881	15127.5375
2044.90903	15108.6375
2047.93729	15070.2375
2050.96359	15068.4375
2053.98794	15066.3375
2057.01034	15021.8375
2060.03078	15021.4375
2063.04927	14991.0375
2066.06582	15019.5375
2069.08042	14985.7375
2072.09307	14982.7375
2075.10378	14952.1375
2078.11255	14954.3375
2081.11938	14965.7375
2084.12426	14932.1375
2087.12722	14952.9375
2090.12824	14963.8375
2093.12732	14942.7375
2096.12447	14955.3375
2099.11969	14942.3375
2102.11299	14930.4375
2105.10435	14940.6375
2108.09379	14934.3375
2111.08131	14967.0375
2114.0669	14994.0375
2117.05057	14995.5375
2120.03233	15013.6375
2123.01216	15025.5375
2125.99008	15032.4375
2128.96609	15050.1375
2131.94018	15028.8375
2134.91236	15066.0375
2137.88263	15075.8375
2140.851	15079.9375
2143.81746	15104.3375
2146.78201	15114.7375
2149.74466	15095.0375
2152.7054	15078.2375
2155.66425	15096.4375
2158.6212	15109.2375
2161.57625	15112.9375
2164.52941	15088.5375
2167.48067	15117.3375
2170.43004	15104.8375
2173.37752	15087.0375
2176.32311	15091.2375
2179.26681	15086.3375
2182.20863	15082.1375
2185.14856	15074.0375
2188.08661	15069.2375
2191.02278	15088.7375
2193.95707	15090.6375
2196.88948	15092.7375
2199.82001	15062.2375
2202.74867	15068.7375
2205.67545	15050.4375
2208.60037	15043.3375
2211.52341	15003.5375
2214.44458	15025.3375
2217.36388	14984.1375
2220.28132	14966.6375
2223.1969	14950.4375
2226.11061	14925.7375
2229.02246	14893.2375
2231.93245	14904.1375
2234.84058	14825.7375
2237.74686	14803.5375
2240.65128	14807.2375
2243.55385	14764.2375
2246.45456	14770.5375
2249.35343	14747.4375
2252.25044	14716.5375
2255.14561	14712.9375
2258.03893	14695.2375
2260.93041	14653.3375
2263.82004	14627.9375
2266.70783	14595.4375
2269.59378	14559.9375
2272.4779	14562.3375
2275.36017	14521.9375
2278.24061	14495.8375
2281.11922	14444.7375
2283.996	14422.4375
2286.87094	14419.3375
2289.74405	14370.2375
2292.61534	14392.0375
2295.4848	14377.8375
2298.35243	14398.5375
2301.21824	14384.4375
2304.08223	14401.0375
2306.94439	14399.4375
2309.80474	14382.2375
2312.66327	14394.2375
2315.51999	14390.0375
2318.37489	14384.8375
2321.22797	14365.5375
2324.07925	14357.4375
2326.92871	14320.5375
2329.77637	14329.5375
2332.62222	14283.8375
2335.46626	14274.4375
2338.3085	14268.0375
2341.14893	14278.8375
2343.98756	14279.3375
2346.8244	14278.7375
2349.65943	14281.5375
2352.49267	14285.4375
2355.32411	14308.4375
2358.15376	14270.7375
2360.98161	14234.2375
2363.80768	14233.5375
2366.63195	14232.5375
2369.45444	14216.4375
2372.27514	14201.7375
2375.09405	14178.5375
2377.91118	14139.1375
2380.72652	14077.4375
2383.54009	14071.8375
2386.35187	14057.5375
2389.16188	14031.0375
2391.97011	14011.8375
2394.77657	13997.5375
2397.58125	13977.4375
2400.38416	13924.2375
2403.18529	13902.1375
2405.98466	13901.8375
2408.78226	13841.6375
2411.57809	13825.9375
2414.37216	13834.5375
2417.16446	13807.5375
2419.955	13780.4375
2422.74378	13752.1375
2425.5308	13761.8375
2428.31606	13758.1375
2431.09956	13739.9375
2433.88131	13723.1375
2436.6613	13748.9375
2439.43954	13747.0375
2442.21603	13727.5375
2444.99077	13706.8375
2447.76377	13723.4375
2450.53501	13681.3375
2453.30451	13700.3375
2456.07226	13692.9375
2458.83827	13674.4375
2461.60254	13691.7375
2464.36507	13656.8375
2467.12586	13670.8375
2469.88492	13658.5375
2472.64224	13670.6375
2475.39782	13667.7375
2478.15167	13701.3375
2480.90379	13671.2375
2483.65417	13649.7375
2486.40283	13686.7375
2489.14976	13692.9375
2491.89497	13672.1375
2494.63845	13705.0375
2497.3802	13683.5375
2500.12024	13655.5375
2502.85855	13645.7375
2505.59514	13626.8375
2508.33002	13607.4375
2511.06318	13626.7375
2513.79462	13580.6375
2516.52435	13573.4375
2519.25237	13564.1375
2521.97867	13544.7375
2524.70327	13536.9375
2527.42616	13531.8375
2530.14734	13522.7375
2532.86681	13485.8375
2535.58458	13503.3375
2538.30065	13494.0375
2541.01501	13485.7375
2543.72768	13448.9375
2546.43864	13457.5375
2549.14791	13449.4375
2551.85548	13388.7375
2554.56136	13395.0375
2557.26554	13394.8375
2559.96803	13371.5375
2562.66883	13351.4375
2565.36794	13360.6375
2568.06536	13355.0375
2570.7611	13326.7375
2573.45514	13282.8375
2576.14751	13313.9375
2578.83819	13304.7375
2581.52719	13275.9375
2584.21451	13281.4375
2586.90015	13271.7375
2589.58411	13238.8375
2592.2664	13243.0375
2594.94701	13218.1375
2597.62594	13184.9375
2600.30321	13165.6375
2602.9788	13179.0375
2605.65273	13174.2375
2608.32498	13178.2375
2610.99557	13165.8375
2613.66449	13167.5375
2616.33175	13108.2375
2618.99734	13116.8375
2621.66128	13123.8375
2624.32355	13122.6375
2626.98416	13086.5375
2629.64311	13151.7375
2632.30041	13121.2375
2634.95605	13123.6375
2637.61004	13103.5375
2640.26238	13074.8375
2642.91306	13070.0375
2645.56209	13047.9375
2648.20948	13034.9375
2650.85521	13008.1375
2653.4993	13026.0375
2656.14175	13016.5375
2658.78255	12996.5375
2661.42171	13029.5375
2664.05923	13041.6375
2666.6951	13030.9375
2669.32934	13039.2375
2671.96194	13028.7375
2674.59291	13030.7375
2677.22224	13040.6375
2679.84993	13058.6375
2682.476	13035.3375
2685.10043	13035.2375
2687.72324	13020.0375
2690.34441	13018.3375
2692.96396	13008.7375
2695.58188	13020.3375
2698.19818	12989.5375
2700.81285	13013.4375
2703.4259	12983.5375
2706.03733	13044.0375
2708.64714	13044.0375
2711.25533	13035.1375
2713.86191	13021.8375
2716.46687	13056.5375
2719.07021	13045.8375
2721.67194	13055.0375
2724.27206	13015.4375
2726.87057	13015.2375
2729.46747	13029.8375
2732.06276	13040.2375
2734.65644	13007.7375
2737.24852	13018.1375
2739.83899	13019.1375
2742.42786	13046.9375
2745.01513	12997.7375
2747.60079	13000.8375
2750.18486	12980.6375
2752.76733	12986.2375
2755.3482	12949.8375
2757.92747	12955.5375
2760.50515	12927.8375
2763.08123	12935.2375
2765.65573	12947.8375
2768.22863	12921.6375
2770.79994	12927.4375
2773.36967	12909.0375
2775.9378	12873.6375
2778.50435	12867.3375
2781.06932	12832.2375
2783.6327	12860.9375
2786.1945	12858.1375
2788.75471	12819.7375
2791.31335	12778.2375
2793.87041	12794.5375
2796.42589	12742.7375
2798.97979	12764.1375
2801.53212	12740.3375
2804.08288	12696.0375
2806.63206	12662.7375
2809.17967	12677.6375
2811.72571	12628.5375
2814.27018	12642.6375
2816.81308	12616.0375
2819.35442	12609.8375
2821.89419	12590.3375
2824.43239	12555.6375
2826.96904	12556.1375
2829.50412	12544.9375
2832.03763	12513.3375
2834.56959	12528.2375
2837.1	12503.5375
2839.62884	12495.0375
2842.15613	12505.6375
2844.68186	12489.9375
2847.20604	12477.6375
2849.72867	12524.9375
2852.24974	12523.3375
2854.76927	12493.7375
2857.28724	12471.0375
2859.80367	12443.3375
2862.31855	12432.5375
2864.83189	12406.4375
2867.34368	12380.8375
2869.85393	12441.9375
2872.36264	12415.9375
2874.8698	12431.0375
2877.37543	12405.9375
2879.87952	12428.5375
2882.38207	12435.3375
2884.88308	12443.5375
2887.38256	12423.8375
2889.88051	12449.1375
2892.37692	12403.5375
2894.8718	12433.8375
2897.36515	12451.5375
2899.85698	12434.0375
2902.34727	12468.4375
2904.83604	12488.2375
2907.32328	12503.8375
2909.809	12467.0375
2912.29319	12498.3375
2914.77587	12456.7375
2917.25702	12483.9375
2919.73665	12464.8375
2922.21476	12484.5375
2924.69136	12451.4375
2927.16644	12464.5375
2929.64	12441.2375
2932.11205	12414.0375
2934.58258	12350.4375
2937.05161	12387.0375
2939.51912	12395.0375
2941.98513	12350.7375
2944.44962	12342.4375
2946.91261	12304.9375
2949.37409	12370.0375
2951.83407	12322.7375
2954.29254	12333.0375
2956.74951	12314.8375
2959.20498	12318.3375
2961.65895	12283.5375
2964.11142	12314.8375
2966.56239	12258.6375
2969.01186	12258.6375
2971.45984	12241.1375
2973.90632	12205.8375
2976.35131	12175.0375
2978.7948	12179.9375
2981.23681	12144.0375
2983.67732	12130.8375
2986.11635	12109.2375
2988.55388	12069.6375
2990.98993	12056.6375
2993.4245	12029.4375
2995.85758	12017.8375
2998.28917	11975.2375
3000.71928	11962.9375
3003.14791	11960.9375
3005.57506	11967.7375
3008.00073	11922.8375
3010.42493	11933.9375
3012.84764	11905.2375
3015.26888	11906.7375
3017.68865	11884.8375
3020.10694	11874.5375
3022.52376	11843.2375
3024.9391	11828.4375
3027.35298	11816.3375
3029.76539	11794.6375
3032.17632	11767.1375
3034.5858	11787.5375
3036.9938	11762.6375
3039.40034	11746.3375
3041.80542	11733.3375
3044.20903	11696.4375
3046.61118	11686.5375
3049.01187	11677.9375
3051.4111	11678.6375
3053.80888	11663.3375
3056.20519	11668.6375
3058.60005	11619.0375
3060.99345	11631.5375
3063.3854	11596.7375
3065.7759	11556.0375
3068.16494	11539.7375
3070.55254	11498.7375
3072.93868	11508.7375
3075.32338	11457.2375
3077.70662	11472.9375
3080.08842	11453.0375
3082.46878	11426.9375
3084.84769	11417.1375
3087.22515	11418.4375
3089.60118	11409.3375
3091.97576	11404.0375
3094.3489	11397.3375
3096.72061	11391.3375
3099.09087	11384.2375
3101.4597	11383.3375
3103.82709	11401.1375
3106.19305	11364.4375
3108.55757	11361.0375
3110.92066	11353.0375
3113.28232	11333.7375
3115.64255	11282.3375
3118.00134	11275.7375
3120.35871	11268.0375
3122.71466	11244.9375
3125.06917	11237.4375
3127.42226	11215.7375
3129.77393	11239.4375
3132.12417	11232.6375
3134.47299	11229.6375
3136.82039	11209.4375
3139.16636	11230.0375
3141.51092	11220.7375
3143.85406	11225.4375
3146.19579	11235.0375
3148.53609	11231.7375
3150.87499	11267.6375
3153.21246	11259.1375
3155.54853	11270.2375
3157.88318	11253.5375
3160.21642	11258.5375
3162.54826	11250.0375
3164.87868	11242.0375
3167.2077	11240.8375
3169.5353	11238.2375
3171.86151	11221.9375
3174.18631	11230.1375
3176.5097	11224.1375
3178.83169	11215.0375
3181.15228	11164.5375
3183.47147	11201.3375
3185.78926	11152.8375
3188.10565	11182.5375
3190.42065	11168.5375
3192.73424	11177.7375
3195.04645	11182.4375
3197.35725	11164.7375
3199.66667	11186.4375
3201.97469	11187.7375
3204.28132	11181.0375
3206.58656	11202.7375
3208.8904	11201.5375
3211.19287	11190.4375
3213.49394	11211.2375
3215.79363	11196.9375
3218.09193	11208.2375
3220.38884	11206.3375
3222.68438	11179.4375
3224.97853	11165.3375
3227.2713	11174.0375
3229.56269	11167.4375
3231.8527	11177.3375
3234.14133	11150.9375
3236.42858	11111.8375
3238.71446	11121.8375
3240.99896	11087.7375
3243.28209	11105.7375
3245.56384	11101.3375
3247.84423	11110.0375
3250.12324	11089.4375
3252.40088	11089.4375
3254.67715	11084.3375
3256.95205	11055.1375
3259.22558	11046.8375
3261.49775	11040.8375
3263.76855	11028.7375
3266.03799	11015.3375
3268.30606	10987.7375
3270.57277	10998.8375
3272.83812	10943.2375
3275.10211	10935.7375
3277.36474	10934.1375
3279.62601	10932.5375
3281.88593	10924.2375
3284.14448	10915.1375
3286.40168	10922.2375
3288.65753	10905.2375
3290.91202	10894.4375
3293.16516	10827.3375
3295.41695	10840.7375
3297.66738	10783.6375
3299.91647	10725.2375
3302.16421	10677.6375
3304.4106	10641.4375
3306.65564	10592.8375
3308.89933	10505.5375
3311.14169	10486.0375
3313.38269	10390.5375
3315.62236	10315.5375
3317.86068	10252.0375
3320.09766	10148.4375
3322.3333	10082.2375
3324.5676	10077.4375
3326.80056	9951.0375
3329.03219	9861.7375
3331.26248	2.5375
3333.49143	1.2375
3335.71905	-0.0625
