Data from AgNPs_FTO_APTES_UA_5uM_R6G_10uM_NaF_0.1M_Addition_RamanShift__25__12-54-47-278.txt Node

Date: Fri Dec 17 12:54:47 GMT 2021
User: TCL
Spectrometer: QEP01345
Trigger mode: 4
Integration Time (sec): 7.000000E0
Scans to average: 10
Electric dark correction enabled: true
Nonlinearity correction enabled: false
Boxcar width: 0
XAxis mode: Raman Shifts
Number of Pixels in Spectrum: 1044
>>>>>Begin Spectral Data<<<<<
46.04893	-0.775
50.45542	-0.975
54.85868	-1.375
59.25871	0.625
63.6555	108.525
68.04907	111.025
72.43941	112.725
76.82654	124.525
81.21044	122.325
85.59113	129.825
89.96862	135.525
94.34289	138.825
98.71396	146.325
103.08183	149.525
107.4465	153.525
111.80798	154.325
116.16626	159.425
120.52136	164.325
124.87327	169.225
129.222	180.125
133.56755	189.925
137.90993	200.725
142.24913	213.525
146.58517	234.325
150.91804	270.825
155.24774	311.725
159.57429	382.325
163.89768	481.825
168.21792	632.125
172.53501	857.525
176.84895	1173.925
181.15975	1640.825
185.46741	2283.825
189.77193	3148.425
194.07331	4191.425
198.37157	5417.725
202.6667	6675.525
206.9587	7948.625
211.24758	9183.325
215.53334	10421.025
219.81599	11791.425
224.09553	13312.925
228.37195	15053.225
232.64527	16920.025
236.91549	18859.425
241.18261	20749.325
245.44663	22491.525
249.70755	23906.525
253.96539	25215.425
258.22014	26298.325
262.4718	27291.525
266.72039	28015.925
270.96589	28503.725
275.20832	28623.425
279.44768	28452.025
283.68397	28117.525
287.91719	27869.525
292.14735	27787.625
296.37445	27931.125
300.59849	28365.225
304.81948	28914.425
309.03742	29257.925
313.25231	29164.125
317.46415	28292.625
321.67296	26979.325
325.87872	25868.025
330.08145	25380.825
334.28114	25333.725
338.47781	25657.325
342.67145	26217.325
346.86207	26941.525
351.04966	28027.425
355.23424	29219.025
359.4158	30184.125
363.59435	30780.025
367.76989	31075.025
371.94243	31149.525
376.11196	31190.125
380.27849	31180.525
384.44203	31136.025
388.60257	31089.025
392.76012	31156.325
396.91468	31538.025
401.06626	32210.325
405.21485	32721.225
409.36047	32484.625
413.50311	31671.025
417.64277	30866.025
421.77947	30481.125
425.9132	30398.325
430.04396	30504.625
434.17176	30689.625
438.2966	30992.825
442.41849	31527.625
446.53742	32231.725
450.6534	33083.425
454.76644	33778.425
458.87653	34095.525
462.98368	34021.625
467.08789	33625.125
471.18916	32959.325
475.2875	32224.225
479.38291	31619.925
483.4754	31175.225
487.56496	30806.525
491.6516	30548.625
495.73531	30411.625
499.81612	30379.125
503.89401	30610.025
507.96899	30764.225
512.04106	30999.025
516.11023	31213.925
520.1765	31317.125
524.23987	31195.725
528.30034	30854.125
532.35792	30445.625
536.41261	30008.725
540.46441	29658.725
544.51333	29532.325
548.55936	29735.425
552.60252	30197.925
556.64279	30735.225
560.6802	31041.425
564.71473	31288.525
568.7464	31899.625
572.7752	32557.725
576.80114	32504.825
580.82422	32293.725
584.84444	32265.225
588.86181	32224.625
592.87633	32427.425
596.888	32718.425
600.89682	33664.625
604.9028	36253.125
608.90594	42266.625
612.90624	49194.425
616.90371	47036.325
620.89834	37072.625
624.89015	32453.125
628.87913	31594.925
632.86528	31604.625
636.84862	31644.025
640.82913	31232.825
644.80683	30364.925
648.78172	29728.725
652.75379	29791.525
656.72306	30540.025
660.68952	31495.225
664.65319	31378.125
668.61405	30496.325
672.57211	30098.225
676.52738	30085.125
680.47986	30102.625
684.42955	29950.325
688.37646	29952.925
692.32058	30126.225
696.26192	30374.725
700.20048	30732.825
704.13626	30915.425
708.06928	30816.325
711.99952	30527.025
715.927	30425.925
719.85171	30445.525
723.77365	30312.125
727.69284	30093.825
731.60928	29908.825
735.52295	29895.125
739.43388	29986.625
743.34206	30175.525
747.24749	30355.125
751.15017	30649.825
755.05012	31141.625
758.94733	32168.825
762.8418	34235.425
766.73354	37550.625
770.62254	41032.625
774.50882	42437.025
778.39237	40686.525
782.27321	36899.325
786.15132	33527.625
790.02671	31626.325
793.89938	30754.125
797.76935	30378.725
801.6366	30221.125
805.50115	30093.625
809.36299	29950.625
813.22213	29832.425
817.07857	29752.925
820.93231	29754.325
824.78336	29790.925
828.63172	29895.725
832.47738	30020.425
836.32036	30039.725
840.16066	30035.425
843.99827	30021.725
847.8332	30000.425
851.66546	29944.525
855.49504	29886.825
859.32195	29865.225
863.1462	29763.325
866.96777	29636.925
870.78668	29598.325
874.60293	29628.425
878.41652	29685.625
882.22745	29813.625
886.03573	29885.325
889.84136	29865.525
893.64433	29744.225
897.44466	29629.725
901.24235	29618.525
905.0374	29579.325
908.8298	29527.925
912.61957	29570.525
916.40671	29777.425
920.19121	30073.425
923.97308	30401.125
927.75233	30602.125
931.52895	30655.325
935.30295	30440.425
939.07433	29864.425
942.84309	29427.525
946.60924	29225.125
950.37278	29062.225
954.13371	28885.725
957.89203	28734.025
961.64774	28677.525
965.40086	28544.425
969.15137	28479.025
972.89929	28406.725
976.64461	28425.825
980.38733	28507.125
984.12747	28580.825
987.86502	28867.625
991.59999	29162.325
995.33237	29640.625
999.06217	30444.625
1002.78939	31503.325
1006.51404	32349.725
1010.23611	32922.225
1013.95561	33284.925
1017.67255	33256.625
1021.38692	32879.325
1025.09872	32628.625
1028.80796	32841.225
1032.51465	33578.325
1036.21877	34254.725
1039.92035	34347.025
1043.61937	33888.725
1047.31584	33097.325
1051.00976	32169.125
1054.70114	31667.225
1058.38998	31547.825
1062.07627	31598.325
1065.76003	31742.625
1069.44126	31896.025
1073.11995	32203.925
1076.79611	32457.425
1080.46974	32732.825
1084.14085	33110.525
1087.80943	33486.025
1091.47549	33719.025
1095.13903	33363.925
1098.80005	32687.125
1102.45857	32033.925
1106.11456	31705.825
1109.76805	31792.125
1113.41903	32124.925
1117.06751	32624.325
1120.71348	33210.825
1124.35696	33805.825
1127.99793	34371.125
1131.63641	34462.425
1135.2724	33803.725
1138.90589	33148.525
1142.5369	32668.125
1146.16542	32358.225
1149.79145	32201.225
1153.415	32315.525
1157.03607	32595.825
1160.65467	33138.725
1164.27079	34066.025
1167.88443	35385.125
1171.49561	37325.725
1175.10432	40326.425
1178.71056	44274.525
1182.31434	47743.925
1185.91565	49617.825
1189.51451	49468.025
1193.11091	47569.225
1196.70485	44689.925
1200.29634	42281.725
1203.88538	40561.225
1207.47197	38891.225
1211.05612	37610.925
1214.63782	36980.525
1218.21708	36833.625
1221.79391	37051.825
1225.36829	37306.025
1228.94024	37484.925
1232.50976	37599.425
1236.07685	37711.625
1239.6415	37650.425
1243.20374	37541.125
1246.76355	37595.025
1250.32093	38077.525
1253.8759	38821.325
1257.42845	39936.325
1260.97859	40841.925
1264.52631	41677.725
1268.07163	42468.825
1271.61453	43445.525
1275.15503	44466.725
1278.69312	45391.025
1282.22882	46076.225
1285.76211	46860.825
1289.29301	47749.025
1292.82151	48538.725
1296.34761	49524.425
1299.87133	51068.525
1303.39266	53643.325
1306.9116	57473.125
1310.42815	62031.025
1313.94233	65185.125
1317.45412	65476.325
1320.96354	63617.625
1324.47058	61086.925
1327.97525	58663.525
1331.47754	57013.025
1334.97747	56546.025
1338.47502	57037.525
1341.97022	57677.125
1345.46305	58219.625
1348.95352	58556.525
1352.44163	59444.325
1355.92738	61741.325
1359.41078	66376.125
1362.89183	71295.425
1366.37053	70084.725
1369.84688	62628.725
1373.32088	54833.425
1376.79254	49737.025
1380.26186	47267.225
1383.72883	46068.325
1387.19347	45096.425
1390.65578	43958.525
1394.11575	43371.625
1397.57339	43330.625
1401.0287	43864.925
1404.48168	44853.325
1407.93234	46116.925
1411.38068	47050.125
1414.82669	47286.425
1418.27039	46501.025
1421.71177	45238.525
1425.15083	44045.025
1428.58758	43363.925
1432.02203	43184.225
1435.45416	43294.825
1438.88399	43504.025
1442.31151	43675.625
1445.73673	43932.025
1449.15965	44167.425
1452.58027	44207.725
1455.9986	43940.125
1459.41463	43820.525
1462.82837	44168.925
1466.23982	44852.825
1469.64898	45803.725
1473.05586	46479.025
1476.46045	46912.025
1479.86276	47375.325
1483.26279	48034.925
1486.66054	48769.625
1490.05602	49683.025
1493.44922	50792.525
1496.84016	52024.725
1500.22882	53690.425
1503.61521	56130.825
1506.99934	59293.325
1510.38121	62574.625
1513.76081	64419.625
1517.13816	62974.325
1520.51324	58803.625
1523.88607	54301.625
1527.25665	50922.425
1530.62498	48772.725
1533.99105	47506.125
1537.35488	46646.025
1540.71647	46147.525
1544.07581	45817.025
1547.4329	45561.025
1550.78776	45388.125
1554.14038	45270.325
1557.49077	45420.725
1560.83892	45738.725
1564.18484	46048.925
1567.52853	46179.825
1570.86999	46277.525
1574.20922	46367.825
1577.54624	46376.525
1580.88103	45592.325
1584.2136	44770.225
1587.54395	45010.025
1590.87208	46555.925
1594.19801	49179.825
1597.52172	52038.725
1600.84321	53179.925
1604.16251	51683.825
1607.47959	48563.925
1610.79447	45167.425
1614.10715	42083.925
1617.41763	39589.325
1620.7259	37903.825
1624.03199	37181.625
1627.33587	37274.225
1630.63757	38138.825
1633.93707	39956.625
1637.23439	42414.925
1640.52951	45331.425
1643.82246	48313.525
1647.11321	50887.325
1650.40179	52053.125
1653.68819	50251.425
1656.97241	45324.025
1660.25446	39885.325
1663.53433	35941.825
1666.81203	33446.225
1670.08756	31988.225
1673.36092	31009.925
1676.63211	30366.225
1679.90115	29960.425
1683.16801	29571.925
1686.43272	29346.225
1689.69527	29186.025
1692.95567	29054.325
1696.2139	28923.925
1699.46999	28859.225
1702.72392	28802.225
1705.97571	28826.125
1709.22535	28797.325
1712.47284	28805.125
1715.71819	28812.225
1718.96139	28754.625
1722.20246	28695.625
1725.44139	28592.325
1728.67818	28507.525
1731.91284	28333.225
1735.14537	28215.325
1738.37576	28114.025
1741.60403	28010.925
1744.83017	27913.425
1748.05418	27904.525
1751.27607	27789.425
1754.49584	27784.725
1757.71349	27783.425
1760.92903	27738.425
1764.14244	27770.725
1767.35375	27755.425
1770.56294	27701.625
1773.77002	27692.225
1776.97499	27658.325
1780.17785	27640.525
1783.37861	27591.625
1786.57727	27576.425
1789.77382	27533.025
1792.96828	27523.325
1796.16064	27487.525
1799.3509	27470.325
1802.53907	27483.925
1805.72514	27391.325
1808.90913	27318.625
1812.09102	27282.025
1815.27083	27248.625
1818.44856	27194.625
1821.6242	27204.125
1824.79776	27194.725
1827.96924	27173.425
1831.13864	27149.625
1834.30597	27177.625
1837.47122	27149.325
1840.6344	27196.425
1843.7955	27205.725
1846.95454	27179.025
1850.11151	27172.125
1853.26642	27219.425
1856.41926	27243.325
1859.57004	27262.225
1862.71876	27284.925
1865.86542	27245.225
1869.01003	27260.925
1872.15258	27261.825
1875.29308	27297.525
1878.43152	27342.225
1881.56792	27369.225
1884.70227	27360.525
1887.83457	27405.425
1890.96482	27424.925
1894.09304	27413.225
1897.21921	27413.325
1900.34335	27449.025
1903.46544	27467.225
1906.58551	27473.425
1909.70353	27457.225
1912.81953	27460.325
1915.93349	27426.125
1919.04543	27412.525
1922.15534	27348.325
1925.26322	27311.525
1928.36908	27239.625
1931.47292	27158.925
1934.57473	27012.125
1937.67453	26918.125
1940.77232	26771.225
1943.86808	26657.225
1946.96184	26596.925
1950.05358	26479.025
1953.14331	26382.825
1956.23103	26262.125
1959.31675	26158.425
1962.40046	26114.025
1965.48217	26025.125
1968.56188	25952.025
1971.63959	25874.325
1974.7153	25814.225
1977.78901	25676.925
1980.86073	25618.525
1983.93046	25561.625
1986.99819	25468.025
1990.06394	25398.825
1993.1277	25310.825
1996.18947	25235.425
1999.24925	25186.525
2002.30706	25116.325
2005.36288	24997.725
2008.41672	24971.825
2011.46859	24932.825
2014.51848	24865.825
2017.56639	24797.225
2020.61233	24743.025
2023.6563	24671.025
2026.6983	24601.225
2029.73833	24606.025
2032.7764	24515.525
2035.8125	24461.525
2038.84664	24434.225
2041.87881	24409.125
2044.90903	24383.525
2047.93729	24379.625
2050.96359	24352.325
2053.98794	24285.225
2057.01034	24273.425
2060.03078	24218.825
2063.04927	24219.225
2066.06582	24218.125
2069.08042	24162.425
2072.09307	24182.025
2075.10378	24113.425
2078.11255	24094.925
2081.11938	24096.425
2084.12426	24045.425
2087.12722	24039.725
2090.12824	24039.125
2093.12732	24023.325
2096.12447	24024.625
2099.11969	24030.625
2102.11299	24039.525
2105.10435	24059.025
2108.09379	24085.825
2111.08131	24094.425
2114.0669	24100.625
2117.05057	24129.325
2120.03233	24114.625
2123.01216	24149.625
2125.99008	24163.325
2128.96609	24203.725
2131.94018	24211.325
2134.91236	24189.025
2137.88263	24217.725
2140.851	24236.925
2143.81746	24254.825
2146.78201	24300.025
2149.74466	24244.525
2152.7054	24258.325
2155.66425	24273.425
2158.6212	24286.925
2161.57625	24251.025
2164.52941	24258.725
2167.48067	24232.925
2170.43004	24233.825
2173.37752	24237.925
2176.32311	24244.425
2179.26681	24242.025
2182.20863	24205.625
2185.14856	24225.225
2188.08661	24264.225
2191.02278	24244.825
2193.95707	24235.125
2196.88948	24215.925
2199.82001	24235.925
2202.74867	24208.225
2205.67545	24210.025
2208.60037	24208.325
2211.52341	24170.325
2214.44458	24131.325
2217.36388	24143.725
2220.28132	24059.525
2223.1969	24058.025
2226.11061	23967.325
2229.02246	23958.625
2231.93245	23910.025
2234.84058	23876.525
2237.74686	23796.925
2240.65128	23790.125
2243.55385	23746.225
2246.45456	23739.025
2249.35343	23717.925
2252.25044	23667.225
2255.14561	23647.625
2258.03893	23624.425
2260.93041	23597.425
2263.82004	23580.125
2266.70783	23497.625
2269.59378	23466.325
2272.4779	23411.625
2275.36017	23369.325
2278.24061	23312.325
2281.11922	23251.925
2283.996	23189.125
2286.87094	23225.625
2289.74405	23172.925
2292.61534	23159.725
2295.4848	23139.125
2298.35243	23137.125
2301.21824	23130.625
2304.08223	23130.925
2306.94439	23152.325
2309.80474	23135.225
2312.66327	23206.825
2315.51999	23173.625
2318.37489	23194.925
2321.22797	23138.925
2324.07925	23143.025
2326.92871	23111.225
2329.77637	23059.925
2332.62222	23074.825
2335.46626	23037.525
2338.3085	23058.425
2341.14893	23057.025
2343.98756	23047.725
2346.8244	23075.725
2349.65943	23041.525
2352.49267	23004.925
2355.32411	23023.525
2358.15376	23025.325
2360.98161	22996.425
2363.80768	23001.625
2366.63195	22925.625
2369.45444	22923.225
2372.27514	22865.325
2375.09405	22867.825
2377.91118	22764.925
2380.72652	22724.625
2383.54009	22651.125
2386.35187	22617.725
2389.16188	22559.625
2391.97011	22524.925
2394.77657	22502.725
2397.58125	22490.725
2400.38416	22427.525
2403.18529	22377.525
2405.98466	22327.925
2408.78226	22302.725
2411.57809	22284.025
2414.37216	22218.125
2417.16446	22217.225
2419.955	22176.825
2422.74378	22173.025
2425.5308	22137.225
2428.31606	22129.825
2431.09956	22099.325
2433.88131	22093.325
2436.6613	22100.125
2439.43954	22057.725
2442.21603	22077.325
2444.99077	22021.925
2447.76377	22066.825
2450.53501	22026.025
2453.30451	22034.725
2456.07226	21992.925
2458.83827	21990.125
2461.60254	22005.425
2464.36507	21983.425
2467.12586	21974.625
2469.88492	21972.225
2472.64224	21968.725
2475.39782	21966.125
2478.15167	21993.025
2480.90379	21966.025
2483.65417	22011.725
2486.40283	21977.125
2489.14976	22019.225
2491.89497	22015.925
2494.63845	22051.025
2497.3802	22021.425
2500.12024	22033.925
2502.85855	22035.525
2505.59514	22006.625
2508.33002	21982.225
2511.06318	21928.525
2513.79462	21911.925
2516.52435	21910.725
2519.25237	21840.425
2521.97867	21794.425
2524.70327	21782.925
2527.42616	21761.725
2530.14734	21767.325
2532.86681	21730.925
2535.58458	21739.925
2538.30065	21689.625
2541.01501	21688.125
2543.72768	21663.625
2546.43864	21651.425
2549.14791	21624.125
2551.85548	21586.225
2554.56136	21569.425
2557.26554	21547.625
2559.96803	21542.825
2562.66883	21536.425
2565.36794	21470.925
2568.06536	21495.825
2570.7611	21491.025
2573.45514	21451.225
2576.14751	21447.925
2578.83819	21379.325
2581.52719	21407.325
2584.21451	21384.025
2586.90015	21390.725
2589.58411	21337.425
2592.2664	21356.625
2594.94701	21317.325
2597.62594	21323.825
2600.30321	21269.025
2602.9788	21300.625
2605.65273	21287.325
2608.32498	21293.425
2610.99557	21270.125
2613.66449	21270.325
2616.33175	21252.825
2618.99734	21268.725
2621.66128	21252.525
2624.32355	21242.825
2626.98416	21226.225
2629.64311	21239.325
2632.30041	21243.225
2634.95605	21210.725
2637.61004	21200.825
2640.26238	21157.325
2642.91306	21121.125
2645.56209	21070.125
2648.20948	21066.625
2650.85521	21058.725
2653.4993	21079.625
2656.14175	21063.325
2658.78255	21081.425
2661.42171	21057.025
2664.05923	21122.925
2666.6951	21101.425
2669.32934	21121.725
2671.96194	21093.025
2674.59291	21141.825
2677.22224	21155.625
2679.84993	21156.325
2682.476	21147.825
2685.10043	21148.125
2687.72324	21119.525
2690.34441	21109.525
2692.96396	21107.025
2695.58188	21089.525
2698.19818	21100.025
2700.81285	21097.525
2703.4259	21064.625
2706.03733	21094.925
2708.64714	21094.325
2711.25533	21085.525
2713.86191	21088.925
2716.46687	21127.125
2719.07021	21082.525
2721.67194	21099.725
2724.27206	21086.625
2726.87057	21084.925
2729.46747	21121.425
2732.06276	21147.725
2734.65644	21113.325
2737.24852	21093.725
2739.83899	21102.825
2742.42786	21099.725
2745.01513	21059.425
2747.60079	21082.625
2750.18486	21056.225
2752.76733	21075.425
2755.3482	21027.625
2757.92747	21069.225
2760.50515	21043.825
2763.08123	20987.425
2765.65573	20955.925
2768.22863	20933.325
2770.79994	20982.825
2773.36967	20941.625
2775.9378	20896.625
2778.50435	20898.025
2781.06932	20864.525
2783.6327	20847.025
2786.1945	20846.025
2788.75471	20852.225
2791.31335	20794.025
2793.87041	20730.025
2796.42589	20705.225
2798.97979	20710.325
2801.53212	20645.225
2804.08288	20623.725
2806.63206	20587.425
2809.17967	20567.825
2811.72571	20557.625
2814.27018	20561.125
2816.81308	20551.225
2819.35442	20502.625
2821.89419	20472.825
2824.43239	20524.625
2826.96904	20479.925
2829.50412	20498.525
2832.03763	20456.525
2834.56959	20422.825
2837.1	20397.325
2839.62884	20421.125
2842.15613	20432.225
2844.68186	20398.125
2847.20604	20427.425
2849.72867	20420.925
2852.24974	20414.525
2854.76927	20396.725
2857.28724	20381.525
2859.80367	20332.325
2862.31855	20314.125
2864.83189	20293.125
2867.34368	20289.125
2869.85393	20252.925
2872.36264	20241.425
2874.8698	20249.425
2877.37543	20274.525
2879.87952	20238.525
2882.38207	20234.325
2884.88308	20224.525
2887.38256	20296.825
2889.88051	20269.725
2892.37692	20261.325
2894.8718	20210.525
2897.36515	20264.225
2899.85698	20261.225
2902.34727	20307.425
2904.83604	20308.725
2907.32328	20298.725
2909.809	20310.825
2912.29319	20341.025
2914.77587	20288.525
2917.25702	20280.025
2919.73665	20264.325
2922.21476	20270.025
2924.69136	20249.225
2927.16644	20259.325
2929.64	20194.825
2932.11205	20171.425
2934.58258	20088.525
2937.05161	20142.525
2939.51912	20153.225
2941.98513	20093.225
2944.44962	20040.925
2946.91261	19965.825
2949.37409	20030.925
2951.83407	20022.125
2954.29254	20016.725
2956.74951	19930.525
2959.20498	19940.525
2961.65895	19909.025
2964.11142	19930.325
2966.56239	19812.525
2969.01186	19820.625
2971.45984	19744.525
2973.90632	19759.125
2976.35131	19688.625
2978.7948	19653.625
2981.23681	19604.625
2983.67732	19538.825
2986.11635	19504.825
2988.55388	19478.825
2990.98993	19445.225
2993.4245	19437.125
2995.85758	19353.825
2998.28917	19322.025
3000.71928	19322.525
3003.14791	19285.025
3005.57506	19254.525
3008.00073	19207.325
3010.42493	19211.925
3012.84764	19157.925
3015.26888	19167.525
3017.68865	19095.225
3020.10694	19079.225
3022.52376	19039.625
3024.9391	19009.525
3027.35298	18996.825
3029.76539	18943.925
3032.17632	18916.025
3034.5858	18874.525
3036.9938	18867.525
3039.40034	18845.125
3041.80542	18822.625
3044.20903	18800.125
3046.61118	18745.925
3049.01187	18711.925
3051.4111	18683.625
3053.80888	18611.425
3056.20519	18585.125
3058.60005	18560.925
3060.99345	18523.025
3063.3854	18469.825
3065.7759	18427.625
3068.16494	18352.925
3070.55254	18311.025
3072.93868	18249.825
3075.32338	18210.225
3077.70662	18176.125
3080.08842	18115.825
3082.46878	18092.425
3084.84769	18086.225
3087.22515	18045.625
3089.60118	18050.425
3091.97576	18026.025
3094.3489	18024.025
3096.72061	18007.325
3099.09087	17974.925
3101.4597	17963.625
3103.82709	17953.625
3106.19305	17901.225
3108.55757	17905.125
3110.92066	17804.225
3113.28232	17814.825
3115.64255	17757.425
3118.00134	17712.725
3120.35871	17686.325
3122.71466	17653.025
3125.06917	17605.725
3127.42226	17585.225
3129.77393	17596.625
3132.12417	17576.125
3134.47299	17566.025
3136.82039	17548.625
3139.16636	17532.425
3141.51092	17563.125
3143.85406	17551.625
3146.19579	17528.425
3148.53609	17553.025
3150.87499	17537.125
3153.21246	17523.525
3155.54853	17562.525
3157.88318	17514.725
3160.21642	17551.825
3162.54826	17498.225
3164.87868	17473.725
3167.2077	17452.725
3169.5353	17470.125
3171.86151	17426.225
3174.18631	17418.725
3176.5097	17412.325
3178.83169	17371.425
3181.15228	17363.725
3183.47147	17323.225
3185.78926	17309.325
3188.10565	17310.525
3190.42065	17328.225
3192.73424	17306.425
3195.04645	17333.125
3197.35725	17282.125
3199.66667	17286.625
3201.97469	17330.425
3204.28132	17306.425
3206.58656	17334.525
3208.8904	17327.025
3211.19287	17351.025
3213.49394	17293.925
3215.79363	17260.425
3218.09193	17293.725
3220.38884	17279.225
3222.68438	17250.125
3224.97853	17239.625
3227.2713	17219.325
3229.56269	17203.525
3231.8527	17185.525
3234.14133	17171.725
3236.42858	17118.825
3238.71446	17089.425
3240.99896	17061.725
3243.28209	17043.325
3245.56384	17046.425
3247.84423	17051.325
3250.12324	17037.425
3252.40088	17013.725
3254.67715	17010.425
3256.95205	16967.025
3259.22558	16942.425
3261.49775	16925.725
3263.76855	16923.525
3266.03799	16868.625
3268.30606	16835.725
3270.57277	16848.125
3272.83812	16794.025
3275.10211	16779.925
3277.36474	16758.125
3279.62601	16775.925
3281.88593	16715.125
3284.14448	16737.525
3286.40168	16738.425
3288.65753	16673.625
3290.91202	16664.725
3293.16516	16609.025
3295.41695	16539.625
3297.66738	16492.025
3299.91647	16437.825
3302.16421	16333.725
3304.4106	16305.825
3306.65564	16180.925
3308.89933	16079.525
3311.14169	15984.425
3313.38269	15828.125
3315.62236	15768.225
3317.86068	15641.525
3320.09766	15480.025
3322.3333	15335.725
3324.5676	15363.225
3326.80056	15109.125
3329.03219	15032.525
3331.26248	3.925
3333.49143	1.025
3335.71905	-1.075
