Data from AgNPs_FTO_APTES_UA_200uM_R6G_10uM_NaF_0.1M_Addition_RamanShift__13__16-15-27-507.txt Node

Date: Fri Dec 17 16:15:27 GMT 2021
User: TCL
Spectrometer: QEP01345
Trigger mode: 4
Integration Time (sec): 7.000000E0
Scans to average: 10
Electric dark correction enabled: true
Nonlinearity correction enabled: false
Boxcar width: 0
XAxis mode: Raman Shifts
Number of Pixels in Spectrum: 1044
>>>>>Begin Spectral Data<<<<<
46.04893	-0.2
50.45542	0.7
54.85868	-0.9
59.25871	0.6
63.6555	48.4
68.04907	53
72.43941	53
76.82654	55.9
81.21044	52.4
85.59113	61.1
89.96862	64.4
94.34289	65.1
98.71396	67.9
103.08183	71.5
107.4465	71
111.80798	71.6
116.16626	76.2
120.52136	72.4
124.87327	80.7
129.222	81.4
133.56755	84.2
137.90993	89.3
142.24913	98.3
146.58517	103.6
150.91804	120.4
155.24774	141.5
159.57429	171.4
163.89768	218.7
168.21792	284.8
172.53501	375.9
176.84895	525.7
181.15975	739.7
185.46741	1039.9
189.77193	1430.4
194.07331	1919.7
198.37157	2479.9
202.6667	3081.5
206.9587	3665.7
211.24758	4243.3
215.53334	4831.4
219.81599	5419.4
224.09553	6068.2
228.37195	6799
232.64527	7629.1
236.91549	8487.3
241.18261	9403.9
245.44663	10249.7
249.70755	11020.4
253.96539	11686.8
258.22014	12195.8
262.4718	12641.6
266.72039	12878.9
270.96589	12981.9
275.20832	12954.8
279.44768	12780.9
283.68397	12547.9
287.91719	12303.3
292.14735	12148.8
296.37445	12038.7
300.59849	12011.3
304.81948	12026.1
309.03742	11971
313.25231	11903.5
317.46415	11727.2
321.67296	11490
325.87872	11316.1
330.08145	11319.3
334.28114	11331.1
338.47781	11433.8
342.67145	11578.9
346.86207	11740.5
351.04966	11974.7
355.23424	12178.3
359.4158	12428.5
363.59435	12626
367.76989	12775.1
371.94243	12913.8
376.11196	13034.8
380.27849	13147.6
384.44203	13226.7
388.60257	13286.9
392.76012	13338
396.91468	13463.6
401.06626	13616.6
405.21485	13738.8
409.36047	13748.1
413.50311	13582.1
417.64277	13369.2
421.77947	13248.5
425.9132	13198.9
430.04396	13189.3
434.17176	13184.3
438.2966	13263.8
442.41849	13369.1
446.53742	13477.4
450.6534	13610
454.76644	13717.6
458.87653	13789.8
462.98368	13815
467.08789	13832.8
471.18916	13820
475.2875	13772.4
479.38291	13688.5
483.4754	13633.6
487.56496	13633.7
491.6516	13622.1
495.73531	13634.2
499.81612	13643.6
503.89401	13724.6
507.96899	13798.4
512.04106	13848.4
516.11023	13930.8
520.1765	13938.5
524.23987	13892
528.30034	13823.7
532.35792	13785.8
536.41261	13691.2
540.46441	13604.1
544.51333	13557.2
548.55936	13602.2
552.60252	13671.1
556.64279	13788.4
560.6802	13873.3
564.71473	13885.3
568.7464	13914.5
572.7752	13916.1
576.80114	13876.6
580.82422	13846.6
584.84444	13883.3
588.86181	13941.4
592.87633	13944.2
596.888	13992.7
600.89682	14128.7
604.9028	14621.3
608.90594	15888.2
612.90624	17364.1
616.90371	17066.8
620.89834	15171.1
624.89015	14193.4
628.87913	14029
632.86528	14063
636.84862	14218
640.82913	14206.7
644.80683	14019.9
648.78172	13921.7
652.75379	13873.8
656.72306	13977.8
660.68952	14196.8
664.65319	14223.7
668.61405	14096.4
672.57211	14068.3
676.52738	14075.1
680.47986	14047
684.42955	13979.1
688.37646	13928
692.32058	13982.5
696.26192	13999.9
700.20048	14102
704.13626	14131.1
708.06928	14109
711.99952	14001.6
715.927	13938.5
719.85171	13908.7
723.77365	13906
727.69284	13859.1
731.60928	13789.6
735.52295	13795.1
739.43388	13782
743.34206	13836.7
747.24749	13858
751.15017	13886.9
755.05012	13953.4
758.94733	14090.8
762.8418	14423.8
766.73354	15053.8
770.62254	15858.6
774.50882	16376.1
778.39237	16141.2
782.27321	15364.7
786.15132	14631.4
790.02671	14149.1
793.89938	13899
797.76935	13817.3
801.6366	13777.3
805.50115	13731.5
809.36299	13721.9
813.22213	13705.7
817.07857	13689.4
820.93231	13655.9
824.78336	13664.4
828.63172	13618.9
832.47738	13626
836.32036	13582.4
840.16066	13563.7
843.99827	13545.7
847.8332	13549.3
851.66546	13562.9
855.49504	13543.7
859.32195	13566.9
863.1462	13527.5
866.96777	13527.1
870.78668	13524.8
874.60293	13570.2
878.41652	13572.9
882.22745	13582.8
886.03573	13599.8
889.84136	13644.4
893.64433	13637.7
897.44466	13613.4
901.24235	13567
905.0374	13534.5
908.8298	13519.3
912.61957	13462.1
916.40671	13487.6
920.19121	13503.6
923.97308	13511.7
927.75233	13489.6
931.52895	13517.7
935.30295	13494.6
939.07433	13394.6
942.84309	13333.2
946.60924	13224.5
950.37278	13182.1
954.13371	13126
957.89203	13088.9
961.64774	13096.6
965.40086	13044.1
969.15137	13040.3
972.89929	13001.2
976.64461	13001.6
980.38733	12975.4
984.12747	12989.1
987.86502	12987.6
991.59999	12979.8
995.33237	13043
999.06217	13070.2
1002.78939	13107.7
1006.51404	13149.2
1010.23611	13237.9
1013.95561	13286
1017.67255	13344.5
1021.38692	13285.7
1025.09872	13247
1028.80796	13222.9
1032.51465	13165.7
1036.21877	13185.7
1039.92035	13187.4
1043.61937	13230.5
1047.31584	13245.3
1051.00976	13281.9
1054.70114	13309.4
1058.38998	13334
1062.07627	13345.2
1065.76003	13391.8
1069.44126	13465.3
1073.11995	13578
1076.79611	13687.5
1080.46974	13728.9
1084.14085	13730
1087.80943	13769.7
1091.47549	13775.5
1095.13903	13801.3
1098.80005	13722.6
1102.45857	13661.8
1106.11456	13586.1
1109.76805	13532
1113.41903	13570.4
1117.06751	13600
1120.71348	13750.6
1124.35696	13851
1127.99793	13965
1131.63641	14044.4
1135.2724	13944.7
1138.90589	13771.6
1142.5369	13636.1
1146.16542	13502.3
1149.79145	13423.5
1153.415	13323.1
1157.03607	13304.3
1160.65467	13332.5
1164.27079	13453.1
1167.88443	13649.6
1171.49561	13948.2
1175.10432	14438
1178.71056	15087.7
1182.31434	15702.7
1185.91565	15956.4
1189.51451	15918.7
1193.11091	15659.2
1196.70485	15295.6
1200.29634	14959
1203.88538	14696.7
1207.47197	14367.2
1211.05612	14034.9
1214.63782	13824.2
1218.21708	13715.5
1221.79391	13604.3
1225.36829	13546.9
1228.94024	13521.5
1232.50976	13538.2
1236.07685	13563.6
1239.6415	13585.4
1243.20374	13626.3
1246.76355	13672.3
1250.32093	13704.9
1253.8759	13776.4
1257.42845	13884.1
1260.97859	14005.6
1264.52631	14148.8
1268.07163	14277.7
1271.61453	14385.6
1275.15503	14446
1278.69312	14488.4
1282.22882	14451.4
1285.76211	14541.5
1289.29301	14646.8
1292.82151	14793.9
1296.34761	14939.7
1299.87133	15224.6
1303.39266	15640.8
1306.9116	16252.7
1310.42815	16848.5
1313.94233	17205.1
1317.45412	17093.2
1320.96354	16690.4
1324.47058	16267.4
1327.97525	15855.9
1331.47754	15462.4
1334.97747	15295.2
1338.47502	15239.6
1341.97022	15416.4
1345.46305	15768.1
1348.95352	16262
1352.44163	16808
1355.92738	17445.8
1359.41078	18317.9
1362.89183	19237.2
1366.37053	19270.9
1369.84688	17919.6
1373.32088	16341.4
1376.79254	15262.3
1380.26186	14620.1
1383.72883	14258.3
1387.19347	13997.7
1390.65578	13752
1394.11575	13474.5
1397.57339	13261.4
1401.0287	13126.2
1404.48168	13046.9
1407.93234	13014.2
1411.38068	12966
1414.82669	12964.8
1418.27039	12933.8
1421.71177	12878.2
1425.15083	12782.5
1428.58758	12696.9
1432.02203	12647.1
1435.45416	12599.5
1438.88399	12619.2
1442.31151	12607
1445.73673	12584.8
1449.15965	12617.9
1452.58027	12615.4
1455.9986	12600.9
1459.41463	12638.3
1462.82837	12674.7
1466.23982	12811.8
1469.64898	12997.7
1473.05586	13109.4
1476.46045	13202.5
1479.86276	13280.9
1483.26279	13425
1486.66054	13546.9
1490.05602	13707.8
1493.44922	14032.8
1496.84016	14538.6
1500.22882	15359.7
1503.61521	16361.2
1506.99934	17480.1
1510.38121	18252.1
1513.76081	18318.8
1517.13816	17640
1520.51324	16499.7
1523.88607	15443.7
1527.25665	14682
1530.62498	14236.3
1533.99105	13968.8
1537.35488	13806.6
1540.71647	13741.6
1544.07581	13663.3
1547.4329	13639.7
1550.78776	13671.1
1554.14038	13681.7
1557.49077	13718.2
1560.83892	13800.7
1564.18484	13959.1
1567.52853	14116
1570.86999	14301.3
1574.20922	14457.5
1577.54624	14414.7
1580.88103	14184.7
1584.2136	13814.2
1587.54395	13524
1590.87208	13372.3
1594.19801	13434.9
1597.52172	13654
1600.84321	13796.6
1604.16251	13736.9
1607.47959	13580.8
1610.79447	13334.8
1614.10715	13055.5
1617.41763	12767
1620.7259	12523.5
1624.03199	12374.6
1627.33587	12251.6
1630.63757	12244.3
1633.93707	12319.6
1637.23439	12508.8
1640.52951	12806.4
1643.82246	13385.3
1647.11321	14053.6
1650.40179	14652.9
1653.68819	14716.1
1656.97241	14113.3
1660.25446	13279.9
1663.53433	12641.5
1666.81203	12184.1
1670.08756	11886.8
1673.36092	11686.7
1676.63211	11550
1679.90115	11441.1
1683.16801	11358
1686.43272	11252.6
1689.69527	11185.1
1692.95567	11139.8
1696.2139	11122.4
1699.46999	11103.8
1702.72392	11042.8
1705.97571	11006.5
1709.22535	11011.4
1712.47284	10970.2
1715.71819	10942.1
1718.96139	10895.1
1722.20246	10889.5
1725.44139	10822.8
1728.67818	10763.4
1731.91284	10721.4
1735.14537	10656.4
1738.37576	10643.9
1741.60403	10571.4
1744.83017	10544.9
1748.05418	10524.3
1751.27607	10497.6
1754.49584	10456.1
1757.71349	10459.9
1760.92903	10444.8
1764.14244	10411.3
1767.35375	10416.4
1770.56294	10373.6
1773.77002	10389
1776.97499	10347.2
1780.17785	10313.5
1783.37861	10288.3
1786.57727	10236.8
1789.77382	10238
1792.96828	10218.4
1796.16064	10159.6
1799.3509	10147.6
1802.53907	10146.4
1805.72514	10087.4
1808.90913	10079.1
1812.09102	10038.6
1815.27083	10026
1818.44856	9992
1821.6242	9965.9
1824.79776	9939.2
1827.96924	9940.1
1831.13864	9921.2
1834.30597	9920.7
1837.47122	9899.7
1840.6344	9869.5
1843.7955	9856.7
1846.95454	9877.1
1850.11151	9830.6
1853.26642	9819.6
1856.41926	9809.4
1859.57004	9820.4
1862.71876	9775.1
1865.86542	9797.9
1869.01003	9775.4
1872.15258	9742.1
1875.29308	9731.2
1878.43152	9702.3
1881.56792	9706.3
1884.70227	9678.7
1887.83457	9658.7
1890.96482	9652.3
1894.09304	9634.2
1897.21921	9594.7
1900.34335	9598.9
1903.46544	9578.1
1906.58551	9561.4
1909.70353	9538.4
1912.81953	9538.5
1915.93349	9506.9
1919.04543	9491
1922.15534	9463.8
1925.26322	9441.3
1928.36908	9447.6
1931.47292	9394.9
1934.57473	9390.4
1937.67453	9351.2
1940.77232	9322.7
1943.86808	9304.8
1946.96184	9305.9
1950.05358	9271.7
1953.14331	9243.3
1956.23103	9201.3
1959.31675	9171.2
1962.40046	9137.6
1965.48217	9097.3
1968.56188	9082.2
1971.63959	9057.8
1974.7153	9030.9
1977.78901	8979.7
1980.86073	8968.7
1983.93046	8936.4
1986.99819	8895.6
1990.06394	8856.6
1993.1277	8847.9
1996.18947	8795.6
1999.24925	8780.5
2002.30706	8733.2
2005.36288	8711.3
2008.41672	8697.9
2011.46859	8667.5
2014.51848	8643.1
2017.56639	8584.9
2020.61233	8570.9
2023.6563	8542.8
2026.6983	8527.8
2029.73833	8500.3
2032.7764	8448.5
2035.8125	8443.8
2038.84664	8457.2
2041.87881	8421.7
2044.90903	8413
2047.93729	8378.6
2050.96359	8344.4
2053.98794	8331
2057.01034	8325.6
2060.03078	8303.4
2063.04927	8288.2
2066.06582	8291.1
2069.08042	8290.1
2072.09307	8269.7
2075.10378	8259.4
2078.11255	8226.9
2081.11938	8255.2
2084.12426	8238
2087.12722	8248.8
2090.12824	8219.1
2093.12732	8229.9
2096.12447	8222
2099.11969	8211.8
2102.11299	8208
2105.10435	8204.5
2108.09379	8214.6
2111.08131	8217.3
2114.0669	8212.7
2117.05057	8211.3
2120.03233	8227.1
2123.01216	8219.1
2125.99008	8223
2128.96609	8238
2131.94018	8229.8
2134.91236	8241.6
2137.88263	8244.5
2140.851	8227.3
2143.81746	8243.3
2146.78201	8239.9
2149.74466	8240.4
2152.7054	8219.2
2155.66425	8220.6
2158.6212	8214.6
2161.57625	8207.4
2164.52941	8206.9
2167.48067	8201
2170.43004	8172.3
2173.37752	8198.1
2176.32311	8195
2179.26681	8158.2
2182.20863	8172.1
2185.14856	8162.5
2188.08661	8154.4
2191.02278	8134.5
2193.95707	8149.1
2196.88948	8131
2199.82001	8112.6
2202.74867	8099.4
2205.67545	8083
2208.60037	8067.2
2211.52341	8054.2
2214.44458	8021.8
2217.36388	7987.8
2220.28132	7974.1
2223.1969	7971.2
2226.11061	7942.1
2229.02246	7920.2
2231.93245	7897
2234.84058	7890.1
2237.74686	7903
2240.65128	7877
2243.55385	7878.7
2246.45456	7837.1
2249.35343	7833.9
2252.25044	7822.4
2255.14561	7795.9
2258.03893	7796
2260.93041	7777.2
2263.82004	7753.5
2266.70783	7735.7
2269.59378	7721
2272.4779	7695.7
2275.36017	7678.7
2278.24061	7663.2
2281.11922	7634.9
2283.996	7646.7
2286.87094	7617.7
2289.74405	7576.8
2292.61534	7579.9
2295.4848	7555.7
2298.35243	7542.9
2301.21824	7534.8
2304.08223	7509.9
2306.94439	7522.6
2309.80474	7503.2
2312.66327	7486.1
2315.51999	7491.5
2318.37489	7479.6
2321.22797	7460.6
2324.07925	7442.5
2326.92871	7429.5
2329.77637	7401.9
2332.62222	7396.8
2335.46626	7387
2338.3085	7337
2341.14893	7339
2343.98756	7321.5
2346.8244	7306
2349.65943	7306.1
2352.49267	7293.7
2355.32411	7305.3
2358.15376	7284.9
2360.98161	7292
2363.80768	7281.7
2366.63195	7276.7
2369.45444	7266.5
2372.27514	7262.3
2375.09405	7243
2377.91118	7231.3
2380.72652	7201.9
2383.54009	7222.5
2386.35187	7193.1
2389.16188	7132.3
2391.97011	7127.3
2394.77657	7116.5
2397.58125	7105
2400.38416	7092.8
2403.18529	7052.2
2405.98466	7067.1
2408.78226	7018
2411.57809	7044.6
2414.37216	6998.9
2417.16446	7009.7
2419.955	6951.6
2422.74378	6975
2425.5308	6972.1
2428.31606	6966.6
2431.09956	6958
2433.88131	6960.8
2436.6613	6945.1
2439.43954	6918
2442.21603	6918.5
2444.99077	6910.9
2447.76377	6893.4
2450.53501	6892.8
2453.30451	6888.5
2456.07226	6864.8
2458.83827	6840.1
2461.60254	6857.8
2464.36507	6832.2
2467.12586	6833.1
2469.88492	6811.1
2472.64224	6806.9
2475.39782	6816.6
2478.15167	6799.4
2480.90379	6792
2483.65417	6763.6
2486.40283	6744
2489.14976	6764.8
2491.89497	6762.8
2494.63845	6740.5
2497.3802	6745
2500.12024	6714.4
2502.85855	6715
2505.59514	6703.2
2508.33002	6687.6
2511.06318	6662.7
2513.79462	6663.5
2516.52435	6625.7
2519.25237	6631.8
2521.97867	6618.2
2524.70327	6591
2527.42616	6577.9
2530.14734	6595.5
2532.86681	6549.2
2535.58458	6545.3
2538.30065	6532.8
2541.01501	6519.4
2543.72768	6488.2
2546.43864	6489.5
2549.14791	6474.6
2551.85548	6473.7
2554.56136	6469.3
2557.26554	6455.2
2559.96803	6419.1
2562.66883	6417
2565.36794	6427.2
2568.06536	6404.9
2570.7611	6399.6
2573.45514	6361.9
2576.14751	6342.3
2578.83819	6329.2
2581.52719	6303.5
2584.21451	6305.6
2586.90015	6301.6
2589.58411	6281.4
2592.2664	6275.8
2594.94701	6253.8
2597.62594	6233.9
2600.30321	6207.7
2602.9788	6188.5
2605.65273	6171.9
2608.32498	6173
2610.99557	6136.2
2613.66449	6161.9
2616.33175	6150
2618.99734	6136.7
2621.66128	6103.3
2624.32355	6103.8
2626.98416	6096.3
2629.64311	6105.7
2632.30041	6084.1
2634.95605	6064.6
2637.61004	6076.2
2640.26238	6043.5
2642.91306	6034.9
2645.56209	6033.5
2648.20948	6039.6
2650.85521	6001
2653.4993	6006.8
2656.14175	5990.5
2658.78255	5997
2661.42171	5993
2664.05923	5983.8
2666.6951	5980.1
2669.32934	5977.9
2671.96194	5971.7
2674.59291	5971.4
2677.22224	5941.7
2679.84993	5973.9
2682.476	5948
2685.10043	5943.3
2687.72324	5954.6
2690.34441	5957.3
2692.96396	5925.2
2695.58188	5945.1
2698.19818	5930.4
2700.81285	5925.3
2703.4259	5945.1
2706.03733	5958
2708.64714	5934.7
2711.25533	5920.7
2713.86191	5909.7
2716.46687	5907.8
2719.07021	5901.3
2721.67194	5904.8
2724.27206	5893.7
2726.87057	5897.2
2729.46747	5875.3
2732.06276	5866
2734.65644	5870.4
2737.24852	5838.6
2739.83899	5856.6
2742.42786	5827.1
2745.01513	5836.4
2747.60079	5815.7
2750.18486	5818.6
2752.76733	5821
2755.3482	5797.8
2757.92747	5808.3
2760.50515	5774.3
2763.08123	5774.1
2765.65573	5739.2
2768.22863	5739.6
2770.79994	5736.2
2773.36967	5748.3
2775.9378	5713.5
2778.50435	5710.7
2781.06932	5681.2
2783.6327	5693.9
2786.1945	5677.9
2788.75471	5662.5
2791.31335	5624.4
2793.87041	5620.5
2796.42589	5613.3
2798.97979	5599.6
2801.53212	5585.9
2804.08288	5589.2
2806.63206	5555.6
2809.17967	5536.1
2811.72571	5542.1
2814.27018	5527.7
2816.81308	5515.5
2819.35442	5503.2
2821.89419	5497.6
2824.43239	5490.8
2826.96904	5472.5
2829.50412	5466.1
2832.03763	5455.9
2834.56959	5459.6
2837.1	5441.3
2839.62884	5445.8
2842.15613	5438.3
2844.68186	5444.6
2847.20604	5465.7
2849.72867	5460.4
2852.24974	5444.6
2854.76927	5418.6
2857.28724	5409.4
2859.80367	5401.1
2862.31855	5393.8
2864.83189	5401.4
2867.34368	5380.6
2869.85393	5399.3
2872.36264	5380
2874.8698	5382.3
2877.37543	5355.2
2879.87952	5362.1
2882.38207	5364
2884.88308	5355.9
2887.38256	5365.9
2889.88051	5330
2892.37692	5355.9
2894.8718	5354.7
2897.36515	5340.5
2899.85698	5330.8
2902.34727	5365.1
2904.83604	5336.7
2907.32328	5344.8
2909.809	5326.6
2912.29319	5333.6
2914.77587	5330
2917.25702	5333.5
2919.73665	5322.4
2922.21476	5305.4
2924.69136	5320.8
2927.16644	5314.5
2929.64	5307.1
2932.11205	5291
2934.58258	5269.1
2937.05161	5264.9
2939.51912	5277.2
2941.98513	5273.9
2944.44962	5264
2946.91261	5235.2
2949.37409	5237.2
2951.83407	5242.6
2954.29254	5236.6
2956.74951	5224.2
2959.20498	5227.3
2961.65895	5201.5
2964.11142	5198.4
2966.56239	5196.3
2969.01186	5190.6
2971.45984	5186.1
2973.90632	5181.5
2976.35131	5177
2978.7948	5135.6
2981.23681	5143.8
2983.67732	5120
2986.11635	5142.8
2988.55388	5113
2990.98993	5097
2993.4245	5110.6
2995.85758	5093.6
2998.28917	5091
3000.71928	5079.8
3003.14791	5064.5
3005.57506	5044.9
3008.00073	5047.2
3010.42493	5050.7
3012.84764	5031.7
3015.26888	5025.4
3017.68865	5030.5
3020.10694	5011.1
3022.52376	5006.9
3024.9391	4994.4
3027.35298	4992
3029.76539	4952.4
3032.17632	4956.9
3034.5858	4932.7
3036.9938	4944.1
3039.40034	4935.5
3041.80542	4924.4
3044.20903	4919.6
3046.61118	4935.4
3049.01187	4926.7
3051.4111	4918.4
3053.80888	4891.1
3056.20519	4909.3
3058.60005	4893.1
3060.99345	4882.8
3063.3854	4861.4
3065.7759	4864.4
3068.16494	4856.5
3070.55254	4843.6
3072.93868	4830.1
3075.32338	4829.2
3077.70662	4831.2
3080.08842	4823.9
3082.46878	4834.9
3084.84769	4828.6
3087.22515	4828.4
3089.60118	4828.7
3091.97576	4829.7
3094.3489	4823.5
3096.72061	4825.4
3099.09087	4838.5
3101.4597	4827.8
3103.82709	4813.4
3106.19305	4826
3108.55757	4820.5
3110.92066	4790.2
3113.28232	4793.7
3115.64255	4781.1
3118.00134	4794.5
3120.35871	4777.6
3122.71466	4789.3
3125.06917	4780.4
3127.42226	4768.7
3129.77393	4766.4
3132.12417	4768.5
3134.47299	4770.9
3136.82039	4784.4
3139.16636	4791.3
3141.51092	4788.7
3143.85406	4798.1
3146.19579	4785.6
3148.53609	4785.8
3150.87499	4808
3153.21246	4811.6
3155.54853	4826
3157.88318	4818.1
3160.21642	4829.3
3162.54826	4826.7
3164.87868	4816.8
3167.2077	4827
3169.5353	4820.7
3171.86151	4801.4
3174.18631	4804.1
3176.5097	4816.9
3178.83169	4804.9
3181.15228	4810.4
3183.47147	4802
3185.78926	4805.6
3188.10565	4798
3190.42065	4793
3192.73424	4797.9
3195.04645	4803.7
3197.35725	4817.7
3199.66667	4791.8
3201.97469	4798.7
3204.28132	4810.7
3206.58656	4832.7
3208.8904	4815.8
3211.19287	4826
3213.49394	4834.4
3215.79363	4828.3
3218.09193	4823.4
3220.38884	4813.7
3222.68438	4822.1
3224.97853	4822.6
3227.2713	4820.1
3229.56269	4815.5
3231.8527	4795
3234.14133	4795.7
3236.42858	4778.8
3238.71446	4765.5
3240.99896	4761.1
3243.28209	4770.4
3245.56384	4781.6
3247.84423	4771.5
3250.12324	4771.7
3252.40088	4765.2
3254.67715	4757.6
3256.95205	4741.1
3259.22558	4739.8
3261.49775	4732.7
3263.76855	4729
3266.03799	4726.5
3268.30606	4718.1
3270.57277	4708
3272.83812	4697.2
3275.10211	4687.4
3277.36474	4685
3279.62601	4693.6
3281.88593	4691.3
3284.14448	4683.9
3286.40168	4668.8
3288.65753	4669.2
3290.91202	4648.7
3293.16516	4645.1
3295.41695	4630.8
3297.66738	4598.2
3299.91647	4568
3302.16421	4565.4
3304.4106	4536.3
3306.65564	4513.3
3308.89933	4496.6
3311.14169	4481.8
3313.38269	4450
3315.62236	4412.2
3317.86068	4375.4
3320.09766	4346.8
3322.3333	4312.2
3324.5676	4312.6
3326.80056	4241.4
3329.03219	4214.1
3331.26248	1.1
3333.49143	1
3335.71905	-1.6
