Data from AgNPs_FTO_APTES_UA_0uM_R6G_10uM_NaF_0.1M_Addition_RamanShift__39__10-41-47-126.txt Node

Date: Fri Dec 17 10:41:47 GMT 2021
User: TCL
Spectrometer: QEP01345
Trigger mode: 4
Integration Time (sec): 7.000000E0
Scans to average: 10
Electric dark correction enabled: true
Nonlinearity correction enabled: false
Boxcar width: 0
XAxis mode: Raman Shifts
Number of Pixels in Spectrum: 1044
>>>>>Begin Spectral Data<<<<<
46.04893	-1.1625
50.45542	-0.2625
54.85868	-1.7625
59.25871	0.7375
63.6555	85.7375
68.04907	86.0375
72.43941	94.8375
76.82654	95.3375
81.21044	99.4375
85.59113	101.5375
89.96862	106.3375
94.34289	107.9375
98.71396	112.0375
103.08183	115.4375
107.4465	118.0375
111.80798	120.0375
116.16626	124.9375
120.52136	129.8375
124.87327	137.3375
129.222	145.8375
133.56755	152.8375
137.90993	167.6375
142.24913	179.7375
146.58517	200.7375
150.91804	238.6375
155.24774	275.4375
159.57429	348.1375
163.89768	446.7375
168.21792	585.0375
172.53501	801.0375
176.84895	1122.0375
181.15975	1563.1375
185.46741	2204.1375
189.77193	3035.4375
194.07331	4063.1375
198.37157	5233.3375
202.6667	6478.8375
206.9587	7709.0375
211.24758	8903.6375
215.53334	10106.7375
219.81599	11365.6375
224.09553	12779.1375
228.37195	14341.9375
232.64527	16087.7375
236.91549	17872.9375
241.18261	19757.5375
245.44663	21445.1375
249.70755	22980.0375
253.96539	24282.9375
258.22014	25388.2375
262.4718	26344.3375
266.72039	26902.5375
270.96589	27198.4375
275.20832	27234.2375
279.44768	27024.2375
283.68397	26711.5375
287.91719	26426.3375
292.14735	26198.4375
296.37445	26150.8375
300.59849	26183.7375
304.81948	26284.7375
309.03742	26326.9375
313.25231	26188.4375
317.46415	25829.2375
321.67296	25254.6375
325.87872	24793.2375
330.08145	24540.5375
334.28114	24566.3375
338.47781	24774.3375
342.67145	25129.8375
346.86207	25520.3375
351.04966	26037.0375
355.23424	26611.7375
359.4158	27066.8375
363.59435	27471.5375
367.76989	27741.6375
371.94243	27962.2375
376.11196	28049.8375
380.27849	28162.3375
384.44203	28261.7375
388.60257	28440.3375
392.76012	28664.1375
396.91468	29033.1375
401.06626	29494.9375
405.21485	29810.2375
409.36047	29812.5375
413.50311	29539.8375
417.64277	29284.2375
421.77947	29286.8375
425.9132	29310.7375
430.04396	29455.3375
434.17176	29603.5375
438.2966	29810.8375
442.41849	30229.0375
446.53742	30858.6375
450.6534	31563.4375
454.76644	32048.7375
458.87653	32279.3375
462.98368	32203.6375
467.08789	31908.9375
471.18916	31528.5375
475.2875	31083.3375
479.38291	30794.4375
483.4754	30571.4375
487.56496	30326.4375
491.6516	30160.9375
495.73531	30010.3375
499.81612	29910.0375
503.89401	30033.5375
507.96899	30129.4375
512.04106	30155.2375
516.11023	30064.7375
520.1765	29956.2375
524.23987	29820.9375
528.30034	29725.7375
532.35792	29505.6375
536.41261	29222.9375
540.46441	28964.2375
544.51333	28915.6375
548.55936	29155.3375
552.60252	29599.0375
556.64279	30034.2375
560.6802	30367.7375
564.71473	30611.8375
568.7464	31017.1375
572.7752	31620.8375
576.80114	32079.2375
580.82422	32570.5375
584.84444	33228.0375
588.86181	33824.8375
592.87633	34324.1375
596.888	34539.8375
600.89682	34450.5375
604.9028	35244.2375
608.90594	37829.2375
612.90624	40519.1375
616.90371	38630.3375
620.89834	33441.0375
624.89015	31085.0375
628.87913	30759.0375
632.86528	30819.9375
636.84862	30690.5375
640.82913	30290.9375
644.80683	29713.0375
648.78172	29267.8375
652.75379	29274.7375
656.72306	29588.9375
660.68952	30088.9375
664.65319	30028.0375
668.61405	29567.8375
672.57211	29427.1375
676.52738	29461.2375
680.47986	29439.0375
684.42955	29295.6375
688.37646	29212.2375
692.32058	29343.7375
696.26192	29642.4375
700.20048	29972.9375
704.13626	30232.5375
708.06928	30192.8375
711.99952	30054.9375
715.927	29921.6375
719.85171	30003.4375
723.77365	29909.3375
727.69284	29640.1375
731.60928	29398.3375
735.52295	29360.6375
739.43388	29377.3375
743.34206	29451.1375
747.24749	29644.5375
751.15017	29873.4375
755.05012	30293.5375
758.94733	30915.8375
762.8418	32099.9375
766.73354	34017.7375
770.62254	35891.3375
774.50882	36358.4375
778.39237	35167.8375
782.27321	33169.3375
786.15132	31528.1375
790.02671	30437.3375
793.89938	29919.7375
797.76935	29740.2375
801.6366	29607.2375
805.50115	29541.7375
809.36299	29408.7375
813.22213	29255.2375
817.07857	29229.6375
820.93231	29179.7375
824.78336	29107.4375
828.63172	29157.7375
832.47738	29155.9375
836.32036	29243.2375
840.16066	29286.7375
843.99827	29346.8375
847.8332	29281.5375
851.66546	29282.0375
855.49504	29301.0375
859.32195	29314.5375
863.1462	29291.9375
866.96777	29216.0375
870.78668	29191.3375
874.60293	29222.4375
878.41652	29294.5375
882.22745	29404.8375
886.03573	29506.2375
889.84136	29470.2375
893.64433	29448.7375
897.44466	29318.6375
901.24235	29279.9375
905.0374	29271.7375
908.8298	29257.6375
912.61957	29306.7375
916.40671	29437.7375
920.19121	29713.0375
923.97308	30016.6375
927.75233	30157.1375
931.52895	30098.0375
935.30295	29812.8375
939.07433	29363.7375
942.84309	29025.8375
946.60924	28886.0375
950.37278	28775.8375
954.13371	28680.7375
957.89203	28588.5375
961.64774	28564.4375
965.40086	28494.9375
969.15137	28398.7375
972.89929	28369.0375
976.64461	28353.6375
980.38733	28395.2375
984.12747	28511.1375
987.86502	28771.9375
991.59999	29098.2375
995.33237	29451.3375
999.06217	30023.1375
1002.78939	30652.5375
1006.51404	31145.6375
1010.23611	31548.1375
1013.95561	31728.2375
1017.67255	31697.5375
1021.38692	31331.2375
1025.09872	31032.1375
1028.80796	30991.2375
1032.51465	31408.5375
1036.21877	31863.8375
1039.92035	31946.0375
1043.61937	31756.2375
1047.31584	31338.6375
1051.00976	30898.8375
1054.70114	30699.4375
1058.38998	30650.3375
1062.07627	30824.6375
1065.76003	31016.7375
1069.44126	31305.7375
1073.11995	31734.3375
1076.79611	32109.4375
1080.46974	32305.8375
1084.14085	32524.4375
1087.80943	32823.2375
1091.47549	33033.2375
1095.13903	33048.6375
1098.80005	32667.0375
1102.45857	32091.9375
1106.11456	31607.9375
1109.76805	31446.7375
1113.41903	31434.8375
1117.06751	31515.9375
1120.71348	31794.8375
1124.35696	32096.8375
1127.99793	32333.4375
1131.63641	32463.4375
1135.2724	32214.8375
1138.90589	32053.8375
1142.5369	31959.5375
1146.16542	31887.1375
1149.79145	31956.3375
1153.415	32015.7375
1157.03607	32190.6375
1160.65467	32711.9375
1164.27079	33614.0375
1167.88443	34845.3375
1171.49561	36450.8375
1175.10432	38565.3375
1178.71056	41204.2375
1182.31434	43547.0375
1185.91565	44903.6375
1189.51451	44853.3375
1193.11091	43856.9375
1196.70485	42236.4375
1200.29634	40672.2375
1203.88538	39475.0375
1207.47197	38689.9375
1211.05612	38049.2375
1214.63782	37612.9375
1218.21708	37208.8375
1221.79391	36950.5375
1225.36829	36769.8375
1228.94024	36486.9375
1232.50976	36118.0375
1236.07685	35808.8375
1239.6415	35643.4375
1243.20374	35674.2375
1246.76355	35839.1375
1250.32093	36226.7375
1253.8759	36821.1375
1257.42845	37675.0375
1260.97859	38509.4375
1264.52631	39379.2375
1268.07163	40161.3375
1271.61453	41026.2375
1275.15503	41972.3375
1278.69312	42895.1375
1282.22882	43668.6375
1285.76211	44539.3375
1289.29301	45417.8375
1292.82151	46441.4375
1296.34761	47765.8375
1299.87133	49558.6375
1303.39266	51753.6375
1306.9116	54350.5375
1310.42815	56946.4375
1313.94233	58591.7375
1317.45412	58679.9375
1320.96354	57849.5375
1324.47058	56751.9375
1327.97525	55716.7375
1331.47754	54970.8375
1334.97747	54538.6375
1338.47502	54337.1375
1341.97022	54023.7375
1345.46305	53549.0375
1348.95352	53029.0375
1352.44163	52970.6375
1355.92738	53874.2375
1359.41078	55858.8375
1362.89183	57929.5375
1366.37053	57397.2375
1369.84688	53653.1375
1373.32088	48814.2375
1376.79254	45288.8375
1380.26186	43644.0375
1383.72883	43044.4375
1387.19347	42657.4375
1390.65578	42080.0375
1394.11575	41761.6375
1397.57339	41767.9375
1401.0287	42198.3375
1404.48168	42809.0375
1407.93234	43179.4375
1411.38068	43015.7375
1414.82669	42319.2375
1418.27039	41256.3375
1421.71177	40092.4375
1425.15083	39108.7375
1428.58758	38595.7375
1432.02203	38763.7375
1435.45416	39339.2375
1438.88399	40057.6375
1442.31151	40689.5375
1445.73673	41091.3375
1449.15965	41435.3375
1452.58027	41562.9375
1455.9986	41583.9375
1459.41463	41737.8375
1462.82837	42229.7375
1466.23982	42978.6375
1469.64898	43681.8375
1473.05586	44119.1375
1476.46045	44239.2375
1479.86276	44254.2375
1483.26279	44122.9375
1486.66054	44057.8375
1490.05602	44238.6375
1493.44922	44756.8375
1496.84016	45339.9375
1500.22882	46227.7375
1503.61521	47480.4375
1506.99934	48937.8375
1510.38121	50215.1375
1513.76081	50570.5375
1517.13816	49546.6375
1520.51324	47666.0375
1523.88607	45902.8375
1527.25665	44660.3375
1530.62498	44024.5375
1533.99105	43653.0375
1537.35488	43200.3375
1540.71647	42756.3375
1544.07581	42153.2375
1547.4329	41553.9375
1550.78776	41071.7375
1554.14038	40689.5375
1557.49077	40520.0375
1560.83892	40431.4375
1564.18484	40548.6375
1567.52853	40652.2375
1570.86999	40847.0375
1574.20922	41229.2375
1577.54624	41439.1375
1580.88103	41238.3375
1584.2136	41182.0375
1587.54395	41867.5375
1590.87208	43427.8375
1594.19801	45654.4375
1597.52172	48054.4375
1600.84321	48868.4375
1604.16251	47322.0375
1607.47959	44328.0375
1610.79447	41183.5375
1614.10715	38347.2375
1617.41763	36101.6375
1620.7259	34571.3375
1624.03199	33874.1375
1627.33587	33883.3375
1630.63757	34564.3375
1633.93707	36148.3375
1637.23439	38675.7375
1640.52951	42276.0375
1643.82246	46296.9375
1647.11321	49475.3375
1650.40179	49968.3375
1653.68819	47223.2375
1656.97241	42309.6375
1660.25446	37420.6375
1663.53433	33832.7375
1666.81203	31595.9375
1670.08756	30158.3375
1673.36092	29289.8375
1676.63211	28669.8375
1679.90115	28250.2375
1683.16801	27916.2375
1686.43272	27697.4375
1689.69527	27539.0375
1692.95567	27417.6375
1696.2139	27313.5375
1699.46999	27253.2375
1702.72392	27204.7375
1705.97571	27190.3375
1709.22535	27152.6375
1712.47284	27103.0375
1715.71819	27110.1375
1718.96139	27067.5375
1722.20246	27003.0375
1725.44139	26910.6375
1728.67818	26799.3375
1731.91284	26656.1375
1735.14537	26538.2375
1738.37576	26461.3375
1741.60403	26380.8375
1744.83017	26342.0375
1748.05418	26260.6375
1751.27607	26215.1375
1754.49584	26221.1375
1757.71349	26155.9375
1760.92903	26155.2375
1764.14244	26127.1375
1767.35375	26116.7375
1770.56294	26066.6375
1773.77002	26045.2375
1776.97499	26004.3375
1780.17785	25981.5375
1783.37861	25963.9375
1786.57727	25954.1375
1789.77382	25890.5375
1792.96828	25885.1375
1796.16064	25821.0375
1799.3509	25774.9375
1802.53907	25763.3375
1805.72514	25688.3375
1808.90913	25616.0375
1812.09102	25579.1375
1815.27083	25517.5375
1818.44856	25531.0375
1821.6242	25493.3375
1824.79776	25442.2375
1827.96924	25443.7375
1831.13864	25422.5375
1834.30597	25388.5375
1837.47122	25423.4375
1840.6344	25425.1375
1843.7955	25453.5375
1846.95454	25426.6375
1850.11151	25403.6375
1853.26642	25392.2375
1856.41926	25413.1375
1859.57004	25415.8375
1862.71876	25380.4375
1865.86542	25431.1375
1869.01003	25355.8375
1872.15258	25330.6375
1875.29308	25363.3375
1878.43152	25330.9375
1881.56792	25320.7375
1884.70227	25237.8375
1887.83457	25274.0375
1890.96482	25219.8375
1894.09304	25169.4375
1897.21921	25150.1375
1900.34335	25191.7375
1903.46544	25124.0375
1906.58551	25145.7375
1909.70353	25117.9375
1912.81953	25075.0375
1915.93349	25026.4375
1919.04543	24983.0375
1922.15534	24872.3375
1925.26322	24886.2375
1928.36908	24804.6375
1931.47292	24766.1375
1934.57473	24667.0375
1937.67453	24630.6375
1940.77232	24577.0375
1943.86808	24485.2375
1946.96184	24417.8375
1950.05358	24345.8375
1953.14331	24271.0375
1956.23103	24213.7375
1959.31675	24148.9375
1962.40046	24102.8375
1965.48217	24004.1375
1968.56188	23972.9375
1971.63959	23900.6375
1974.7153	23810.7375
1977.78901	23712.5375
1980.86073	23619.2375
1983.93046	23548.9375
1986.99819	23465.3375
1990.06394	23403.1375
1993.1277	23365.9375
1996.18947	23279.9375
1999.24925	23258.0375
2002.30706	23162.9375
2005.36288	23050.4375
2008.41672	23026.5375
2011.46859	22952.8375
2014.51848	22926.7375
2017.56639	22848.9375
2020.61233	22802.3375
2023.6563	22766.7375
2026.6983	22726.7375
2029.73833	22654.6375
2032.7764	22642.6375
2035.8125	22569.7375
2038.84664	22562.4375
2041.87881	22553.3375
2044.90903	22485.6375
2047.93729	22458.7375
2050.96359	22432.5375
2053.98794	22386.4375
2057.01034	22365.1375
2060.03078	22316.3375
2063.04927	22288.0375
2066.06582	22290.3375
2069.08042	22268.8375
2072.09307	22273.8375
2075.10378	22254.3375
2078.11255	22235.6375
2081.11938	22249.2375
2084.12426	22216.5375
2087.12722	22224.0375
2090.12824	22193.0375
2093.12732	22218.3375
2096.12447	22241.9375
2099.11969	22191.2375
2102.11299	22241.3375
2105.10435	22262.7375
2108.09379	22228.9375
2111.08131	22229.9375
2114.0669	22244.0375
2117.05057	22258.7375
2120.03233	22301.0375
2123.01216	22290.7375
2125.99008	22305.5375
2128.96609	22341.0375
2131.94018	22380.6375
2134.91236	22357.3375
2137.88263	22348.3375
2140.851	22387.6375
2143.81746	22391.9375
2146.78201	22394.2375
2149.74466	22433.9375
2152.7054	22415.7375
2155.66425	22388.6375
2158.6212	22387.3375
2161.57625	22398.4375
2164.52941	22386.9375
2167.48067	22375.4375
2170.43004	22401.2375
2173.37752	22400.1375
2176.32311	22367.9375
2179.26681	22399.7375
2182.20863	22389.3375
2185.14856	22397.5375
2188.08661	22368.2375
2191.02278	22390.8375
2193.95707	22367.9375
2196.88948	22305.3375
2199.82001	22352.8375
2202.74867	22319.5375
2205.67545	22345.8375
2208.60037	22300.5375
2211.52341	22270.6375
2214.44458	22227.7375
2217.36388	22150.9375
2220.28132	22140.0375
2223.1969	22108.8375
2226.11061	22083.1375
2229.02246	22056.9375
2231.93245	21988.3375
2234.84058	21962.4375
2237.74686	21915.3375
2240.65128	21896.7375
2243.55385	21859.6375
2246.45456	21847.9375
2249.35343	21833.6375
2252.25044	21790.0375
2255.14561	21743.7375
2258.03893	21693.5375
2260.93041	21646.1375
2263.82004	21605.1375
2266.70783	21554.1375
2269.59378	21524.6375
2272.4779	21501.2375
2275.36017	21421.8375
2278.24061	21394.6375
2281.11922	21353.7375
2283.996	21361.7375
2286.87094	21312.2375
2289.74405	21270.6375
2292.61534	21266.7375
2295.4848	21238.2375
2298.35243	21227.0375
2301.21824	21232.0375
2304.08223	21231.5375
2306.94439	21199.2375
2309.80474	21216.4375
2312.66327	21225.1375
2315.51999	21172.0375
2318.37489	21208.5375
2321.22797	21142.9375
2324.07925	21115.6375
2326.92871	21109.2375
2329.77637	21095.2375
2332.62222	21103.5375
2335.46626	21012.1375
2338.3085	21008.2375
2341.14893	20980.0375
2343.98756	20999.1375
2346.8244	20979.2375
2349.65943	20997.2375
2352.49267	20963.6375
2355.32411	20935.5375
2358.15376	20928.0375
2360.98161	20876.9375
2363.80768	20904.2375
2366.63195	20886.3375
2369.45444	20815.3375
2372.27514	20784.9375
2375.09405	20743.5375
2377.91118	20744.5375
2380.72652	20676.9375
2383.54009	20648.6375
2386.35187	20628.4375
2389.16188	20571.9375
2391.97011	20531.5375
2394.77657	20508.2375
2397.58125	20472.2375
2400.38416	20447.9375
2403.18529	20432.2375
2405.98466	20425.2375
2408.78226	20369.5375
2411.57809	20315.7375
2414.37216	20283.5375
2417.16446	20232.3375
2419.955	20240.7375
2422.74378	20237.8375
2425.5308	20172.7375
2428.31606	20166.8375
2431.09956	20176.2375
2433.88131	20154.3375
2436.6613	20139.0375
2439.43954	20133.6375
2442.21603	20093.2375
2444.99077	20074.3375
2447.76377	20062.4375
2450.53501	20037.6375
2453.30451	20057.9375
2456.07226	20030.5375
2458.83827	20027.6375
2461.60254	20006.3375
2464.36507	19977.4375
2467.12586	19984.8375
2469.88492	19961.6375
2472.64224	19938.9375
2475.39782	19916.6375
2478.15167	19952.3375
2480.90379	19936.4375
2483.65417	19965.7375
2486.40283	19924.0375
2489.14976	19909.2375
2491.89497	19843.2375
2494.63845	19901.6375
2497.3802	19893.0375
2500.12024	19909.3375
2502.85855	19874.5375
2505.59514	19877.9375
2508.33002	19841.5375
2511.06318	19849.9375
2513.79462	19790.6375
2516.52435	19787.2375
2519.25237	19789.8375
2521.97867	19760.4375
2524.70327	19713.5375
2527.42616	19716.3375
2530.14734	19694.8375
2532.86681	19633.6375
2535.58458	19636.1375
2538.30065	19619.9375
2541.01501	19603.9375
2543.72768	19590.5375
2546.43864	19530.8375
2549.14791	19532.2375
2551.85548	19500.4375
2554.56136	19498.9375
2557.26554	19464.6375
2559.96803	19438.3375
2562.66883	19421.0375
2565.36794	19431.7375
2568.06536	19403.2375
2570.7611	19370.3375
2573.45514	19345.4375
2576.14751	19303.9375
2578.83819	19261.3375
2581.52719	19296.3375
2584.21451	19259.2375
2586.90015	19262.7375
2589.58411	19217.6375
2592.2664	19178.7375
2594.94701	19165.6375
2597.62594	19140.3375
2600.30321	19114.8375
2602.9788	19093.2375
2605.65273	19083.2375
2608.32498	19072.7375
2610.99557	19042.7375
2613.66449	19041.6375
2616.33175	19019.2375
2618.99734	18996.5375
2621.66128	18987.4375
2624.32355	18940.3375
2626.98416	18974.0375
2629.64311	18915.4375
2632.30041	18924.5375
2634.95605	18923.8375
2637.61004	18892.1375
2640.26238	18881.6375
2642.91306	18843.7375
2645.56209	18849.2375
2648.20948	18823.2375
2650.85521	18770.7375
2653.4993	18776.3375
2656.14175	18792.2375
2658.78255	18762.0375
2661.42171	18799.2375
2664.05923	18799.7375
2666.6951	18795.4375
2669.32934	18778.1375
2671.96194	18807.3375
2674.59291	18818.6375
2677.22224	18789.0375
2679.84993	18808.8375
2682.476	18759.1375
2685.10043	18774.6375
2687.72324	18761.0375
2690.34441	18761.5375
2692.96396	18746.9375
2695.58188	18748.0375
2698.19818	18689.9375
2700.81285	18727.0375
2703.4259	18733.0375
2706.03733	18729.5375
2708.64714	18741.7375
2711.25533	18733.1375
2713.86191	18698.0375
2716.46687	18732.6375
2719.07021	18702.5375
2721.67194	18727.8375
2724.27206	18680.5375
2726.87057	18701.0375
2729.46747	18670.5375
2732.06276	18695.3375
2734.65644	18692.2375
2737.24852	18668.4375
2739.83899	18653.4375
2742.42786	18642.4375
2745.01513	18650.9375
2747.60079	18670.4375
2750.18486	18621.1375
2752.76733	18620.6375
2755.3482	18588.3375
2757.92747	18589.4375
2760.50515	18592.8375
2763.08123	18585.9375
2765.65573	18519.2375
2768.22863	18591.4375
2770.79994	18534.1375
2773.36967	18482.4375
2775.9378	18477.4375
2778.50435	18478.2375
2781.06932	18467.9375
2783.6327	18449.5375
2786.1945	18399.9375
2788.75471	18403.7375
2791.31335	18339.1375
2793.87041	18309.2375
2796.42589	18279.3375
2798.97979	18270.6375
2801.53212	18224.9375
2804.08288	18185.4375
2806.63206	18117.7375
2809.17967	18129.3375
2811.72571	18090.4375
2814.27018	18080.5375
2816.81308	18030.2375
2819.35442	18027.5375
2821.89419	17986.2375
2824.43239	17998.4375
2826.96904	17913.5375
2829.50412	17885.8375
2832.03763	17858.6375
2834.56959	17831.0375
2837.1	17840.3375
2839.62884	17822.4375
2842.15613	17834.6375
2844.68186	17860.6375
2847.20604	17792.0375
2849.72867	17850.4375
2852.24974	17756.0375
2854.76927	17805.3375
2857.28724	17777.2375
2859.80367	17761.8375
2862.31855	17725.8375
2864.83189	17724.0375
2867.34368	17666.9375
2869.85393	17649.9375
2872.36264	17652.2375
2874.8698	17670.5375
2877.37543	17636.5375
2879.87952	17649.8375
2882.38207	17676.8375
2884.88308	17669.9375
2887.38256	17671.7375
2889.88051	17682.6375
2892.37692	17619.2375
2894.8718	17651.3375
2897.36515	17658.3375
2899.85698	17635.1375
2902.34727	17700.7375
2904.83604	17646.4375
2907.32328	17657.7375
2909.809	17698.6375
2912.29319	17687.6375
2914.77587	17658.5375
2917.25702	17645.4375
2919.73665	17662.4375
2922.21476	17628.1375
2924.69136	17642.7375
2927.16644	17622.7375
2929.64	17559.6375
2932.11205	17594.3375
2934.58258	17545.1375
2937.05161	17576.5375
2939.51912	17533.9375
2941.98513	17501.9375
2944.44962	17463.6375
2946.91261	17409.4375
2949.37409	17433.1375
2951.83407	17412.2375
2954.29254	17387.8375
2956.74951	17352.9375
2959.20498	17356.2375
2961.65895	17331.3375
2964.11142	17325.9375
2966.56239	17298.3375
2969.01186	17287.6375
2971.45984	17221.7375
2973.90632	17198.9375
2976.35131	17162.2375
2978.7948	17110.4375
2981.23681	17071.1375
2983.67732	17018.7375
2986.11635	17001.4375
2988.55388	16942.9375
2990.98993	16886.8375
2993.4245	16890.7375
2995.85758	16853.5375
2998.28917	16843.3375
3000.71928	16806.1375
3003.14791	16751.0375
3005.57506	16764.1375
3008.00073	16704.4375
3010.42493	16670.9375
3012.84764	16694.8375
3015.26888	16668.7375
3017.68865	16578.0375
3020.10694	16587.4375
3022.52376	16550.3375
3024.9391	16520.5375
3027.35298	16475.1375
3029.76539	16447.9375
3032.17632	16426.3375
3034.5858	16415.3375
3036.9938	16400.3375
3039.40034	16364.4375
3041.80542	16375.6375
3044.20903	16335.1375
3046.61118	16306.1375
3049.01187	16274.4375
3051.4111	16282.2375
3053.80888	16204.2375
3056.20519	16195.3375
3058.60005	16120.9375
3060.99345	16106.6375
3063.3854	16063.5375
3065.7759	16019.9375
3068.16494	15986.0375
3070.55254	15944.5375
3072.93868	15922.8375
3075.32338	15891.5375
3077.70662	15878.5375
3080.08842	15823.4375
3082.46878	15821.0375
3084.84769	15788.3375
3087.22515	15762.8375
3089.60118	15783.3375
3091.97576	15745.7375
3094.3489	15747.6375
3096.72061	15748.0375
3099.09087	15696.9375
3101.4597	15692.6375
3103.82709	15664.8375
3106.19305	15660.3375
3108.55757	15640.5375
3110.92066	15600.2375
3113.28232	15595.9375
3115.64255	15519.4375
3118.00134	15485.3375
3120.35871	15494.7375
3122.71466	15473.5375
3125.06917	15429.4375
3127.42226	15398.6375
3129.77393	15439.6375
3132.12417	15392.7375
3134.47299	15389.0375
3136.82039	15377.5375
3139.16636	15371.9375
3141.51092	15348.2375
3143.85406	15358.8375
3146.19579	15381.8375
3148.53609	15333.2375
3150.87499	15369.6375
3153.21246	15377.2375
3155.54853	15367.6375
3157.88318	15363.5375
3160.21642	15340.7375
3162.54826	15308.2375
3164.87868	15283.2375
3167.2077	15273.1375
3169.5353	15269.7375
3171.86151	15246.4375
3174.18631	15265.7375
3176.5097	15236.5375
3178.83169	15187.1375
3181.15228	15192.4375
3183.47147	15156.1375
3185.78926	15165.0375
3188.10565	15165.4375
3190.42065	15164.9375
3192.73424	15148.6375
3195.04645	15137.9375
3197.35725	15192.3375
3199.66667	15146.5375
3201.97469	15158.0375
3204.28132	15134.9375
3206.58656	15142.6375
3208.8904	15096.7375
3211.19287	15112.9375
3213.49394	15093.2375
3215.79363	15063.1375
3218.09193	15094.8375
3220.38884	15048.1375
3222.68438	15063.6375
3224.97853	15020.9375
3227.2713	15007.0375
3229.56269	14997.4375
3231.8527	15012.8375
3234.14133	14973.6375
3236.42858	14938.0375
3238.71446	14927.8375
3240.99896	14896.1375
3243.28209	14889.3375
3245.56384	14896.6375
3247.84423	14885.1375
3250.12324	14894.2375
3252.40088	14843.0375
3254.67715	14822.5375
3256.95205	14808.1375
3259.22558	14805.9375
3261.49775	14760.7375
3263.76855	14747.2375
3266.03799	14730.3375
3268.30606	14715.9375
3270.57277	14683.1375
3272.83812	14668.1375
3275.10211	14639.4375
3277.36474	14609.0375
3279.62601	14626.9375
3281.88593	14566.4375
3284.14448	14570.0375
3286.40168	14576.6375
3288.65753	14542.8375
3290.91202	14515.5375
3293.16516	14479.6375
3295.41695	14416.8375
3297.66738	14364.7375
3299.91647	14263.2375
3302.16421	14185.8375
3304.4106	14134.7375
3306.65564	14098.1375
3308.89933	13983.1375
3311.14169	13920.8375
3313.38269	13810.7375
3315.62236	13740.0375
3317.86068	13600.8375
3320.09766	13457.2375
3322.3333	13325.6375
3324.5676	13328.1375
3326.80056	13121.0375
3329.03219	13042.8375
3331.26248	3.5375
3333.49143	0.4375
3335.71905	0.0375
