Data from AgNPs_FTO_APTES_UA_20uM_R6G_10uM_NaF_0.1M_Addition_RamanShift__27__14-26-57-384.txt Node

Date: Fri Dec 17 14:26:57 GMT 2021
User: TCL
Spectrometer: QEP01345
Trigger mode: 4
Integration Time (sec): 7.000000E0
Scans to average: 10
Electric dark correction enabled: true
Nonlinearity correction enabled: false
Boxcar width: 0
XAxis mode: Raman Shifts
Number of Pixels in Spectrum: 1044
>>>>>Begin Spectral Data<<<<<
46.04893	1
50.45542	-0.5
54.85868	-1.8
59.25871	0.8
63.6555	63.9
68.04907	68.4
72.43941	70.2
76.82654	74.2
81.21044	74.4
85.59113	80.1
89.96862	82
94.34289	84.3
98.71396	84.4
103.08183	90.1
107.4465	91.2
111.80798	92.3
116.16626	98
120.52136	97.7
124.87327	101.2
129.222	106.8
133.56755	111.3
137.90993	117.6
142.24913	128.3
146.58517	140.6
150.91804	162.6
155.24774	185.2
159.57429	233.7
163.89768	291.7
168.21792	381.3
172.53501	510.4
176.84895	708.3
181.15975	986.4
185.46741	1380.5
189.77193	1902.7
194.07331	2544.9
198.37157	3284.3
202.6667	4052.2
206.9587	4821.5
211.24758	5580.4
215.53334	6345.9
219.81599	7188.3
224.09553	8051.8
228.37195	9084.8
232.64527	10183.8
236.91549	11349.8
241.18261	12512.1
245.44663	13601.2
249.70755	14523.3
253.96539	15318.6
258.22014	16033.9
262.4718	16629.5
266.72039	17065.2
270.96589	17346.5
275.20832	17391.9
279.44768	17259.5
283.68397	17006.3
287.91719	16804.9
292.14735	16752.8
296.37445	16775.1
300.59849	16988.6
304.81948	17246
309.03742	17371.2
313.25231	17229.6
317.46415	16751
321.67296	16080.8
325.87872	15592.8
330.08145	15345.1
334.28114	15369.2
338.47781	15568.4
342.67145	15827
346.86207	16246.1
351.04966	16801
355.23424	17382.3
359.4158	17893.1
363.59435	18258.8
367.76989	18479.3
371.94243	18622.7
376.11196	18712.9
380.27849	18796.4
384.44203	18828.6
388.60257	18802.5
392.76012	18827.1
396.91468	19040.2
401.06626	19325.7
405.21485	19610.5
409.36047	19523.3
413.50311	19082.9
417.64277	18636.4
421.77947	18415.5
425.9132	18335.2
430.04396	18373.1
434.17176	18480.8
438.2966	18636.9
442.41849	18981.4
446.53742	19361
450.6534	19842.5
454.76644	20162.6
458.87653	20364.2
462.98368	20334
467.08789	20126.7
471.18916	19838.2
475.2875	19528.3
479.38291	19259.1
483.4754	19040.5
487.56496	18910.1
491.6516	18734.1
495.73531	18679.4
499.81612	18652.4
503.89401	18728.1
507.96899	18850.7
512.04106	19011.4
516.11023	19155
520.1765	19245.7
524.23987	19248
528.30034	19083.5
532.35792	18847.8
536.41261	18629.1
540.46441	18390.7
544.51333	18331.1
548.55936	18399.9
552.60252	18650.8
556.64279	18897
560.6802	19018.2
564.71473	19085
568.7464	19370.9
572.7752	19646.3
576.80114	19566.8
580.82422	19467.7
584.84444	19494.6
588.86181	19593
592.87633	19750.5
596.888	19899.6
600.89682	20270.5
604.9028	21568.2
608.90594	24707.4
612.90624	28476.9
616.90371	27563.2
620.89834	22419.9
624.89015	19943.4
628.87913	19467.4
632.86528	19477.1
636.84862	19576.8
640.82913	19386.1
644.80683	18957.1
648.78172	18555.7
652.75379	18545.8
656.72306	18859.3
660.68952	19340.5
664.65319	19282
668.61405	18854.5
672.57211	18683.6
676.52738	18662.7
680.47986	18675.7
684.42955	18656
688.37646	18611.4
692.32058	18704.7
696.26192	18800.3
700.20048	18968.2
704.13626	19025.1
708.06928	18983.8
711.99952	18819.5
715.927	18818.4
719.85171	18792
723.77365	18824.5
727.69284	18740.7
731.60928	18618.2
735.52295	18607.8
739.43388	18660.5
743.34206	18778.5
747.24749	18817.2
751.15017	18943.2
755.05012	19144.3
758.94733	19625.1
762.8418	20590.6
766.73354	22288.7
770.62254	24153
774.50882	25172.5
778.39237	24454.1
782.27321	22396.9
786.15132	20546.3
790.02671	19488.6
793.89938	19011.2
797.76935	18786.3
801.6366	18755.7
805.50115	18701.2
809.36299	18688
813.22213	18642.3
817.07857	18608.7
820.93231	18584.1
824.78336	18592.7
828.63172	18630.2
832.47738	18639.9
836.32036	18672
840.16066	18688.4
843.99827	18698.2
847.8332	18682.9
851.66546	18625.6
855.49504	18597.4
859.32195	18563.6
863.1462	18542.7
866.96777	18498.2
870.78668	18495.3
874.60293	18514
878.41652	18526.2
882.22745	18622.2
886.03573	18695.5
889.84136	18654.6
893.64433	18578
897.44466	18492.8
901.24235	18453.3
905.0374	18419.6
908.8298	18369.8
912.61957	18373.1
916.40671	18465.7
920.19121	18552
923.97308	18690.4
927.75233	18791.2
931.52895	18875.9
935.30295	18758.9
939.07433	18484.6
942.84309	18295.5
946.60924	18150.3
950.37278	18080.1
954.13371	17989.1
957.89203	17888.3
961.64774	17848.7
965.40086	17755.2
969.15137	17716.7
972.89929	17662.2
976.64461	17650.6
980.38733	17680.1
984.12747	17755.9
987.86502	17841.9
991.59999	18036.1
995.33237	18246.4
999.06217	18661
1002.78939	19103.8
1006.51404	19517.2
1010.23611	19790.2
1013.95561	20006.2
1017.67255	20059.3
1021.38692	19911.5
1025.09872	19822.8
1028.80796	19918.5
1032.51465	20282.1
1036.21877	20594.5
1039.92035	20626.4
1043.61937	20374.8
1047.31584	19986.7
1051.00976	19576.7
1054.70114	19315
1058.38998	19239.3
1062.07627	19282.9
1065.76003	19397.8
1069.44126	19451.6
1073.11995	19610.6
1076.79611	19721.2
1080.46974	19820.1
1084.14085	19970.4
1087.80943	20169.1
1091.47549	20252.5
1095.13903	20057.5
1098.80005	19726.9
1102.45857	19431.2
1106.11456	19308.1
1109.76805	19371.1
1113.41903	19548.7
1117.06751	19812.1
1120.71348	20185.4
1124.35696	20530.3
1127.99793	20849.4
1131.63641	20954.4
1135.2724	20641
1138.90589	20252
1142.5369	19934.5
1146.16542	19718
1149.79145	19557.3
1153.415	19539.3
1157.03607	19633
1160.65467	19882.8
1164.27079	20330.4
1167.88443	20950.1
1171.49561	21897.8
1175.10432	23390.7
1178.71056	25383.2
1182.31434	27267.5
1185.91565	28151.1
1189.51451	28028.7
1193.11091	27027.7
1196.70485	25581.3
1200.29634	24444
1203.88538	23614.2
1207.47197	22820.9
1211.05612	22167
1214.63782	21781
1218.21708	21655.9
1221.79391	21715.4
1225.36829	21790.8
1228.94024	21837.2
1232.50976	21820.4
1236.07685	21790.4
1239.6415	21814.3
1243.20374	21827
1246.76355	21933.2
1250.32093	22142.5
1253.8759	22558.5
1257.42845	23031.5
1260.97859	23498
1264.52631	23862.1
1268.07163	24294.5
1271.61453	24736.9
1275.15503	25226.8
1278.69312	25688.7
1282.22882	26054.7
1285.76211	26389
1289.29301	26796.1
1292.82151	27315.7
1296.34761	27879.5
1299.87133	28829.8
1303.39266	30211.6
1306.9116	32220
1310.42815	34391.7
1313.94233	35735.3
1317.45412	35536.2
1320.96354	34352.7
1324.47058	32916.9
1327.97525	31659.8
1331.47754	30816.5
1334.97747	30592.4
1338.47502	30915.8
1341.97022	31377.8
1345.46305	31821.4
1348.95352	32135.3
1352.44163	32797.6
1355.92738	34180.8
1359.41078	36629.5
1362.89183	39220.5
1366.37053	38727.3
1369.84688	34865
1373.32088	30668.2
1376.79254	27891.4
1380.26186	26469.7
1383.72883	25841.2
1387.19347	25362.5
1390.65578	24865.3
1394.11575	24535.6
1397.57339	24440.3
1401.0287	24660.5
1404.48168	25005.4
1407.93234	25472
1411.38068	25847.4
1414.82669	25962.4
1418.27039	25653.8
1421.71177	25120.2
1425.15083	24588.6
1428.58758	24263.8
1432.02203	24190.7
1435.45416	24325.9
1438.88399	24445.6
1442.31151	24541.1
1445.73673	24663.9
1449.15965	24823.3
1452.58027	24844.7
1455.9986	24723.8
1459.41463	24744.6
1462.82837	24882.5
1466.23982	25247.2
1469.64898	25708.5
1473.05586	26071
1476.46045	26337.2
1479.86276	26592.1
1483.26279	26933.9
1486.66054	27267.5
1490.05602	27743.3
1493.44922	28371.7
1496.84016	29097.6
1500.22882	30163.5
1503.61521	31684.5
1506.99934	33598.5
1510.38121	35364.6
1513.76081	35925.6
1517.13816	34706.3
1520.51324	32281.9
1523.88607	29823.5
1527.25665	28119.3
1530.62498	27095.2
1533.99105	26564.6
1537.35488	26212
1540.71647	26048.4
1544.07581	25951.2
1547.4329	25909.6
1550.78776	25852.4
1554.14038	25848
1557.49077	25927.3
1560.83892	26023.5
1564.18484	26159.5
1567.52853	26247.3
1570.86999	26413.5
1574.20922	26570.2
1577.54624	26584
1580.88103	26191.2
1584.2136	25632.8
1587.54395	25509.7
1590.87208	26099.6
1594.19801	27314.9
1597.52172	28763.3
1600.84321	29487.9
1604.16251	28937.3
1607.47959	27486.5
1610.79447	25886.8
1614.10715	24336.9
1617.41763	23025.5
1620.7259	22216.5
1624.03199	21838.3
1627.33587	21829.6
1630.63757	22228.9
1633.93707	23028.2
1637.23439	24095
1640.52951	25472.8
1643.82246	27062.2
1647.11321	28573.9
1650.40179	29319.4
1653.68819	28477.3
1656.97241	26047.1
1660.25446	23387.1
1663.53433	21396.2
1666.81203	20179.3
1670.08756	19435.8
1673.36092	18922.5
1676.63211	18597.1
1679.90115	18362.7
1683.16801	18160.9
1686.43272	18030.4
1689.69527	17943
1692.95567	17859.9
1696.2139	17819.6
1699.46999	17805
1702.72392	17758.9
1705.97571	17701.5
1709.22535	17729.6
1712.47284	17669
1715.71819	17678.8
1718.96139	17627.2
1722.20246	17630.9
1725.44139	17563.4
1728.67818	17491.5
1731.91284	17409.9
1735.14537	17355.9
1738.37576	17305.3
1741.60403	17260.2
1744.83017	17240.4
1748.05418	17218.1
1751.27607	17185.8
1754.49584	17134.6
1757.71349	17153.8
1760.92903	17189.5
1764.14244	17136.7
1767.35375	17153.5
1770.56294	17115.7
1773.77002	17161.8
1776.97499	17113.4
1780.17785	17098.3
1783.37861	17049.6
1786.57727	17081.4
1789.77382	17025.7
1792.96828	17011.6
1796.16064	16984.1
1799.3509	16990.1
1802.53907	16955.1
1805.72514	16931
1808.90913	16893.4
1812.09102	16873.3
1815.27083	16829.7
1818.44856	16807
1821.6242	16834.6
1824.79776	16797
1827.96924	16783.4
1831.13864	16786.7
1834.30597	16793.7
1837.47122	16765.5
1840.6344	16768.7
1843.7955	16778
1846.95454	16774.6
1850.11151	16750.5
1853.26642	16746.5
1856.41926	16753.2
1859.57004	16774.8
1862.71876	16758.8
1865.86542	16778.4
1869.01003	16782.7
1872.15258	16752.6
1875.29308	16774
1878.43152	16776.6
1881.56792	16778.9
1884.70227	16773.6
1887.83457	16783.6
1890.96482	16752.4
1894.09304	16753.3
1897.21921	16743.2
1900.34335	16734.2
1903.46544	16769.3
1906.58551	16779.1
1909.70353	16743.5
1912.81953	16739.7
1915.93349	16741.5
1919.04543	16701.2
1922.15534	16687.6
1925.26322	16663.9
1928.36908	16628.9
1931.47292	16585
1934.57473	16537.5
1937.67453	16517.7
1940.77232	16460.4
1943.86808	16379.4
1946.96184	16368.3
1950.05358	16324.6
1953.14331	16268.7
1956.23103	16218.5
1959.31675	16181.3
1962.40046	16152
1965.48217	16130
1968.56188	16049.8
1971.63959	16036.7
1974.7153	15962.9
1977.78901	15943.8
1980.86073	15855
1983.93046	15839.6
1986.99819	15778.8
1990.06394	15790.2
1993.1277	15685.6
1996.18947	15615.3
1999.24925	15607.2
2002.30706	15590.1
2005.36288	15538.4
2008.41672	15523.2
2011.46859	15467.5
2014.51848	15427
2017.56639	15414
2020.61233	15365.5
2023.6563	15304.4
2026.6983	15304.8
2029.73833	15277.5
2032.7764	15244.8
2035.8125	15215.7
2038.84664	15186.7
2041.87881	15173.5
2044.90903	15193.5
2047.93729	15149
2050.96359	15133.3
2053.98794	15115.6
2057.01034	15084.6
2060.03078	15087
2063.04927	15063.2
2066.06582	15075.4
2069.08042	15059.3
2072.09307	15038.8
2075.10378	15029.4
2078.11255	15010.8
2081.11938	15034.2
2084.12426	15005.3
2087.12722	14993.2
2090.12824	14994.5
2093.12732	15007.4
2096.12447	15003.7
2099.11969	14998.7
2102.11299	14989.7
2105.10435	15002.5
2108.09379	15042
2111.08131	15028.5
2114.0669	15072.2
2117.05057	15043.9
2120.03233	15058.5
2123.01216	15082.6
2125.99008	15121.7
2128.96609	15109
2131.94018	15124.5
2134.91236	15128.8
2137.88263	15148
2140.851	15182.1
2143.81746	15200.8
2146.78201	15180.2
2149.74466	15169
2152.7054	15174.6
2155.66425	15192.8
2158.6212	15182.3
2161.57625	15188
2164.52941	15174
2167.48067	15179.4
2170.43004	15185.6
2173.37752	15192.5
2176.32311	15209.2
2179.26681	15204.9
2182.20863	15197.6
2185.14856	15196.3
2188.08661	15163.2
2191.02278	15204.1
2193.95707	15197.4
2196.88948	15178.6
2199.82001	15239.9
2202.74867	15153.7
2205.67545	15159.3
2208.60037	15160
2211.52341	15162.3
2214.44458	15164.6
2217.36388	15102
2220.28132	15087
2223.1969	15071.2
2226.11061	15056.4
2229.02246	15031.6
2231.93245	15012.4
2234.84058	14998.7
2237.74686	14942.1
2240.65128	14966.6
2243.55385	14921
2246.45456	14907.8
2249.35343	14906.9
2252.25044	14875.9
2255.14561	14868.5
2258.03893	14860.5
2260.93041	14836.9
2263.82004	14810.5
2266.70783	14789.9
2269.59378	14726.2
2272.4779	14710.5
2275.36017	14670.9
2278.24061	14686
2281.11922	14632.7
2283.996	14595.6
2286.87094	14613.1
2289.74405	14557.5
2292.61534	14559.1
2295.4848	14562.6
2298.35243	14583.8
2301.21824	14522.5
2304.08223	14560.4
2306.94439	14555.1
2309.80474	14560.8
2312.66327	14558.9
2315.51999	14556.5
2318.37489	14552.5
2321.22797	14533.2
2324.07925	14536.5
2326.92871	14519.6
2329.77637	14509.8
2332.62222	14516.4
2335.46626	14481.6
2338.3085	14481
2341.14893	14480.9
2343.98756	14485.9
2346.8244	14457.6
2349.65943	14473.3
2352.49267	14455.7
2355.32411	14484.1
2358.15376	14473.9
2360.98161	14473.9
2363.80768	14430.1
2366.63195	14441.4
2369.45444	14405.3
2372.27514	14379.4
2375.09405	14363
2377.91118	14330.5
2380.72652	14304.9
2383.54009	14294.7
2386.35187	14251.8
2389.16188	14221.8
2391.97011	14221.3
2394.77657	14168.9
2397.58125	14142.2
2400.38416	14124
2403.18529	14097.2
2405.98466	14109.3
2408.78226	14046.1
2411.57809	14055.7
2414.37216	14028.5
2417.16446	13994.5
2419.955	13974.4
2422.74378	13952.4
2425.5308	13969.3
2428.31606	13940.6
2431.09956	13949.2
2433.88131	13922.5
2436.6613	13948.3
2439.43954	13932.8
2442.21603	13920.8
2444.99077	13908.3
2447.76377	13904.5
2450.53501	13887.2
2453.30451	13900.1
2456.07226	13875.4
2458.83827	13901
2461.60254	13876.9
2464.36507	13843.5
2467.12586	13856.7
2469.88492	13849.2
2472.64224	13856
2475.39782	13861.2
2478.15167	13823.3
2480.90379	13821.2
2483.65417	13866.6
2486.40283	13864
2489.14976	13899.5
2491.89497	13866.6
2494.63845	13882.8
2497.3802	13854.5
2500.12024	13863
2502.85855	13865
2505.59514	13832.2
2508.33002	13833.6
2511.06318	13815
2513.79462	13777
2516.52435	13761.2
2519.25237	13754.6
2521.97867	13734.9
2524.70327	13712.1
2527.42616	13695
2530.14734	13688.2
2532.86681	13687.4
2535.58458	13689.1
2538.30065	13663.1
2541.01501	13672.5
2543.72768	13631.6
2546.43864	13634.1
2549.14791	13623.8
2551.85548	13586.8
2554.56136	13565.2
2557.26554	13554.5
2559.96803	13567.3
2562.66883	13554.4
2565.36794	13518.2
2568.06536	13498
2570.7611	13521.5
2573.45514	13486.6
2576.14751	13494.2
2578.83819	13441.8
2581.52719	13481.6
2584.21451	13459.8
2586.90015	13443
2589.58411	13402.7
2592.2664	13412.2
2594.94701	13385.1
2597.62594	13421
2600.30321	13375.6
2602.9788	13362.2
2605.65273	13375.9
2608.32498	13355.9
2610.99557	13347.3
2613.66449	13320.7
2616.33175	13317.1
2618.99734	13345.8
2621.66128	13318.4
2624.32355	13337.6
2626.98416	13314.8
2629.64311	13324.7
2632.30041	13319.5
2634.95605	13311.5
2637.61004	13280.3
2640.26238	13254.5
2642.91306	13273.4
2645.56209	13235.4
2648.20948	13200.9
2650.85521	13220.8
2653.4993	13225.1
2656.14175	13208.2
2658.78255	13204.4
2661.42171	13220
2664.05923	13225.2
2666.6951	13236.8
2669.32934	13255.3
2671.96194	13243.6
2674.59291	13266.2
2677.22224	13252.7
2679.84993	13252.6
2682.476	13240.4
2685.10043	13275.9
2687.72324	13244.1
2690.34441	13244.9
2692.96396	13234.7
2695.58188	13248.7
2698.19818	13227.6
2700.81285	13235.2
2703.4259	13230.7
2706.03733	13266.8
2708.64714	13236.4
2711.25533	13269
2713.86191	13270.2
2716.46687	13276.9
2719.07021	13248.3
2721.67194	13268.8
2724.27206	13237.6
2726.87057	13262.5
2729.46747	13278.5
2732.06276	13271.9
2734.65644	13234.9
2737.24852	13262.2
2739.83899	13240.9
2742.42786	13255.1
2745.01513	13243
2747.60079	13207.6
2750.18486	13203
2752.76733	13225.4
2755.3482	13214.1
2757.92747	13234
2760.50515	13185
2763.08123	13144.4
2765.65573	13178.2
2768.22863	13167.7
2770.79994	13176.7
2773.36967	13124.5
2775.9378	13137.3
2778.50435	13100.2
2781.06932	13111.9
2783.6327	13095.1
2786.1945	13117
2788.75471	13054.9
2791.31335	13062.3
2793.87041	13029.7
2796.42589	12992.7
2798.97979	12998.3
2801.53212	12943.2
2804.08288	12936.1
2806.63206	12887.8
2809.17967	12911.7
2811.72571	12896.1
2814.27018	12902.8
2816.81308	12881.2
2819.35442	12845.2
2821.89419	12843.5
2824.43239	12827.4
2826.96904	12839.5
2829.50412	12834.2
2832.03763	12802.4
2834.56959	12815.3
2837.1	12773.9
2839.62884	12785.7
2842.15613	12786
2844.68186	12806.8
2847.20604	12821.9
2849.72867	12809.2
2852.24974	12792.2
2854.76927	12785
2857.28724	12754.8
2859.80367	12754.8
2862.31855	12723.3
2864.83189	12708.6
2867.34368	12713.5
2869.85393	12712.1
2872.36264	12715.7
2874.8698	12694.9
2877.37543	12671.6
2879.87952	12716.3
2882.38207	12715.4
2884.88308	12727.5
2887.38256	12714.5
2889.88051	12685.8
2892.37692	12736.8
2894.8718	12705.1
2897.36515	12724.7
2899.85698	12710.6
2902.34727	12735.7
2904.83604	12742.7
2907.32328	12766.5
2909.809	12734.4
2912.29319	12766.3
2914.77587	12753.1
2917.25702	12740.3
2919.73665	12734.2
2922.21476	12732.5
2924.69136	12724.1
2927.16644	12728.5
2929.64	12710.3
2932.11205	12674.6
2934.58258	12653.5
2937.05161	12659.6
2939.51912	12672.4
2941.98513	12659.4
2944.44962	12640.3
2946.91261	12571.2
2949.37409	12617.4
2951.83407	12618.1
2954.29254	12609.8
2956.74951	12589.3
2959.20498	12577.7
2961.65895	12552.4
2964.11142	12555.3
2966.56239	12524.1
2969.01186	12540
2971.45984	12509.4
2973.90632	12493.9
2976.35131	12452.4
2978.7948	12429.4
2981.23681	12418.7
2983.67732	12388.5
2986.11635	12351.2
2988.55388	12316.1
2990.98993	12318.4
2993.4245	12303.9
2995.85758	12290.5
2998.28917	12240.3
3000.71928	12249
3003.14791	12232
3005.57506	12229
3008.00073	12191.6
3010.42493	12194.2
3012.84764	12173.6
3015.26888	12161.8
3017.68865	12136.9
3020.10694	12134.3
3022.52376	12081.8
3024.9391	12077.1
3027.35298	12067.8
3029.76539	12038
3032.17632	12021
3034.5858	12012.3
3036.9938	12002.7
3039.40034	11991.9
3041.80542	11981.5
3044.20903	11961.3
3046.61118	11945.1
3049.01187	11942.1
3051.4111	11913.6
3053.80888	11885.3
3056.20519	11872.1
3058.60005	11855.7
3060.99345	11823.2
3063.3854	11801.7
3065.7759	11797
3068.16494	11755.7
3070.55254	11716.8
3072.93868	11682.1
3075.32338	11701.7
3077.70662	11673.6
3080.08842	11622.2
3082.46878	11643.9
3084.84769	11615.6
3087.22515	11607.2
3089.60118	11615.4
3091.97576	11597.5
3094.3489	11587.7
3096.72061	11584.1
3099.09087	11583.5
3101.4597	11561.3
3103.82709	11546.3
3106.19305	11551.3
3108.55757	11562.8
3110.92066	11523.3
3113.28232	11514.4
3115.64255	11475.6
3118.00134	11442.4
3120.35871	11440.3
3122.71466	11431.1
3125.06917	11412
3127.42226	11388.1
3129.77393	11392.8
3132.12417	11379.2
3134.47299	11369.8
3136.82039	11380.9
3139.16636	11407.4
3141.51092	11393.7
3143.85406	11379
3146.19579	11405.6
3148.53609	11394.3
3150.87499	11419
3153.21246	11415
3155.54853	11420.7
3157.88318	11389.5
3160.21642	11430.7
3162.54826	11403.1
3164.87868	11389.2
3167.2077	11402.6
3169.5353	11382.8
3171.86151	11376.3
3174.18631	11371.2
3176.5097	11365.4
3178.83169	11347.7
3181.15228	11361.3
3183.47147	11344.4
3185.78926	11338.3
3188.10565	11303.7
3190.42065	11322.6
3192.73424	11335.6
3195.04645	11320.3
3197.35725	11314.3
3199.66667	11313.9
3201.97469	11325.4
3204.28132	11333.5
3206.58656	11326.1
3208.8904	11352.2
3211.19287	11352.2
3213.49394	11372.6
3215.79363	11363.6
3218.09193	11378.6
3220.38884	11348.3
3222.68438	11348.3
3224.97853	11339.1
3227.2713	11344.9
3229.56269	11303.5
3231.8527	11318
3234.14133	11291.8
3236.42858	11258.7
3238.71446	11254.9
3240.99896	11242.4
3243.28209	11254.1
3245.56384	11228.2
3247.84423	11240.8
3250.12324	11245.3
3252.40088	11214.9
3254.67715	11216.9
3256.95205	11188.8
3259.22558	11184
3261.49775	11152.1
3263.76855	11170.2
3266.03799	11138.2
3268.30606	11127.1
3270.57277	11123.3
3272.83812	11099.4
3275.10211	11096.5
3277.36474	11067.7
3279.62601	11073.4
3281.88593	11055.2
3284.14448	11079.6
3286.40168	11060.1
3288.65753	11037.8
3290.91202	11018.9
3293.16516	10991.2
3295.41695	10950
3297.66738	10893
3299.91647	10857.1
3302.16421	10793.2
3304.4106	10759.3
3306.65564	10711.1
3308.89933	10639.8
3311.14169	10589.6
3313.38269	10523.3
3315.62236	10476.5
3317.86068	10361.9
3320.09766	10265.5
3322.3333	10184.1
3324.5676	10213.9
3326.80056	10022
3329.03219	9984.3
3331.26248	3.5
3333.49143	0.3
3335.71905	-1.2
