Data from AgNPs_FTO_APTES_UA_50uM_R6G_10uM_NaF_0.1M_Addition_RamanShift__3__14-39-47-398.txt Node

Date: Fri Dec 17 14:39:47 GMT 2021
User: TCL
Spectrometer: QEP01345
Trigger mode: 4
Integration Time (sec): 7.000000E0
Scans to average: 10
Electric dark correction enabled: true
Nonlinearity correction enabled: false
Boxcar width: 0
XAxis mode: Raman Shifts
Number of Pixels in Spectrum: 1044
>>>>>Begin Spectral Data<<<<<
46.04893	-0.6125
50.45542	-0.7125
54.85868	-2.6125
59.25871	-0.2125
63.6555	100.3875
68.04907	100.5875
72.43941	103.8875
76.82654	111.3875
81.21044	113.9875
85.59113	117.7875
89.96862	122.2875
94.34289	127.3875
98.71396	132.9875
103.08183	138.6875
107.4465	136.0875
111.80798	140.9875
116.16626	145.7875
120.52136	149.8875
124.87327	156.4875
129.222	170.1875
133.56755	177.0875
137.90993	190.9875
142.24913	202.6875
146.58517	233.7875
150.91804	267.8875
155.24774	315.2875
159.57429	389.6875
163.89768	501.5875
168.21792	668.0875
172.53501	903.0875
176.84895	1254.3875
181.15975	1755.8875
185.46741	2469.7875
189.77193	3407.0875
194.07331	4570.6875
198.37157	5883.5875
202.6667	7278.7875
206.9587	8651.0875
211.24758	10020.6875
215.53334	11354.2875
219.81599	12786.3875
224.09553	14322.8875
228.37195	16083.3875
232.64527	17981.1875
236.91549	20038.7875
241.18261	22079.7875
245.44663	24001.7875
249.70755	25747.5875
253.96539	27345.0875
258.22014	28650.1875
262.4718	29678.8875
266.72039	30372.3875
270.96589	30723.2875
275.20832	30688.5875
279.44768	30516.8875
283.68397	30201.6875
287.91719	29838.3875
292.14735	29571.3875
296.37445	29498.0875
300.59849	29546.3875
304.81948	29647.1875
309.03742	29656.1875
313.25231	29486.0875
317.46415	29091.8875
321.67296	28510.0875
325.87872	28028.2875
330.08145	27810.2875
334.28114	27801.4875
338.47781	27998.1875
342.67145	28345.8875
346.86207	28740.5875
351.04966	29234.9875
355.23424	29816.7875
359.4158	30383.7875
363.59435	30791.4875
367.76989	31094.8875
371.94243	31316.9875
376.11196	31546.3875
380.27849	31693.4875
384.44203	31833.9875
388.60257	32073.8875
392.76012	32410.1875
396.91468	32823.7875
401.06626	33307.9875
405.21485	33609.5875
409.36047	33655.9875
413.50311	33323.1875
417.64277	33110.8875
421.77947	33074.9875
425.9132	33178.7875
430.04396	33320.4875
434.17176	33408.4875
438.2966	33569.4875
442.41849	33877.8875
446.53742	34441.1875
450.6534	35204.7875
454.76644	35802.4875
458.87653	36064.2875
462.98368	36010.9875
467.08789	35750.9875
471.18916	35350.1875
475.2875	34816.1875
479.38291	34347.3875
483.4754	34064.2875
487.56496	33701.9875
491.6516	33511.2875
495.73531	33412.4875
499.81612	33459.0875
503.89401	33771.9875
507.96899	33866.2875
512.04106	33912.4875
516.11023	33868.7875
520.1765	33661.1875
524.23987	33406.8875
528.30034	33109.0875
532.35792	32905.0875
536.41261	32591.6875
540.46441	32328.6875
544.51333	32264.7875
548.55936	32491.5875
552.60252	32919.8875
556.64279	33436.2875
560.6802	33797.8875
564.71473	33989.1875
568.7464	34264.7875
572.7752	34768.8875
576.80114	35470.1875
580.82422	36259.6875
584.84444	37222.5875
588.86181	38109.1875
592.87633	38623.1875
596.888	38391.7875
600.89682	38004.1875
604.9028	38720.6875
608.90594	41433.3875
612.90624	44042.7875
616.90371	41871.1875
620.89834	36476.7875
624.89015	34085.5875
628.87913	33739.5875
632.86528	33806.7875
636.84862	33845.5875
640.82913	33463.9875
644.80683	32841.7875
648.78172	32447.2875
652.75379	32428.5875
656.72306	32819.2875
660.68952	33234.8875
664.65319	33072.1875
668.61405	32663.5875
672.57211	32687.5875
676.52738	32804.9875
680.47986	32809.5875
684.42955	32584.2875
688.37646	32540.1875
692.32058	32718.6875
696.26192	33107.1875
700.20048	33482.5875
704.13626	33633.6875
708.06928	33525.8875
711.99952	33295.7875
715.927	33243.3875
719.85171	33439.8875
723.77365	33337.1875
727.69284	32983.8875
731.60928	32607.4875
735.52295	32418.4875
739.43388	32410.6875
743.34206	32504.4875
747.24749	32677.8875
751.15017	32828.4875
755.05012	33240.3875
758.94733	33845.1875
762.8418	35071.9875
766.73354	36886.6875
770.62254	38660.5875
774.50882	39189.7875
778.39237	38077.7875
782.27321	36090.1875
786.15132	34435.2875
790.02671	33406.8875
793.89938	32842.5875
797.76935	32678.8875
801.6366	32681.8875
805.50115	32607.2875
809.36299	32411.4875
813.22213	32229.8875
817.07857	32083.5875
820.93231	31945.7875
824.78336	31900.8875
828.63172	31863.1875
832.47738	31841.6875
836.32036	31872.5875
840.16066	31932.0875
843.99827	31968.9875
847.8332	31953.7875
851.66546	31896.8875
855.49504	31874.9875
859.32195	31934.4875
863.1462	31884.5875
866.96777	31762.2875
870.78668	31764.1875
874.60293	31839.1875
878.41652	31855.9875
882.22745	31969.3875
886.03573	32072.4875
889.84136	32082.3875
893.64433	31960.4875
897.44466	31775.4875
901.24235	31703.1875
905.0374	31607.6875
908.8298	31595.2875
912.61957	31532.7875
916.40671	31756.9875
920.19121	32028.4875
923.97308	32299.1875
927.75233	32424.4875
931.52895	32306.0875
935.30295	32051.3875
939.07433	31638.1875
942.84309	31342.0875
946.60924	31241.4875
950.37278	31204.7875
954.13371	31125.2875
957.89203	31084.4875
961.64774	31048.0875
965.40086	30994.6875
969.15137	30988.6875
972.89929	30958.3875
976.64461	30953.7875
980.38733	31030.8875
984.12747	31130.0875
987.86502	31371.2875
991.59999	31575.9875
995.33237	31987.0875
999.06217	32569.7875
1002.78939	33346.8875
1006.51404	33892.8875
1010.23611	34394.8875
1013.95561	34570.3875
1017.67255	34561.1875
1021.38692	34205.7875
1025.09872	33858.6875
1028.80796	33850.1875
1032.51465	34279.6875
1036.21877	34786.7875
1039.92035	35000.9875
1043.61937	34849.9875
1047.31584	34398.4875
1051.00976	33849.1875
1054.70114	33632.6875
1058.38998	33577.0875
1062.07627	33757.4875
1065.76003	34025.5875
1069.44126	34384.8875
1073.11995	34926.3875
1076.79611	35396.2875
1080.46974	35654.6875
1084.14085	35723.5875
1087.80943	35971.5875
1091.47549	36153.5875
1095.13903	36138.5875
1098.80005	35756.6875
1102.45857	35229.2875
1106.11456	34762.7875
1109.76805	34532.5875
1113.41903	34437.3875
1117.06751	34525.7875
1120.71348	34669.4875
1124.35696	34878.1875
1127.99793	35130.6875
1131.63641	35347.3875
1135.2724	35269.9875
1138.90589	35127.2875
1142.5369	35122.2875
1146.16542	35118.6875
1149.79145	35202.4875
1153.415	35359.6875
1157.03607	35639.0875
1160.65467	36330.5875
1164.27079	37488.3875
1167.88443	39007.1875
1171.49561	40555.9875
1175.10432	42518.0875
1178.71056	45014.4875
1182.31434	47528.2875
1185.91565	49117.0875
1189.51451	49405.9875
1193.11091	48583.2875
1196.70485	47103.9875
1200.29634	45532.6875
1203.88538	44417.3875
1207.47197	43592.7875
1211.05612	42919.8875
1214.63782	42259.8875
1218.21708	41491.5875
1221.79391	40790.8875
1225.36829	40245.7875
1228.94024	39843.1875
1232.50976	39541.3875
1236.07685	39298.9875
1239.6415	39207.8875
1243.20374	39242.7875
1246.76355	39640.7875
1250.32093	40243.7875
1253.8759	40965.2875
1257.42845	41911.3875
1260.97859	42848.2875
1264.52631	43968.0875
1268.07163	45079.8875
1271.61453	46152.0875
1275.15503	47153.2875
1278.69312	48109.5875
1282.22882	48839.3875
1285.76211	49537.3875
1289.29301	50394.4875
1292.82151	51649.8875
1296.34761	53279.8875
1299.87133	55457.0875
1303.39266	58088.1875
1306.9116	60621.5875
1310.42815	62866.9875
1313.94233	63873.9875
1317.45412	63592.8875
1320.96354	62486.2875
1324.47058	61564.9875
1327.97525	61018.0875
1331.47754	60664.8875
1334.97747	60760.4875
1338.47502	60803.8875
1341.97022	60567.9875
1345.46305	60084.3875
1348.95352	59499.7875
1352.44163	59478.4875
1355.92738	60261.4875
1359.41078	62174.4875
1362.89183	63823.4875
1366.37053	62934.5875
1369.84688	58756.2875
1373.32088	53686.0875
1376.79254	49885.0875
1380.26186	48187.0875
1383.72883	47785.6875
1387.19347	47569.5875
1390.65578	46928.4875
1394.11575	46396.4875
1397.57339	46315.8875
1401.0287	46772.1875
1404.48168	47434.6875
1407.93234	47896.0875
1411.38068	47797.8875
1414.82669	47099.3875
1418.27039	45980.2875
1421.71177	44746.4875
1425.15083	43726.8875
1428.58758	43303.7875
1432.02203	43639.8875
1435.45416	44525.0875
1438.88399	45579.7875
1442.31151	46310.2875
1445.73673	46728.7875
1449.15965	46808.1875
1452.58027	46683.0875
1455.9986	46561.9875
1459.41463	46806.5875
1462.82837	47492.5875
1466.23982	48273.4875
1469.64898	49078.3875
1473.05586	49673.7875
1476.46045	49904.9875
1479.86276	49747.8875
1483.26279	49472.8875
1486.66054	49394.3875
1490.05602	49595.4875
1493.44922	49965.8875
1496.84016	50485.0875
1500.22882	51271.3875
1503.61521	52473.8875
1506.99934	53831.1875
1510.38121	54918.8875
1513.76081	55054.4875
1517.13816	53875.1875
1520.51324	51874.1875
1523.88607	50179.9875
1527.25665	49145.2875
1530.62498	48757.4875
1533.99105	48459.9875
1537.35488	48108.0875
1540.71647	47547.4875
1544.07581	46934.2875
1547.4329	46246.6875
1550.78776	45629.5875
1554.14038	45209.0875
1557.49077	45035.0875
1560.83892	44883.1875
1564.18484	44735.2875
1567.52853	44654.2875
1570.86999	44965.9875
1574.20922	45445.6875
1577.54624	45911.1875
1580.88103	46005.0875
1584.2136	46215.6875
1587.54395	47177.9875
1590.87208	49099.3875
1594.19801	51740.3875
1597.52172	54223.7875
1600.84321	55031.3875
1604.16251	53202.6875
1607.47959	49966.7875
1610.79447	46567.0875
1614.10715	43278.5875
1617.41763	40680.4875
1620.7259	38881.7875
1624.03199	37963.9875
1627.33587	37860.3875
1630.63757	38622.3875
1633.93707	40338.4875
1637.23439	43312.2875
1640.52951	47422.1875
1643.82246	51983.4875
1647.11321	55503.2875
1650.40179	55795.5875
1653.68819	52311.1875
1656.97241	46748.4875
1660.25446	41414.5875
1663.53433	37521.7875
1666.81203	35040.2875
1670.08756	33537.3875
1673.36092	32535.2875
1676.63211	31816.9875
1679.90115	31363.7875
1683.16801	30983.5875
1686.43272	30692.6875
1689.69527	30515.6875
1692.95567	30323.2875
1696.2139	30189.6875
1699.46999	30128.2875
1702.72392	30102.5875
1705.97571	30016.6875
1709.22535	29960.5875
1712.47284	29923.5875
1715.71819	29882.0875
1718.96139	29799.7875
1722.20246	29736.7875
1725.44139	29671.8875
1728.67818	29513.7875
1731.91284	29437.5875
1735.14537	29310.5875
1738.37576	29196.2875
1741.60403	29099.1875
1744.83017	29001.4875
1748.05418	28957.4875
1751.27607	28880.1875
1754.49584	28862.4875
1757.71349	28867.8875
1760.92903	28839.1875
1764.14244	28803.1875
1767.35375	28809.3875
1770.56294	28789.2875
1773.77002	28765.9875
1776.97499	28738.0875
1780.17785	28706.7875
1783.37861	28701.1875
1786.57727	28624.4875
1789.77382	28599.7875
1792.96828	28565.8875
1796.16064	28466.7875
1799.3509	28422.8875
1802.53907	28442.3875
1805.72514	28359.5875
1808.90913	28283.1875
1812.09102	28275.5875
1815.27083	28222.6875
1818.44856	28180.5875
1821.6242	28127.6875
1824.79776	28108.7875
1827.96924	28095.6875
1831.13864	28088.1875
1834.30597	28100.6875
1837.47122	28106.5875
1840.6344	28090.3875
1843.7955	28136.7875
1846.95454	28104.7875
1850.11151	28098.2875
1853.26642	28056.3875
1856.41926	28080.0875
1859.57004	28059.2875
1862.71876	28060.6875
1865.86542	28041.5875
1869.01003	28021.9875
1872.15258	27970.8875
1875.29308	27921.6875
1878.43152	27914.8875
1881.56792	27884.5875
1884.70227	27849.1875
1887.83457	27881.1875
1890.96482	27813.5875
1894.09304	27772.0875
1897.21921	27765.6875
1900.34335	27763.1875
1903.46544	27708.6875
1906.58551	27715.2875
1909.70353	27684.9875
1912.81953	27674.7875
1915.93349	27604.3875
1919.04543	27524.7875
1922.15534	27502.4875
1925.26322	27440.1875
1928.36908	27421.1875
1931.47292	27386.2875
1934.57473	27277.8875
1937.67453	27220.8875
1940.77232	27152.4875
1943.86808	27106.2875
1946.96184	27032.6875
1950.05358	27004.7875
1953.14331	26936.3875
1956.23103	26908.3875
1959.31675	26824.0875
1962.40046	26736.6875
1965.48217	26678.3875
1968.56188	26601.8875
1971.63959	26566.3875
1974.7153	26452.7875
1977.78901	26385.1875
1980.86073	26313.7875
1983.93046	26238.0875
1986.99819	26184.0875
1990.06394	26078.4875
1993.1277	26010.7875
1996.18947	25948.7875
1999.24925	25900.3875
2002.30706	25838.1875
2005.36288	25760.6875
2008.41672	25662.7875
2011.46859	25598.4875
2014.51848	25578.5875
2017.56639	25525.0875
2020.61233	25445.1875
2023.6563	25410.7875
2026.6983	25397.4875
2029.73833	25333.2875
2032.7764	25279.8875
2035.8125	25232.1875
2038.84664	25179.7875
2041.87881	25157.4875
2044.90903	25134.3875
2047.93729	25089.1875
2050.96359	25123.7875
2053.98794	25057.6875
2057.01034	24996.5875
2060.03078	25031.7875
2063.04927	24996.5875
2066.06582	25002.1875
2069.08042	24951.3875
2072.09307	24972.8875
2075.10378	24953.5875
2078.11255	24894.0875
2081.11938	24978.5875
2084.12426	24905.4875
2087.12722	24903.3875
2090.12824	24866.6875
2093.12732	24888.3875
2096.12447	24924.7875
2099.11969	24889.3875
2102.11299	24897.6875
2105.10435	24942.7875
2108.09379	24967.6875
2111.08131	25037.9875
2114.0669	24983.5875
2117.05057	25065.4875
2120.03233	25068.2875
2123.01216	25078.8875
2125.99008	25063.0875
2128.96609	25141.1875
2131.94018	25152.7875
2134.91236	25204.7875
2137.88263	25198.7875
2140.851	25190.3875
2143.81746	25247.1875
2146.78201	25259.3875
2149.74466	25309.7875
2152.7054	25270.6875
2155.66425	25274.8875
2158.6212	25285.3875
2161.57625	25260.9875
2164.52941	25292.1875
2167.48067	25265.1875
2170.43004	25310.7875
2173.37752	25310.0875
2176.32311	25255.9875
2179.26681	25296.9875
2182.20863	25248.9875
2185.14856	25297.2875
2188.08661	25273.7875
2191.02278	25295.5875
2193.95707	25300.3875
2196.88948	25249.1875
2199.82001	25277.1875
2202.74867	25251.0875
2205.67545	25275.4875
2208.60037	25232.4875
2211.52341	25193.3875
2214.44458	25130.9875
2217.36388	25126.1875
2220.28132	25055.9875
2223.1969	25062.9875
2226.11061	25040.5875
2229.02246	24991.6875
2231.93245	24936.0875
2234.84058	24868.0875
2237.74686	24879.9875
2240.65128	24850.7875
2243.55385	24812.5875
2246.45456	24756.9875
2249.35343	24771.3875
2252.25044	24719.1875
2255.14561	24671.4875
2258.03893	24669.0875
2260.93041	24652.1875
2263.82004	24575.0875
2266.70783	24550.5875
2269.59378	24503.7875
2272.4779	24423.6875
2275.36017	24396.8875
2278.24061	24400.3875
2281.11922	24344.0875
2283.996	24314.7875
2286.87094	24268.5875
2289.74405	24257.3875
2292.61534	24229.3875
2295.4848	24195.0875
2298.35243	24191.8875
2301.21824	24212.6875
2304.08223	24239.8875
2306.94439	24226.6875
2309.80474	24219.3875
2312.66327	24213.0875
2315.51999	24217.6875
2318.37489	24191.4875
2321.22797	24189.1875
2324.07925	24141.4875
2326.92871	24141.6875
2329.77637	24137.9875
2332.62222	24070.9875
2335.46626	24096.8875
2338.3085	24068.6875
2341.14893	24043.9875
2343.98756	23991.6875
2346.8244	23999.3875
2349.65943	24038.4875
2352.49267	24004.7875
2355.32411	23997.1875
2358.15376	23999.4875
2360.98161	23968.8875
2363.80768	23980.3875
2366.63195	23950.3875
2369.45444	23923.0875
2372.27514	23879.4875
2375.09405	23864.0875
2377.91118	23840.7875
2380.72652	23744.6875
2383.54009	23736.0875
2386.35187	23744.0875
2389.16188	23657.0875
2391.97011	23642.7875
2394.77657	23570.5875
2397.58125	23499.2875
2400.38416	23555.9875
2403.18529	23528.4875
2405.98466	23522.0875
2408.78226	23464.0875
2411.57809	23450.8875
2414.37216	23445.4875
2417.16446	23412.8875
2419.955	23378.5875
2422.74378	23403.4875
2425.5308	23303.7875
2428.31606	23366.4875
2431.09956	23356.7875
2433.88131	23285.9875
2436.6613	23312.9875
2439.43954	23287.8875
2442.21603	23274.7875
2444.99077	23257.3875
2447.76377	23279.8875
2450.53501	23257.1875
2453.30451	23300.3875
2456.07226	23174.6875
2458.83827	23196.1875
2461.60254	23180.7875
2464.36507	23210.4875
2467.12586	23192.1875
2469.88492	23202.9875
2472.64224	23211.3875
2475.39782	23174.0875
2478.15167	23154.5875
2480.90379	23200.4875
2483.65417	23162.1875
2486.40283	23172.7875
2489.14976	23219.1875
2491.89497	23172.8875
2494.63845	23147.1875
2497.3802	23170.4875
2500.12024	23189.9875
2502.85855	23148.6875
2505.59514	23193.4875
2508.33002	23201.2875
2511.06318	23180.7875
2513.79462	23117.6875
2516.52435	23126.6875
2519.25237	23075.4875
2521.97867	23124.5875
2524.70327	23064.1875
2527.42616	23035.3875
2530.14734	23027.8875
2532.86681	22998.3875
2535.58458	22982.1875
2538.30065	22960.0875
2541.01501	23014.9875
2543.72768	22940.8875
2546.43864	22937.2875
2549.14791	22898.9875
2551.85548	22855.4875
2554.56136	22838.2875
2557.26554	22829.0875
2559.96803	22820.3875
2562.66883	22808.2875
2565.36794	22799.6875
2568.06536	22778.9875
2570.7611	22772.5875
2573.45514	22770.4875
2576.14751	22726.4875
2578.83819	22700.4875
2581.52719	22702.8875
2584.21451	22690.9875
2586.90015	22684.7875
2589.58411	22646.0875
2592.2664	22619.1875
2594.94701	22602.4875
2597.62594	22607.5875
2600.30321	22487.1875
2602.9788	22501.5875
2605.65273	22487.7875
2608.32498	22490.4875
2610.99557	22464.4875
2613.66449	22487.5875
2616.33175	22428.4875
2618.99734	22458.9875
2621.66128	22409.0875
2624.32355	22392.2875
2626.98416	22378.9875
2629.64311	22379.7875
2632.30041	22364.4875
2634.95605	22327.9875
2637.61004	22374.4875
2640.26238	22334.3875
2642.91306	22324.7875
2645.56209	22294.0875
2648.20948	22275.1875
2650.85521	22288.1875
2653.4993	22293.0875
2656.14175	22278.4875
2658.78255	22325.4875
2661.42171	22333.9875
2664.05923	22335.7875
2666.6951	22319.1875
2669.32934	22331.7875
2671.96194	22327.1875
2674.59291	22359.5875
2677.22224	22363.0875
2679.84993	22343.6875
2682.476	22335.8875
2685.10043	22369.5875
2687.72324	22324.7875
2690.34441	22323.0875
2692.96396	22334.0875
2695.58188	22319.0875
2698.19818	22290.8875
2700.81285	22352.9875
2703.4259	22310.6875
2706.03733	22365.1875
2708.64714	22331.7875
2711.25533	22366.3875
2713.86191	22369.2875
2716.46687	22395.6875
2719.07021	22412.5875
2721.67194	22372.2875
2724.27206	22359.7875
2726.87057	22366.9875
2729.46747	22348.9875
2732.06276	22367.5875
2734.65644	22382.3875
2737.24852	22364.9875
2739.83899	22343.1875
2742.42786	22373.9875
2745.01513	22329.5875
2747.60079	22342.7875
2750.18486	22321.5875
2752.76733	22346.1875
2755.3482	22306.3875
2757.92747	22347.5875
2760.50515	22314.5875
2763.08123	22295.2875
2765.65573	22258.4875
2768.22863	22232.0875
2770.79994	22230.4875
2773.36967	22284.1875
2775.9378	22204.0875
2778.50435	22213.4875
2781.06932	22197.0875
2783.6327	22212.5875
2786.1945	22180.5875
2788.75471	22104.0875
2791.31335	22074.9875
2793.87041	22059.5875
2796.42589	21993.3875
2798.97979	21987.0875
2801.53212	21965.0875
2804.08288	21951.0875
2806.63206	21855.3875
2809.17967	21847.9875
2811.72571	21810.2875
2814.27018	21829.7875
2816.81308	21756.1875
2819.35442	21739.6875
2821.89419	21696.9875
2824.43239	21698.8875
2826.96904	21704.2875
2829.50412	21688.8875
2832.03763	21587.7875
2834.56959	21604.4875
2837.1	21560.2875
2839.62884	21586.8875
2842.15613	21504.5875
2844.68186	21574.8875
2847.20604	21512.4875
2849.72867	21525.5875
2852.24974	21501.9875
2854.76927	21473.3875
2857.28724	21463.7875
2859.80367	21464.7875
2862.31855	21417.9875
2864.83189	21385.8875
2867.34368	21361.6875
2869.85393	21374.4875
2872.36264	21388.1875
2874.8698	21406.3875
2877.37543	21380.3875
2879.87952	21386.1875
2882.38207	21381.9875
2884.88308	21358.7875
2887.38256	21391.3875
2889.88051	21378.0875
2892.37692	21413.2875
2894.8718	21396.1875
2897.36515	21402.5875
2899.85698	21407.5875
2902.34727	21473.6875
2904.83604	21453.5875
2907.32328	21464.0875
2909.809	21450.3875
2912.29319	21490.1875
2914.77587	21454.6875
2917.25702	21456.7875
2919.73665	21455.3875
2922.21476	21437.9875
2924.69136	21424.3875
2927.16644	21451.6875
2929.64	21412.0875
2932.11205	21403.9875
2934.58258	21313.4875
2937.05161	21383.9875
2939.51912	21389.7875
2941.98513	21353.6875
2944.44962	21321.7875
2946.91261	21252.5875
2949.37409	21296.1875
2951.83407	21257.7875
2954.29254	21265.3875
2956.74951	21270.0875
2959.20498	21256.2875
2961.65895	21217.4875
2964.11142	21206.4875
2966.56239	21169.2875
2969.01186	21156.3875
2971.45984	21105.7875
2973.90632	21121.4875
2976.35131	21023.7875
2978.7948	20958.5875
2981.23681	20969.9875
2983.67732	20966.0875
2986.11635	20887.4875
2988.55388	20845.8875
2990.98993	20866.9875
2993.4245	20790.8875
2995.85758	20780.0875
2998.28917	20734.2875
3000.71928	20676.7875
3003.14791	20641.0875
3005.57506	20622.3875
3008.00073	20556.3875
3010.42493	20590.3875
3012.84764	20526.9875
3015.26888	20521.5875
3017.68865	20458.2875
3020.10694	20460.6875
3022.52376	20436.1875
3024.9391	20388.5875
3027.35298	20361.5875
3029.76539	20361.6875
3032.17632	20295.7875
3034.5858	20288.1875
3036.9938	20284.6875
3039.40034	20250.4875
3041.80542	20239.0875
3044.20903	20186.8875
3046.61118	20222.4875
3049.01187	20171.4875
3051.4111	20135.0875
3053.80888	20062.1875
3056.20519	20079.8875
3058.60005	20032.1875
3060.99345	20025.4875
3063.3854	19966.4875
3065.7759	19949.1875
3068.16494	19913.9875
3070.55254	19856.1875
3072.93868	19847.6875
3075.32338	19805.4875
3077.70662	19783.5875
3080.08842	19722.3875
3082.46878	19734.9875
3084.84769	19660.3875
3087.22515	19667.9875
3089.60118	19677.9875
3091.97576	19640.1875
3094.3489	19647.2875
3096.72061	19632.0875
3099.09087	19621.9875
3101.4597	19582.9875
3103.82709	19581.6875
3106.19305	19528.7875
3108.55757	19537.7875
3110.92066	19476.2875
3113.28232	19449.4875
3115.64255	19381.1875
3118.00134	19364.0875
3120.35871	19340.7875
3122.71466	19311.6875
3125.06917	19258.8875
3127.42226	19229.0875
3129.77393	19220.3875
3132.12417	19255.0875
3134.47299	19245.0875
3136.82039	19226.5875
3139.16636	19228.2875
3141.51092	19223.8875
3143.85406	19202.1875
3146.19579	19209.4875
3148.53609	19191.4875
3150.87499	19221.2875
3153.21246	19221.4875
3155.54853	19234.7875
3157.88318	19222.0875
3160.21642	19219.9875
3162.54826	19172.4875
3164.87868	19184.7875
3167.2077	19197.4875
3169.5353	19170.3875
3171.86151	19157.1875
3174.18631	19100.5875
3176.5097	19117.5875
3178.83169	19067.2875
3181.15228	19061.4875
3183.47147	19049.8875
3185.78926	19016.7875
3188.10565	18986.6875
3190.42065	19004.4875
3192.73424	18970.9875
3195.04645	18996.9875
3197.35725	18961.8875
3199.66667	18959.2875
3201.97469	18966.8875
3204.28132	18951.2875
3206.58656	18991.7875
3208.8904	19000.8875
3211.19287	18993.0875
3213.49394	18977.3875
3215.79363	19000.7875
3218.09193	18984.4875
3220.38884	18986.4875
3222.68438	18946.8875
3224.97853	18931.2875
3227.2713	18948.8875
3229.56269	18911.0875
3231.8527	18905.7875
3234.14133	18849.1875
3236.42858	18828.5875
3238.71446	18793.6875
3240.99896	18743.5875
3243.28209	18794.5875
3245.56384	18742.2875
3247.84423	18774.0875
3250.12324	18748.3875
3252.40088	18750.4875
3254.67715	18711.2875
3256.95205	18677.8875
3259.22558	18707.1875
3261.49775	18648.7875
3263.76855	18634.3875
3266.03799	18593.5875
3268.30606	18585.8875
3270.57277	18528.4875
3272.83812	18490.2875
3275.10211	18470.6875
3277.36474	18439.8875
3279.62601	18472.6875
3281.88593	18446.6875
3284.14448	18458.6875
3286.40168	18427.2875
3288.65753	18442.5875
3290.91202	18406.3875
3293.16516	18341.7875
3295.41695	18253.9875
3297.66738	18169.5875
3299.91647	18123.2875
3302.16421	17998.0875
3304.4106	17901.0875
3306.65564	17848.1875
3308.89933	17712.8875
3311.14169	17612.7875
3313.38269	17473.7875
3315.62236	17400.7875
3317.86068	17272.3875
3320.09766	17103.8875
3322.3333	16964.5875
3324.5676	16951.1875
3326.80056	16666.8875
3329.03219	16595.8875
3331.26248	4.3875
3333.49143	1.5875
3335.71905	-0.1125
