Data from AgNPs_FTO_APTES_UA_2uM_R6G_10uM_NaF_0.1M_Addition_RamanShift__28__12-16-17-234.txt Node

Date: Fri Dec 17 12:16:17 GMT 2021
User: TCL
Spectrometer: QEP01345
Trigger mode: 4
Integration Time (sec): 7.000000E0
Scans to average: 10
Electric dark correction enabled: true
Nonlinearity correction enabled: false
Boxcar width: 0
XAxis mode: Raman Shifts
Number of Pixels in Spectrum: 1044
>>>>>Begin Spectral Data<<<<<
46.04893	0.1875
50.45542	0.0875
54.85868	-1.5125
59.25871	-0.5125
63.6555	96.1875
68.04907	100.2875
72.43941	106.1875
76.82654	114.9875
81.21044	113.8875
85.59113	123.7875
89.96862	127.7875
94.34289	131.2875
98.71396	131.4875
103.08183	137.0875
107.4465	138.8875
111.80798	141.5875
116.16626	139.0875
120.52136	145.5875
124.87327	155.2875
129.222	155.7875
133.56755	165.0875
137.90993	175.6875
142.24913	186.1875
146.58517	199.4875
150.91804	230.2875
155.24774	268.4875
159.57429	325.3875
163.89768	404.1875
168.21792	531.7875
172.53501	706.0875
176.84895	965.0875
181.15975	1339.3875
185.46741	1866.8875
189.77193	2568.9875
194.07331	3426.6875
198.37157	4413.0875
202.6667	5453.5875
206.9587	6497.1875
211.24758	7503.8875
215.53334	8552.9875
219.81599	9666.8875
224.09553	10930.7875
228.37195	12353.1875
232.64527	13894.3875
236.91549	15464.9875
241.18261	16991.4875
245.44663	18351.3875
249.70755	19556.2875
253.96539	20586.2875
258.22014	21466.8875
262.4718	22287.5875
266.72039	22844.1875
270.96589	23229.9875
275.20832	23289.9875
279.44768	23133.7875
283.68397	22855.2875
287.91719	22611.3875
292.14735	22514.8875
296.37445	22683.9875
300.59849	23063.8875
304.81948	23570.7875
309.03742	23979.0875
313.25231	23875.5875
317.46415	23140.2875
321.67296	22064.5875
325.87872	21151.8875
330.08145	20739.8875
334.28114	20745.5875
338.47781	21030.0875
342.67145	21445.0875
346.86207	22108.8875
351.04966	23045.5875
355.23424	24109.3875
359.4158	24927.0875
363.59435	25466.5875
367.76989	25683.6875
371.94243	25777.6875
376.11196	25798.3875
380.27849	25758.2875
384.44203	25737.3875
388.60257	25627.5875
392.76012	25679.2875
396.91468	25979.5875
401.06626	26548.3875
405.21485	27025.5875
409.36047	26927.6875
413.50311	26226.1875
417.64277	25492.7875
421.77947	25099.0875
425.9132	25054.4875
430.04396	25159.7875
434.17176	25286.3875
438.2966	25580.0875
442.41849	26083.2875
446.53742	26732.4875
450.6534	27470.0875
454.76644	28006.8875
458.87653	28279.7875
462.98368	28210.5875
467.08789	27894.0875
471.18916	27312.7875
475.2875	26692.0875
479.38291	26185.8875
483.4754	25870.2875
487.56496	25600.2875
491.6516	25328.4875
495.73531	25165.7875
499.81612	25111.5875
503.89401	25289.6875
507.96899	25491.0875
512.04106	25661.8875
516.11023	25901.6875
520.1765	26066.5875
524.23987	25985.9875
528.30034	25706.2875
532.35792	25400.9875
536.41261	25047.2875
540.46441	24678.3875
544.51333	24590.8875
548.55936	24726.8875
552.60252	25088.0875
556.64279	25463.4875
560.6802	25698.3875
564.71473	25928.9875
568.7464	26479.0875
572.7752	27010.1875
576.80114	26866.2875
580.82422	26649.4875
584.84444	26592.7875
588.86181	26650.6875
592.87633	26840.4875
596.888	27180.8875
600.89682	27921.2875
604.9028	30049.1875
608.90594	35152.8875
612.90624	41079.4875
616.90371	39416.8875
620.89834	31095.4875
624.89015	27198.1875
628.87913	26412.8875
632.86528	26435.6875
636.84862	26479.0875
640.82913	26203.3875
644.80683	25475.1875
648.78172	25014.6875
652.75379	25146.1875
656.72306	25744.9875
660.68952	26532.6875
664.65319	26431.2875
668.61405	25719.0875
672.57211	25359.4875
676.52738	25356.5875
680.47986	25380.7875
684.42955	25309.1875
688.37646	25281.0875
692.32058	25428.5875
696.26192	25642.2875
700.20048	25899.8875
704.13626	26055.1875
708.06928	25952.4875
711.99952	25770.6875
715.927	25652.5875
719.85171	25697.5875
723.77365	25592.1875
727.69284	25416.0875
731.60928	25295.7875
735.52295	25293.3875
739.43388	25381.1875
743.34206	25524.0875
747.24749	25715.2875
751.15017	25935.6875
755.05012	26349.2875
758.94733	27190.0875
762.8418	28833.1875
766.73354	31605.8875
770.62254	34466.2875
774.50882	35758.1875
778.39237	34421.8875
782.27321	31256.4875
786.15132	28460.4875
790.02671	26873.8875
793.89938	26132.8875
797.76935	25821.4875
801.6366	25696.2875
805.50115	25561.6875
809.36299	25450.4875
813.22213	25362.6875
817.07857	25382.1875
820.93231	25362.1875
824.78336	25430.9875
828.63172	25543.9875
832.47738	25608.9875
836.32036	25638.5875
840.16066	25648.0875
843.99827	25607.8875
847.8332	25603.0875
851.66546	25582.7875
855.49504	25516.1875
859.32195	25487.3875
863.1462	25379.4875
866.96777	25354.7875
870.78668	25322.5875
874.60293	25370.4875
878.41652	25405.6875
882.22745	25513.7875
886.03573	25597.5875
889.84136	25579.2875
893.64433	25491.8875
897.44466	25396.0875
901.24235	25390.1875
905.0374	25412.1875
908.8298	25348.2875
912.61957	25386.8875
916.40671	25486.0875
920.19121	25725.8875
923.97308	26012.8875
927.75233	26187.3875
931.52895	26320.0875
935.30295	26094.3875
939.07433	25652.7875
942.84309	25297.3875
946.60924	25145.0875
950.37278	25000.1875
954.13371	24876.8875
957.89203	24719.3875
961.64774	24627.5875
965.40086	24555.6875
969.15137	24512.7875
972.89929	24466.1875
976.64461	24513.8875
980.38733	24510.4875
984.12747	24621.7875
987.86502	24805.0875
991.59999	25047.0875
995.33237	25418.0875
999.06217	26077.5875
1002.78939	26886.2875
1006.51404	27548.1875
1010.23611	28091.3875
1013.95561	28404.7875
1017.67255	28414.2875
1021.38692	28072.2875
1025.09872	27849.9875
1028.80796	28016.5875
1032.51465	28560.9875
1036.21877	29137.3875
1039.92035	29172.7875
1043.61937	28876.2875
1047.31584	28249.5875
1051.00976	27549.0875
1054.70114	27128.3875
1058.38998	27002.1875
1062.07627	27071.3875
1065.76003	27196.8875
1069.44126	27311.6875
1073.11995	27522.8875
1076.79611	27746.6875
1080.46974	27949.1875
1084.14085	28255.3875
1087.80943	28657.7875
1091.47549	28752.5875
1095.13903	28457.6875
1098.80005	27849.4875
1102.45857	27350.7875
1106.11456	27088.9875
1109.76805	27131.7875
1113.41903	27430.4875
1117.06751	27847.4875
1120.71348	28374.0875
1124.35696	28867.3875
1127.99793	29425.0875
1131.63641	29478.4875
1135.2724	28938.8875
1138.90589	28305.9875
1142.5369	27885.8875
1146.16542	27617.5875
1149.79145	27443.3875
1153.415	27488.9875
1157.03607	27737.4875
1160.65467	28147.7875
1164.27079	28813.4875
1167.88443	29745.5875
1171.49561	31349.4875
1175.10432	33711.6875
1178.71056	36914.3875
1182.31434	39786.6875
1185.91565	41165.9875
1189.51451	40978.7875
1193.11091	39437.0875
1196.70485	37197.5875
1200.29634	35309.9875
1203.88538	33909.2875
1207.47197	32623.0875
1211.05612	31611.3875
1214.63782	31111.0875
1218.21708	31026.1875
1221.79391	31201.6875
1225.36829	31380.8875
1228.94024	31533.8875
1232.50976	31632.0875
1236.07685	31705.1875
1239.6415	31780.5875
1243.20374	31766.1875
1246.76355	31878.1875
1250.32093	32205.4875
1253.8759	32826.3875
1257.42845	33627.8875
1260.97859	34392.7875
1264.52631	35002.6875
1268.07163	35588.5875
1271.61453	36324.8875
1275.15503	37090.4875
1278.69312	37736.0875
1282.22882	38253.9875
1285.76211	38849.0875
1289.29301	39610.8875
1292.82151	40358.4875
1296.34761	41079.0875
1299.87133	42262.0875
1303.39266	44241.8875
1306.9116	47329.9875
1310.42815	50874.0875
1313.94233	53413.1875
1317.45412	53493.2875
1320.96354	51875.9875
1324.47058	49706.6875
1327.97525	47672.8875
1331.47754	46462.2875
1334.97747	46227.6875
1338.47502	46722.3875
1341.97022	47414.1875
1345.46305	47887.1875
1348.95352	48284.1875
1352.44163	49255.2875
1355.92738	51224.1875
1359.41078	54997.8875
1362.89183	59193.4875
1366.37053	58327.4875
1369.84688	52219.3875
1373.32088	45729.0875
1376.79254	41513.7875
1380.26186	39450.6875
1383.72883	38359.8875
1387.19347	37640.2875
1390.65578	36742.2875
1394.11575	36195.3875
1397.57339	36159.1875
1401.0287	36553.8875
1404.48168	37287.4875
1407.93234	38278.4875
1411.38068	39147.5875
1414.82669	39434.7875
1418.27039	38916.6875
1421.71177	37970.7875
1425.15083	37127.7875
1428.58758	36641.4875
1432.02203	36518.8875
1435.45416	36650.4875
1438.88399	36747.2875
1442.31151	36834.9875
1445.73673	37044.2875
1449.15965	37193.8875
1452.58027	37139.7875
1455.9986	36893.6875
1459.41463	36753.7875
1462.82837	36940.5875
1466.23982	37451.5875
1469.64898	38083.1875
1473.05586	38610.4875
1476.46045	38946.8875
1479.86276	39462.9875
1483.26279	40026.2875
1486.66054	40779.7875
1490.05602	41591.3875
1493.44922	42639.1875
1496.84016	43741.5875
1500.22882	45259.4875
1503.61521	47281.3875
1506.99934	49890.8875
1510.38121	52578.0875
1513.76081	54031.5875
1517.13816	52676.3875
1520.51324	49204.6875
1523.88607	45410.3875
1527.25665	42561.8875
1530.62498	40744.5875
1533.99105	39613.2875
1537.35488	39017.9875
1540.71647	38597.0875
1544.07581	38377.5875
1547.4329	38211.5875
1550.78776	38065.1875
1554.14038	37966.3875
1557.49077	38094.3875
1560.83892	38320.5875
1564.18484	38634.8875
1567.52853	38756.3875
1570.86999	38833.4875
1574.20922	38957.1875
1577.54624	38910.6875
1580.88103	38298.6875
1584.2136	37502.6875
1587.54395	37632.2875
1590.87208	38829.1875
1594.19801	40912.9875
1597.52172	43308.0875
1600.84321	44302.9875
1604.16251	43152.5875
1607.47959	40718.9875
1610.79447	37919.5875
1614.10715	35412.9875
1617.41763	33379.6875
1620.7259	32124.4875
1624.03199	31554.5875
1627.33587	31707.1875
1630.63757	32481.8875
1633.93707	33849.1875
1637.23439	35743.4875
1640.52951	37942.4875
1643.82246	40288.5875
1647.11321	42249.9875
1650.40179	43326.6875
1653.68819	41889.7875
1656.97241	38036.5875
1660.25446	33732.1875
1663.53433	30653.8875
1666.81203	28710.0875
1670.08756	27513.0875
1673.36092	26762.0875
1676.63211	26271.9875
1679.90115	25925.6875
1683.16801	25658.4875
1686.43272	25494.6875
1689.69527	25308.8875
1692.95567	25226.6875
1696.2139	25103.4875
1699.46999	25103.2875
1702.72392	25100.6875
1705.97571	25059.6875
1709.22535	25069.7875
1712.47284	25047.9875
1715.71819	25100.4875
1718.96139	25096.9875
1722.20246	25048.2875
1725.44139	24964.9875
1728.67818	24835.1875
1731.91284	24749.8875
1735.14537	24645.4875
1738.37576	24550.1875
1741.60403	24446.9875
1744.83017	24362.2875
1748.05418	24308.2875
1751.27607	24273.0875
1754.49584	24276.9875
1757.71349	24250.1875
1760.92903	24246.0875
1764.14244	24255.1875
1767.35375	24230.3875
1770.56294	24230.6875
1773.77002	24206.1875
1776.97499	24154.8875
1780.17785	24153.4875
1783.37861	24143.0875
1786.57727	24091.4875
1789.77382	24080.3875
1792.96828	24058.7875
1796.16064	24029.9875
1799.3509	24015.7875
1802.53907	24009.1875
1805.72514	23954.8875
1808.90913	23892.9875
1812.09102	23944.3875
1815.27083	23849.4875
1818.44856	23814.5875
1821.6242	23761.6875
1824.79776	23774.5875
1827.96924	23765.6875
1831.13864	23728.3875
1834.30597	23764.5875
1837.47122	23780.3875
1840.6344	23790.7875
1843.7955	23780.5875
1846.95454	23747.0875
1850.11151	23763.4875
1853.26642	23780.0875
1856.41926	23750.1875
1859.57004	23802.2875
1862.71876	23788.1875
1865.86542	23810.6875
1869.01003	23778.0875
1872.15258	23829.8875
1875.29308	23823.5875
1878.43152	23834.6875
1881.56792	23875.4875
1884.70227	23897.7875
1887.83457	23925.0875
1890.96482	23936.4875
1894.09304	23915.2875
1897.21921	23901.8875
1900.34335	23926.9875
1903.46544	23897.5875
1906.58551	23904.3875
1909.70353	23908.8875
1912.81953	23919.4875
1915.93349	23871.9875
1919.04543	23867.4875
1922.15534	23831.4875
1925.26322	23773.1875
1928.36908	23699.0875
1931.47292	23655.9875
1934.57473	23554.2875
1937.67453	23443.2875
1940.77232	23361.4875
1943.86808	23315.3875
1946.96184	23240.0875
1950.05358	23135.5875
1953.14331	23090.8875
1956.23103	22982.5875
1959.31675	22915.8875
1962.40046	22840.6875
1965.48217	22786.8875
1968.56188	22747.4875
1971.63959	22679.0875
1974.7153	22592.8875
1977.78901	22488.1875
1980.86073	22457.3875
1983.93046	22404.1875
1986.99819	22278.5875
1990.06394	22274.4875
1993.1277	22170.1875
1996.18947	22056.6875
1999.24925	22042.6875
2002.30706	21987.1875
2005.36288	21938.4875
2008.41672	21863.1875
2011.46859	21811.9875
2014.51848	21776.4875
2017.56639	21686.8875
2020.61233	21671.6875
2023.6563	21591.7875
2026.6983	21566.9875
2029.73833	21532.8875
2032.7764	21452.9875
2035.8125	21440.3875
2038.84664	21407.2875
2041.87881	21409.0875
2044.90903	21372.6875
2047.93729	21349.6875
2050.96359	21331.3875
2053.98794	21262.6875
2057.01034	21232.0875
2060.03078	21255.9875
2063.04927	21229.4875
2066.06582	21205.6875
2069.08042	21192.4875
2072.09307	21124.2875
2075.10378	21119.4875
2078.11255	21117.0875
2081.11938	21122.4875
2084.12426	21040.9875
2087.12722	21043.9875
2090.12824	21048.4875
2093.12732	21079.9875
2096.12447	21062.4875
2099.11969	21081.2875
2102.11299	21073.5875
2105.10435	21083.9875
2108.09379	21127.3875
2111.08131	21103.9875
2114.0669	21099.2875
2117.05057	21141.2875
2120.03233	21133.4875
2123.01216	21170.8875
2125.99008	21180.2875
2128.96609	21166.3875
2131.94018	21169.9875
2134.91236	21185.7875
2137.88263	21225.3875
2140.851	21212.5875
2143.81746	21268.1875
2146.78201	21251.2875
2149.74466	21278.0875
2152.7054	21247.2875
2155.66425	21262.0875
2158.6212	21270.4875
2161.57625	21254.5875
2164.52941	21243.2875
2167.48067	21229.1875
2170.43004	21251.5875
2173.37752	21257.8875
2176.32311	21231.3875
2179.26681	21270.1875
2182.20863	21239.7875
2185.14856	21236.3875
2188.08661	21230.9875
2191.02278	21250.6875
2193.95707	21215.8875
2196.88948	21244.2875
2199.82001	21229.4875
2202.74867	21192.8875
2205.67545	21206.0875
2208.60037	21188.4875
2211.52341	21169.2875
2214.44458	21154.7875
2217.36388	21100.1875
2220.28132	21113.8875
2223.1969	21034.4875
2226.11061	21027.3875
2229.02246	20992.9875
2231.93245	20954.8875
2234.84058	20925.1875
2237.74686	20867.1875
2240.65128	20830.7875
2243.55385	20811.4875
2246.45456	20805.5875
2249.35343	20783.4875
2252.25044	20723.7875
2255.14561	20731.9875
2258.03893	20728.5875
2260.93041	20669.7875
2263.82004	20601.7875
2266.70783	20579.5875
2269.59378	20562.6875
2272.4779	20493.7875
2275.36017	20449.1875
2278.24061	20388.3875
2281.11922	20370.8875
2283.996	20326.2875
2286.87094	20334.4875
2289.74405	20261.6875
2292.61534	20259.1875
2295.4848	20280.8875
2298.35243	20265.9875
2301.21824	20276.5875
2304.08223	20263.7875
2306.94439	20227.5875
2309.80474	20228.1875
2312.66327	20270.2875
2315.51999	20250.7875
2318.37489	20261.4875
2321.22797	20219.1875
2324.07925	20221.4875
2326.92871	20205.7875
2329.77637	20150.2875
2332.62222	20141.1875
2335.46626	20133.2875
2338.3085	20137.1875
2341.14893	20120.9875
2343.98756	20176.9875
2346.8244	20146.8875
2349.65943	20138.5875
2352.49267	20120.8875
2355.32411	20124.8875
2358.15376	20113.2875
2360.98161	20063.6875
2363.80768	20045.5875
2366.63195	20036.5875
2369.45444	20009.3875
2372.27514	19977.0875
2375.09405	19949.9875
2377.91118	19918.8875
2380.72652	19836.6875
2383.54009	19787.7875
2386.35187	19752.7875
2389.16188	19707.3875
2391.97011	19678.2875
2394.77657	19642.1875
2397.58125	19601.6875
2400.38416	19594.3875
2403.18529	19567.8875
2405.98466	19512.8875
2408.78226	19470.0875
2411.57809	19430.3875
2414.37216	19429.3875
2417.16446	19381.5875
2419.955	19352.5875
2422.74378	19342.7875
2425.5308	19305.1875
2428.31606	19294.6875
2431.09956	19278.5875
2433.88131	19241.3875
2436.6613	19258.6875
2439.43954	19254.3875
2442.21603	19243.8875
2444.99077	19235.1875
2447.76377	19224.6875
2450.53501	19205.3875
2453.30451	19191.3875
2456.07226	19231.9875
2458.83827	19160.3875
2461.60254	19145.7875
2464.36507	19108.3875
2467.12586	19117.9875
2469.88492	19134.9875
2472.64224	19135.1875
2475.39782	19119.9875
2478.15167	19111.6875
2480.90379	19102.0875
2483.65417	19165.4875
2486.40283	19146.7875
2489.14976	19162.2875
2491.89497	19134.7875
2494.63845	19169.7875
2497.3802	19183.3875
2500.12024	19181.5875
2502.85855	19166.5875
2505.59514	19145.4875
2508.33002	19112.3875
2511.06318	19094.4875
2513.79462	19019.3875
2516.52435	19010.9875
2519.25237	19003.2875
2521.97867	19010.6875
2524.70327	18977.0875
2527.42616	18904.3875
2530.14734	18919.1875
2532.86681	18897.5875
2535.58458	18859.3875
2538.30065	18860.7875
2541.01501	18838.7875
2543.72768	18786.4875
2546.43864	18804.9875
2549.14791	18752.1875
2551.85548	18772.8875
2554.56136	18758.2875
2557.26554	18725.2875
2559.96803	18718.5875
2562.66883	18666.9875
2565.36794	18660.6875
2568.06536	18681.9875
2570.7611	18601.8875
2573.45514	18612.2875
2576.14751	18578.5875
2578.83819	18528.2875
2581.52719	18515.9875
2584.21451	18542.6875
2586.90015	18529.9875
2589.58411	18513.4875
2592.2664	18505.1875
2594.94701	18495.3875
2597.62594	18453.7875
2600.30321	18431.0875
2602.9788	18427.8875
2605.65273	18408.2875
2608.32498	18415.0875
2610.99557	18400.6875
2613.66449	18400.5875
2616.33175	18387.7875
2618.99734	18382.5875
2621.66128	18379.5875
2624.32355	18359.8875
2626.98416	18363.3875
2629.64311	18355.5875
2632.30041	18354.6875
2634.95605	18303.9875
2637.61004	18301.0875
2640.26238	18266.5875
2642.91306	18241.8875
2645.56209	18220.4875
2648.20948	18214.0875
2650.85521	18183.9875
2653.4993	18193.6875
2656.14175	18180.2875
2658.78255	18188.5875
2661.42171	18178.7875
2664.05923	18206.3875
2666.6951	18202.7875
2669.32934	18216.8875
2671.96194	18209.9875
2674.59291	18268.0875
2677.22224	18255.5875
2679.84993	18266.5875
2682.476	18251.0875
2685.10043	18273.2875
2687.72324	18213.1875
2690.34441	18227.2875
2692.96396	18222.0875
2695.58188	18262.7875
2698.19818	18206.7875
2700.81285	18224.3875
2703.4259	18171.5875
2706.03733	18184.0875
2708.64714	18235.6875
2711.25533	18239.7875
2713.86191	18211.4875
2716.46687	18239.1875
2719.07021	18198.7875
2721.67194	18192.4875
2724.27206	18157.1875
2726.87057	18186.5875
2729.46747	18199.7875
2732.06276	18199.6875
2734.65644	18202.6875
2737.24852	18188.5875
2739.83899	18183.0875
2742.42786	18187.1875
2745.01513	18166.3875
2747.60079	18184.2875
2750.18486	18170.8875
2752.76733	18142.0875
2755.3482	18150.3875
2757.92747	18119.4875
2760.50515	18134.0875
2763.08123	18113.9875
2765.65573	18103.0875
2768.22863	18082.7875
2770.79994	18071.3875
2773.36967	18050.3875
2775.9378	18025.0875
2778.50435	18043.0875
2781.06932	17992.8875
2783.6327	18007.9875
2786.1945	18008.0875
2788.75471	17963.5875
2791.31335	17908.8875
2793.87041	17890.4875
2796.42589	17849.3875
2798.97979	17855.7875
2801.53212	17792.1875
2804.08288	17807.3875
2806.63206	17776.8875
2809.17967	17751.5875
2811.72571	17698.0875
2814.27018	17725.3875
2816.81308	17731.4875
2819.35442	17706.9875
2821.89419	17642.8875
2824.43239	17661.9875
2826.96904	17686.3875
2829.50412	17660.1875
2832.03763	17620.3875
2834.56959	17651.1875
2837.1	17622.7875
2839.62884	17615.7875
2842.15613	17601.8875
2844.68186	17634.5875
2847.20604	17643.3875
2849.72867	17693.9875
2852.24974	17678.1875
2854.76927	17615.5875
2857.28724	17615.3875
2859.80367	17629.2875
2862.31855	17558.6875
2864.83189	17530.2875
2867.34368	17540.4875
2869.85393	17513.3875
2872.36264	17503.6875
2874.8698	17512.9875
2877.37543	17533.4875
2879.87952	17503.1875
2882.38207	17535.3875
2884.88308	17494.6875
2887.38256	17504.0875
2889.88051	17526.9875
2892.37692	17490.1875
2894.8718	17501.7875
2897.36515	17515.3875
2899.85698	17525.5875
2902.34727	17529.4875
2904.83604	17556.0875
2907.32328	17561.0875
2909.809	17506.9875
2912.29319	17538.7875
2914.77587	17486.9875
2917.25702	17511.8875
2919.73665	17502.3875
2922.21476	17500.4875
2924.69136	17459.3875
2927.16644	17475.6875
2929.64	17456.6875
2932.11205	17374.2875
2934.58258	17328.8875
2937.05161	17351.1875
2939.51912	17361.7875
2941.98513	17334.8875
2944.44962	17284.9875
2946.91261	17207.3875
2949.37409	17217.8875
2951.83407	17205.6875
2954.29254	17180.5875
2956.74951	17155.1875
2959.20498	17123.0875
2961.65895	17098.3875
2964.11142	17065.0875
2966.56239	16996.2875
2969.01186	17005.8875
2971.45984	16938.4875
2973.90632	16929.7875
2976.35131	16892.8875
2978.7948	16870.0875
2981.23681	16807.5875
2983.67732	16785.7875
2986.11635	16730.9875
2988.55388	16702.6875
2990.98993	16665.5875
2993.4245	16621.0875
2995.85758	16587.2875
2998.28917	16561.4875
3000.71928	16541.1875
3003.14791	16523.7875
3005.57506	16505.0875
3008.00073	16452.4875
3010.42493	16449.5875
3012.84764	16406.9875
3015.26888	16411.4875
3017.68865	16360.2875
3020.10694	16347.2875
3022.52376	16276.0875
3024.9391	16274.8875
3027.35298	16216.1875
3029.76539	16178.3875
3032.17632	16188.2875
3034.5858	16166.2875
3036.9938	16150.4875
3039.40034	16075.8875
3041.80542	16103.7875
3044.20903	16064.3875
3046.61118	16039.0875
3049.01187	16000.8875
3051.4111	15989.9875
3053.80888	15917.9875
3056.20519	15915.2875
3058.60005	15870.5875
3060.99345	15839.9875
3063.3854	15802.1875
3065.7759	15761.5875
3068.16494	15736.6875
3070.55254	15669.3875
3072.93868	15646.9875
3075.32338	15569.6875
3077.70662	15546.1875
3080.08842	15508.1875
3082.46878	15507.1875
3084.84769	15476.2875
3087.22515	15453.4875
3089.60118	15444.7875
3091.97576	15409.8875
3094.3489	15423.7875
3096.72061	15417.2875
3099.09087	15407.0875
3101.4597	15354.2875
3103.82709	15366.8875
3106.19305	15320.3875
3108.55757	15316.6875
3110.92066	15257.6875
3113.28232	15250.8875
3115.64255	15190.2875
3118.00134	15145.3875
3120.35871	15136.2875
3122.71466	15100.1875
3125.06917	15068.3875
3127.42226	15044.5875
3129.77393	15039.2875
3132.12417	15010.0875
3134.47299	15013.1875
3136.82039	15018.7875
3139.16636	15014.9875
3141.51092	14976.5875
3143.85406	15003.1875
3146.19579	14988.1875
3148.53609	14996.7875
3150.87499	14988.1875
3153.21246	14980.6875
3155.54853	14986.7875
3157.88318	14945.3875
3160.21642	14958.2875
3162.54826	14952.6875
3164.87868	14950.9875
3167.2077	14917.6875
3169.5353	14935.3875
3171.86151	14909.6875
3174.18631	14886.8875
3176.5097	14851.3875
3178.83169	14846.2875
3181.15228	14838.1875
3183.47147	14804.7875
3185.78926	14793.1875
3188.10565	14803.8875
3190.42065	14795.8875
3192.73424	14809.2875
3195.04645	14789.0875
3197.35725	14814.0875
3199.66667	14791.0875
3201.97469	14789.2875
3204.28132	14813.5875
3206.58656	14828.4875
3208.8904	14792.0875
3211.19287	14785.4875
3213.49394	14790.3875
3215.79363	14774.5875
3218.09193	14787.1875
3220.38884	14766.9875
3222.68438	14776.8875
3224.97853	14710.4875
3227.2713	14731.0875
3229.56269	14675.5875
3231.8527	14692.1875
3234.14133	14649.8875
3236.42858	14609.5875
3238.71446	14606.6875
3240.99896	14570.7875
3243.28209	14579.8875
3245.56384	14560.1875
3247.84423	14572.3875
3250.12324	14558.8875
3252.40088	14575.1875
3254.67715	14548.3875
3256.95205	14503.0875
3259.22558	14481.7875
3261.49775	14479.1875
3263.76855	14430.9875
3266.03799	14400.7875
3268.30606	14398.3875
3270.57277	14368.2875
3272.83812	14363.8875
3275.10211	14320.3875
3277.36474	14302.4875
3279.62601	14322.9875
3281.88593	14287.1875
3284.14448	14314.2875
3286.40168	14286.5875
3288.65753	14270.4875
3290.91202	14246.0875
3293.16516	14189.2875
3295.41695	14162.2875
3297.66738	14042.0875
3299.91647	13991.9875
3302.16421	13902.2875
3304.4106	13863.9875
3306.65564	13810.1875
3308.89933	13704.9875
3311.14169	13640.7875
3313.38269	13522.4875
3315.62236	13457.0875
3317.86068	13356.9875
3320.09766	13189.7875
3322.3333	13109.1875
3324.5676	13093.7875
3326.80056	12872.2875
3329.03219	12795.4875
3331.26248	3.4875
3333.49143	-0.0125
3335.71905	0.3875
