Data from AgNPs_FTO_APTES_UA_5uM_R6G_10uM_NaF_0.1M_Addition_RamanShift__11__12-38-27-259.txt Node

Date: Fri Dec 17 12:38:27 GMT 2021
User: TCL
Spectrometer: QEP01345
Trigger mode: 4
Integration Time (sec): 7.000000E0
Scans to average: 10
Electric dark correction enabled: true
Nonlinearity correction enabled: false
Boxcar width: 0
XAxis mode: Raman Shifts
Number of Pixels in Spectrum: 1044
>>>>>Begin Spectral Data<<<<<
46.04893	-1.1125
50.45542	-0.5125
54.85868	-1.2125
59.25871	0.1875
63.6555	108.3875
68.04907	117.3875
72.43941	120.8875
76.82654	129.2875
81.21044	132.1875
85.59113	135.9875
89.96862	143.0875
94.34289	151.3875
98.71396	151.0875
103.08183	155.8875
107.4465	159.4875
111.80798	163.1875
116.16626	171.8875
120.52136	175.8875
124.87327	182.1875
129.222	187.4875
133.56755	200.5875
137.90993	216.4875
142.24913	235.1875
146.58517	264.1875
150.91804	295.0875
155.24774	354.3875
159.57429	440.0875
163.89768	557.6875
168.21792	732.0875
172.53501	984.4875
176.84895	1364.9875
181.15975	1907.9875
185.46741	2673.9875
189.77193	3691.0875
194.07331	4944.9875
198.37157	6378.4875
202.6667	7902.2875
206.9587	9385.7875
211.24758	10837.3875
215.53334	12294.7875
219.81599	13789.7875
224.09553	15465.4875
228.37195	17282.2875
232.64527	19351.7875
236.91549	21546.8875
241.18261	23803.4875
245.44663	26011.9875
249.70755	28012.8875
253.96539	29721.0875
258.22014	31187.1875
262.4718	32293.8875
266.72039	33069.0875
270.96589	33469.2875
275.20832	33505.2875
279.44768	33293.9875
283.68397	32900.4875
287.91719	32554.2875
292.14735	32251.3875
296.37445	32077.4875
300.59849	31936.4875
304.81948	31896.5875
309.03742	31833.7875
313.25231	31703.0875
317.46415	31416.3875
321.67296	31021.3875
325.87872	30646.5875
330.08145	30443.3875
334.28114	30519.7875
338.47781	30733.1875
342.67145	31079.5875
346.86207	31449.3875
351.04966	31871.8875
355.23424	32349.4875
359.4158	32784.0875
363.59435	33144.1875
367.76989	33444.0875
371.94243	33620.4875
376.11196	33705.2875
380.27849	33862.4875
384.44203	34064.4875
388.60257	34301.9875
392.76012	34691.5875
396.91468	35106.9875
401.06626	35514.5875
405.21485	35956.6875
409.36047	35981.9875
413.50311	35708.3875
417.64277	35633.6875
421.77947	35744.5875
425.9132	35991.6875
430.04396	36190.2875
434.17176	36342.7875
438.2966	36519.4875
442.41849	36780.1875
446.53742	37220.8875
450.6534	37752.4875
454.76644	38181.5875
458.87653	38423.9875
462.98368	38487.9875
467.08789	38385.4875
471.18916	38020.0875
475.2875	37689.0875
479.38291	37377.0875
483.4754	37164.3875
487.56496	36893.9875
491.6516	36702.5875
495.73531	36506.7875
499.81612	36425.4875
503.89401	36717.4875
507.96899	36952.2875
512.04106	37073.4875
516.11023	37036.0875
520.1765	36833.3875
524.23987	36547.0875
528.30034	36277.1875
532.35792	36020.1875
536.41261	35828.9875
540.46441	35660.4875
544.51333	35677.5875
548.55936	35991.8875
552.60252	36425.3875
556.64279	36866.9875
560.6802	37181.9875
564.71473	37336.9875
568.7464	37644.0875
572.7752	38275.9875
576.80114	39086.6875
580.82422	40106.8875
584.84444	41146.5875
588.86181	42206.2875
592.87633	42864.7875
596.888	42737.3875
600.89682	41917.9875
604.9028	42101.8875
608.90594	43779.6875
612.90624	45424.3875
616.90371	43463.5875
620.89834	39268.9875
624.89015	37378.3875
628.87913	37182.1875
632.86528	37346.7875
636.84862	37442.7875
640.82913	37068.8875
644.80683	36470.8875
648.78172	36042.5875
652.75379	35984.3875
656.72306	36256.2875
660.68952	36667.5875
664.65319	36584.3875
668.61405	36292.1875
672.57211	36252.0875
676.52738	36370.5875
680.47986	36349.4875
684.42955	36201.0875
688.37646	36084.4875
692.32058	36274.6875
696.26192	36576.6875
700.20048	36915.3875
704.13626	37216.6875
708.06928	37227.2875
711.99952	37106.1875
715.927	36978.3875
719.85171	36983.9875
723.77365	36865.1875
727.69284	36531.2875
731.60928	36190.8875
735.52295	35969.1875
739.43388	35924.3875
743.34206	36000.5875
747.24749	36170.6875
751.15017	36438.7875
755.05012	36811.4875
758.94733	37463.9875
762.8418	38570.5875
766.73354	40299.4875
770.62254	41823.8875
774.50882	42052.2875
778.39237	41020.0875
782.27321	39367.7875
786.15132	38009.5875
790.02671	37063.8875
793.89938	36528.7875
797.76935	36242.5875
801.6366	36134.3875
805.50115	36070.2875
809.36299	35921.0875
813.22213	35687.5875
817.07857	35635.2875
820.93231	35541.1875
824.78336	35459.9875
828.63172	35435.2875
832.47738	35412.9875
836.32036	35396.4875
840.16066	35319.8875
843.99827	35327.8875
847.8332	35302.4875
851.66546	35421.2875
855.49504	35522.5875
859.32195	35543.0875
863.1462	35521.9875
866.96777	35514.4875
870.78668	35553.7875
874.60293	35617.9875
878.41652	35631.0875
882.22745	35705.9875
886.03573	35824.0875
889.84136	35919.5875
893.64433	35835.5875
897.44466	35757.5875
901.24235	35669.9875
905.0374	35658.1875
908.8298	35665.5875
912.61957	35670.7875
916.40671	35860.8875
920.19121	36135.9875
923.97308	36346.4875
927.75233	36346.7875
931.52895	36093.6875
935.30295	35745.0875
939.07433	35366.9875
942.84309	35079.5875
946.60924	34901.6875
950.37278	34878.6875
954.13371	34852.8875
957.89203	34806.5875
961.64774	34766.0875
965.40086	34711.6875
969.15137	34656.4875
972.89929	34598.8875
976.64461	34568.7875
980.38733	34534.4875
984.12747	34566.7875
987.86502	34618.6875
991.59999	34755.8875
995.33237	34933.8875
999.06217	35310.3875
1002.78939	35724.0875
1006.51404	36273.2875
1010.23611	36848.2875
1013.95561	37111.6875
1017.67255	37139.8875
1021.38692	36888.6875
1025.09872	36504.8875
1028.80796	36092.1875
1032.51465	35904.5875
1036.21877	35848.8875
1039.92035	35950.7875
1043.61937	36108.7875
1047.31584	36200.6875
1051.00976	36279.4875
1054.70114	36376.5875
1058.38998	36552.1875
1062.07627	36943.3875
1065.76003	37345.6875
1069.44126	37767.7875
1073.11995	38297.3875
1076.79611	38774.1875
1080.46974	38947.5875
1084.14085	39055.9875
1087.80943	39202.8875
1091.47549	39369.3875
1095.13903	39473.5875
1098.80005	39253.4875
1102.45857	38738.7875
1106.11456	38169.9875
1109.76805	37773.2875
1113.41903	37620.2875
1117.06751	37561.2875
1120.71348	37687.3875
1124.35696	37878.6875
1127.99793	38131.3875
1131.63641	38357.4875
1135.2724	38246.6875
1138.90589	38278.5875
1142.5369	38355.3875
1146.16542	38457.3875
1149.79145	38631.5875
1153.415	38770.7875
1157.03607	39012.0875
1160.65467	39556.5875
1164.27079	40584.1875
1167.88443	41912.0875
1171.49561	43361.3875
1175.10432	45062.1875
1178.71056	47025.7875
1182.31434	49150.8875
1185.91565	50677.5875
1189.51451	51486.6875
1193.11091	51453.6875
1196.70485	50566.8875
1200.29634	49138.5875
1203.88538	47851.6875
1207.47197	46918.9875
1211.05612	46311.6875
1214.63782	45608.9875
1218.21708	44774.7875
1221.79391	43877.1875
1225.36829	43253.8875
1228.94024	42875.1875
1232.50976	42671.5875
1236.07685	42646.1875
1239.6415	42553.8875
1243.20374	42574.8875
1246.76355	42785.4875
1250.32093	43182.0875
1253.8759	43791.0875
1257.42845	44615.6875
1260.97859	45550.7875
1264.52631	46545.8875
1268.07163	47379.7875
1271.61453	48264.1875
1275.15503	49067.4875
1278.69312	49846.0875
1282.22882	50606.5875
1285.76211	51406.8875
1289.29301	52224.3875
1292.82151	53336.0875
1296.34761	54636.4875
1299.87133	56315.5875
1303.39266	58129.7875
1306.9116	59796.5875
1310.42815	61183.1875
1313.94233	62054.1875
1317.45412	61984.4875
1320.96354	61732.2875
1324.47058	61750.5875
1327.97525	61899.5875
1331.47754	62186.8875
1334.97747	62612.7875
1338.47502	63150.5875
1341.97022	63747.9875
1345.46305	64262.3875
1348.95352	64362.9875
1352.44163	64003.7875
1355.92738	63618.9875
1359.41078	63538.3875
1362.89183	63371.9875
1366.37053	62000.4875
1369.84688	58911.9875
1373.32088	55053.9875
1376.79254	51987.8875
1380.26186	50495.7875
1383.72883	50068.0875
1387.19347	49828.6875
1390.65578	49412.4875
1394.11575	49075.1875
1397.57339	49152.1875
1401.0287	49484.7875
1404.48168	49801.9875
1407.93234	49991.6875
1411.38068	49547.6875
1414.82669	48788.5875
1418.27039	47596.3875
1421.71177	46372.0875
1425.15083	45555.7875
1428.58758	45260.1875
1432.02203	45535.8875
1435.45416	46221.1875
1438.88399	47048.1875
1442.31151	47696.3875
1445.73673	47994.5875
1449.15965	48048.0875
1452.58027	48227.6875
1455.9986	48285.6875
1459.41463	48639.5875
1462.82837	49383.1875
1466.23982	50119.0875
1469.64898	50661.3875
1473.05586	50914.4875
1476.46045	50928.7875
1479.86276	50759.3875
1483.26279	50476.8875
1486.66054	50372.0875
1490.05602	50519.6875
1493.44922	50982.1875
1496.84016	51612.6875
1500.22882	52585.2875
1503.61521	53837.8875
1506.99934	54938.2875
1510.38121	55750.6875
1513.76081	55664.5875
1517.13816	54871.0875
1520.51324	53770.2875
1523.88607	52914.7875
1527.25665	52566.3875
1530.62498	52425.6875
1533.99105	52223.0875
1537.35488	51745.0875
1540.71647	50991.6875
1544.07581	50156.3875
1547.4329	49285.2875
1550.78776	48573.8875
1554.14038	47948.8875
1557.49077	47720.8875
1560.83892	47560.7875
1564.18484	47550.1875
1567.52853	47467.9875
1570.86999	47699.1875
1574.20922	48128.3875
1577.54624	48580.3875
1580.88103	48688.8875
1584.2136	48762.1875
1587.54395	49415.3875
1590.87208	50686.5875
1594.19801	52505.3875
1597.52172	54270.5875
1600.84321	54760.0875
1604.16251	53430.2875
1607.47959	51034.9875
1610.79447	48436.1875
1614.10715	45768.2875
1617.41763	43336.4875
1620.7259	41529.7875
1624.03199	40475.5875
1627.33587	40257.2875
1630.63757	40831.2875
1633.93707	42464.4875
1637.23439	45139.5875
1640.52951	49041.8875
1643.82246	53252.3875
1647.11321	56285.0875
1650.40179	56355.6875
1653.68819	53351.1875
1656.97241	48517.3875
1660.25446	43726.3875
1663.53433	40119.0875
1666.81203	37713.5875
1670.08756	36077.6875
1673.36092	35031.7875
1676.63211	34419.5875
1679.90115	33879.5875
1683.16801	33483.6875
1686.43272	33277.8875
1689.69527	33045.7875
1692.95567	32841.0875
1696.2139	32760.2875
1699.46999	32650.5875
1702.72392	32546.4875
1705.97571	32521.4875
1709.22535	32457.1875
1712.47284	32423.7875
1715.71819	32391.3875
1718.96139	32315.6875
1722.20246	32249.7875
1725.44139	32160.2875
1728.67818	31989.2875
1731.91284	31865.0875
1735.14537	31759.8875
1738.37576	31615.0875
1741.60403	31477.9875
1744.83017	31416.7875
1748.05418	31341.1875
1751.27607	31282.1875
1754.49584	31191.7875
1757.71349	31181.8875
1760.92903	31190.0875
1764.14244	31183.6875
1767.35375	31156.6875
1770.56294	31126.7875
1773.77002	31053.6875
1776.97499	31034.6875
1780.17785	30979.5875
1783.37861	30970.6875
1786.57727	30904.2875
1789.77382	30852.0875
1792.96828	30788.8875
1796.16064	30724.7875
1799.3509	30689.9875
1802.53907	30646.2875
1805.72514	30603.2875
1808.90913	30562.7875
1812.09102	30436.0875
1815.27083	30428.8875
1818.44856	30379.0875
1821.6242	30354.3875
1824.79776	30369.8875
1827.96924	30356.5875
1831.13864	30364.1875
1834.30597	30370.9875
1837.47122	30359.1875
1840.6344	30409.4875
1843.7955	30385.5875
1846.95454	30334.0875
1850.11151	30308.1875
1853.26642	30299.2875
1856.41926	30309.5875
1859.57004	30302.3875
1862.71876	30239.5875
1865.86542	30158.2875
1869.01003	30110.2875
1872.15258	30117.4875
1875.29308	30057.9875
1878.43152	30010.1875
1881.56792	29964.1875
1884.70227	29923.4875
1887.83457	29921.8875
1890.96482	29874.9875
1894.09304	29769.4875
1897.21921	29749.6875
1900.34335	29720.9875
1903.46544	29665.9875
1906.58551	29644.8875
1909.70353	29551.7875
1912.81953	29514.9875
1915.93349	29450.1875
1919.04543	29392.2875
1922.15534	29379.2875
1925.26322	29293.3875
1928.36908	29214.8875
1931.47292	29187.3875
1934.57473	29062.6875
1937.67453	29007.4875
1940.77232	28967.8875
1943.86808	28898.4875
1946.96184	28838.4875
1950.05358	28732.0875
1953.14331	28660.5875
1956.23103	28556.0875
1959.31675	28499.4875
1962.40046	28414.3875
1965.48217	28352.9875
1968.56188	28308.2875
1971.63959	28155.2875
1974.7153	28096.8875
1977.78901	28016.7875
1980.86073	27902.4875
1983.93046	27817.0875
1986.99819	27751.2875
1990.06394	27670.9875
1993.1277	27590.3875
1996.18947	27486.6875
1999.24925	27484.1875
2002.30706	27352.6875
2005.36288	27275.0875
2008.41672	27204.7875
2011.46859	27142.3875
2014.51848	27105.9875
2017.56639	27024.6875
2020.61233	26927.5875
2023.6563	26849.4875
2026.6983	26780.6875
2029.73833	26711.5875
2032.7764	26690.4875
2035.8125	26588.0875
2038.84664	26531.3875
2041.87881	26527.8875
2044.90903	26508.9875
2047.93729	26454.5875
2050.96359	26384.6875
2053.98794	26338.1875
2057.01034	26336.0875
2060.03078	26302.7875
2063.04927	26281.8875
2066.06582	26259.2875
2069.08042	26277.5875
2072.09307	26252.2875
2075.10378	26247.5875
2078.11255	26154.8875
2081.11938	26199.7875
2084.12426	26136.8875
2087.12722	26115.2875
2090.12824	26085.3875
2093.12732	26121.9875
2096.12447	26143.2875
2099.11969	26156.9875
2102.11299	26172.2875
2105.10435	26161.1875
2108.09379	26188.3875
2111.08131	26208.6875
2114.0669	26195.8875
2117.05057	26209.7875
2120.03233	26227.1875
2123.01216	26257.5875
2125.99008	26297.6875
2128.96609	26331.7875
2131.94018	26295.3875
2134.91236	26296.1875
2137.88263	26318.2875
2140.851	26349.4875
2143.81746	26405.5875
2146.78201	26350.5875
2149.74466	26381.5875
2152.7054	26342.7875
2155.66425	26331.9875
2158.6212	26339.1875
2161.57625	26348.0875
2164.52941	26347.2875
2167.48067	26347.4875
2170.43004	26299.9875
2173.37752	26304.1875
2176.32311	26280.5875
2179.26681	26239.6875
2182.20863	26290.4875
2185.14856	26306.7875
2188.08661	26271.9875
2191.02278	26290.2875
2193.95707	26223.2875
2196.88948	26191.8875
2199.82001	26219.2875
2202.74867	26166.5875
2205.67545	26130.3875
2208.60037	26103.0875
2211.52341	26019.0875
2214.44458	26043.3875
2217.36388	25930.7875
2220.28132	25895.0875
2223.1969	25807.8875
2226.11061	25815.4875
2229.02246	25755.3875
2231.93245	25732.0875
2234.84058	25708.5875
2237.74686	25647.2875
2240.65128	25642.6875
2243.55385	25585.8875
2246.45456	25552.5875
2249.35343	25494.8875
2252.25044	25453.4875
2255.14561	25414.2875
2258.03893	25417.8875
2260.93041	25339.9875
2263.82004	25261.6875
2266.70783	25220.4875
2269.59378	25151.7875
2272.4779	25121.1875
2275.36017	25065.1875
2278.24061	25017.8875
2281.11922	24944.4875
2283.996	24912.6875
2286.87094	24872.7875
2289.74405	24833.6875
2292.61534	24806.4875
2295.4848	24784.6875
2298.35243	24778.9875
2301.21824	24719.0875
2304.08223	24723.3875
2306.94439	24700.0875
2309.80474	24668.7875
2312.66327	24688.2875
2315.51999	24659.9875
2318.37489	24640.0875
2321.22797	24577.6875
2324.07925	24604.9875
2326.92871	24523.4875
2329.77637	24493.8875
2332.62222	24472.7875
2335.46626	24385.8875
2338.3085	24378.0875
2341.14893	24339.7875
2343.98756	24339.9875
2346.8244	24308.4875
2349.65943	24301.4875
2352.49267	24295.9875
2355.32411	24247.8875
2358.15376	24218.0875
2360.98161	24202.0875
2363.80768	24165.6875
2366.63195	24202.5875
2369.45444	24153.8875
2372.27514	24153.5875
2375.09405	24098.7875
2377.91118	24061.1875
2380.72652	23980.8875
2383.54009	23947.7875
2386.35187	23912.9875
2389.16188	23849.4875
2391.97011	23840.5875
2394.77657	23772.8875
2397.58125	23751.8875
2400.38416	23702.1875
2403.18529	23676.7875
2405.98466	23661.5875
2408.78226	23618.1875
2411.57809	23578.1875
2414.37216	23577.7875
2417.16446	23560.4875
2419.955	23476.2875
2422.74378	23476.9875
2425.5308	23448.1875
2428.31606	23459.4875
2431.09956	23439.3875
2433.88131	23357.4875
2436.6613	23352.5875
2439.43954	23350.7875
2442.21603	23337.7875
2444.99077	23331.9875
2447.76377	23340.1875
2450.53501	23231.1875
2453.30451	23317.3875
2456.07226	23244.9875
2458.83827	23229.3875
2461.60254	23187.2875
2464.36507	23175.7875
2467.12586	23161.1875
2469.88492	23148.7875
2472.64224	23129.8875
2475.39782	23127.7875
2478.15167	23119.0875
2480.90379	23068.9875
2483.65417	23074.6875
2486.40283	23051.2875
2489.14976	23025.7875
2491.89497	23036.5875
2494.63845	23043.1875
2497.3802	22992.3875
2500.12024	22938.0875
2502.85855	22968.1875
2505.59514	22941.6875
2508.33002	22925.3875
2511.06318	22878.1875
2513.79462	22856.2875
2516.52435	22884.7875
2519.25237	22857.1875
2521.97867	22821.1875
2524.70327	22836.3875
2527.42616	22773.9875
2530.14734	22758.4875
2532.86681	22721.4875
2535.58458	22688.7875
2538.30065	22686.2875
2541.01501	22648.1875
2543.72768	22589.3875
2546.43864	22593.5875
2549.14791	22582.0875
2551.85548	22522.2875
2554.56136	22461.1875
2557.26554	22433.2875
2559.96803	22438.9875
2562.66883	22420.3875
2565.36794	22343.0875
2568.06536	22356.7875
2570.7611	22310.4875
2573.45514	22218.7875
2576.14751	22251.2875
2578.83819	22200.9875
2581.52719	22160.8875
2584.21451	22129.6875
2586.90015	22119.2875
2589.58411	22057.9875
2592.2664	22008.0875
2594.94701	22017.7875
2597.62594	21939.6875
2600.30321	21913.9875
2602.9788	21874.1875
2605.65273	21870.8875
2608.32498	21849.1875
2610.99557	21830.2875
2613.66449	21820.7875
2616.33175	21753.1875
2618.99734	21751.8875
2621.66128	21732.4875
2624.32355	21697.7875
2626.98416	21658.3875
2629.64311	21668.5875
2632.30041	21664.2875
2634.95605	21588.0875
2637.61004	21588.4875
2640.26238	21568.1875
2642.91306	21559.2875
2645.56209	21577.2875
2648.20948	21567.9875
2650.85521	21588.6875
2653.4993	21546.8875
2656.14175	21571.7875
2658.78255	21556.9875
2661.42171	21509.8875
2664.05923	21556.7875
2666.6951	21518.8875
2669.32934	21537.8875
2671.96194	21524.4875
2674.59291	21551.8875
2677.22224	21530.2875
2679.84993	21529.9875
2682.476	21485.8875
2685.10043	21506.3875
2687.72324	21476.4875
2690.34441	21504.0875
2692.96396	21493.8875
2695.58188	21496.2875
2698.19818	21461.3875
2700.81285	21444.2875
2703.4259	21456.4875
2706.03733	21492.0875
2708.64714	21477.6875
2711.25533	21495.4875
2713.86191	21477.8875
2716.46687	21480.1875
2719.07021	21508.8875
2721.67194	21491.3875
2724.27206	21454.5875
2726.87057	21481.4875
2729.46747	21446.4875
2732.06276	21489.7875
2734.65644	21465.8875
2737.24852	21454.9875
2739.83899	21444.9875
2742.42786	21453.2875
2745.01513	21375.1875
2747.60079	21408.2875
2750.18486	21401.5875
2752.76733	21349.5875
2755.3482	21341.6875
2757.92747	21303.6875
2760.50515	21250.3875
2763.08123	21234.0875
2765.65573	21204.2875
2768.22863	21180.5875
2770.79994	21187.0875
2773.36967	21180.6875
2775.9378	21140.7875
2778.50435	21106.0875
2781.06932	21041.4875
2783.6327	21046.0875
2786.1945	21012.6875
2788.75471	21007.7875
2791.31335	20922.2875
2793.87041	20875.7875
2796.42589	20817.8875
2798.97979	20836.2875
2801.53212	20780.6875
2804.08288	20748.4875
2806.63206	20698.7875
2809.17967	20651.6875
2811.72571	20627.3875
2814.27018	20607.6875
2816.81308	20566.0875
2819.35442	20533.6875
2821.89419	20457.4875
2824.43239	20436.9875
2826.96904	20412.6875
2829.50412	20421.6875
2832.03763	20337.8875
2834.56959	20326.9875
2837.1	20309.3875
2839.62884	20306.0875
2842.15613	20212.2875
2844.68186	20266.4875
2847.20604	20225.5875
2849.72867	20258.0875
2852.24974	20212.4875
2854.76927	20165.7875
2857.28724	20157.0875
2859.80367	20114.4875
2862.31855	20073.7875
2864.83189	20078.1875
2867.34368	20019.8875
2869.85393	20009.1875
2872.36264	20002.9875
2874.8698	20011.0875
2877.37543	20013.9875
2879.87952	20011.0875
2882.38207	20004.2875
2884.88308	19963.4875
2887.38256	19998.9875
2889.88051	20001.6875
2892.37692	19981.9875
2894.8718	19919.1875
2897.36515	19954.8875
2899.85698	19961.0875
2902.34727	20011.7875
2904.83604	20011.9875
2907.32328	20006.2875
2909.809	19988.0875
2912.29319	19978.8875
2914.77587	19999.8875
2917.25702	19957.6875
2919.73665	19955.6875
2922.21476	19938.1875
2924.69136	19925.5875
2927.16644	19909.4875
2929.64	19872.5875
2932.11205	19886.1875
2934.58258	19755.6875
2937.05161	19853.5875
2939.51912	19818.3875
2941.98513	19786.8875
2944.44962	19777.2875
2946.91261	19726.7875
2949.37409	19736.4875
2951.83407	19733.8875
2954.29254	19686.5875
2956.74951	19681.4875
2959.20498	19661.6875
2961.65895	19624.8875
2964.11142	19635.6875
2966.56239	19565.2875
2969.01186	19571.5875
2971.45984	19466.7875
2973.90632	19489.2875
2976.35131	19445.5875
2978.7948	19429.3875
2981.23681	19377.3875
2983.67732	19313.5875
2986.11635	19301.1875
2988.55388	19283.3875
2990.98993	19218.6875
2993.4245	19170.4875
2995.85758	19128.5875
2998.28917	19069.7875
3000.71928	19030.4875
3003.14791	19041.7875
3005.57506	19003.8875
3008.00073	18917.6875
3010.42493	18916.1875
3012.84764	18891.7875
3015.26888	18895.9875
3017.68865	18883.7875
3020.10694	18829.4875
3022.52376	18787.6875
3024.9391	18752.8875
3027.35298	18752.4875
3029.76539	18682.1875
3032.17632	18664.2875
3034.5858	18623.1875
3036.9938	18605.7875
3039.40034	18610.8875
3041.80542	18558.9875
3044.20903	18512.6875
3046.61118	18494.0875
3049.01187	18444.4875
3051.4111	18447.7875
3053.80888	18381.4875
3056.20519	18389.1875
3058.60005	18323.1875
3060.99345	18305.6875
3063.3854	18263.0875
3065.7759	18223.9875
3068.16494	18137.3875
3070.55254	18058.1875
3072.93868	18043.4875
3075.32338	18017.8875
3077.70662	17976.1875
3080.08842	17948.6875
3082.46878	17907.5875
3084.84769	17865.3875
3087.22515	17881.8875
3089.60118	17839.6875
3091.97576	17829.3875
3094.3489	17821.1875
3096.72061	17771.2875
3099.09087	17799.8875
3101.4597	17736.5875
3103.82709	17719.6875
3106.19305	17728.1875
3108.55757	17725.0875
3110.92066	17622.0875
3113.28232	17585.3875
3115.64255	17548.9875
3118.00134	17497.5875
3120.35871	17463.2875
3122.71466	17466.9875
3125.06917	17395.9875
3127.42226	17357.4875
3129.77393	17351.4875
3132.12417	17326.5875
3134.47299	17330.3875
3136.82039	17309.3875
3139.16636	17293.3875
3141.51092	17281.0875
3143.85406	17312.1875
3146.19579	17314.5875
3148.53609	17309.1875
3150.87499	17315.3875
3153.21246	17300.4875
3155.54853	17314.1875
3157.88318	17249.4875
3160.21642	17305.6875
3162.54826	17251.7875
3164.87868	17198.9875
3167.2077	17212.3875
3169.5353	17197.9875
3171.86151	17165.8875
3174.18631	17147.0875
3176.5097	17150.3875
3178.83169	17095.9875
3181.15228	17093.1875
3183.47147	17067.3875
3185.78926	17044.0875
3188.10565	17022.6875
3190.42065	17011.6875
3192.73424	17018.2875
3195.04645	16994.8875
3197.35725	16991.7875
3199.66667	16994.0875
3201.97469	16983.8875
3204.28132	16981.8875
3206.58656	16989.6875
3208.8904	16979.7875
3211.19287	16968.3875
3213.49394	16950.8875
3215.79363	16909.4875
3218.09193	16898.0875
3220.38884	16879.1875
3222.68438	16869.7875
3224.97853	16850.5875
3227.2713	16850.8875
3229.56269	16774.1875
3231.8527	16790.1875
3234.14133	16763.0875
3236.42858	16708.4875
3238.71446	16683.8875
3240.99896	16672.2875
3243.28209	16632.5875
3245.56384	16640.1875
3247.84423	16652.9875
3250.12324	16612.5875
3252.40088	16578.6875
3254.67715	16560.2875
3256.95205	16524.8875
3259.22558	16495.3875
3261.49775	16480.9875
3263.76855	16479.0875
3266.03799	16408.8875
3268.30606	16358.7875
3270.57277	16343.6875
3272.83812	16326.8875
3275.10211	16317.9875
3277.36474	16301.3875
3279.62601	16296.2875
3281.88593	16234.2875
3284.14448	16237.9875
3286.40168	16227.8875
3288.65753	16207.3875
3290.91202	16150.9875
3293.16516	16108.5875
3295.41695	16075.6875
3297.66738	15960.6875
3299.91647	15919.3875
3302.16421	15826.5875
3304.4106	15736.5875
3306.65564	15664.9875
3308.89933	15552.0875
3311.14169	15460.4875
3313.38269	15333.4875
3315.62236	15294.1875
3317.86068	15106.6875
3320.09766	14968.9875
3322.3333	14833.1875
3324.5676	14832.0875
3326.80056	14556.4875
3329.03219	14511.9875
3331.26248	4.5875
3333.49143	-0.4125
3335.71905	-0.5125
