Data from AgNPs_FTO_APTES_UA_10uM_R6G_10uM_NaF_0.1M_Addition_RamanShift__24__13-37-57-328.txt Node

Date: Fri Dec 17 13:37:57 GMT 2021
User: TCL
Spectrometer: QEP01345
Trigger mode: 4
Integration Time (sec): 7.000000E0
Scans to average: 10
Electric dark correction enabled: true
Nonlinearity correction enabled: false
Boxcar width: 0
XAxis mode: Raman Shifts
Number of Pixels in Spectrum: 1044
>>>>>Begin Spectral Data<<<<<
46.04893	-0.3125
50.45542	0.4875
54.85868	-1.3125
59.25871	-0.5125
63.6555	84.6875
68.04907	90.6875
72.43941	92.2875
76.82654	95.3875
81.21044	96.3875
85.59113	101.8875
89.96862	106.1875
94.34289	114.4875
98.71396	114.0875
103.08183	115.8875
107.4465	116.6875
111.80798	121.8875
116.16626	128.4875
120.52136	129.0875
124.87327	140.7875
129.222	140.6875
133.56755	147.6875
137.90993	162.2875
142.24913	177.8875
146.58517	197.8875
150.91804	226.9875
155.24774	270.9875
159.57429	333.1875
163.89768	425.8875
168.21792	556.5875
172.53501	754.0875
176.84895	1053.5875
181.15975	1461.9875
185.46741	2052.8875
189.77193	2827.6875
194.07331	3791.3875
198.37157	4905.0875
202.6667	6047.5875
206.9587	7205.9875
211.24758	8313.5875
215.53334	9451.7875
219.81599	10674.6875
224.09553	12028.6875
228.37195	13538.4875
232.64527	15242.8875
236.91549	17009.5875
241.18261	18735.2875
245.44663	20341.7875
249.70755	21738.0875
253.96539	22910.5875
258.22014	23967.1875
262.4718	24830.0875
266.72039	25509.1875
270.96589	25885.7875
275.20832	25902.0875
279.44768	25798.9875
283.68397	25420.5875
287.91719	25165.0875
292.14735	25004.2875
296.37445	25105.4875
300.59849	25363.6875
304.81948	25683.9875
309.03742	25846.5875
313.25231	25687.4875
317.46415	24974.7875
321.67296	24053.7875
325.87872	23285.7875
330.08145	22955.3875
334.28114	22943.4875
338.47781	23246.2875
342.67145	23679.2875
346.86207	24243.3875
351.04966	25013.0875
355.23424	25879.6875
359.4158	26637.6875
363.59435	27156.1875
367.76989	27477.2875
371.94243	27663.4875
376.11196	27803.2875
380.27849	27874.0875
384.44203	28003.6875
388.60257	28027.2875
392.76012	28121.4875
396.91468	28435.8875
401.06626	28942.1875
405.21485	29377.3875
409.36047	29189.4875
413.50311	28505.1875
417.64277	27899.4875
421.77947	27621.9875
425.9132	27594.4875
430.04396	27633.6875
434.17176	27796.8875
438.2966	28090.9875
442.41849	28606.8875
446.53742	29253.6875
450.6534	29962.8875
454.76644	30550.1875
458.87653	30885.3875
462.98368	30705.5875
467.08789	30397.1875
471.18916	29883.6875
475.2875	29308.9875
479.38291	28856.5875
483.4754	28588.5875
487.56496	28275.4875
491.6516	28066.7875
495.73531	27952.8875
499.81612	27899.1875
503.89401	28064.4875
507.96899	28261.9875
512.04106	28425.1875
516.11023	28669.8875
520.1765	28782.4875
524.23987	28736.0875
528.30034	28466.3875
532.35792	28178.4875
536.41261	27913.2875
540.46441	27534.2875
544.51333	27402.2875
548.55936	27547.7875
552.60252	27949.3875
556.64279	28314.9875
560.6802	28545.5875
564.71473	28630.0875
568.7464	29053.1875
572.7752	29461.9875
576.80114	29464.6875
580.82422	29482.5875
584.84444	29553.7875
588.86181	29711.7875
592.87633	29967.8875
596.888	30266.7875
600.89682	30876.9875
604.9028	32757.5875
608.90594	37377.1875
612.90624	42744.0875
616.90371	41117.5875
620.89834	33542.2875
624.89015	29926.8875
628.87913	29349.2875
632.86528	29307.8875
636.84862	29359.5875
640.82913	29016.6875
644.80683	28285.7875
648.78172	27720.8875
652.75379	27707.7875
656.72306	28161.1875
660.68952	28826.5875
664.65319	28748.8875
668.61405	28125.5875
672.57211	27885.8875
676.52738	27932.2875
680.47986	27957.7875
684.42955	27891.6875
688.37646	27797.7875
692.32058	27884.5875
696.26192	28093.0875
700.20048	28371.2875
704.13626	28433.9875
708.06928	28360.9875
711.99952	28148.0875
715.927	28061.8875
719.85171	28080.8875
723.77365	28018.8875
727.69284	27921.7875
731.60928	27696.2875
735.52295	27741.9875
739.43388	27819.1875
743.34206	27950.9875
747.24749	28103.1875
751.15017	28241.8875
755.05012	28602.7875
758.94733	29347.4875
762.8418	30902.5875
766.73354	33407.2875
770.62254	36232.6875
774.50882	37629.0875
778.39237	36365.8875
782.27321	33341.9875
786.15132	30721.8875
790.02671	29183.5875
793.89938	28433.9875
797.76935	28139.8875
801.6366	28082.1875
805.50115	27996.4875
809.36299	27900.0875
813.22213	27734.5875
817.07857	27695.8875
820.93231	27641.6875
824.78336	27641.4875
828.63172	27741.8875
832.47738	27792.9875
836.32036	27871.4875
840.16066	27920.9875
843.99827	27980.1875
847.8332	27961.4875
851.66546	27846.5875
855.49504	27805.6875
859.32195	27795.7875
863.1462	27720.9875
866.96777	27638.6875
870.78668	27637.5875
874.60293	27612.3875
878.41652	27717.8875
882.22745	27787.2875
886.03573	27901.9875
889.84136	27874.9875
893.64433	27775.5875
897.44466	27661.8875
901.24235	27589.4875
905.0374	27511.4875
908.8298	27510.9875
912.61957	27493.1875
916.40671	27641.6875
920.19121	27862.3875
923.97308	28172.1875
927.75233	28424.9875
931.52895	28490.4875
935.30295	28305.1875
939.07433	27882.5875
942.84309	27501.7875
946.60924	27302.4875
950.37278	27177.6875
954.13371	27004.9875
957.89203	26832.5875
961.64774	26749.5875
965.40086	26674.8875
969.15137	26567.5875
972.89929	26508.8875
976.64461	26486.1875
980.38733	26555.8875
984.12747	26688.4875
987.86502	26890.8875
991.59999	27196.7875
995.33237	27697.9875
999.06217	28466.0875
1002.78939	29402.8875
1006.51404	30052.9875
1010.23611	30438.6875
1013.95561	30790.6875
1017.67255	30848.5875
1021.38692	30713.0875
1025.09872	30562.1875
1028.80796	30867.9875
1032.51465	31676.5875
1036.21877	32341.3875
1039.92035	32408.3875
1043.61937	31915.3875
1047.31584	31003.3875
1051.00976	30102.9875
1054.70114	29556.4875
1058.38998	29398.7875
1062.07627	29427.2875
1065.76003	29597.9875
1069.44126	29712.3875
1073.11995	29946.1875
1076.79611	30223.8875
1080.46974	30419.0875
1084.14085	30577.9875
1087.80943	30877.4875
1091.47549	30958.3875
1095.13903	30661.6875
1098.80005	30114.9875
1102.45857	29616.1875
1106.11456	29366.3875
1109.76805	29424.4875
1113.41903	29717.6875
1117.06751	30110.4875
1120.71348	30593.3875
1124.35696	31036.6875
1127.99793	31520.1875
1131.63641	31746.9875
1135.2724	31330.2875
1138.90589	30805.5875
1142.5369	30357.2875
1146.16542	29997.0875
1149.79145	29809.4875
1153.415	29819.9875
1157.03607	30034.8875
1160.65467	30409.8875
1164.27079	31224.4875
1167.88443	32305.1875
1171.49561	33931.1875
1175.10432	36379.5875
1178.71056	39663.5875
1182.31434	42705.5875
1185.91565	44439.0875
1189.51451	44435.9875
1193.11091	42904.1875
1196.70485	40608.2875
1200.29634	38590.5875
1203.88538	37098.8875
1207.47197	35710.5875
1211.05612	34634.6875
1214.63782	34067.1875
1218.21708	33930.4875
1221.79391	34055.7875
1225.36829	34339.7875
1228.94024	34380.9875
1232.50976	34374.8875
1236.07685	34250.0875
1239.6415	34170.3875
1243.20374	34098.4875
1246.76355	34164.5875
1250.32093	34483.1875
1253.8759	35122.1875
1257.42845	36064.6875
1260.97859	36927.2875
1264.52631	37617.0875
1268.07163	38443.2875
1271.61453	39339.4875
1275.15503	40372.7875
1278.69312	41354.3875
1282.22882	42086.1875
1285.76211	42747.1875
1289.29301	43376.3875
1292.82151	44182.6875
1296.34761	45082.9875
1299.87133	46612.4875
1303.39266	49045.6875
1306.9116	52356.7875
1310.42815	56032.7875
1313.94233	58415.6875
1317.45412	58350.9875
1320.96354	56572.9875
1324.47058	54360.6875
1327.97525	52293.8875
1331.47754	50871.1875
1334.97747	50290.4875
1338.47502	50662.4875
1341.97022	51332.1875
1345.46305	51799.1875
1348.95352	52170.3875
1352.44163	52883.1875
1355.92738	54725.3875
1359.41078	58342.1875
1362.89183	61995.0875
1366.37053	61156.0875
1369.84688	55209.7875
1373.32088	48679.8875
1376.79254	44289.4875
1380.26186	42189.6875
1383.72883	41195.7875
1387.19347	40376.0875
1390.65578	39565.9875
1394.11575	39142.9875
1397.57339	39188.3875
1401.0287	39612.4875
1404.48168	40294.6875
1407.93234	40963.6875
1411.38068	41564.1875
1414.82669	41631.0875
1418.27039	41029.2875
1421.71177	40124.5875
1425.15083	39366.7875
1428.58758	38880.0875
1432.02203	38746.1875
1435.45416	38943.4875
1438.88399	39147.5875
1442.31151	39370.9875
1445.73673	39574.2875
1449.15965	39820.2875
1452.58027	39920.9875
1455.9986	39805.2875
1459.41463	39905.7875
1462.82837	40194.3875
1466.23982	40877.4875
1469.64898	41651.0875
1473.05586	42133.7875
1476.46045	42431.4875
1479.86276	42679.8875
1483.26279	43012.5875
1486.66054	43472.2875
1490.05602	44167.4875
1493.44922	44952.1875
1496.84016	45901.3875
1500.22882	47285.4875
1503.61521	49289.0875
1506.99934	51826.0875
1510.38121	54297.0875
1513.76081	55294.5875
1517.13816	53662.9875
1520.51324	50252.8875
1523.88607	46748.5875
1527.25665	44278.5875
1530.62498	42809.9875
1533.99105	41943.1875
1537.35488	41419.4875
1540.71647	41096.9875
1544.07581	40890.9875
1547.4329	40794.2875
1550.78776	40755.7875
1554.14038	40761.2875
1557.49077	40893.3875
1560.83892	41109.3875
1564.18484	41232.7875
1567.52853	41271.0875
1570.86999	41361.6875
1574.20922	41587.1875
1577.54624	41724.3875
1580.88103	41249.4875
1584.2136	40718.6875
1587.54395	40820.4875
1590.87208	42014.5875
1594.19801	44104.7875
1597.52172	46481.8875
1600.84321	47624.8875
1604.16251	46473.9875
1607.47959	43975.9875
1610.79447	41114.6875
1614.10715	38419.2875
1617.41763	36202.7875
1620.7259	34706.8875
1624.03199	34017.1875
1627.33587	34095.9875
1630.63757	34931.7875
1633.93707	36481.3875
1637.23439	38566.5875
1640.52951	41123.8875
1643.82246	43699.0875
1647.11321	45781.2875
1650.40179	46391.9875
1653.68819	44539.5875
1656.97241	40411.3875
1660.25446	36064.9875
1663.53433	32906.8875
1666.81203	30982.6875
1670.08756	29730.3875
1673.36092	28899.1875
1676.63211	28382.2875
1679.90115	27993.0875
1683.16801	27694.7875
1686.43272	27467.7875
1689.69527	27326.3875
1692.95567	27174.2875
1696.2139	27143.8875
1699.46999	27079.5875
1702.72392	27028.5875
1705.97571	27010.4875
1709.22535	26946.3875
1712.47284	26957.8875
1715.71819	26940.7875
1718.96139	26919.0875
1722.20246	26861.0875
1725.44139	26748.3875
1728.67818	26665.9875
1731.91284	26560.3875
1735.14537	26439.3875
1738.37576	26375.2875
1741.60403	26290.9875
1744.83017	26228.0875
1748.05418	26203.7875
1751.27607	26125.8875
1754.49584	26124.7875
1757.71349	26130.6875
1760.92903	26137.1875
1764.14244	26111.0875
1767.35375	26103.8875
1770.56294	26096.8875
1773.77002	26033.9875
1776.97499	26041.4875
1780.17785	26002.0875
1783.37861	25991.5875
1786.57727	26010.5875
1789.77382	25954.8875
1792.96828	25960.9875
1796.16064	25895.9875
1799.3509	25876.0875
1802.53907	25867.4875
1805.72514	25810.3875
1808.90913	25768.4875
1812.09102	25762.1875
1815.27083	25732.8875
1818.44856	25678.3875
1821.6242	25629.4875
1824.79776	25663.2875
1827.96924	25667.1875
1831.13864	25596.7875
1834.30597	25636.9875
1837.47122	25623.3875
1840.6344	25626.6875
1843.7955	25660.5875
1846.95454	25689.5875
1850.11151	25646.6875
1853.26642	25674.9875
1856.41926	25708.0875
1859.57004	25728.8875
1862.71876	25736.6875
1865.86542	25719.5875
1869.01003	25725.2875
1872.15258	25740.1875
1875.29308	25756.0875
1878.43152	25752.4875
1881.56792	25773.5875
1884.70227	25791.5875
1887.83457	25818.4875
1890.96482	25843.7875
1894.09304	25808.7875
1897.21921	25791.0875
1900.34335	25846.3875
1903.46544	25835.7875
1906.58551	25794.3875
1909.70353	25836.2875
1912.81953	25817.8875
1915.93349	25782.9875
1919.04543	25737.9875
1922.15534	25741.6875
1925.26322	25674.9875
1928.36908	25632.4875
1931.47292	25533.8875
1934.57473	25465.1875
1937.67453	25366.9875
1940.77232	25241.0875
1943.86808	25184.2875
1946.96184	25129.4875
1950.05358	25024.6875
1953.14331	24924.9875
1956.23103	24876.5875
1959.31675	24808.1875
1962.40046	24699.7875
1965.48217	24661.7875
1968.56188	24591.7875
1971.63959	24495.7875
1974.7153	24455.9875
1977.78901	24410.9875
1980.86073	24339.8875
1983.93046	24234.2875
1986.99819	24168.5875
1990.06394	24116.6875
1993.1277	24056.5875
1996.18947	23946.5875
1999.24925	23947.4875
2002.30706	23851.0875
2005.36288	23818.6875
2008.41672	23769.5875
2011.46859	23710.0875
2014.51848	23647.9875
2017.56639	23610.4875
2020.61233	23543.6875
2023.6563	23512.0875
2026.6983	23442.9875
2029.73833	23435.3875
2032.7764	23385.8875
2035.8125	23370.1875
2038.84664	23354.1875
2041.87881	23263.1875
2044.90903	23274.5875
2047.93729	23259.2875
2050.96359	23187.8875
2053.98794	23152.9875
2057.01034	23171.6875
2060.03078	23130.5875
2063.04927	23141.4875
2066.06582	23148.4875
2069.08042	23113.7875
2072.09307	23092.7875
2075.10378	23064.4875
2078.11255	23028.2875
2081.11938	23050.2875
2084.12426	23003.2875
2087.12722	23015.3875
2090.12824	23016.4875
2093.12732	22996.0875
2096.12447	23061.6875
2099.11969	23054.3875
2102.11299	23085.8875
2105.10435	23087.3875
2108.09379	23120.1875
2111.08131	23105.4875
2114.0669	23119.9875
2117.05057	23111.5875
2120.03233	23133.9875
2123.01216	23173.5875
2125.99008	23204.8875
2128.96609	23201.1875
2131.94018	23258.9875
2134.91236	23251.7875
2137.88263	23307.4875
2140.851	23312.1875
2143.81746	23359.7875
2146.78201	23362.2875
2149.74466	23371.1875
2152.7054	23342.4875
2155.66425	23362.5875
2158.6212	23371.2875
2161.57625	23327.3875
2164.52941	23350.3875
2167.48067	23331.7875
2170.43004	23371.2875
2173.37752	23341.2875
2176.32311	23334.2875
2179.26681	23394.5875
2182.20863	23352.3875
2185.14856	23389.3875
2188.08661	23376.1875
2191.02278	23378.7875
2193.95707	23388.0875
2196.88948	23394.9875
2199.82001	23406.2875
2202.74867	23379.8875
2205.67545	23380.1875
2208.60037	23333.7875
2211.52341	23347.4875
2214.44458	23366.6875
2217.36388	23308.9875
2220.28132	23315.1875
2223.1969	23249.6875
2226.11061	23225.5875
2229.02246	23207.1875
2231.93245	23205.6875
2234.84058	23106.1875
2237.74686	23069.3875
2240.65128	23068.5875
2243.55385	23030.9875
2246.45456	23005.0875
2249.35343	22995.7875
2252.25044	22923.0875
2255.14561	22958.2875
2258.03893	22914.6875
2260.93041	22900.2875
2263.82004	22836.6875
2266.70783	22799.7875
2269.59378	22755.3875
2272.4779	22739.2875
2275.36017	22674.0875
2278.24061	22660.9875
2281.11922	22624.9875
2283.996	22547.7875
2286.87094	22551.6875
2289.74405	22519.3875
2292.61534	22506.1875
2295.4848	22503.8875
2298.35243	22491.3875
2301.21824	22470.0875
2304.08223	22526.3875
2306.94439	22552.4875
2309.80474	22530.0875
2312.66327	22537.2875
2315.51999	22530.8875
2318.37489	22571.9875
2321.22797	22512.9875
2324.07925	22514.5875
2326.92871	22482.3875
2329.77637	22457.4875
2332.62222	22451.4875
2335.46626	22447.9875
2338.3085	22464.5875
2341.14893	22475.1875
2343.98756	22503.8875
2346.8244	22509.4875
2349.65943	22514.9875
2352.49267	22479.0875
2355.32411	22476.4875
2358.15376	22419.9875
2360.98161	22419.5875
2363.80768	22419.2875
2366.63195	22383.9875
2369.45444	22355.0875
2372.27514	22322.1875
2375.09405	22282.2875
2377.91118	22259.0875
2380.72652	22183.5875
2383.54009	22134.0875
2386.35187	22102.6875
2389.16188	22048.6875
2391.97011	22025.8875
2394.77657	22023.7875
2397.58125	21991.8875
2400.38416	21965.0875
2403.18529	21908.7875
2405.98466	21887.3875
2408.78226	21841.1875
2411.57809	21794.9875
2414.37216	21784.1875
2417.16446	21751.9875
2419.955	21698.0875
2422.74378	21687.8875
2425.5308	21635.0875
2428.31606	21688.5875
2431.09956	21660.8875
2433.88131	21614.6875
2436.6613	21625.2875
2439.43954	21615.0875
2442.21603	21631.7875
2444.99077	21580.0875
2447.76377	21604.9875
2450.53501	21613.8875
2453.30451	21573.8875
2456.07226	21566.2875
2458.83827	21553.1875
2461.60254	21535.9875
2464.36507	21524.9875
2467.12586	21530.2875
2469.88492	21555.2875
2472.64224	21538.5875
2475.39782	21542.7875
2478.15167	21556.2875
2480.90379	21551.8875
2483.65417	21604.5875
2486.40283	21577.5875
2489.14976	21607.8875
2491.89497	21615.7875
2494.63845	21610.1875
2497.3802	21609.1875
2500.12024	21613.7875
2502.85855	21569.4875
2505.59514	21605.6875
2508.33002	21591.8875
2511.06318	21556.8875
2513.79462	21529.1875
2516.52435	21506.0875
2519.25237	21473.2875
2521.97867	21462.7875
2524.70327	21437.9875
2527.42616	21417.5875
2530.14734	21380.6875
2532.86681	21386.7875
2535.58458	21380.1875
2538.30065	21369.5875
2541.01501	21362.7875
2543.72768	21330.0875
2546.43864	21326.8875
2549.14791	21256.0875
2551.85548	21242.3875
2554.56136	21237.6875
2557.26554	21198.1875
2559.96803	21209.0875
2562.66883	21185.8875
2565.36794	21155.5875
2568.06536	21155.3875
2570.7611	21153.6875
2573.45514	21098.1875
2576.14751	21129.7875
2578.83819	21098.1875
2581.52719	21118.9875
2584.21451	21072.1875
2586.90015	21109.6875
2589.58411	21091.8875
2592.2664	21060.0875
2594.94701	21046.2875
2597.62594	21069.6875
2600.30321	20990.2875
2602.9788	20976.5875
2605.65273	20988.7875
2608.32498	20989.9875
2610.99557	20981.6875
2613.66449	20962.2875
2616.33175	20958.2875
2618.99734	20990.8875
2621.66128	20980.8875
2624.32355	20942.1875
2626.98416	20975.4875
2629.64311	20968.8875
2632.30041	20991.0875
2634.95605	20938.3875
2637.61004	20918.9875
2640.26238	20891.1875
2642.91306	20893.5875
2645.56209	20860.2875
2648.20948	20819.4875
2650.85521	20817.4875
2653.4993	20831.4875
2656.14175	20784.0875
2658.78255	20779.7875
2661.42171	20849.3875
2664.05923	20829.6875
2666.6951	20833.7875
2669.32934	20875.6875
2671.96194	20880.4875
2674.59291	20871.8875
2677.22224	20868.7875
2679.84993	20863.1875
2682.476	20856.5875
2685.10043	20879.5875
2687.72324	20847.6875
2690.34441	20870.2875
2692.96396	20854.1875
2695.58188	20887.9875
2698.19818	20843.4875
2700.81285	20853.2875
2703.4259	20849.2875
2706.03733	20896.1875
2708.64714	20872.0875
2711.25533	20889.5875
2713.86191	20877.3875
2716.46687	20916.3875
2719.07021	20877.1875
2721.67194	20891.6875
2724.27206	20825.9875
2726.87057	20918.1875
2729.46747	20933.7875
2732.06276	20907.0875
2734.65644	20887.4875
2737.24852	20889.0875
2739.83899	20875.5875
2742.42786	20928.2875
2745.01513	20859.8875
2747.60079	20850.5875
2750.18486	20891.9875
2752.76733	20883.8875
2755.3482	20852.0875
2757.92747	20836.0875
2760.50515	20811.6875
2763.08123	20831.3875
2765.65573	20805.8875
2768.22863	20814.9875
2770.79994	20777.2875
2773.36967	20769.7875
2775.9378	20749.0875
2778.50435	20724.9875
2781.06932	20706.2875
2783.6327	20703.5875
2786.1945	20692.0875
2788.75471	20682.8875
2791.31335	20646.1875
2793.87041	20596.1875
2796.42589	20568.3875
2798.97979	20541.6875
2801.53212	20481.6875
2804.08288	20472.8875
2806.63206	20418.0875
2809.17967	20429.4875
2811.72571	20372.0875
2814.27018	20385.8875
2816.81308	20379.0875
2819.35442	20367.4875
2821.89419	20348.7875
2824.43239	20308.9875
2826.96904	20321.8875
2829.50412	20345.6875
2832.03763	20267.4875
2834.56959	20290.7875
2837.1	20227.9875
2839.62884	20269.0875
2842.15613	20245.0875
2844.68186	20260.8875
2847.20604	20249.8875
2849.72867	20273.6875
2852.24974	20291.2875
2854.76927	20263.5875
2857.28724	20216.0875
2859.80367	20195.0875
2862.31855	20147.0875
2864.83189	20183.0875
2867.34368	20137.6875
2869.85393	20164.0875
2872.36264	20123.4875
2874.8698	20169.8875
2877.37543	20142.0875
2879.87952	20167.6875
2882.38207	20172.9875
2884.88308	20159.0875
2887.38256	20162.7875
2889.88051	20204.4875
2892.37692	20173.8875
2894.8718	20148.2875
2897.36515	20191.6875
2899.85698	20172.3875
2902.34727	20221.4875
2904.83604	20246.4875
2907.32328	20280.8875
2909.809	20220.7875
2912.29319	20284.3875
2914.77587	20265.1875
2917.25702	20280.4875
2919.73665	20237.8875
2922.21476	20247.4875
2924.69136	20255.2875
2927.16644	20219.7875
2929.64	20201.1875
2932.11205	20182.5875
2934.58258	20064.8875
2937.05161	20151.4875
2939.51912	20159.0875
2941.98513	20121.4875
2944.44962	20046.6875
2946.91261	20026.8875
2949.37409	20089.9875
2951.83407	20065.8875
2954.29254	20062.0875
2956.74951	20049.3875
2959.20498	19969.2875
2961.65895	19964.9875
2964.11142	19969.7875
2966.56239	19901.1875
2969.01186	19907.7875
2971.45984	19832.0875
2973.90632	19830.8875
2976.35131	19797.4875
2978.7948	19736.6875
2981.23681	19695.2875
2983.67732	19678.8875
2986.11635	19623.7875
2988.55388	19572.4875
2990.98993	19556.6875
2993.4245	19521.2875
2995.85758	19505.1875
2998.28917	19468.0875
3000.71928	19414.7875
3003.14791	19379.3875
3005.57506	19400.9875
3008.00073	19350.3875
3010.42493	19331.6875
3012.84764	19289.7875
3015.26888	19335.9875
3017.68865	19293.5875
3020.10694	19219.0875
3022.52376	19222.9875
3024.9391	19209.2875
3027.35298	19159.8875
3029.76539	19118.7875
3032.17632	19101.5875
3034.5858	19088.0875
3036.9938	19070.3875
3039.40034	19012.7875
3041.80542	19011.1875
3044.20903	19020.7875
3046.61118	18972.6875
3049.01187	18909.9875
3051.4111	18917.5875
3053.80888	18885.1875
3056.20519	18843.5875
3058.60005	18794.0875
3060.99345	18787.9875
3063.3854	18726.8875
3065.7759	18692.9875
3068.16494	18675.6875
3070.55254	18578.5875
3072.93868	18543.2875
3075.32338	18509.2875
3077.70662	18475.8875
3080.08842	18456.3875
3082.46878	18463.5875
3084.84769	18420.9875
3087.22515	18424.1875
3089.60118	18398.3875
3091.97576	18391.0875
3094.3489	18381.5875
3096.72061	18358.4875
3099.09087	18340.4875
3101.4597	18348.5875
3103.82709	18356.5875
3106.19305	18325.7875
3108.55757	18305.8875
3110.92066	18229.8875
3113.28232	18251.6875
3115.64255	18169.4875
3118.00134	18149.4875
3120.35871	18139.7875
3122.71466	18116.0875
3125.06917	18068.2875
3127.42226	18048.2875
3129.77393	18041.3875
3132.12417	18006.1875
3134.47299	18017.7875
3136.82039	18016.9875
3139.16636	18033.2875
3141.51092	18010.3875
3143.85406	18021.9875
3146.19579	18010.6875
3148.53609	18008.7875
3150.87499	18036.3875
3153.21246	18057.4875
3155.54853	18042.5875
3157.88318	18013.0875
3160.21642	18025.3875
3162.54826	18015.6875
3164.87868	18008.2875
3167.2077	17969.9875
3169.5353	18001.8875
3171.86151	17969.5875
3174.18631	17931.9875
3176.5097	17943.9875
3178.83169	17894.1875
3181.15228	17919.2875
3183.47147	17874.7875
3185.78926	17839.9875
3188.10565	17883.1875
3190.42065	17848.7875
3192.73424	17856.6875
3195.04645	17852.5875
3197.35725	17841.7875
3199.66667	17888.4875
3201.97469	17886.1875
3204.28132	17878.3875
3206.58656	17917.4875
3208.8904	17905.2875
3211.19287	17924.6875
3213.49394	17900.9875
3215.79363	17898.1875
3218.09193	17897.1875
3220.38884	17897.5875
3222.68438	17875.1875
3224.97853	17857.3875
3227.2713	17887.3875
3229.56269	17802.1875
3231.8527	17855.5875
3234.14133	17774.9875
3236.42858	17743.9875
3238.71446	17724.5875
3240.99896	17729.7875
3243.28209	17734.3875
3245.56384	17694.8875
3247.84423	17726.8875
3250.12324	17719.0875
3252.40088	17679.2875
3254.67715	17672.2875
3256.95205	17632.5875
3259.22558	17647.6875
3261.49775	17632.0875
3263.76855	17599.9875
3266.03799	17568.9875
3268.30606	17546.5875
3270.57277	17522.7875
3272.83812	17510.8875
3275.10211	17491.5875
3277.36474	17443.3875
3279.62601	17467.8875
3281.88593	17420.6875
3284.14448	17437.4875
3286.40168	17417.2875
3288.65753	17376.3875
3290.91202	17348.9875
3293.16516	17325.4875
3295.41695	17280.0875
3297.66738	17196.2875
3299.91647	17105.5875
3302.16421	17023.3875
3304.4106	16936.4875
3306.65564	16868.7875
3308.89933	16794.9875
3311.14169	16687.9875
3313.38269	16574.9875
3315.62236	16472.3875
3317.86068	16371.1875
3320.09766	16191.6875
3322.3333	16085.1875
3324.5676	16071.7875
3326.80056	15840.0875
3329.03219	15770.6875
3331.26248	3.7875
3333.49143	-0.5125
3335.71905	-1.1125
