Data from AgNPs_FTO_APTES_UA_10uM_R6G_10uM_NaF_0.1M_Addition_RamanShift__23__13-36-47-326.txt Node

Date: Fri Dec 17 13:36:47 GMT 2021
User: TCL
Spectrometer: QEP01345
Trigger mode: 4
Integration Time (sec): 7.000000E0
Scans to average: 10
Electric dark correction enabled: true
Nonlinearity correction enabled: false
Boxcar width: 0
XAxis mode: Raman Shifts
Number of Pixels in Spectrum: 1044
>>>>>Begin Spectral Data<<<<<
46.04893	-1.1125
50.45542	-0.5125
54.85868	-0.2125
59.25871	-1.7125
63.6555	82.9875
68.04907	85.5875
72.43941	90.0875
76.82654	97.4875
81.21044	95.2875
85.59113	102.7875
89.96862	102.9875
94.34289	108.6875
98.71396	110.6875
103.08183	114.6875
107.4465	117.3875
111.80798	119.2875
116.16626	124.0875
120.52136	129.2875
124.87327	131.3875
129.222	142.0875
133.56755	150.7875
137.90993	163.6875
142.24913	177.2875
146.58517	197.3875
150.91804	226.0875
155.24774	270.3875
159.57429	334.9875
163.89768	429.0875
168.21792	563.3875
172.53501	769.6875
176.84895	1075.4875
181.15975	1492.0875
185.46741	2084.9875
189.77193	2877.7875
194.07331	3857.3875
198.37157	4984.2875
202.6667	6139.2875
206.9587	7303.3875
211.24758	8467.8875
215.53334	9610.4875
219.81599	10840.8875
224.09553	12184.5875
228.37195	13743.6875
232.64527	15476.2875
236.91549	17251.7875
241.18261	19018.5875
245.44663	20642.9875
249.70755	22017.8875
253.96539	23172.4875
258.22014	24220.1875
262.4718	25133.2875
266.72039	25768.9875
270.96589	26100.5875
275.20832	26152.9875
279.44768	25957.8875
283.68397	25601.8875
287.91719	25302.3875
292.14735	25200.3875
296.37445	25275.8875
300.59849	25553.4875
304.81948	25899.6875
309.03742	26025.9875
313.25231	25815.4875
317.46415	25104.0875
321.67296	24123.8875
325.87872	23308.7875
330.08145	22943.2875
334.28114	22972.5875
338.47781	23251.8875
342.67145	23656.3875
346.86207	24195.2875
351.04966	24966.2875
355.23424	25801.4875
359.4158	26556.6875
363.59435	27066.0875
367.76989	27402.6875
371.94243	27564.8875
376.11196	27705.2875
380.27849	27817.2875
384.44203	27907.2875
388.60257	27939.5875
392.76012	27997.2875
396.91468	28289.6875
401.06626	28794.1875
405.21485	29147.8875
409.36047	28974.1875
413.50311	28206.4875
417.64277	27551.8875
421.77947	27239.1875
425.9132	27217.8875
430.04396	27285.4875
434.17176	27436.0875
438.2966	27714.1875
442.41849	28117.7875
446.53742	28799.2875
450.6534	29525.1875
454.76644	30091.0875
458.87653	30401.2875
462.98368	30277.5875
467.08789	29949.6875
471.18916	29372.2875
475.2875	28854.3875
479.38291	28399.9875
483.4754	28079.6875
487.56496	27758.0875
491.6516	27511.2875
495.73531	27355.4875
499.81612	27323.7875
503.89401	27522.2875
507.96899	27653.7875
512.04106	27882.4875
516.11023	28032.9875
520.1765	28167.9875
524.23987	28123.5875
528.30034	27869.4875
532.35792	27571.2875
536.41261	27224.2875
540.46441	26863.0875
544.51333	26694.3875
548.55936	26864.0875
552.60252	27269.1875
556.64279	27707.2875
560.6802	27898.2875
564.71473	27993.7875
568.7464	28333.9875
572.7752	28823.8875
576.80114	28798.3875
580.82422	28820.1875
584.84444	28936.9875
588.86181	29121.5875
592.87633	29395.6875
596.888	29703.9875
600.89682	30223.8875
604.9028	32149.1875
608.90594	36768.8875
612.90624	42188.7875
616.90371	40468.5875
620.89834	32617.1875
624.89015	28966.5875
628.87913	28310.6875
632.86528	28327.2875
636.84862	28360.1875
640.82913	27998.3875
644.80683	27289.5875
648.78172	26680.4875
652.75379	26572.2875
656.72306	27082.9875
660.68952	27676.1875
664.65319	27573.5875
668.61405	26950.4875
672.57211	26672.7875
676.52738	26715.6875
680.47986	26754.0875
684.42955	26610.3875
688.37646	26597.9875
692.32058	26651.8875
696.26192	26805.0875
700.20048	27082.0875
704.13626	27218.6875
708.06928	27077.9875
711.99952	26847.6875
715.927	26717.9875
719.85171	26759.5875
723.77365	26727.0875
727.69284	26571.5875
731.60928	26393.0875
735.52295	26333.2875
739.43388	26427.9875
743.34206	26563.3875
747.24749	26700.1875
751.15017	26825.2875
755.05012	27172.1875
758.94733	27961.7875
762.8418	29476.8875
766.73354	32092.1875
770.62254	35032.9875
774.50882	36470.8875
778.39237	35126.5875
782.27321	32013.7875
786.15132	29315.2875
790.02671	27743.0875
793.89938	26952.3875
797.76935	26638.9875
801.6366	26566.2875
805.50115	26485.9875
809.36299	26335.3875
813.22213	26172.1875
817.07857	26085.6875
820.93231	26044.5875
824.78336	26022.1875
828.63172	26107.4875
832.47738	26162.4875
836.32036	26208.6875
840.16066	26265.6875
843.99827	26345.1875
847.8332	26303.5875
851.66546	26227.6875
855.49504	26082.9875
859.32195	26074.9875
863.1462	26018.9875
866.96777	25958.4875
870.78668	25902.4875
874.60293	25930.8875
878.41652	25943.7875
882.22745	25998.2875
886.03573	26135.3875
889.84136	26116.8875
893.64433	26001.6875
897.44466	25869.2875
901.24235	25757.4875
905.0374	25726.3875
908.8298	25634.3875
912.61957	25640.9875
916.40671	25814.9875
920.19121	26074.0875
923.97308	26387.1875
927.75233	26611.4875
931.52895	26703.5875
935.30295	26495.6875
939.07433	26031.6875
942.84309	25660.5875
946.60924	25455.4875
950.37278	25286.9875
954.13371	25086.7875
957.89203	24955.4875
961.64774	24866.9875
965.40086	24756.2875
969.15137	24642.2875
972.89929	24604.4875
976.64461	24588.8875
980.38733	24609.2875
984.12747	24738.1875
987.86502	24961.9875
991.59999	25318.2875
995.33237	25798.5875
999.06217	26671.5875
1002.78939	27625.8875
1006.51404	28223.9875
1010.23611	28585.1875
1013.95561	28860.3875
1017.67255	28878.9875
1021.38692	28620.4875
1025.09872	28439.0875
1028.80796	28773.3875
1032.51465	29728.9875
1036.21877	30482.5875
1039.92035	30612.4875
1043.61937	30107.9875
1047.31584	29190.6875
1051.00976	28188.2875
1054.70114	27613.8875
1058.38998	27388.7875
1062.07627	27409.2875
1065.76003	27511.0875
1069.44126	27671.7875
1073.11995	27966.7875
1076.79611	28265.5875
1080.46974	28453.0875
1084.14085	28671.7875
1087.80943	28923.7875
1091.47549	28985.0875
1095.13903	28755.2875
1098.80005	28246.0875
1102.45857	27678.6875
1106.11456	27449.8875
1109.76805	27457.2875
1113.41903	27770.5875
1117.06751	28114.9875
1120.71348	28584.8875
1124.35696	29050.4875
1127.99793	29541.4875
1131.63641	29760.3875
1135.2724	29387.9875
1138.90589	28813.7875
1142.5369	28377.9875
1146.16542	28030.1875
1149.79145	27836.5875
1153.415	27869.5875
1157.03607	28028.0875
1160.65467	28437.7875
1164.27079	29283.3875
1167.88443	30497.6875
1171.49561	32250.5875
1175.10432	34766.6875
1178.71056	38142.5875
1182.31434	41447.7875
1185.91565	43121.5875
1189.51451	43125.2875
1193.11091	41494.9875
1196.70485	39074.1875
1200.29634	36976.0875
1203.88538	35423.0875
1207.47197	34045.2875
1211.05612	32919.9875
1214.63782	32273.8875
1218.21708	32092.6875
1221.79391	32307.3875
1225.36829	32439.1875
1228.94024	32456.1875
1232.50976	32313.6875
1236.07685	32144.7875
1239.6415	32034.1875
1243.20374	31957.1875
1246.76355	32038.0875
1250.32093	32403.7875
1253.8759	33093.1875
1257.42845	33992.8875
1260.97859	34888.0875
1264.52631	35682.0875
1268.07163	36568.7875
1271.61453	37587.2875
1275.15503	38713.4875
1278.69312	39726.3875
1282.22882	40486.9875
1285.76211	41068.9875
1289.29301	41652.3875
1292.82151	42488.7875
1296.34761	43501.9875
1299.87133	45177.5875
1303.39266	47682.2875
1306.9116	51111.7875
1310.42815	54817.6875
1313.94233	57177.8875
1317.45412	57059.2875
1320.96354	55180.5875
1324.47058	53028.6875
1327.97525	50869.6875
1331.47754	49312.8875
1334.97747	48666.7875
1338.47502	48940.5875
1341.97022	49477.9875
1345.46305	49869.2875
1348.95352	50238.2875
1352.44163	51045.7875
1355.92738	53042.5875
1359.41078	56768.1875
1362.89183	60604.1875
1366.37053	59741.8875
1369.84688	53639.3875
1373.32088	46843.5875
1376.79254	42273.3875
1380.26186	40076.4875
1383.72883	39067.1875
1387.19347	38343.0875
1390.65578	37587.4875
1394.11575	37105.0875
1397.57339	37132.3875
1401.0287	37597.2875
1404.48168	38160.7875
1407.93234	38830.8875
1411.38068	39253.5875
1414.82669	39181.1875
1418.27039	38606.1875
1421.71177	37702.9875
1425.15083	36868.6875
1428.58758	36302.7875
1432.02203	36224.6875
1435.45416	36444.0875
1438.88399	36804.9875
1442.31151	37102.6875
1445.73673	37394.2875
1449.15965	37681.0875
1452.58027	37811.0875
1455.9986	37760.0875
1459.41463	37838.7875
1462.82837	38299.4875
1466.23982	39000.3875
1469.64898	39758.9875
1473.05586	40264.6875
1476.46045	40545.4875
1479.86276	40652.8875
1483.26279	40888.1875
1486.66054	41213.9875
1490.05602	41787.0875
1493.44922	42570.2875
1496.84016	43483.5875
1500.22882	44872.3875
1503.61521	46886.5875
1506.99934	49582.1875
1510.38121	52209.7875
1513.76081	53178.0875
1517.13816	51581.7875
1520.51324	48065.8875
1523.88607	44578.3875
1527.25665	42047.1875
1530.62498	40613.8875
1533.99105	39710.7875
1537.35488	39154.9875
1540.71647	38798.0875
1544.07581	38528.9875
1547.4329	38361.9875
1550.78776	38270.6875
1554.14038	38254.4875
1557.49077	38384.0875
1560.83892	38604.4875
1564.18484	38737.1875
1567.52853	38850.5875
1570.86999	38973.5875
1574.20922	39252.3875
1577.54624	39418.1875
1580.88103	39005.9875
1584.2136	38490.5875
1587.54395	38554.5875
1590.87208	39673.4875
1594.19801	41811.4875
1597.52172	44195.6875
1600.84321	45227.4875
1604.16251	43978.3875
1607.47959	41333.3875
1610.79447	38469.9875
1614.10715	35738.8875
1617.41763	33453.9875
1620.7259	31965.5875
1624.03199	31254.0875
1627.33587	31351.0875
1630.63757	32082.2875
1633.93707	33651.4875
1637.23439	35843.5875
1640.52951	38501.3875
1643.82246	41407.4875
1647.11321	43739.5875
1650.40179	44503.8875
1653.68819	42556.3875
1656.97241	38241.8875
1660.25446	33614.2875
1663.53433	30318.2875
1666.81203	28248.7875
1670.08756	26957.1875
1673.36092	26070.5875
1676.63211	25560.0875
1679.90115	25140.5875
1683.16801	24856.2875
1686.43272	24618.6875
1689.69527	24454.2875
1692.95567	24321.7875
1696.2139	24247.1875
1699.46999	24164.0875
1702.72392	24145.1875
1705.97571	24101.7875
1709.22535	24047.4875
1712.47284	23997.6875
1715.71819	24004.1875
1718.96139	23960.9875
1722.20246	23885.5875
1725.44139	23785.0875
1728.67818	23684.7875
1731.91284	23593.1875
1735.14537	23478.2875
1738.37576	23397.2875
1741.60403	23317.5875
1744.83017	23230.6875
1748.05418	23204.8875
1751.27607	23190.7875
1754.49584	23149.3875
1757.71349	23143.6875
1760.92903	23125.0875
1764.14244	23120.4875
1767.35375	23116.7875
1770.56294	23081.7875
1773.77002	23042.2875
1776.97499	23056.2875
1780.17785	22973.0875
1783.37861	22938.0875
1786.57727	22947.7875
1789.77382	22918.5875
1792.96828	22898.2875
1796.16064	22840.2875
1799.3509	22859.8875
1802.53907	22814.2875
1805.72514	22752.3875
1808.90913	22721.2875
1812.09102	22693.5875
1815.27083	22651.1875
1818.44856	22624.7875
1821.6242	22577.6875
1824.79776	22619.2875
1827.96924	22588.4875
1831.13864	22540.0875
1834.30597	22590.6875
1837.47122	22593.0875
1840.6344	22602.3875
1843.7955	22614.7875
1846.95454	22608.2875
1850.11151	22624.9875
1853.26642	22599.1875
1856.41926	22637.7875
1859.57004	22668.6875
1862.71876	22662.8875
1865.86542	22628.6875
1869.01003	22662.9875
1872.15258	22634.1875
1875.29308	22645.9875
1878.43152	22696.2875
1881.56792	22671.2875
1884.70227	22713.7875
1887.83457	22718.3875
1890.96482	22748.4875
1894.09304	22744.5875
1897.21921	22726.9875
1900.34335	22744.0875
1903.46544	22752.3875
1906.58551	22704.1875
1909.70353	22755.1875
1912.81953	22696.1875
1915.93349	22662.1875
1919.04543	22639.4875
1922.15534	22591.5875
1925.26322	22543.2875
1928.36908	22497.5875
1931.47292	22440.0875
1934.57473	22324.7875
1937.67453	22271.2875
1940.77232	22165.8875
1943.86808	22085.9875
1946.96184	21990.0875
1950.05358	21921.8875
1953.14331	21858.7875
1956.23103	21773.8875
1959.31675	21716.4875
1962.40046	21651.9875
1965.48217	21606.8875
1968.56188	21551.4875
1971.63959	21489.7875
1974.7153	21407.4875
1977.78901	21334.0875
1980.86073	21272.3875
1983.93046	21223.0875
1986.99819	21161.3875
1990.06394	21073.5875
1993.1277	21057.8875
1996.18947	20945.1875
1999.24925	20921.6875
2002.30706	20877.9875
2005.36288	20810.8875
2008.41672	20777.5875
2011.46859	20746.3875
2014.51848	20666.0875
2017.56639	20593.7875
2020.61233	20553.6875
2023.6563	20539.8875
2026.6983	20519.3875
2029.73833	20465.2875
2032.7764	20468.2875
2035.8125	20378.1875
2038.84664	20370.7875
2041.87881	20377.0875
2044.90903	20343.7875
2047.93729	20299.1875
2050.96359	20284.9875
2053.98794	20231.9875
2057.01034	20227.8875
2060.03078	20210.1875
2063.04927	20181.9875
2066.06582	20225.3875
2069.08042	20208.1875
2072.09307	20170.6875
2075.10378	20128.6875
2078.11255	20123.6875
2081.11938	20098.4875
2084.12426	20083.2875
2087.12722	20080.6875
2090.12824	20084.6875
2093.12732	20068.1875
2096.12447	20084.9875
2099.11969	20095.4875
2102.11299	20093.2875
2105.10435	20103.1875
2108.09379	20118.3875
2111.08131	20122.4875
2114.0669	20136.3875
2117.05057	20175.2875
2120.03233	20170.8875
2123.01216	20193.2875
2125.99008	20262.3875
2128.96609	20231.5875
2131.94018	20238.3875
2134.91236	20233.2875
2137.88263	20334.9875
2140.851	20287.6875
2143.81746	20309.2875
2146.78201	20343.9875
2149.74466	20334.7875
2152.7054	20326.1875
2155.66425	20349.0875
2158.6212	20349.3875
2161.57625	20324.9875
2164.52941	20334.9875
2167.48067	20324.1875
2170.43004	20323.7875
2173.37752	20308.4875
2176.32311	20324.2875
2179.26681	20341.6875
2182.20863	20329.4875
2185.14856	20340.6875
2188.08661	20337.8875
2191.02278	20350.3875
2193.95707	20339.9875
2196.88948	20341.5875
2199.82001	20341.1875
2202.74867	20333.5875
2205.67545	20363.9875
2208.60037	20365.3875
2211.52341	20322.1875
2214.44458	20354.6875
2217.36388	20293.5875
2220.28132	20278.2875
2223.1969	20229.5875
2226.11061	20245.7875
2229.02246	20187.9875
2231.93245	20139.8875
2234.84058	20091.0875
2237.74686	20078.7875
2240.65128	20058.7875
2243.55385	20036.4875
2246.45456	20004.7875
2249.35343	19974.3875
2252.25044	19932.5875
2255.14561	19918.7875
2258.03893	19933.3875
2260.93041	19885.6875
2263.82004	19836.7875
2266.70783	19813.8875
2269.59378	19776.0875
2272.4779	19727.6875
2275.36017	19695.4875
2278.24061	19663.3875
2281.11922	19656.5875
2283.996	19595.6875
2286.87094	19587.7875
2289.74405	19563.8875
2292.61534	19527.3875
2295.4848	19518.4875
2298.35243	19575.5875
2301.21824	19563.9875
2304.08223	19576.8875
2306.94439	19585.4875
2309.80474	19595.8875
2312.66327	19593.2875
2315.51999	19602.9875
2318.37489	19631.7875
2321.22797	19591.0875
2324.07925	19621.6875
2326.92871	19573.7875
2329.77637	19556.6875
2332.62222	19516.5875
2335.46626	19512.0875
2338.3085	19529.4875
2341.14893	19552.1875
2343.98756	19591.4875
2346.8244	19544.7875
2349.65943	19599.2875
2352.49267	19568.9875
2355.32411	19563.8875
2358.15376	19570.2875
2360.98161	19538.8875
2363.80768	19496.4875
2366.63195	19498.9875
2369.45444	19427.3875
2372.27514	19415.7875
2375.09405	19372.0875
2377.91118	19310.9875
2380.72652	19286.2875
2383.54009	19231.9875
2386.35187	19197.3875
2389.16188	19181.6875
2391.97011	19148.4875
2394.77657	19139.7875
2397.58125	19112.1875
2400.38416	19055.9875
2403.18529	19049.3875
2405.98466	18984.6875
2408.78226	18962.5875
2411.57809	18919.2875
2414.37216	18919.1875
2417.16446	18898.9875
2419.955	18829.2875
2422.74378	18845.0875
2425.5308	18832.1875
2428.31606	18826.7875
2431.09956	18802.4875
2433.88131	18760.8875
2436.6613	18783.2875
2439.43954	18784.6875
2442.21603	18775.1875
2444.99077	18778.5875
2447.76377	18751.1875
2450.53501	18764.9875
2453.30451	18742.4875
2456.07226	18720.7875
2458.83827	18727.9875
2461.60254	18713.7875
2464.36507	18705.3875
2467.12586	18725.2875
2469.88492	18727.1875
2472.64224	18733.1875
2475.39782	18713.9875
2478.15167	18769.5875
2480.90379	18745.4875
2483.65417	18720.2875
2486.40283	18766.3875
2489.14976	18806.1875
2491.89497	18783.8875
2494.63845	18823.1875
2497.3802	18814.3875
2500.12024	18770.1875
2502.85855	18798.3875
2505.59514	18761.3875
2508.33002	18751.4875
2511.06318	18716.1875
2513.79462	18679.0875
2516.52435	18670.9875
2519.25237	18663.4875
2521.97867	18616.7875
2524.70327	18644.1875
2527.42616	18597.8875
2530.14734	18607.1875
2532.86681	18585.2875
2535.58458	18588.9875
2538.30065	18569.0875
2541.01501	18585.7875
2543.72768	18523.0875
2546.43864	18522.3875
2549.14791	18494.1875
2551.85548	18501.1875
2554.56136	18455.4875
2557.26554	18455.6875
2559.96803	18457.5875
2562.66883	18404.3875
2565.36794	18425.8875
2568.06536	18433.7875
2570.7611	18389.7875
2573.45514	18382.2875
2576.14751	18366.1875
2578.83819	18357.2875
2581.52719	18358.2875
2584.21451	18351.7875
2586.90015	18329.0875
2589.58411	18328.1875
2592.2664	18312.6875
2594.94701	18312.3875
2597.62594	18342.6875
2600.30321	18276.7875
2602.9788	18292.5875
2605.65273	18264.9875
2608.32498	18239.3875
2610.99557	18238.4875
2613.66449	18265.5875
2616.33175	18253.0875
2618.99734	18256.4875
2621.66128	18269.7875
2624.32355	18233.1875
2626.98416	18261.1875
2629.64311	18284.8875
2632.30041	18300.3875
2634.95605	18242.4875
2637.61004	18228.3875
2640.26238	18205.7875
2642.91306	18175.3875
2645.56209	18177.2875
2648.20948	18144.8875
2650.85521	18136.1875
2653.4993	18105.4875
2656.14175	18102.0875
2658.78255	18126.9875
2661.42171	18140.8875
2664.05923	18173.2875
2666.6951	18159.8875
2669.32934	18173.8875
2671.96194	18171.1875
2674.59291	18190.1875
2677.22224	18165.1875
2679.84993	18196.3875
2682.476	18183.3875
2685.10043	18185.3875
2687.72324	18146.7875
2690.34441	18146.0875
2692.96396	18121.9875
2695.58188	18124.6875
2698.19818	18111.3875
2700.81285	18105.7875
2703.4259	18112.7875
2706.03733	18134.7875
2708.64714	18134.3875
2711.25533	18149.0875
2713.86191	18164.5875
2716.46687	18159.9875
2719.07021	18131.4875
2721.67194	18157.0875
2724.27206	18109.5875
2726.87057	18181.5875
2729.46747	18178.2875
2732.06276	18177.9875
2734.65644	18143.4875
2737.24852	18150.5875
2739.83899	18138.9875
2742.42786	18178.6875
2745.01513	18128.0875
2747.60079	18123.6875
2750.18486	18131.8875
2752.76733	18152.1875
2755.3482	18107.5875
2757.92747	18104.4875
2760.50515	18107.4875
2763.08123	18108.3875
2765.65573	18045.2875
2768.22863	18061.6875
2770.79994	18054.9875
2773.36967	18058.9875
2775.9378	18053.4875
2778.50435	18036.0875
2781.06932	17991.5875
2783.6327	18028.8875
2786.1945	17965.9875
2788.75471	17976.6875
2791.31335	17919.9875
2793.87041	17901.0875
2796.42589	17857.6875
2798.97979	17864.8875
2801.53212	17830.9875
2804.08288	17780.0875
2806.63206	17756.5875
2809.17967	17776.4875
2811.72571	17724.8875
2814.27018	17727.3875
2816.81308	17708.8875
2819.35442	17693.5875
2821.89419	17677.6875
2824.43239	17667.1875
2826.96904	17664.0875
2829.50412	17724.2875
2832.03763	17635.4875
2834.56959	17614.6875
2837.1	17614.5875
2839.62884	17605.0875
2842.15613	17610.7875
2844.68186	17649.8875
2847.20604	17617.0875
2849.72867	17644.9875
2852.24974	17615.0875
2854.76927	17631.1875
2857.28724	17583.1875
2859.80367	17561.7875
2862.31855	17529.0875
2864.83189	17530.8875
2867.34368	17495.2875
2869.85393	17546.2875
2872.36264	17529.7875
2874.8698	17530.7875
2877.37543	17559.6875
2879.87952	17551.0875
2882.38207	17548.0875
2884.88308	17553.2875
2887.38256	17559.3875
2889.88051	17543.3875
2892.37692	17558.2875
2894.8718	17549.3875
2897.36515	17574.3875
2899.85698	17592.7875
2902.34727	17620.1875
2904.83604	17621.4875
2907.32328	17671.7875
2909.809	17637.4875
2912.29319	17660.3875
2914.77587	17670.0875
2917.25702	17656.9875
2919.73665	17625.6875
2922.21476	17625.4875
2924.69136	17607.9875
2927.16644	17597.9875
2929.64	17557.2875
2932.11205	17550.6875
2934.58258	17488.6875
2937.05161	17519.3875
2939.51912	17540.3875
2941.98513	17496.1875
2944.44962	17467.7875
2946.91261	17405.1875
2949.37409	17464.3875
2951.83407	17431.2875
2954.29254	17430.4875
2956.74951	17405.6875
2959.20498	17393.7875
2961.65895	17332.4875
2964.11142	17347.6875
2966.56239	17265.2875
2969.01186	17290.9875
2971.45984	17252.0875
2973.90632	17233.6875
2976.35131	17154.9875
2978.7948	17158.5875
2981.23681	17099.9875
2983.67732	17080.1875
2986.11635	17040.4875
2988.55388	16971.6875
2990.98993	16960.6875
2993.4245	16941.4875
2995.85758	16903.0875
2998.28917	16840.1875
3000.71928	16862.8875
3003.14791	16849.9875
3005.57506	16794.4875
3008.00073	16793.5875
3010.42493	16777.5875
3012.84764	16747.3875
3015.26888	16735.9875
3017.68865	16729.5875
3020.10694	16689.7875
3022.52376	16618.0875
3024.9391	16626.2875
3027.35298	16645.2875
3029.76539	16577.6875
3032.17632	16549.8875
3034.5858	16540.8875
3036.9938	16525.8875
3039.40034	16489.1875
3041.80542	16497.0875
3044.20903	16431.7875
3046.61118	16416.3875
3049.01187	16378.9875
3051.4111	16413.7875
3053.80888	16344.2875
3056.20519	16333.7875
3058.60005	16273.0875
3060.99345	16284.5875
3063.3854	16277.9875
3065.7759	16204.8875
3068.16494	16147.5875
3070.55254	16129.9875
3072.93868	16090.2875
3075.32338	16033.2875
3077.70662	16021.2875
3080.08842	15990.0875
3082.46878	16004.4875
3084.84769	15960.9875
3087.22515	15965.7875
3089.60118	15930.1875
3091.97576	15955.0875
3094.3489	15922.6875
3096.72061	15907.0875
3099.09087	15917.1875
3101.4597	15893.1875
3103.82709	15920.0875
3106.19305	15861.3875
3108.55757	15863.0875
3110.92066	15821.4875
3113.28232	15803.7875
3115.64255	15752.6875
3118.00134	15715.0875
3120.35871	15684.6875
3122.71466	15678.6875
3125.06917	15635.0875
3127.42226	15617.0875
3129.77393	15625.1875
3132.12417	15626.7875
3134.47299	15608.5875
3136.82039	15590.5875
3139.16636	15605.6875
3141.51092	15621.5875
3143.85406	15606.0875
3146.19579	15622.7875
3148.53609	15634.6875
3150.87499	15611.7875
3153.21246	15623.4875
3155.54853	15632.3875
3157.88318	15619.3875
3160.21642	15622.2875
3162.54826	15606.5875
3164.87868	15575.5875
3167.2077	15591.1875
3169.5353	15601.1875
3171.86151	15595.8875
3174.18631	15556.5875
3176.5097	15542.3875
3178.83169	15504.8875
3181.15228	15510.7875
3183.47147	15453.3875
3185.78926	15502.6875
3188.10565	15476.8875
3190.42065	15479.2875
3192.73424	15471.5875
3195.04645	15477.9875
3197.35725	15484.9875
3199.66667	15469.3875
3201.97469	15507.0875
3204.28132	15495.2875
3206.58656	15513.8875
3208.8904	15502.9875
3211.19287	15526.3875
3213.49394	15526.2875
3215.79363	15511.6875
3218.09193	15518.5875
3220.38884	15513.2875
3222.68438	15504.4875
3224.97853	15460.3875
3227.2713	15453.4875
3229.56269	15434.6875
3231.8527	15463.7875
3234.14133	15409.0875
3236.42858	15377.8875
3238.71446	15362.2875
3240.99896	15358.1875
3243.28209	15380.5875
3245.56384	15337.3875
3247.84423	15368.6875
3250.12324	15338.4875
3252.40088	15331.5875
3254.67715	15311.5875
3256.95205	15292.1875
3259.22558	15272.7875
3261.49775	15255.3875
3263.76855	15247.5875
3266.03799	15208.4875
3268.30606	15182.0875
3270.57277	15175.0875
3272.83812	15145.1875
3275.10211	15126.5875
3277.36474	15094.8875
3279.62601	15143.5875
3281.88593	15125.7875
3284.14448	15104.7875
3286.40168	15049.7875
3288.65753	15071.0875
3290.91202	15057.4875
3293.16516	14998.2875
3295.41695	14979.6875
3297.66738	14889.4875
3299.91647	14817.1875
3302.16421	14738.1875
3304.4106	14689.7875
3306.65564	14629.2875
3308.89933	14568.6875
3311.14169	14457.1875
3313.38269	14379.2875
3315.62236	14278.5875
3317.86068	14197.0875
3320.09766	14026.3875
3322.3333	13922.1875
3324.5676	13923.8875
3326.80056	13703.0875
3329.03219	13658.7875
3331.26248	3.5875
3333.49143	0.8875
3335.71905	0.3875
