Data from AgNPs_FTO_APTES_UA_10uM_R6G_10uM_NaF_0.1M_Addition_RamanShift__19__13-32-07-321.txt Node

Date: Fri Dec 17 13:32:07 GMT 2021
User: TCL
Spectrometer: QEP01345
Trigger mode: 4
Integration Time (sec): 7.000000E0
Scans to average: 10
Electric dark correction enabled: true
Nonlinearity correction enabled: false
Boxcar width: 0
XAxis mode: Raman Shifts
Number of Pixels in Spectrum: 1044
>>>>>Begin Spectral Data<<<<<
46.04893	-1.0125
50.45542	-1.1125
54.85868	-1.2125
59.25871	-0.4125
63.6555	81.3875
68.04907	83.5875
72.43941	86.7875
76.82654	92.8875
81.21044	93.3875
85.59113	96.9875
89.96862	101.2875
94.34289	103.2875
98.71396	106.9875
103.08183	108.8875
107.4465	116.6875
111.80798	117.2875
116.16626	124.1875
120.52136	122.1875
124.87327	132.6875
129.222	137.5875
133.56755	141.7875
137.90993	154.0875
142.24913	168.0875
146.58517	187.1875
150.91804	223.1875
155.24774	260.5875
159.57429	329.4875
163.89768	419.8875
168.21792	551.2875
172.53501	749.8875
176.84895	1040.1875
181.15975	1458.1875
185.46741	2046.1875
189.77193	2815.8875
194.07331	3767.3875
198.37157	4856.7875
202.6667	6010.1875
206.9587	7130.7875
211.24758	8251.1875
215.53334	9343.4875
219.81599	10536.6875
224.09553	11843.6875
228.37195	13334.9875
232.64527	14950.4875
236.91549	16686.4875
241.18261	18411.7875
245.44663	20043.4875
249.70755	21379.2875
253.96539	22573.2875
258.22014	23547.6875
262.4718	24404.3875
266.72039	25011.2875
270.96589	25291.3875
275.20832	25329.1875
279.44768	25070.3875
283.68397	24762.6875
287.91719	24453.9875
292.14735	24316.8875
296.37445	24322.2875
300.59849	24483.9875
304.81948	24645.0875
309.03742	24669.0875
313.25231	24466.0875
317.46415	23868.3875
321.67296	23151.6875
325.87872	22526.0875
330.08145	22228.7875
334.28114	22235.7875
338.47781	22399.9875
342.67145	22743.7875
346.86207	23187.5875
351.04966	23746.4875
355.23424	24350.5875
359.4158	24892.4875
363.59435	25267.6875
367.76989	25562.6875
371.94243	25772.1875
376.11196	25940.1875
380.27849	26019.5875
384.44203	26113.9875
388.60257	26212.7875
392.76012	26390.4875
396.91468	26590.7875
401.06626	27000.2875
405.21485	27299.0875
409.36047	27139.6875
413.50311	26552.1875
417.64277	26086.4875
421.77947	25846.4875
425.9132	25862.7875
430.04396	25925.3875
434.17176	26005.5875
438.2966	26192.1875
442.41849	26556.8875
446.53742	27077.4875
450.6534	27703.3875
454.76644	28207.4875
458.87653	28454.1875
462.98368	28363.8875
467.08789	28108.4875
471.18916	27710.1875
475.2875	27361.6875
479.38291	27068.6875
483.4754	26713.9875
487.56496	26469.4875
491.6516	26234.6875
495.73531	26109.7875
499.81612	26095.2875
503.89401	26261.6875
507.96899	26484.5875
512.04106	26594.6875
516.11023	26654.6875
520.1765	26673.0875
524.23987	26572.6875
528.30034	26364.7875
532.35792	26106.0875
536.41261	25778.2875
540.46441	25497.3875
544.51333	25412.2875
548.55936	25530.5875
552.60252	25969.8875
556.64279	26385.1875
560.6802	26660.9875
564.71473	26690.7875
568.7464	26938.4875
572.7752	27318.8875
576.80114	27519.8875
580.82422	27765.9875
584.84444	28025.8875
588.86181	28248.6875
592.87633	28414.5875
596.888	28569.3875
600.89682	28885.2875
604.9028	30348.1875
608.90594	33949.5875
612.90624	37762.6875
616.90371	35975.1875
620.89834	29828.4875
624.89015	27026.1875
628.87913	26641.2875
632.86528	26660.4875
636.84862	26579.0875
640.82913	26251.6875
644.80683	25620.1875
648.78172	25094.0875
652.75379	24959.7875
656.72306	25282.2875
660.68952	25782.3875
664.65319	25633.4875
668.61405	25104.5875
672.57211	24948.1875
676.52738	25040.3875
680.47986	25060.9875
684.42955	24951.4875
688.37646	24896.1875
692.32058	24948.1875
696.26192	25171.5875
700.20048	25368.6875
704.13626	25485.5875
708.06928	25389.5875
711.99952	25223.9875
715.927	25121.2875
719.85171	25191.6875
723.77365	25102.1875
727.69284	24872.1875
731.60928	24645.9875
735.52295	24587.0875
739.43388	24684.1875
743.34206	24710.9875
747.24749	24787.2875
751.15017	24936.8875
755.05012	25224.5875
758.94733	25837.9875
762.8418	27165.0875
766.73354	29324.9875
770.62254	31625.3875
774.50882	32712.7875
778.39237	31503.0875
782.27321	29050.7875
786.15132	26977.7875
790.02671	25694.6875
793.89938	25141.6875
797.76935	24900.2875
801.6366	24824.1875
805.50115	24709.7875
809.36299	24575.7875
813.22213	24304.5875
817.07857	24161.6875
820.93231	24084.8875
824.78336	24073.1875
828.63172	23995.9875
832.47738	24056.0875
836.32036	24103.9875
840.16066	24182.0875
843.99827	24263.2875
847.8332	24200.1875
851.66546	24068.3875
855.49504	24006.5875
859.32195	24030.3875
863.1462	24014.8875
866.96777	23916.1875
870.78668	23909.7875
874.60293	23932.6875
878.41652	23903.8875
882.22745	24005.4875
886.03573	24159.6875
889.84136	24179.3875
893.64433	24087.5875
897.44466	23950.6875
901.24235	23839.4875
905.0374	23765.9875
908.8298	23718.3875
912.61957	23706.8875
916.40671	23849.7875
920.19121	24118.8875
923.97308	24387.2875
927.75233	24542.2875
931.52895	24606.0875
935.30295	24413.4875
939.07433	23951.3875
942.84309	23568.1875
946.60924	23370.3875
950.37278	23275.3875
954.13371	23129.7875
957.89203	23011.7875
961.64774	22932.0875
965.40086	22841.0875
969.15137	22779.3875
972.89929	22718.0875
976.64461	22733.9875
980.38733	22773.0875
984.12747	22861.5875
987.86502	23062.5875
991.59999	23316.2875
995.33237	23812.3875
999.06217	24505.9875
1002.78939	25301.4875
1006.51404	25741.2875
1010.23611	25956.8875
1013.95561	26112.7875
1017.67255	26121.9875
1021.38692	25864.8875
1025.09872	25699.4875
1028.80796	25867.0875
1032.51465	26699.4875
1036.21877	27439.7875
1039.92035	27520.7875
1043.61937	27088.9875
1047.31584	26390.0875
1051.00976	25652.0875
1054.70114	25299.8875
1058.38998	25252.4875
1062.07627	25369.4875
1065.76003	25465.6875
1069.44126	25680.0875
1073.11995	25974.8875
1076.79611	26372.5875
1080.46974	26613.8875
1084.14085	26769.8875
1087.80943	26936.8875
1091.47549	27028.9875
1095.13903	26838.2875
1098.80005	26433.1875
1102.45857	25908.6875
1106.11456	25591.5875
1109.76805	25544.0875
1113.41903	25626.7875
1117.06751	25832.0875
1120.71348	26115.3875
1124.35696	26408.0875
1127.99793	26795.1875
1131.63641	27076.5875
1135.2724	26826.1875
1138.90589	26497.5875
1142.5369	26231.3875
1146.16542	25981.4875
1149.79145	25873.2875
1153.415	25947.0875
1157.03607	26133.8875
1160.65467	26607.7875
1164.27079	27495.9875
1167.88443	28709.6875
1171.49561	30361.4875
1175.10432	32682.2875
1178.71056	35570.0875
1182.31434	38466.5875
1185.91565	40080.9875
1189.51451	40124.8875
1193.11091	38794.6875
1196.70485	36835.7875
1200.29634	34961.3875
1203.88538	33507.5875
1207.47197	32355.7875
1211.05612	31409.3875
1214.63782	30750.8875
1218.21708	30423.0875
1221.79391	30417.0875
1225.36829	30443.4875
1228.94024	30309.2875
1232.50976	29927.4875
1236.07685	29561.9875
1239.6415	29415.2875
1243.20374	29347.5875
1246.76355	29492.9875
1250.32093	29889.7875
1253.8759	30550.2875
1257.42845	31350.4875
1260.97859	32279.3875
1264.52631	33124.7875
1268.07163	34115.6875
1271.61453	35168.2875
1275.15503	36186.5875
1278.69312	37207.2875
1282.22882	37835.5875
1285.76211	38287.5875
1289.29301	38667.3875
1292.82151	39334.6875
1296.34761	40369.2875
1299.87133	42073.4875
1303.39266	44417.6875
1306.9116	47462.2875
1310.42815	50616.3875
1313.94233	52611.9875
1317.45412	52618.9875
1320.96354	51266.5875
1324.47058	49762.2875
1327.97525	48257.1875
1331.47754	47122.2875
1334.97747	46511.9875
1338.47502	46397.5875
1341.97022	46566.9875
1345.46305	46656.3875
1348.95352	46816.2875
1352.44163	47184.3875
1355.92738	48435.1875
1359.41078	51039.4875
1362.89183	53565.2875
1366.37053	52718.4875
1369.84688	47855.6875
1373.32088	42429.4875
1376.79254	38665.8875
1380.26186	36842.0875
1383.72883	36166.6875
1387.19347	35688.3875
1390.65578	35064.5875
1394.11575	34578.3875
1397.57339	34619.9875
1401.0287	34950.4875
1404.48168	35378.0875
1407.93234	35587.7875
1411.38068	35535.3875
1414.82669	35045.3875
1418.27039	34248.1875
1421.71177	33359.7875
1425.15083	32632.2875
1428.58758	32245.9875
1432.02203	32307.4875
1435.45416	32746.5875
1438.88399	33376.6875
1442.31151	33899.2875
1445.73673	34315.2875
1449.15965	34611.0875
1452.58027	34791.8875
1455.9986	34904.3875
1459.41463	35196.5875
1462.82837	35790.0875
1466.23982	36526.2875
1469.64898	37254.1875
1473.05586	37702.0875
1476.46045	37779.5875
1479.86276	37539.6875
1483.26279	37303.3875
1486.66054	37152.6875
1490.05602	37311.8875
1493.44922	37665.0875
1496.84016	38262.3875
1500.22882	39473.0875
1503.61521	41341.8875
1506.99934	43582.0875
1510.38121	45569.1875
1513.76081	46089.7875
1517.13816	44646.9875
1520.51324	41963.0875
1523.88607	39397.3875
1527.25665	37586.0875
1530.62498	36671.9875
1533.99105	36209.0875
1537.35488	35900.8875
1540.71647	35640.6875
1544.07581	35291.2875
1547.4329	35039.0875
1550.78776	34830.2875
1554.14038	34682.8875
1557.49077	34592.2875
1560.83892	34550.0875
1564.18484	34655.8875
1567.52853	34869.8875
1570.86999	35166.9875
1574.20922	35624.1875
1577.54624	35887.2875
1580.88103	35676.2875
1584.2136	35204.5875
1587.54395	35352.1875
1590.87208	36284.1875
1594.19801	38109.9875
1597.52172	40298.4875
1600.84321	41246.7875
1604.16251	40046.5875
1607.47959	37580.3875
1610.79447	34927.9875
1614.10715	32455.3875
1617.41763	30284.8875
1620.7259	28761.9875
1624.03199	27920.4875
1627.33587	27889.3875
1630.63757	28491.7875
1633.93707	29976.4875
1637.23439	32186.9875
1640.52951	35182.6875
1643.82246	38490.8875
1647.11321	40975.8875
1650.40179	41497.3875
1653.68819	39409.3875
1656.97241	35211.3875
1660.25446	30816.4875
1663.53433	27629.2875
1666.81203	25594.2875
1670.08756	24296.4875
1673.36092	23445.3875
1676.63211	22882.0875
1679.90115	22443.7875
1683.16801	22152.6875
1686.43272	21920.2875
1689.69527	21750.3875
1692.95567	21635.4875
1696.2139	21547.4875
1699.46999	21478.9875
1702.72392	21443.5875
1705.97571	21381.9875
1709.22535	21351.8875
1712.47284	21294.9875
1715.71819	21282.1875
1718.96139	21249.0875
1722.20246	21177.8875
1725.44139	21056.1875
1728.67818	20963.1875
1731.91284	20847.5875
1735.14537	20764.9875
1738.37576	20663.7875
1741.60403	20616.6875
1744.83017	20515.9875
1748.05418	20491.9875
1751.27607	20464.2875
1754.49584	20413.8875
1757.71349	20427.8875
1760.92903	20394.7875
1764.14244	20362.6875
1767.35375	20336.7875
1770.56294	20350.2875
1773.77002	20308.9875
1776.97499	20283.1875
1780.17785	20233.5875
1783.37861	20236.0875
1786.57727	20175.3875
1789.77382	20125.6875
1792.96828	20109.3875
1796.16064	20063.2875
1799.3509	20059.0875
1802.53907	20041.2875
1805.72514	19989.4875
1808.90913	19958.2875
1812.09102	19907.7875
1815.27083	19861.5875
1818.44856	19818.8875
1821.6242	19821.9875
1824.79776	19784.3875
1827.96924	19816.6875
1831.13864	19783.9875
1834.30597	19818.0875
1837.47122	19812.2875
1840.6344	19835.7875
1843.7955	19864.8875
1846.95454	19824.2875
1850.11151	19858.4875
1853.26642	19839.4875
1856.41926	19826.3875
1859.57004	19832.6875
1862.71876	19823.4875
1865.86542	19792.5875
1869.01003	19791.2875
1872.15258	19769.6875
1875.29308	19804.7875
1878.43152	19786.4875
1881.56792	19787.7875
1884.70227	19819.7875
1887.83457	19794.0875
1890.96482	19775.2875
1894.09304	19751.6875
1897.21921	19684.7875
1900.34335	19745.9875
1903.46544	19701.6875
1906.58551	19673.8875
1909.70353	19646.5875
1912.81953	19558.9875
1915.93349	19582.9875
1919.04543	19530.3875
1922.15534	19461.1875
1925.26322	19423.8875
1928.36908	19358.5875
1931.47292	19298.8875
1934.57473	19231.7875
1937.67453	19205.1875
1940.77232	19161.8875
1943.86808	19077.0875
1946.96184	19058.0875
1950.05358	18992.4875
1953.14331	18895.8875
1956.23103	18836.9875
1959.31675	18802.1875
1962.40046	18740.9875
1965.48217	18686.7875
1968.56188	18644.2875
1971.63959	18613.1875
1974.7153	18569.1875
1977.78901	18514.5875
1980.86073	18459.5875
1983.93046	18389.8875
1986.99819	18373.5875
1990.06394	18286.2875
1993.1277	18207.0875
1996.18947	18190.6875
1999.24925	18142.4875
2002.30706	18066.3875
2005.36288	18029.8875
2008.41672	18024.0875
2011.46859	17954.2875
2014.51848	17939.1875
2017.56639	17880.9875
2020.61233	17849.3875
2023.6563	17807.9875
2026.6983	17771.9875
2029.73833	17734.1875
2032.7764	17697.2875
2035.8125	17665.3875
2038.84664	17639.4875
2041.87881	17634.0875
2044.90903	17616.5875
2047.93729	17601.4875
2050.96359	17562.8875
2053.98794	17542.0875
2057.01034	17536.6875
2060.03078	17514.4875
2063.04927	17505.2875
2066.06582	17508.2875
2069.08042	17511.7875
2072.09307	17474.3875
2075.10378	17470.6875
2078.11255	17435.3875
2081.11938	17442.7875
2084.12426	17436.6875
2087.12722	17425.4875
2090.12824	17425.6875
2093.12732	17424.2875
2096.12447	17468.7875
2099.11969	17418.5875
2102.11299	17430.3875
2105.10435	17458.1875
2108.09379	17477.2875
2111.08131	17485.1875
2114.0669	17503.1875
2117.05057	17507.6875
2120.03233	17508.0875
2123.01216	17554.6875
2125.99008	17605.6875
2128.96609	17598.0875
2131.94018	17587.3875
2134.91236	17596.7875
2137.88263	17602.5875
2140.851	17623.6875
2143.81746	17656.7875
2146.78201	17670.3875
2149.74466	17666.5875
2152.7054	17677.1875
2155.66425	17665.0875
2158.6212	17666.5875
2161.57625	17675.2875
2164.52941	17687.8875
2167.48067	17647.6875
2170.43004	17653.5875
2173.37752	17629.5875
2176.32311	17666.1875
2179.26681	17672.4875
2182.20863	17644.8875
2185.14856	17641.1875
2188.08661	17663.6875
2191.02278	17654.7875
2193.95707	17651.9875
2196.88948	17670.4875
2199.82001	17653.4875
2202.74867	17632.3875
2205.67545	17654.4875
2208.60037	17637.7875
2211.52341	17597.0875
2214.44458	17597.5875
2217.36388	17603.0875
2220.28132	17607.7875
2223.1969	17532.7875
2226.11061	17541.5875
2229.02246	17508.1875
2231.93245	17436.1875
2234.84058	17381.1875
2237.74686	17359.9875
2240.65128	17364.7875
2243.55385	17342.8875
2246.45456	17318.8875
2249.35343	17319.0875
2252.25044	17252.7875
2255.14561	17235.4875
2258.03893	17243.5875
2260.93041	17230.1875
2263.82004	17168.1875
2266.70783	17160.4875
2269.59378	17116.5875
2272.4779	17089.1875
2275.36017	17035.9875
2278.24061	17061.8875
2281.11922	16998.2875
2283.996	16959.2875
2286.87094	16946.5875
2289.74405	16948.5875
2292.61534	16940.2875
2295.4848	16905.0875
2298.35243	16932.1875
2301.21824	16917.9875
2304.08223	16919.7875
2306.94439	16905.5875
2309.80474	16936.8875
2312.66327	16959.9875
2315.51999	16940.1875
2318.37489	16963.8875
2321.22797	16917.4875
2324.07925	16911.0875
2326.92871	16887.8875
2329.77637	16882.1875
2332.62222	16864.6875
2335.46626	16870.7875
2338.3085	16878.0875
2341.14893	16844.2875
2343.98756	16915.6875
2346.8244	16863.2875
2349.65943	16878.3875
2352.49267	16896.4875
2355.32411	16898.4875
2358.15376	16881.4875
2360.98161	16817.0875
2363.80768	16836.9875
2366.63195	16807.3875
2369.45444	16772.0875
2372.27514	16756.3875
2375.09405	16757.8875
2377.91118	16705.6875
2380.72652	16644.2875
2383.54009	16635.5875
2386.35187	16581.6875
2389.16188	16566.7875
2391.97011	16532.8875
2394.77657	16524.3875
2397.58125	16511.2875
2400.38416	16472.3875
2403.18529	16458.9875
2405.98466	16426.6875
2408.78226	16352.4875
2411.57809	16376.3875
2414.37216	16309.7875
2417.16446	16330.3875
2419.955	16312.5875
2422.74378	16280.1875
2425.5308	16293.4875
2428.31606	16252.7875
2431.09956	16237.2875
2433.88131	16237.7875
2436.6613	16239.7875
2439.43954	16257.5875
2442.21603	16242.3875
2444.99077	16222.3875
2447.76377	16234.5875
2450.53501	16202.8875
2453.30451	16218.6875
2456.07226	16209.9875
2458.83827	16220.6875
2461.60254	16221.9875
2464.36507	16214.5875
2467.12586	16203.7875
2469.88492	16214.0875
2472.64224	16209.6875
2475.39782	16195.7875
2478.15167	16215.1875
2480.90379	16187.6875
2483.65417	16186.6875
2486.40283	16234.4875
2489.14976	16216.1875
2491.89497	16229.3875
2494.63845	16252.6875
2497.3802	16204.0875
2500.12024	16231.4875
2502.85855	16212.9875
2505.59514	16174.6875
2508.33002	16211.9875
2511.06318	16182.4875
2513.79462	16157.2875
2516.52435	16140.8875
2519.25237	16125.7875
2521.97867	16079.0875
2524.70327	16132.3875
2527.42616	16049.5875
2530.14734	16064.8875
2532.86681	16072.2875
2535.58458	16049.1875
2538.30065	16028.8875
2541.01501	16056.3875
2543.72768	16009.2875
2546.43864	16001.5875
2549.14791	15967.5875
2551.85548	15982.4875
2554.56136	15906.0875
2557.26554	15923.6875
2559.96803	15958.6875
2562.66883	15906.7875
2565.36794	15895.2875
2568.06536	15888.1875
2570.7611	15893.5875
2573.45514	15849.0875
2576.14751	15819.8875
2578.83819	15830.5875
2581.52719	15828.4875
2584.21451	15847.1875
2586.90015	15815.2875
2589.58411	15802.1875
2592.2664	15827.3875
2594.94701	15762.2875
2597.62594	15769.2875
2600.30321	15763.8875
2602.9788	15710.7875
2605.65273	15721.1875
2608.32498	15739.4875
2610.99557	15675.2875
2613.66449	15687.5875
2616.33175	15694.2875
2618.99734	15700.7875
2621.66128	15682.5875
2624.32355	15681.3875
2626.98416	15693.3875
2629.64311	15685.8875
2632.30041	15710.2875
2634.95605	15677.4875
2637.61004	15660.5875
2640.26238	15620.6875
2642.91306	15621.9875
2645.56209	15613.2875
2648.20948	15587.4875
2650.85521	15559.9875
2653.4993	15587.4875
2656.14175	15571.7875
2658.78255	15572.2875
2661.42171	15593.4875
2664.05923	15597.2875
2666.6951	15596.5875
2669.32934	15616.4875
2671.96194	15601.1875
2674.59291	15615.5875
2677.22224	15606.0875
2679.84993	15583.2875
2682.476	15581.8875
2685.10043	15575.8875
2687.72324	15573.1875
2690.34441	15552.3875
2692.96396	15543.3875
2695.58188	15555.4875
2698.19818	15516.1875
2700.81285	15517.7875
2703.4259	15541.9875
2706.03733	15565.2875
2708.64714	15557.4875
2711.25533	15592.0875
2713.86191	15560.9875
2716.46687	15588.2875
2719.07021	15558.0875
2721.67194	15560.4875
2724.27206	15539.9875
2726.87057	15560.4875
2729.46747	15552.4875
2732.06276	15582.9875
2734.65644	15587.0875
2737.24852	15568.8875
2739.83899	15545.0875
2742.42786	15579.1875
2745.01513	15534.5875
2747.60079	15522.3875
2750.18486	15510.0875
2752.76733	15532.2875
2755.3482	15501.7875
2757.92747	15496.3875
2760.50515	15501.0875
2763.08123	15499.0875
2765.65573	15458.3875
2768.22863	15471.2875
2770.79994	15472.0875
2773.36967	15468.4875
2775.9378	15429.6875
2778.50435	15418.6875
2781.06932	15397.1875
2783.6327	15404.5875
2786.1945	15404.4875
2788.75471	15395.9875
2791.31335	15353.8875
2793.87041	15328.8875
2796.42589	15307.7875
2798.97979	15296.4875
2801.53212	15216.8875
2804.08288	15232.4875
2806.63206	15193.4875
2809.17967	15191.2875
2811.72571	15174.8875
2814.27018	15167.6875
2816.81308	15147.9875
2819.35442	15134.6875
2821.89419	15072.8875
2824.43239	15072.5875
2826.96904	15098.6875
2829.50412	15044.4875
2832.03763	15054.8875
2834.56959	15002.4875
2837.1	14998.9875
2839.62884	14990.8875
2842.15613	14995.7875
2844.68186	15026.4875
2847.20604	15042.6875
2849.72867	15041.0875
2852.24974	15042.0875
2854.76927	15009.5875
2857.28724	15021.5875
2859.80367	14987.0875
2862.31855	14974.5875
2864.83189	14958.2875
2867.34368	14939.5875
2869.85393	14946.9875
2872.36264	14966.1875
2874.8698	14966.3875
2877.37543	14961.6875
2879.87952	14994.8875
2882.38207	14984.4875
2884.88308	14980.9875
2887.38256	15003.3875
2889.88051	15032.9875
2892.37692	15006.7875
2894.8718	14992.5875
2897.36515	14995.4875
2899.85698	15014.1875
2902.34727	15056.8875
2904.83604	15071.8875
2907.32328	15107.9875
2909.809	15113.2875
2912.29319	15124.7875
2914.77587	15098.5875
2917.25702	15092.8875
2919.73665	15098.9875
2922.21476	15084.5875
2924.69136	15051.7875
2927.16644	15070.8875
2929.64	15034.0875
2932.11205	15011.4875
2934.58258	14957.8875
2937.05161	14979.8875
2939.51912	14968.8875
2941.98513	14948.6875
2944.44962	14906.3875
2946.91261	14885.1875
2949.37409	14920.2875
2951.83407	14895.2875
2954.29254	14892.1875
2956.74951	14840.1875
2959.20498	14820.9875
2961.65895	14809.1875
2964.11142	14813.5875
2966.56239	14743.0875
2969.01186	14754.3875
2971.45984	14723.1875
2973.90632	14716.0875
2976.35131	14661.4875
2978.7948	14630.8875
2981.23681	14612.7875
2983.67732	14595.7875
2986.11635	14523.8875
2988.55388	14522.5875
2990.98993	14492.9875
2993.4245	14477.3875
2995.85758	14458.1875
2998.28917	14435.0875
3000.71928	14392.1875
3003.14791	14377.6875
3005.57506	14377.6875
3008.00073	14349.9875
3010.42493	14348.5875
3012.84764	14292.6875
3015.26888	14298.4875
3017.68865	14282.8875
3020.10694	14276.9875
3022.52376	14254.7875
3024.9391	14245.3875
3027.35298	14200.2875
3029.76539	14194.6875
3032.17632	14170.0875
3034.5858	14126.9875
3036.9938	14130.1875
3039.40034	14100.3875
3041.80542	14107.3875
3044.20903	14080.3875
3046.61118	14061.7875
3049.01187	14028.3875
3051.4111	14041.9875
3053.80888	14005.3875
3056.20519	14005.5875
3058.60005	13966.3875
3060.99345	13963.6875
3063.3854	13926.8875
3065.7759	13926.4875
3068.16494	13895.2875
3070.55254	13850.3875
3072.93868	13799.5875
3075.32338	13784.9875
3077.70662	13790.7875
3080.08842	13788.8875
3082.46878	13777.0875
3084.84769	13726.4875
3087.22515	13713.3875
3089.60118	13702.3875
3091.97576	13708.9875
3094.3489	13705.7875
3096.72061	13713.4875
3099.09087	13707.0875
3101.4597	13720.7875
3103.82709	13684.3875
3106.19305	13686.6875
3108.55757	13684.7875
3110.92066	13600.5875
3113.28232	13629.3875
3115.64255	13581.7875
3118.00134	13569.6875
3120.35871	13562.7875
3122.71466	13532.1875
3125.06917	13491.5875
3127.42226	13479.0875
3129.77393	13527.1875
3132.12417	13467.4875
3134.47299	13491.0875
3136.82039	13481.3875
3139.16636	13467.3875
3141.51092	13475.1875
3143.85406	13509.8875
3146.19579	13493.6875
3148.53609	13515.3875
3150.87499	13516.1875
3153.21246	13515.3875
3155.54853	13529.9875
3157.88318	13504.2875
3160.21642	13516.2875
3162.54826	13511.7875
3164.87868	13477.0875
3167.2077	13481.7875
3169.5353	13500.7875
3171.86151	13507.3875
3174.18631	13505.3875
3176.5097	13506.5875
3178.83169	13457.4875
3181.15228	13423.7875
3183.47147	13419.3875
3185.78926	13431.2875
3188.10565	13401.9875
3190.42065	13420.9875
3192.73424	13457.6875
3195.04645	13419.5875
3197.35725	13412.8875
3199.66667	13412.4875
3201.97469	13444.7875
3204.28132	13452.7875
3206.58656	13450.9875
3208.8904	13445.6875
3211.19287	13458.5875
3213.49394	13446.4875
3215.79363	13438.3875
3218.09193	13481.9875
3220.38884	13439.7875
3222.68438	13457.3875
3224.97853	13421.3875
3227.2713	13435.2875
3229.56269	13394.4875
3231.8527	13422.5875
3234.14133	13407.8875
3236.42858	13334.8875
3238.71446	13346.7875
3240.99896	13326.6875
3243.28209	13349.7875
3245.56384	13333.0875
3247.84423	13347.1875
3250.12324	13332.6875
3252.40088	13328.3875
3254.67715	13303.6875
3256.95205	13297.2875
3259.22558	13288.3875
3261.49775	13265.4875
3263.76855	13262.7875
3266.03799	13220.3875
3268.30606	13212.0875
3270.57277	13204.5875
3272.83812	13163.5875
3275.10211	13144.9875
3277.36474	13145.1875
3279.62601	13145.3875
3281.88593	13129.0875
3284.14448	13141.8875
3286.40168	13113.0875
3288.65753	13124.8875
3290.91202	13082.9875
3293.16516	13052.9875
3295.41695	13023.8875
3297.66738	12945.2875
3299.91647	12928.9875
3302.16421	12822.7875
3304.4106	12768.8875
3306.65564	12729.3875
3308.89933	12665.9875
3311.14169	12581.0875
3313.38269	12503.7875
3315.62236	12444.1875
3317.86068	12323.7875
3320.09766	12200.4875
3322.3333	12119.5875
3324.5676	12105.7875
3326.80056	11939.8875
3329.03219	11851.6875
3331.26248	3.5875
3333.49143	-0.0125
3335.71905	-0.0125
