Data from AgNPs_FTO_APTES_UA_1uM_R6G_10uM_NaF_0.1M_Addition_RamanShift__27__11-35-27-221.txt Node

Date: Fri Dec 17 11:35:27 GMT 2021
User: TCL
Spectrometer: QEP01345
Trigger mode: 4
Integration Time (sec): 7.000000E0
Scans to average: 10
Electric dark correction enabled: true
Nonlinearity correction enabled: false
Boxcar width: 0
XAxis mode: Raman Shifts
Number of Pixels in Spectrum: 1044
>>>>>Begin Spectral Data<<<<<
46.04893	0.5
50.45542	-0.3
54.85868	-1.2
59.25871	1.2
63.6555	86.6
68.04907	92.5
72.43941	97.7
76.82654	103.7
81.21044	105.5
85.59113	109.9
89.96862	119.2
94.34289	123.5
98.71396	120.9
103.08183	125.9
107.4465	130.7
111.80798	130.5
116.16626	135.9
120.52136	136.3
124.87327	143.8
129.222	146.2
133.56755	149.2
137.90993	159.4
142.24913	171
146.58517	182
150.91804	204.5
155.24774	233.1
159.57429	284.2
163.89768	350.5
168.21792	452
172.53501	601.2
176.84895	828.3
181.15975	1139.7
185.46741	1587
189.77193	2168.6
194.07331	2898.4
198.37157	3734.8
202.6667	4597
206.9587	5465.4
211.24758	6336.2
215.53334	7200.2
219.81599	8181.9
224.09553	9219.3
228.37195	10437
232.64527	11734.1
236.91549	13089.8
241.18261	14354.3
245.44663	15453.5
249.70755	16415.5
253.96539	17178
258.22014	17938.1
262.4718	18534.3
266.72039	18986.6
270.96589	19277
275.20832	19320.6
279.44768	19150.8
283.68397	18921.4
287.91719	18703.6
292.14735	18621.3
296.37445	18780.3
300.59849	19188.6
304.81948	19715.3
309.03742	20097
313.25231	20005.5
317.46415	19303.1
321.67296	18245.3
325.87872	17369.2
330.08145	16991.9
334.28114	16976.9
338.47781	17241.4
342.67145	17655.6
346.86207	18249.7
351.04966	19096.2
355.23424	20083.4
359.4158	20896.7
363.59435	21382.8
367.76989	21552.3
371.94243	21642.8
376.11196	21603.2
380.27849	21587.5
384.44203	21510.6
388.60257	21360.1
392.76012	21356.8
396.91468	21575.6
401.06626	22048.7
405.21485	22479.5
409.36047	22268.7
413.50311	21572.2
417.64277	20912.9
421.77947	20551.5
425.9132	20403.3
430.04396	20474.7
434.17176	20605.7
438.2966	20889.3
442.41849	21332
446.53742	21967.6
450.6534	22607.6
454.76644	23100.9
458.87653	23273.9
462.98368	23221.5
467.08789	22881.1
471.18916	22346.7
475.2875	21812.4
479.38291	21389.5
483.4754	21152.7
487.56496	20926.2
491.6516	20690.1
495.73531	20537
499.81612	20488.4
503.89401	20601.1
507.96899	20807.1
512.04106	21047.1
516.11023	21267.1
520.1765	21446
524.23987	21459.2
528.30034	21152.1
532.35792	20872.2
536.41261	20536.6
540.46441	20191.1
544.51333	20054.7
548.55936	20166.4
552.60252	20490.3
556.64279	20848.7
560.6802	21065.9
564.71473	21263.6
568.7464	21866.2
572.7752	22298.8
576.80114	22035.5
580.82422	21748.4
584.84444	21715.3
588.86181	21808.2
592.87633	21962.6
596.888	22310.2
600.89682	23008.7
604.9028	24964
608.90594	29553.8
612.90624	35083.3
616.90371	33669.2
620.89834	25933.9
624.89015	22351.5
628.87913	21674
632.86528	21631.6
636.84862	21694
640.82913	21421.7
644.80683	20769.9
648.78172	20354.4
652.75379	20389.2
656.72306	21012.9
660.68952	21707.5
664.65319	21605.7
668.61405	20936.8
672.57211	20627.3
676.52738	20617.8
680.47986	20640.7
684.42955	20541.8
688.37646	20543.5
692.32058	20605.4
696.26192	20786.4
700.20048	21009.4
704.13626	21154.1
708.06928	21106.9
711.99952	20978.3
715.927	20909
719.85171	20923.7
723.77365	20894.4
727.69284	20735.9
731.60928	20590.4
735.52295	20567.6
739.43388	20683.8
743.34206	20811.2
747.24749	20959.3
751.15017	21129.1
755.05012	21466
758.94733	22194.6
762.8418	23676.2
766.73354	26183.3
770.62254	28877.7
774.50882	30217.6
778.39237	29063.3
782.27321	26270.5
786.15132	23599.3
790.02671	22038.3
793.89938	21328.1
797.76935	21091.5
801.6366	20921.8
805.50115	20870.7
809.36299	20755
813.22213	20667.6
817.07857	20656.2
820.93231	20668.5
824.78336	20746.9
828.63172	20817.5
832.47738	20907
836.32036	20959
840.16066	20953
843.99827	20945.6
847.8332	20905.1
851.66546	20896.9
855.49504	20832.2
859.32195	20792.2
863.1462	20736
866.96777	20681.1
870.78668	20689.2
874.60293	20699.1
878.41652	20788.7
882.22745	20863.9
886.03573	20940.7
889.84136	20910.5
893.64433	20824.6
897.44466	20738.8
901.24235	20819.1
905.0374	20798.6
908.8298	20783.3
912.61957	20764.4
916.40671	20889.6
920.19121	21081.8
923.97308	21298.7
927.75233	21503.9
931.52895	21679.2
935.30295	21546.6
939.07433	21117.2
942.84309	20747.1
946.60924	20554.9
950.37278	20458.7
954.13371	20318.5
957.89203	20200.4
961.64774	20143.4
965.40086	20091.4
969.15137	20022
972.89929	19997.4
976.64461	20012.6
980.38733	20076.3
984.12747	20166.4
987.86502	20293.1
991.59999	20531.6
995.33237	20809.6
999.06217	21316.4
1002.78939	21957.5
1006.51404	22509.7
1010.23611	22906.6
1013.95561	23221.6
1017.67255	23192.9
1021.38692	22950.5
1025.09872	22721.2
1028.80796	22793.7
1032.51465	23185.5
1036.21877	23567.1
1039.92035	23679.9
1043.61937	23470.2
1047.31584	23002.9
1051.00976	22478.2
1054.70114	22142.8
1058.38998	22026.9
1062.07627	22111.5
1065.76003	22162.7
1069.44126	22305.7
1073.11995	22478.1
1076.79611	22693.4
1080.46974	22882.2
1084.14085	23180.7
1087.80943	23504.8
1091.47549	23592
1095.13903	23325.2
1098.80005	22761.4
1102.45857	22271
1106.11456	22089.3
1109.76805	22133.6
1113.41903	22396.4
1117.06751	22771.4
1120.71348	23333
1124.35696	23809.2
1127.99793	24323.6
1131.63641	24411.1
1135.2724	23831.8
1138.90589	23169.2
1142.5369	22733.6
1146.16542	22479.2
1149.79145	22314
1153.415	22329.3
1157.03607	22521
1160.65467	22875.9
1164.27079	23446.5
1167.88443	24333.9
1171.49561	25719.6
1175.10432	27897.2
1178.71056	30818.9
1182.31434	33400.3
1185.91565	34629.6
1189.51451	34405.3
1193.11091	32946.4
1196.70485	30899.4
1200.29634	29169
1203.88538	27838.8
1207.47197	26614.5
1211.05612	25695.6
1214.63782	25221.7
1218.21708	25121.6
1221.79391	25255.4
1225.36829	25494.5
1228.94024	25671
1232.50976	25729.8
1236.07685	25753.2
1239.6415	25752.4
1243.20374	25764.4
1246.76355	25785.1
1250.32093	26009.6
1253.8759	26494.2
1257.42845	27172.3
1260.97859	27848.9
1264.52631	28383.1
1268.07163	28974.3
1271.61453	29624.3
1275.15503	30252.8
1278.69312	30760.8
1282.22882	31141.3
1285.76211	31730.7
1289.29301	32421.6
1292.82151	33097.4
1296.34761	33784.1
1299.87133	34807.4
1303.39266	36593.7
1306.9116	39352.2
1310.42815	42720.4
1313.94233	45076.7
1317.45412	45158
1320.96354	43598
1324.47058	41514.4
1327.97525	39610.2
1331.47754	38395.5
1334.97747	37895.8
1338.47502	38084.8
1341.97022	38603.8
1345.46305	38989.4
1348.95352	39601.6
1352.44163	40710.2
1355.92738	42783.7
1359.41078	46413
1362.89183	50358
1366.37053	49869.9
1369.84688	44378.1
1373.32088	38500.1
1376.79254	34617.6
1380.26186	32698.8
1383.72883	31775.4
1387.19347	31024.3
1390.65578	30243.2
1394.11575	29745.9
1397.57339	29624.3
1401.0287	29913.2
1404.48168	30499.3
1407.93234	31264.7
1411.38068	31810.1
1414.82669	31916.2
1418.27039	31398.5
1421.71177	30689.8
1425.15083	30101.4
1428.58758	29701.2
1432.02203	29639.2
1435.45416	29761.6
1438.88399	29908.1
1442.31151	29988.7
1445.73673	30117.1
1449.15965	30250.3
1452.58027	30212.8
1455.9986	30005.1
1459.41463	29905.4
1462.82837	30028.2
1466.23982	30453.5
1469.64898	30934.3
1473.05586	31281.9
1476.46045	31473.3
1479.86276	31864.6
1483.26279	32320.3
1486.66054	32862.8
1490.05602	33596.2
1493.44922	34409.2
1496.84016	35498.7
1500.22882	36951.6
1503.61521	38928.5
1506.99934	41459.8
1510.38121	44058.9
1513.76081	45559.2
1517.13816	44508.2
1520.51324	41167.5
1523.88607	37444.3
1527.25665	34777.5
1530.62498	33102.8
1533.99105	32142.7
1537.35488	31499.8
1540.71647	31137.3
1544.07581	30955.7
1547.4329	30818.1
1550.78776	30766.2
1554.14038	30694.5
1557.49077	30817.7
1560.83892	31069.3
1564.18484	31390.5
1567.52853	31651.9
1570.86999	31868.1
1574.20922	32067.8
1577.54624	32117.5
1580.88103	31567.3
1584.2136	30742.3
1587.54395	30685.1
1590.87208	31476.3
1594.19801	33169.6
1597.52172	35153.4
1600.84321	36016.7
1604.16251	35087.8
1607.47959	33058.4
1610.79447	30702.1
1614.10715	28540.6
1617.41763	26846.8
1620.7259	25821
1624.03199	25385.2
1627.33587	25486.9
1630.63757	26108.9
1633.93707	27245.9
1637.23439	28893.1
1640.52951	30927.9
1643.82246	33102.7
1647.11321	35075.3
1650.40179	36141
1653.68819	34970.3
1656.97241	31543.1
1660.25446	27769.8
1663.53433	24993.2
1666.81203	23311.6
1670.08756	22296.1
1673.36092	21679.8
1676.63211	21239.3
1679.90115	20959.3
1683.16801	20764.4
1686.43272	20557.3
1689.69527	20475.4
1692.95567	20394.5
1696.2139	20362.2
1699.46999	20323.1
1702.72392	20297.7
1705.97571	20279.7
1709.22535	20261.3
1712.47284	20302
1715.71819	20287.2
1718.96139	20300.3
1722.20246	20268.7
1725.44139	20217.3
1728.67818	20119.8
1731.91284	20033
1735.14537	19922.4
1738.37576	19835.4
1741.60403	19807.5
1744.83017	19728.9
1748.05418	19708.8
1751.27607	19672.4
1754.49584	19648.4
1757.71349	19654.4
1760.92903	19656.8
1764.14244	19648.1
1767.35375	19640.3
1770.56294	19595.3
1773.77002	19553.4
1776.97499	19532
1780.17785	19506.9
1783.37861	19525.9
1786.57727	19500
1789.77382	19486.2
1792.96828	19490.6
1796.16064	19485
1799.3509	19469.1
1802.53907	19448.1
1805.72514	19419.4
1808.90913	19375.1
1812.09102	19321.1
1815.27083	19326.3
1818.44856	19267
1821.6242	19252
1824.79776	19253.7
1827.96924	19201.3
1831.13864	19206.1
1834.30597	19227.1
1837.47122	19206.4
1840.6344	19218.1
1843.7955	19203.2
1846.95454	19246.3
1850.11151	19236.9
1853.26642	19249.8
1856.41926	19266.1
1859.57004	19256.6
1862.71876	19271.1
1865.86542	19284
1869.01003	19310.2
1872.15258	19312.5
1875.29308	19327
1878.43152	19333.4
1881.56792	19341
1884.70227	19401.7
1887.83457	19375.5
1890.96482	19392
1894.09304	19398.2
1897.21921	19367
1900.34335	19390.1
1903.46544	19384.6
1906.58551	19405.1
1909.70353	19415.8
1912.81953	19408.8
1915.93349	19355.8
1919.04543	19371.5
1922.15534	19290.5
1925.26322	19258.3
1928.36908	19217
1931.47292	19149.9
1934.57473	19063.6
1937.67453	19059.6
1940.77232	18979.9
1943.86808	18888.2
1946.96184	18827.8
1950.05358	18763.8
1953.14331	18655.5
1956.23103	18641
1959.31675	18580.9
1962.40046	18500.6
1965.48217	18445.1
1968.56188	18404.2
1971.63959	18362.5
1974.7153	18298.9
1977.78901	18236.1
1980.86073	18164.8
1983.93046	18102.7
1986.99819	18027.2
1990.06394	18002.9
1993.1277	17968.1
1996.18947	17882.3
1999.24925	17875.4
2002.30706	17811.5
2005.36288	17739.3
2008.41672	17722.5
2011.46859	17683.4
2014.51848	17614.4
2017.56639	17578.1
2020.61233	17565.7
2023.6563	17500.9
2026.6983	17501.3
2029.73833	17427.8
2032.7764	17410.2
2035.8125	17367.1
2038.84664	17386.9
2041.87881	17346.1
2044.90903	17322.7
2047.93729	17291.2
2050.96359	17286
2053.98794	17234.5
2057.01034	17238.9
2060.03078	17194.4
2063.04927	17164.3
2066.06582	17166.6
2069.08042	17170.3
2072.09307	17153
2075.10378	17121
2078.11255	17127.5
2081.11938	17114.8
2084.12426	17095.5
2087.12722	17113
2090.12824	17121.8
2093.12732	17085.4
2096.12447	17084.8
2099.11969	17111.9
2102.11299	17102.8
2105.10435	17123.6
2108.09379	17102.8
2111.08131	17138.6
2114.0669	17125.8
2117.05057	17156.7
2120.03233	17152.4
2123.01216	17183.9
2125.99008	17187.2
2128.96609	17192.2
2131.94018	17241.4
2134.91236	17204.8
2137.88263	17221.6
2140.851	17221.4
2143.81746	17237
2146.78201	17245.1
2149.74466	17268.1
2152.7054	17238.3
2155.66425	17288
2158.6212	17253.8
2161.57625	17293.4
2164.52941	17267
2167.48067	17262.1
2170.43004	17256.6
2173.37752	17259.6
2176.32311	17240.4
2179.26681	17231.5
2182.20863	17242.2
2185.14856	17270.3
2188.08661	17246.4
2191.02278	17268.6
2193.95707	17259.3
2196.88948	17294.3
2199.82001	17238.1
2202.74867	17251.7
2205.67545	17238.3
2208.60037	17208.6
2211.52341	17190.3
2214.44458	17176
2217.36388	17104.7
2220.28132	17099.1
2223.1969	17070.2
2226.11061	17099.7
2229.02246	17038.2
2231.93245	17003.9
2234.84058	16979.7
2237.74686	16957
2240.65128	16938.9
2243.55385	16921.5
2246.45456	16892.8
2249.35343	16887.9
2252.25044	16897
2255.14561	16846.4
2258.03893	16858
2260.93041	16797.2
2263.82004	16755.5
2266.70783	16747.6
2269.59378	16707.6
2272.4779	16686.7
2275.36017	16640
2278.24061	16610.7
2281.11922	16605.2
2283.996	16570.4
2286.87094	16552.4
2289.74405	16490.9
2292.61534	16469.8
2295.4848	16467.3
2298.35243	16464.4
2301.21824	16453.7
2304.08223	16480.9
2306.94439	16448.4
2309.80474	16480.7
2312.66327	16478.3
2315.51999	16459.6
2318.37489	16441.7
2321.22797	16448.8
2324.07925	16423.6
2326.92871	16403.2
2329.77637	16390.4
2332.62222	16378.4
2335.46626	16372.7
2338.3085	16350.2
2341.14893	16338
2343.98756	16353.4
2346.8244	16368
2349.65943	16343.9
2352.49267	16324.7
2355.32411	16341.4
2358.15376	16315
2360.98161	16317
2363.80768	16309.4
2366.63195	16299.9
2369.45444	16302.6
2372.27514	16280.9
2375.09405	16243.6
2377.91118	16186.3
2380.72652	16177.4
2383.54009	16111.7
2386.35187	16096.9
2389.16188	16038
2391.97011	16010
2394.77657	15992.6
2397.58125	15989.5
2400.38416	15941.3
2403.18529	15912.4
2405.98466	15889.9
2408.78226	15847.1
2411.57809	15847.6
2414.37216	15794.1
2417.16446	15795.7
2419.955	15777.1
2422.74378	15764.6
2425.5308	15716.8
2428.31606	15715.9
2431.09956	15700.6
2433.88131	15682.7
2436.6613	15708.2
2439.43954	15675.1
2442.21603	15667.7
2444.99077	15663
2447.76377	15640.5
2450.53501	15643.4
2453.30451	15645.8
2456.07226	15605.4
2458.83827	15601.1
2461.60254	15601.6
2464.36507	15602.1
2467.12586	15592.9
2469.88492	15604.6
2472.64224	15562.5
2475.39782	15577.1
2478.15167	15580.1
2480.90379	15601.7
2483.65417	15577.7
2486.40283	15608.2
2489.14976	15630.4
2491.89497	15623.2
2494.63845	15642.7
2497.3802	15603.3
2500.12024	15648.3
2502.85855	15609.4
2505.59514	15596.8
2508.33002	15567.1
2511.06318	15540.1
2513.79462	15519.2
2516.52435	15485.2
2519.25237	15485.5
2521.97867	15422.3
2524.70327	15438.9
2527.42616	15388.9
2530.14734	15411.5
2532.86681	15360
2535.58458	15362.4
2538.30065	15345.3
2541.01501	15340.6
2543.72768	15321.3
2546.43864	15321.3
2549.14791	15323.1
2551.85548	15285.3
2554.56136	15310.4
2557.26554	15280.5
2559.96803	15271.2
2562.66883	15249.8
2565.36794	15239.4
2568.06536	15217.3
2570.7611	15147.3
2573.45514	15173.1
2576.14751	15139.5
2578.83819	15129.6
2581.52719	15127.5
2584.21451	15133.4
2586.90015	15129.6
2589.58411	15079
2592.2664	15066.4
2594.94701	15045.8
2597.62594	15061.6
2600.30321	15036.7
2602.9788	15037.9
2605.65273	14999.6
2608.32498	14996
2610.99557	14981.7
2613.66449	14978
2616.33175	14988.6
2618.99734	14973.9
2621.66128	14966.4
2624.32355	14964.3
2626.98416	14951.5
2629.64311	14959.7
2632.30041	14962.8
2634.95605	14914
2637.61004	14910.8
2640.26238	14871.9
2642.91306	14883
2645.56209	14837.3
2648.20948	14819.4
2650.85521	14825.4
2653.4993	14805.3
2656.14175	14800.6
2658.78255	14826.5
2661.42171	14806
2664.05923	14843.6
2666.6951	14827.2
2669.32934	14855.8
2671.96194	14845.5
2674.59291	14887.5
2677.22224	14872.7
2679.84993	14886.3
2682.476	14894.5
2685.10043	14880.1
2687.72324	14872.4
2690.34441	14883.6
2692.96396	14839
2695.58188	14891.5
2698.19818	14840.4
2700.81285	14906.7
2703.4259	14846
2706.03733	14860
2708.64714	14845.6
2711.25533	14888.2
2713.86191	14894.1
2716.46687	14884
2719.07021	14914.6
2721.67194	14890.3
2724.27206	14869.5
2726.87057	14880.6
2729.46747	14901.1
2732.06276	14873.8
2734.65644	14861.1
2737.24852	14862.3
2739.83899	14865.4
2742.42786	14856.4
2745.01513	14853.8
2747.60079	14861.7
2750.18486	14864.3
2752.76733	14865.8
2755.3482	14841.4
2757.92747	14866.9
2760.50515	14848.1
2763.08123	14813.6
2765.65573	14802.1
2768.22863	14823.3
2770.79994	14817.5
2773.36967	14793.4
2775.9378	14777.7
2778.50435	14775.7
2781.06932	14757.3
2783.6327	14743.4
2786.1945	14748.3
2788.75471	14762
2791.31335	14686.1
2793.87041	14684.9
2796.42589	14644.3
2798.97979	14665.1
2801.53212	14630.3
2804.08288	14612.5
2806.63206	14587.7
2809.17967	14560.5
2811.72571	14567.7
2814.27018	14571
2816.81308	14561.7
2819.35442	14570.5
2821.89419	14519.7
2824.43239	14534.9
2826.96904	14536
2829.50412	14507.4
2832.03763	14513.6
2834.56959	14517.6
2837.1	14492
2839.62884	14507.8
2842.15613	14528.4
2844.68186	14577.8
2847.20604	14629.9
2849.72867	14659.9
2852.24974	14656.2
2854.76927	14659.4
2857.28724	14618.7
2859.80367	14625.2
2862.31855	14602.5
2864.83189	14577.3
2867.34368	14532.2
2869.85393	14545.2
2872.36264	14561.1
2874.8698	14557.2
2877.37543	14524
2879.87952	14540.2
2882.38207	14544
2884.88308	14522.7
2887.38256	14554
2889.88051	14530.2
2892.37692	14537.4
2894.8718	14537.6
2897.36515	14553.4
2899.85698	14563.4
2902.34727	14569.9
2904.83604	14545
2907.32328	14590.3
2909.809	14541.8
2912.29319	14557.5
2914.77587	14555.4
2917.25702	14524.4
2919.73665	14513.6
2922.21476	14506.2
2924.69136	14488
2927.16644	14512
2929.64	14460
2932.11205	14447
2934.58258	14442.3
2937.05161	14404.5
2939.51912	14392.6
2941.98513	14371.3
2944.44962	14293.5
2946.91261	14259.7
2949.37409	14231.2
2951.83407	14199.9
2954.29254	14162.1
2956.74951	14157.5
2959.20498	14133.5
2961.65895	14098.7
2964.11142	14068.5
2966.56239	14039.5
2969.01186	14010.3
2971.45984	13954.2
2973.90632	13950.3
2976.35131	13898.9
2978.7948	13877.6
2981.23681	13812.4
2983.67732	13812.2
2986.11635	13765.8
2988.55388	13704.4
2990.98993	13698.8
2993.4245	13665.1
2995.85758	13630.4
2998.28917	13610.3
3000.71928	13584.2
3003.14791	13559.5
3005.57506	13551.3
3008.00073	13485
3010.42493	13494.3
3012.84764	13467.5
3015.26888	13469.5
3017.68865	13438.5
3020.10694	13421.3
3022.52376	13374.4
3024.9391	13385.6
3027.35298	13343.6
3029.76539	13304.4
3032.17632	13298.1
3034.5858	13262.3
3036.9938	13269.2
3039.40034	13246.6
3041.80542	13224.5
3044.20903	13195.8
3046.61118	13193.1
3049.01187	13125.5
3051.4111	13150
3053.80888	13107.3
3056.20519	13082.6
3058.60005	13023.8
3060.99345	13010.2
3063.3854	12994.7
3065.7759	12965.1
3068.16494	12925.9
3070.55254	12887.8
3072.93868	12860.8
3075.32338	12836.6
3077.70662	12823.1
3080.08842	12794.7
3082.46878	12782
3084.84769	12744.2
3087.22515	12728.5
3089.60118	12732
3091.97576	12732.6
3094.3489	12720
3096.72061	12716.2
3099.09087	12718.1
3101.4597	12679.6
3103.82709	12651.4
3106.19305	12611.5
3108.55757	12640.7
3110.92066	12599.1
3113.28232	12576.1
3115.64255	12535.1
3118.00134	12501.5
3120.35871	12514.7
3122.71466	12493.5
3125.06917	12454.2
3127.42226	12435.1
3129.77393	12438.8
3132.12417	12442.4
3134.47299	12442.5
3136.82039	12443.6
3139.16636	12441.9
3141.51092	12425.9
3143.85406	12444.6
3146.19579	12415.9
3148.53609	12420
3150.87499	12425
3153.21246	12425.2
3155.54853	12454.9
3157.88318	12415.3
3160.21642	12435.2
3162.54826	12419
3164.87868	12402.1
3167.2077	12409.8
3169.5353	12380.2
3171.86151	12392.9
3174.18631	12365.8
3176.5097	12347.1
3178.83169	12329.9
3181.15228	12327.5
3183.47147	12332.8
3185.78926	12300.8
3188.10565	12300.4
3190.42065	12306.7
3192.73424	12323.2
3195.04645	12305
3197.35725	12309.5
3199.66667	12289.4
3201.97469	12310.7
3204.28132	12300.7
3206.58656	12338.5
3208.8904	12302.5
3211.19287	12309.2
3213.49394	12309.1
3215.79363	12313.3
3218.09193	12297.8
3220.38884	12295.3
3222.68438	12307.2
3224.97853	12261
3227.2713	12268.2
3229.56269	12260.5
3231.8527	12251
3234.14133	12223.3
3236.42858	12207.6
3238.71446	12212.9
3240.99896	12159
3243.28209	12177.4
3245.56384	12159.1
3247.84423	12162.1
3250.12324	12160.7
3252.40088	12128
3254.67715	12132.7
3256.95205	12086.8
3259.22558	12105.3
3261.49775	12080
3263.76855	12083.1
3266.03799	12050.6
3268.30606	12025.6
3270.57277	12029.1
3272.83812	12002.5
3275.10211	11975.4
3277.36474	11996.2
3279.62601	11988
3281.88593	11970.4
3284.14448	11950.6
3286.40168	11956.2
3288.65753	11953.7
3290.91202	11892.3
3293.16516	11872
3295.41695	11855.4
3297.66738	11784.1
3299.91647	11718.1
3302.16421	11637.4
3304.4106	11620.2
3306.65564	11575.3
3308.89933	11483.9
3311.14169	11409.5
3313.38269	11308.8
3315.62236	11286.4
3317.86068	11184.3
3320.09766	11030.5
3322.3333	10974.2
3324.5676	10963
3326.80056	10776.2
3329.03219	10753.2
3331.26248	3.1
3333.49143	0.6
3335.71905	-2.5
