Data from AgNPs_FTO_APTES_UA_20uM_R6G_10uM_NaF_0.1M_Addition_RamanShift__11__14-08-17-362.txt Node

Date: Fri Dec 17 14:08:17 GMT 2021
User: TCL
Spectrometer: QEP01345
Trigger mode: 4
Integration Time (sec): 7.000000E0
Scans to average: 10
Electric dark correction enabled: true
Nonlinearity correction enabled: false
Boxcar width: 0
XAxis mode: Raman Shifts
Number of Pixels in Spectrum: 1044
>>>>>Begin Spectral Data<<<<<
46.04893	0.2875
50.45542	-0.0125
54.85868	-1.1125
59.25871	0.9875
63.6555	72.4875
68.04907	73.2875
72.43941	79.9875
76.82654	82.1875
81.21044	85.3875
85.59113	85.4875
89.96862	92.7875
94.34289	94.3875
98.71396	97.6875
103.08183	97.0875
107.4465	103.2875
111.80798	101.4875
116.16626	109.7875
120.52136	109.1875
124.87327	113.4875
129.222	118.9875
133.56755	129.5875
137.90993	139.2875
142.24913	153.9875
146.58517	170.6875
150.91804	197.1875
155.24774	232.4875
159.57429	293.5875
163.89768	373.2875
168.21792	491.4875
172.53501	669.1875
176.84895	935.6875
181.15975	1309.9875
185.46741	1840.4875
189.77193	2558.6875
194.07331	3427.2875
198.37157	4429.4875
202.6667	5492.3875
206.9587	6546.1875
211.24758	7581.8875
215.53334	8612.3875
219.81599	9659.4875
224.09553	10842.9875
228.37195	12123.9875
232.64527	13543.6875
236.91549	15107.5875
241.18261	16679.5875
245.44663	18202.7875
249.70755	19589.1875
253.96539	20792.8875
258.22014	21790.9875
262.4718	22615.3875
266.72039	23112.1875
270.96589	23379.9875
275.20832	23348.5875
279.44768	23155.2875
283.68397	22900.2875
287.91719	22587.4875
292.14735	22395.2875
296.37445	22234.3875
300.59849	22241.4875
304.81948	22232.4875
309.03742	22211.7875
313.25231	22085.9875
317.46415	21877.5875
321.67296	21528.2875
325.87872	21227.9875
330.08145	21132.3875
334.28114	21160.1875
338.47781	21342.5875
342.67145	21631.7875
346.86207	21909.0875
351.04966	22295.8875
355.23424	22681.1875
359.4158	23010.0875
363.59435	23295.5875
367.76989	23548.8875
371.94243	23729.4875
376.11196	23841.8875
380.27849	23964.0875
384.44203	24121.0875
388.60257	24284.6875
392.76012	24434.7875
396.91468	24666.0875
401.06626	24909.6875
405.21485	25164.5875
409.36047	25138.0875
413.50311	24899.7875
417.64277	24691.4875
421.77947	24593.4875
425.9132	24721.0875
430.04396	24783.6875
434.17176	24874.3875
438.2966	25026.6875
442.41849	25217.9875
446.53742	25472.4875
450.6534	25779.0875
454.76644	26089.5875
458.87653	26243.6875
462.98368	26319.6875
467.08789	26267.1875
471.18916	26230.6875
475.2875	26013.0875
479.38291	25807.6875
483.4754	25658.6875
487.56496	25541.2875
491.6516	25429.8875
495.73531	25384.7875
499.81612	25411.7875
503.89401	25512.3875
507.96899	25627.3875
512.04106	25736.4875
516.11023	25751.3875
520.1765	25724.9875
524.23987	25642.1875
528.30034	25521.8875
532.35792	25429.3875
536.41261	25319.6875
540.46441	25205.5875
544.51333	25158.2875
548.55936	25276.4875
552.60252	25493.9875
556.64279	25745.8875
560.6802	25911.8875
564.71473	25973.1875
568.7464	26047.3875
572.7752	26267.0875
576.80114	26437.0875
580.82422	26696.1875
584.84444	27089.2875
588.86181	27305.1875
592.87633	27450.8875
596.888	27348.3875
600.89682	27448.1875
604.9028	28071.6875
608.90594	29838.3875
612.90624	31716.5875
616.90371	30786.0875
620.89834	27703.9875
624.89015	26190.1875
628.87913	25963.3875
632.86528	26036.5875
636.84862	26228.8875
640.82913	26125.2875
644.80683	25837.1875
648.78172	25568.0875
652.75379	25521.1875
656.72306	25714.0875
660.68952	25990.9875
664.65319	26007.1875
668.61405	25787.1875
672.57211	25764.1875
676.52738	25790.7875
680.47986	25809.2875
684.42955	25711.6875
688.37646	25664.3875
692.32058	25746.4875
696.26192	25923.8875
700.20048	26054.2875
704.13626	26200.1875
708.06928	26209.1875
711.99952	26087.4875
715.927	26028.7875
719.85171	26008.4875
723.77365	25987.1875
727.69284	25835.2875
731.60928	25619.9875
735.52295	25586.3875
739.43388	25553.1875
743.34206	25582.3875
747.24749	25677.6875
751.15017	25728.3875
755.05012	25916.9875
758.94733	26263.2875
762.8418	26931.7875
766.73354	28125.8875
770.62254	29321.0875
774.50882	29796.1875
778.39237	29253.7875
782.27321	28100.1875
786.15132	27037.1875
790.02671	26325.8875
793.89938	25927.8875
797.76935	25732.0875
801.6366	25624.9875
805.50115	25565.1875
809.36299	25483.0875
813.22213	25398.3875
817.07857	25376.6875
820.93231	25321.8875
824.78336	25317.8875
828.63172	25322.4875
832.47738	25307.6875
836.32036	25299.9875
840.16066	25286.2875
843.99827	25249.9875
847.8332	25289.1875
851.66546	25267.5875
855.49504	25308.9875
859.32195	25340.1875
863.1462	25359.6875
866.96777	25362.1875
870.78668	25353.3875
874.60293	25375.2875
878.41652	25407.0875
882.22745	25457.2875
886.03573	25547.1875
889.84136	25539.5875
893.64433	25515.7875
897.44466	25436.2875
901.24235	25391.4875
905.0374	25350.6875
908.8298	25326.2875
912.61957	25286.3875
916.40671	25368.2875
920.19121	25420.0875
923.97308	25515.0875
927.75233	25482.0875
931.52895	25511.9875
935.30295	25399.9875
939.07433	25135.9875
942.84309	25019.4875
946.60924	24873.0875
950.37278	24801.5875
954.13371	24753.9875
957.89203	24676.3875
961.64774	24699.8875
965.40086	24652.2875
969.15137	24628.9875
972.89929	24583.0875
976.64461	24536.1875
980.38733	24548.2875
984.12747	24557.2875
987.86502	24608.0875
991.59999	24667.9875
995.33237	24739.9875
999.06217	24889.5875
1002.78939	25081.4875
1006.51404	25344.4875
1010.23611	25594.3875
1013.95561	25735.6875
1017.67255	25769.9875
1021.38692	25657.6875
1025.09872	25523.1875
1028.80796	25329.7875
1032.51465	25223.5875
1036.21877	25220.5875
1039.92035	25217.9875
1043.61937	25327.7875
1047.31584	25406.5875
1051.00976	25472.9875
1054.70114	25543.4875
1058.38998	25585.6875
1062.07627	25775.5875
1065.76003	25958.9875
1069.44126	26146.5875
1073.11995	26475.5875
1076.79611	26793.6875
1080.46974	26872.6875
1084.14085	26859.9875
1087.80943	26927.4875
1091.47549	27008.6875
1095.13903	26989.6875
1098.80005	26841.4875
1102.45857	26630.3875
1106.11456	26403.2875
1109.76805	26234.7875
1113.41903	26162.8875
1117.06751	26162.6875
1120.71348	26305.4875
1124.35696	26467.1875
1127.99793	26631.9875
1131.63641	26722.9875
1135.2724	26590.7875
1138.90589	26392.7875
1142.5369	26345.7875
1146.16542	26282.5875
1149.79145	26199.2875
1153.415	26189.5875
1157.03607	26213.7875
1160.65467	26418.2875
1164.27079	26808.0875
1167.88443	27333.1875
1171.49561	28046.7875
1175.10432	28944.8875
1178.71056	30224.9875
1182.31434	31485.2875
1185.91565	32292.7875
1189.51451	32609.9875
1193.11091	32482.4875
1196.70485	31938.5875
1200.29634	31215.4875
1203.88538	30460.0875
1207.47197	29737.1875
1211.05612	29087.7875
1214.63782	28615.5875
1218.21708	28201.6875
1221.79391	27895.7875
1225.36829	27655.7875
1228.94024	27578.5875
1232.50976	27555.1875
1236.07685	27593.1875
1239.6415	27603.7875
1243.20374	27647.3875
1246.76355	27763.7875
1250.32093	27896.2875
1253.8759	28139.0875
1257.42845	28527.6875
1260.97859	28963.2875
1264.52631	29358.0875
1268.07163	29720.5875
1271.61453	30100.7875
1275.15503	30396.5875
1278.69312	30643.3875
1282.22882	30875.2875
1285.76211	31095.0875
1289.29301	31371.6875
1292.82151	31799.0875
1296.34761	32273.1875
1299.87133	32881.2875
1303.39266	33694.8875
1306.9116	34731.1875
1310.42815	35723.8875
1313.94233	36250.7875
1317.45412	36143.5875
1320.96354	35777.4875
1324.47058	35385.0875
1327.97525	35060.3875
1331.47754	34871.1875
1334.97747	34895.6875
1338.47502	35073.7875
1341.97022	35564.2875
1345.46305	36118.1875
1348.95352	36730.7875
1352.44163	37185.1875
1355.92738	37550.2875
1359.41078	38089.6875
1362.89183	38707.2875
1366.37053	38028.4875
1369.84688	35904.5875
1373.32088	33361.8875
1376.79254	31559.8875
1380.26186	30565.4875
1383.72883	30061.2875
1387.19347	29682.6875
1390.65578	29241.5875
1394.11575	28939.7875
1397.57339	28686.5875
1401.0287	28597.0875
1404.48168	28580.9875
1407.93234	28618.4875
1411.38068	28590.5875
1414.82669	28430.1875
1418.27039	28133.0875
1421.71177	27773.3875
1425.15083	27481.0875
1428.58758	27282.5875
1432.02203	27353.1875
1435.45416	27554.9875
1438.88399	27714.7875
1442.31151	27867.0875
1445.73673	27904.4875
1449.15965	28026.2875
1452.58027	28070.9875
1455.9986	28118.8875
1459.41463	28285.9875
1462.82837	28578.4875
1466.23982	28956.7875
1469.64898	29307.7875
1473.05586	29565.1875
1476.46045	29709.5875
1479.86276	29758.7875
1483.26279	29903.7875
1486.66054	30022.9875
1490.05602	30278.7875
1493.44922	30688.6875
1496.84016	31356.3875
1500.22882	32401.3875
1503.61521	33755.6875
1506.99934	35066.5875
1510.38121	35930.3875
1513.76081	35839.5875
1517.13816	34816.1875
1520.51324	33417.0875
1523.88607	32169.3875
1527.25665	31261.0875
1530.62498	30873.7875
1533.99105	30642.8875
1537.35488	30314.0875
1540.71647	30086.0875
1544.07581	29781.0875
1547.4329	29537.4875
1550.78776	29304.1875
1554.14038	29175.9875
1557.49077	29058.6875
1560.83892	29058.3875
1564.18484	29187.8875
1567.52853	29334.6875
1570.86999	29558.8875
1574.20922	29775.5875
1577.54624	29849.2875
1580.88103	29599.7875
1584.2136	29182.9875
1587.54395	28987.6875
1590.87208	29209.3875
1594.19801	29725.3875
1597.52172	30482.1875
1600.84321	30870.9875
1604.16251	30568.2875
1607.47959	29925.4875
1610.79447	29028.7875
1614.10715	28003.4875
1617.41763	26971.1875
1620.7259	26141.6875
1624.03199	25604.9875
1627.33587	25428.0875
1630.63757	25504.8875
1633.93707	25994.7875
1637.23439	26920.2875
1640.52951	28277.4875
1643.82246	29980.5875
1647.11321	31468.6875
1650.40179	32083.3875
1653.68819	31306.7875
1656.97241	29357.6875
1660.25446	27223.9875
1663.53433	25563.3875
1666.81203	24468.4875
1670.08756	23751.6875
1673.36092	23246.3875
1676.63211	22968.7875
1679.90115	22722.5875
1683.16801	22509.8875
1686.43272	22370.2875
1689.69527	22274.5875
1692.95567	22225.9875
1696.2139	22133.6875
1699.46999	22100.8875
1702.72392	22029.8875
1705.97571	22028.1875
1709.22535	21968.8875
1712.47284	22001.5875
1715.71819	21986.0875
1718.96139	21934.7875
1722.20246	21893.1875
1725.44139	21804.5875
1728.67818	21741.8875
1731.91284	21642.0875
1735.14537	21604.5875
1738.37576	21506.4875
1741.60403	21428.6875
1744.83017	21354.9875
1748.05418	21342.2875
1751.27607	21340.4875
1754.49584	21252.4875
1757.71349	21256.3875
1760.92903	21234.9875
1764.14244	21274.6875
1767.35375	21224.4875
1770.56294	21177.1875
1773.77002	21174.1875
1776.97499	21148.8875
1780.17785	21112.0875
1783.37861	21058.7875
1786.57727	21023.3875
1789.77382	20966.5875
1792.96828	20960.5875
1796.16064	20905.8875
1799.3509	20902.2875
1802.53907	20868.8875
1805.72514	20809.5875
1808.90913	20760.1875
1812.09102	20726.1875
1815.27083	20690.5875
1818.44856	20637.9875
1821.6242	20632.9875
1824.79776	20582.0875
1827.96924	20605.4875
1831.13864	20578.5875
1834.30597	20562.5875
1837.47122	20550.4875
1840.6344	20515.8875
1843.7955	20517.7875
1846.95454	20498.1875
1850.11151	20507.2875
1853.26642	20445.9875
1856.41926	20461.9875
1859.57004	20440.0875
1862.71876	20413.8875
1865.86542	20352.0875
1869.01003	20352.0875
1872.15258	20337.1875
1875.29308	20291.4875
1878.43152	20288.9875
1881.56792	20241.9875
1884.70227	20213.7875
1887.83457	20222.8875
1890.96482	20171.7875
1894.09304	20117.3875
1897.21921	20069.1875
1900.34335	20101.7875
1903.46544	20061.9875
1906.58551	19996.9875
1909.70353	20002.5875
1912.81953	20005.9875
1915.93349	19935.4875
1919.04543	19895.3875
1922.15534	19839.0875
1925.26322	19821.6875
1928.36908	19784.1875
1931.47292	19779.1875
1934.57473	19709.9875
1937.67453	19645.0875
1940.77232	19597.2875
1943.86808	19529.1875
1946.96184	19492.0875
1950.05358	19421.2875
1953.14331	19419.6875
1956.23103	19324.0875
1959.31675	19269.8875
1962.40046	19240.0875
1965.48217	19196.4875
1968.56188	19140.1875
1971.63959	19049.5875
1974.7153	19031.1875
1977.78901	18953.1875
1980.86073	18872.9875
1983.93046	18858.0875
1986.99819	18788.5875
1990.06394	18726.2875
1993.1277	18683.2875
1996.18947	18589.1875
1999.24925	18553.0875
2002.30706	18480.0875
2005.36288	18431.9875
2008.41672	18398.0875
2011.46859	18336.7875
2014.51848	18323.8875
2017.56639	18235.7875
2020.61233	18160.3875
2023.6563	18143.2875
2026.6983	18093.5875
2029.73833	18062.0875
2032.7764	18021.5875
2035.8125	17974.6875
2038.84664	17908.7875
2041.87881	17905.0875
2044.90903	17869.6875
2047.93729	17837.8875
2050.96359	17795.3875
2053.98794	17740.3875
2057.01034	17745.8875
2060.03078	17710.6875
2063.04927	17710.8875
2066.06582	17710.4875
2069.08042	17687.5875
2072.09307	17703.7875
2075.10378	17660.1875
2078.11255	17637.9875
2081.11938	17625.9875
2084.12426	17607.2875
2087.12722	17590.9875
2090.12824	17581.4875
2093.12732	17627.7875
2096.12447	17628.2875
2099.11969	17609.5875
2102.11299	17579.0875
2105.10435	17610.6875
2108.09379	17623.0875
2111.08131	17628.9875
2114.0669	17646.0875
2117.05057	17675.6875
2120.03233	17650.8875
2123.01216	17667.4875
2125.99008	17714.7875
2128.96609	17681.4875
2131.94018	17704.2875
2134.91236	17729.6875
2137.88263	17758.0875
2140.851	17740.8875
2143.81746	17741.3875
2146.78201	17760.9875
2149.74466	17731.3875
2152.7054	17721.7875
2155.66425	17721.5875
2158.6212	17732.2875
2161.57625	17734.5875
2164.52941	17753.0875
2167.48067	17710.4875
2170.43004	17709.3875
2173.37752	17714.8875
2176.32311	17689.8875
2179.26681	17685.9875
2182.20863	17661.8875
2185.14856	17675.8875
2188.08661	17651.1875
2191.02278	17643.2875
2193.95707	17625.2875
2196.88948	17625.7875
2199.82001	17606.7875
2202.74867	17568.4875
2205.67545	17576.6875
2208.60037	17548.7875
2211.52341	17535.2875
2214.44458	17489.9875
2217.36388	17444.3875
2220.28132	17418.4875
2223.1969	17384.9875
2226.11061	17315.3875
2229.02246	17316.8875
2231.93245	17297.3875
2234.84058	17219.6875
2237.74686	17203.7875
2240.65128	17195.6875
2243.55385	17182.3875
2246.45456	17166.8875
2249.35343	17133.9875
2252.25044	17080.0875
2255.14561	17051.1875
2258.03893	17042.8875
2260.93041	17024.3875
2263.82004	16955.3875
2266.70783	16916.6875
2269.59378	16875.9875
2272.4779	16863.1875
2275.36017	16815.0875
2278.24061	16810.1875
2281.11922	16781.8875
2283.996	16691.6875
2286.87094	16681.4875
2289.74405	16652.2875
2292.61534	16609.8875
2295.4848	16612.2875
2298.35243	16617.1875
2301.21824	16575.0875
2304.08223	16568.7875
2306.94439	16569.8875
2309.80474	16582.8875
2312.66327	16531.6875
2315.51999	16501.5875
2318.37489	16502.9875
2321.22797	16434.7875
2324.07925	16444.8875
2326.92871	16415.9875
2329.77637	16358.6875
2332.62222	16352.8875
2335.46626	16310.9875
2338.3085	16261.2875
2341.14893	16274.8875
2343.98756	16250.6875
2346.8244	16243.2875
2349.65943	16215.6875
2352.49267	16195.6875
2355.32411	16198.7875
2358.15376	16194.1875
2360.98161	16160.4875
2363.80768	16149.1875
2366.63195	16154.8875
2369.45444	16141.9875
2372.27514	16114.0875
2375.09405	16098.9875
2377.91118	16074.6875
2380.72652	16000.3875
2383.54009	16007.5875
2386.35187	15984.2875
2389.16188	15958.9875
2391.97011	15901.0875
2394.77657	15878.3875
2397.58125	15835.3875
2400.38416	15805.7875
2403.18529	15801.0875
2405.98466	15765.3875
2408.78226	15702.9875
2411.57809	15728.2875
2414.37216	15699.1875
2417.16446	15701.8875
2419.955	15646.9875
2422.74378	15639.3875
2425.5308	15636.5875
2428.31606	15620.4875
2431.09956	15605.3875
2433.88131	15567.0875
2436.6613	15541.9875
2439.43954	15529.9875
2442.21603	15505.5875
2444.99077	15490.0875
2447.76377	15481.9875
2450.53501	15469.1875
2453.30451	15473.2875
2456.07226	15463.7875
2458.83827	15425.5875
2461.60254	15411.0875
2464.36507	15387.8875
2467.12586	15410.8875
2469.88492	15385.9875
2472.64224	15380.3875
2475.39782	15326.8875
2478.15167	15319.7875
2480.90379	15292.4875
2483.65417	15271.9875
2486.40283	15275.5875
2489.14976	15275.0875
2491.89497	15247.6875
2494.63845	15238.3875
2497.3802	15229.1875
2500.12024	15202.8875
2502.85855	15169.9875
2505.59514	15170.1875
2508.33002	15165.6875
2511.06318	15138.6875
2513.79462	15119.7875
2516.52435	15114.9875
2519.25237	15096.0875
2521.97867	15069.7875
2524.70327	15043.1875
2527.42616	14995.8875
2530.14734	15011.6875
2532.86681	15006.9875
2535.58458	14987.3875
2538.30065	14942.2875
2541.01501	14907.4875
2543.72768	14876.3875
2546.43864	14860.8875
2549.14791	14861.4875
2551.85548	14824.9875
2554.56136	14785.1875
2557.26554	14746.2875
2559.96803	14731.2875
2562.66883	14704.4875
2565.36794	14684.2875
2568.06536	14722.5875
2570.7611	14651.7875
2573.45514	14611.0875
2576.14751	14597.7875
2578.83819	14563.2875
2581.52719	14533.9875
2584.21451	14516.5875
2586.90015	14493.9875
2589.58411	14461.3875
2592.2664	14437.4875
2594.94701	14394.8875
2597.62594	14367.3875
2600.30321	14336.0875
2602.9788	14297.7875
2605.65273	14299.9875
2608.32498	14301.5875
2610.99557	14266.4875
2613.66449	14262.9875
2616.33175	14202.0875
2618.99734	14198.7875
2621.66128	14200.7875
2624.32355	14146.8875
2626.98416	14139.5875
2629.64311	14121.9875
2632.30041	14099.3875
2634.95605	14099.1875
2637.61004	14054.4875
2640.26238	14031.2875
2642.91306	14028.7875
2645.56209	14047.1875
2648.20948	14014.5875
2650.85521	13997.7875
2653.4993	13979.8875
2656.14175	13972.2875
2658.78255	13984.5875
2661.42171	13952.2875
2664.05923	13965.2875
2666.6951	13952.7875
2669.32934	13961.7875
2671.96194	13939.8875
2674.59291	13942.8875
2677.22224	13941.5875
2679.84993	13945.9875
2682.476	13939.3875
2685.10043	13939.1875
2687.72324	13918.3875
2690.34441	13904.2875
2692.96396	13894.6875
2695.58188	13911.7875
2698.19818	13888.9875
2700.81285	13881.5875
2703.4259	13893.1875
2706.03733	13907.1875
2708.64714	13918.9875
2711.25533	13901.0875
2713.86191	13879.6875
2716.46687	13925.2875
2719.07021	13898.6875
2721.67194	13905.2875
2724.27206	13849.0875
2726.87057	13901.3875
2729.46747	13862.9875
2732.06276	13872.5875
2734.65644	13840.0875
2737.24852	13839.9875
2739.83899	13822.3875
2742.42786	13841.0875
2745.01513	13798.7875
2747.60079	13762.4875
2750.18486	13754.0875
2752.76733	13763.4875
2755.3482	13734.0875
2757.92747	13699.5875
2760.50515	13678.1875
2763.08123	13662.8875
2765.65573	13646.1875
2768.22863	13628.1875
2770.79994	13600.4875
2773.36967	13596.4875
2775.9378	13547.3875
2778.50435	13543.7875
2781.06932	13526.8875
2783.6327	13511.5875
2786.1945	13500.0875
2788.75471	13481.2875
2791.31335	13416.1875
2793.87041	13403.6875
2796.42589	13342.4875
2798.97979	13352.2875
2801.53212	13305.4875
2804.08288	13312.6875
2806.63206	13228.3875
2809.17967	13230.0875
2811.72571	13218.9875
2814.27018	13196.5875
2816.81308	13165.3875
2819.35442	13162.9875
2821.89419	13115.3875
2824.43239	13090.2875
2826.96904	13066.8875
2829.50412	13073.8875
2832.03763	13042.7875
2834.56959	13009.1875
2837.1	12997.0875
2839.62884	12957.7875
2842.15613	12980.0875
2844.68186	12963.1875
2847.20604	12947.8875
2849.72867	12927.9875
2852.24974	12950.2875
2854.76927	12932.4875
2857.28724	12887.0875
2859.80367	12882.5875
2862.31855	12854.1875
2864.83189	12814.9875
2867.34368	12832.1875
2869.85393	12830.8875
2872.36264	12825.4875
2874.8698	12795.8875
2877.37543	12807.1875
2879.87952	12802.4875
2882.38207	12785.8875
2884.88308	12775.7875
2887.38256	12780.2875
2889.88051	12768.4875
2892.37692	12773.0875
2894.8718	12744.9875
2897.36515	12759.1875
2899.85698	12739.5875
2902.34727	12772.6875
2904.83604	12769.6875
2907.32328	12764.8875
2909.809	12746.4875
2912.29319	12764.8875
2914.77587	12724.2875
2917.25702	12756.1875
2919.73665	12709.6875
2922.21476	12699.4875
2924.69136	12714.9875
2927.16644	12706.4875
2929.64	12694.7875
2932.11205	12683.6875
2934.58258	12619.6875
2937.05161	12643.5875
2939.51912	12651.5875
2941.98513	12623.7875
2944.44962	12583.2875
2946.91261	12561.5875
2949.37409	12581.2875
2951.83407	12587.5875
2954.29254	12596.7875
2956.74951	12557.3875
2959.20498	12539.5875
2961.65895	12506.4875
2964.11142	12517.0875
2966.56239	12495.2875
2969.01186	12499.8875
2971.45984	12462.2875
2973.90632	12428.0875
2976.35131	12412.6875
2978.7948	12435.3875
2981.23681	12345.4875
2983.67732	12359.3875
2986.11635	12339.3875
2988.55388	12272.9875
2990.98993	12278.4875
2993.4245	12262.6875
2995.85758	12209.8875
2998.28917	12183.6875
3000.71928	12177.6875
3003.14791	12149.9875
3005.57506	12155.1875
3008.00073	12114.3875
3010.42493	12123.4875
3012.84764	12082.6875
3015.26888	12102.1875
3017.68865	12059.6875
3020.10694	12037.2875
3022.52376	12036.3875
3024.9391	12004.1875
3027.35298	11975.2875
3029.76539	11961.8875
3032.17632	11951.2875
3034.5858	11891.6875
3036.9938	11882.3875
3039.40034	11876.8875
3041.80542	11865.2875
3044.20903	11820.7875
3046.61118	11799.7875
3049.01187	11804.8875
3051.4111	11787.3875
3053.80888	11757.9875
3056.20519	11737.9875
3058.60005	11706.0875
3060.99345	11698.9875
3063.3854	11707.9875
3065.7759	11657.4875
3068.16494	11650.1875
3070.55254	11607.6875
3072.93868	11588.4875
3075.32338	11556.2875
3077.70662	11563.3875
3080.08842	11509.3875
3082.46878	11522.1875
3084.84769	11486.3875
3087.22515	11508.5875
3089.60118	11477.5875
3091.97576	11464.7875
3094.3489	11469.1875
3096.72061	11449.8875
3099.09087	11451.2875
3101.4597	11432.4875
3103.82709	11438.7875
3106.19305	11404.4875
3108.55757	11407.6875
3110.92066	11363.4875
3113.28232	11347.7875
3115.64255	11325.8875
3118.00134	11302.0875
3120.35871	11287.6875
3122.71466	11275.0875
3125.06917	11253.3875
3127.42226	11221.5875
3129.77393	11229.5875
3132.12417	11211.8875
3134.47299	11214.1875
3136.82039	11192.4875
3139.16636	11186.7875
3141.51092	11213.7875
3143.85406	11192.9875
3146.19579	11231.5875
3148.53609	11211.1875
3150.87499	11222.1875
3153.21246	11224.9875
3155.54853	11221.5875
3157.88318	11211.8875
3160.21642	11213.1875
3162.54826	11201.8875
3164.87868	11194.9875
3167.2077	11174.0875
3169.5353	11167.8875
3171.86151	11148.3875
3174.18631	11141.1875
3176.5097	11144.1875
3178.83169	11090.7875
3181.15228	11114.0875
3183.47147	11069.6875
3185.78926	11075.1875
3188.10565	11060.0875
3190.42065	11065.3875
3192.73424	11059.4875
3195.04645	11044.4875
3197.35725	11048.1875
3199.66667	11043.4875
3201.97469	11060.7875
3204.28132	11047.0875
3206.58656	11078.2875
3208.8904	11042.0875
3211.19287	11060.2875
3213.49394	11048.8875
3215.79363	11061.7875
3218.09193	11046.2875
3220.38884	11030.6875
3222.68438	11007.9875
3224.97853	11000.0875
3227.2713	10993.1875
3229.56269	10977.5875
3231.8527	10986.0875
3234.14133	10928.8875
3236.42858	10900.2875
3238.71446	10883.6875
3240.99896	10853.2875
3243.28209	10885.7875
3245.56384	10877.0875
3247.84423	10869.7875
3250.12324	10846.1875
3252.40088	10860.4875
3254.67715	10831.1875
3256.95205	10797.6875
3259.22558	10785.9875
3261.49775	10781.6875
3263.76855	10775.8875
3266.03799	10771.5875
3268.30606	10760.0875
3270.57277	10717.2875
3272.83812	10683.2875
3275.10211	10660.8875
3277.36474	10649.1875
3279.62601	10665.0875
3281.88593	10620.1875
3284.14448	10629.7875
3286.40168	10620.6875
3288.65753	10591.2875
3290.91202	10568.3875
3293.16516	10531.3875
3295.41695	10505.9875
3297.66738	10472.5875
3299.91647	10411.1875
3302.16421	10367.2875
3304.4106	10301.4875
3306.65564	10251.3875
3308.89933	10214.1875
3311.14169	10125.8875
3313.38269	10065.5875
3315.62236	9998.4875
3317.86068	9895.2875
3320.09766	9824.5875
3322.3333	9711.7875
3324.5676	9729.7875
3326.80056	9591.3875
3329.03219	9518.1875
3331.26248	2.8875
3333.49143	-0.1125
3335.71905	-0.8125
