Data from AgNPs_FTO_APTES_UA_2uM_R6G_10uM_NaF_0.1M_Addition_RamanShift__23__12-10-27-227.txt Node

Date: Fri Dec 17 12:10:27 GMT 2021
User: TCL
Spectrometer: QEP01345
Trigger mode: 4
Integration Time (sec): 7.000000E0
Scans to average: 10
Electric dark correction enabled: true
Nonlinearity correction enabled: false
Boxcar width: 0
XAxis mode: Raman Shifts
Number of Pixels in Spectrum: 1044
>>>>>Begin Spectral Data<<<<<
46.04893	-1.1625
50.45542	-1.1625
54.85868	-0.6625
59.25871	-0.6625
63.6555	122.6375
68.04907	122.1375
72.43941	129.1375
76.82654	138.8375
81.21044	137.7375
85.59113	145.6375
89.96862	151.7375
94.34289	152.0375
98.71396	162.6375
103.08183	166.6375
107.4465	168.0375
111.80798	170.2375
116.16626	177.1375
120.52136	178.0375
124.87327	192.3375
129.222	202.7375
133.56755	210.1375
137.90993	229.5375
142.24913	246.8375
146.58517	273.4375
150.91804	319.2375
155.24774	377.3375
159.57429	468.9375
163.89768	587.3375
168.21792	779.1375
172.53501	1051.9375
176.84895	1453.7375
181.15975	2048.6375
185.46741	2851.5375
189.77193	3941.2375
194.07331	5258.4375
198.37157	6796.7375
202.6667	8374.4375
206.9587	9978.9375
211.24758	11505.5375
215.53334	13066.8375
219.81599	14749.3375
224.09553	16622.3375
228.37195	18702.5375
232.64527	20962.7375
236.91549	23359.0375
241.18261	25703.0375
245.44663	27898.6375
249.70755	29778.9375
253.96539	31441.7375
258.22014	32812.2375
262.4718	34039.6375
266.72039	34937.3375
270.96589	35451.0375
275.20832	35509.3375
279.44768	35271.7375
283.68397	34854.1375
287.91719	34508.4375
292.14735	34260.7375
296.37445	34290.0375
300.59849	34563.9375
304.81948	34935.3375
309.03742	35170.0375
313.25231	34997.1375
317.46415	34124.2375
321.67296	32911.3375
325.87872	31894.5375
330.08145	31406.1375
334.28114	31447.9375
338.47781	31746.0375
342.67145	32269.0375
346.86207	32977.0375
351.04966	33963.7375
355.23424	35034.2375
359.4158	35998.0375
363.59435	36629.5375
367.76989	37029.7375
371.94243	37224.2375
376.11196	37325.5375
380.27849	37375.1375
384.44203	37535.7375
388.60257	37547.6375
392.76012	37709.1375
396.91468	38213.5375
401.06626	38852.3375
405.21485	39465.7375
409.36047	39248.4375
413.50311	38459.4375
417.64277	37701.6375
421.77947	37359.6375
425.9132	37344.2375
430.04396	37557.7375
434.17176	37756.6375
438.2966	38161.1375
442.41849	38747.1375
446.53742	39649.2375
450.6534	40708.3375
454.76644	41533.7375
458.87653	41915.4375
462.98368	41896.1375
467.08789	41371.3375
471.18916	40652.9375
475.2875	39800.7375
479.38291	39172.8375
483.4754	38682.6375
487.56496	38298.2375
491.6516	37832.1375
495.73531	37573.0375
499.81612	37452.8375
503.89401	37710.2375
507.96899	37941.6375
512.04106	38025.0375
516.11023	38168.4375
520.1765	38153.3375
524.23987	38058.5375
528.30034	37758.2375
532.35792	37279.7375
536.41261	36841.3375
540.46441	36321.8375
544.51333	36156.4375
548.55936	36463.0375
552.60252	37015.5375
556.64279	37597.2375
560.6802	37966.2375
564.71473	38203.4375
568.7464	38720.0375
572.7752	39416.2375
576.80114	39514.4375
580.82422	39633.0375
584.84444	39862.7375
588.86181	40098.1375
592.87633	40526.1375
596.888	41083.9375
600.89682	41932.2375
604.9028	44389.3375
608.90594	50218.1375
612.90624	56450.2375
616.90371	53763.2375
620.89834	43926.6375
624.89015	39405.5375
628.87913	38609.7375
632.86528	38570.3375
636.84862	38414.9375
640.82913	37817.2375
644.80683	36809.9375
648.78172	36081.2375
652.75379	36009.6375
656.72306	36629.8375
660.68952	37533.1375
664.65319	37427.8375
668.61405	36580.0375
672.57211	36251.8375
676.52738	36296.1375
680.47986	36272.8375
684.42955	36193.3375
688.37646	36143.3375
692.32058	36346.5375
696.26192	36657.7375
700.20048	37056.3375
704.13626	37219.2375
708.06928	36961.8375
711.99952	36617.1375
715.927	36543.0375
719.85171	36530.7375
723.77365	36413.1375
727.69284	36074.4375
731.60928	35790.5375
735.52295	35721.4375
739.43388	35885.5375
743.34206	35999.0375
747.24749	36212.6375
751.15017	36462.4375
755.05012	37030.5375
758.94733	38117.0375
762.8418	40150.8375
766.73354	43594.1375
770.62254	47041.7375
774.50882	48426.3375
778.39237	46357.7375
782.27321	42512.3375
786.15132	39276.5375
790.02671	37445.1375
793.89938	36574.8375
797.76935	36255.2375
801.6366	36054.4375
805.50115	35885.3375
809.36299	35696.1375
813.22213	35528.6375
817.07857	35434.3375
820.93231	35335.6375
824.78336	35341.4375
828.63172	35454.0375
832.47738	35447.2375
836.32036	35573.8375
840.16066	35670.9375
843.99827	35776.8375
847.8332	35740.9375
851.66546	35586.4375
855.49504	35448.5375
859.32195	35404.0375
863.1462	35288.8375
866.96777	35119.4375
870.78668	35066.8375
874.60293	35070.2375
878.41652	35078.6375
882.22745	35189.9375
886.03573	35334.3375
889.84136	35274.8375
893.64433	35173.6375
897.44466	35003.8375
901.24235	34868.9375
905.0374	34805.2375
908.8298	34809.8375
912.61957	34860.3375
916.40671	35073.5375
920.19121	35493.3375
923.97308	35932.7375
927.75233	36250.9375
931.52895	36298.7375
935.30295	35893.2375
939.07433	35296.1375
942.84309	34821.5375
946.60924	34571.1375
950.37278	34446.2375
954.13371	34190.7375
957.89203	33943.7375
961.64774	33771.1375
965.40086	33732.4375
969.15137	33615.8375
972.89929	33517.4375
976.64461	33539.6375
980.38733	33616.8375
984.12747	33841.9375
987.86502	34137.7375
991.59999	34637.6375
995.33237	35394.3375
999.06217	36577.0375
1002.78939	37919.6375
1006.51404	38895.6375
1010.23611	39396.9375
1013.95561	39668.5375
1017.67255	39568.6375
1021.38692	39099.4375
1025.09872	38859.9375
1028.80796	39378.9375
1032.51465	40690.7375
1036.21877	41957.1375
1039.92035	42158.2375
1043.61937	41473.0375
1047.31584	40157.7375
1051.00976	38661.6375
1054.70114	37829.3375
1058.38998	37497.5375
1062.07627	37538.8375
1065.76003	37642.2375
1069.44126	37891.7375
1073.11995	38328.5375
1076.79611	38736.3375
1080.46974	39074.6375
1084.14085	39414.8375
1087.80943	39832.0375
1091.47549	39901.9375
1095.13903	39497.8375
1098.80005	38763.9375
1102.45857	38085.9375
1106.11456	37672.7375
1109.76805	37708.0375
1113.41903	37988.0375
1117.06751	38407.1375
1120.71348	38904.4375
1124.35696	39388.8375
1127.99793	39878.1375
1131.63641	40083.8375
1135.2724	39561.8375
1138.90589	39027.1375
1142.5369	38564.2375
1146.16542	38231.4375
1149.79145	38105.0375
1153.415	38151.0375
1157.03607	38507.7375
1160.65467	39166.2375
1164.27079	40303.6375
1167.88443	42051.7375
1171.49561	44492.4375
1175.10432	47951.3375
1178.71056	52514.4375
1182.31434	56870.6375
1185.91565	59202.4375
1189.51451	59206.7375
1193.11091	57060.9375
1196.70485	53834.0375
1200.29634	51051.2375
1203.88538	48932.5375
1207.47197	47195.9375
1211.05612	45765.2375
1214.63782	44966.8375
1218.21708	44734.1375
1221.79391	45084.8375
1225.36829	45324.4375
1228.94024	45259.0375
1232.50976	44930.6375
1236.07685	44678.0375
1239.6415	44466.2375
1243.20374	44382.1375
1246.76355	44514.5375
1250.32093	45124.0375
1253.8759	46061.0375
1257.42845	47398.7375
1260.97859	48627.7375
1264.52631	49719.3375
1268.07163	50862.2375
1271.61453	52300.1375
1275.15503	53724.8375
1278.69312	55190.1375
1282.22882	56166.5375
1285.76211	57040.4375
1289.29301	57851.7375
1292.82151	58896.5375
1296.34761	60276.3375
1299.87133	62482.3375
1303.39266	65932.2375
1306.9116	70609.4375
1310.42815	75543.0375
1313.94233	79001.2375
1317.45412	79205.8375
1320.96354	77118.6375
1324.47058	74490.0375
1327.97525	71894.7375
1331.47754	70049.5375
1334.97747	69486.8375
1338.47502	69769.7375
1341.97022	70316.1375
1345.46305	70381.1375
1348.95352	70183.4375
1352.44163	70534.1375
1355.92738	72625.5375
1359.41078	77110.3375
1362.89183	81795.1375
1366.37053	80633.5375
1369.84688	72949.1375
1373.32088	64504.2375
1376.79254	58661.1375
1380.26186	55897.8375
1383.72883	54735.3375
1387.19347	53863.0375
1390.65578	52883.8375
1394.11575	52324.7375
1397.57339	52475.5375
1401.0287	53187.5375
1404.48168	54207.4375
1407.93234	55299.9375
1411.38068	55985.6375
1414.82669	55939.5375
1418.27039	54917.7375
1421.71177	53339.4375
1425.15083	51887.9375
1428.58758	51011.8375
1432.02203	50802.0375
1435.45416	51178.8375
1438.88399	51733.5375
1442.31151	52199.5375
1445.73673	52627.1375
1449.15965	52995.2375
1452.58027	53165.7375
1455.9986	53102.2375
1459.41463	53159.0375
1462.82837	53723.2375
1466.23982	54720.7375
1469.64898	55792.4375
1473.05586	56586.1375
1476.46045	57023.6375
1479.86276	57150.4375
1483.26279	57431.0375
1486.66054	57931.0375
1490.05602	58531.0375
1493.44922	59426.8375
1496.84016	60325.9375
1500.22882	61634.8375
1503.61521	63776.2375
1506.99934	66623.9375
1510.38121	69573.0375
1513.76081	70991.0375
1517.13816	69245.3375
1520.51324	65327.9375
1523.88607	61206.3375
1527.25665	58279.8375
1530.62498	56441.2375
1533.99105	55398.0375
1537.35488	54810.3375
1540.71647	54332.4375
1544.07581	53882.6375
1547.4329	53458.2375
1550.78776	53071.5375
1554.14038	52796.3375
1557.49077	52860.5375
1560.83892	52993.5375
1564.18484	53065.2375
1567.52853	53093.1375
1570.86999	53196.8375
1574.20922	53555.2375
1577.54624	53917.1375
1580.88103	53581.4375
1584.2136	53157.6375
1587.54395	53735.7375
1590.87208	55792.3375
1594.19801	59035.5375
1597.52172	62551.1375
1600.84321	63875.3375
1604.16251	61837.7375
1607.47959	57772.1375
1610.79447	53486.5375
1614.10715	49449.8375
1617.41763	46176.4375
1620.7259	44020.8375
1624.03199	43005.6375
1627.33587	43150.6375
1630.63757	44313.6375
1633.93707	46589.0375
1637.23439	49743.0375
1640.52951	53625.7375
1643.82246	57664.6375
1647.11321	60780.6375
1650.40179	61555.1375
1653.68819	58586.3375
1656.97241	52371.8375
1660.25446	45996.3375
1663.53433	41296.9375
1666.81203	38330.2375
1670.08756	36487.3375
1673.36092	35321.9375
1676.63211	34494.9375
1679.90115	33973.2375
1683.16801	33546.8375
1686.43272	33251.6375
1689.69527	33004.3375
1692.95567	32812.7375
1696.2139	32677.7375
1699.46999	32609.0375
1702.72392	32530.0375
1705.97571	32511.5375
1709.22535	32510.9375
1712.47284	32489.4375
1715.71819	32459.0375
1718.96139	32423.0375
1722.20246	32294.5375
1725.44139	32194.6375
1728.67818	32002.5375
1731.91284	31849.5375
1735.14537	31762.2375
1738.37576	31635.8375
1741.60403	31465.5375
1744.83017	31357.9375
1748.05418	31319.5375
1751.27607	31255.1375
1754.49584	31192.9375
1757.71349	31176.7375
1760.92903	31204.5375
1764.14244	31195.6375
1767.35375	31191.5375
1770.56294	31132.4375
1773.77002	31083.1375
1776.97499	31048.2375
1780.17785	31001.1375
1783.37861	30990.0375
1786.57727	30939.7375
1789.77382	30923.9375
1792.96828	30831.8375
1796.16064	30835.3375
1799.3509	30821.3375
1802.53907	30775.8375
1805.72514	30718.2375
1808.90913	30668.9375
1812.09102	30604.0375
1815.27083	30584.6375
1818.44856	30511.1375
1821.6242	30508.0375
1824.79776	30519.8375
1827.96924	30462.0375
1831.13864	30415.2375
1834.30597	30461.7375
1837.47122	30502.7375
1840.6344	30467.2375
1843.7955	30481.3375
1846.95454	30472.1375
1850.11151	30523.8375
1853.26642	30507.5375
1856.41926	30492.7375
1859.57004	30547.0375
1862.71876	30540.1375
1865.86542	30560.0375
1869.01003	30565.2375
1872.15258	30542.6375
1875.29308	30604.2375
1878.43152	30591.4375
1881.56792	30577.7375
1884.70227	30617.0375
1887.83457	30644.5375
1890.96482	30636.0375
1894.09304	30644.8375
1897.21921	30608.7375
1900.34335	30645.4375
1903.46544	30642.3375
1906.58551	30636.9375
1909.70353	30676.3375
1912.81953	30626.1375
1915.93349	30555.8375
1919.04543	30492.2375
1922.15534	30431.1375
1925.26322	30377.4375
1928.36908	30302.0375
1931.47292	30211.1375
1934.57473	30070.4375
1937.67453	29948.1375
1940.77232	29872.9375
1943.86808	29722.3375
1946.96184	29681.8375
1950.05358	29533.5375
1953.14331	29425.7375
1956.23103	29350.2375
1959.31675	29229.6375
1962.40046	29103.6375
1965.48217	29094.1375
1968.56188	29009.9375
1971.63959	28907.2375
1974.7153	28885.4375
1977.78901	28772.4375
1980.86073	28647.9375
1983.93046	28585.6375
1986.99819	28472.0375
1990.06394	28391.0375
1993.1277	28320.5375
1996.18947	28197.1375
1999.24925	28166.6375
2002.30706	28083.3375
2005.36288	27950.5375
2008.41672	27940.1375
2011.46859	27832.1375
2014.51848	27768.4375
2017.56639	27674.5375
2020.61233	27608.0375
2023.6563	27603.2375
2026.6983	27601.1375
2029.73833	27515.0375
2032.7764	27466.5375
2035.8125	27412.2375
2038.84664	27432.8375
2041.87881	27395.4375
2044.90903	27341.4375
2047.93729	27290.3375
2050.96359	27249.0375
2053.98794	27177.5375
2057.01034	27206.8375
2060.03078	27181.1375
2063.04927	27164.0375
2066.06582	27165.8375
2069.08042	27119.0375
2072.09307	27105.8375
2075.10378	27078.8375
2078.11255	27021.6375
2081.11938	27042.2375
2084.12426	26990.6375
2087.12722	26934.7375
2090.12824	26992.2375
2093.12732	26948.6375
2096.12447	26976.7375
2099.11969	26981.4375
2102.11299	26965.2375
2105.10435	26978.9375
2108.09379	27054.9375
2111.08131	27091.5375
2114.0669	27044.3375
2117.05057	27086.7375
2120.03233	27066.7375
2123.01216	27077.6375
2125.99008	27125.6375
2128.96609	27147.7375
2131.94018	27158.8375
2134.91236	27151.6375
2137.88263	27179.4375
2140.851	27180.4375
2143.81746	27234.7375
2146.78201	27225.9375
2149.74466	27275.7375
2152.7054	27231.8375
2155.66425	27240.1375
2158.6212	27245.2375
2161.57625	27258.3375
2164.52941	27252.1375
2167.48067	27215.0375
2170.43004	27239.2375
2173.37752	27242.8375
2176.32311	27232.0375
2179.26681	27270.7375
2182.20863	27251.5375
2185.14856	27296.5375
2188.08661	27263.9375
2191.02278	27299.5375
2193.95707	27272.6375
2196.88948	27270.4375
2199.82001	27325.3375
2202.74867	27265.5375
2205.67545	27263.2375
2208.60037	27308.0375
2211.52341	27261.4375
2214.44458	27273.7375
2217.36388	27191.4375
2220.28132	27180.2375
2223.1969	27119.3375
2226.11061	27085.9375
2229.02246	27025.9375
2231.93245	27006.5375
2234.84058	26913.7375
2237.74686	26873.3375
2240.65128	26883.1375
2243.55385	26797.7375
2246.45456	26763.3375
2249.35343	26768.4375
2252.25044	26707.0375
2255.14561	26656.6375
2258.03893	26667.8375
2260.93041	26599.9375
2263.82004	26589.2375
2266.70783	26525.0375
2269.59378	26477.4375
2272.4779	26406.1375
2275.36017	26326.4375
2278.24061	26342.4375
2281.11922	26227.2375
2283.996	26242.1375
2286.87094	26216.0375
2289.74405	26170.7375
2292.61534	26158.9375
2295.4848	26145.0375
2298.35243	26150.2375
2301.21824	26168.3375
2304.08223	26193.0375
2306.94439	26193.1375
2309.80474	26222.7375
2312.66327	26280.2375
2315.51999	26263.5375
2318.37489	26255.1375
2321.22797	26256.6375
2324.07925	26237.9375
2326.92871	26201.5375
2329.77637	26160.2375
2332.62222	26167.2375
2335.46626	26157.5375
2338.3085	26129.7375
2341.14893	26202.0375
2343.98756	26256.4375
2346.8244	26214.8375
2349.65943	26236.1375
2352.49267	26214.4375
2355.32411	26189.0375
2358.15376	26178.2375
2360.98161	26147.8375
2363.80768	26109.7375
2366.63195	26117.4375
2369.45444	26017.5375
2372.27514	25934.7375
2375.09405	25935.0375
2377.91118	25888.5375
2380.72652	25814.4375
2383.54009	25739.6375
2386.35187	25698.0375
2389.16188	25629.0375
2391.97011	25621.0375
2394.77657	25584.5375
2397.58125	25577.5375
2400.38416	25532.7375
2403.18529	25475.4375
2405.98466	25449.8375
2408.78226	25344.7375
2411.57809	25322.9375
2414.37216	25269.7375
2417.16446	25260.7375
2419.955	25201.6375
2422.74378	25166.7375
2425.5308	25182.3375
2428.31606	25147.6375
2431.09956	25154.9375
2433.88131	25082.4375
2436.6613	25094.9375
2439.43954	25128.8375
2442.21603	25127.4375
2444.99077	25083.6375
2447.76377	25103.4375
2450.53501	25076.0375
2453.30451	25071.6375
2456.07226	25098.4375
2458.83827	25084.4375
2461.60254	25080.1375
2464.36507	25059.7375
2467.12586	25047.1375
2469.88492	25068.9375
2472.64224	25051.8375
2475.39782	25021.4375
2478.15167	25056.0375
2480.90379	25006.6375
2483.65417	25069.2375
2486.40283	25070.7375
2489.14976	25150.3375
2491.89497	25098.7375
2494.63845	25149.8375
2497.3802	25129.2375
2500.12024	25132.9375
2502.85855	25150.6375
2505.59514	25048.9375
2508.33002	25095.5375
2511.06318	25048.8375
2513.79462	25018.3375
2516.52435	24961.7375
2519.25237	25000.3375
2521.97867	24960.5375
2524.70327	24941.1375
2527.42616	24905.4375
2530.14734	24898.6375
2532.86681	24840.5375
2535.58458	24877.9375
2538.30065	24847.8375
2541.01501	24868.0375
2543.72768	24782.4375
2546.43864	24770.3375
2549.14791	24770.5375
2551.85548	24732.4375
2554.56136	24692.5375
2557.26554	24710.9375
2559.96803	24669.2375
2562.66883	24641.7375
2565.36794	24662.6375
2568.06536	24666.9375
2570.7611	24626.3375
2573.45514	24613.5375
2576.14751	24621.1375
2578.83819	24529.1375
2581.52719	24567.3375
2584.21451	24582.4375
2586.90015	24591.7375
2589.58411	24552.0375
2592.2664	24546.0375
2594.94701	24532.5375
2597.62594	24517.4375
2600.30321	24508.8375
2602.9788	24471.6375
2605.65273	24448.6375
2608.32498	24459.3375
2610.99557	24434.3375
2613.66449	24477.9375
2616.33175	24451.8375
2618.99734	24484.3375
2621.66128	24498.6375
2624.32355	24460.6375
2626.98416	24476.0375
2629.64311	24444.9375
2632.30041	24472.3375
2634.95605	24409.9375
2637.61004	24401.2375
2640.26238	24368.8375
2642.91306	24383.6375
2645.56209	24317.9375
2648.20948	24277.9375
2650.85521	24292.0375
2653.4993	24267.4375
2656.14175	24256.8375
2658.78255	24252.2375
2661.42171	24251.1375
2664.05923	24314.6375
2666.6951	24335.9375
2669.32934	24330.6375
2671.96194	24321.1375
2674.59291	24372.8375
2677.22224	24353.2375
2679.84993	24364.3375
2682.476	24348.9375
2685.10043	24377.2375
2687.72324	24281.1375
2690.34441	24287.5375
2692.96396	24238.2375
2695.58188	24281.4375
2698.19818	24249.9375
2700.81285	24270.7375
2703.4259	24232.1375
2706.03733	24223.8375
2708.64714	24261.2375
2711.25533	24267.3375
2713.86191	24258.2375
2716.46687	24259.9375
2719.07021	24271.6375
2721.67194	24266.3375
2724.27206	24236.1375
2726.87057	24256.3375
2729.46747	24252.6375
2732.06276	24273.8375
2734.65644	24260.5375
2737.24852	24266.3375
2739.83899	24225.6375
2742.42786	24254.7375
2745.01513	24241.8375
2747.60079	24230.1375
2750.18486	24229.9375
2752.76733	24284.8375
2755.3482	24211.2375
2757.92747	24237.1375
2760.50515	24197.4375
2763.08123	24193.6375
2765.65573	24152.0375
2768.22863	24149.6375
2770.79994	24120.5375
2773.36967	24146.6375
2775.9378	24150.1375
2778.50435	24081.5375
2781.06932	24092.5375
2783.6327	24062.2375
2786.1945	24052.5375
2788.75471	24040.7375
2791.31335	23985.9375
2793.87041	23967.0375
2796.42589	23899.2375
2798.97979	23921.5375
2801.53212	23835.7375
2804.08288	23838.1375
2806.63206	23763.3375
2809.17967	23706.9375
2811.72571	23713.7375
2814.27018	23691.2375
2816.81308	23681.0375
2819.35442	23661.6375
2821.89419	23658.7375
2824.43239	23626.0375
2826.96904	23594.2375
2829.50412	23611.7375
2832.03763	23583.7375
2834.56959	23547.8375
2837.1	23514.9375
2839.62884	23557.6375
2842.15613	23504.3375
2844.68186	23476.3375
2847.20604	23478.3375
2849.72867	23486.7375
2852.24974	23473.9375
2854.76927	23436.6375
2857.28724	23408.9375
2859.80367	23391.4375
2862.31855	23398.2375
2864.83189	23401.4375
2867.34368	23327.2375
2869.85393	23369.6375
2872.36264	23348.2375
2874.8698	23366.0375
2877.37543	23371.6375
2879.87952	23349.3375
2882.38207	23384.4375
2884.88308	23371.9375
2887.38256	23424.3375
2889.88051	23403.8375
2892.37692	23403.2375
2894.8718	23420.3375
2897.36515	23416.9375
2899.85698	23429.9375
2902.34727	23476.6375
2904.83604	23468.3375
2907.32328	23510.4375
2909.809	23506.3375
2912.29319	23507.2375
2914.77587	23460.8375
2917.25702	23501.9375
2919.73665	23438.1375
2922.21476	23466.5375
2924.69136	23446.0375
2927.16644	23445.3375
2929.64	23365.9375
2932.11205	23325.6375
2934.58258	23278.1375
2937.05161	23289.9375
2939.51912	23300.7375
2941.98513	23290.6375
2944.44962	23254.1375
2946.91261	23161.9375
2949.37409	23197.9375
2951.83407	23200.0375
2954.29254	23175.3375
2956.74951	23107.9375
2959.20498	23146.4375
2961.65895	23063.7375
2964.11142	23042.9375
2966.56239	22974.5375
2969.01186	22977.4375
2971.45984	22903.9375
2973.90632	22870.0375
2976.35131	22848.8375
2978.7948	22780.1375
2981.23681	22731.2375
2983.67732	22707.7375
2986.11635	22601.1375
2988.55388	22586.6375
2990.98993	22510.7375
2993.4245	22486.9375
2995.85758	22459.1375
2998.28917	22425.1375
3000.71928	22376.7375
3003.14791	22391.0375
3005.57506	22363.8375
3008.00073	22285.6375
3010.42493	22262.7375
3012.84764	22238.6375
3015.26888	22215.6375
3017.68865	22169.5375
3020.10694	22169.9375
3022.52376	22080.2375
3024.9391	22064.0375
3027.35298	21982.7375
3029.76539	21989.2375
3032.17632	21924.4375
3034.5858	21902.6375
3036.9938	21889.4375
3039.40034	21872.1375
3041.80542	21829.3375
3044.20903	21783.3375
3046.61118	21784.4375
3049.01187	21715.4375
3051.4111	21735.8375
3053.80888	21677.4375
3056.20519	21628.8375
3058.60005	21572.8375
3060.99345	21572.3375
3063.3854	21517.8375
3065.7759	21437.4375
3068.16494	21384.2375
3070.55254	21292.3375
3072.93868	21278.1375
3075.32338	21214.1375
3077.70662	21215.0375
3080.08842	21157.9375
3082.46878	21142.9375
3084.84769	21110.4375
3087.22515	21107.5375
3089.60118	21041.0375
3091.97576	21026.3375
3094.3489	21077.9375
3096.72061	21050.9375
3099.09087	21039.3375
3101.4597	21021.0375
3103.82709	20989.9375
3106.19305	20923.0375
3108.55757	20934.3375
3110.92066	20862.6375
3113.28232	20820.3375
3115.64255	20770.3375
3118.00134	20731.7375
3120.35871	20704.4375
3122.71466	20622.6375
3125.06917	20636.4375
3127.42226	20569.8375
3129.77393	20574.3375
3132.12417	20528.1375
3134.47299	20525.8375
3136.82039	20531.0375
3139.16636	20546.6375
3141.51092	20534.5375
3143.85406	20504.6375
3146.19579	20541.2375
3148.53609	20516.8375
3150.87499	20557.2375
3153.21246	20518.0375
3155.54853	20578.6375
3157.88318	20496.5375
3160.21642	20486.5375
3162.54826	20502.9375
3164.87868	20464.1375
3167.2077	20426.6375
3169.5353	20453.0375
3171.86151	20388.4375
3174.18631	20411.4375
3176.5097	20379.7375
3178.83169	20367.1375
3181.15228	20366.5375
3183.47147	20349.8375
3185.78926	20297.7375
3188.10565	20272.2375
3190.42065	20327.7375
3192.73424	20285.4375
3195.04645	20296.8375
3197.35725	20312.2375
3199.66667	20294.3375
3201.97469	20305.0375
3204.28132	20280.3375
3206.58656	20325.7375
3208.8904	20322.4375
3211.19287	20311.6375
3213.49394	20324.5375
3215.79363	20304.8375
3218.09193	20319.1375
3220.38884	20309.6375
3222.68438	20254.3375
3224.97853	20238.3375
3227.2713	20238.4375
3229.56269	20199.9375
3231.8527	20194.1375
3234.14133	20159.4375
3236.42858	20140.6375
3238.71446	20085.8375
3240.99896	20030.9375
3243.28209	20085.1375
3245.56384	20062.6375
3247.84423	20060.5375
3250.12324	20024.1375
3252.40088	20035.2375
3254.67715	20039.9375
3256.95205	19963.3375
3259.22558	19965.8375
3261.49775	19952.6375
3263.76855	19900.6375
3266.03799	19852.0375
3268.30606	19863.9375
3270.57277	19816.0375
3272.83812	19808.4375
3275.10211	19737.9375
3277.36474	19721.1375
3279.62601	19761.6375
3281.88593	19713.0375
3284.14448	19750.1375
3286.40168	19730.7375
3288.65753	19701.2375
3290.91202	19696.7375
3293.16516	19621.3375
3295.41695	19558.6375
3297.66738	19448.0375
3299.91647	19362.6375
3302.16421	19276.5375
3304.4106	19184.0375
3306.65564	19125.6375
3308.89933	18974.3375
3311.14169	18895.4375
3313.38269	18740.0375
3315.62236	18652.7375
3317.86068	18488.6375
3320.09766	18320.8375
3322.3333	18183.7375
3324.5676	18182.8375
3326.80056	17867.8375
3329.03219	17791.5375
3331.26248	3.7375
3333.49143	1.4375
3335.71905	-0.3625
