Data from AgNPs_FTO_APTES_UA_100uM_R6G_10uM_NaF_0.1M_Addition_RamanShift__7__15-25-17-450.txt Node

Date: Fri Dec 17 15:25:17 GMT 2021
User: TCL
Spectrometer: QEP01345
Trigger mode: 4
Integration Time (sec): 7.000000E0
Scans to average: 10
Electric dark correction enabled: true
Nonlinearity correction enabled: false
Boxcar width: 0
XAxis mode: Raman Shifts
Number of Pixels in Spectrum: 1044
>>>>>Begin Spectral Data<<<<<
46.04893	-0.5625
50.45542	-0.7625
54.85868	-1.4625
59.25871	0.9375
63.6555	62.0375
68.04907	61.9375
72.43941	65.4375
76.82654	70.6375
81.21044	71.2375
85.59113	74.7375
89.96862	80.0375
94.34289	83.0375
98.71396	84.5375
103.08183	88.2375
107.4465	90.4375
111.80798	89.4375
116.16626	94.1375
120.52136	94.7375
124.87327	101.2375
129.222	102.8375
133.56755	104.1375
137.90993	110.6375
142.24913	118.9375
146.58517	128.7375
150.91804	144.4375
155.24774	166.2375
159.57429	207.3375
163.89768	253.5375
168.21792	331.8375
172.53501	441.9375
176.84895	604.0375
181.15975	841.5375
185.46741	1170.3375
189.77193	1621.0375
194.07331	2162.8375
198.37157	2788.2375
202.6667	3443.8375
206.9587	4098.4375
211.24758	4733.1375
215.53334	5409.7375
219.81599	6056.5375
224.09553	6797.0375
228.37195	7638.5375
232.64527	8553.9375
236.91549	9556.3375
241.18261	10570.4375
245.44663	11493.7375
249.70755	12287.0375
253.96539	13033.3375
258.22014	13620.9375
262.4718	14123.5375
266.72039	14433.3375
270.96589	14645.7375
275.20832	14685.6375
279.44768	14562.9375
283.68397	14394.4375
287.91719	14247.1375
292.14735	14163.6375
296.37445	14138.4375
300.59849	14219.8375
304.81948	14277.9375
309.03742	14285.2375
313.25231	14136.2375
317.46415	13822.4375
321.67296	13462.5375
325.87872	13153.9375
330.08145	12998.1375
334.28114	13014.6375
338.47781	13108.7375
342.67145	13276.2375
346.86207	13476.2375
351.04966	13740.1375
355.23424	13988.0375
359.4158	14252.4375
363.59435	14413.7375
367.76989	14528.6375
371.94243	14704.5375
376.11196	14786.8375
380.27849	14841.7375
384.44203	14915.6375
388.60257	14951.1375
392.76012	15033.8375
396.91468	15213.2375
401.06626	15350.4375
405.21485	15532.0375
409.36047	15451.4375
413.50311	15217.5375
417.64277	14985.9375
421.77947	14815.0375
425.9132	14768.7375
430.04396	14799.2375
434.17176	14890.7375
438.2966	14989.5375
442.41849	15106.3375
446.53742	15265.8375
450.6534	15492.9375
454.76644	15666.5375
458.87653	15772.3375
462.98368	15787.1375
467.08789	15781.3375
471.18916	15710.2375
475.2875	15600.9375
479.38291	15504.6375
483.4754	15388.2375
487.56496	15269.4375
491.6516	15192.6375
495.73531	15156.8375
499.81612	15149.3375
503.89401	15230.3375
507.96899	15300.2375
512.04106	15335.3375
516.11023	15380.9375
520.1765	15357.6375
524.23987	15325.3375
528.30034	15210.0375
532.35792	15155.3375
536.41261	15059.5375
540.46441	14951.2375
544.51333	14963.1375
548.55936	15086.0375
552.60252	15263.8375
556.64279	15463.6375
560.6802	15563.9375
564.71473	15617.4375
568.7464	15686.6375
572.7752	15826.1375
576.80114	15925.9375
580.82422	16021.6375
584.84444	16158.3375
588.86181	16195.4375
592.87633	16145.1375
596.888	16145.9375
600.89682	16310.6375
604.9028	16947.7375
608.90594	18470.1375
612.90624	20225.3375
616.90371	19502.4375
620.89834	16795.3375
624.89015	15452.6375
628.87913	15310.6375
632.86528	15501.5375
636.84862	15687.1375
640.82913	15638.1375
644.80683	15319.0375
648.78172	15051.6375
652.75379	14964.6375
656.72306	15073.7375
660.68952	15261.8375
664.65319	15247.1375
668.61405	15000.2375
672.57211	14902.1375
676.52738	14900.0375
680.47986	14911.2375
684.42955	14858.5375
688.37646	14814.7375
692.32058	14822.8375
696.26192	14886.1375
700.20048	14994.8375
704.13626	15083.1375
708.06928	15102.0375
711.99952	15045.6375
715.927	15016.1375
719.85171	15007.7375
723.77365	15003.9375
727.69284	14908.3375
731.60928	14800.2375
735.52295	14742.7375
739.43388	14742.2375
743.34206	14771.7375
747.24749	14824.2375
751.15017	14868.5375
755.05012	14998.7375
758.94733	15286.6375
762.8418	15869.8375
766.73354	16942.3375
770.62254	18079.4375
774.50882	18636.5375
778.39237	18061.8375
782.27321	16848.0375
786.15132	15827.6375
790.02671	15192.2375
793.89938	14872.0375
797.76935	14728.0375
801.6366	14646.4375
805.50115	14620.7375
809.36299	14574.6375
813.22213	14560.6375
817.07857	14553.0375
820.93231	14532.0375
824.78336	14506.4375
828.63172	14475.9375
832.47738	14421.4375
836.32036	14435.0375
840.16066	14398.1375
843.99827	14364.6375
847.8332	14393.5375
851.66546	14349.4375
855.49504	14358.0375
859.32195	14366.0375
863.1462	14349.5375
866.96777	14328.5375
870.78668	14338.5375
874.60293	14344.3375
878.41652	14373.0375
882.22745	14398.0375
886.03573	14486.5375
889.84136	14482.3375
893.64433	14449.4375
897.44466	14407.4375
901.24235	14393.7375
905.0374	14333.2375
908.8298	14300.5375
912.61957	14252.5375
916.40671	14318.3375
920.19121	14408.4375
923.97308	14430.7375
927.75233	14410.1375
931.52895	14387.2375
935.30295	14284.9375
939.07433	14164.5375
942.84309	14003.9375
946.60924	13892.7375
950.37278	13839.9375
954.13371	13762.9375
957.89203	13748.7375
961.64774	13762.9375
965.40086	13709.4375
969.15137	13640.3375
972.89929	13663.0375
976.64461	13633.3375
980.38733	13612.3375
984.12747	13620.1375
987.86502	13650.6375
991.59999	13688.2375
995.33237	13725.6375
999.06217	13828.1375
1002.78939	13963.3375
1006.51404	14079.2375
1010.23611	14234.5375
1013.95561	14306.9375
1017.67255	14323.6375
1021.38692	14298.3375
1025.09872	14189.4375
1028.80796	14075.0375
1032.51465	14051.9375
1036.21877	14095.0375
1039.92035	14063.7375
1043.61937	14145.9375
1047.31584	14187.9375
1051.00976	14216.2375
1054.70114	14254.8375
1058.38998	14313.1375
1062.07627	14409.7375
1065.76003	14572.3375
1069.44126	14710.0375
1073.11995	14909.1375
1076.79611	15064.2375
1080.46974	15130.6375
1084.14085	15126.3375
1087.80943	15154.1375
1091.47549	15223.3375
1095.13903	15234.9375
1098.80005	15149.5375
1102.45857	14950.1375
1106.11456	14704.9375
1109.76805	14591.6375
1113.41903	14577.8375
1117.06751	14708.9375
1120.71348	14906.8375
1124.35696	15048.2375
1127.99793	15291.3375
1131.63641	15430.9375
1135.2724	15299.3375
1138.90589	15139.2375
1142.5369	14987.8375
1146.16542	14877.0375
1149.79145	14818.9375
1153.415	14781.2375
1157.03607	14813.4375
1160.65467	14963.9375
1164.27079	15248.4375
1167.88443	15690.9375
1171.49561	16296.4375
1175.10432	17124.0375
1178.71056	18228.7375
1182.31434	19225.5375
1185.91565	19735.3375
1189.51451	19872.5375
1193.11091	19571.1375
1196.70485	19030.9375
1200.29634	18372.7375
1203.88538	17836.9375
1207.47197	17267.8375
1211.05612	16726.6375
1214.63782	16357.5375
1218.21708	16066.0375
1221.79391	15844.3375
1225.36829	15713.0375
1228.94024	15667.8375
1232.50976	15661.2375
1236.07685	15698.9375
1239.6415	15721.2375
1243.20374	15777.8375
1246.76355	15829.3375
1250.32093	15945.2375
1253.8759	16127.1375
1257.42845	16427.9375
1260.97859	16737.0375
1264.52631	17012.2375
1268.07163	17289.8375
1271.61453	17512.9375
1275.15503	17649.3375
1278.69312	17843.2375
1282.22882	17978.1375
1285.76211	18149.9375
1289.29301	18421.4375
1292.82151	18770.7375
1296.34761	19192.3375
1299.87133	19747.9375
1303.39266	20433.3375
1306.9116	21269.6375
1310.42815	22135.6375
1313.94233	22675.9375
1317.45412	22595.6375
1320.96354	22292.3375
1324.47058	21900.0375
1327.97525	21464.5375
1331.47754	21149.5375
1334.97747	21013.8375
1338.47502	21077.3375
1341.97022	21366.4375
1345.46305	21804.0375
1348.95352	22198.4375
1352.44163	22709.7375
1355.92738	23322.4375
1359.41078	24229.3375
1362.89183	25293.8375
1366.37053	25119.2375
1369.84688	23165.0375
1373.32088	20900.5375
1376.79254	19309.5375
1380.26186	18403.6375
1383.72883	17963.1375
1387.19347	17675.2375
1390.65578	17339.6375
1394.11575	17055.4375
1397.57339	16793.1375
1401.0287	16646.8375
1404.48168	16519.6375
1407.93234	16473.4375
1411.38068	16349.5375
1414.82669	16141.9375
1418.27039	15926.0375
1421.71177	15682.6375
1425.15083	15456.9375
1428.58758	15262.1375
1432.02203	15257.9375
1435.45416	15326.3375
1438.88399	15460.3375
1442.31151	15600.7375
1445.73673	15675.3375
1449.15965	15816.7375
1452.58027	15885.7375
1455.9986	15959.1375
1459.41463	16053.7375
1462.82837	16246.3375
1466.23982	16495.0375
1469.64898	16755.2375
1473.05586	16969.7375
1476.46045	17109.8375
1479.86276	17192.4375
1483.26279	17317.7375
1486.66054	17432.6375
1490.05602	17653.8375
1493.44922	18010.9375
1496.84016	18616.7375
1500.22882	19614.3375
1503.61521	20948.1375
1506.99934	22403.5375
1510.38121	23511.6375
1513.76081	23786.2375
1517.13816	23043.9375
1520.51324	21656.0375
1523.88607	20363.4375
1527.25665	19444.6375
1530.62498	18884.4375
1533.99105	18549.2375
1537.35488	18251.4375
1540.71647	17999.1375
1544.07581	17767.0375
1547.4329	17553.9375
1550.78776	17360.1375
1554.14038	17234.6375
1557.49077	17201.6375
1560.83892	17290.3375
1564.18484	17409.7375
1567.52853	17571.8375
1570.86999	17781.9375
1574.20922	17979.0375
1577.54624	18061.1375
1580.88103	17763.1375
1584.2136	17297.5375
1587.54395	17001.0375
1590.87208	16935.5375
1594.19801	17203.4375
1597.52172	17695.9375
1600.84321	17934.9375
1604.16251	17735.8375
1607.47959	17253.2375
1610.79447	16668.4375
1614.10715	15995.9375
1617.41763	15346.4375
1620.7259	14817.9375
1624.03199	14460.1375
1627.33587	14296.8375
1630.63757	14351.0375
1633.93707	14608.4375
1637.23439	15150.6375
1640.52951	16003.9375
1643.82246	17114.3375
1647.11321	18312.4375
1650.40179	19153.3375
1653.68819	18961.5375
1656.97241	17732.7375
1660.25446	16148.1375
1663.53433	14814.5375
1666.81203	13918.1375
1670.08756	13363.8375
1673.36092	12976.4375
1676.63211	12707.8375
1679.90115	12523.0375
1683.16801	12386.4375
1686.43272	12265.0375
1689.69527	12170.2375
1692.95567	12118.6375
1696.2139	12056.2375
1699.46999	12037.6375
1702.72392	11974.5375
1705.97571	11968.0375
1709.22535	11918.8375
1712.47284	11859.2375
1715.71819	11800.7375
1718.96139	11759.8375
1722.20246	11707.8375
1725.44139	11629.7375
1728.67818	11575.4375
1731.91284	11502.2375
1735.14537	11445.5375
1738.37576	11416.0375
1741.60403	11392.3375
1744.83017	11361.5375
1748.05418	11322.8375
1751.27607	11293.6375
1754.49584	11268.3375
1757.71349	11254.8375
1760.92903	11238.6375
1764.14244	11232.6375
1767.35375	11227.9375
1770.56294	11198.8375
1773.77002	11178.2375
1776.97499	11172.9375
1780.17785	11159.4375
1783.37861	11083.6375
1786.57727	11082.3375
1789.77382	11065.9375
1792.96828	11046.5375
1796.16064	11021.1375
1799.3509	11001.8375
1802.53907	10994.6375
1805.72514	10959.6375
1808.90913	10923.6375
1812.09102	10889.7375
1815.27083	10865.4375
1818.44856	10839.5375
1821.6242	10813.7375
1824.79776	10786.2375
1827.96924	10807.5375
1831.13864	10770.6375
1834.30597	10778.1375
1837.47122	10763.1375
1840.6344	10743.8375
1843.7955	10745.0375
1846.95454	10730.0375
1850.11151	10725.4375
1853.26642	10713.6375
1856.41926	10732.6375
1859.57004	10710.1375
1862.71876	10680.1375
1865.86542	10684.8375
1869.01003	10635.7375
1872.15258	10631.3375
1875.29308	10606.7375
1878.43152	10593.6375
1881.56792	10564.0375
1884.70227	10576.2375
1887.83457	10553.2375
1890.96482	10517.0375
1894.09304	10521.4375
1897.21921	10502.9375
1900.34335	10479.1375
1903.46544	10471.1375
1906.58551	10478.1375
1909.70353	10453.5375
1912.81953	10424.9375
1915.93349	10403.4375
1919.04543	10379.5375
1922.15534	10369.7375
1925.26322	10323.0375
1928.36908	10341.2375
1931.47292	10296.8375
1934.57473	10268.3375
1937.67453	10245.8375
1940.77232	10213.2375
1943.86808	10170.8375
1946.96184	10164.9375
1950.05358	10142.7375
1953.14331	10140.3375
1956.23103	10087.2375
1959.31675	10025.9375
1962.40046	10016.2375
1965.48217	9993.9375
1968.56188	9977.6375
1971.63959	9939.9375
1974.7153	9873.8375
1977.78901	9848.8375
1980.86073	9822.4375
1983.93046	9800.9375
1986.99819	9784.4375
1990.06394	9742.8375
1993.1277	9697.5375
1996.18947	9663.6375
1999.24925	9659.1375
2002.30706	9637.1375
2005.36288	9578.6375
2008.41672	9564.9375
2011.46859	9542.2375
2014.51848	9514.9375
2017.56639	9478.1375
2020.61233	9429.1375
2023.6563	9402.6375
2026.6983	9405.8375
2029.73833	9362.5375
2032.7764	9360.7375
2035.8125	9320.1375
2038.84664	9315.6375
2041.87881	9293.5375
2044.90903	9263.4375
2047.93729	9223.0375
2050.96359	9220.6375
2053.98794	9218.0375
2057.01034	9190.4375
2060.03078	9203.5375
2063.04927	9177.0375
2066.06582	9187.9375
2069.08042	9176.9375
2072.09307	9153.1375
2075.10378	9156.6375
2078.11255	9148.4375
2081.11938	9167.8375
2084.12426	9119.2375
2087.12722	9126.2375
2090.12824	9127.0375
2093.12732	9129.1375
2096.12447	9124.8375
2099.11969	9128.0375
2102.11299	9110.2375
2105.10435	9120.7375
2108.09379	9134.6375
2111.08131	9135.1375
2114.0669	9122.5375
2117.05057	9136.7375
2120.03233	9158.8375
2123.01216	9141.7375
2125.99008	9181.8375
2128.96609	9148.1375
2131.94018	9156.5375
2134.91236	9159.4375
2137.88263	9153.2375
2140.851	9159.4375
2143.81746	9186.7375
2146.78201	9162.3375
2149.74466	9153.1375
2152.7054	9174.0375
2155.66425	9165.3375
2158.6212	9156.1375
2161.57625	9136.1375
2164.52941	9122.1375
2167.48067	9124.3375
2170.43004	9136.5375
2173.37752	9132.4375
2176.32311	9126.8375
2179.26681	9122.6375
2182.20863	9109.5375
2185.14856	9110.6375
2188.08661	9088.0375
2191.02278	9094.4375
2193.95707	9092.0375
2196.88948	9091.7375
2199.82001	9068.3375
2202.74867	9052.1375
2205.67545	9033.6375
2208.60037	9011.1375
2211.52341	8998.9375
2214.44458	8985.9375
2217.36388	8953.4375
2220.28132	8967.9375
2223.1969	8921.0375
2226.11061	8924.9375
2229.02246	8894.1375
2231.93245	8882.6375
2234.84058	8867.8375
2237.74686	8847.9375
2240.65128	8860.6375
2243.55385	8833.5375
2246.45456	8819.2375
2249.35343	8799.8375
2252.25044	8783.3375
2255.14561	8774.1375
2258.03893	8771.9375
2260.93041	8753.5375
2263.82004	8743.2375
2266.70783	8707.5375
2269.59378	8682.7375
2272.4779	8681.4375
2275.36017	8640.3375
2278.24061	8634.6375
2281.11922	8616.6375
2283.996	8583.2375
2286.87094	8572.9375
2289.74405	8553.4375
2292.61534	8557.3375
2295.4848	8523.1375
2298.35243	8524.4375
2301.21824	8501.1375
2304.08223	8512.8375
2306.94439	8512.8375
2309.80474	8483.1375
2312.66327	8479.4375
2315.51999	8463.0375
2318.37489	8447.3375
2321.22797	8429.0375
2324.07925	8445.6375
2326.92871	8424.8375
2329.77637	8411.8375
2332.62222	8404.4375
2335.46626	8385.7375
2338.3085	8389.7375
2341.14893	8357.8375
2343.98756	8327.9375
2346.8244	8340.1375
2349.65943	8323.5375
2352.49267	8320.7375
2355.32411	8323.1375
2358.15376	8317.5375
2360.98161	8321.6375
2363.80768	8303.9375
2366.63195	8278.8375
2369.45444	8309.4375
2372.27514	8285.4375
2375.09405	8273.5375
2377.91118	8272.7375
2380.72652	8231.7375
2383.54009	8229.3375
2386.35187	8209.7375
2389.16188	8172.0375
2391.97011	8148.9375
2394.77657	8126.2375
2397.58125	8104.5375
2400.38416	8091.7375
2403.18529	8091.0375
2405.98466	8092.8375
2408.78226	8056.7375
2411.57809	8052.3375
2414.37216	8051.2375
2417.16446	8042.9375
2419.955	8015.1375
2422.74378	8008.3375
2425.5308	8005.1375
2428.31606	8004.5375
2431.09956	7989.6375
2433.88131	7980.4375
2436.6613	7995.1375
2439.43954	7978.4375
2442.21603	7948.8375
2444.99077	7957.4375
2447.76377	7955.3375
2450.53501	7937.0375
2453.30451	7940.8375
2456.07226	7917.9375
2458.83827	7909.9375
2461.60254	7907.7375
2464.36507	7900.5375
2467.12586	7893.9375
2469.88492	7873.5375
2472.64224	7861.8375
2475.39782	7883.1375
2478.15167	7860.8375
2480.90379	7858.0375
2483.65417	7847.1375
2486.40283	7844.8375
2489.14976	7831.7375
2491.89497	7836.9375
2494.63845	7842.3375
2497.3802	7839.5375
2500.12024	7813.9375
2502.85855	7808.1375
2505.59514	7810.9375
2508.33002	7799.8375
2511.06318	7769.7375
2513.79462	7757.9375
2516.52435	7728.4375
2519.25237	7731.0375
2521.97867	7704.9375
2524.70327	7712.2375
2527.42616	7704.7375
2530.14734	7694.8375
2532.86681	7661.8375
2535.58458	7657.0375
2538.30065	7636.9375
2541.01501	7628.7375
2543.72768	7634.5375
2546.43864	7616.4375
2549.14791	7594.0375
2551.85548	7589.7375
2554.56136	7574.4375
2557.26554	7569.4375
2559.96803	7571.2375
2562.66883	7539.6375
2565.36794	7537.3375
2568.06536	7529.4375
2570.7611	7512.1375
2573.45514	7492.5375
2576.14751	7517.0375
2578.83819	7461.4375
2581.52719	7466.5375
2584.21451	7438.6375
2586.90015	7428.6375
2589.58411	7400.4375
2592.2664	7407.2375
2594.94701	7359.2375
2597.62594	7367.5375
2600.30321	7334.2375
2602.9788	7337.1375
2605.65273	7327.8375
2608.32498	7327.5375
2610.99557	7327.2375
2613.66449	7300.8375
2616.33175	7298.2375
2618.99734	7292.0375
2621.66128	7270.7375
2624.32355	7261.1375
2626.98416	7263.8375
2629.64311	7246.1375
2632.30041	7241.3375
2634.95605	7212.9375
2637.61004	7210.1375
2640.26238	7193.5375
2642.91306	7210.0375
2645.56209	7185.1375
2648.20948	7177.2375
2650.85521	7181.1375
2653.4993	7185.6375
2656.14175	7169.4375
2658.78255	7157.7375
2661.42171	7165.4375
2664.05923	7167.2375
2666.6951	7171.0375
2669.32934	7161.4375
2671.96194	7160.0375
2674.59291	7166.4375
2677.22224	7158.8375
2679.84993	7147.9375
2682.476	7148.3375
2685.10043	7155.5375
2687.72324	7151.9375
2690.34441	7149.2375
2692.96396	7145.3375
2695.58188	7158.6375
2698.19818	7122.3375
2700.81285	7150.7375
2703.4259	7140.2375
2706.03733	7147.9375
2708.64714	7138.2375
2711.25533	7149.3375
2713.86191	7133.8375
2716.46687	7133.9375
2719.07021	7141.9375
2721.67194	7128.4375
2724.27206	7116.6375
2726.87057	7108.7375
2729.46747	7124.6375
2732.06276	7101.2375
2734.65644	7099.9375
2737.24852	7109.7375
2739.83899	7102.1375
2742.42786	7087.8375
2745.01513	7066.1375
2747.60079	7069.5375
2750.18486	7050.8375
2752.76733	7040.5375
2755.3482	7038.3375
2757.92747	7052.0375
2760.50515	7058.0375
2763.08123	7039.8375
2765.65573	7000.2375
2768.22863	6986.2375
2770.79994	6974.3375
2773.36967	6996.6375
2775.9378	6989.0375
2778.50435	6947.8375
2781.06932	6945.6375
2783.6327	6943.5375
2786.1945	6937.5375
2788.75471	6925.3375
2791.31335	6872.1375
2793.87041	6897.4375
2796.42589	6852.5375
2798.97979	6854.9375
2801.53212	6842.1375
2804.08288	6822.8375
2806.63206	6821.0375
2809.17967	6815.9375
2811.72571	6781.4375
2814.27018	6795.3375
2816.81308	6787.9375
2819.35442	6758.4375
2821.89419	6751.6375
2824.43239	6744.6375
2826.96904	6747.9375
2829.50412	6750.3375
2832.03763	6712.7375
2834.56959	6706.0375
2837.1	6702.8375
2839.62884	6708.3375
2842.15613	6706.8375
2844.68186	6724.0375
2847.20604	6708.1375
2849.72867	6724.2375
2852.24974	6719.4375
2854.76927	6719.6375
2857.28724	6694.1375
2859.80367	6697.3375
2862.31855	6699.9375
2864.83189	6680.4375
2867.34368	6679.8375
2869.85393	6689.7375
2872.36264	6671.0375
2874.8698	6679.7375
2877.37543	6650.5375
2879.87952	6658.2375
2882.38207	6646.3375
2884.88308	6662.4375
2887.38256	6647.8375
2889.88051	6639.2375
2892.37692	6653.9375
2894.8718	6636.6375
2897.36515	6642.0375
2899.85698	6634.0375
2902.34727	6665.2375
2904.83604	6661.9375
2907.32328	6643.8375
2909.809	6626.5375
2912.29319	6646.3375
2914.77587	6648.4375
2917.25702	6645.6375
2919.73665	6647.3375
2922.21476	6643.1375
2924.69136	6629.3375
2927.16644	6623.2375
2929.64	6621.3375
2932.11205	6620.4375
2934.58258	6589.9375
2937.05161	6606.3375
2939.51912	6600.8375
2941.98513	6581.7375
2944.44962	6578.0375
2946.91261	6553.5375
2949.37409	6555.8375
2951.83407	6531.1375
2954.29254	6517.2375
2956.74951	6511.9375
2959.20498	6523.8375
2961.65895	6502.9375
2964.11142	6504.3375
2966.56239	6468.7375
2969.01186	6453.9375
2971.45984	6455.6375
2973.90632	6460.3375
2976.35131	6440.3375
2978.7948	6410.3375
2981.23681	6418.4375
2983.67732	6419.3375
2986.11635	6398.2375
2988.55388	6380.3375
2990.98993	6382.9375
2993.4245	6361.7375
2995.85758	6355.0375
2998.28917	6347.5375
3000.71928	6328.0375
3003.14791	6307.1375
3005.57506	6322.5375
3008.00073	6296.6375
3010.42493	6294.5375
3012.84764	6282.0375
3015.26888	6283.6375
3017.68865	6277.8375
3020.10694	6273.3375
3022.52376	6239.0375
3024.9391	6240.3375
3027.35298	6223.5375
3029.76539	6202.3375
3032.17632	6195.0375
3034.5858	6173.8375
3036.9938	6175.7375
3039.40034	6156.4375
3041.80542	6176.6375
3044.20903	6177.9375
3046.61118	6170.8375
3049.01187	6154.6375
3051.4111	6154.0375
3053.80888	6139.1375
3056.20519	6151.9375
3058.60005	6128.7375
3060.99345	6122.3375
3063.3854	6105.4375
3065.7759	6108.7375
3068.16494	6087.8375
3070.55254	6081.9375
3072.93868	6052.4375
3075.32338	6052.8375
3077.70662	6058.1375
3080.08842	6037.6375
3082.46878	6032.4375
3084.84769	6034.0375
3087.22515	6030.7375
3089.60118	6034.0375
3091.97576	6023.5375
3094.3489	6013.5375
3096.72061	6007.4375
3099.09087	6022.8375
3101.4597	6017.2375
3103.82709	6015.3375
3106.19305	6019.1375
3108.55757	6005.6375
3110.92066	5998.0375
3113.28232	5995.5375
3115.64255	5963.9375
3118.00134	5968.9375
3120.35871	5977.8375
3122.71466	5965.0375
3125.06917	5940.3375
3127.42226	5949.4375
3129.77393	5937.5375
3132.12417	5949.8375
3134.47299	5964.5375
3136.82039	5944.0375
3139.16636	5956.4375
3141.51092	5951.4375
3143.85406	5966.8375
3146.19579	5984.5375
3148.53609	5953.0375
3150.87499	5967.8375
3153.21246	5986.1375
3155.54853	5987.1375
3157.88318	5990.8375
3160.21642	6013.1375
3162.54826	5990.6375
3164.87868	5998.9375
3167.2077	5991.2375
3169.5353	5994.7375
3171.86151	6004.5375
3174.18631	5978.3375
3176.5097	5979.9375
3178.83169	5986.4375
3181.15228	5971.7375
3183.47147	5963.8375
3185.78926	5977.8375
3188.10565	5966.5375
3190.42065	5966.8375
3192.73424	5961.8375
3195.04645	5970.3375
3197.35725	5958.9375
3199.66667	5976.6375
3201.97469	5972.1375
3204.28132	5979.0375
3206.58656	5980.4375
3208.8904	5988.2375
3211.19287	5989.8375
3213.49394	6000.9375
3215.79363	5992.5375
3218.09193	6002.3375
3220.38884	6003.4375
3222.68438	6010.2375
3224.97853	5979.0375
3227.2713	5983.4375
3229.56269	5965.0375
3231.8527	5991.6375
3234.14133	5968.1375
3236.42858	5969.7375
3238.71446	5957.1375
3240.99896	5938.2375
3243.28209	5934.0375
3245.56384	5938.3375
3247.84423	5939.5375
3250.12324	5919.7375
3252.40088	5935.1375
3254.67715	5916.6375
3256.95205	5896.8375
3259.22558	5901.4375
3261.49775	5885.7375
3263.76855	5885.1375
3266.03799	5872.9375
3268.30606	5882.6375
3270.57277	5867.2375
3272.83812	5849.3375
3275.10211	5845.0375
3277.36474	5841.1375
3279.62601	5844.8375
3281.88593	5817.9375
3284.14448	5846.7375
3286.40168	5804.8375
3288.65753	5805.2375
3290.91202	5778.1375
3293.16516	5760.7375
3295.41695	5766.9375
3297.66738	5731.3375
3299.91647	5703.8375
3302.16421	5668.9375
3304.4106	5646.2375
3306.65564	5607.0375
3308.89933	5589.8375
3311.14169	5561.7375
3313.38269	5510.8375
3315.62236	5487.5375
3317.86068	5422.5375
3320.09766	5386.5375
3322.3333	5354.7375
3324.5676	5338.7375
3326.80056	5251.8375
3329.03219	5230.1375
3331.26248	1.8375
3333.49143	0.1375
3335.71905	-0.1625
