Data from AgNPs_FTO_APTES_UA_10uM_R6G_10uM_NaF_0.1M_Addition_RamanShift__16__13-28-37-317.txt Node

Date: Fri Dec 17 13:28:37 GMT 2021
User: TCL
Spectrometer: QEP01345
Trigger mode: 4
Integration Time (sec): 7.000000E0
Scans to average: 10
Electric dark correction enabled: true
Nonlinearity correction enabled: false
Boxcar width: 0
XAxis mode: Raman Shifts
Number of Pixels in Spectrum: 1044
>>>>>Begin Spectral Data<<<<<
46.04893	-1.1125
50.45542	-0.6125
54.85868	-1.1125
59.25871	-0.0125
63.6555	86.4875
68.04907	88.9875
72.43941	90.5875
76.82654	95.3875
81.21044	99.1875
85.59113	102.4875
89.96862	107.3875
94.34289	111.5875
98.71396	118.3875
103.08183	117.5875
107.4465	121.1875
111.80798	123.4875
116.16626	128.4875
120.52136	132.4875
124.87327	140.2875
129.222	150.8875
133.56755	154.6875
137.90993	173.9875
142.24913	187.4875
146.58517	208.4875
150.91804	245.3875
155.24774	290.0875
159.57429	362.3875
163.89768	462.9875
168.21792	617.9875
172.53501	840.8875
176.84895	1170.7875
181.15975	1634.1875
185.46741	2301.0875
189.77193	3168.8875
194.07331	4259.5875
198.37157	5502.8875
202.6667	6782.3875
206.9587	8072.2875
211.24758	9313.0875
215.53334	10567.1875
219.81599	11940.7875
224.09553	13411.1875
228.37195	15033.0875
232.64527	16913.7875
236.91549	18853.5875
241.18261	20775.6875
245.44663	22604.2875
249.70755	24186.9875
253.96539	25498.4875
258.22014	26603.3875
262.4718	27547.9875
266.72039	28232.3875
270.96589	28561.5875
275.20832	28556.3875
279.44768	28328.5875
283.68397	27921.6875
287.91719	27587.5875
292.14735	27365.1875
296.37445	27362.8875
300.59849	27545.9875
304.81948	27754.8875
309.03742	27830.3875
313.25231	27569.7875
317.46415	26983.0875
321.67296	26093.0875
325.87872	25452.7875
330.08145	25102.4875
334.28114	25117.4875
338.47781	25329.7875
342.67145	25719.4875
346.86207	26211.5875
351.04966	26901.3875
355.23424	27634.8875
359.4158	28210.8875
363.59435	28673.5875
367.76989	28982.9875
371.94243	29176.1875
376.11196	29355.8875
380.27849	29449.1875
384.44203	29558.2875
388.60257	29662.5875
392.76012	29814.8875
396.91468	30107.5875
401.06626	30493.0875
405.21485	30844.7875
409.36047	30641.8875
413.50311	30049.7875
417.64277	29421.2875
421.77947	29193.4875
425.9132	29166.4875
430.04396	29232.5875
434.17176	29281.8875
438.2966	29494.3875
442.41849	29903.1875
446.53742	30428.7875
450.6534	31040.2875
454.76644	31541.6875
458.87653	31800.8875
462.98368	31764.7875
467.08789	31487.8875
471.18916	31160.5875
475.2875	30718.8875
479.38291	30401.7875
483.4754	30110.4875
487.56496	29837.7875
491.6516	29581.4875
495.73531	29453.5875
499.81612	29459.2875
503.89401	29721.6875
507.96899	29888.0875
512.04106	30018.0875
516.11023	30144.4875
520.1765	30157.1875
524.23987	30043.6875
528.30034	29830.8875
532.35792	29526.7875
536.41261	29186.9875
540.46441	28876.2875
544.51333	28732.1875
548.55936	28928.9875
552.60252	29408.7875
556.64279	29850.4875
560.6802	30082.1875
564.71473	30204.3875
568.7464	30462.5875
572.7752	30877.1875
576.80114	31015.5875
580.82422	31256.5875
584.84444	31401.5875
588.86181	31665.3875
592.87633	31761.3875
596.888	31894.4875
600.89682	32287.6875
604.9028	33894.8875
608.90594	37916.9875
612.90624	42235.5875
616.90371	40411.2875
620.89834	33606.2875
624.89015	30500.0875
628.87913	29996.1875
632.86528	30047.1875
636.84862	30043.6875
640.82913	29690.7875
644.80683	29083.7875
648.78172	28504.7875
652.75379	28378.0875
656.72306	28780.6875
660.68952	29287.3875
664.65319	29175.7875
668.61405	28581.8875
672.57211	28451.5875
676.52738	28514.7875
680.47986	28555.6875
684.42955	28413.5875
688.37646	28379.6875
692.32058	28442.9875
696.26192	28640.1875
700.20048	28930.4875
704.13626	29074.7875
708.06928	28959.3875
711.99952	28734.1875
715.927	28671.2875
719.85171	28677.5875
723.77365	28675.0875
727.69284	28407.8875
731.60928	28150.0875
735.52295	28065.1875
739.43388	28100.9875
743.34206	28164.5875
747.24749	28270.0875
751.15017	28379.7875
755.05012	28705.5875
758.94733	29379.1875
762.8418	30739.4875
766.73354	33133.8875
770.62254	35728.9875
774.50882	36936.0875
778.39237	35698.6875
782.27321	33095.4875
786.15132	30741.7875
790.02671	29307.3875
793.89938	28659.5875
797.76935	28392.7875
801.6366	28242.7875
805.50115	28174.1875
809.36299	27996.9875
813.22213	27706.8875
817.07857	27608.1875
820.93231	27505.5875
824.78336	27468.7875
828.63172	27465.4875
832.47738	27492.9875
836.32036	27521.9875
840.16066	27565.9875
843.99827	27644.1875
847.8332	27546.4875
851.66546	27524.6875
855.49504	27435.3875
859.32195	27452.9875
863.1462	27438.1875
866.96777	27389.4875
870.78668	27408.4875
874.60293	27392.9875
878.41652	27424.1875
882.22745	27518.4875
886.03573	27585.7875
889.84136	27624.2875
893.64433	27561.6875
897.44466	27431.6875
901.24235	27341.5875
905.0374	27201.3875
908.8298	27134.2875
912.61957	27126.7875
916.40671	27267.0875
920.19121	27489.3875
923.97308	27786.5875
927.75233	27912.5875
931.52895	27964.2875
935.30295	27800.5875
939.07433	27326.3875
942.84309	26956.9875
946.60924	26732.4875
950.37278	26595.2875
954.13371	26516.2875
957.89203	26378.3875
961.64774	26330.0875
965.40086	26230.0875
969.15137	26155.7875
972.89929	26131.8875
976.64461	26116.9875
980.38733	26155.9875
984.12747	26294.4875
987.86502	26481.4875
991.59999	26790.5875
995.33237	27175.7875
999.06217	27801.6875
1002.78939	28545.3875
1006.51404	28987.6875
1010.23611	29239.7875
1013.95561	29396.6875
1017.67255	29435.0875
1021.38692	29165.3875
1025.09872	28916.2875
1028.80796	29037.8875
1032.51465	29622.8875
1036.21877	30221.6875
1039.92035	30348.6875
1043.61937	30017.9875
1047.31584	29459.2875
1051.00976	28920.9875
1054.70114	28603.2875
1058.38998	28616.4875
1062.07627	28750.1875
1065.76003	28987.6875
1069.44126	29204.0875
1073.11995	29590.9875
1076.79611	29991.6875
1080.46974	30283.6875
1084.14085	30437.0875
1087.80943	30629.1875
1091.47549	30743.0875
1095.13903	30569.7875
1098.80005	30147.3875
1102.45857	29591.6875
1106.11456	29194.4875
1109.76805	29138.4875
1113.41903	29244.7875
1117.06751	29435.5875
1120.71348	29780.0875
1124.35696	30127.3875
1127.99793	30514.7875
1131.63641	30771.8875
1135.2724	30466.5875
1138.90589	30025.7875
1142.5369	29782.7875
1146.16542	29491.4875
1149.79145	29369.1875
1153.415	29361.0875
1157.03607	29557.1875
1160.65467	30007.3875
1164.27079	30877.5875
1167.88443	32160.7875
1171.49561	33852.6875
1175.10432	36149.1875
1178.71056	39182.3875
1182.31434	42107.7875
1185.91565	43774.3875
1189.51451	43863.4875
1193.11091	42563.8875
1196.70485	40544.6875
1200.29634	38674.9875
1203.88538	37125.9875
1207.47197	35865.4875
1211.05612	34837.8875
1214.63782	34085.8875
1218.21708	33751.4875
1221.79391	33684.0875
1225.36829	33674.8875
1228.94024	33547.2875
1232.50976	33247.1875
1236.07685	32928.0875
1239.6415	32736.7875
1243.20374	32755.6875
1246.76355	32916.5875
1250.32093	33316.0875
1253.8759	33924.1875
1257.42845	34707.9875
1260.97859	35643.8875
1264.52631	36571.5875
1268.07163	37562.7875
1271.61453	38653.0875
1275.15503	39667.4875
1278.69312	40531.0875
1282.22882	41113.4875
1285.76211	41485.0875
1289.29301	41827.1875
1292.82151	42503.6875
1296.34761	43505.8875
1299.87133	45095.1875
1303.39266	47438.6875
1306.9116	50497.3875
1310.42815	53710.5875
1313.94233	55853.6875
1317.45412	55782.6875
1320.96354	54427.3875
1324.47058	52859.5875
1327.97525	51358.4875
1331.47754	50228.7875
1334.97747	49675.2875
1338.47502	49734.7875
1341.97022	50055.8875
1345.46305	50317.1875
1348.95352	50633.9875
1352.44163	51111.2875
1355.92738	52585.2875
1359.41078	55246.5875
1362.89183	57897.0875
1366.37053	56977.2875
1369.84688	51731.0875
1373.32088	45999.1875
1376.79254	42037.3875
1380.26186	40105.2875
1383.72883	39331.5875
1387.19347	38819.4875
1390.65578	38050.0875
1394.11575	37546.9875
1397.57339	37447.2875
1401.0287	37714.8875
1404.48168	38070.3875
1407.93234	38274.0875
1411.38068	38281.5875
1414.82669	37866.7875
1418.27039	37186.5875
1421.71177	36378.3875
1425.15083	35698.3875
1428.58758	35347.2875
1432.02203	35479.6875
1435.45416	35950.4875
1438.88399	36560.0875
1442.31151	37068.1875
1445.73673	37380.2875
1449.15965	37629.9875
1452.58027	37834.0875
1455.9986	37901.7875
1459.41463	38249.4875
1462.82837	38835.8875
1466.23982	39576.5875
1469.64898	40303.3875
1473.05586	40719.2875
1476.46045	40790.4875
1479.86276	40628.5875
1483.26279	40419.7875
1486.66054	40347.7875
1490.05602	40611.3875
1493.44922	41084.1875
1496.84016	41864.9875
1500.22882	43315.5875
1503.61521	45560.3875
1506.99934	48208.5875
1510.38121	50512.8875
1513.76081	51067.9875
1517.13816	49380.1875
1520.51324	46206.8875
1523.88607	43195.1875
1527.25665	41133.8875
1530.62498	39987.7875
1533.99105	39445.0875
1537.35488	39092.4875
1540.71647	38791.3875
1544.07581	38473.7875
1547.4329	38234.7875
1550.78776	38062.7875
1554.14038	37917.3875
1557.49077	37908.3875
1560.83892	37958.3875
1564.18484	38114.3875
1567.52853	38384.1875
1570.86999	38764.1875
1574.20922	39232.3875
1577.54624	39443.5875
1580.88103	39115.1875
1584.2136	38526.3875
1587.54395	38415.5875
1590.87208	39188.7875
1594.19801	40891.2875
1597.52172	43050.4875
1600.84321	44019.2875
1604.16251	42880.4875
1607.47959	40600.1875
1610.79447	38077.8875
1614.10715	35643.3875
1617.41763	33436.7875
1620.7259	31827.1875
1624.03199	31019.2875
1627.33587	30875.9875
1630.63757	31499.5875
1633.93707	32891.9875
1637.23439	35135.0875
1640.52951	38204.4875
1643.82246	41646.4875
1647.11321	44289.1875
1650.40179	45079.4875
1653.68819	43045.5875
1656.97241	38670.7875
1660.25446	34123.3875
1663.53433	30782.1875
1666.81203	28619.8875
1670.08756	27310.8875
1673.36092	26389.4875
1676.63211	25822.1875
1679.90115	25433.3875
1683.16801	25109.6875
1686.43272	24903.3875
1689.69527	24707.9875
1692.95567	24592.4875
1696.2139	24514.5875
1699.46999	24481.5875
1702.72392	24391.5875
1705.97571	24351.7875
1709.22535	24291.8875
1712.47284	24268.4875
1715.71819	24256.2875
1718.96139	24187.2875
1722.20246	24105.0875
1725.44139	24013.8875
1728.67818	23916.8875
1731.91284	23794.5875
1735.14537	23676.0875
1738.37576	23588.0875
1741.60403	23515.8875
1744.83017	23418.8875
1748.05418	23391.0875
1751.27607	23338.6875
1754.49584	23291.0875
1757.71349	23275.3875
1760.92903	23299.5875
1764.14244	23253.9875
1767.35375	23257.0875
1770.56294	23169.5875
1773.77002	23164.2875
1776.97499	23103.6875
1780.17785	23072.8875
1783.37861	23055.6875
1786.57727	23048.3875
1789.77382	22940.0875
1792.96828	22953.2875
1796.16064	22915.0875
1799.3509	22885.7875
1802.53907	22849.6875
1805.72514	22783.2875
1808.90913	22736.5875
1812.09102	22696.8875
1815.27083	22657.5875
1818.44856	22627.6875
1821.6242	22600.1875
1824.79776	22555.0875
1827.96924	22573.6875
1831.13864	22576.0875
1834.30597	22567.3875
1837.47122	22614.1875
1840.6344	22621.4875
1843.7955	22607.5875
1846.95454	22606.8875
1850.11151	22620.4875
1853.26642	22588.9875
1856.41926	22585.8875
1859.57004	22589.6875
1862.71876	22610.5875
1865.86542	22509.6875
1869.01003	22533.7875
1872.15258	22466.5875
1875.29308	22486.5875
1878.43152	22469.5875
1881.56792	22477.7875
1884.70227	22474.9875
1887.83457	22452.0875
1890.96482	22464.2875
1894.09304	22407.9875
1897.21921	22374.5875
1900.34335	22376.0875
1903.46544	22331.0875
1906.58551	22299.3875
1909.70353	22246.8875
1912.81953	22234.3875
1915.93349	22146.7875
1919.04543	22142.3875
1922.15534	22057.1875
1925.26322	22024.6875
1928.36908	21983.2875
1931.47292	21933.4875
1934.57473	21842.7875
1937.67453	21785.6875
1940.77232	21744.1875
1943.86808	21650.5875
1946.96184	21615.0875
1950.05358	21556.9875
1953.14331	21464.1875
1956.23103	21387.0875
1959.31675	21355.8875
1962.40046	21302.7875
1965.48217	21271.5875
1968.56188	21195.5875
1971.63959	21171.3875
1974.7153	21088.0875
1977.78901	21026.1875
1980.86073	20976.4875
1983.93046	20913.4875
1986.99819	20848.2875
1990.06394	20806.8875
1993.1277	20709.3875
1996.18947	20630.9875
1999.24925	20602.0875
2002.30706	20537.3875
2005.36288	20448.6875
2008.41672	20451.7875
2011.46859	20390.4875
2014.51848	20337.9875
2017.56639	20301.8875
2020.61233	20216.7875
2023.6563	20197.9875
2026.6983	20150.4875
2029.73833	20115.3875
2032.7764	20090.1875
2035.8125	20044.9875
2038.84664	20006.1875
2041.87881	19996.6875
2044.90903	19938.7875
2047.93729	19920.5875
2050.96359	19899.2875
2053.98794	19866.0875
2057.01034	19847.9875
2060.03078	19837.5875
2063.04927	19834.4875
2066.06582	19857.8875
2069.08042	19860.5875
2072.09307	19792.0875
2075.10378	19749.0875
2078.11255	19740.1875
2081.11938	19795.9875
2084.12426	19730.2875
2087.12722	19734.9875
2090.12824	19726.7875
2093.12732	19726.3875
2096.12447	19764.3875
2099.11969	19728.1875
2102.11299	19704.8875
2105.10435	19778.9875
2108.09379	19791.2875
2111.08131	19806.0875
2114.0669	19790.9875
2117.05057	19823.1875
2120.03233	19817.6875
2123.01216	19875.6875
2125.99008	19870.9875
2128.96609	19883.6875
2131.94018	19867.0875
2134.91236	19942.4875
2137.88263	19942.5875
2140.851	19967.5875
2143.81746	19968.1875
2146.78201	19970.5875
2149.74466	19975.3875
2152.7054	19978.9875
2155.66425	19971.1875
2158.6212	19989.5875
2161.57625	19970.2875
2164.52941	19979.0875
2167.48067	19972.4875
2170.43004	19981.1875
2173.37752	19947.7875
2176.32311	19971.7875
2179.26681	19938.2875
2182.20863	19980.1875
2185.14856	19970.1875
2188.08661	19953.0875
2191.02278	19975.1875
2193.95707	19930.6875
2196.88948	19943.9875
2199.82001	19978.0875
2202.74867	19946.4875
2205.67545	19935.9875
2208.60037	19937.9875
2211.52341	19901.6875
2214.44458	19880.8875
2217.36388	19847.0875
2220.28132	19821.5875
2223.1969	19783.1875
2226.11061	19761.9875
2229.02246	19688.8875
2231.93245	19700.8875
2234.84058	19636.0875
2237.74686	19606.1875
2240.65128	19596.4875
2243.55385	19576.6875
2246.45456	19510.0875
2249.35343	19499.0875
2252.25044	19454.2875
2255.14561	19406.7875
2258.03893	19435.9875
2260.93041	19443.3875
2263.82004	19391.2875
2266.70783	19345.9875
2269.59378	19301.7875
2272.4779	19271.4875
2275.36017	19225.5875
2278.24061	19197.2875
2281.11922	19147.4875
2283.996	19139.6875
2286.87094	19121.7875
2289.74405	19111.4875
2292.61534	19034.1875
2295.4848	19026.0875
2298.35243	19023.2875
2301.21824	19043.5875
2304.08223	19043.0875
2306.94439	19075.2875
2309.80474	19049.4875
2312.66327	19082.8875
2315.51999	19054.0875
2318.37489	19025.8875
2321.22797	19019.0875
2324.07925	19032.2875
2326.92871	18987.1875
2329.77637	18955.5875
2332.62222	18943.7875
2335.46626	18905.3875
2338.3085	18917.3875
2341.14893	18915.1875
2343.98756	18917.6875
2346.8244	18920.3875
2349.65943	18921.5875
2352.49267	18923.1875
2355.32411	18909.1875
2358.15376	18874.6875
2360.98161	18869.0875
2363.80768	18837.5875
2366.63195	18849.9875
2369.45444	18808.0875
2372.27514	18806.2875
2375.09405	18773.1875
2377.91118	18746.0875
2380.72652	18672.1875
2383.54009	18631.2875
2386.35187	18611.7875
2389.16188	18585.7875
2391.97011	18525.5875
2394.77657	18506.0875
2397.58125	18488.9875
2400.38416	18435.5875
2403.18529	18417.6875
2405.98466	18399.0875
2408.78226	18324.7875
2411.57809	18328.5875
2414.37216	18330.6875
2417.16446	18333.3875
2419.955	18256.4875
2422.74378	18237.9875
2425.5308	18215.1875
2428.31606	18201.9875
2431.09956	18224.6875
2433.88131	18194.2875
2436.6613	18202.2875
2439.43954	18199.7875
2442.21603	18207.4875
2444.99077	18165.8875
2447.76377	18175.3875
2450.53501	18129.3875
2453.30451	18154.6875
2456.07226	18160.6875
2458.83827	18120.6875
2461.60254	18137.5875
2464.36507	18115.6875
2467.12586	18114.3875
2469.88492	18117.7875
2472.64224	18137.0875
2475.39782	18106.8875
2478.15167	18116.3875
2480.90379	18102.1875
2483.65417	18097.7875
2486.40283	18132.4875
2489.14976	18138.9875
2491.89497	18090.2875
2494.63845	18128.8875
2497.3802	18111.4875
2500.12024	18083.3875
2502.85855	18092.0875
2505.59514	18074.3875
2508.33002	18051.2875
2511.06318	18030.4875
2513.79462	17996.9875
2516.52435	18005.2875
2519.25237	17954.0875
2521.97867	17957.5875
2524.70327	17946.9875
2527.42616	17905.6875
2530.14734	17876.5875
2532.86681	17918.6875
2535.58458	17871.5875
2538.30065	17855.4875
2541.01501	17838.6875
2543.72768	17819.0875
2546.43864	17821.1875
2549.14791	17799.3875
2551.85548	17753.7875
2554.56136	17733.1875
2557.26554	17722.6875
2559.96803	17707.2875
2562.66883	17697.3875
2565.36794	17665.0875
2568.06536	17676.4875
2570.7611	17649.0875
2573.45514	17628.3875
2576.14751	17617.7875
2578.83819	17582.8875
2581.52719	17622.1875
2584.21451	17567.2875
2586.90015	17544.8875
2589.58411	17528.5875
2592.2664	17516.7875
2594.94701	17485.2875
2597.62594	17501.5875
2600.30321	17442.1875
2602.9788	17427.5875
2605.65273	17442.4875
2608.32498	17413.1875
2610.99557	17373.7875
2613.66449	17364.7875
2616.33175	17363.0875
2618.99734	17380.1875
2621.66128	17353.4875
2624.32355	17345.3875
2626.98416	17342.7875
2629.64311	17349.2875
2632.30041	17344.4875
2634.95605	17296.1875
2637.61004	17287.7875
2640.26238	17253.2875
2642.91306	17259.9875
2645.56209	17249.7875
2648.20948	17228.3875
2650.85521	17233.7875
2653.4993	17198.5875
2656.14175	17200.1875
2658.78255	17216.7875
2661.42171	17222.5875
2664.05923	17231.7875
2666.6951	17223.5875
2669.32934	17240.9875
2671.96194	17222.4875
2674.59291	17227.5875
2677.22224	17192.5875
2679.84993	17254.6875
2682.476	17225.3875
2685.10043	17243.3875
2687.72324	17178.2875
2690.34441	17196.9875
2692.96396	17171.2875
2695.58188	17177.1875
2698.19818	17150.3875
2700.81285	17159.5875
2703.4259	17177.2875
2706.03733	17227.0875
2708.64714	17205.6875
2711.25533	17211.3875
2713.86191	17207.2875
2716.46687	17189.7875
2719.07021	17191.4875
2721.67194	17208.9875
2724.27206	17180.3875
2726.87057	17241.5875
2729.46747	17239.6875
2732.06276	17210.1875
2734.65644	17211.1875
2737.24852	17185.1875
2739.83899	17171.7875
2742.42786	17191.6875
2745.01513	17156.9875
2747.60079	17121.1875
2750.18486	17138.5875
2752.76733	17139.1875
2755.3482	17083.8875
2757.92747	17102.6875
2760.50515	17059.4875
2763.08123	17092.3875
2765.65573	17046.4875
2768.22863	17060.1875
2770.79994	17049.7875
2773.36967	17035.6875
2775.9378	17010.7875
2778.50435	16968.8875
2781.06932	16972.4875
2783.6327	16994.8875
2786.1945	16937.1875
2788.75471	16943.1875
2791.31335	16880.0875
2793.87041	16889.7875
2796.42589	16806.2875
2798.97979	16812.5875
2801.53212	16770.9875
2804.08288	16731.5875
2806.63206	16698.8875
2809.17967	16698.3875
2811.72571	16674.0875
2814.27018	16665.2875
2816.81308	16656.8875
2819.35442	16613.6875
2821.89419	16571.1875
2824.43239	16567.6875
2826.96904	16581.6875
2829.50412	16572.8875
2832.03763	16532.1875
2834.56959	16498.0875
2837.1	16487.4875
2839.62884	16479.9875
2842.15613	16456.9875
2844.68186	16497.1875
2847.20604	16493.7875
2849.72867	16524.1875
2852.24974	16490.9875
2854.76927	16480.6875
2857.28724	16433.4875
2859.80367	16456.7875
2862.31855	16413.1875
2864.83189	16419.4875
2867.34368	16396.0875
2869.85393	16398.5875
2872.36264	16417.4875
2874.8698	16428.5875
2877.37543	16408.6875
2879.87952	16421.3875
2882.38207	16408.8875
2884.88308	16402.6875
2887.38256	16442.9875
2889.88051	16394.4875
2892.37692	16417.0875
2894.8718	16392.6875
2897.36515	16405.9875
2899.85698	16438.1875
2902.34727	16465.8875
2904.83604	16486.3875
2907.32328	16508.2875
2909.809	16498.0875
2912.29319	16525.9875
2914.77587	16517.7875
2917.25702	16535.8875
2919.73665	16514.7875
2922.21476	16496.6875
2924.69136	16487.2875
2927.16644	16467.0875
2929.64	16458.1875
2932.11205	16410.3875
2934.58258	16369.8875
2937.05161	16372.5875
2939.51912	16373.3875
2941.98513	16353.2875
2944.44962	16324.7875
2946.91261	16270.6875
2949.37409	16309.3875
2951.83407	16280.1875
2954.29254	16279.5875
2956.74951	16234.0875
2959.20498	16229.5875
2961.65895	16219.3875
2964.11142	16195.3875
2966.56239	16145.0875
2969.01186	16181.1875
2971.45984	16119.7875
2973.90632	16106.2875
2976.35131	16073.3875
2978.7948	16040.9875
2981.23681	16002.7875
2983.67732	15946.1875
2986.11635	15915.3875
2988.55388	15882.5875
2990.98993	15863.6875
2993.4245	15834.2875
2995.85758	15810.8875
2998.28917	15772.3875
3000.71928	15754.3875
3003.14791	15720.9875
3005.57506	15726.2875
3008.00073	15691.7875
3010.42493	15691.8875
3012.84764	15670.5875
3015.26888	15656.1875
3017.68865	15624.0875
3020.10694	15624.1875
3022.52376	15592.5875
3024.9391	15578.1875
3027.35298	15556.5875
3029.76539	15524.2875
3032.17632	15492.5875
3034.5858	15475.6875
3036.9938	15467.5875
3039.40034	15423.9875
3041.80542	15443.9875
3044.20903	15361.3875
3046.61118	15372.8875
3049.01187	15342.0875
3051.4111	15348.2875
3053.80888	15333.5875
3056.20519	15283.4875
3058.60005	15248.4875
3060.99345	15230.4875
3063.3854	15191.5875
3065.7759	15192.9875
3068.16494	15158.1875
3070.55254	15102.5875
3072.93868	15085.3875
3075.32338	15038.5875
3077.70662	15042.4875
3080.08842	14984.7875
3082.46878	15027.2875
3084.84769	15002.3875
3087.22515	14996.5875
3089.60118	14950.6875
3091.97576	14965.1875
3094.3489	14964.5875
3096.72061	14948.3875
3099.09087	14924.3875
3101.4597	14934.7875
3103.82709	14913.5875
3106.19305	14917.7875
3108.55757	14915.2875
3110.92066	14877.4875
3113.28232	14839.4875
3115.64255	14793.3875
3118.00134	14767.3875
3120.35871	14731.9875
3122.71466	14719.3875
3125.06917	14673.7875
3127.42226	14698.3875
3129.77393	14697.4875
3132.12417	14687.4875
3134.47299	14663.5875
3136.82039	14648.1875
3139.16636	14667.0875
3141.51092	14657.4875
3143.85406	14655.7875
3146.19579	14707.9875
3148.53609	14700.2875
3150.87499	14725.5875
3153.21246	14688.9875
3155.54853	14690.0875
3157.88318	14695.4875
3160.21642	14723.0875
3162.54826	14683.0875
3164.87868	14681.3875
3167.2077	14681.9875
3169.5353	14687.7875
3171.86151	14647.0875
3174.18631	14667.6875
3176.5097	14614.9875
3178.83169	14584.0875
3181.15228	14618.5875
3183.47147	14588.8875
3185.78926	14564.7875
3188.10565	14566.7875
3190.42065	14535.7875
3192.73424	14596.4875
3195.04645	14554.2875
3197.35725	14566.5875
3199.66667	14551.1875
3201.97469	14618.5875
3204.28132	14583.1875
3206.58656	14616.9875
3208.8904	14634.1875
3211.19287	14614.4875
3213.49394	14595.9875
3215.79363	14588.3875
3218.09193	14577.5875
3220.38884	14599.1875
3222.68438	14590.4875
3224.97853	14550.3875
3227.2713	14500.7875
3229.56269	14538.1875
3231.8527	14514.7875
3234.14133	14492.6875
3236.42858	14451.3875
3238.71446	14448.6875
3240.99896	14441.4875
3243.28209	14446.0875
3245.56384	14398.5875
3247.84423	14435.3875
3250.12324	14446.9875
3252.40088	14426.9875
3254.67715	14415.1875
3256.95205	14371.3875
3259.22558	14383.3875
3261.49775	14333.3875
3263.76855	14330.2875
3266.03799	14297.1875
3268.30606	14302.6875
3270.57277	14285.3875
3272.83812	14244.5875
3275.10211	14230.7875
3277.36474	14220.5875
3279.62601	14190.6875
3281.88593	14171.1875
3284.14448	14193.5875
3286.40168	14192.3875
3288.65753	14168.1875
3290.91202	14116.4875
3293.16516	14108.9875
3295.41695	14089.2875
3297.66738	13982.4875
3299.91647	13930.5875
3302.16421	13860.2875
3304.4106	13829.7875
3306.65564	13750.3875
3308.89933	13674.0875
3311.14169	13561.2875
3313.38269	13486.6875
3315.62236	13436.7875
3317.86068	13303.3875
3320.09766	13177.8875
3322.3333	13074.6875
3324.5676	13107.9875
3326.80056	12852.5875
3329.03219	12833.2875
3331.26248	2.3875
3333.49143	1.9875
3335.71905	-0.6125
