Data from AgNPs_FTO_APTES_UA_100uM_R6G_10uM_NaF_0.1M_Addition_RamanShift__15__15-34-37-460.txt Node

Date: Fri Dec 17 15:34:37 GMT 2021
User: TCL
Spectrometer: QEP01345
Trigger mode: 4
Integration Time (sec): 7.000000E0
Scans to average: 10
Electric dark correction enabled: true
Nonlinearity correction enabled: false
Boxcar width: 0
XAxis mode: Raman Shifts
Number of Pixels in Spectrum: 1044
>>>>>Begin Spectral Data<<<<<
46.04893	0.4375
50.45542	-0.7625
54.85868	-1.1625
59.25871	1.1375
63.6555	63.7375
68.04907	65.6375
72.43941	69.4375
76.82654	74.5375
81.21044	76.1375
85.59113	77.7375
89.96862	82.3375
94.34289	86.6375
98.71396	85.7375
103.08183	93.1375
107.4465	93.6375
111.80798	94.1375
116.16626	95.4375
120.52136	97.4375
124.87327	105.9375
129.222	104.6375
133.56755	106.6375
137.90993	118.7375
142.24913	126.2375
146.58517	135.2375
150.91804	155.5375
155.24774	180.8375
159.57429	219.7375
163.89768	274.9375
168.21792	357.5375
172.53501	478.2375
176.84895	661.5375
181.15975	917.9375
185.46741	1292.7375
189.77193	1771.2375
194.07331	2373.1375
198.37157	3048.6375
202.6667	3792.3375
206.9587	4521.3375
211.24758	5208.3375
215.53334	5925.3375
219.81599	6660.8375
224.09553	7488.4375
228.37195	8393.2375
232.64527	9414.0375
236.91549	10490.3375
241.18261	11622.0375
245.44663	12661.2375
249.70755	13556.0375
253.96539	14358.9375
258.22014	15003.0375
262.4718	15506.9375
266.72039	15884.4375
270.96589	16071.2375
275.20832	16091.4375
279.44768	15948.9375
283.68397	15757.0375
287.91719	15530.2375
292.14735	15416.1375
296.37445	15394.5375
300.59849	15472.1375
304.81948	15537.4375
309.03742	15500.7375
313.25231	15307.5375
317.46415	14992.1375
321.67296	14565.1375
325.87872	14231.3375
330.08145	14084.3375
334.28114	14154.8375
338.47781	14280.5375
342.67145	14486.1375
346.86207	14742.0375
351.04966	15029.9375
355.23424	15367.1375
359.4158	15649.4375
363.59435	15898.8375
367.76989	16063.7375
371.94243	16230.0375
376.11196	16327.6375
380.27849	16463.6375
384.44203	16523.8375
388.60257	16635.6375
392.76012	16714.2375
396.91468	16869.3375
401.06626	17055.2375
405.21485	17185.4375
409.36047	17092.9375
413.50311	16813.6375
417.64277	16517.2375
421.77947	16286.8375
425.9132	16206.3375
430.04396	16215.6375
434.17176	16269.7375
438.2966	16360.6375
442.41849	16501.7375
446.53742	16716.1375
450.6534	16949.4375
454.76644	17186.5375
458.87653	17322.2375
462.98368	17370.6375
467.08789	17390.0375
471.18916	17308.4375
475.2875	17195.3375
479.38291	17102.5375
483.4754	16940.9375
487.56496	16816.8375
491.6516	16733.7375
495.73531	16726.1375
499.81612	16734.3375
503.89401	16867.1375
507.96899	16952.3375
512.04106	17048.2375
516.11023	17137.1375
520.1765	17143.5375
524.23987	17153.1375
528.30034	17082.8375
532.35792	17049.1375
536.41261	17056.4375
540.46441	16947.8375
544.51333	16889.2375
548.55936	16917.8375
552.60252	16973.4375
556.64279	17109.3375
560.6802	17146.0375
564.71473	17117.2375
568.7464	17173.4375
572.7752	17226.3375
576.80114	17262.3375
580.82422	17235.6375
584.84444	17334.2375
588.86181	17350.6375
592.87633	17318.1375
596.888	17386.8375
600.89682	17694.1375
604.9028	18517.2375
608.90594	20495.6375
612.90624	22668.0375
616.90371	21879.9375
620.89834	18702.0375
624.89015	17181.6375
628.87913	16931.0375
632.86528	17129.3375
636.84862	17360.8375
640.82913	17328.4375
644.80683	16989.6375
648.78172	16632.1375
652.75379	16525.7375
656.72306	16693.7375
660.68952	16944.6375
664.65319	16951.9375
668.61405	16775.0375
672.57211	16756.3375
676.52738	16834.7375
680.47986	16862.0375
684.42955	16719.8375
688.37646	16544.9375
692.32058	16487.7375
696.26192	16543.2375
700.20048	16666.8375
704.13626	16673.0375
708.06928	16723.4375
711.99952	16657.8375
715.927	16600.0375
719.85171	16622.1375
723.77365	16611.2375
727.69284	16612.0375
731.60928	16556.6375
735.52295	16561.9375
739.43388	16577.1375
743.34206	16614.1375
747.24749	16590.1375
751.15017	16563.3375
755.05012	16570.3375
758.94733	16788.6375
762.8418	17409.8375
766.73354	18637.2375
770.62254	20022.7375
774.50882	20975.2375
778.39237	20540.4375
782.27321	19129.6375
786.15132	17783.6375
790.02671	16904.9375
793.89938	16441.2375
797.76935	16256.9375
801.6366	16153.9375
805.50115	16099.3375
809.36299	16044.6375
813.22213	15974.5375
817.07857	15936.7375
820.93231	15904.1375
824.78336	15876.9375
828.63172	15887.9375
832.47738	15856.0375
836.32036	15827.5375
840.16066	15791.9375
843.99827	15758.4375
847.8332	15760.6375
851.66546	15745.3375
855.49504	15751.6375
859.32195	15811.5375
863.1462	15835.1375
866.96777	15863.2375
870.78668	15875.2375
874.60293	15861.7375
878.41652	15880.2375
882.22745	15903.8375
886.03573	15981.7375
889.84136	16006.0375
893.64433	15952.1375
897.44466	15879.0375
901.24235	15812.3375
905.0374	15717.2375
908.8298	15634.2375
912.61957	15624.3375
916.40671	15625.2375
920.19121	15679.7375
923.97308	15770.9375
927.75233	15757.3375
931.52895	15772.5375
935.30295	15696.1375
939.07433	15550.4375
942.84309	15394.4375
946.60924	15349.0375
950.37278	15278.1375
954.13371	15205.0375
957.89203	15185.7375
961.64774	15107.9375
965.40086	15046.2375
969.15137	14996.8375
972.89929	14932.7375
976.64461	14899.5375
980.38733	14896.4375
984.12747	14893.6375
987.86502	14953.7375
991.59999	14999.7375
995.33237	15068.9375
999.06217	15217.9375
1002.78939	15332.5375
1006.51404	15479.0375
1010.23611	15674.3375
1013.95561	15816.6375
1017.67255	15820.5375
1021.38692	15831.7375
1025.09872	15692.1375
1028.80796	15518.2375
1032.51465	15509.9375
1036.21877	15549.8375
1039.92035	15631.9375
1043.61937	15685.5375
1047.31584	15710.8375
1051.00976	15708.4375
1054.70114	15743.7375
1058.38998	15764.8375
1062.07627	15844.9375
1065.76003	15975.3375
1069.44126	16077.1375
1073.11995	16226.3375
1076.79611	16404.6375
1080.46974	16487.9375
1084.14085	16452.7375
1087.80943	16492.6375
1091.47549	16533.6375
1095.13903	16593.2375
1098.80005	16488.3375
1102.45857	16346.3375
1106.11456	16163.4375
1109.76805	16106.6375
1113.41903	16163.1375
1117.06751	16259.9375
1120.71348	16484.2375
1124.35696	16693.6375
1127.99793	16977.2375
1131.63641	17191.9375
1135.2724	17138.5375
1138.90589	16919.5375
1142.5369	16714.8375
1146.16542	16507.3375
1149.79145	16326.2375
1153.415	16164.7375
1157.03607	16168.2375
1160.65467	16305.4375
1164.27079	16638.4375
1167.88443	17091.1375
1171.49561	17709.9375
1175.10432	18592.5375
1178.71056	19716.9375
1182.31434	20813.7375
1185.91565	21386.3375
1189.51451	21474.6375
1193.11091	21175.7375
1196.70485	20472.4375
1200.29634	19755.6375
1203.88538	19090.2375
1207.47197	18451.0375
1211.05612	17828.2375
1214.63782	17385.1375
1218.21708	17151.5375
1221.79391	17030.6375
1225.36829	16956.6375
1228.94024	16918.7375
1232.50976	16933.8375
1236.07685	16976.4375
1239.6415	16970.6375
1243.20374	17002.5375
1246.76355	17083.0375
1250.32093	17218.3375
1253.8759	17405.6375
1257.42845	17703.9375
1260.97859	18007.2375
1264.52631	18282.1375
1268.07163	18638.9375
1271.61453	18936.0375
1275.15503	19222.0375
1278.69312	19455.4375
1282.22882	19705.3375
1285.76211	19915.1375
1289.29301	20232.0375
1292.82151	20643.4375
1296.34761	21126.8375
1299.87133	21742.8375
1303.39266	22504.4375
1306.9116	23371.2375
1310.42815	24244.6375
1313.94233	24805.2375
1317.45412	24627.4375
1320.96354	24040.0375
1324.47058	23456.3375
1327.97525	22840.9375
1331.47754	22367.2375
1334.97747	22100.9375
1338.47502	22122.4375
1341.97022	22435.6375
1345.46305	22988.2375
1348.95352	23725.9375
1352.44163	24631.6375
1355.92738	25667.8375
1359.41078	26822.4375
1362.89183	27914.7375
1366.37053	27545.6375
1369.84688	25105.4375
1373.32088	22488.8375
1376.79254	20673.1375
1380.26186	19723.4375
1383.72883	19203.2375
1387.19347	18823.7375
1390.65578	18468.8375
1394.11575	18158.8375
1397.57339	17881.5375
1401.0287	17748.0375
1404.48168	17723.5375
1407.93234	17686.6375
1411.38068	17618.6375
1414.82669	17513.1375
1418.27039	17315.7375
1421.71177	17116.7375
1425.15083	16900.1375
1428.58758	16730.8375
1432.02203	16715.4375
1435.45416	16745.4375
1438.88399	16924.0375
1442.31151	17063.7375
1445.73673	17179.5375
1449.15965	17340.3375
1452.58027	17468.9375
1455.9986	17614.1375
1459.41463	17797.4375
1462.82837	18051.9375
1466.23982	18285.1375
1469.64898	18486.1375
1473.05586	18647.4375
1476.46045	18718.4375
1479.86276	18812.9375
1483.26279	18810.2375
1486.66054	18897.2375
1490.05602	19083.0375
1493.44922	19448.6375
1496.84016	20050.4375
1500.22882	21041.6375
1503.61521	22376.2375
1506.99934	23918.4375
1510.38121	25175.5375
1513.76081	25539.3375
1517.13816	24681.6375
1520.51324	23153.8375
1523.88607	21636.1375
1527.25665	20535.3375
1530.62498	19940.2375
1533.99105	19559.9375
1537.35488	19307.6375
1540.71647	19077.9375
1544.07581	18850.2375
1547.4329	18743.9375
1550.78776	18588.3375
1554.14038	18537.9375
1557.49077	18643.0375
1560.83892	18788.1375
1564.18484	18953.7375
1567.52853	19111.6375
1570.86999	19328.5375
1574.20922	19505.0375
1577.54624	19548.9375
1580.88103	19196.6375
1584.2136	18663.1375
1587.54395	18323.0375
1590.87208	18221.6375
1594.19801	18496.0375
1597.52172	19050.0375
1600.84321	19381.4375
1604.16251	19206.5375
1607.47959	18712.1375
1610.79447	18144.2375
1614.10715	17484.8375
1617.41763	16787.7375
1620.7259	16222.1375
1624.03199	15847.7375
1627.33587	15733.7375
1630.63757	15758.2375
1633.93707	16040.9375
1637.23439	16615.1375
1640.52951	17454.1375
1643.82246	18542.4375
1647.11321	19826.4375
1650.40179	20671.2375
1653.68819	20548.1375
1656.97241	19258.6375
1660.25446	17600.9375
1663.53433	16225.8375
1666.81203	15358.0375
1670.08756	14749.0375
1673.36092	14375.8375
1676.63211	14094.6375
1679.90115	13880.8375
1683.16801	13779.7375
1686.43272	13641.3375
1689.69527	13528.2375
1692.95567	13483.6375
1696.2139	13427.8375
1699.46999	13383.7375
1702.72392	13330.0375
1705.97571	13280.2375
1709.22535	13243.8375
1712.47284	13220.6375
1715.71819	13194.7375
1718.96139	13151.0375
1722.20246	13114.0375
1725.44139	13052.6375
1728.67818	12996.3375
1731.91284	12931.1375
1735.14537	12884.6375
1738.37576	12840.8375
1741.60403	12780.4375
1744.83017	12750.6375
1748.05418	12724.4375
1751.27607	12686.4375
1754.49584	12682.1375
1757.71349	12673.4375
1760.92903	12659.6375
1764.14244	12664.8375
1767.35375	12634.2375
1770.56294	12612.7375
1773.77002	12589.1375
1776.97499	12569.5375
1780.17785	12532.2375
1783.37861	12510.7375
1786.57727	12486.8375
1789.77382	12449.9375
1792.96828	12436.3375
1796.16064	12416.6375
1799.3509	12409.5375
1802.53907	12370.8375
1805.72514	12336.5375
1808.90913	12316.5375
1812.09102	12278.9375
1815.27083	12222.1375
1818.44856	12202.8375
1821.6242	12174.7375
1824.79776	12171.9375
1827.96924	12143.1375
1831.13864	12180.5375
1834.30597	12163.4375
1837.47122	12162.9375
1840.6344	12117.7375
1843.7955	12130.8375
1846.95454	12128.1375
1850.11151	12086.9375
1853.26642	12079.7375
1856.41926	12094.7375
1859.57004	12069.8375
1862.71876	12060.8375
1865.86542	12053.1375
1869.01003	12027.3375
1872.15258	12020.8375
1875.29308	12001.8375
1878.43152	11970.5375
1881.56792	11978.9375
1884.70227	11962.7375
1887.83457	11937.1375
1890.96482	11917.6375
1894.09304	11933.2375
1897.21921	11881.3375
1900.34335	11907.3375
1903.46544	11875.2375
1906.58551	11865.0375
1909.70353	11834.0375
1912.81953	11838.2375
1915.93349	11830.3375
1919.04543	11774.8375
1922.15534	11748.0375
1925.26322	11737.6375
1928.36908	11729.6375
1931.47292	11695.5375
1934.57473	11644.9375
1937.67453	11617.7375
1940.77232	11606.7375
1943.86808	11571.0375
1946.96184	11563.2375
1950.05358	11511.8375
1953.14331	11521.0375
1956.23103	11473.8375
1959.31675	11415.5375
1962.40046	11411.7375
1965.48217	11395.9375
1968.56188	11336.5375
1971.63959	11317.7375
1974.7153	11262.5375
1977.78901	11245.1375
1980.86073	11201.2375
1983.93046	11179.2375
1986.99819	11124.8375
1990.06394	11099.4375
1993.1277	11034.7375
1996.18947	11039.0375
1999.24925	11040.2375
2002.30706	10985.6375
2005.36288	10951.3375
2008.41672	10940.2375
2011.46859	10911.6375
2014.51848	10847.5375
2017.56639	10798.8375
2020.61233	10774.3375
2023.6563	10751.0375
2026.6983	10728.9375
2029.73833	10731.8375
2032.7764	10691.1375
2035.8125	10677.9375
2038.84664	10633.3375
2041.87881	10613.9375
2044.90903	10615.3375
2047.93729	10601.5375
2050.96359	10564.2375
2053.98794	10548.1375
2057.01034	10525.6375
2060.03078	10520.3375
2063.04927	10520.9375
2066.06582	10539.9375
2069.08042	10508.2375
2072.09307	10493.6375
2075.10378	10485.5375
2078.11255	10473.8375
2081.11938	10496.1375
2084.12426	10464.7375
2087.12722	10446.3375
2090.12824	10461.1375
2093.12732	10445.1375
2096.12447	10452.1375
2099.11969	10461.5375
2102.11299	10441.8375
2105.10435	10468.9375
2108.09379	10467.3375
2111.08131	10490.0375
2114.0669	10464.1375
2117.05057	10490.2375
2120.03233	10490.2375
2123.01216	10519.0375
2125.99008	10516.4375
2128.96609	10533.5375
2131.94018	10534.4375
2134.91236	10555.1375
2137.88263	10551.2375
2140.851	10521.0375
2143.81746	10566.3375
2146.78201	10550.6375
2149.74466	10550.0375
2152.7054	10549.2375
2155.66425	10531.0375
2158.6212	10533.5375
2161.57625	10543.3375
2164.52941	10530.4375
2167.48067	10521.5375
2170.43004	10516.8375
2173.37752	10505.1375
2176.32311	10527.3375
2179.26681	10512.8375
2182.20863	10507.7375
2185.14856	10518.5375
2188.08661	10519.4375
2191.02278	10485.0375
2193.95707	10480.8375
2196.88948	10470.7375
2199.82001	10449.7375
2202.74867	10443.4375
2205.67545	10445.6375
2208.60037	10425.1375
2211.52341	10402.7375
2214.44458	10385.8375
2217.36388	10347.6375
2220.28132	10356.7375
2223.1969	10326.6375
2226.11061	10333.5375
2229.02246	10289.6375
2231.93245	10265.4375
2234.84058	10240.5375
2237.74686	10232.0375
2240.65128	10253.3375
2243.55385	10210.7375
2246.45456	10200.6375
2249.35343	10199.2375
2252.25044	10173.7375
2255.14561	10169.5375
2258.03893	10147.9375
2260.93041	10146.1375
2263.82004	10117.3375
2266.70783	10104.7375
2269.59378	10063.2375
2272.4779	10054.9375
2275.36017	10030.7375
2278.24061	10005.3375
2281.11922	9971.3375
2283.996	9978.9375
2286.87094	9939.9375
2289.74405	9924.6375
2292.61534	9922.5375
2295.4848	9896.5375
2298.35243	9900.2375
2301.21824	9895.0375
2304.08223	9896.6375
2306.94439	9867.0375
2309.80474	9872.2375
2312.66327	9857.6375
2315.51999	9835.7375
2318.37489	9847.3375
2321.22797	9817.8375
2324.07925	9816.3375
2326.92871	9801.9375
2329.77637	9807.9375
2332.62222	9779.1375
2335.46626	9759.6375
2338.3085	9726.8375
2341.14893	9717.6375
2343.98756	9721.8375
2346.8244	9711.3375
2349.65943	9704.9375
2352.49267	9703.7375
2355.32411	9677.2375
2358.15376	9708.8375
2360.98161	9698.8375
2363.80768	9707.3375
2366.63195	9664.9375
2369.45444	9666.7375
2372.27514	9644.2375
2375.09405	9663.4375
2377.91118	9625.9375
2380.72652	9606.7375
2383.54009	9582.6375
2386.35187	9594.3375
2389.16188	9534.0375
2391.97011	9523.7375
2394.77657	9500.8375
2397.58125	9460.5375
2400.38416	9474.2375
2403.18529	9447.9375
2405.98466	9455.2375
2408.78226	9418.3375
2411.57809	9411.5375
2414.37216	9410.7375
2417.16446	9416.7375
2419.955	9377.0375
2422.74378	9399.9375
2425.5308	9379.9375
2428.31606	9363.4375
2431.09956	9338.9375
2433.88131	9362.6375
2436.6613	9348.3375
2439.43954	9330.4375
2442.21603	9301.5375
2444.99077	9316.5375
2447.76377	9313.8375
2450.53501	9298.6375
2453.30451	9294.6375
2456.07226	9289.0375
2458.83827	9271.8375
2461.60254	9278.2375
2464.36507	9245.1375
2467.12586	9222.2375
2469.88492	9238.9375
2472.64224	9227.1375
2475.39782	9244.8375
2478.15167	9221.2375
2480.90379	9214.9375
2483.65417	9200.3375
2486.40283	9212.1375
2489.14976	9206.5375
2491.89497	9190.2375
2494.63845	9190.4375
2497.3802	9205.0375
2500.12024	9204.4375
2502.85855	9157.6375
2505.59514	9171.5375
2508.33002	9158.7375
2511.06318	9132.5375
2513.79462	9137.4375
2516.52435	9098.2375
2519.25237	9104.6375
2521.97867	9078.1375
2524.70327	9067.5375
2527.42616	9032.1375
2530.14734	9054.8375
2532.86681	9021.2375
2535.58458	9041.4375
2538.30065	8996.2375
2541.01501	9004.1375
2543.72768	8985.5375
2546.43864	8978.0375
2549.14791	8951.8375
2551.85548	8954.9375
2554.56136	8927.0375
2557.26554	8934.1375
2559.96803	8941.1375
2562.66883	8888.6375
2565.36794	8893.3375
2568.06536	8905.1375
2570.7611	8867.1375
2573.45514	8856.2375
2576.14751	8834.6375
2578.83819	8806.4375
2581.52719	8815.6375
2584.21451	8790.9375
2586.90015	8781.3375
2589.58411	8778.9375
2592.2664	8756.6375
2594.94701	8722.7375
2597.62594	8716.9375
2600.30321	8700.2375
2602.9788	8677.2375
2605.65273	8660.7375
2608.32498	8654.0375
2610.99557	8638.3375
2613.66449	8641.4375
2616.33175	8640.6375
2618.99734	8644.9375
2621.66128	8602.4375
2624.32355	8605.7375
2626.98416	8589.7375
2629.64311	8605.7375
2632.30041	8596.4375
2634.95605	8569.3375
2637.61004	8565.0375
2640.26238	8554.1375
2642.91306	8533.2375
2645.56209	8547.1375
2648.20948	8547.3375
2650.85521	8503.8375
2653.4993	8510.5375
2656.14175	8516.7375
2658.78255	8513.3375
2661.42171	8510.4375
2664.05923	8521.3375
2666.6951	8527.2375
2669.32934	8503.5375
2671.96194	8499.4375
2674.59291	8520.5375
2677.22224	8521.8375
2679.84993	8503.5375
2682.476	8505.5375
2685.10043	8492.7375
2687.72324	8489.1375
2690.34441	8491.8375
2692.96396	8501.9375
2695.58188	8498.2375
2698.19818	8482.0375
2700.81285	8500.2375
2703.4259	8489.6375
2706.03733	8495.8375
2708.64714	8499.8375
2711.25533	8501.8375
2713.86191	8487.1375
2716.46687	8487.5375
2719.07021	8500.0375
2721.67194	8490.9375
2724.27206	8489.7375
2726.87057	8490.4375
2729.46747	8477.6375
2732.06276	8458.7375
2734.65644	8442.2375
2737.24852	8465.5375
2739.83899	8464.2375
2742.42786	8453.9375
2745.01513	8436.5375
2747.60079	8432.9375
2750.18486	8408.0375
2752.76733	8435.3375
2755.3482	8411.8375
2757.92747	8408.9375
2760.50515	8401.6375
2763.08123	8371.0375
2765.65573	8372.0375
2768.22863	8365.5375
2770.79994	8371.8375
2773.36967	8342.9375
2775.9378	8338.4375
2778.50435	8320.1375
2781.06932	8316.6375
2783.6327	8299.3375
2786.1945	8284.1375
2788.75471	8292.8375
2791.31335	8254.5375
2793.87041	8225.5375
2796.42589	8210.9375
2798.97979	8207.5375
2801.53212	8196.3375
2804.08288	8190.5375
2806.63206	8187.0375
2809.17967	8158.5375
2811.72571	8134.2375
2814.27018	8138.8375
2816.81308	8119.3375
2819.35442	8118.0375
2821.89419	8094.3375
2824.43239	8079.1375
2826.96904	8099.9375
2829.50412	8076.2375
2832.03763	8063.0375
2834.56959	8050.3375
2837.1	8030.9375
2839.62884	8050.0375
2842.15613	8070.0375
2844.68186	8066.4375
2847.20604	8052.9375
2849.72867	8072.8375
2852.24974	8060.0375
2854.76927	8047.1375
2857.28724	8040.6375
2859.80367	8035.3375
2862.31855	7998.5375
2864.83189	8011.7375
2867.34368	7974.6375
2869.85393	8006.9375
2872.36264	7985.5375
2874.8698	7991.1375
2877.37543	7990.6375
2879.87952	7990.3375
2882.38207	7976.3375
2884.88308	7978.9375
2887.38256	7980.3375
2889.88051	7953.0375
2892.37692	7956.7375
2894.8718	7986.2375
2897.36515	7959.6375
2899.85698	7958.6375
2902.34727	7985.4375
2904.83604	7962.0375
2907.32328	7964.8375
2909.809	7967.8375
2912.29319	7977.7375
2914.77587	7982.0375
2917.25702	7971.8375
2919.73665	7982.3375
2922.21476	7965.4375
2924.69136	7945.9375
2927.16644	7965.4375
2929.64	7945.6375
2932.11205	7942.1375
2934.58258	7914.7375
2937.05161	7948.5375
2939.51912	7920.4375
2941.98513	7909.0375
2944.44962	7910.5375
2946.91261	7865.0375
2949.37409	7893.5375
2951.83407	7890.1375
2954.29254	7873.6375
2956.74951	7859.9375
2959.20498	7875.0375
2961.65895	7858.5375
2964.11142	7857.9375
2966.56239	7851.5375
2969.01186	7833.4375
2971.45984	7805.1375
2973.90632	7813.3375
2976.35131	7800.7375
2978.7948	7783.2375
2981.23681	7769.4375
2983.67732	7757.3375
2986.11635	7741.8375
2988.55388	7726.1375
2990.98993	7731.4375
2993.4245	7717.0375
2995.85758	7697.4375
2998.28917	7675.8375
3000.71928	7681.9375
3003.14791	7677.8375
3005.57506	7662.2375
3008.00073	7645.2375
3010.42493	7621.2375
3012.84764	7620.6375
3015.26888	7626.0375
3017.68865	7600.9375
3020.10694	7597.2375
3022.52376	7571.7375
3024.9391	7558.2375
3027.35298	7548.3375
3029.76539	7529.1375
3032.17632	7525.5375
3034.5858	7524.5375
3036.9938	7499.3375
3039.40034	7508.1375
3041.80542	7481.8375
3044.20903	7493.0375
3046.61118	7488.3375
3049.01187	7475.3375
3051.4111	7472.0375
3053.80888	7465.9375
3056.20519	7444.7375
3058.60005	7433.1375
3060.99345	7427.3375
3063.3854	7429.2375
3065.7759	7417.2375
3068.16494	7383.9375
3070.55254	7371.6375
3072.93868	7374.0375
3075.32338	7365.5375
3077.70662	7365.7375
3080.08842	7347.6375
3082.46878	7339.4375
3084.84769	7333.5375
3087.22515	7320.9375
3089.60118	7329.2375
3091.97576	7339.6375
3094.3489	7319.2375
3096.72061	7336.0375
3099.09087	7317.3375
3101.4597	7328.4375
3103.82709	7327.4375
3106.19305	7319.4375
3108.55757	7321.0375
3110.92066	7297.6375
3113.28232	7307.3375
3115.64255	7280.1375
3118.00134	7266.2375
3120.35871	7277.6375
3122.71466	7254.9375
3125.06917	7254.9375
3127.42226	7224.7375
3129.77393	7249.9375
3132.12417	7239.4375
3134.47299	7242.2375
3136.82039	7255.3375
3139.16636	7268.2375
3141.51092	7264.9375
3143.85406	7259.2375
3146.19579	7276.7375
3148.53609	7271.8375
3150.87499	7261.0375
3153.21246	7279.3375
3155.54853	7306.3375
3157.88318	7288.7375
3160.21642	7295.3375
3162.54826	7321.0375
3164.87868	7308.1375
3167.2077	7326.1375
3169.5353	7289.2375
3171.86151	7309.4375
3174.18631	7290.9375
3176.5097	7282.5375
3178.83169	7263.6375
3181.15228	7290.0375
3183.47147	7278.2375
3185.78926	7277.5375
3188.10565	7262.4375
3190.42065	7258.9375
3192.73424	7267.5375
3195.04645	7251.7375
3197.35725	7262.7375
3199.66667	7285.3375
3201.97469	7256.0375
3204.28132	7274.7375
3206.58656	7297.1375
3208.8904	7287.8375
3211.19287	7307.5375
3213.49394	7319.9375
3215.79363	7299.2375
3218.09193	7317.6375
3220.38884	7309.3375
3222.68438	7311.5375
3224.97853	7299.0375
3227.2713	7270.9375
3229.56269	7272.0375
3231.8527	7277.3375
3234.14133	7272.4375
3236.42858	7272.2375
3238.71446	7253.7375
3240.99896	7233.4375
3243.28209	7238.1375
3245.56384	7210.0375
3247.84423	7232.9375
3250.12324	7222.4375
3252.40088	7215.6375
3254.67715	7229.4375
3256.95205	7206.6375
3259.22558	7203.9375
3261.49775	7180.7375
3263.76855	7190.3375
3266.03799	7170.6375
3268.30606	7162.1375
3270.57277	7158.4375
3272.83812	7144.3375
3275.10211	7145.5375
3277.36474	7123.7375
3279.62601	7119.9375
3281.88593	7101.6375
3284.14448	7108.8375
3286.40168	7113.3375
3288.65753	7095.1375
3290.91202	7083.8375
3293.16516	7060.0375
3295.41695	7035.7375
3297.66738	7007.3375
3299.91647	6974.6375
3302.16421	6933.5375
3304.4106	6925.0375
3306.65564	6869.9375
3308.89933	6857.2375
3311.14169	6800.3375
3313.38269	6742.7375
3315.62236	6722.7375
3317.86068	6670.6375
3320.09766	6607.3375
3322.3333	6541.3375
3324.5676	6542.8375
3326.80056	6435.9375
3329.03219	6398.3375
3331.26248	1.1375
3333.49143	1.5375
3335.71905	-1.2625
