Data from AgNPs_FTO_APTES_UA_0uM_R6G_10uM_NaF_0.1M_Addition_RamanShift__9__10-05-37-084.txt Node

Date: Fri Dec 17 10:05:37 GMT 2021
User: TCL
Spectrometer: QEP01345
Trigger mode: 4
Integration Time (sec): 7.000000E0
Scans to average: 10
Electric dark correction enabled: true
Nonlinearity correction enabled: false
Boxcar width: 0
XAxis mode: Raman Shifts
Number of Pixels in Spectrum: 1044
>>>>>Begin Spectral Data<<<<<
46.04893	-0.2
50.45542	1.5
54.85868	0.1
59.25871	0.3
63.6555	29.6
68.04907	33
72.43941	35.1
76.82654	39
81.21044	36.5
85.59113	41.3
89.96862	44.9
94.34289	43.6
98.71396	45.5
103.08183	45.2
107.4465	48.4
111.80798	45.8
116.16626	46.9
120.52136	45.1
124.87327	50.6
129.222	51
133.56755	50.4
137.90993	56.2
142.24913	53.5
146.58517	59.5
150.91804	63.9
155.24774	71
159.57429	88.5
163.89768	107.5
168.21792	139
172.53501	177.9
176.84895	231.4
181.15975	314.8
185.46741	439.9
189.77193	607.2
194.07331	803.5
198.37157	1043.7
202.6667	1291.2
206.9587	1535.6
211.24758	1787.9
215.53334	2030.7
219.81599	2307.2
224.09553	2596.7
228.37195	2945.8
232.64527	3270
236.91549	3650.3
241.18261	3969.2
245.44663	4238
249.70755	4449
253.96539	4638.9
258.22014	4790.9
262.4718	4921.9
266.72039	4998.1
270.96589	5016.3
275.20832	4979.3
279.44768	4883.2
283.68397	4763.1
287.91719	4664.7
292.14735	4611.9
296.37445	4615.6
300.59849	4731.4
304.81948	4869.4
309.03742	5003.9
313.25231	5063.9
317.46415	4961.1
321.67296	4777
325.87872	4605.9
330.08145	4509
334.28114	4498.9
338.47781	4523.9
342.67145	4569
346.86207	4663.6
351.04966	4803.8
355.23424	4958.1
359.4158	5121.9
363.59435	5156.8
367.76989	5179.8
371.94243	5186
376.11196	5167.1
380.27849	5139.7
384.44203	5117.4
388.60257	5083.6
392.76012	5066.9
396.91468	5078.3
401.06626	5136.5
405.21485	5220.3
409.36047	5144.8
413.50311	4973.9
417.64277	4807.8
421.77947	4707.2
425.9132	4685.4
430.04396	4688.1
434.17176	4737.1
438.2966	4803.2
442.41849	4956.9
446.53742	5152.3
450.6534	5357.9
454.76644	5423.9
458.87653	5334.4
462.98368	5186.6
467.08789	5022.8
471.18916	4901.2
475.2875	4776.1
479.38291	4651.8
483.4754	4596.3
487.56496	4578.6
491.6516	4576.3
495.73531	4600.3
499.81612	4617.6
503.89401	4670
507.96899	4722.8
512.04106	4788.9
516.11023	4842.9
520.1765	4895.4
524.23987	4913.3
528.30034	4896
532.35792	4868.1
536.41261	4776.5
540.46441	4673.1
544.51333	4591.5
548.55936	4580.1
552.60252	4672.9
556.64279	4819.1
560.6802	4919.7
564.71473	4916.4
568.7464	4938
572.7752	4982.3
576.80114	4875.8
580.82422	4782.9
584.84444	4857.7
588.86181	5098.1
592.87633	5544.3
596.888	5840.2
600.89682	5678.1
604.9028	5654.3
608.90594	6463.7
612.90624	7796.4
616.90371	7730
620.89834	5859.3
624.89015	4824.6
628.87913	4600.2
632.86528	4588.2
636.84862	4614
640.82913	4576.2
644.80683	4453
648.78172	4354
652.75379	4366
656.72306	4479.1
660.68952	4658.9
664.65319	4609.5
668.61405	4418.9
672.57211	4327.9
676.52738	4350.6
680.47986	4355.5
684.42955	4308.9
688.37646	4275.5
692.32058	4283.2
696.26192	4303.3
700.20048	4367.4
704.13626	4388.5
708.06928	4378.7
711.99952	4391.1
715.927	4383.9
719.85171	4396.7
723.77365	4413.3
727.69284	4398.3
731.60928	4364.1
735.52295	4376.7
739.43388	4400.7
743.34206	4423.4
747.24749	4429.9
751.15017	4441.8
755.05012	4477.5
758.94733	4612.4
762.8418	4957.7
766.73354	5582.1
770.62254	6315.4
774.50882	6691.2
778.39237	6424.3
782.27321	5748.9
786.15132	5078.3
790.02671	4664.4
793.89938	4465
797.76935	4390
801.6366	4332.9
805.50115	4281.2
809.36299	4259
813.22213	4215.2
817.07857	4210.9
820.93231	4207.4
824.78336	4201.2
828.63172	4190.9
832.47738	4225.7
836.32036	4215.8
840.16066	4201.9
843.99827	4208.2
847.8332	4197
851.66546	4220.8
855.49504	4210
859.32195	4201.9
863.1462	4184.4
866.96777	4172.3
870.78668	4176.5
874.60293	4182.6
878.41652	4198.2
882.22745	4216
886.03573	4248.4
889.84136	4252.1
893.64433	4256.3
897.44466	4251.4
901.24235	4264.9
905.0374	4274.3
908.8298	4274
912.61957	4295.6
916.40671	4336
920.19121	4390.4
923.97308	4467
927.75233	4515.6
931.52895	4568.7
935.30295	4505.4
939.07433	4389.7
942.84309	4266.9
946.60924	4185.9
950.37278	4149.7
954.13371	4086.8
957.89203	4059.5
961.64774	4038.2
965.40086	4013.8
969.15137	4002.1
972.89929	3991.9
976.64461	3964.6
980.38733	3960.9
984.12747	3956.1
987.86502	3979.3
991.59999	4006.2
995.33237	4066.6
999.06217	4133.8
1002.78939	4204.7
1006.51404	4274.9
1010.23611	4332.1
1013.95561	4367.6
1017.67255	4363.9
1021.38692	4309.3
1025.09872	4218.8
1028.80796	4154.6
1032.51465	4139.1
1036.21877	4168.8
1039.92035	4198.7
1043.61937	4214
1047.31584	4246
1051.00976	4247.3
1054.70114	4262.3
1058.38998	4256.2
1062.07627	4272
1065.76003	4248.9
1069.44126	4224.9
1073.11995	4228.5
1076.79611	4262
1080.46974	4312.8
1084.14085	4365.1
1087.80943	4457.9
1091.47549	4500.8
1095.13903	4441.2
1098.80005	4290.4
1102.45857	4170.9
1106.11456	4126
1109.76805	4130.4
1113.41903	4182.8
1117.06751	4265
1120.71348	4388.4
1124.35696	4494.7
1127.99793	4624.4
1131.63641	4654.5
1135.2724	4499.5
1138.90589	4321.4
1142.5369	4202.7
1146.16542	4123.9
1149.79145	4097.9
1153.415	4090.5
1157.03607	4106.6
1160.65467	4150.9
1164.27079	4269.8
1167.88443	4499.4
1171.49561	4874.6
1175.10432	5452.4
1178.71056	6249.7
1182.31434	6935.1
1185.91565	7082.8
1189.51451	6785
1193.11091	6261.6
1196.70485	5754.6
1200.29634	5357.5
1203.88538	5058.8
1207.47197	4723.4
1211.05612	4478.9
1214.63782	4336.2
1218.21708	4342.7
1221.79391	4420.5
1225.36829	4542
1228.94024	4535.5
1232.50976	4443.3
1236.07685	4304.5
1239.6415	4228.8
1243.20374	4188.9
1246.76355	4186.7
1250.32093	4212
1253.8759	4283.8
1257.42845	4366.8
1260.97859	4514.9
1264.52631	4676.4
1268.07163	4820.5
1271.61453	4938.4
1275.15503	5024.7
1278.69312	5104.2
1282.22882	5190.4
1285.76211	5331.7
1289.29301	5592.3
1292.82151	5834.1
1296.34761	6111.2
1299.87133	6444.4
1303.39266	6908.6
1306.9116	7628
1310.42815	8494.3
1313.94233	9149
1317.45412	9127.7
1320.96354	8421.2
1324.47058	7544.2
1327.97525	6713.7
1331.47754	6154.6
1334.97747	5884.3
1338.47502	5786.6
1341.97022	5749.9
1345.46305	5860.4
1348.95352	6258.2
1352.44163	6954.3
1355.92738	7923.6
1359.41078	9203
1362.89183	10557.6
1366.37053	10766.1
1369.84688	9359
1373.32088	7478.1
1376.79254	6244.6
1380.26186	5699
1383.72883	5504.9
1387.19347	5332
1390.65578	5118.3
1394.11575	4979.1
1397.57339	4941.6
1401.0287	4984.3
1404.48168	5006.8
1407.93234	4984.5
1411.38068	4922.6
1414.82669	4889.5
1418.27039	4816.7
1421.71177	4756.8
1425.15083	4658.3
1428.58758	4609.9
1432.02203	4638.4
1435.45416	4745.1
1438.88399	4839.3
1442.31151	4839.8
1445.73673	4839.3
1449.15965	4829.8
1452.58027	4772.6
1455.9986	4671.8
1459.41463	4581.7
1462.82837	4595.8
1466.23982	4681.3
1469.64898	4796.8
1473.05586	4902.2
1476.46045	4986.6
1479.86276	5054.9
1483.26279	5106.5
1486.66054	5185.9
1490.05602	5284.9
1493.44922	5443.8
1496.84016	5681.8
1500.22882	6097
1503.61521	6740.1
1506.99934	7504.2
1510.38121	8307.5
1513.76081	8708
1517.13816	8374.7
1520.51324	7439
1523.88607	6469.1
1527.25665	5801.5
1530.62498	5456.7
1533.99105	5263.8
1537.35488	5094.3
1540.71647	4958.5
1544.07581	4852.3
1547.4329	4745.5
1550.78776	4690.7
1554.14038	4633.1
1557.49077	4638.4
1560.83892	4689.4
1564.18484	4781.8
1567.52853	4939.2
1570.86999	5118
1574.20922	5265.7
1577.54624	5281.9
1580.88103	5096.4
1584.2136	4742.5
1587.54395	4534.5
1590.87208	4588.4
1594.19801	4854.9
1597.52172	5321.9
1600.84321	5614.4
1604.16251	5571.3
1607.47959	5134.1
1610.79447	4655.2
1614.10715	4220.6
1617.41763	3908
1620.7259	3727.3
1624.03199	3638.9
1627.33587	3645.6
1630.63757	3709.7
1633.93707	3873.8
1637.23439	4188.1
1640.52951	4731.8
1643.82246	5545.9
1647.11321	6463.3
1650.40179	6980.7
1653.68819	6650.8
1656.97241	5660.9
1660.25446	4651.9
1663.53433	3913.3
1666.81203	3522.3
1670.08756	3284.1
1673.36092	3141.2
1676.63211	3051.9
1679.90115	2990.7
1683.16801	2939.7
1686.43272	2914.6
1689.69527	2867.5
1692.95567	2842.2
1696.2139	2820.5
1699.46999	2811.3
1702.72392	2786.2
1705.97571	2776.4
1709.22535	2786.9
1712.47284	2782.6
1715.71819	2781.8
1718.96139	2775.2
1722.20246	2762.5
1725.44139	2744.7
1728.67818	2732
1731.91284	2707.8
1735.14537	2677.8
1738.37576	2663.6
1741.60403	2647.2
1744.83017	2626.4
1748.05418	2623
1751.27607	2605.1
1754.49584	2594.6
1757.71349	2570.4
1760.92903	2566.2
1764.14244	2558.3
1767.35375	2556
1770.56294	2543.3
1773.77002	2542
1776.97499	2532.4
1780.17785	2531.8
1783.37861	2525.8
1786.57727	2524.4
1789.77382	2502.9
1792.96828	2510.6
1796.16064	2492.8
1799.3509	2493.5
1802.53907	2488.8
1805.72514	2472.3
1808.90913	2468.5
1812.09102	2460.6
1815.27083	2448.4
1818.44856	2439.2
1821.6242	2448.2
1824.79776	2412
1827.96924	2421
1831.13864	2411.7
1834.30597	2419.7
1837.47122	2411.2
1840.6344	2402
1843.7955	2405.8
1846.95454	2402.7
1850.11151	2402.4
1853.26642	2387.3
1856.41926	2387.4
1859.57004	2379.1
1862.71876	2382.1
1865.86542	2365.4
1869.01003	2363.2
1872.15258	2363.1
1875.29308	2373.1
1878.43152	2360.7
1881.56792	2356.2
1884.70227	2369.9
1887.83457	2365.3
1890.96482	2352
1894.09304	2343
1897.21921	2338.5
1900.34335	2350.6
1903.46544	2351.8
1906.58551	2342.6
1909.70353	2335.4
1912.81953	2338.4
1915.93349	2322.5
1919.04543	2331.9
1922.15534	2306.4
1925.26322	2303.1
1928.36908	2287.5
1931.47292	2281.5
1934.57473	2271.1
1937.67453	2264.3
1940.77232	2258.4
1943.86808	2264.1
1946.96184	2234.2
1950.05358	2236.6
1953.14331	2221.9
1956.23103	2220.4
1959.31675	2212.1
1962.40046	2216.9
1965.48217	2199.3
1968.56188	2194.3
1971.63959	2180.6
1974.7153	2186.7
1977.78901	2166.2
1980.86073	2154.4
1983.93046	2158.2
1986.99819	2146.9
1990.06394	2138.8
1993.1277	2126
1996.18947	2114.9
1999.24925	2119.5
2002.30706	2097.6
2005.36288	2088.3
2008.41672	2091.5
2011.46859	2076.5
2014.51848	2078.7
2017.56639	2064.2
2020.61233	2066.1
2023.6563	2063.4
2026.6983	2048.3
2029.73833	2042.4
2032.7764	2041.3
2035.8125	2036.1
2038.84664	2024.2
2041.87881	2025.2
2044.90903	2025.1
2047.93729	2021
2050.96359	2009.9
2053.98794	2004.7
2057.01034	2001.7
2060.03078	2005.2
2063.04927	1983.7
2066.06582	1995.2
2069.08042	1980.2
2072.09307	1988.7
2075.10378	1992.3
2078.11255	1983.9
2081.11938	1986.5
2084.12426	1992
2087.12722	1972.2
2090.12824	1980.2
2093.12732	1984.3
2096.12447	1986
2099.11969	1977.6
2102.11299	1977.7
2105.10435	1975.1
2108.09379	1976.1
2111.08131	1985.1
2114.0669	1961.6
2117.05057	1976.3
2120.03233	1984.7
2123.01216	1984.4
2125.99008	1980.3
2128.96609	1975.7
2131.94018	1977.7
2134.91236	1980.4
2137.88263	1972.6
2140.851	1970.6
2143.81746	1977.2
2146.78201	1967.6
2149.74466	1965.6
2152.7054	1963.6
2155.66425	1958
2158.6212	1970.3
2161.57625	1958.3
2164.52941	1959.4
2167.48067	1950.3
2170.43004	1956.7
2173.37752	1953.6
2176.32311	1954.8
2179.26681	1946.1
2182.20863	1945
2185.14856	1951.4
2188.08661	1939.6
2191.02278	1937.7
2193.95707	1944
2196.88948	1947.9
2199.82001	1935.1
2202.74867	1939
2205.67545	1935
2208.60037	1924.8
2211.52341	1928.4
2214.44458	1921.3
2217.36388	1904.9
2220.28132	1914.4
2223.1969	1896.9
2226.11061	1893.8
2229.02246	1887.8
2231.93245	1886.7
2234.84058	1883.6
2237.74686	1880.4
2240.65128	1871.5
2243.55385	1870.1
2246.45456	1871.7
2249.35343	1866.3
2252.25044	1858.9
2255.14561	1860.3
2258.03893	1850.2
2260.93041	1838.7
2263.82004	1842.2
2266.70783	1846.6
2269.59378	1834
2272.4779	1831.9
2275.36017	1823.4
2278.24061	1824.2
2281.11922	1810.8
2283.996	1814.8
2286.87094	1806.4
2289.74405	1794.9
2292.61534	1795.2
2295.4848	1789.5
2298.35243	1781.1
2301.21824	1785.1
2304.08223	1784.2
2306.94439	1782.5
2309.80474	1785.3
2312.66327	1780.3
2315.51999	1771.8
2318.37489	1768.9
2321.22797	1770.6
2324.07925	1762.7
2326.92871	1765.1
2329.77637	1767.9
2332.62222	1758.9
2335.46626	1753.2
2338.3085	1746.8
2341.14893	1744.7
2343.98756	1757.4
2346.8244	1743.7
2349.65943	1745.3
2352.49267	1742.9
2355.32411	1749.3
2358.15376	1756.9
2360.98161	1737.8
2363.80768	1754.5
2366.63195	1745.8
2369.45444	1749.6
2372.27514	1743.5
2375.09405	1743.1
2377.91118	1735.8
2380.72652	1727.8
2383.54009	1729.1
2386.35187	1725.7
2389.16188	1711.5
2391.97011	1706.5
2394.77657	1705.1
2397.58125	1692.6
2400.38416	1682.7
2403.18529	1673.4
2405.98466	1679.9
2408.78226	1671.9
2411.57809	1665.3
2414.37216	1654.2
2417.16446	1659
2419.955	1654.8
2422.74378	1675.5
2425.5308	1655.2
2428.31606	1647.9
2431.09956	1651.8
2433.88131	1655.1
2436.6613	1651.6
2439.43954	1650
2442.21603	1646
2444.99077	1643
2447.76377	1654.8
2450.53501	1638.4
2453.30451	1646.5
2456.07226	1645.1
2458.83827	1638.1
2461.60254	1629
2464.36507	1643.7
2467.12586	1627.8
2469.88492	1629.5
2472.64224	1623.7
2475.39782	1629
2478.15167	1620.7
2480.90379	1633.8
2483.65417	1632.7
2486.40283	1628.7
2489.14976	1638.6
2491.89497	1635
2494.63845	1637.6
2497.3802	1625.9
2500.12024	1621.5
2502.85855	1626.1
2505.59514	1624.2
2508.33002	1603.7
2511.06318	1615
2513.79462	1604.3
2516.52435	1583.9
2519.25237	1592.3
2521.97867	1580.2
2524.70327	1575.1
2527.42616	1575.5
2530.14734	1570.7
2532.86681	1565.7
2535.58458	1571.6
2538.30065	1570.5
2541.01501	1560.8
2543.72768	1560.1
2546.43864	1558.2
2549.14791	1557.7
2551.85548	1550.2
2554.56136	1554.9
2557.26554	1555.6
2559.96803	1543.9
2562.66883	1552.7
2565.36794	1546.9
2568.06536	1538.6
2570.7611	1544.7
2573.45514	1543.7
2576.14751	1534.1
2578.83819	1530.1
2581.52719	1522.8
2584.21451	1535.1
2586.90015	1525.9
2589.58411	1524.6
2592.2664	1518.7
2594.94701	1517
2597.62594	1514.7
2600.30321	1514.9
2602.9788	1517.5
2605.65273	1507.8
2608.32498	1498.4
2610.99557	1505.9
2613.66449	1489.7
2616.33175	1496.1
2618.99734	1490.6
2621.66128	1492.2
2624.32355	1491.6
2626.98416	1500.7
2629.64311	1503.1
2632.30041	1502.7
2634.95605	1490.6
2637.61004	1487.6
2640.26238	1490.7
2642.91306	1473.4
2645.56209	1470.3
2648.20948	1478.7
2650.85521	1478.6
2653.4993	1488.8
2656.14175	1473.8
2658.78255	1486
2661.42171	1485.3
2664.05923	1483.3
2666.6951	1476.2
2669.32934	1484.6
2671.96194	1489.1
2674.59291	1486.2
2677.22224	1489.4
2679.84993	1485
2682.476	1481.2
2685.10043	1480.3
2687.72324	1471.5
2690.34441	1483
2692.96396	1473.2
2695.58188	1485.2
2698.19818	1475.2
2700.81285	1474.7
2703.4259	1476
2706.03733	1451.5
2708.64714	1470.6
2711.25533	1483.2
2713.86191	1488.4
2716.46687	1495.6
2719.07021	1498.9
2721.67194	1504.3
2724.27206	1504.2
2726.87057	1515
2729.46747	1507.4
2732.06276	1505.7
2734.65644	1512.1
2737.24852	1514.6
2739.83899	1518
2742.42786	1511.4
2745.01513	1517
2747.60079	1520.7
2750.18486	1528.6
2752.76733	1524.4
2755.3482	1523.2
2757.92747	1540.6
2760.50515	1522.4
2763.08123	1522.8
2765.65573	1530.8
2768.22863	1527.8
2770.79994	1524.4
2773.36967	1531.8
2775.9378	1535.5
2778.50435	1526.2
2781.06932	1525.6
2783.6327	1525.6
2786.1945	1523.3
2788.75471	1539.5
2791.31335	1523.7
2793.87041	1526.3
2796.42589	1524.2
2798.97979	1531.8
2801.53212	1526.6
2804.08288	1522.4
2806.63206	1514.7
2809.17967	1520.4
2811.72571	1531.6
2814.27018	1526
2816.81308	1538
2819.35442	1526.3
2821.89419	1523.1
2824.43239	1529.3
2826.96904	1534
2829.50412	1517.1
2832.03763	1526.5
2834.56959	1535.2
2837.1	1540.1
2839.62884	1543.8
2842.15613	1572.9
2844.68186	1590.6
2847.20604	1602.8
2849.72867	1636.9
2852.24974	1658.2
2854.76927	1659.3
2857.28724	1658.5
2859.80367	1676.1
2862.31855	1688.2
2864.83189	1697.5
2867.34368	1698
2869.85393	1705.5
2872.36264	1728.7
2874.8698	1734.9
2877.37543	1742.1
2879.87952	1760.8
2882.38207	1757.4
2884.88308	1764.1
2887.38256	1772.7
2889.88051	1772.6
2892.37692	1782
2894.8718	1784.7
2897.36515	1788.4
2899.85698	1776.4
2902.34727	1792.5
2904.83604	1866.4
2907.32328	1828.7
2909.809	1789.9
2912.29319	1773.5
2914.77587	1772.9
2917.25702	1783.6
2919.73665	1758.7
2922.21476	1764.4
2924.69136	1773.5
2927.16644	1771.1
2929.64	1749
2932.11205	1750.8
2934.58258	1741.2
2937.05161	1724.7
2939.51912	1703.9
2941.98513	1683.3
2944.44962	1660.8
2946.91261	1630.3
2949.37409	1616.2
2951.83407	1593
2954.29254	1577.3
2956.74951	1559.1
2959.20498	1546.2
2961.65895	1528.6
2964.11142	1519.1
2966.56239	1504.8
2969.01186	1497.6
2971.45984	1472.6
2973.90632	1463.1
2976.35131	1448.6
2978.7948	1430.3
2981.23681	1415
2983.67732	1406.2
2986.11635	1399.9
2988.55388	1393
2990.98993	1393.6
2993.4245	1382.9
2995.85758	1371.9
2998.28917	1363.4
3000.71928	1369.1
3003.14791	1361.1
3005.57506	1358.5
3008.00073	1357.2
3010.42493	1359.2
3012.84764	1353.8
3015.26888	1349.8
3017.68865	1347.8
3020.10694	1336.8
3022.52376	1328.1
3024.9391	1335.5
3027.35298	1332.6
3029.76539	1331.8
3032.17632	1334
3034.5858	1331.8
3036.9938	1329.5
3039.40034	1325.8
3041.80542	1329.1
3044.20903	1324.1
3046.61118	1331.7
3049.01187	1321.7
3051.4111	1319.2
3053.80888	1322.8
3056.20519	1330.9
3058.60005	1333.7
3060.99345	1331.3
3063.3854	1331.5
3065.7759	1335.9
3068.16494	1324.3
3070.55254	1328.5
3072.93868	1330
3075.32338	1318.7
3077.70662	1326.1
3080.08842	1337.5
3082.46878	1330.1
3084.84769	1323.5
3087.22515	1331.6
3089.60118	1338.8
3091.97576	1329
3094.3489	1334.6
3096.72061	1341.9
3099.09087	1346.1
3101.4597	1338.7
3103.82709	1342.6
3106.19305	1353
3108.55757	1353.9
3110.92066	1360.4
3113.28232	1363.4
3115.64255	1362.4
3118.00134	1365
3120.35871	1366.5
3122.71466	1374.1
3125.06917	1368.6
3127.42226	1382
3129.77393	1394.5
3132.12417	1382
3134.47299	1397.9
3136.82039	1398.8
3139.16636	1398
3141.51092	1408.9
3143.85406	1410.7
3146.19579	1420.1
3148.53609	1427.7
3150.87499	1428.8
3153.21246	1434.5
3155.54853	1441.9
3157.88318	1446.8
3160.21642	1453.3
3162.54826	1454.2
3164.87868	1462.2
3167.2077	1455.3
3169.5353	1467.9
3171.86151	1474
3174.18631	1478.8
3176.5097	1474.6
3178.83169	1481.9
3181.15228	1491.7
3183.47147	1498.4
3185.78926	1503.5
3188.10565	1501.6
3190.42065	1498.5
3192.73424	1518.6
3195.04645	1512.4
3197.35725	1515.9
3199.66667	1522.9
3201.97469	1533.2
3204.28132	1530.5
3206.58656	1534.9
3208.8904	1534.8
3211.19287	1544
3213.49394	1539.3
3215.79363	1540.2
3218.09193	1556.7
3220.38884	1559.2
3222.68438	1549.8
3224.97853	1555.1
3227.2713	1553.5
3229.56269	1549.2
3231.8527	1555.7
3234.14133	1556.4
3236.42858	1560.9
3238.71446	1568.9
3240.99896	1552
3243.28209	1565
3245.56384	1576.5
3247.84423	1581.5
3250.12324	1572.5
3252.40088	1578.3
3254.67715	1572.8
3256.95205	1580.8
3259.22558	1575.6
3261.49775	1573.5
3263.76855	1569.2
3266.03799	1567.9
3268.30606	1578
3270.57277	1580.4
3272.83812	1575
3275.10211	1560
3277.36474	1581
3279.62601	1570.3
3281.88593	1568.6
3284.14448	1568.8
3286.40168	1571.8
3288.65753	1567.8
3290.91202	1564.1
3293.16516	1561.6
3295.41695	1549.3
3297.66738	1548.3
3299.91647	1534.3
3302.16421	1535.5
3304.4106	1522.4
3306.65564	1516
3308.89933	1506.4
3311.14169	1497.5
3313.38269	1482.6
3315.62236	1477.4
3317.86068	1466.6
3320.09766	1460.9
3322.3333	1443.4
3324.5676	1443.8
3326.80056	1416.3
3329.03219	1405
3331.26248	-1
3333.49143	-0.2
3335.71905	-0.3
