Data from AgNPs_FTO_APTES_UA_0uM_R6G_10uM_NaF_0.1M_Addition_RamanShift__25__10-24-17-106.txt Node

Date: Fri Dec 17 10:24:17 GMT 2021
User: TCL
Spectrometer: QEP01345
Trigger mode: 4
Integration Time (sec): 7.000000E0
Scans to average: 10
Electric dark correction enabled: true
Nonlinearity correction enabled: false
Boxcar width: 0
XAxis mode: Raman Shifts
Number of Pixels in Spectrum: 1044
>>>>>Begin Spectral Data<<<<<
46.04893	0.1375
50.45542	-0.5625
54.85868	-1.0625
59.25871	1.0375
63.6555	30.9375
68.04907	31.9375
72.43941	36.9375
76.82654	39.2375
81.21044	41.5375
85.59113	45.8375
89.96862	48.5375
94.34289	46.3375
98.71396	49.2375
103.08183	46.8375
107.4465	50.5375
111.80798	50.9375
116.16626	49.9375
120.52136	48.1375
124.87327	52.1375
129.222	51.4375
133.56755	50.7375
137.90993	52.5375
142.24913	54.0375
146.58517	52.5375
150.91804	57.5375
155.24774	62.1375
159.57429	71.9375
163.89768	81.1375
168.21792	96.3375
172.53501	119.2375
176.84895	159.7375
181.15975	207.7375
185.46741	282.1375
189.77193	374.4375
194.07331	484.7375
198.37157	619.7375
202.6667	754.3375
206.9587	890.7375
211.24758	1016.0375
215.53334	1156.4375
219.81599	1307.6375
224.09553	1470.5375
228.37195	1653.1375
232.64527	1864.9375
236.91549	2056.5375
241.18261	2230.8375
245.44663	2384.8375
249.70755	2514.5375
253.96539	2597.3375
258.22014	2676.4375
262.4718	2747.3375
266.72039	2803.7375
270.96589	2828.3375
275.20832	2816.0375
279.44768	2772.6375
283.68397	2726.3375
287.91719	2663.7375
292.14735	2659.3375
296.37445	2686.2375
300.59849	2797.4375
304.81948	2922.0375
309.03742	3015.7375
313.25231	2992.9375
317.46415	2855.1375
321.67296	2631.5375
325.87872	2442.7375
330.08145	2357.6375
334.28114	2355.9375
338.47781	2398.2375
342.67145	2466.3375
346.86207	2594.3375
351.04966	2757.0375
355.23424	2951.3375
359.4158	3118.1375
363.59435	3190.6375
367.76989	3216.2375
371.94243	3211.9375
376.11196	3200.4375
380.27849	3191.5375
384.44203	3148.0375
388.60257	3062.8375
392.76012	3047.4375
396.91468	3045.2375
401.06626	3114.2375
405.21485	3182.2375
409.36047	3099.1375
413.50311	2948.3375
417.64277	2794.7375
421.77947	2705.0375
425.9132	2673.0375
430.04396	2670.4375
434.17176	2684.0375
438.2966	2739.0375
442.41849	2813.3375
446.53742	2899.6375
450.6534	2989.7375
454.76644	3039.2375
458.87653	3037.6375
462.98368	2988.1375
467.08789	2936.7375
471.18916	2865.2375
475.2875	2794.7375
479.38291	2730.1375
483.4754	2688.7375
487.56496	2648.7375
491.6516	2629.0375
495.73531	2621.2375
499.81612	2628.3375
503.89401	2667.3375
507.96899	2703.0375
512.04106	2771.7375
516.11023	2833.8375
520.1765	2899.5375
524.23987	2891.5375
528.30034	2834.9375
532.35792	2748.6375
536.41261	2671.0375
540.46441	2591.5375
544.51333	2550.2375
548.55936	2547.8375
552.60252	2611.4375
556.64279	2652.8375
560.6802	2693.6375
564.71473	2718.4375
568.7464	2809.9375
572.7752	2866.6375
576.80114	2753.7375
580.82422	2637.7375
584.84444	2551.9375
588.86181	2565.6375
592.87633	2604.1375
596.888	2658.9375
600.89682	2750.2375
604.9028	3071.4375
608.90594	3953.9375
612.90624	5169.4375
616.90371	5100.2375
620.89834	3558.1375
624.89015	2762.3375
628.87913	2577.7375
632.86528	2540.8375
636.84862	2580.9375
640.82913	2579.8375
644.80683	2493.5375
648.78172	2446.1375
652.75379	2487.9375
656.72306	2643.1375
660.68952	2792.8375
664.65319	2730.4375
668.61405	2527.9375
672.57211	2419.5375
676.52738	2417.5375
680.47986	2419.9375
684.42955	2410.2375
688.37646	2398.2375
692.32058	2421.5375
696.26192	2463.6375
700.20048	2536.5375
704.13626	2584.3375
708.06928	2578.1375
711.99952	2523.8375
715.927	2491.9375
719.85171	2479.1375
723.77365	2484.9375
727.69284	2458.7375
731.60928	2453.8375
735.52295	2451.3375
739.43388	2459.3375
743.34206	2457.4375
747.24749	2478.5375
751.15017	2485.4375
755.05012	2524.1375
758.94733	2627.3375
762.8418	2886.9375
766.73354	3368.3375
770.62254	3912.6375
774.50882	4295.6375
778.39237	4214.6375
782.27321	3679.1375
786.15132	3096.6375
790.02671	2758.6375
793.89938	2633.6375
797.76935	2578.4375
801.6366	2552.9375
805.50115	2519.9375
809.36299	2504.9375
813.22213	2496.8375
817.07857	2498.5375
820.93231	2501.0375
824.78336	2489.8375
828.63172	2503.3375
832.47738	2501.5375
836.32036	2502.0375
840.16066	2487.7375
843.99827	2470.4375
847.8332	2477.7375
851.66546	2478.9375
855.49504	2480.3375
859.32195	2461.2375
863.1462	2447.9375
866.96777	2431.5375
870.78668	2408.7375
874.60293	2415.5375
878.41652	2427.2375
882.22745	2434.4375
886.03573	2442.6375
889.84136	2448.0375
893.64433	2448.2375
897.44466	2435.9375
901.24235	2443.6375
905.0374	2447.0375
908.8298	2424.1375
912.61957	2421.2375
916.40671	2452.4375
920.19121	2447.8375
923.97308	2483.4375
927.75233	2516.5375
931.52895	2561.5375
935.30295	2538.4375
939.07433	2461.0375
942.84309	2400.9375
946.60924	2358.5375
950.37278	2325.3375
954.13371	2289.7375
957.89203	2278.4375
961.64774	2256.5375
965.40086	2261.2375
969.15137	2233.6375
972.89929	2240.9375
976.64461	2234.0375
980.38733	2235.7375
984.12747	2218.5375
987.86502	2222.0375
991.59999	2222.5375
995.33237	2235.7375
999.06217	2263.2375
1002.78939	2298.8375
1006.51404	2326.6375
1010.23611	2341.1375
1013.95561	2375.8375
1017.67255	2379.3375
1021.38692	2353.5375
1025.09872	2328.3375
1028.80796	2310.8375
1032.51465	2331.7375
1036.21877	2393.3375
1039.92035	2486.1375
1043.61937	2529.8375
1047.31584	2514.6375
1051.00976	2474.3375
1054.70114	2422.2375
1058.38998	2365.3375
1062.07627	2332.8375
1065.76003	2321.0375
1069.44126	2319.7375
1073.11995	2343.8375
1076.79611	2405.5375
1080.46974	2452.6375
1084.14085	2521.2375
1087.80943	2574.5375
1091.47549	2576.3375
1095.13903	2502.7375
1098.80005	2386.2375
1102.45857	2309.6375
1106.11456	2287.1375
1109.76805	2314.1375
1113.41903	2392.7375
1117.06751	2468.9375
1120.71348	2615.0375
1124.35696	2740.7375
1127.99793	2854.7375
1131.63641	2821.2375
1135.2724	2654.2375
1138.90589	2480.8375
1142.5369	2390.3375
1146.16542	2323.1375
1149.79145	2298.9375
1153.415	2288.7375
1157.03607	2322.4375
1160.65467	2374.1375
1164.27079	2469.3375
1167.88443	2604.5375
1171.49561	2839.5375
1175.10432	3212.7375
1178.71056	3751.9375
1182.31434	4122.8375
1185.91565	4219.7375
1189.51451	4080.5375
1193.11091	3804.7375
1196.70485	3471.2375
1200.29634	3200.1375
1203.88538	2996.0375
1207.47197	2761.0375
1211.05612	2570.1375
1214.63782	2470.5375
1218.21708	2437.9375
1221.79391	2420.3375
1225.36829	2427.8375
1228.94024	2431.2375
1232.50976	2416.7375
1236.07685	2439.9375
1239.6415	2456.6375
1243.20374	2480.3375
1246.76355	2502.7375
1250.32093	2542.2375
1253.8759	2604.6375
1257.42845	2690.0375
1260.97859	2794.8375
1264.52631	2918.2375
1268.07163	3025.7375
1271.61453	3114.5375
1275.15503	3149.0375
1278.69312	3118.9375
1282.22882	3086.4375
1285.76211	3128.9375
1289.29301	3235.8375
1292.82151	3354.9375
1296.34761	3488.4375
1299.87133	3668.1375
1303.39266	3940.7375
1306.9116	4382.0375
1310.42815	4951.2375
1313.94233	5279.6375
1317.45412	5150.4375
1320.96354	4682.1375
1324.47058	4177.8375
1327.97525	3725.1375
1331.47754	3458.4375
1334.97747	3358.7375
1338.47502	3381.1375
1341.97022	3463.8375
1345.46305	3658.7375
1348.95352	4001.9375
1352.44163	4528.2375
1355.92738	5214.1375
1359.41078	6138.7375
1362.89183	6954.0375
1366.37053	6815.3375
1369.84688	5806.8375
1373.32088	4709.4375
1376.79254	3943.4375
1380.26186	3508.5375
1383.72883	3271.2375
1387.19347	3094.6375
1390.65578	2896.5375
1394.11575	2728.5375
1397.57339	2617.3375
1401.0287	2571.3375
1404.48168	2569.9375
1407.93234	2579.8375
1411.38068	2603.7375
1414.82669	2621.1375
1418.27039	2613.1375
1421.71177	2604.0375
1425.15083	2604.2375
1428.58758	2605.1375
1432.02203	2638.5375
1435.45416	2692.5375
1438.88399	2727.3375
1442.31151	2730.0375
1445.73673	2703.5375
1449.15965	2699.8375
1452.58027	2651.8375
1455.9986	2596.4375
1459.41463	2552.0375
1462.82837	2567.3375
1466.23982	2606.4375
1469.64898	2659.9375
1473.05586	2710.0375
1476.46045	2732.5375
1479.86276	2782.8375
1483.26279	2836.8375
1486.66054	2901.2375
1490.05602	2958.8375
1493.44922	3088.3375
1496.84016	3315.1375
1500.22882	3748.3375
1503.61521	4346.1375
1506.99934	5009.6375
1510.38121	5723.1375
1513.76081	6044.3375
1517.13816	5712.6375
1520.51324	4881.5375
1523.88607	4014.8375
1527.25665	3443.3375
1530.62498	3150.2375
1533.99105	2991.4375
1537.35488	2886.6375
1540.71647	2834.1375
1544.07581	2799.3375
1547.4329	2797.2375
1550.78776	2783.1375
1554.14038	2794.0375
1557.49077	2805.0375
1560.83892	2866.8375
1564.18484	2951.0375
1567.52853	3120.3375
1570.86999	3300.9375
1574.20922	3444.2375
1577.54624	3457.9375
1580.88103	3248.5375
1584.2136	2926.6375
1587.54395	2708.4375
1590.87208	2669.2375
1594.19801	2802.9375
1597.52172	3025.3375
1600.84321	3155.3375
1604.16251	3049.9375
1607.47959	2856.6375
1610.79447	2661.6375
1614.10715	2444.1375
1617.41763	2274.8375
1620.7259	2172.1375
1624.03199	2126.4375
1627.33587	2121.1375
1630.63757	2138.4375
1633.93707	2208.3375
1637.23439	2325.9375
1640.52951	2523.5375
1643.82246	2866.9375
1647.11321	3307.5375
1650.40179	3722.0375
1653.68819	3698.7375
1656.97241	3202.8375
1660.25446	2628.3375
1663.53433	2221.5375
1666.81203	2000.9375
1670.08756	1869.0375
1673.36092	1791.0375
1676.63211	1753.8375
1679.90115	1727.4375
1683.16801	1686.0375
1686.43272	1684.6375
1689.69527	1666.2375
1692.95567	1657.0375
1696.2139	1644.8375
1699.46999	1634.4375
1702.72392	1615.7375
1705.97571	1610.6375
1709.22535	1596.1375
1712.47284	1594.3375
1715.71819	1600.2375
1718.96139	1603.0375
1722.20246	1588.5375
1725.44139	1571.9375
1728.67818	1552.5375
1731.91284	1523.7375
1735.14537	1505.7375
1738.37576	1490.7375
1741.60403	1472.3375
1744.83017	1466.3375
1748.05418	1449.0375
1751.27607	1441.7375
1754.49584	1440.9375
1757.71349	1437.5375
1760.92903	1431.2375
1764.14244	1426.3375
1767.35375	1418.2375
1770.56294	1409.9375
1773.77002	1408.1375
1776.97499	1385.6375
1780.17785	1383.6375
1783.37861	1378.5375
1786.57727	1366.1375
1789.77382	1366.0375
1792.96828	1368.4375
1796.16064	1359.4375
1799.3509	1357.3375
1802.53907	1358.9375
1805.72514	1349.2375
1808.90913	1340.8375
1812.09102	1320.1375
1815.27083	1333.9375
1818.44856	1322.7375
1821.6242	1311.0375
1824.79776	1309.9375
1827.96924	1311.4375
1831.13864	1298.4375
1834.30597	1299.9375
1837.47122	1294.2375
1840.6344	1302.4375
1843.7955	1290.6375
1846.95454	1279.4375
1850.11151	1280.8375
1853.26642	1290.4375
1856.41926	1283.9375
1859.57004	1286.4375
1862.71876	1265.3375
1865.86542	1267.4375
1869.01003	1276.2375
1872.15258	1265.1375
1875.29308	1263.1375
1878.43152	1259.9375
1881.56792	1264.4375
1884.70227	1256.6375
1887.83457	1263.2375
1890.96482	1264.1375
1894.09304	1258.1375
1897.21921	1253.2375
1900.34335	1257.0375
1903.46544	1247.7375
1906.58551	1249.6375
1909.70353	1241.4375
1912.81953	1250.8375
1915.93349	1240.3375
1919.04543	1237.0375
1922.15534	1233.9375
1925.26322	1231.8375
1928.36908	1234.7375
1931.47292	1214.9375
1934.57473	1222.0375
1937.67453	1217.6375
1940.77232	1208.4375
1943.86808	1203.4375
1946.96184	1199.8375
1950.05358	1190.9375
1953.14331	1198.2375
1956.23103	1190.4375
1959.31675	1192.6375
1962.40046	1181.8375
1965.48217	1178.3375
1968.56188	1170.6375
1971.63959	1169.9375
1974.7153	1168.3375
1977.78901	1156.4375
1980.86073	1153.9375
1983.93046	1146.5375
1986.99819	1145.8375
1990.06394	1135.3375
1993.1277	1139.8375
1996.18947	1128.3375
1999.24925	1135.7375
2002.30706	1126.7375
2005.36288	1109.9375
2008.41672	1107.8375
2011.46859	1104.9375
2014.51848	1113.7375
2017.56639	1095.7375
2020.61233	1086.7375
2023.6563	1093.2375
2026.6983	1089.4375
2029.73833	1085.8375
2032.7764	1084.3375
2035.8125	1080.3375
2038.84664	1075.3375
2041.87881	1077.2375
2044.90903	1073.9375
2047.93729	1071.1375
2050.96359	1065.8375
2053.98794	1061.1375
2057.01034	1062.9375
2060.03078	1061.3375
2063.04927	1057.3375
2066.06582	1055.4375
2069.08042	1056.3375
2072.09307	1058.6375
2075.10378	1051.1375
2078.11255	1048.4375
2081.11938	1055.4375
2084.12426	1048.5375
2087.12722	1053.8375
2090.12824	1052.3375
2093.12732	1057.5375
2096.12447	1065.4375
2099.11969	1053.1375
2102.11299	1050.6375
2105.10435	1055.8375
2108.09379	1045.8375
2111.08131	1058.0375
2114.0669	1048.1375
2117.05057	1044.0375
2120.03233	1044.5375
2123.01216	1044.2375
2125.99008	1051.9375
2128.96609	1045.6375
2131.94018	1044.0375
2134.91236	1045.4375
2137.88263	1052.3375
2140.851	1042.4375
2143.81746	1049.3375
2146.78201	1040.2375
2149.74466	1036.6375
2152.7054	1037.9375
2155.66425	1037.9375
2158.6212	1035.5375
2161.57625	1029.6375
2164.52941	1033.5375
2167.48067	1031.5375
2170.43004	1028.6375
2173.37752	1033.3375
2176.32311	1035.7375
2179.26681	1023.5375
2182.20863	1028.7375
2185.14856	1022.5375
2188.08661	1021.1375
2191.02278	1023.9375
2193.95707	1018.5375
2196.88948	1019.1375
2199.82001	1019.3375
2202.74867	1012.3375
2205.67545	1009.0375
2208.60037	1005.2375
2211.52341	1002.7375
2214.44458	1001.3375
2217.36388	994.9375
2220.28132	999.4375
2223.1969	989.4375
2226.11061	990.6375
2229.02246	990.4375
2231.93245	985.3375
2234.84058	984.7375
2237.74686	977.6375
2240.65128	981.2375
2243.55385	977.7375
2246.45456	967.0375
2249.35343	971.5375
2252.25044	967.6375
2255.14561	968.3375
2258.03893	959.2375
2260.93041	967.4375
2263.82004	957.9375
2266.70783	953.1375
2269.59378	953.1375
2272.4779	955.8375
2275.36017	946.8375
2278.24061	953.5375
2281.11922	939.2375
2283.996	947.8375
2286.87094	946.3375
2289.74405	935.3375
2292.61534	939.7375
2295.4848	928.3375
2298.35243	932.2375
2301.21824	926.3375
2304.08223	931.8375
2306.94439	927.6375
2309.80474	933.4375
2312.66327	929.3375
2315.51999	924.3375
2318.37489	918.9375
2321.22797	913.5375
2324.07925	919.8375
2326.92871	917.5375
2329.77637	919.7375
2332.62222	912.5375
2335.46626	912.8375
2338.3085	906.9375
2341.14893	911.2375
2343.98756	901.6375
2346.8244	903.9375
2349.65943	905.0375
2352.49267	906.2375
2355.32411	904.4375
2358.15376	913.1375
2360.98161	911.7375
2363.80768	909.9375
2366.63195	921.8375
2369.45444	917.7375
2372.27514	917.1375
2375.09405	912.5375
2377.91118	913.0375
2380.72652	905.1375
2383.54009	900.3375
2386.35187	901.8375
2389.16188	894.8375
2391.97011	886.9375
2394.77657	882.5375
2397.58125	877.3375
2400.38416	873.2375
2403.18529	875.8375
2405.98466	876.0375
2408.78226	865.9375
2411.57809	858.3375
2414.37216	862.2375
2417.16446	865.1375
2419.955	855.2375
2422.74378	859.0375
2425.5308	849.9375
2428.31606	853.4375
2431.09956	853.4375
2433.88131	861.3375
2436.6613	857.3375
2439.43954	850.0375
2442.21603	857.1375
2444.99077	855.3375
2447.76377	855.7375
2450.53501	859.8375
2453.30451	855.2375
2456.07226	856.3375
2458.83827	854.0375
2461.60254	852.3375
2464.36507	853.6375
2467.12586	846.7375
2469.88492	845.6375
2472.64224	855.7375
2475.39782	852.5375
2478.15167	849.3375
2480.90379	859.1375
2483.65417	853.6375
2486.40283	855.2375
2489.14976	864.5375
2491.89497	858.1375
2494.63845	860.6375
2497.3802	861.7375
2500.12024	858.1375
2502.85855	859.4375
2505.59514	854.7375
2508.33002	850.3375
2511.06318	840.4375
2513.79462	835.4375
2516.52435	827.9375
2519.25237	824.6375
2521.97867	812.6375
2524.70327	818.1375
2527.42616	821.8375
2530.14734	816.6375
2532.86681	814.4375
2535.58458	819.0375
2538.30065	817.8375
2541.01501	814.7375
2543.72768	812.3375
2546.43864	822.8375
2549.14791	817.6375
2551.85548	816.6375
2554.56136	822.1375
2557.26554	824.2375
2559.96803	818.7375
2562.66883	819.2375
2565.36794	818.5375
2568.06536	817.8375
2570.7611	814.7375
2573.45514	807.1375
2576.14751	807.7375
2578.83819	809.8375
2581.52719	807.3375
2584.21451	812.5375
2586.90015	804.4375
2589.58411	805.7375
2592.2664	802.6375
2594.94701	806.8375
2597.62594	797.6375
2600.30321	801.7375
2602.9788	806.6375
2605.65273	803.5375
2608.32498	800.4375
2610.99557	798.8375
2613.66449	798.9375
2616.33175	799.8375
2618.99734	793.6375
2621.66128	798.8375
2624.32355	795.8375
2626.98416	791.9375
2629.64311	795.5375
2632.30041	795.4375
2634.95605	789.1375
2637.61004	790.0375
2640.26238	790.5375
2642.91306	789.0375
2645.56209	787.7375
2648.20948	784.2375
2650.85521	792.2375
2653.4993	797.4375
2656.14175	792.7375
2658.78255	802.7375
2661.42171	800.9375
2664.05923	804.6375
2666.6951	810.4375
2669.32934	811.1375
2671.96194	813.7375
2674.59291	814.5375
2677.22224	817.4375
2679.84993	820.4375
2682.476	822.2375
2685.10043	827.9375
2687.72324	824.5375
2690.34441	839.2375
2692.96396	832.5375
2695.58188	836.1375
2698.19818	840.1375
2700.81285	850.0375
2703.4259	850.7375
2706.03733	856.2375
2708.64714	856.3375
2711.25533	865.0375
2713.86191	871.9375
2716.46687	872.0375
2719.07021	879.9375
2721.67194	884.6375
2724.27206	892.3375
2726.87057	885.6375
2729.46747	890.0375
2732.06276	892.6375
2734.65644	887.5375
2737.24852	890.2375
2739.83899	891.3375
2742.42786	890.8375
2745.01513	899.4375
2747.60079	902.0375
2750.18486	897.8375
2752.76733	908.6375
2755.3482	903.3375
2757.92747	912.8375
2760.50515	926.2375
2763.08123	920.4375
2765.65573	929.2375
2768.22863	938.6375
2770.79994	946.8375
2773.36967	957.1375
2775.9378	969.8375
2778.50435	982.5375
2781.06932	995.6375
2783.6327	1008.6375
2786.1945	1026.9375
2788.75471	1042.5375
2791.31335	1046.1375
2793.87041	1071.8375
2796.42589	1085.1375
2798.97979	1116.0375
2801.53212	1130.4375
2804.08288	1149.4375
2806.63206	1168.2375
2809.17967	1197.6375
2811.72571	1225.1375
2814.27018	1240.8375
2816.81308	1268.1375
2819.35442	1270.0375
2821.89419	1289.9375
2824.43239	1294.9375
2826.96904	1292.2375
2829.50412	1293.1375
2832.03763	1293.4375
2834.56959	1305.3375
2837.1	1311.1375
2839.62884	1334.1375
2842.15613	1366.7375
2844.68186	1422.9375
2847.20604	1473.5375
2849.72867	1519.4375
2852.24974	1543.7375
2854.76927	1554.9375
2857.28724	1542.6375
2859.80367	1529.0375
2862.31855	1514.8375
2864.83189	1506.1375
2867.34368	1484.3375
2869.85393	1463.0375
2872.36264	1460.3375
2874.8698	1445.1375
2877.37543	1426.6375
2879.87952	1424.5375
2882.38207	1419.9375
2884.88308	1414.1375
2887.38256	1397.3375
2889.88051	1400.8375
2892.37692	1397.2375
2894.8718	1395.9375
2897.36515	1389.3375
2899.85698	1385.5375
2902.34727	1382.6375
2904.83604	1379.0375
2907.32328	1373.7375
2909.809	1361.4375
2912.29319	1360.7375
2914.77587	1356.1375
2917.25702	1343.8375
2919.73665	1335.1375
2922.21476	1323.2375
2924.69136	1323.1375
2927.16644	1318.2375
2929.64	1303.9375
2932.11205	1291.5375
2934.58258	1270.3375
2937.05161	1242.5375
2939.51912	1218.8375
2941.98513	1182.5375
2944.44962	1142.9375
2946.91261	1101.3375
2949.37409	1063.5375
2951.83407	1033.1375
2954.29254	1008.1375
2956.74951	983.1375
2959.20498	965.1375
2961.65895	948.7375
2964.11142	932.1375
2966.56239	923.5375
2969.01186	909.4375
2971.45984	900.3375
2973.90632	877.8375
2976.35131	871.4375
2978.7948	861.5375
2981.23681	849.0375
2983.67732	841.4375
2986.11635	834.3375
2988.55388	830.5375
2990.98993	823.2375
2993.4245	809.5375
2995.85758	802.4375
2998.28917	796.2375
3000.71928	789.7375
3003.14791	784.9375
3005.57506	785.4375
3008.00073	778.6375
3010.42493	773.8375
3012.84764	780.3375
3015.26888	773.1375
3017.68865	774.2375
3020.10694	769.4375
3022.52376	771.0375
3024.9391	775.0375
3027.35298	775.0375
3029.76539	780.7375
3032.17632	780.2375
3034.5858	770.4375
3036.9938	776.3375
3039.40034	777.9375
3041.80542	779.0375
3044.20903	783.1375
3046.61118	777.9375
3049.01187	774.2375
3051.4111	787.4375
3053.80888	779.5375
3056.20519	784.2375
3058.60005	790.7375
3060.99345	794.2375
3063.3854	798.4375
3065.7759	799.0375
3068.16494	805.4375
3070.55254	800.0375
3072.93868	805.0375
3075.32338	810.6375
3077.70662	802.2375
3080.08842	799.2375
3082.46878	807.0375
3084.84769	795.7375
3087.22515	803.4375
3089.60118	792.0375
3091.97576	801.0375
3094.3489	800.5375
3096.72061	809.7375
3099.09087	805.0375
3101.4597	803.3375
3103.82709	813.1375
3106.19305	807.9375
3108.55757	807.5375
3110.92066	816.1375
3113.28232	819.2375
3115.64255	818.9375
3118.00134	824.3375
3120.35871	833.4375
3122.71466	833.2375
3125.06917	833.9375
3127.42226	840.1375
3129.77393	857.2375
3132.12417	857.5375
3134.47299	857.0375
3136.82039	867.0375
3139.16636	875.5375
3141.51092	881.6375
3143.85406	890.2375
3146.19579	892.1375
3148.53609	900.8375
3150.87499	903.9375
3153.21246	919.1375
3155.54853	929.2375
3157.88318	927.0375
3160.21642	935.8375
3162.54826	936.7375
3164.87868	947.1375
3167.2077	948.9375
3169.5353	956.9375
3171.86151	955.6375
3174.18631	964.4375
3176.5097	972.2375
3178.83169	977.3375
3181.15228	980.9375
3183.47147	992.1375
3185.78926	995.3375
3188.10565	1002.1375
3190.42065	1005.8375
3192.73424	1007.2375
3195.04645	1014.4375
3197.35725	1027.2375
3199.66667	1020.9375
3201.97469	1027.8375
3204.28132	1039.8375
3206.58656	1039.9375
3208.8904	1039.7375
3211.19287	1044.1375
3213.49394	1047.1375
3215.79363	1054.3375
3218.09193	1058.4375
3220.38884	1053.6375
3222.68438	1060.0375
3224.97853	1060.6375
3227.2713	1072.0375
3229.56269	1067.8375
3231.8527	1071.7375
3234.14133	1071.4375
3236.42858	1072.4375
3238.71446	1070.8375
3240.99896	1082.0375
3243.28209	1078.5375
3245.56384	1071.6375
3247.84423	1082.6375
3250.12324	1084.5375
3252.40088	1085.8375
3254.67715	1087.6375
3256.95205	1086.9375
3259.22558	1100.7375
3261.49775	1096.2375
3263.76855	1099.5375
3266.03799	1096.3375
3268.30606	1090.1375
3270.57277	1095.6375
3272.83812	1093.5375
3275.10211	1095.1375
3277.36474	1092.0375
3279.62601	1101.9375
3281.88593	1102.7375
3284.14448	1104.2375
3286.40168	1104.4375
3288.65753	1099.0375
3290.91202	1092.9375
3293.16516	1094.2375
3295.41695	1091.5375
3297.66738	1080.3375
3299.91647	1074.6375
3302.16421	1067.2375
3304.4106	1067.8375
3306.65564	1059.7375
3308.89933	1058.5375
3311.14169	1051.7375
3313.38269	1042.6375
3315.62236	1034.9375
3317.86068	1020.0375
3320.09766	1018.4375
3322.3333	1012.7375
3324.5676	1015.1375
3326.80056	998.9375
3329.03219	998.2375
3331.26248	1.1375
3333.49143	1.1375
3335.71905	-0.8625
