Data from AgNPs_FTO_APTES_UA_20uM_R6G_10uM_NaF_0.1M_Addition_RamanShift__12__14-09-27-363.txt Node

Date: Fri Dec 17 14:09:27 GMT 2021
User: TCL
Spectrometer: QEP01345
Trigger mode: 4
Integration Time (sec): 7.000000E0
Scans to average: 10
Electric dark correction enabled: true
Nonlinearity correction enabled: false
Boxcar width: 0
XAxis mode: Raman Shifts
Number of Pixels in Spectrum: 1044
>>>>>Begin Spectral Data<<<<<
46.04893	-0.2125
50.45542	-0.0125
54.85868	-1.4125
59.25871	0.1875
63.6555	71.4875
68.04907	73.3875
72.43941	78.3875
76.82654	83.6875
81.21044	80.6875
85.59113	88.1875
89.96862	92.1875
94.34289	95.4875
98.71396	98.6875
103.08183	99.9875
107.4465	105.2875
111.80798	104.9875
116.16626	111.8875
120.52136	110.5875
124.87327	118.6875
129.222	122.9875
133.56755	133.5875
137.90993	140.2875
142.24913	155.3875
146.58517	170.7875
150.91804	202.3875
155.24774	238.3875
159.57429	298.9875
163.89768	375.8875
168.21792	504.5875
172.53501	681.0875
176.84895	953.0875
181.15975	1333.4875
185.46741	1874.5875
189.77193	2608.5875
194.07331	3487.4875
198.37157	4527.2875
202.6667	5624.4875
206.9587	6713.8875
211.24758	7750.3875
215.53334	8795.1875
219.81599	9894.2875
224.09553	11068.0875
228.37195	12391.7875
232.64527	13845.9875
236.91549	15453.0875
241.18261	17050.4875
245.44663	18624.7875
249.70755	20039.7875
253.96539	21283.9875
258.22014	22328.6875
262.4718	23101.7875
266.72039	23660.2875
270.96589	23908.5875
275.20832	23927.5875
279.44768	23710.0875
283.68397	23399.3875
287.91719	23077.3875
292.14735	22864.9875
296.37445	22735.2875
300.59849	22680.7875
304.81948	22702.9875
309.03742	22623.2875
313.25231	22541.5875
317.46415	22266.6875
321.67296	21943.1875
325.87872	21624.5875
330.08145	21589.7875
334.28114	21639.1875
338.47781	21827.4875
342.67145	22090.7875
346.86207	22405.3875
351.04966	22746.0875
355.23424	23157.5875
359.4158	23483.1875
363.59435	23803.1875
367.76989	24095.5875
371.94243	24250.6875
376.11196	24379.6875
380.27849	24490.8875
384.44203	24636.1875
388.60257	24841.8875
392.76012	24934.3875
396.91468	25235.3875
401.06626	25457.5875
405.21485	25688.2875
409.36047	25670.4875
413.50311	25445.4875
417.64277	25177.9875
421.77947	25154.7875
425.9132	25195.2875
430.04396	25277.0875
434.17176	25411.2875
438.2966	25563.9875
442.41849	25732.8875
446.53742	25999.0875
450.6534	26328.9875
454.76644	26600.3875
458.87653	26749.3875
462.98368	26818.8875
467.08789	26820.7875
471.18916	26761.6875
475.2875	26569.3875
479.38291	26409.3875
483.4754	26233.8875
487.56496	26127.8875
491.6516	26057.1875
495.73531	26014.5875
499.81612	26031.4875
503.89401	26175.4875
507.96899	26241.4875
512.04106	26335.5875
516.11023	26397.1875
520.1765	26364.6875
524.23987	26269.1875
528.30034	26172.6875
532.35792	26078.2875
536.41261	25973.9875
540.46441	25813.7875
544.51333	25781.3875
548.55936	25919.1875
552.60252	26145.7875
556.64279	26350.3875
560.6802	26546.4875
564.71473	26629.6875
568.7464	26699.6875
572.7752	26837.3875
576.80114	27020.2875
580.82422	27298.7875
584.84444	27592.2875
588.86181	27773.9875
592.87633	27879.3875
596.888	27775.7875
600.89682	27883.6875
604.9028	28590.1875
608.90594	30345.1875
612.90624	32284.5875
616.90371	31334.9875
620.89834	28244.9875
624.89015	26821.0875
628.87913	26600.7875
632.86528	26738.0875
636.84862	26880.9875
640.82913	26807.0875
644.80683	26470.8875
648.78172	26180.1875
652.75379	26206.9875
656.72306	26369.5875
660.68952	26696.4875
664.65319	26656.5875
668.61405	26472.2875
672.57211	26420.0875
676.52738	26512.5875
680.47986	26498.6875
684.42955	26423.5875
688.37646	26422.4875
692.32058	26470.0875
696.26192	26587.1875
700.20048	26814.7875
704.13626	26894.2875
708.06928	26883.7875
711.99952	26787.2875
715.927	26718.0875
719.85171	26662.9875
723.77365	26664.8875
727.69284	26523.3875
731.60928	26338.3875
735.52295	26278.5875
739.43388	26233.4875
743.34206	26285.6875
747.24749	26355.0875
751.15017	26442.6875
755.05012	26582.4875
758.94733	26888.6875
762.8418	27601.9875
766.73354	28751.2875
770.62254	29928.1875
774.50882	30424.4875
778.39237	29890.3875
782.27321	28790.0875
786.15132	27743.1875
790.02671	26977.0875
793.89938	26629.3875
797.76935	26449.1875
801.6366	26309.9875
805.50115	26288.9875
809.36299	26207.8875
813.22213	26103.3875
817.07857	26075.2875
820.93231	26061.8875
824.78336	26030.2875
828.63172	26069.8875
832.47738	26035.3875
836.32036	26017.8875
840.16066	25993.1875
843.99827	25993.6875
847.8332	26012.5875
851.66546	26028.4875
855.49504	26032.0875
859.32195	26056.9875
863.1462	26065.5875
866.96777	26083.2875
870.78668	26064.3875
874.60293	26121.6875
878.41652	26140.6875
882.22745	26161.5875
886.03573	26254.3875
889.84136	26253.5875
893.64433	26244.8875
897.44466	26172.7875
901.24235	26142.4875
905.0374	26083.5875
908.8298	26043.2875
912.61957	26039.5875
916.40671	26064.2875
920.19121	26129.7875
923.97308	26255.5875
927.75233	26228.6875
931.52895	26192.5875
935.30295	26050.1875
939.07433	25922.2875
942.84309	25690.9875
946.60924	25614.3875
950.37278	25531.7875
954.13371	25461.9875
957.89203	25446.2875
961.64774	25428.4875
965.40086	25358.2875
969.15137	25324.5875
972.89929	25276.6875
976.64461	25281.8875
980.38733	25250.2875
984.12747	25264.6875
987.86502	25297.0875
991.59999	25359.9875
995.33237	25452.0875
999.06217	25619.3875
1002.78939	25764.1875
1006.51404	25944.8875
1010.23611	26229.9875
1013.95561	26393.6875
1017.67255	26380.6875
1021.38692	26320.8875
1025.09872	26183.7875
1028.80796	25983.7875
1032.51465	25921.4875
1036.21877	25836.5875
1039.92035	25919.9875
1043.61937	25977.2875
1047.31584	26015.9875
1051.00976	26155.8875
1054.70114	26192.6875
1058.38998	26265.6875
1062.07627	26439.0875
1065.76003	26586.0875
1069.44126	26790.4875
1073.11995	27108.3875
1076.79611	27378.6875
1080.46974	27504.8875
1084.14085	27511.9875
1087.80943	27569.7875
1091.47549	27627.6875
1095.13903	27551.0875
1098.80005	27485.4875
1102.45857	27255.4875
1106.11456	27036.3875
1109.76805	26875.9875
1113.41903	26796.4875
1117.06751	26836.5875
1120.71348	26945.1875
1124.35696	27081.3875
1127.99793	27245.0875
1131.63641	27312.5875
1135.2724	27190.2875
1138.90589	27052.4875
1142.5369	26968.1875
1146.16542	26838.4875
1149.79145	26787.1875
1153.415	26766.9875
1157.03607	26815.4875
1160.65467	26982.9875
1164.27079	27336.2875
1167.88443	27863.0875
1171.49561	28543.7875
1175.10432	29468.0875
1178.71056	30626.9875
1182.31434	31834.4875
1185.91565	32602.1875
1189.51451	32954.1875
1193.11091	32855.2875
1196.70485	32321.6875
1200.29634	31586.7875
1203.88538	30863.0875
1207.47197	30087.5875
1211.05612	29498.0875
1214.63782	29004.4875
1218.21708	28615.3875
1221.79391	28321.6875
1225.36829	28165.0875
1228.94024	28034.1875
1232.50976	27997.9875
1236.07685	28030.2875
1239.6415	28073.9875
1243.20374	28146.3875
1246.76355	28185.6875
1250.32093	28358.5875
1253.8759	28538.9875
1257.42845	28910.6875
1260.97859	29317.2875
1264.52631	29673.5875
1268.07163	30079.5875
1271.61453	30432.8875
1275.15503	30696.2875
1278.69312	30991.2875
1282.22882	31116.8875
1285.76211	31366.2875
1289.29301	31618.6875
1292.82151	31951.6875
1296.34761	32428.9875
1299.87133	33012.4875
1303.39266	33738.6875
1306.9116	34702.7875
1310.42815	35678.9875
1313.94233	36282.7875
1317.45412	36162.9875
1320.96354	35835.1875
1324.47058	35451.0875
1327.97525	35082.0875
1331.47754	34847.6875
1334.97747	34844.6875
1338.47502	35100.8875
1341.97022	35601.0875
1345.46305	36147.0875
1348.95352	36779.2875
1352.44163	37233.3875
1355.92738	37550.5875
1359.41078	38208.7875
1362.89183	38696.7875
1366.37053	38092.9875
1369.84688	35940.1875
1373.32088	33546.4875
1376.79254	31748.0875
1380.26186	30738.4875
1383.72883	30294.8875
1387.19347	29923.9875
1390.65578	29502.9875
1394.11575	29136.7875
1397.57339	28900.7875
1401.0287	28794.4875
1404.48168	28770.5875
1407.93234	28794.1875
1411.38068	28782.0875
1414.82669	28630.7875
1418.27039	28383.6875
1421.71177	28030.5875
1425.15083	27742.4875
1428.58758	27609.7875
1432.02203	27594.5875
1435.45416	27748.2875
1438.88399	27878.3875
1442.31151	27981.4875
1445.73673	28071.8875
1449.15965	28127.8875
1452.58027	28196.1875
1455.9986	28274.1875
1459.41463	28416.8875
1462.82837	28706.0875
1466.23982	29061.0875
1469.64898	29430.2875
1473.05586	29658.2875
1476.46045	29821.9875
1479.86276	29914.7875
1483.26279	29996.6875
1486.66054	30154.7875
1490.05602	30423.3875
1493.44922	30815.3875
1496.84016	31495.0875
1500.22882	32590.7875
1503.61521	33917.2875
1506.99934	35273.0875
1510.38121	36185.6875
1513.76081	36035.4875
1517.13816	35049.8875
1520.51324	33596.9875
1523.88607	32318.0875
1527.25665	31470.7875
1530.62498	31037.3875
1533.99105	30744.0875
1537.35488	30496.8875
1540.71647	30235.2875
1544.07581	29946.2875
1547.4329	29745.6875
1550.78776	29539.9875
1554.14038	29402.7875
1557.49077	29321.2875
1560.83892	29332.8875
1564.18484	29448.5875
1567.52853	29598.2875
1570.86999	29839.1875
1574.20922	29983.3875
1577.54624	30075.7875
1580.88103	29845.0875
1584.2136	29421.3875
1587.54395	29207.3875
1590.87208	29320.2875
1594.19801	29823.3875
1597.52172	30532.6875
1600.84321	30858.6875
1604.16251	30668.0875
1607.47959	29972.6875
1610.79447	29186.0875
1614.10715	28200.6875
1617.41763	27242.0875
1620.7259	26465.7875
1624.03199	25987.9875
1627.33587	25762.0875
1630.63757	25850.3875
1633.93707	26304.3875
1637.23439	27131.2875
1640.52951	28377.3875
1643.82246	30019.7875
1647.11321	31419.4875
1650.40179	32054.3875
1653.68819	31386.3875
1656.97241	29551.8875
1660.25446	27454.4875
1663.53433	25924.3875
1666.81203	24835.3875
1670.08756	24150.9875
1673.36092	23713.2875
1676.63211	23411.6875
1679.90115	23158.8875
1683.16801	22946.2875
1686.43272	22868.2875
1689.69527	22762.4875
1692.95567	22674.2875
1696.2139	22620.8875
1699.46999	22589.4875
1702.72392	22532.2875
1705.97571	22500.5875
1709.22535	22476.5875
1712.47284	22420.5875
1715.71819	22429.2875
1718.96139	22384.4875
1722.20246	22374.6875
1725.44139	22247.8875
1728.67818	22218.8875
1731.91284	22093.5875
1735.14537	22053.1875
1738.37576	22008.4875
1741.60403	21906.5875
1744.83017	21814.6875
1748.05418	21812.9875
1751.27607	21765.4875
1754.49584	21748.4875
1757.71349	21726.2875
1760.92903	21744.7875
1764.14244	21722.2875
1767.35375	21710.8875
1770.56294	21650.8875
1773.77002	21617.3875
1776.97499	21631.1875
1780.17785	21562.5875
1783.37861	21523.5875
1786.57727	21514.0875
1789.77382	21450.8875
1792.96828	21420.7875
1796.16064	21371.8875
1799.3509	21323.1875
1802.53907	21319.5875
1805.72514	21244.8875
1808.90913	21209.3875
1812.09102	21197.0875
1815.27083	21154.9875
1818.44856	21101.4875
1821.6242	21106.9875
1824.79776	21078.8875
1827.96924	21049.3875
1831.13864	20993.1875
1834.30597	21017.7875
1837.47122	21013.0875
1840.6344	20960.4875
1843.7955	20943.2875
1846.95454	20942.2875
1850.11151	20924.6875
1853.26642	20911.4875
1856.41926	20863.0875
1859.57004	20924.9875
1862.71876	20858.5875
1865.86542	20829.6875
1869.01003	20794.3875
1872.15258	20756.9875
1875.29308	20702.6875
1878.43152	20693.1875
1881.56792	20641.2875
1884.70227	20664.2875
1887.83457	20604.4875
1890.96482	20558.5875
1894.09304	20535.5875
1897.21921	20501.3875
1900.34335	20482.6875
1903.46544	20502.2875
1906.58551	20433.2875
1909.70353	20422.9875
1912.81953	20377.8875
1915.93349	20329.7875
1919.04543	20287.4875
1922.15534	20267.8875
1925.26322	20234.5875
1928.36908	20199.1875
1931.47292	20193.2875
1934.57473	20111.3875
1937.67453	20055.1875
1940.77232	20012.6875
1943.86808	19935.6875
1946.96184	19891.5875
1950.05358	19835.9875
1953.14331	19790.1875
1956.23103	19722.6875
1959.31675	19668.4875
1962.40046	19622.7875
1965.48217	19563.2875
1968.56188	19521.3875
1971.63959	19398.1875
1974.7153	19406.5875
1977.78901	19318.2875
1980.86073	19293.0875
1983.93046	19212.4875
1986.99819	19167.3875
1990.06394	19092.0875
1993.1277	19034.2875
1996.18947	18968.1875
1999.24925	18884.9875
2002.30706	18822.7875
2005.36288	18809.9875
2008.41672	18730.9875
2011.46859	18720.1875
2014.51848	18650.0875
2017.56639	18611.0875
2020.61233	18523.4875
2023.6563	18501.7875
2026.6983	18449.4875
2029.73833	18396.4875
2032.7764	18349.0875
2035.8125	18294.4875
2038.84664	18276.6875
2041.87881	18211.6875
2044.90903	18201.1875
2047.93729	18161.7875
2050.96359	18108.9875
2053.98794	18101.7875
2057.01034	18066.0875
2060.03078	18051.2875
2063.04927	18033.3875
2066.06582	18027.0875
2069.08042	18029.2875
2072.09307	17999.8875
2075.10378	17981.9875
2078.11255	17951.1875
2081.11938	17970.1875
2084.12426	17948.0875
2087.12722	17925.6875
2090.12824	17934.1875
2093.12732	17939.4875
2096.12447	17947.4875
2099.11969	17907.8875
2102.11299	17923.0875
2105.10435	17938.0875
2108.09379	17939.2875
2111.08131	17961.8875
2114.0669	17961.9875
2117.05057	17970.5875
2120.03233	17988.5875
2123.01216	17997.4875
2125.99008	18013.8875
2128.96609	17971.6875
2131.94018	18035.7875
2134.91236	18030.4875
2137.88263	18083.6875
2140.851	18062.8875
2143.81746	18038.7875
2146.78201	18068.6875
2149.74466	18067.3875
2152.7054	18046.4875
2155.66425	18030.5875
2158.6212	18063.7875
2161.57625	18024.3875
2164.52941	18034.6875
2167.48067	18016.2875
2170.43004	18042.4875
2173.37752	18004.5875
2176.32311	18002.6875
2179.26681	17986.8875
2182.20863	17979.0875
2185.14856	17978.4875
2188.08661	17931.9875
2191.02278	17919.0875
2193.95707	17928.5875
2196.88948	17896.2875
2199.82001	17925.2875
2202.74867	17867.9875
2205.67545	17839.2875
2208.60037	17839.0875
2211.52341	17815.0875
2214.44458	17753.5875
2217.36388	17732.5875
2220.28132	17688.4875
2223.1969	17642.9875
2226.11061	17608.8875
2229.02246	17620.8875
2231.93245	17564.1875
2234.84058	17517.1875
2237.74686	17494.6875
2240.65128	17482.6875
2243.55385	17444.3875
2246.45456	17416.5875
2249.35343	17385.3875
2252.25044	17368.3875
2255.14561	17326.5875
2258.03893	17341.2875
2260.93041	17297.8875
2263.82004	17267.2875
2266.70783	17241.0875
2269.59378	17176.6875
2272.4779	17127.7875
2275.36017	17085.4875
2278.24061	17054.1875
2281.11922	16997.2875
2283.996	16961.6875
2286.87094	16953.6875
2289.74405	16914.4875
2292.61534	16887.2875
2295.4848	16869.6875
2298.35243	16874.4875
2301.21824	16828.3875
2304.08223	16832.4875
2306.94439	16823.7875
2309.80474	16820.6875
2312.66327	16803.5875
2315.51999	16740.4875
2318.37489	16703.1875
2321.22797	16693.7875
2324.07925	16710.4875
2326.92871	16623.1875
2329.77637	16628.1875
2332.62222	16592.6875
2335.46626	16554.2875
2338.3085	16516.6875
2341.14893	16522.7875
2343.98756	16488.5875
2346.8244	16452.7875
2349.65943	16432.5875
2352.49267	16448.7875
2355.32411	16447.4875
2358.15376	16416.3875
2360.98161	16389.2875
2363.80768	16386.1875
2366.63195	16376.5875
2369.45444	16386.1875
2372.27514	16374.2875
2375.09405	16346.7875
2377.91118	16286.5875
2380.72652	16251.1875
2383.54009	16236.6875
2386.35187	16211.4875
2389.16188	16169.1875
2391.97011	16148.0875
2394.77657	16116.2875
2397.58125	16062.5875
2400.38416	16008.0875
2403.18529	16004.8875
2405.98466	15961.0875
2408.78226	15922.5875
2411.57809	15944.2875
2414.37216	15919.9875
2417.16446	15882.9875
2419.955	15841.7875
2422.74378	15835.3875
2425.5308	15836.4875
2428.31606	15790.0875
2431.09956	15785.1875
2433.88131	15763.8875
2436.6613	15780.7875
2439.43954	15743.9875
2442.21603	15719.2875
2444.99077	15729.8875
2447.76377	15727.4875
2450.53501	15678.6875
2453.30451	15666.7875
2456.07226	15670.3875
2458.83827	15620.7875
2461.60254	15594.5875
2464.36507	15594.1875
2467.12586	15568.3875
2469.88492	15554.2875
2472.64224	15564.0875
2475.39782	15530.4875
2478.15167	15514.8875
2480.90379	15488.8875
2483.65417	15454.1875
2486.40283	15459.3875
2489.14976	15439.6875
2491.89497	15416.7875
2494.63845	15408.5875
2497.3802	15390.5875
2500.12024	15371.7875
2502.85855	15393.3875
2505.59514	15352.8875
2508.33002	15318.8875
2511.06318	15304.8875
2513.79462	15314.4875
2516.52435	15282.4875
2519.25237	15238.4875
2521.97867	15219.0875
2524.70327	15219.1875
2527.42616	15175.6875
2530.14734	15194.0875
2532.86681	15120.0875
2535.58458	15128.3875
2538.30065	15105.0875
2541.01501	15093.4875
2543.72768	15037.4875
2546.43864	15046.1875
2549.14791	14985.6875
2551.85548	14946.4875
2554.56136	14906.5875
2557.26554	14926.0875
2559.96803	14885.8875
2562.66883	14873.3875
2565.36794	14852.2875
2568.06536	14830.7875
2570.7611	14809.4875
2573.45514	14771.0875
2576.14751	14766.5875
2578.83819	14696.8875
2581.52719	14683.9875
2584.21451	14630.8875
2586.90015	14620.7875
2589.58411	14596.0875
2592.2664	14580.0875
2594.94701	14548.2875
2597.62594	14525.0875
2600.30321	14455.5875
2602.9788	14472.3875
2605.65273	14422.3875
2608.32498	14433.5875
2610.99557	14375.4875
2613.66449	14376.1875
2616.33175	14334.4875
2618.99734	14305.4875
2621.66128	14289.8875
2624.32355	14273.1875
2626.98416	14248.6875
2629.64311	14245.7875
2632.30041	14235.3875
2634.95605	14179.5875
2637.61004	14171.3875
2640.26238	14147.1875
2642.91306	14165.0875
2645.56209	14150.7875
2648.20948	14140.0875
2650.85521	14115.5875
2653.4993	14089.8875
2656.14175	14052.8875
2658.78255	14099.8875
2661.42171	14082.7875
2664.05923	14096.2875
2666.6951	14099.6875
2669.32934	14055.0875
2671.96194	14057.5875
2674.59291	14046.1875
2677.22224	14058.6875
2679.84993	14030.9875
2682.476	14051.2875
2685.10043	14035.9875
2687.72324	14024.7875
2690.34441	14008.2875
2692.96396	13958.8875
2695.58188	14011.2875
2698.19818	14002.2875
2700.81285	14005.0875
2703.4259	14015.5875
2706.03733	14018.1875
2708.64714	14003.4875
2711.25533	14017.3875
2713.86191	13999.7875
2716.46687	14000.5875
2719.07021	14011.1875
2721.67194	14033.9875
2724.27206	13951.9875
2726.87057	13972.5875
2729.46747	13985.1875
2732.06276	13966.2875
2734.65644	13938.5875
2737.24852	13935.7875
2739.83899	13888.2875
2742.42786	13899.6875
2745.01513	13872.7875
2747.60079	13869.2875
2750.18486	13829.1875
2752.76733	13851.3875
2755.3482	13818.5875
2757.92747	13815.4875
2760.50515	13731.7875
2763.08123	13758.3875
2765.65573	13737.2875
2768.22863	13731.2875
2770.79994	13714.3875
2773.36967	13663.0875
2775.9378	13631.0875
2778.50435	13630.6875
2781.06932	13609.3875
2783.6327	13587.0875
2786.1945	13583.8875
2788.75471	13554.9875
2791.31335	13482.4875
2793.87041	13479.1875
2796.42589	13422.8875
2798.97979	13441.8875
2801.53212	13376.7875
2804.08288	13365.3875
2806.63206	13320.0875
2809.17967	13294.0875
2811.72571	13258.1875
2814.27018	13253.1875
2816.81308	13255.0875
2819.35442	13203.1875
2821.89419	13176.1875
2824.43239	13188.1875
2826.96904	13163.7875
2829.50412	13111.0875
2832.03763	13081.8875
2834.56959	13084.9875
2837.1	13048.8875
2839.62884	13039.7875
2842.15613	13040.2875
2844.68186	13037.4875
2847.20604	13023.4875
2849.72867	13017.6875
2852.24974	13005.6875
2854.76927	12984.1875
2857.28724	12932.1875
2859.80367	12915.3875
2862.31855	12903.8875
2864.83189	12883.0875
2867.34368	12869.0875
2869.85393	12897.4875
2872.36264	12857.3875
2874.8698	12870.7875
2877.37543	12842.7875
2879.87952	12859.6875
2882.38207	12833.1875
2884.88308	12826.3875
2887.38256	12833.8875
2889.88051	12805.1875
2892.37692	12820.4875
2894.8718	12787.2875
2897.36515	12824.5875
2899.85698	12805.1875
2902.34727	12821.1875
2904.83604	12803.5875
2907.32328	12790.8875
2909.809	12784.1875
2912.29319	12798.1875
2914.77587	12802.3875
2917.25702	12802.2875
2919.73665	12772.8875
2922.21476	12779.9875
2924.69136	12740.8875
2927.16644	12730.8875
2929.64	12701.5875
2932.11205	12682.1875
2934.58258	12645.2875
2937.05161	12701.7875
2939.51912	12665.2875
2941.98513	12662.0875
2944.44962	12644.0875
2946.91261	12608.4875
2949.37409	12622.0875
2951.83407	12620.0875
2954.29254	12588.6875
2956.74951	12598.5875
2959.20498	12565.7875
2961.65895	12545.5875
2964.11142	12570.5875
2966.56239	12507.2875
2969.01186	12506.4875
2971.45984	12467.6875
2973.90632	12458.9875
2976.35131	12466.4875
2978.7948	12456.6875
2981.23681	12372.5875
2983.67732	12381.9875
2986.11635	12343.8875
2988.55388	12331.5875
2990.98993	12285.4875
2993.4245	12287.1875
2995.85758	12259.7875
2998.28917	12224.5875
3000.71928	12201.7875
3003.14791	12186.2875
3005.57506	12176.9875
3008.00073	12133.8875
3010.42493	12140.3875
3012.84764	12112.1875
3015.26888	12090.3875
3017.68865	12094.2875
3020.10694	12088.6875
3022.52376	12017.5875
3024.9391	12048.6875
3027.35298	11992.3875
3029.76539	11960.0875
3032.17632	11949.0875
3034.5858	11915.3875
3036.9938	11914.7875
3039.40034	11889.8875
3041.80542	11896.8875
3044.20903	11836.1875
3046.61118	11840.0875
3049.01187	11797.4875
3051.4111	11812.3875
3053.80888	11779.1875
3056.20519	11762.7875
3058.60005	11714.7875
3060.99345	11750.8875
3063.3854	11698.5875
3065.7759	11683.4875
3068.16494	11659.6875
3070.55254	11611.7875
3072.93868	11608.1875
3075.32338	11560.9875
3077.70662	11575.2875
3080.08842	11550.5875
3082.46878	11538.5875
3084.84769	11502.8875
3087.22515	11517.7875
3089.60118	11505.0875
3091.97576	11475.9875
3094.3489	11462.9875
3096.72061	11449.4875
3099.09087	11440.0875
3101.4597	11447.2875
3103.82709	11424.3875
3106.19305	11439.9875
3108.55757	11441.5875
3110.92066	11384.0875
3113.28232	11379.9875
3115.64255	11330.7875
3118.00134	11305.9875
3120.35871	11298.4875
3122.71466	11264.8875
3125.06917	11227.5875
3127.42226	11228.9875
3129.77393	11225.3875
3132.12417	11234.7875
3134.47299	11226.2875
3136.82039	11190.2875
3139.16636	11217.2875
3141.51092	11183.0875
3143.85406	11206.7875
3146.19579	11210.4875
3148.53609	11212.9875
3150.87499	11237.2875
3153.21246	11216.3875
3155.54853	11249.2875
3157.88318	11217.3875
3160.21642	11229.5875
3162.54826	11196.7875
3164.87868	11195.7875
3167.2077	11178.0875
3169.5353	11173.0875
3171.86151	11165.9875
3174.18631	11135.8875
3176.5097	11150.2875
3178.83169	11104.6875
3181.15228	11116.4875
3183.47147	11081.6875
3185.78926	11078.5875
3188.10565	11053.9875
3190.42065	11054.2875
3192.73424	11065.4875
3195.04645	11031.2875
3197.35725	11029.0875
3199.66667	11034.6875
3201.97469	11058.3875
3204.28132	11057.3875
3206.58656	11040.9875
3208.8904	11053.2875
3211.19287	11040.0875
3213.49394	11038.9875
3215.79363	11029.3875
3218.09193	11040.9875
3220.38884	11007.7875
3222.68438	11023.0875
3224.97853	10999.0875
3227.2713	10977.4875
3229.56269	10971.7875
3231.8527	10966.6875
3234.14133	10928.4875
3236.42858	10888.9875
3238.71446	10873.3875
3240.99896	10837.5875
3243.28209	10877.0875
3245.56384	10873.8875
3247.84423	10848.8875
3250.12324	10846.6875
3252.40088	10816.2875
3254.67715	10838.3875
3256.95205	10804.2875
3259.22558	10796.5875
3261.49775	10773.7875
3263.76855	10757.8875
3266.03799	10752.3875
3268.30606	10724.2875
3270.57277	10704.5875
3272.83812	10691.6875
3275.10211	10670.4875
3277.36474	10644.3875
3279.62601	10646.6875
3281.88593	10622.6875
3284.14448	10633.0875
3286.40168	10589.1875
3288.65753	10575.1875
3290.91202	10575.8875
3293.16516	10531.2875
3295.41695	10513.3875
3297.66738	10448.4875
3299.91647	10389.3875
3302.16421	10328.7875
3304.4106	10280.2875
3306.65564	10271.8875
3308.89933	10202.2875
3311.14169	10121.3875
3313.38269	10033.7875
3315.62236	9993.5875
3317.86068	9886.7875
3320.09766	9818.8875
3322.3333	9714.0875
3324.5676	9721.5875
3326.80056	9547.8875
3329.03219	9529.9875
3331.26248	2.9875
3333.49143	0.0875
3335.71905	0.3875
