Data from AgNPs_FTO_APTES_UA_20uM_R6G_10uM_NaF_0.1M_Addition_RamanShift__9__14-05-57-360.txt Node

Date: Fri Dec 17 14:05:57 GMT 2021
User: TCL
Spectrometer: QEP01345
Trigger mode: 4
Integration Time (sec): 7.000000E0
Scans to average: 10
Electric dark correction enabled: true
Nonlinearity correction enabled: false
Boxcar width: 0
XAxis mode: Raman Shifts
Number of Pixels in Spectrum: 1044
>>>>>Begin Spectral Data<<<<<
46.04893	-0.7125
50.45542	-0.6125
54.85868	-1.6125
59.25871	0.8875
63.6555	71.9875
68.04907	73.2875
72.43941	76.0875
76.82654	83.3875
81.21044	82.0875
85.59113	86.9875
89.96862	91.9875
94.34289	88.7875
98.71396	96.6875
103.08183	96.5875
107.4465	101.0875
111.80798	103.5875
116.16626	105.5875
120.52136	107.0875
124.87327	116.2875
129.222	121.8875
133.56755	124.6875
137.90993	140.6875
142.24913	149.2875
146.58517	164.6875
150.91804	194.1875
155.24774	230.7875
159.57429	288.1875
163.89768	363.4875
168.21792	485.5875
172.53501	650.0875
176.84895	907.9875
181.15975	1271.0875
185.46741	1797.4875
189.77193	2475.6875
194.07331	3329.6875
198.37157	4311.0875
202.6667	5330.0875
206.9587	6341.4875
211.24758	7349.5875
215.53334	8321.0875
219.81599	9376.3875
224.09553	10515.3875
228.37195	11767.8875
232.64527	13168.7875
236.91549	14667.0875
241.18261	16210.1875
245.44663	17650.7875
249.70755	18946.1875
253.96539	20035.4875
258.22014	21010.6875
262.4718	21802.8875
266.72039	22289.1875
270.96589	22544.9875
275.20832	22565.2875
279.44768	22382.1875
283.68397	22121.1875
287.91719	21862.5875
292.14735	21668.3875
296.37445	21623.4875
300.59849	21641.0875
304.81948	21739.6875
309.03742	21779.3875
313.25231	21724.3875
317.46415	21421.8875
321.67296	21009.3875
325.87872	20647.1875
330.08145	20498.8875
334.28114	20546.5875
338.47781	20739.9875
342.67145	21004.4875
346.86207	21299.1875
351.04966	21725.5875
355.23424	22119.0875
359.4158	22449.6875
363.59435	22797.6875
367.76989	23031.0875
371.94243	23151.0875
376.11196	23246.8875
380.27849	23359.7875
384.44203	23493.4875
388.60257	23615.6875
392.76012	23812.1875
396.91468	24020.8875
401.06626	24338.2875
405.21485	24564.8875
409.36047	24511.7875
413.50311	24199.6875
417.64277	23968.6875
421.77947	23918.8875
425.9132	23965.4875
430.04396	24059.7875
434.17176	24129.0875
438.2966	24270.0875
442.41849	24496.9875
446.53742	24768.3875
450.6534	25136.1875
454.76644	25425.2875
458.87653	25571.8875
462.98368	25624.2875
467.08789	25521.4875
471.18916	25446.4875
475.2875	25177.6875
479.38291	24930.7875
483.4754	24785.5875
487.56496	24568.2875
491.6516	24489.6875
495.73531	24438.3875
499.81612	24480.4875
503.89401	24604.1875
507.96899	24746.4875
512.04106	24790.7875
516.11023	24838.5875
520.1765	24765.4875
524.23987	24702.9875
528.30034	24572.1875
532.35792	24453.1875
536.41261	24348.5875
540.46441	24198.7875
544.51333	24086.8875
548.55936	24274.1875
552.60252	24532.8875
556.64279	24818.6875
560.6802	24957.1875
564.71473	25047.6875
568.7464	25156.3875
572.7752	25380.9875
576.80114	25571.7875
580.82422	25882.6875
584.84444	26292.7875
588.86181	26586.9875
592.87633	26680.2875
596.888	26648.6875
600.89682	26623.4875
604.9028	27331.5875
608.90594	29359.0875
612.90624	31591.2875
616.90371	30523.8875
620.89834	26916.1875
624.89015	25174.2875
628.87913	24924.0875
632.86528	25023.1875
636.84862	25186.9875
640.82913	25069.9875
644.80683	24707.2875
648.78172	24399.0875
652.75379	24332.5875
656.72306	24579.9875
660.68952	24907.0875
664.65319	24883.4875
668.61405	24590.8875
672.57211	24577.7875
676.52738	24662.4875
680.47986	24625.3875
684.42955	24503.1875
688.37646	24498.0875
692.32058	24579.2875
696.26192	24804.0875
700.20048	24971.6875
704.13626	25082.7875
708.06928	25095.1875
711.99952	24968.1875
715.927	24892.6875
719.85171	24885.4875
723.77365	24850.0875
727.69284	24685.4875
731.60928	24446.0875
735.52295	24357.8875
739.43388	24345.7875
743.34206	24398.7875
747.24749	24464.0875
751.15017	24547.6875
755.05012	24740.6875
758.94733	25149.7875
762.8418	25929.3875
766.73354	27265.2875
770.62254	28647.9875
774.50882	29214.0875
778.39237	28515.9875
782.27321	27215.3875
786.15132	25969.1875
790.02671	25177.3875
793.89938	24740.1875
797.76935	24570.2875
801.6366	24478.3875
805.50115	24389.1875
809.36299	24342.3875
813.22213	24216.1875
817.07857	24154.3875
820.93231	24094.8875
824.78336	24141.4875
828.63172	24052.3875
832.47738	24049.2875
836.32036	24033.8875
840.16066	24020.9875
843.99827	24035.6875
847.8332	24021.2875
851.66546	24031.0875
855.49504	24081.7875
859.32195	24056.1875
863.1462	24086.2875
866.96777	24061.1875
870.78668	24098.2875
874.60293	24084.9875
878.41652	24162.1875
882.22745	24210.1875
886.03573	24265.2875
889.84136	24326.2875
893.64433	24278.8875
897.44466	24145.6875
901.24235	24078.8875
905.0374	24055.7875
908.8298	23962.1875
912.61957	23982.3875
916.40671	24015.9875
920.19121	24123.3875
923.97308	24230.8875
927.75233	24273.3875
931.52895	24227.2875
935.30295	24074.5875
939.07433	23879.7875
942.84309	23703.3875
946.60924	23586.0875
950.37278	23557.3875
954.13371	23516.1875
957.89203	23458.0875
961.64774	23431.1875
965.40086	23432.7875
969.15137	23370.3875
972.89929	23345.5875
976.64461	23360.9875
980.38733	23340.7875
984.12747	23383.5875
987.86502	23464.2875
991.59999	23565.2875
995.33237	23652.6875
999.06217	23850.7875
1002.78939	24093.6875
1006.51404	24362.7875
1010.23611	24621.8875
1013.95561	24753.5875
1017.67255	24796.9875
1021.38692	24724.9875
1025.09872	24581.2875
1028.80796	24368.4875
1032.51465	24301.9875
1036.21877	24331.8875
1039.92035	24409.6875
1043.61937	24452.4875
1047.31584	24458.6875
1051.00976	24484.6875
1054.70114	24518.9875
1058.38998	24620.9875
1062.07627	24788.9875
1065.76003	24994.5875
1069.44126	25250.6875
1073.11995	25615.8875
1076.79611	25926.5875
1080.46974	26063.4875
1084.14085	26144.3875
1087.80943	26181.2875
1091.47549	26248.1875
1095.13903	26208.0875
1098.80005	25989.0875
1102.45857	25692.6875
1106.11456	25413.3875
1109.76805	25166.3875
1113.41903	25153.4875
1117.06751	25210.6875
1120.71348	25341.4875
1124.35696	25564.2875
1127.99793	25800.9875
1131.63641	25911.1875
1135.2724	25729.0875
1138.90589	25564.7875
1142.5369	25460.6875
1146.16542	25358.9875
1149.79145	25356.3875
1153.415	25298.0875
1157.03607	25331.1875
1160.65467	25512.9875
1164.27079	26009.8875
1167.88443	26683.7875
1171.49561	27510.9875
1175.10432	28609.1875
1178.71056	30081.8875
1182.31434	31520.7875
1185.91565	32486.6875
1189.51451	32858.9875
1193.11091	32653.8875
1196.70485	31959.2875
1200.29634	31037.3875
1203.88538	30165.2875
1207.47197	29351.6875
1211.05612	28705.8875
1214.63782	28128.9875
1218.21708	27695.3875
1221.79391	27325.3875
1225.36829	27105.7875
1228.94024	26993.1875
1232.50976	26960.4875
1236.07685	26916.1875
1239.6415	26963.5875
1243.20374	26933.8875
1246.76355	27083.7875
1250.32093	27334.9875
1253.8759	27603.1875
1257.42845	28066.2875
1260.97859	28588.8875
1264.52631	29064.0875
1268.07163	29520.6875
1271.61453	29995.1875
1275.15503	30358.9875
1278.69312	30629.5875
1282.22882	30893.0875
1285.76211	31112.9875
1289.29301	31452.6875
1292.82151	31980.6875
1296.34761	32521.5875
1299.87133	33386.9875
1303.39266	34409.8875
1306.9116	35597.0875
1310.42815	36838.4875
1313.94233	37552.9875
1317.45412	37458.5875
1320.96354	36881.7875
1324.47058	36402.8875
1327.97525	35978.9875
1331.47754	35714.7875
1334.97747	35758.7875
1338.47502	35991.5875
1341.97022	36365.1875
1345.46305	36856.0875
1348.95352	37439.3875
1352.44163	37960.3875
1355.92738	38572.2875
1359.41078	39416.2875
1362.89183	40315.3875
1366.37053	39618.6875
1369.84688	36987.7875
1373.32088	33962.3875
1376.79254	31804.6875
1380.26186	30687.2875
1383.72883	30170.2875
1387.19347	29791.7875
1390.65578	29324.6875
1394.11575	28890.5875
1397.57339	28670.8875
1401.0287	28629.7875
1404.48168	28626.5875
1407.93234	28723.6875
1411.38068	28734.3875
1414.82669	28567.4875
1418.27039	28279.7875
1421.71177	27827.1875
1425.15083	27433.3875
1428.58758	27317.9875
1432.02203	27404.4875
1435.45416	27693.0875
1438.88399	27958.5875
1442.31151	28150.0875
1445.73673	28238.7875
1449.15965	28309.2875
1452.58027	28310.4875
1455.9986	28256.2875
1459.41463	28395.7875
1462.82837	28753.0875
1466.23982	29120.9875
1469.64898	29518.0875
1473.05586	29828.2875
1476.46045	30003.2875
1479.86276	30063.9875
1483.26279	30155.8875
1486.66054	30338.2875
1490.05602	30657.1875
1493.44922	31088.1875
1496.84016	31816.0875
1500.22882	32867.9875
1503.61521	34314.6875
1506.99934	35843.6875
1510.38121	36937.7875
1513.76081	36916.0875
1517.13816	35774.7875
1520.51324	34075.4875
1523.88607	32548.1875
1527.25665	31597.8875
1530.62498	31153.0875
1533.99105	30833.4875
1537.35488	30545.6875
1540.71647	30292.6875
1544.07581	29944.3875
1547.4329	29631.2875
1550.78776	29378.4875
1554.14038	29145.9875
1557.49077	29013.7875
1560.83892	28995.8875
1564.18484	29027.0875
1567.52853	29212.1875
1570.86999	29461.9875
1574.20922	29720.9875
1577.54624	29891.2875
1580.88103	29656.5875
1584.2136	29213.3875
1587.54395	29066.6875
1590.87208	29346.0875
1594.19801	30049.1875
1597.52172	31065.8875
1600.84321	31523.4875
1604.16251	31200.0875
1607.47959	30357.6875
1610.79447	29246.9875
1614.10715	27997.2875
1617.41763	26743.6875
1620.7259	25758.3875
1624.03199	25167.0875
1627.33587	24963.7875
1630.63757	25156.9875
1633.93707	25759.6875
1637.23439	26896.4875
1640.52951	28534.8875
1643.82246	30579.8875
1647.11321	32396.2875
1650.40179	33071.5875
1653.68819	32029.3875
1656.97241	29616.0875
1660.25446	27031.0875
1663.53433	25107.8875
1666.81203	23831.4875
1670.08756	23086.7875
1673.36092	22568.0875
1676.63211	22236.7875
1679.90115	22005.0875
1683.16801	21757.7875
1686.43272	21627.9875
1689.69527	21526.9875
1692.95567	21426.8875
1696.2139	21354.3875
1699.46999	21343.0875
1702.72392	21269.3875
1705.97571	21211.8875
1709.22535	21189.4875
1712.47284	21141.3875
1715.71819	21151.1875
1718.96139	21112.1875
1722.20246	21058.5875
1725.44139	20983.3875
1728.67818	20894.3875
1731.91284	20791.7875
1735.14537	20727.3875
1738.37576	20675.3875
1741.60403	20595.1875
1744.83017	20548.4875
1748.05418	20498.4875
1751.27607	20477.5875
1754.49584	20415.5875
1757.71349	20445.5875
1760.92903	20441.1875
1764.14244	20446.2875
1767.35375	20417.5875
1770.56294	20338.9875
1773.77002	20340.9875
1776.97499	20335.7875
1780.17785	20270.7875
1783.37861	20258.1875
1786.57727	20202.8875
1789.77382	20178.4875
1792.96828	20147.4875
1796.16064	20114.1875
1799.3509	20088.1875
1802.53907	20047.1875
1805.72514	19996.2875
1808.90913	19978.2875
1812.09102	19939.5875
1815.27083	19884.3875
1818.44856	19877.3875
1821.6242	19858.1875
1824.79776	19837.7875
1827.96924	19822.8875
1831.13864	19789.5875
1834.30597	19789.9875
1837.47122	19791.0875
1840.6344	19768.2875
1843.7955	19747.8875
1846.95454	19745.6875
1850.11151	19724.5875
1853.26642	19695.0875
1856.41926	19695.3875
1859.57004	19691.5875
1862.71876	19670.4875
1865.86542	19640.3875
1869.01003	19605.8875
1872.15258	19575.3875
1875.29308	19589.6875
1878.43152	19540.6875
1881.56792	19525.5875
1884.70227	19494.4875
1887.83457	19466.8875
1890.96482	19437.0875
1894.09304	19420.7875
1897.21921	19399.7875
1900.34335	19375.6875
1903.46544	19345.9875
1906.58551	19321.8875
1909.70353	19273.5875
1912.81953	19283.1875
1915.93349	19227.6875
1919.04543	19231.1875
1922.15534	19154.8875
1925.26322	19144.1875
1928.36908	19071.2875
1931.47292	19085.7875
1934.57473	19015.4875
1937.67453	18965.3875
1940.77232	18898.3875
1943.86808	18848.6875
1946.96184	18839.4875
1950.05358	18760.0875
1953.14331	18738.1875
1956.23103	18659.0875
1959.31675	18620.6875
1962.40046	18579.9875
1965.48217	18522.3875
1968.56188	18497.6875
1971.63959	18407.0875
1974.7153	18370.2875
1977.78901	18315.5875
1980.86073	18289.4875
1983.93046	18202.1875
1986.99819	18153.3875
1990.06394	18098.1875
1993.1277	18012.3875
1996.18947	17963.0875
1999.24925	17944.0875
2002.30706	17917.4875
2005.36288	17846.6875
2008.41672	17769.2875
2011.46859	17770.0875
2014.51848	17719.2875
2017.56639	17641.1875
2020.61233	17580.5875
2023.6563	17544.0875
2026.6983	17515.1875
2029.73833	17472.3875
2032.7764	17468.2875
2035.8125	17386.0875
2038.84664	17385.0875
2041.87881	17343.5875
2044.90903	17325.2875
2047.93729	17253.5875
2050.96359	17252.6875
2053.98794	17220.7875
2057.01034	17207.3875
2060.03078	17190.1875
2063.04927	17183.2875
2066.06582	17164.1875
2069.08042	17148.7875
2072.09307	17138.8875
2075.10378	17130.7875
2078.11255	17098.6875
2081.11938	17124.7875
2084.12426	17098.7875
2087.12722	17092.4875
2090.12824	17089.1875
2093.12732	17111.7875
2096.12447	17126.0875
2099.11969	17064.8875
2102.11299	17129.9875
2105.10435	17132.2875
2108.09379	17132.8875
2111.08131	17134.0875
2114.0669	17167.3875
2117.05057	17167.9875
2120.03233	17162.5875
2123.01216	17181.3875
2125.99008	17209.5875
2128.96609	17186.6875
2131.94018	17238.2875
2134.91236	17227.3875
2137.88263	17250.2875
2140.851	17268.0875
2143.81746	17276.4875
2146.78201	17290.8875
2149.74466	17272.8875
2152.7054	17240.8875
2155.66425	17271.0875
2158.6212	17273.2875
2161.57625	17277.4875
2164.52941	17240.5875
2167.48067	17268.9875
2170.43004	17247.5875
2173.37752	17240.2875
2176.32311	17230.8875
2179.26681	17226.8875
2182.20863	17190.1875
2185.14856	17210.7875
2188.08661	17206.5875
2191.02278	17201.7875
2193.95707	17152.5875
2196.88948	17185.7875
2199.82001	17185.5875
2202.74867	17127.9875
2205.67545	17133.0875
2208.60037	17108.3875
2211.52341	17072.0875
2214.44458	17063.5875
2217.36388	16976.7875
2220.28132	16994.3875
2223.1969	16916.5875
2226.11061	16903.2875
2229.02246	16912.1875
2231.93245	16866.1875
2234.84058	16818.1875
2237.74686	16820.0875
2240.65128	16810.3875
2243.55385	16776.0875
2246.45456	16752.4875
2249.35343	16740.0875
2252.25044	16703.5875
2255.14561	16705.1875
2258.03893	16655.7875
2260.93041	16644.2875
2263.82004	16610.1875
2266.70783	16560.8875
2269.59378	16535.7875
2272.4779	16500.7875
2275.36017	16467.6875
2278.24061	16430.8875
2281.11922	16383.9875
2283.996	16393.5875
2286.87094	16343.2875
2289.74405	16315.4875
2292.61534	16322.4875
2295.4848	16270.7875
2298.35243	16256.9875
2301.21824	16256.7875
2304.08223	16241.5875
2306.94439	16217.8875
2309.80474	16213.7875
2312.66327	16218.4875
2315.51999	16207.1875
2318.37489	16185.8875
2321.22797	16171.2875
2324.07925	16149.0875
2326.92871	16119.5875
2329.77637	16083.6875
2332.62222	16058.5875
2335.46626	16039.6875
2338.3085	16007.2875
2341.14893	15976.8875
2343.98756	15985.9875
2346.8244	15950.9875
2349.65943	15950.0875
2352.49267	15921.5875
2355.32411	15936.6875
2358.15376	15905.5875
2360.98161	15906.9875
2363.80768	15914.7875
2366.63195	15888.6875
2369.45444	15877.3875
2372.27514	15881.9875
2375.09405	15842.5875
2377.91118	15829.5875
2380.72652	15769.3875
2383.54009	15726.4875
2386.35187	15722.7875
2389.16188	15697.1875
2391.97011	15650.1875
2394.77657	15603.4875
2397.58125	15619.1875
2400.38416	15573.2875
2403.18529	15515.8875
2405.98466	15496.8875
2408.78226	15489.0875
2411.57809	15475.6875
2414.37216	15470.5875
2417.16446	15460.7875
2419.955	15441.6875
2422.74378	15438.8875
2425.5308	15406.1875
2428.31606	15382.9875
2431.09956	15394.1875
2433.88131	15348.6875
2436.6613	15356.2875
2439.43954	15353.7875
2442.21603	15323.0875
2444.99077	15319.6875
2447.76377	15342.6875
2450.53501	15284.7875
2453.30451	15285.6875
2456.07226	15277.5875
2458.83827	15247.2875
2461.60254	15220.8875
2464.36507	15252.4875
2467.12586	15245.8875
2469.88492	15210.3875
2472.64224	15214.2875
2475.39782	15200.8875
2478.15167	15169.5875
2480.90379	15150.4875
2483.65417	15149.6875
2486.40283	15168.5875
2489.14976	15115.2875
2491.89497	15114.5875
2494.63845	15123.9875
2497.3802	15096.1875
2500.12024	15031.6875
2502.85855	15056.8875
2505.59514	15053.5875
2508.33002	15019.4875
2511.06318	15018.5875
2513.79462	15023.6875
2516.52435	15017.1875
2519.25237	14964.6875
2521.97867	14917.0875
2524.70327	14920.7875
2527.42616	14887.6875
2530.14734	14914.2875
2532.86681	14886.2875
2535.58458	14883.7875
2538.30065	14853.1875
2541.01501	14815.9875
2543.72768	14811.8875
2546.43864	14787.5875
2549.14791	14774.5875
2551.85548	14745.1875
2554.56136	14710.6875
2557.26554	14715.3875
2559.96803	14675.3875
2562.66883	14659.0875
2565.36794	14627.5875
2568.06536	14650.0875
2570.7611	14585.5875
2573.45514	14555.6875
2576.14751	14549.9875
2578.83819	14526.3875
2581.52719	14500.5875
2584.21451	14479.1875
2586.90015	14453.7875
2589.58411	14433.4875
2592.2664	14419.4875
2594.94701	14358.8875
2597.62594	14367.3875
2600.30321	14326.4875
2602.9788	14329.7875
2605.65273	14292.1875
2608.32498	14266.4875
2610.99557	14247.8875
2613.66449	14249.2875
2616.33175	14202.3875
2618.99734	14179.7875
2621.66128	14180.9875
2624.32355	14160.9875
2626.98416	14134.9875
2629.64311	14145.5875
2632.30041	14142.1875
2634.95605	14089.3875
2637.61004	14079.1875
2640.26238	14061.8875
2642.91306	14073.1875
2645.56209	14051.1875
2648.20948	14031.4875
2650.85521	14035.7875
2653.4993	14037.2875
2656.14175	13996.0875
2658.78255	13994.4875
2661.42171	14025.6875
2664.05923	14005.0875
2666.6951	14009.1875
2669.32934	14016.8875
2671.96194	14023.8875
2674.59291	14002.1875
2677.22224	13993.7875
2679.84993	14016.4875
2682.476	14001.9875
2685.10043	14034.5875
2687.72324	14023.3875
2690.34441	13990.0875
2692.96396	13996.0875
2695.58188	14001.6875
2698.19818	13947.1875
2700.81285	13971.2875
2703.4259	13991.1875
2706.03733	14011.7875
2708.64714	14008.4875
2711.25533	14040.2875
2713.86191	13982.7875
2716.46687	14004.0875
2719.07021	13973.1875
2721.67194	13985.0875
2724.27206	13947.2875
2726.87057	13969.3875
2729.46747	13961.2875
2732.06276	13976.0875
2734.65644	13931.4875
2737.24852	13959.7875
2739.83899	13920.0875
2742.42786	13930.6875
2745.01513	13900.3875
2747.60079	13900.2875
2750.18486	13889.2875
2752.76733	13864.4875
2755.3482	13863.8875
2757.92747	13851.7875
2760.50515	13822.7875
2763.08123	13823.3875
2765.65573	13784.0875
2768.22863	13777.8875
2770.79994	13763.5875
2773.36967	13729.4875
2775.9378	13683.7875
2778.50435	13695.2875
2781.06932	13677.8875
2783.6327	13661.9875
2786.1945	13645.7875
2788.75471	13618.4875
2791.31335	13584.7875
2793.87041	13557.4875
2796.42589	13509.0875
2798.97979	13509.2875
2801.53212	13476.6875
2804.08288	13439.8875
2806.63206	13410.7875
2809.17967	13418.8875
2811.72571	13350.1875
2814.27018	13382.0875
2816.81308	13356.6875
2819.35442	13311.5875
2821.89419	13300.0875
2824.43239	13281.0875
2826.96904	13245.8875
2829.50412	13271.8875
2832.03763	13219.9875
2834.56959	13214.8875
2837.1	13173.1875
2839.62884	13178.7875
2842.15613	13157.1875
2844.68186	13188.9875
2847.20604	13192.8875
2849.72867	13191.3875
2852.24974	13160.2875
2854.76927	13146.5875
2857.28724	13097.0875
2859.80367	13092.9875
2862.31855	13058.1875
2864.83189	13092.2875
2867.34368	13042.8875
2869.85393	13053.8875
2872.36264	13048.9875
2874.8698	13028.9875
2877.37543	13059.4875
2879.87952	13031.2875
2882.38207	13045.3875
2884.88308	13013.6875
2887.38256	13024.7875
2889.88051	13019.4875
2892.37692	12990.6875
2894.8718	13002.6875
2897.36515	13002.3875
2899.85698	13013.2875
2902.34727	13052.8875
2904.83604	13029.7875
2907.32328	13040.4875
2909.809	12997.7875
2912.29319	13035.2875
2914.77587	13028.3875
2917.25702	13026.4875
2919.73665	12988.6875
2922.21476	13016.4875
2924.69136	12971.5875
2927.16644	12994.9875
2929.64	12996.3875
2932.11205	12930.5875
2934.58258	12888.5875
2937.05161	12905.1875
2939.51912	12929.0875
2941.98513	12903.7875
2944.44962	12894.2875
2946.91261	12844.2875
2949.37409	12889.3875
2951.83407	12846.1875
2954.29254	12828.8875
2956.74951	12846.7875
2959.20498	12830.7875
2961.65895	12788.9875
2964.11142	12799.3875
2966.56239	12777.6875
2969.01186	12773.7875
2971.45984	12736.5875
2973.90632	12728.7875
2976.35131	12698.3875
2978.7948	12685.4875
2981.23681	12630.6875
2983.67732	12642.3875
2986.11635	12609.0875
2988.55388	12576.5875
2990.98993	12555.7875
2993.4245	12565.2875
2995.85758	12520.7875
2998.28917	12496.4875
3000.71928	12474.3875
3003.14791	12424.0875
3005.57506	12444.0875
3008.00073	12392.1875
3010.42493	12399.6875
3012.84764	12408.2875
3015.26888	12371.7875
3017.68865	12349.8875
3020.10694	12358.0875
3022.52376	12302.3875
3024.9391	12287.2875
3027.35298	12270.3875
3029.76539	12266.2875
3032.17632	12252.4875
3034.5858	12219.9875
3036.9938	12189.6875
3039.40034	12198.4875
3041.80542	12162.5875
3044.20903	12151.0875
3046.61118	12136.6875
3049.01187	12094.9875
3051.4111	12069.7875
3053.80888	12059.7875
3056.20519	12034.5875
3058.60005	12009.5875
3060.99345	12036.4875
3063.3854	12012.3875
3065.7759	11956.8875
3068.16494	11963.2875
3070.55254	11927.7875
3072.93868	11903.2875
3075.32338	11862.1875
3077.70662	11878.3875
3080.08842	11864.2875
3082.46878	11849.5875
3084.84769	11820.9875
3087.22515	11821.5875
3089.60118	11785.3875
3091.97576	11785.3875
3094.3489	11789.9875
3096.72061	11773.1875
3099.09087	11758.5875
3101.4597	11750.6875
3103.82709	11750.1875
3106.19305	11740.6875
3108.55757	11721.3875
3110.92066	11677.9875
3113.28232	11687.9875
3115.64255	11669.7875
3118.00134	11613.7875
3120.35871	11621.8875
3122.71466	11563.6875
3125.06917	11568.5875
3127.42226	11539.8875
3129.77393	11579.6875
3132.12417	11526.8875
3134.47299	11553.3875
3136.82039	11525.8875
3139.16636	11539.0875
3141.51092	11510.5875
3143.85406	11568.0875
3146.19579	11541.4875
3148.53609	11561.5875
3150.87499	11554.4875
3153.21246	11553.5875
3155.54853	11544.9875
3157.88318	11546.8875
3160.21642	11561.3875
3162.54826	11548.7875
3164.87868	11514.1875
3167.2077	11515.4875
3169.5353	11523.6875
3171.86151	11534.0875
3174.18631	11522.6875
3176.5097	11469.7875
3178.83169	11460.0875
3181.15228	11482.2875
3183.47147	11445.9875
3185.78926	11448.7875
3188.10565	11408.4875
3190.42065	11400.3875
3192.73424	11404.2875
3195.04645	11380.3875
3197.35725	11403.5875
3199.66667	11418.0875
3201.97469	11407.0875
3204.28132	11392.1875
3206.58656	11423.3875
3208.8904	11396.9875
3211.19287	11425.2875
3213.49394	11402.7875
3215.79363	11414.1875
3218.09193	11416.9875
3220.38884	11392.8875
3222.68438	11382.7875
3224.97853	11351.4875
3227.2713	11371.7875
3229.56269	11341.5875
3231.8527	11334.3875
3234.14133	11307.8875
3236.42858	11289.4875
3238.71446	11280.3875
3240.99896	11259.8875
3243.28209	11289.1875
3245.56384	11244.2875
3247.84423	11234.1875
3250.12324	11239.8875
3252.40088	11227.9875
3254.67715	11228.8875
3256.95205	11192.4875
3259.22558	11203.4875
3261.49775	11160.2875
3263.76855	11155.5875
3266.03799	11116.5875
3268.30606	11123.8875
3270.57277	11103.2875
3272.83812	11069.1875
3275.10211	11050.9875
3277.36474	11041.8875
3279.62601	11034.9875
3281.88593	11018.4875
3284.14448	11016.4875
3286.40168	10991.3875
3288.65753	10982.4875
3290.91202	10952.6875
3293.16516	10927.2875
3295.41695	10906.2875
3297.66738	10843.9875
3299.91647	10804.9875
3302.16421	10744.2875
3304.4106	10701.9875
3306.65564	10661.3875
3308.89933	10588.3875
3311.14169	10512.6875
3313.38269	10450.1875
3315.62236	10392.6875
3317.86068	10306.9875
3320.09766	10201.9875
3322.3333	10109.1875
3324.5676	10125.8875
3326.80056	9977.6875
3329.03219	9904.2875
3331.26248	2.4875
3333.49143	1.3875
3335.71905	-0.6125
