Data from AgNPs_FTO_APTES_UA_0uM_R6G_10uM_NaF_0.1M_Addition_RamanShift__23__10-21-57-103.txt Node

Date: Fri Dec 17 10:21:57 GMT 2021
User: TCL
Spectrometer: QEP01345
Trigger mode: 4
Integration Time (sec): 7.000000E0
Scans to average: 10
Electric dark correction enabled: true
Nonlinearity correction enabled: false
Boxcar width: 0
XAxis mode: Raman Shifts
Number of Pixels in Spectrum: 1044
>>>>>Begin Spectral Data<<<<<
46.04893	0.625
50.45542	0.525
54.85868	0.125
59.25871	0.825
63.6555	31.325
68.04907	29.725
72.43941	29.925
76.82654	36.425
81.21044	38.325
85.59113	38.225
89.96862	46.525
94.34289	44.525
98.71396	46.125
103.08183	43.925
107.4465	47.225
111.80798	45.225
116.16626	49.425
120.52136	49.125
124.87327	49.525
129.222	49.225
133.56755	50.225
137.90993	52.725
142.24913	50.525
146.58517	51.625
150.91804	56.425
155.24774	57.225
159.57429	71.525
163.89768	80.725
168.21792	96.225
172.53501	116.625
176.84895	153.125
181.15975	196.725
185.46741	271.525
189.77193	368.525
194.07331	480.925
198.37157	607.725
202.6667	744.225
206.9587	872.625
211.24758	1006.525
215.53334	1135.825
219.81599	1277.525
224.09553	1427.625
228.37195	1596.625
232.64527	1793.625
236.91549	1988.125
241.18261	2183.425
245.44663	2331.225
249.70755	2454.425
253.96539	2557.325
258.22014	2636.825
262.4718	2721.225
266.72039	2751.225
270.96589	2781.225
275.20832	2767.525
279.44768	2724.225
283.68397	2664.625
287.91719	2623.025
292.14735	2593.125
296.37445	2624.325
300.59849	2695.725
304.81948	2791.225
309.03742	2864.925
313.25231	2861.825
317.46415	2748.425
321.67296	2540.825
325.87872	2393.625
330.08145	2324.025
334.28114	2334.525
338.47781	2350.625
342.67145	2419.725
346.86207	2528.625
351.04966	2672.325
355.23424	2843.225
359.4158	2990.525
363.59435	3041.125
367.76989	3077.225
371.94243	3088.025
376.11196	3074.325
380.27849	3064.225
384.44203	3026.325
388.60257	2980.025
392.76012	2947.125
396.91468	2946.425
401.06626	3017.725
405.21485	3069.725
409.36047	3033.225
413.50311	2875.925
417.64277	2761.925
421.77947	2692.225
425.9132	2677.525
430.04396	2663.325
434.17176	2696.225
438.2966	2733.125
442.41849	2802.325
446.53742	2900.725
450.6534	2982.925
454.76644	3027.525
458.87653	3013.825
462.98368	2991.425
467.08789	2935.325
471.18916	2882.725
475.2875	2813.825
479.38291	2762.825
483.4754	2727.525
487.56496	2690.725
491.6516	2670.325
495.73531	2667.125
499.81612	2661.425
503.89401	2685.725
507.96899	2734.625
512.04106	2775.525
516.11023	2851.425
520.1765	2889.725
524.23987	2887.525
528.30034	2837.525
532.35792	2761.825
536.41261	2684.525
540.46441	2630.725
544.51333	2586.325
548.55936	2593.125
552.60252	2626.125
556.64279	2685.825
560.6802	2697.725
564.71473	2740.025
568.7464	2816.725
572.7752	2854.925
576.80114	2773.125
580.82422	2658.225
584.84444	2591.925
588.86181	2609.725
592.87633	2655.225
596.888	2697.425
600.89682	2775.425
604.9028	3033.425
608.90594	3762.625
612.90624	4759.225
616.90371	4696.525
620.89834	3443.625
624.89015	2768.425
628.87913	2605.025
632.86528	2600.625
636.84862	2596.525
640.82913	2584.225
644.80683	2526.525
648.78172	2503.925
652.75379	2530.125
656.72306	2657.125
660.68952	2806.625
664.65319	2732.825
668.61405	2568.825
672.57211	2477.425
676.52738	2460.125
680.47986	2475.025
684.42955	2465.025
688.37646	2467.625
692.32058	2488.925
696.26192	2526.025
700.20048	2577.325
704.13626	2647.025
708.06928	2624.425
711.99952	2579.025
715.927	2546.525
719.85171	2538.925
723.77365	2532.925
727.69284	2514.125
731.60928	2495.025
735.52295	2497.225
739.43388	2507.425
743.34206	2516.625
747.24749	2527.525
751.15017	2531.225
755.05012	2564.025
758.94733	2663.325
762.8418	2878.525
766.73354	3274.125
770.62254	3726.025
774.50882	4043.625
778.39237	3990.825
782.27321	3534.825
786.15132	3040.625
790.02671	2756.325
793.89938	2638.525
797.76935	2600.625
801.6366	2580.725
805.50115	2562.525
809.36299	2552.025
813.22213	2540.725
817.07857	2541.625
820.93231	2537.625
824.78336	2542.825
828.63172	2542.525
832.47738	2550.225
836.32036	2545.325
840.16066	2537.625
843.99827	2522.525
847.8332	2527.125
851.66546	2525.025
855.49504	2532.125
859.32195	2527.225
863.1462	2506.125
866.96777	2488.925
870.78668	2473.325
874.60293	2469.925
878.41652	2480.125
882.22745	2488.925
886.03573	2509.625
889.84136	2496.525
893.64433	2503.325
897.44466	2494.825
901.24235	2505.325
905.0374	2497.125
908.8298	2496.925
912.61957	2481.725
916.40671	2509.825
920.19121	2535.525
923.97308	2545.125
927.75233	2577.125
931.52895	2604.325
935.30295	2600.325
939.07433	2537.725
942.84309	2489.025
946.60924	2428.325
950.37278	2410.025
954.13371	2376.325
957.89203	2363.925
961.64774	2344.325
965.40086	2331.525
969.15137	2322.725
972.89929	2311.825
976.64461	2308.725
980.38733	2304.225
984.12747	2305.125
987.86502	2308.425
991.59999	2311.925
995.33237	2315.225
999.06217	2352.125
1002.78939	2369.125
1006.51404	2399.525
1010.23611	2422.225
1013.95561	2445.625
1017.67255	2438.625
1021.38692	2426.925
1025.09872	2388.225
1028.80796	2372.525
1032.51465	2400.925
1036.21877	2473.325
1039.92035	2562.125
1043.61937	2603.525
1047.31584	2576.625
1051.00976	2533.425
1054.70114	2477.225
1058.38998	2428.425
1062.07627	2390.325
1065.76003	2382.925
1069.44126	2391.825
1073.11995	2400.025
1076.79611	2444.225
1080.46974	2506.525
1084.14085	2548.525
1087.80943	2581.725
1091.47549	2589.025
1095.13903	2532.425
1098.80005	2425.725
1102.45857	2355.425
1106.11456	2355.325
1109.76805	2362.825
1113.41903	2424.025
1117.06751	2501.625
1120.71348	2618.925
1124.35696	2723.425
1127.99793	2817.225
1131.63641	2777.525
1135.2724	2640.025
1138.90589	2500.125
1142.5369	2428.125
1146.16542	2362.025
1149.79145	2341.325
1153.415	2323.525
1157.03607	2366.725
1160.65467	2418.325
1164.27079	2495.425
1167.88443	2611.625
1171.49561	2795.025
1175.10432	3150.625
1178.71056	3597.725
1182.31434	3916.025
1185.91565	3980.025
1189.51451	3908.225
1193.11091	3673.825
1196.70485	3416.925
1200.29634	3175.925
1203.88538	2984.225
1207.47197	2763.225
1211.05612	2597.925
1214.63782	2508.225
1218.21708	2485.525
1221.79391	2465.525
1225.36829	2474.925
1228.94024	2482.125
1232.50976	2490.425
1236.07685	2484.525
1239.6415	2514.525
1243.20374	2521.325
1246.76355	2548.725
1250.32093	2583.725
1253.8759	2645.125
1257.42845	2714.925
1260.97859	2809.025
1264.52631	2901.425
1268.07163	3002.425
1271.61453	3072.625
1275.15503	3110.425
1278.69312	3098.425
1282.22882	3064.425
1285.76211	3117.725
1289.29301	3225.025
1292.82151	3345.025
1296.34761	3444.225
1299.87133	3576.125
1303.39266	3817.425
1306.9116	4196.625
1310.42815	4651.725
1313.94233	4912.325
1317.45412	4774.025
1320.96354	4385.925
1324.47058	3976.325
1327.97525	3621.925
1331.47754	3401.725
1334.97747	3335.725
1338.47502	3367.025
1341.97022	3448.625
1345.46305	3615.825
1348.95352	3887.725
1352.44163	4343.125
1355.92738	4938.625
1359.41078	5686.625
1362.89183	6335.125
1366.37053	6196.325
1369.84688	5380.125
1373.32088	4483.025
1376.79254	3839.125
1380.26186	3467.625
1383.72883	3259.925
1387.19347	3089.825
1390.65578	2914.825
1394.11575	2772.025
1397.57339	2671.925
1401.0287	2636.025
1404.48168	2636.225
1407.93234	2645.325
1411.38068	2664.725
1414.82669	2668.725
1418.27039	2658.325
1421.71177	2646.125
1425.15083	2638.325
1428.58758	2656.925
1432.02203	2686.825
1435.45416	2733.325
1438.88399	2770.325
1442.31151	2778.525
1445.73673	2750.425
1449.15965	2731.425
1452.58027	2702.425
1455.9986	2628.925
1459.41463	2603.425
1462.82837	2594.725
1466.23982	2626.825
1469.64898	2678.625
1473.05586	2729.025
1476.46045	2751.825
1479.86276	2793.525
1483.26279	2844.125
1486.66054	2887.225
1490.05602	2952.225
1493.44922	3039.225
1496.84016	3239.925
1500.22882	3577.025
1503.61521	4076.225
1506.99934	4615.125
1510.38121	5143.525
1513.76081	5387.225
1517.13816	5123.225
1520.51324	4424.525
1523.88607	3747.625
1527.25665	3289.225
1530.62498	3063.125
1533.99105	2953.625
1537.35488	2874.825
1540.71647	2835.725
1544.07581	2811.425
1547.4329	2804.025
1550.78776	2800.725
1554.14038	2790.625
1557.49077	2805.625
1560.83892	2850.025
1564.18484	2925.525
1567.52853	3039.225
1570.86999	3192.325
1574.20922	3320.325
1577.54624	3329.725
1580.88103	3154.725
1584.2136	2875.925
1587.54395	2702.325
1590.87208	2682.625
1594.19801	2808.725
1597.52172	2999.425
1600.84321	3112.425
1604.16251	3043.925
1607.47959	2863.325
1610.79447	2670.125
1614.10715	2479.625
1617.41763	2325.025
1620.7259	2229.625
1624.03199	2192.925
1627.33587	2167.825
1630.63757	2194.525
1633.93707	2242.625
1637.23439	2353.225
1640.52951	2522.525
1643.82246	2817.925
1647.11321	3188.325
1650.40179	3501.225
1653.68819	3459.425
1656.97241	3035.725
1660.25446	2552.425
1663.53433	2198.025
1666.81203	2016.325
1670.08756	1918.525
1673.36092	1840.825
1676.63211	1808.025
1679.90115	1777.925
1683.16801	1744.025
1686.43272	1739.525
1689.69527	1715.025
1692.95567	1699.525
1696.2139	1688.625
1699.46999	1679.225
1702.72392	1677.625
1705.97571	1667.425
1709.22535	1653.025
1712.47284	1649.425
1715.71819	1653.925
1718.96139	1647.925
1722.20246	1653.325
1725.44139	1636.825
1728.67818	1612.425
1731.91284	1595.725
1735.14537	1575.025
1738.37576	1560.625
1741.60403	1533.425
1744.83017	1521.025
1748.05418	1519.025
1751.27607	1507.925
1754.49584	1497.125
1757.71349	1509.325
1760.92903	1487.425
1764.14244	1487.425
1767.35375	1475.825
1770.56294	1470.425
1773.77002	1462.825
1776.97499	1469.425
1780.17785	1442.525
1783.37861	1444.825
1786.57727	1445.825
1789.77382	1439.325
1792.96828	1437.225
1796.16064	1431.025
1799.3509	1426.825
1802.53907	1424.525
1805.72514	1412.525
1808.90913	1400.925
1812.09102	1398.325
1815.27083	1392.125
1818.44856	1378.525
1821.6242	1390.625
1824.79776	1379.525
1827.96924	1375.625
1831.13864	1368.425
1834.30597	1374.425
1837.47122	1374.025
1840.6344	1364.825
1843.7955	1365.125
1846.95454	1354.825
1850.11151	1353.625
1853.26642	1344.725
1856.41926	1352.725
1859.57004	1338.025
1862.71876	1340.125
1865.86542	1348.925
1869.01003	1342.925
1872.15258	1344.325
1875.29308	1338.025
1878.43152	1334.525
1881.56792	1332.125
1884.70227	1325.625
1887.83457	1328.625
1890.96482	1326.025
1894.09304	1320.625
1897.21921	1315.725
1900.34335	1325.725
1903.46544	1318.325
1906.58551	1320.125
1909.70353	1314.525
1912.81953	1309.725
1915.93349	1304.825
1919.04543	1299.125
1922.15534	1294.625
1925.26322	1291.225
1928.36908	1301.025
1931.47292	1285.925
1934.57473	1283.025
1937.67453	1288.525
1940.77232	1280.825
1943.86808	1265.725
1946.96184	1271.025
1950.05358	1272.725
1953.14331	1257.925
1956.23103	1252.125
1959.31675	1241.425
1962.40046	1252.625
1965.48217	1238.125
1968.56188	1232.425
1971.63959	1234.525
1974.7153	1227.525
1977.78901	1220.025
1980.86073	1224.825
1983.93046	1209.125
1986.99819	1203.025
1990.06394	1201.125
1993.1277	1193.525
1996.18947	1197.225
1999.24925	1194.125
2002.30706	1182.025
2005.36288	1172.625
2008.41672	1174.025
2011.46859	1166.525
2014.51848	1164.225
2017.56639	1162.125
2020.61233	1150.725
2023.6563	1153.225
2026.6983	1142.525
2029.73833	1147.025
2032.7764	1138.925
2035.8125	1138.025
2038.84664	1141.225
2041.87881	1137.525
2044.90903	1128.625
2047.93729	1128.025
2050.96359	1130.125
2053.98794	1120.425
2057.01034	1123.425
2060.03078	1120.225
2063.04927	1116.325
2066.06582	1119.825
2069.08042	1124.825
2072.09307	1118.225
2075.10378	1113.225
2078.11255	1108.125
2081.11938	1109.125
2084.12426	1111.825
2087.12722	1117.025
2090.12824	1112.925
2093.12732	1117.325
2096.12447	1126.825
2099.11969	1122.025
2102.11299	1120.425
2105.10435	1108.725
2108.09379	1114.725
2111.08131	1111.125
2114.0669	1105.925
2117.05057	1108.125
2120.03233	1108.125
2123.01216	1098.325
2125.99008	1107.425
2128.96609	1108.325
2131.94018	1101.025
2134.91236	1104.825
2137.88263	1103.225
2140.851	1097.225
2143.81746	1098.225
2146.78201	1095.025
2149.74466	1091.125
2152.7054	1093.425
2155.66425	1093.325
2158.6212	1096.925
2161.57625	1094.425
2164.52941	1095.725
2167.48067	1089.725
2170.43004	1091.125
2173.37752	1091.425
2176.32311	1086.725
2179.26681	1091.925
2182.20863	1092.725
2185.14856	1083.625
2188.08661	1089.225
2191.02278	1084.225
2193.95707	1076.725
2196.88948	1083.125
2199.82001	1075.925
2202.74867	1073.325
2205.67545	1071.025
2208.60037	1071.725
2211.52341	1074.725
2214.44458	1059.825
2217.36388	1053.225
2220.28132	1057.725
2223.1969	1045.725
2226.11061	1046.025
2229.02246	1041.925
2231.93245	1045.725
2234.84058	1042.625
2237.74686	1036.425
2240.65128	1034.725
2243.55385	1040.525
2246.45456	1028.125
2249.35343	1026.725
2252.25044	1029.325
2255.14561	1029.125
2258.03893	1026.125
2260.93041	1013.525
2263.82004	1021.625
2266.70783	1019.325
2269.59378	1015.625
2272.4779	1015.325
2275.36017	1013.225
2278.24061	1005.725
2281.11922	993.525
2283.996	1008.925
2286.87094	1000.725
2289.74405	995.225
2292.61534	988.925
2295.4848	989.625
2298.35243	985.425
2301.21824	985.425
2304.08223	981.725
2306.94439	989.325
2309.80474	988.725
2312.66327	977.925
2315.51999	974.825
2318.37489	979.225
2321.22797	971.825
2324.07925	972.225
2326.92871	977.425
2329.77637	971.825
2332.62222	961.125
2335.46626	967.625
2338.3085	958.825
2341.14893	960.725
2343.98756	958.225
2346.8244	963.625
2349.65943	962.325
2352.49267	959.325
2355.32411	959.025
2358.15376	958.925
2360.98161	968.425
2363.80768	961.625
2366.63195	964.225
2369.45444	961.625
2372.27514	958.425
2375.09405	960.625
2377.91118	963.225
2380.72652	954.325
2383.54009	941.425
2386.35187	946.125
2389.16188	936.425
2391.97011	944.725
2394.77657	935.725
2397.58125	926.025
2400.38416	928.825
2403.18529	923.225
2405.98466	921.225
2408.78226	927.325
2411.57809	919.425
2414.37216	909.225
2417.16446	912.725
2419.955	906.425
2422.74378	906.325
2425.5308	909.725
2428.31606	904.125
2431.09956	911.925
2433.88131	914.425
2436.6613	910.725
2439.43954	908.325
2442.21603	907.325
2444.99077	904.025
2447.76377	905.725
2450.53501	901.925
2453.30451	904.025
2456.07226	904.925
2458.83827	909.525
2461.60254	899.525
2464.36507	897.625
2467.12586	897.725
2469.88492	897.025
2472.64224	898.525
2475.39782	895.725
2478.15167	897.725
2480.90379	902.725
2483.65417	895.425
2486.40283	891.225
2489.14976	896.125
2491.89497	897.725
2494.63845	905.925
2497.3802	898.325
2500.12024	903.925
2502.85855	905.125
2505.59514	896.725
2508.33002	889.925
2511.06318	884.725
2513.79462	884.125
2516.52435	882.325
2519.25237	872.725
2521.97867	868.925
2524.70327	876.025
2527.42616	868.425
2530.14734	860.125
2532.86681	864.125
2535.58458	863.325
2538.30065	866.125
2541.01501	866.725
2543.72768	860.325
2546.43864	865.625
2549.14791	868.025
2551.85548	870.625
2554.56136	859.125
2557.26554	864.925
2559.96803	856.125
2562.66883	867.325
2565.36794	862.925
2568.06536	859.925
2570.7611	865.225
2573.45514	860.025
2576.14751	850.825
2578.83819	851.225
2581.52719	851.025
2584.21451	854.725
2586.90015	848.825
2589.58411	853.725
2592.2664	848.625
2594.94701	847.325
2597.62594	843.625
2600.30321	850.625
2602.9788	848.025
2605.65273	839.125
2608.32498	849.025
2610.99557	848.525
2613.66449	842.025
2616.33175	842.925
2618.99734	846.725
2621.66128	841.425
2624.32355	838.425
2626.98416	836.325
2629.64311	837.625
2632.30041	843.225
2634.95605	841.325
2637.61004	840.325
2640.26238	839.425
2642.91306	833.325
2645.56209	832.025
2648.20948	838.325
2650.85521	834.625
2653.4993	840.825
2656.14175	838.325
2658.78255	846.525
2661.42171	849.025
2664.05923	851.325
2666.6951	848.825
2669.32934	854.925
2671.96194	855.125
2674.59291	864.625
2677.22224	863.625
2679.84993	870.325
2682.476	863.225
2685.10043	867.225
2687.72324	866.025
2690.34441	880.425
2692.96396	878.325
2695.58188	883.225
2698.19818	884.925
2700.81285	890.525
2703.4259	890.825
2706.03733	889.625
2708.64714	898.325
2711.25533	912.625
2713.86191	917.225
2716.46687	916.025
2719.07021	920.525
2721.67194	932.725
2724.27206	925.725
2726.87057	936.625
2729.46747	937.625
2732.06276	934.525
2734.65644	941.025
2737.24852	940.125
2739.83899	942.825
2742.42786	945.025
2745.01513	945.525
2747.60079	954.625
2750.18486	957.725
2752.76733	963.025
2755.3482	957.025
2757.92747	972.025
2760.50515	976.425
2763.08123	981.825
2765.65573	983.225
2768.22863	998.925
2770.79994	1003.825
2773.36967	1020.325
2775.9378	1022.025
2778.50435	1047.425
2781.06932	1064.425
2783.6327	1062.425
2786.1945	1079.125
2788.75471	1107.125
2791.31335	1108.625
2793.87041	1136.125
2796.42589	1155.425
2798.97979	1173.625
2801.53212	1189.125
2804.08288	1220.425
2806.63206	1230.625
2809.17967	1256.725
2811.72571	1280.225
2814.27018	1303.725
2816.81308	1323.525
2819.35442	1329.125
2821.89419	1342.525
2824.43239	1357.825
2826.96904	1356.225
2829.50412	1351.525
2832.03763	1351.825
2834.56959	1353.825
2837.1	1366.425
2839.62884	1394.925
2842.15613	1427.025
2844.68186	1479.125
2847.20604	1522.925
2849.72867	1563.325
2852.24974	1589.325
2854.76927	1587.925
2857.28724	1584.925
2859.80367	1561.725
2862.31855	1545.725
2864.83189	1536.525
2867.34368	1518.225
2869.85393	1496.725
2872.36264	1498.025
2874.8698	1485.425
2877.37543	1471.525
2879.87952	1467.625
2882.38207	1459.125
2884.88308	1450.325
2887.38256	1444.125
2889.88051	1446.125
2892.37692	1439.125
2894.8718	1432.825
2897.36515	1429.425
2899.85698	1420.625
2902.34727	1427.125
2904.83604	1416.225
2907.32328	1415.525
2909.809	1401.025
2912.29319	1395.925
2914.77587	1388.325
2917.25702	1377.025
2919.73665	1371.525
2922.21476	1360.825
2924.69136	1353.325
2927.16644	1357.425
2929.64	1340.225
2932.11205	1324.225
2934.58258	1305.825
2937.05161	1277.225
2939.51912	1259.525
2941.98513	1219.325
2944.44962	1173.325
2946.91261	1132.725
2949.37409	1103.025
2951.83407	1070.625
2954.29254	1046.625
2956.74951	1017.825
2959.20498	995.925
2961.65895	982.825
2964.11142	974.325
2966.56239	955.425
2969.01186	939.925
2971.45984	929.925
2973.90632	917.725
2976.35131	909.325
2978.7948	902.825
2981.23681	888.825
2983.67732	878.925
2986.11635	866.025
2988.55388	863.525
2990.98993	858.325
2993.4245	835.225
2995.85758	833.225
2998.28917	826.925
3000.71928	824.425
3003.14791	822.925
3005.57506	821.425
3008.00073	815.525
3010.42493	810.925
3012.84764	810.925
3015.26888	809.125
3017.68865	811.825
3020.10694	813.825
3022.52376	806.425
3024.9391	809.825
3027.35298	808.225
3029.76539	811.725
3032.17632	803.525
3034.5858	812.425
3036.9938	814.725
3039.40034	813.325
3041.80542	807.825
3044.20903	812.625
3046.61118	816.525
3049.01187	812.825
3051.4111	816.225
3053.80888	813.225
3056.20519	819.125
3058.60005	819.825
3060.99345	822.825
3063.3854	830.225
3065.7759	826.225
3068.16494	832.125
3070.55254	833.725
3072.93868	836.325
3075.32338	836.425
3077.70662	838.225
3080.08842	831.225
3082.46878	829.425
3084.84769	823.025
3087.22515	830.625
3089.60118	828.625
3091.97576	833.325
3094.3489	836.425
3096.72061	829.925
3099.09087	843.825
3101.4597	833.425
3103.82709	846.325
3106.19305	847.225
3108.55757	848.425
3110.92066	855.625
3113.28232	858.025
3115.64255	855.425
3118.00134	868.525
3120.35871	865.525
3122.71466	865.625
3125.06917	872.425
3127.42226	880.925
3129.77393	882.225
3132.12417	890.925
3134.47299	897.125
3136.82039	907.425
3139.16636	915.125
3141.51092	912.325
3143.85406	928.825
3146.19579	933.825
3148.53609	935.025
3150.87499	941.325
3153.21246	952.525
3155.54853	964.625
3157.88318	968.225
3160.21642	967.325
3162.54826	971.925
3164.87868	982.225
3167.2077	981.725
3169.5353	992.425
3171.86151	995.725
3174.18631	1002.325
3176.5097	1010.625
3178.83169	1014.725
3181.15228	1017.125
3183.47147	1028.325
3185.78926	1030.625
3188.10565	1031.725
3190.42065	1042.425
3192.73424	1050.025
3195.04645	1059.325
3197.35725	1061.125
3199.66667	1065.025
3201.97469	1068.725
3204.28132	1075.225
3206.58656	1074.125
3208.8904	1074.725
3211.19287	1080.025
3213.49394	1086.025
3215.79363	1087.025
3218.09193	1090.725
3220.38884	1095.825
3222.68438	1095.025
3224.97853	1106.625
3227.2713	1103.525
3229.56269	1103.325
3231.8527	1112.925
3234.14133	1108.825
3236.42858	1112.025
3238.71446	1112.825
3240.99896	1113.525
3243.28209	1123.025
3245.56384	1110.225
3247.84423	1121.225
3250.12324	1120.325
3252.40088	1130.825
3254.67715	1126.225
3256.95205	1126.025
3259.22558	1134.725
3261.49775	1134.625
3263.76855	1124.425
3266.03799	1126.725
3268.30606	1134.425
3270.57277	1131.825
3272.83812	1127.425
3275.10211	1138.625
3277.36474	1141.025
3279.62601	1147.525
3281.88593	1140.025
3284.14448	1141.925
3286.40168	1135.925
3288.65753	1145.825
3290.91202	1141.725
3293.16516	1128.425
3295.41695	1123.825
3297.66738	1121.925
3299.91647	1110.925
3302.16421	1108.225
3304.4106	1103.925
3306.65564	1096.725
3308.89933	1086.425
3311.14169	1081.225
3313.38269	1069.025
3315.62236	1067.825
3317.86068	1064.825
3320.09766	1052.325
3322.3333	1037.225
3324.5676	1045.125
3326.80056	1015.225
3329.03219	1025.225
3331.26248	-1.075
3333.49143	0.125
3335.71905	-0.075
