Data from AgNPs_FTO_APTES_UA_5uM_R6G_10uM_NaF_0.1M_Addition_RamanShift__4__12-30-17-250.txt Node

Date: Fri Dec 17 12:30:17 GMT 2021
User: TCL
Spectrometer: QEP01345
Trigger mode: 4
Integration Time (sec): 7.000000E0
Scans to average: 10
Electric dark correction enabled: true
Nonlinearity correction enabled: false
Boxcar width: 0
XAxis mode: Raman Shifts
Number of Pixels in Spectrum: 1044
>>>>>Begin Spectral Data<<<<<
46.04893	-0.975
50.45542	-3.475
54.85868	-1.975
59.25871	0.225
63.6555	123.825
68.04907	133.425
72.43941	135.225
76.82654	143.125
81.21044	147.725
85.59113	150.525
89.96862	159.225
94.34289	165.225
98.71396	168.225
103.08183	174.425
107.4465	180.525
111.80798	183.925
116.16626	189.425
120.52136	192.625
124.87327	204.625
129.222	212.425
133.56755	220.025
137.90993	239.025
142.24913	261.525
146.58517	287.925
150.91804	331.825
155.24774	391.525
159.57429	481.125
163.89768	617.825
168.21792	808.625
172.53501	1091.125
176.84895	1521.325
181.15975	2122.325
185.46741	2958.225
189.77193	4076.925
194.07331	5456.025
198.37157	7035.425
202.6667	8667.325
206.9587	10317.425
211.24758	11894.325
215.53334	13495.425
219.81599	15184.825
224.09553	17080.625
228.37195	19128.925
232.64527	21421.025
236.91549	23814.525
241.18261	26324.225
245.44663	28586.625
249.70755	30693.625
253.96539	32458.525
258.22014	34028.825
262.4718	35226.025
266.72039	36066.425
270.96589	36510.625
275.20832	36528.025
279.44768	36255.025
283.68397	35823.825
287.91719	35392.525
292.14735	35100.825
296.37445	34970.225
300.59849	34914.625
304.81948	34981.925
309.03742	35011.425
313.25231	34868.825
317.46415	34483.925
321.67296	33944.625
325.87872	33494.025
330.08145	33227.125
334.28114	33256.425
338.47781	33554.825
342.67145	33894.625
346.86207	34368.625
351.04966	34969.825
355.23424	35635.025
359.4158	36252.825
363.59435	36754.025
367.76989	37111.625
371.94243	37445.725
376.11196	37642.025
380.27849	37830.125
384.44203	38035.725
388.60257	38378.025
392.76012	38806.325
396.91468	39255.725
401.06626	39804.625
405.21485	40290.825
409.36047	40270.325
413.50311	40008.125
417.64277	39918.425
421.77947	40084.425
425.9132	40323.025
430.04396	40508.925
434.17176	40647.625
438.2966	40788.125
442.41849	41294.925
446.53742	42107.025
450.6534	43109.025
454.76644	43867.325
458.87653	44212.625
462.98368	44003.725
467.08789	43409.025
471.18916	42757.125
475.2875	41959.025
479.38291	41363.825
483.4754	40933.325
487.56496	40612.325
491.6516	40302.125
495.73531	40240.725
499.81612	40384.625
503.89401	40701.725
507.96899	41032.525
512.04106	41044.325
516.11023	40833.725
520.1765	40501.025
524.23987	40276.525
528.30034	39939.225
532.35792	39624.525
536.41261	39238.925
540.46441	38886.725
544.51333	38817.625
548.55936	39137.325
552.60252	39646.425
556.64279	40254.925
560.6802	40753.825
564.71473	41007.025
568.7464	41352.125
572.7752	42036.625
576.80114	42992.325
580.82422	44247.625
584.84444	45729.325
588.86181	47253.725
592.87633	48221.725
596.888	47899.825
600.89682	46919.025
604.9028	47443.525
608.90594	50323.825
612.90624	53004.225
616.90371	50159.525
620.89834	44077.825
624.89015	41334.925
628.87913	40913.225
632.86528	40899.825
636.84862	40640.825
640.82913	40062.725
644.80683	39312.225
648.78172	38850.425
652.75379	38893.225
656.72306	39326.725
660.68952	39877.025
664.65319	39688.725
668.61405	39221.225
672.57211	39214.525
676.52738	39424.725
680.47986	39373.025
684.42955	39101.025
688.37646	38978.025
692.32058	39281.425
696.26192	39888.625
700.20048	40486.925
704.13626	40670.425
708.06928	40468.025
711.99952	40159.525
715.927	40193.125
719.85171	40379.925
723.77365	40314.625
727.69284	39790.625
731.60928	39304.625
735.52295	39064.125
739.43388	39088.225
743.34206	39204.925
747.24749	39443.225
751.15017	39689.625
755.05012	40212.225
758.94733	41034.925
762.8418	42430.925
766.73354	44551.425
770.62254	46460.125
774.50882	46781.125
778.39237	45384.125
782.27321	43201.225
786.15132	41418.225
790.02671	40284.525
793.89938	39822.025
797.76935	39575.825
801.6366	39623.225
805.50115	39559.425
809.36299	39355.425
813.22213	39070.925
817.07857	38819.225
820.93231	38567.825
824.78336	38464.425
828.63172	38375.925
832.47738	38404.425
836.32036	38450.625
840.16066	38625.525
843.99827	38744.925
847.8332	38703.525
851.66546	38598.525
855.49504	38582.525
859.32195	38600.325
863.1462	38568.325
866.96777	38506.025
870.78668	38501.525
874.60293	38497.825
878.41652	38581.925
882.22745	38728.225
886.03573	38907.325
889.84136	38887.525
893.64433	38774.725
897.44466	38575.625
901.24235	38427.025
905.0374	38312.825
908.8298	38240.225
912.61957	38315.225
916.40671	38535.425
920.19121	38999.825
923.97308	39392.225
927.75233	39570.125
931.52895	39417.925
935.30295	39039.325
939.07433	38547.725
942.84309	38160.925
946.60924	38085.825
950.37278	38037.825
954.13371	38037.625
957.89203	37852.525
961.64774	37783.125
965.40086	37741.625
969.15137	37749.425
972.89929	37706.825
976.64461	37835.125
980.38733	37920.125
984.12747	38095.525
987.86502	38341.525
991.59999	38722.625
995.33237	39214.725
999.06217	40217.025
1002.78939	41307.625
1006.51404	42163.225
1010.23611	42768.725
1013.95561	43121.425
1017.67255	42938.025
1021.38692	42439.125
1025.09872	42006.525
1028.80796	42035.625
1032.51465	42923.825
1036.21877	43841.825
1039.92035	44139.725
1043.61937	43731.325
1047.31584	42916.725
1051.00976	41994.925
1054.70114	41395.325
1058.38998	41354.725
1062.07627	41534.325
1065.76003	41787.225
1069.44126	42204.825
1073.11995	42818.225
1076.79611	43437.625
1080.46974	43771.525
1084.14085	44002.425
1087.80943	44262.125
1091.47549	44394.825
1095.13903	44331.725
1098.80005	43798.925
1102.45857	43065.325
1106.11456	42559.825
1109.76805	42261.325
1113.41903	42204.125
1117.06751	42233.525
1120.71348	42387.225
1124.35696	42551.525
1127.99793	42842.225
1131.63641	43069.625
1135.2724	43023.325
1138.90589	42998.825
1142.5369	43011.525
1146.16542	43104.625
1149.79145	43259.425
1153.415	43475.325
1157.03607	43946.925
1160.65467	44952.225
1164.27079	46584.725
1167.88443	48727.825
1171.49561	50858.325
1175.10432	53365.725
1178.71056	56587.525
1182.31434	60036.925
1185.91565	61996.925
1189.51451	62234.325
1193.11091	61038.525
1196.70485	59008.625
1200.29634	57033.025
1203.88538	55645.325
1207.47197	54820.825
1211.05612	54238.725
1214.63782	53320.125
1218.21708	52345.625
1221.79391	51457.725
1225.36829	50831.725
1228.94024	50282.225
1232.50976	49658.925
1236.07685	49166.725
1239.6415	48847.225
1243.20374	48914.125
1246.76355	49331.625
1250.32093	50210.825
1253.8759	51229.725
1257.42845	52553.925
1260.97859	53953.225
1264.52631	55475.625
1268.07163	57078.625
1271.61453	58745.525
1275.15503	60329.325
1278.69312	61703.825
1282.22882	62754.925
1285.76211	63637.025
1289.29301	64695.825
1292.82151	66269.325
1296.34761	68675.825
1299.87133	71884.925
1303.39266	75787.225
1306.9116	79779.725
1310.42815	82735.025
1313.94233	83987.925
1317.45412	83480.325
1320.96354	82086.825
1324.47058	81001.825
1327.97525	80349.925
1331.47754	80065.825
1334.97747	79913.025
1338.47502	79677.825
1341.97022	78846.725
1345.46305	77293.325
1348.95352	76000.125
1352.44163	75592.725
1355.92738	76725.025
1359.41078	79444.625
1362.89183	81408.725
1366.37053	79979.625
1369.84688	74787.225
1373.32088	68127.825
1376.79254	63276.125
1380.26186	61339.525
1383.72883	61146.725
1387.19347	61014.725
1390.65578	60346.725
1394.11575	59879.125
1397.57339	60138.125
1401.0287	61038.225
1404.48168	62079.025
1407.93234	62789.425
1411.38068	62764.825
1414.82669	61820.025
1418.27039	60120.725
1421.71177	58184.925
1425.15083	56723.425
1428.58758	56201.625
1432.02203	56832.625
1435.45416	58277.025
1438.88399	59884.825
1442.31151	60890.525
1445.73673	61319.825
1449.15965	61352.225
1452.58027	60948.525
1455.9986	60580.825
1459.41463	60676.925
1462.82837	61516.225
1466.23982	62831.625
1469.64898	63941.825
1473.05586	64674.925
1476.46045	64899.625
1479.86276	64592.925
1483.26279	63977.325
1486.66054	63691.225
1490.05602	63893.025
1493.44922	64132.125
1496.84016	64255.625
1500.22882	64598.525
1503.61521	65258.325
1506.99934	66223.725
1510.38121	66996.825
1513.76081	66860.925
1517.13816	65599.525
1520.51324	63786.725
1523.88607	62358.725
1527.25665	61784.425
1530.62498	61759.225
1533.99105	61755.825
1537.35488	61477.525
1540.71647	60865.825
1544.07581	59887.225
1547.4329	58958.625
1550.78776	58128.425
1554.14038	57416.025
1557.49077	56947.125
1560.83892	56561.325
1564.18484	56258.725
1567.52853	56164.425
1570.86999	56386.725
1574.20922	57025.125
1577.54624	57736.025
1580.88103	58239.925
1584.2136	59005.525
1587.54395	61014.725
1590.87208	64225.225
1594.19801	68317.925
1597.52172	71945.725
1600.84321	72925.125
1604.16251	69994.425
1607.47959	64855.725
1610.79447	59539.725
1614.10715	54856.825
1617.41763	51174.025
1620.7259	48773.225
1624.03199	47728.125
1627.33587	47876.925
1630.63757	49203.125
1633.93707	51952.925
1637.23439	56236.025
1640.52951	62266.725
1643.82246	68722.825
1647.11321	72910.025
1650.40179	72331.825
1653.68819	66689.025
1656.97241	58717.225
1660.25446	51557.925
1663.53433	46543.125
1666.81203	43452.925
1670.08756	41486.125
1673.36092	40214.025
1676.63211	39404.425
1679.90115	38833.625
1683.16801	38371.025
1686.43272	38076.025
1689.69527	37806.225
1692.95567	37624.625
1696.2139	37461.925
1699.46999	37381.525
1702.72392	37249.125
1705.97571	37243.725
1709.22535	37197.925
1712.47284	37195.525
1715.71819	37172.425
1718.96139	37092.225
1722.20246	36970.725
1725.44139	36838.125
1728.67818	36758.425
1731.91284	36559.125
1735.14537	36367.725
1738.37576	36282.725
1741.60403	36127.725
1744.83017	36029.725
1748.05418	35964.525
1751.27607	35913.125
1754.49584	35813.825
1757.71349	35826.025
1760.92903	35821.025
1764.14244	35812.825
1767.35375	35836.225
1770.56294	35793.825
1773.77002	35742.425
1776.97499	35676.625
1780.17785	35621.225
1783.37861	35623.825
1786.57727	35565.025
1789.77382	35503.725
1792.96828	35491.125
1796.16064	35428.725
1799.3509	35404.825
1802.53907	35342.325
1805.72514	35263.325
1808.90913	35207.025
1812.09102	35174.425
1815.27083	35140.825
1818.44856	35081.025
1821.6242	35061.625
1824.79776	35082.425
1827.96924	35074.425
1831.13864	35024.225
1834.30597	35096.925
1837.47122	35120.925
1840.6344	35134.925
1843.7955	35159.725
1846.95454	35129.125
1850.11151	35119.125
1853.26642	35097.925
1856.41926	35059.625
1859.57004	35130.225
1862.71876	35050.825
1865.86542	35014.425
1869.01003	35003.025
1872.15258	34992.625
1875.29308	35023.325
1878.43152	34992.525
1881.56792	34972.025
1884.70227	34982.825
1887.83457	34919.325
1890.96482	34860.725
1894.09304	34851.025
1897.21921	34764.225
1900.34335	34715.625
1903.46544	34709.525
1906.58551	34663.725
1909.70353	34611.925
1912.81953	34542.125
1915.93349	34445.825
1919.04543	34448.825
1922.15534	34314.225
1925.26322	34295.725
1928.36908	34187.125
1931.47292	34166.425
1934.57473	34114.925
1937.67453	33980.625
1940.77232	33906.025
1943.86808	33841.325
1946.96184	33810.825
1950.05358	33667.825
1953.14331	33619.225
1956.23103	33564.025
1959.31675	33438.025
1962.40046	33351.225
1965.48217	33283.225
1968.56188	33244.125
1971.63959	33153.325
1974.7153	33023.625
1977.78901	32950.525
1980.86073	32862.025
1983.93046	32770.025
1986.99819	32698.225
1990.06394	32637.125
1993.1277	32523.925
1996.18947	32425.225
1999.24925	32353.325
2002.30706	32305.925
2005.36288	32216.825
2008.41672	32153.625
2011.46859	32089.025
2014.51848	31937.525
2017.56639	31917.225
2020.61233	31896.125
2023.6563	31793.825
2026.6983	31781.525
2029.73833	31736.725
2032.7764	31675.425
2035.8125	31619.025
2038.84664	31584.725
2041.87881	31546.125
2044.90903	31473.725
2047.93729	31482.325
2050.96359	31465.825
2053.98794	31381.825
2057.01034	31383.425
2060.03078	31337.525
2063.04927	31310.025
2066.06582	31319.425
2069.08042	31301.425
2072.09307	31288.425
2075.10378	31287.625
2078.11255	31231.825
2081.11938	31202.125
2084.12426	31188.025
2087.12722	31184.325
2090.12824	31191.425
2093.12732	31211.625
2096.12447	31250.925
2099.11969	31273.525
2102.11299	31296.025
2105.10435	31293.725
2108.09379	31266.725
2111.08131	31286.825
2114.0669	31414.025
2117.05057	31403.025
2120.03233	31426.425
2123.01216	31451.125
2125.99008	31468.725
2128.96609	31503.125
2131.94018	31541.225
2134.91236	31582.625
2137.88263	31593.525
2140.851	31626.225
2143.81746	31661.825
2146.78201	31671.025
2149.74466	31725.025
2152.7054	31701.125
2155.66425	31704.225
2158.6212	31702.025
2161.57625	31682.425
2164.52941	31680.325
2167.48067	31705.325
2170.43004	31719.225
2173.37752	31690.525
2176.32311	31701.425
2179.26681	31726.625
2182.20863	31699.525
2185.14856	31753.925
2188.08661	31723.125
2191.02278	31737.225
2193.95707	31739.625
2196.88948	31733.425
2199.82001	31773.825
2202.74867	31688.925
2205.67545	31713.825
2208.60037	31688.225
2211.52341	31649.225
2214.44458	31639.125
2217.36388	31561.425
2220.28132	31566.625
2223.1969	31480.825
2226.11061	31433.225
2229.02246	31424.525
2231.93245	31377.725
2234.84058	31310.425
2237.74686	31266.425
2240.65128	31310.225
2243.55385	31212.925
2246.45456	31214.125
2249.35343	31121.125
2252.25044	31085.725
2255.14561	31039.025
2258.03893	31017.325
2260.93041	30962.625
2263.82004	30898.825
2266.70783	30849.325
2269.59378	30791.225
2272.4779	30727.825
2275.36017	30719.525
2278.24061	30648.325
2281.11922	30583.225
2283.996	30514.525
2286.87094	30507.525
2289.74405	30499.625
2292.61534	30485.325
2295.4848	30543.725
2298.35243	30542.425
2301.21824	30510.525
2304.08223	30541.425
2306.94439	30538.625
2309.80474	30586.825
2312.66327	30582.425
2315.51999	30546.025
2318.37489	30535.125
2321.22797	30554.725
2324.07925	30531.725
2326.92871	30514.425
2329.77637	30434.825
2332.62222	30417.225
2335.46626	30433.025
2338.3085	30385.125
2341.14893	30393.125
2343.98756	30388.825
2346.8244	30371.725
2349.65943	30426.625
2352.49267	30378.725
2355.32411	30363.725
2358.15376	30335.825
2360.98161	30287.225
2363.80768	30245.325
2366.63195	30245.125
2369.45444	30148.825
2372.27514	30132.625
2375.09405	30124.725
2377.91118	30048.525
2380.72652	29973.425
2383.54009	29955.725
2386.35187	29919.125
2389.16188	29863.025
2391.97011	29864.225
2394.77657	29832.125
2397.58125	29786.025
2400.38416	29735.225
2403.18529	29686.825
2405.98466	29685.925
2408.78226	29625.525
2411.57809	29614.825
2414.37216	29586.325
2417.16446	29568.125
2419.955	29571.225
2422.74378	29505.525
2425.5308	29500.425
2428.31606	29500.825
2431.09956	29495.025
2433.88131	29446.025
2436.6613	29384.725
2439.43954	29423.725
2442.21603	29415.425
2444.99077	29420.025
2447.76377	29447.725
2450.53501	29399.625
2453.30451	29391.425
2456.07226	29355.825
2458.83827	29372.325
2461.60254	29353.125
2464.36507	29356.925
2467.12586	29370.825
2469.88492	29400.825
2472.64224	29365.225
2475.39782	29369.325
2478.15167	29379.825
2480.90379	29342.525
2483.65417	29373.825
2486.40283	29365.825
2489.14976	29400.125
2491.89497	29355.725
2494.63845	29431.325
2497.3802	29348.625
2500.12024	29333.225
2502.85855	29351.125
2505.59514	29381.325
2508.33002	29362.425
2511.06318	29311.725
2513.79462	29260.825
2516.52435	29302.125
2519.25237	29283.025
2521.97867	29279.525
2524.70327	29299.625
2527.42616	29248.525
2530.14734	29225.025
2532.86681	29275.425
2535.58458	29204.925
2538.30065	29156.425
2541.01501	29140.125
2543.72768	29113.625
2546.43864	29110.625
2549.14791	29062.525
2551.85548	29027.425
2554.56136	29026.925
2557.26554	29037.725
2559.96803	29004.025
2562.66883	28986.825
2565.36794	28945.925
2568.06536	28971.725
2570.7611	28965.225
2573.45514	28902.625
2576.14751	28905.825
2578.83819	28877.425
2581.52719	28884.125
2584.21451	28825.625
2586.90015	28860.525
2589.58411	28810.725
2592.2664	28787.125
2594.94701	28726.425
2597.62594	28716.025
2600.30321	28669.225
2602.9788	28663.025
2605.65273	28660.625
2608.32498	28669.025
2610.99557	28606.025
2613.66449	28649.025
2616.33175	28604.925
2618.99734	28634.825
2621.66128	28588.825
2624.32355	28579.625
2626.98416	28510.825
2629.64311	28560.225
2632.30041	28571.325
2634.95605	28503.325
2637.61004	28508.725
2640.26238	28434.225
2642.91306	28457.825
2645.56209	28485.625
2648.20948	28438.625
2650.85521	28465.925
2653.4993	28458.425
2656.14175	28456.425
2658.78255	28473.425
2661.42171	28477.225
2664.05923	28500.625
2666.6951	28518.325
2669.32934	28541.325
2671.96194	28540.725
2674.59291	28586.025
2677.22224	28526.525
2679.84993	28560.425
2682.476	28504.425
2685.10043	28519.525
2687.72324	28465.525
2690.34441	28448.625
2692.96396	28444.025
2695.58188	28491.625
2698.19818	28465.825
2700.81285	28462.025
2703.4259	28454.925
2706.03733	28510.725
2708.64714	28529.025
2711.25533	28536.225
2713.86191	28571.425
2716.46687	28612.525
2719.07021	28568.625
2721.67194	28592.725
2724.27206	28537.325
2726.87057	28620.025
2729.46747	28640.525
2732.06276	28641.725
2734.65644	28670.225
2737.24852	28695.425
2739.83899	28591.225
2742.42786	28666.925
2745.01513	28602.225
2747.60079	28591.925
2750.18486	28601.025
2752.76733	28636.125
2755.3482	28555.725
2757.92747	28572.925
2760.50515	28506.125
2763.08123	28537.725
2765.65573	28527.025
2768.22863	28523.725
2770.79994	28496.925
2773.36967	28514.825
2775.9378	28448.525
2778.50435	28451.125
2781.06932	28410.225
2783.6327	28395.225
2786.1945	28441.725
2788.75471	28364.025
2791.31335	28290.625
2793.87041	28229.225
2796.42589	28142.025
2798.97979	28169.325
2801.53212	28131.625
2804.08288	28082.425
2806.63206	28037.325
2809.17967	28015.625
2811.72571	27994.225
2814.27018	27968.425
2816.81308	27905.525
2819.35442	27861.425
2821.89419	27777.725
2824.43239	27802.025
2826.96904	27782.825
2829.50412	27778.525
2832.03763	27699.125
2834.56959	27688.225
2837.1	27613.325
2839.62884	27613.425
2842.15613	27568.525
2844.68186	27591.425
2847.20604	27595.225
2849.72867	27610.725
2852.24974	27580.925
2854.76927	27529.725
2857.28724	27526.325
2859.80367	27506.725
2862.31855	27469.425
2864.83189	27458.225
2867.34368	27382.225
2869.85393	27422.725
2872.36264	27392.025
2874.8698	27442.925
2877.37543	27452.125
2879.87952	27454.525
2882.38207	27475.625
2884.88308	27477.925
2887.38256	27492.725
2889.88051	27494.525
2892.37692	27506.325
2894.8718	27500.425
2897.36515	27540.125
2899.85698	27587.825
2902.34727	27630.225
2904.83604	27649.425
2907.32328	27672.725
2909.809	27646.425
2912.29319	27692.725
2914.77587	27627.525
2917.25702	27649.325
2919.73665	27635.025
2922.21476	27625.225
2924.69136	27572.425
2927.16644	27597.725
2929.64	27515.925
2932.11205	27502.825
2934.58258	27425.925
2937.05161	27495.225
2939.51912	27477.225
2941.98513	27453.025
2944.44962	27405.925
2946.91261	27339.225
2949.37409	27408.525
2951.83407	27410.325
2954.29254	27383.625
2956.74951	27403.525
2959.20498	27287.025
2961.65895	27277.925
2964.11142	27308.025
2966.56239	27203.525
2969.01186	27225.625
2971.45984	27195.425
2973.90632	27162.325
2976.35131	27128.825
2978.7948	27053.725
2981.23681	27020.225
2983.67732	26967.525
2986.11635	26890.425
2988.55388	26859.325
2990.98993	26822.625
2993.4245	26777.325
2995.85758	26761.525
2998.28917	26656.125
3000.71928	26620.825
3003.14791	26588.225
3005.57506	26593.325
3008.00073	26511.925
3010.42493	26534.725
3012.84764	26492.525
3015.26888	26468.225
3017.68865	26448.025
3020.10694	26403.125
3022.52376	26300.625
3024.9391	26331.525
3027.35298	26319.125
3029.76539	26293.225
3032.17632	26209.725
3034.5858	26172.125
3036.9938	26158.725
3039.40034	26146.925
3041.80542	26125.525
3044.20903	26059.325
3046.61118	26054.925
3049.01187	25964.625
3051.4111	25995.325
3053.80888	25954.525
3056.20519	25945.025
3058.60005	25864.025
3060.99345	25874.725
3063.3854	25813.825
3065.7759	25672.025
3068.16494	25638.525
3070.55254	25546.725
3072.93868	25545.825
3075.32338	25489.025
3077.70662	25464.725
3080.08842	25415.125
3082.46878	25383.925
3084.84769	25346.125
3087.22515	25339.525
3089.60118	25374.125
3091.97576	25289.025
3094.3489	25328.125
3096.72061	25238.625
3099.09087	25288.625
3101.4597	25280.925
3103.82709	25237.525
3106.19305	25208.325
3108.55757	25192.125
3110.92066	25100.925
3113.28232	25087.825
3115.64255	24998.425
3118.00134	24944.025
3120.35871	24913.625
3122.71466	24854.025
3125.06917	24803.625
3127.42226	24762.125
3129.77393	24805.125
3132.12417	24800.125
3134.47299	24802.025
3136.82039	24761.725
3139.16636	24809.325
3141.51092	24779.225
3143.85406	24764.525
3146.19579	24786.025
3148.53609	24806.425
3150.87499	24831.125
3153.21246	24775.625
3155.54853	24782.625
3157.88318	24712.625
3160.21642	24768.225
3162.54826	24721.425
3164.87868	24702.225
3167.2077	24665.525
3169.5353	24678.925
3171.86151	24661.425
3174.18631	24686.325
3176.5097	24653.825
3178.83169	24627.725
3181.15228	24608.125
3183.47147	24552.825
3185.78926	24564.025
3188.10565	24535.225
3190.42065	24550.525
3192.73424	24574.425
3195.04645	24522.325
3197.35725	24508.825
3199.66667	24534.325
3201.97469	24531.925
3204.28132	24492.825
3206.58656	24535.725
3208.8904	24573.425
3211.19287	24533.725
3213.49394	24509.625
3215.79363	24480.325
3218.09193	24484.925
3220.38884	24463.125
3222.68438	24468.225
3224.97853	24414.825
3227.2713	24370.525
3229.56269	24358.625
3231.8527	24382.025
3234.14133	24324.325
3236.42858	24230.625
3238.71446	24246.525
3240.99896	24192.125
3243.28209	24216.425
3245.56384	24206.325
3247.84423	24215.825
3250.12324	24199.425
3252.40088	24188.825
3254.67715	24134.625
3256.95205	24088.925
3259.22558	24074.025
3261.49775	24034.925
3263.76855	24008.425
3266.03799	23966.925
3268.30606	23925.725
3270.57277	23931.125
3272.83812	23916.025
3275.10211	23861.425
3277.36474	23844.425
3279.62601	23843.425
3281.88593	23761.525
3284.14448	23799.825
3286.40168	23802.425
3288.65753	23784.425
3290.91202	23725.825
3293.16516	23654.425
3295.41695	23654.525
3297.66738	23467.025
3299.91647	23403.025
3302.16421	23250.225
3304.4106	23151.725
3306.65564	23060.325
3308.89933	22938.625
3311.14169	22779.725
3313.38269	22616.025
3315.62236	22513.525
3317.86068	22321.425
3320.09766	22086.625
3322.3333	21920.625
3324.5676	21938.425
3326.80056	21567.725
3329.03219	21487.125
3331.26248	5.025
3333.49143	1.425
3335.71905	0.525
