Data from AgNPs_FTO_APTES_UA_5uM_R6G_10uM_NaF_0.1M_Addition_RamanShift__3__12-29-07-249.txt Node

Date: Fri Dec 17 12:29:07 GMT 2021
User: TCL
Spectrometer: QEP01345
Trigger mode: 4
Integration Time (sec): 7.000000E0
Scans to average: 10
Electric dark correction enabled: true
Nonlinearity correction enabled: false
Boxcar width: 0
XAxis mode: Raman Shifts
Number of Pixels in Spectrum: 1044
>>>>>Begin Spectral Data<<<<<
46.04893	0.125
50.45542	-0.575
54.85868	-2.375
59.25871	-1.275
63.6555	126.325
68.04907	130.525
72.43941	134.725
76.82654	142.025
81.21044	150.025
85.59113	153.225
89.96862	159.225
94.34289	165.725
98.71396	169.525
103.08183	178.225
107.4465	179.425
111.80798	184.525
116.16626	191.725
120.52136	197.225
124.87327	206.525
129.222	212.025
133.56755	228.725
137.90993	237.625
142.24913	262.525
146.58517	287.025
150.91804	335.225
155.24774	392.325
159.57429	490.025
163.89768	615.225
168.21792	810.025
172.53501	1100.125
176.84895	1526.025
181.15975	2134.825
185.46741	2968.325
189.77193	4098.925
194.07331	5477.725
198.37157	7047.325
202.6667	8714.725
206.9587	10374.925
211.24758	11972.525
215.53334	13595.025
219.81599	15281.225
224.09553	17183.225
228.37195	19288.425
232.64527	21555.525
236.91549	24005.025
241.18261	26476.925
245.44663	28826.825
249.70755	30922.725
253.96539	32730.025
258.22014	34262.725
262.4718	35485.025
266.72039	36317.825
270.96589	36788.525
275.20832	36782.025
279.44768	36471.125
283.68397	36106.325
287.91719	35637.725
292.14735	35344.225
296.37445	35200.725
300.59849	35157.925
304.81948	35218.825
309.03742	35271.325
313.25231	35065.825
317.46415	34707.225
321.67296	34189.825
325.87872	33753.525
330.08145	33481.825
334.28114	33520.925
338.47781	33755.825
342.67145	34174.125
346.86207	34668.525
351.04966	35283.725
355.23424	35924.425
359.4158	36575.225
363.59435	37129.025
367.76989	37501.025
371.94243	37756.425
376.11196	37971.325
380.27849	38195.925
384.44203	38387.125
388.60257	38764.625
392.76012	39121.125
396.91468	39613.725
401.06626	40153.125
405.21485	40578.425
409.36047	40568.125
413.50311	40323.825
417.64277	40299.325
421.77947	40410.325
425.9132	40617.225
430.04396	40799.825
434.17176	40991.925
438.2966	41129.325
442.41849	41582.425
446.53742	42462.025
450.6534	43457.125
454.76644	44192.625
458.87653	44535.625
462.98368	44292.025
467.08789	43784.525
471.18916	43074.325
475.2875	42295.925
479.38291	41716.925
483.4754	41200.525
487.56496	40978.925
491.6516	40765.525
495.73531	40596.525
499.81612	40750.325
503.89401	41165.525
507.96899	41392.825
512.04106	41339.325
516.11023	41170.425
520.1765	40932.525
524.23987	40660.325
528.30034	40378.725
532.35792	40065.325
536.41261	39692.925
540.46441	39258.825
544.51333	39249.125
548.55936	39476.125
552.60252	40017.025
556.64279	40697.125
560.6802	41119.525
564.71473	41375.325
568.7464	41701.425
572.7752	42379.225
576.80114	43343.225
580.82422	44570.525
584.84444	46016.625
588.86181	47522.025
592.87633	48464.925
596.888	48165.125
600.89682	47303.825
604.9028	47790.125
608.90594	50783.225
612.90624	53502.425
616.90371	50732.525
620.89834	44597.725
624.89015	41845.625
628.87913	41428.725
632.86528	41374.625
636.84862	41140.325
640.82913	40587.625
644.80683	39828.925
648.78172	39339.625
652.75379	39433.625
656.72306	39813.825
660.68952	40399.725
664.65319	40185.125
668.61405	39719.725
672.57211	39712.925
676.52738	39938.525
680.47986	39893.025
684.42955	39627.025
688.37646	39528.925
692.32058	39870.525
696.26192	40415.125
700.20048	41002.325
704.13626	41203.425
708.06928	40973.725
711.99952	40661.525
715.927	40740.625
719.85171	40921.125
723.77365	40831.225
727.69284	40342.925
731.60928	39847.425
735.52295	39605.625
739.43388	39622.325
743.34206	39732.725
747.24749	39954.325
751.15017	40225.725
755.05012	40693.725
758.94733	41527.225
762.8418	42910.825
766.73354	45027.425
770.62254	46863.325
774.50882	47369.925
778.39237	45968.225
782.27321	43843.625
786.15132	41998.725
790.02671	40888.425
793.89938	40331.125
797.76935	40183.525
801.6366	40144.525
805.50115	40163.625
809.36299	39972.025
813.22213	39600.725
817.07857	39347.625
820.93231	39141.225
824.78336	38991.825
828.63172	38986.825
832.47738	38981.625
836.32036	39074.325
840.16066	39247.425
843.99827	39371.325
847.8332	39318.825
851.66546	39227.125
855.49504	39196.325
859.32195	39219.025
863.1462	39155.125
866.96777	39083.425
870.78668	39041.725
874.60293	39159.325
878.41652	39194.725
882.22745	39326.525
886.03573	39543.625
889.84136	39552.025
893.64433	39431.025
897.44466	39217.725
901.24235	39058.625
905.0374	38939.025
908.8298	38894.825
912.61957	38964.825
916.40671	39180.525
920.19121	39606.925
923.97308	40007.525
927.75233	40220.325
931.52895	40058.425
935.30295	39700.925
939.07433	39193.425
942.84309	38920.025
946.60924	38783.125
950.37278	38759.225
954.13371	38708.225
957.89203	38506.725
961.64774	38423.825
965.40086	38449.625
969.15137	38374.725
972.89929	38401.825
976.64461	38472.025
980.38733	38565.825
984.12747	38765.025
987.86502	39079.225
991.59999	39420.525
995.33237	39992.425
999.06217	40971.625
1002.78939	42064.025
1006.51404	42918.025
1010.23611	43513.825
1013.95561	43823.525
1017.67255	43671.825
1021.38692	43173.825
1025.09872	42715.325
1028.80796	42830.925
1032.51465	43720.325
1036.21877	44620.025
1039.92035	44871.125
1043.61937	44521.525
1047.31584	43698.225
1051.00976	42719.525
1054.70114	42160.225
1058.38998	42036.325
1062.07627	42227.025
1065.76003	42535.425
1069.44126	42877.825
1073.11995	43520.125
1076.79611	44127.325
1080.46974	44487.425
1084.14085	44735.225
1087.80943	45003.925
1091.47549	45133.225
1095.13903	45071.225
1098.80005	44548.325
1102.45857	43863.625
1106.11456	43291.625
1109.76805	43049.725
1113.41903	42940.825
1117.06751	42992.125
1120.71348	43095.425
1124.35696	43275.525
1127.99793	43565.625
1131.63641	43756.825
1135.2724	43745.825
1138.90589	43634.425
1142.5369	43723.025
1146.16542	43806.125
1149.79145	43927.425
1153.415	44157.325
1157.03607	44536.525
1160.65467	45506.325
1164.27079	47160.525
1167.88443	49225.225
1171.49561	51337.325
1175.10432	53872.325
1178.71056	57094.425
1182.31434	60499.325
1185.91565	62497.825
1189.51451	62692.325
1193.11091	61468.425
1196.70485	59496.025
1200.29634	57546.425
1203.88538	56151.725
1207.47197	55395.125
1211.05612	54650.425
1214.63782	53788.925
1218.21708	52845.125
1221.79391	52023.925
1225.36829	51439.525
1228.94024	50834.425
1232.50976	50280.825
1236.07685	49785.825
1239.6415	49492.525
1243.20374	49557.425
1246.76355	49983.425
1250.32093	50818.425
1253.8759	51904.625
1257.42845	53123.925
1260.97859	54575.925
1264.52631	56035.325
1268.07163	57654.725
1271.61453	59358.325
1275.15503	60934.925
1278.69312	62364.225
1282.22882	63322.225
1285.76211	64161.825
1289.29301	65211.825
1292.82151	66728.425
1296.34761	68993.325
1299.87133	72156.325
1303.39266	76104.125
1306.9116	79928.025
1310.42815	83006.925
1313.94233	84356.725
1317.45412	83834.725
1320.96354	82302.725
1324.47058	81241.025
1327.97525	80500.425
1331.47754	80075.625
1334.97747	79855.625
1338.47502	79630.025
1341.97022	78782.625
1345.46305	77416.525
1348.95352	76156.625
1352.44163	75803.725
1355.92738	77014.725
1359.41078	79734.225
1362.89183	81845.925
1366.37053	80424.725
1369.84688	75178.325
1373.32088	68615.025
1376.79254	63676.325
1380.26186	61709.425
1383.72883	61529.825
1387.19347	61390.725
1390.65578	60666.025
1394.11575	60097.625
1397.57339	60375.325
1401.0287	61209.625
1404.48168	62205.125
1407.93234	62921.925
1411.38068	62914.625
1414.82669	62018.225
1418.27039	60484.625
1421.71177	58546.225
1425.15083	57110.625
1428.58758	56687.925
1432.02203	57271.225
1435.45416	58772.725
1438.88399	60253.725
1442.31151	61322.525
1445.73673	61640.725
1449.15965	61684.925
1452.58027	61307.425
1455.9986	60885.325
1459.41463	60949.125
1462.82837	61863.725
1466.23982	63082.625
1469.64898	64226.425
1473.05586	64989.825
1476.46045	65319.825
1479.86276	64947.325
1483.26279	64387.525
1486.66054	64158.925
1490.05602	64319.125
1493.44922	64622.825
1496.84016	64765.125
1500.22882	65038.125
1503.61521	65763.425
1506.99934	66755.825
1510.38121	67576.125
1513.76081	67451.125
1517.13816	66167.125
1520.51324	64243.725
1523.88607	62738.325
1527.25665	62104.725
1530.62498	62065.525
1533.99105	61985.525
1537.35488	61814.725
1540.71647	61126.825
1544.07581	60231.825
1547.4329	59286.925
1550.78776	58505.525
1554.14038	57852.825
1557.49077	57414.425
1560.83892	56986.225
1564.18484	56718.425
1567.52853	56744.025
1570.86999	56892.125
1574.20922	57515.225
1577.54624	58178.025
1580.88103	58683.525
1584.2136	59431.225
1587.54395	61300.125
1590.87208	64606.125
1594.19801	68602.325
1597.52172	72275.725
1600.84321	73283.925
1604.16251	70430.425
1607.47959	65300.125
1610.79447	60021.725
1614.10715	55337.425
1617.41763	51693.825
1620.7259	49317.525
1624.03199	48308.025
1627.33587	48484.325
1630.63757	49807.225
1633.93707	52436.425
1637.23439	56688.125
1640.52951	62626.225
1643.82246	69013.225
1647.11321	73220.125
1650.40179	72640.925
1653.68819	67070.725
1656.97241	59200.325
1660.25446	52083.925
1663.53433	47212.725
1666.81203	44128.325
1670.08756	42183.025
1673.36092	40929.425
1676.63211	40127.225
1679.90115	39527.625
1683.16801	39100.425
1686.43272	38799.225
1689.69527	38545.825
1692.95567	38358.825
1696.2139	38248.325
1699.46999	38130.925
1702.72392	38030.625
1705.97571	38059.125
1709.22535	37994.425
1712.47284	37950.825
1715.71819	37917.825
1718.96139	37872.825
1722.20246	37773.825
1725.44139	37683.425
1728.67818	37505.625
1731.91284	37366.925
1735.14537	37187.225
1738.37576	37039.125
1741.60403	36908.025
1744.83017	36812.525
1748.05418	36737.825
1751.27607	36679.425
1754.49584	36607.825
1757.71349	36626.425
1760.92903	36614.925
1764.14244	36630.925
1767.35375	36592.725
1770.56294	36587.425
1773.77002	36546.025
1776.97499	36506.325
1780.17785	36428.325
1783.37861	36401.025
1786.57727	36377.025
1789.77382	36324.925
1792.96828	36282.925
1796.16064	36272.725
1799.3509	36185.025
1802.53907	36169.225
1805.72514	36059.125
1808.90913	36008.825
1812.09102	35931.125
1815.27083	35916.425
1818.44856	35872.925
1821.6242	35858.325
1824.79776	35875.725
1827.96924	35864.125
1831.13864	35862.725
1834.30597	35901.525
1837.47122	35913.225
1840.6344	35943.025
1843.7955	35969.825
1846.95454	35893.625
1850.11151	35930.125
1853.26642	35892.325
1856.41926	35910.825
1859.57004	35942.525
1862.71876	35824.325
1865.86542	35828.625
1869.01003	35793.625
1872.15258	35775.125
1875.29308	35764.925
1878.43152	35800.825
1881.56792	35749.025
1884.70227	35752.325
1887.83457	35744.325
1890.96482	35695.325
1894.09304	35617.825
1897.21921	35632.125
1900.34335	35512.625
1903.46544	35490.225
1906.58551	35454.125
1909.70353	35387.125
1912.81953	35338.925
1915.93349	35275.225
1919.04543	35184.225
1922.15534	35148.725
1925.26322	35120.925
1928.36908	35104.025
1931.47292	34967.225
1934.57473	34858.525
1937.67453	34767.525
1940.77232	34714.225
1943.86808	34654.125
1946.96184	34578.425
1950.05358	34491.925
1953.14331	34420.725
1956.23103	34317.825
1959.31675	34207.125
1962.40046	34175.925
1965.48217	34101.925
1968.56188	34028.325
1971.63959	33915.425
1974.7153	33826.325
1977.78901	33764.625
1980.86073	33633.425
1983.93046	33548.025
1986.99819	33455.525
1990.06394	33413.525
1993.1277	33312.725
1996.18947	33241.525
1999.24925	33150.725
2002.30706	33033.625
2005.36288	32935.925
2008.41672	32903.325
2011.46859	32885.325
2014.51848	32760.325
2017.56639	32716.825
2020.61233	32663.625
2023.6563	32572.225
2026.6983	32503.125
2029.73833	32477.525
2032.7764	32447.625
2035.8125	32392.025
2038.84664	32286.125
2041.87881	32281.925
2044.90903	32257.725
2047.93729	32207.325
2050.96359	32202.125
2053.98794	32130.925
2057.01034	32151.925
2060.03078	32084.925
2063.04927	32111.025
2066.06582	32074.325
2069.08042	32083.125
2072.09307	32038.525
2075.10378	32029.925
2078.11255	31968.425
2081.11938	32021.925
2084.12426	31959.525
2087.12722	31943.625
2090.12824	31944.625
2093.12732	31917.725
2096.12447	31984.725
2099.11969	32006.025
2102.11299	32065.225
2105.10435	32010.625
2108.09379	32071.425
2111.08131	32112.625
2114.0669	32153.725
2117.05057	32207.425
2120.03233	32164.125
2123.01216	32227.825
2125.99008	32291.025
2128.96609	32326.125
2131.94018	32333.025
2134.91236	32365.425
2137.88263	32396.325
2140.851	32401.225
2143.81746	32463.225
2146.78201	32481.325
2149.74466	32482.325
2152.7054	32508.725
2155.66425	32515.825
2158.6212	32482.725
2161.57625	32486.425
2164.52941	32504.925
2167.48067	32470.925
2170.43004	32511.225
2173.37752	32486.325
2176.32311	32453.325
2179.26681	32494.425
2182.20863	32455.025
2185.14856	32579.925
2188.08661	32576.625
2191.02278	32514.525
2193.95707	32502.825
2196.88948	32585.925
2199.82001	32559.125
2202.74867	32553.225
2205.67545	32507.525
2208.60037	32485.525
2211.52341	32466.425
2214.44458	32417.225
2217.36388	32386.125
2220.28132	32315.025
2223.1969	32284.725
2226.11061	32259.025
2229.02246	32171.925
2231.93245	32183.225
2234.84058	32168.025
2237.74686	32096.225
2240.65128	32109.225
2243.55385	32023.525
2246.45456	31974.225
2249.35343	31943.925
2252.25044	31875.825
2255.14561	31885.125
2258.03893	31842.925
2260.93041	31756.625
2263.82004	31697.125
2266.70783	31633.525
2269.59378	31618.525
2272.4779	31517.625
2275.36017	31486.825
2278.24061	31483.825
2281.11922	31369.325
2283.996	31326.425
2286.87094	31331.125
2289.74405	31276.225
2292.61534	31317.525
2295.4848	31323.225
2298.35243	31328.825
2301.21824	31326.825
2304.08223	31397.525
2306.94439	31345.925
2309.80474	31363.025
2312.66327	31402.225
2315.51999	31373.725
2318.37489	31359.025
2321.22797	31308.225
2324.07925	31342.325
2326.92871	31281.625
2329.77637	31244.225
2332.62222	31226.425
2335.46626	31193.725
2338.3085	31185.025
2341.14893	31154.425
2343.98756	31204.725
2346.8244	31231.725
2349.65943	31207.725
2352.49267	31163.825
2355.32411	31140.025
2358.15376	31130.625
2360.98161	31062.725
2363.80768	31009.225
2366.63195	31030.325
2369.45444	30957.725
2372.27514	30908.425
2375.09405	30897.725
2377.91118	30840.625
2380.72652	30779.325
2383.54009	30702.825
2386.35187	30677.125
2389.16188	30676.025
2391.97011	30603.925
2394.77657	30583.925
2397.58125	30592.625
2400.38416	30537.125
2403.18529	30500.325
2405.98466	30444.025
2408.78226	30408.225
2411.57809	30381.025
2414.37216	30314.925
2417.16446	30347.125
2419.955	30295.425
2422.74378	30309.225
2425.5308	30246.925
2428.31606	30287.525
2431.09956	30214.825
2433.88131	30203.225
2436.6613	30217.325
2439.43954	30206.325
2442.21603	30203.225
2444.99077	30142.225
2447.76377	30195.725
2450.53501	30147.625
2453.30451	30197.325
2456.07226	30143.325
2458.83827	30158.225
2461.60254	30131.025
2464.36507	30150.625
2467.12586	30142.325
2469.88492	30113.525
2472.64224	30100.725
2475.39782	30181.925
2478.15167	30157.725
2480.90379	30124.625
2483.65417	30147.025
2486.40283	30171.425
2489.14976	30179.225
2491.89497	30143.425
2494.63845	30165.725
2497.3802	30115.925
2500.12024	30110.425
2502.85855	30138.425
2505.59514	30076.525
2508.33002	30097.225
2511.06318	30081.725
2513.79462	30013.725
2516.52435	30079.525
2519.25237	30081.525
2521.97867	30055.625
2524.70327	30057.525
2527.42616	30023.325
2530.14734	30018.725
2532.86681	29980.725
2535.58458	29975.025
2538.30065	29947.125
2541.01501	29916.525
2543.72768	29829.525
2546.43864	29867.425
2549.14791	29869.125
2551.85548	29803.225
2554.56136	29770.925
2557.26554	29773.025
2559.96803	29783.625
2562.66883	29755.625
2565.36794	29741.425
2568.06536	29756.325
2570.7611	29707.925
2573.45514	29677.725
2576.14751	29660.225
2578.83819	29650.825
2581.52719	29608.225
2584.21451	29560.725
2586.90015	29579.425
2589.58411	29536.525
2592.2664	29536.425
2594.94701	29460.825
2597.62594	29484.425
2600.30321	29389.825
2602.9788	29365.425
2605.65273	29400.725
2608.32498	29418.325
2610.99557	29437.425
2613.66449	29372.425
2616.33175	29330.825
2618.99734	29334.325
2621.66128	29365.925
2624.32355	29334.825
2626.98416	29288.425
2629.64311	29323.025
2632.30041	29289.525
2634.95605	29237.425
2637.61004	29211.925
2640.26238	29196.325
2642.91306	29163.925
2645.56209	29164.825
2648.20948	29189.425
2650.85521	29162.725
2653.4993	29213.225
2656.14175	29138.725
2658.78255	29188.725
2661.42171	29177.325
2664.05923	29228.125
2666.6951	29247.725
2669.32934	29308.125
2671.96194	29279.625
2674.59291	29306.525
2677.22224	29279.425
2679.84993	29241.425
2682.476	29193.525
2685.10043	29204.925
2687.72324	29195.925
2690.34441	29214.725
2692.96396	29185.925
2695.58188	29214.025
2698.19818	29189.825
2700.81285	29207.825
2703.4259	29188.425
2706.03733	29226.025
2708.64714	29239.225
2711.25533	29297.925
2713.86191	29256.825
2716.46687	29329.725
2719.07021	29285.825
2721.67194	29313.125
2724.27206	29284.425
2726.87057	29333.525
2729.46747	29330.825
2732.06276	29369.825
2734.65644	29356.025
2737.24852	29385.125
2739.83899	29313.925
2742.42786	29357.525
2745.01513	29301.425
2747.60079	29336.925
2750.18486	29332.225
2752.76733	29299.625
2755.3482	29306.225
2757.92747	29324.725
2760.50515	29259.725
2763.08123	29209.925
2765.65573	29210.525
2768.22863	29204.725
2770.79994	29198.925
2773.36967	29238.525
2775.9378	29177.425
2778.50435	29186.025
2781.06932	29114.125
2783.6327	29080.625
2786.1945	29108.725
2788.75471	29044.725
2791.31335	28996.925
2793.87041	28971.325
2796.42589	28854.525
2798.97979	28832.825
2801.53212	28806.025
2804.08288	28785.025
2806.63206	28739.225
2809.17967	28743.325
2811.72571	28679.525
2814.27018	28684.225
2816.81308	28620.525
2819.35442	28563.425
2821.89419	28481.525
2824.43239	28452.525
2826.96904	28461.325
2829.50412	28462.625
2832.03763	28397.725
2834.56959	28347.725
2837.1	28307.825
2839.62884	28320.725
2842.15613	28318.325
2844.68186	28318.125
2847.20604	28330.025
2849.72867	28296.125
2852.24974	28240.625
2854.76927	28256.125
2857.28724	28190.325
2859.80367	28150.825
2862.31855	28157.925
2864.83189	28164.025
2867.34368	28099.025
2869.85393	28108.625
2872.36264	28115.025
2874.8698	28117.525
2877.37543	28130.425
2879.87952	28176.925
2882.38207	28169.625
2884.88308	28161.025
2887.38256	28210.425
2889.88051	28205.025
2892.37692	28189.325
2894.8718	28163.725
2897.36515	28228.625
2899.85698	28248.925
2902.34727	28338.925
2904.83604	28316.225
2907.32328	28391.825
2909.809	28364.925
2912.29319	28340.025
2914.77587	28326.425
2917.25702	28337.225
2919.73665	28318.725
2922.21476	28315.125
2924.69136	28280.525
2927.16644	28276.025
2929.64	28242.325
2932.11205	28202.825
2934.58258	28098.125
2937.05161	28184.225
2939.51912	28170.125
2941.98513	28163.225
2944.44962	28106.925
2946.91261	28019.725
2949.37409	28136.125
2951.83407	28088.525
2954.29254	28111.325
2956.74951	28050.625
2959.20498	28054.125
2961.65895	27946.225
2964.11142	27993.925
2966.56239	27920.225
2969.01186	27877.825
2971.45984	27892.825
2973.90632	27853.825
2976.35131	27806.825
2978.7948	27760.925
2981.23681	27690.825
2983.67732	27682.125
2986.11635	27597.225
2988.55388	27578.325
2990.98993	27516.925
2993.4245	27440.025
2995.85758	27432.025
2998.28917	27349.825
3000.71928	27320.425
3003.14791	27250.525
3005.57506	27256.125
3008.00073	27213.825
3010.42493	27192.225
3012.84764	27161.225
3015.26888	27160.625
3017.68865	27104.225
3020.10694	27079.225
3022.52376	27022.225
3024.9391	26968.525
3027.35298	26981.525
3029.76539	26922.225
3032.17632	26857.925
3034.5858	26865.225
3036.9938	26862.025
3039.40034	26806.025
3041.80542	26827.025
3044.20903	26718.825
3046.61118	26744.525
3049.01187	26698.225
3051.4111	26648.425
3053.80888	26615.725
3056.20519	26642.525
3058.60005	26550.225
3060.99345	26553.525
3063.3854	26514.725
3065.7759	26394.625
3068.16494	26304.725
3070.55254	26225.825
3072.93868	26206.825
3075.32338	26152.425
3077.70662	26158.925
3080.08842	26064.725
3082.46878	26053.325
3084.84769	26007.025
3087.22515	26040.225
3089.60118	25989.325
3091.97576	25979.725
3094.3489	25964.025
3096.72061	25964.725
3099.09087	25938.925
3101.4597	25908.825
3103.82709	25901.425
3106.19305	25868.325
3108.55757	25884.625
3110.92066	25768.325
3113.28232	25752.725
3115.64255	25710.925
3118.00134	25627.325
3120.35871	25600.825
3122.71466	25544.225
3125.06917	25478.025
3127.42226	25430.225
3129.77393	25485.225
3132.12417	25454.125
3134.47299	25462.225
3136.82039	25449.525
3139.16636	25467.325
3141.51092	25447.525
3143.85406	25467.525
3146.19579	25461.325
3148.53609	25446.125
3150.87499	25486.225
3153.21246	25460.225
3155.54853	25456.125
3157.88318	25413.425
3160.21642	25491.525
3162.54826	25423.625
3164.87868	25363.425
3167.2077	25370.525
3169.5353	25342.525
3171.86151	25301.525
3174.18631	25313.825
3176.5097	25301.625
3178.83169	25248.025
3181.15228	25294.525
3183.47147	25241.625
3185.78926	25220.625
3188.10565	25146.725
3190.42065	25183.425
3192.73424	25194.025
3195.04645	25182.125
3197.35725	25196.125
3199.66667	25130.225
3201.97469	25181.625
3204.28132	25154.425
3206.58656	25197.025
3208.8904	25226.325
3211.19287	25219.325
3213.49394	25210.525
3215.79363	25182.425
3218.09193	25165.625
3220.38884	25108.125
3222.68438	25117.025
3224.97853	25089.325
3227.2713	25106.325
3229.56269	25074.525
3231.8527	25033.125
3234.14133	24978.425
3236.42858	24928.525
3238.71446	24903.325
3240.99896	24863.525
3243.28209	24864.325
3245.56384	24889.125
3247.84423	24915.925
3250.12324	24872.025
3252.40088	24840.625
3254.67715	24805.025
3256.95205	24749.725
3259.22558	24712.725
3261.49775	24731.825
3263.76855	24660.225
3266.03799	24575.425
3268.30606	24619.325
3270.57277	24614.725
3272.83812	24523.825
3275.10211	24523.625
3277.36474	24525.025
3279.62601	24501.825
3281.88593	24487.325
3284.14448	24506.025
3286.40168	24453.725
3288.65753	24451.025
3290.91202	24388.625
3293.16516	24298.025
3295.41695	24286.025
3297.66738	24171.325
3299.91647	24015.025
3302.16421	23910.825
3304.4106	23827.025
3306.65564	23718.725
3308.89933	23575.725
3311.14169	23445.125
3313.38269	23199.425
3315.62236	23180.325
3317.86068	22934.425
3320.09766	22719.025
3322.3333	22547.925
3324.5676	22520.125
3326.80056	22143.725
3329.03219	22067.925
3331.26248	5.625
3333.49143	0.725
3335.71905	-0.775
