Data from AgNPs_FTO_APTES_UA_0uM_R6G_10uM_NaF_0.1M_Addition_RamanShift__7__10-03-17-082.txt Node

Date: Fri Dec 17 10:03:17 GMT 2021
User: TCL
Spectrometer: QEP01345
Trigger mode: 4
Integration Time (sec): 7.000000E0
Scans to average: 10
Electric dark correction enabled: true
Nonlinearity correction enabled: false
Boxcar width: 0
XAxis mode: Raman Shifts
Number of Pixels in Spectrum: 1044
>>>>>Begin Spectral Data<<<<<
46.04893	0.2875
50.45542	-0.2125
54.85868	-1.5125
59.25871	1.1875
63.6555	29.5875
68.04907	30.1875
72.43941	32.5875
76.82654	36.9875
81.21044	37.5875
85.59113	39.4875
89.96862	42.0875
94.34289	43.0875
98.71396	45.8875
103.08183	44.0875
107.4465	46.7875
111.80798	45.1875
116.16626	49.8875
120.52136	43.5875
124.87327	49.9875
129.222	52.8875
133.56755	48.5875
137.90993	54.3875
142.24913	57.9875
146.58517	60.7875
150.91804	69.9875
155.24774	73.5875
159.57429	95.7875
163.89768	113.9875
168.21792	141.4875
172.53501	181.8875
176.84895	242.1875
181.15975	323.8875
185.46741	459.1875
189.77193	639.1875
194.07331	861.2875
198.37157	1130.5875
202.6667	1434.2875
206.9587	1742.4875
211.24758	2041.9875
215.53334	2359.7875
219.81599	2689.9875
224.09553	3064.7875
228.37195	3460.5875
232.64527	3919.7875
236.91549	4396.3875
241.18261	4910.6875
245.44663	5399.2875
249.70755	5846.9875
253.96539	6222.6875
258.22014	6460.9875
262.4718	6564.0875
266.72039	6514.6875
270.96589	6322.7875
275.20832	6043.0875
279.44768	5706.9875
283.68397	5347.6875
287.91719	5003.3875
292.14735	4699.6875
296.37445	4434.7875
300.59849	4196.1875
304.81948	4026.6875
309.03742	3873.5875
313.25231	3762.8875
317.46415	3668.8875
321.67296	3584.5875
325.87872	3541.9875
330.08145	3491.2875
334.28114	3462.1875
338.47781	3449.3875
342.67145	3424.1875
346.86207	3427.3875
351.04966	3392.5875
355.23424	3378.2875
359.4158	3346.9875
363.59435	3341.6875
367.76989	3316.3875
371.94243	3259.1875
376.11196	3220.4875
380.27849	3150.9875
384.44203	3099.4875
388.60257	3090.1875
392.76012	3084.3875
396.91468	3075.6875
401.06626	3089.0875
405.21485	3098.1875
409.36047	3093.2875
413.50311	3101.4875
417.64277	3099.0875
421.77947	3096.8875
425.9132	3119.9875
430.04396	3137.3875
434.17176	3143.8875
438.2966	3181.8875
442.41849	3203.2875
446.53742	3198.7875
450.6534	3204.7875
454.76644	3193.8875
458.87653	3162.2875
462.98368	3150.4875
467.08789	3122.3875
471.18916	3090.9875
475.2875	3073.7875
479.38291	3056.6875
483.4754	3031.9875
487.56496	3008.3875
491.6516	2985.5875
495.73531	2966.1875
499.81612	2947.2875
503.89401	2944.4875
507.96899	2951.9875
512.04106	2937.4875
516.11023	2985.2875
520.1765	3053.8875
524.23987	3149.8875
528.30034	3279.0875
532.35792	3415.3875
536.41261	3535.6875
540.46441	3636.1875
544.51333	3739.9875
548.55936	3829.7875
552.60252	3939.1875
556.64279	4052.0875
560.6802	4136.9875
564.71473	4213.8875
568.7464	4228.9875
572.7752	4176.9875
576.80114	4038.8875
580.82422	3855.3875
584.84444	3645.9875
588.86181	3489.1875
592.87633	3398.9875
596.888	3372.1875
600.89682	3425.9875
604.9028	3575.6875
608.90594	3848.2875
612.90624	4206.7875
616.90371	4546.3875
620.89834	4713.2875
624.89015	4740.0875
628.87913	4523.3875
632.86528	4073.6875
636.84862	3624.6875
640.82913	3300.7875
644.80683	3123.8875
648.78172	3046.8875
652.75379	2992.3875
656.72306	3000.4875
660.68952	3008.1875
664.65319	3023.0875
668.61405	3047.2875
672.57211	3104.0875
676.52738	3158.8875
680.47986	3217.8875
684.42955	3256.8875
688.37646	3280.7875
692.32058	3274.3875
696.26192	3268.6875
700.20048	3268.3875
704.13626	3263.9875
708.06928	3250.6875
711.99952	3208.2875
715.927	3201.2875
719.85171	3172.3875
723.77365	3146.4875
727.69284	3140.9875
731.60928	3140.4875
735.52295	3127.3875
739.43388	3127.9875
743.34206	3113.5875
747.24749	3111.5875
751.15017	3121.6875
755.05012	3128.2875
758.94733	3156.8875
762.8418	3187.8875
766.73354	3240.2875
770.62254	3288.2875
774.50882	3336.2875
778.39237	3325.1875
782.27321	3288.4875
786.15132	3264.0875
790.02671	3258.0875
793.89938	3242.1875
797.76935	3258.2875
801.6366	3266.4875
805.50115	3283.3875
809.36299	3303.8875
813.22213	3313.5875
817.07857	3315.6875
820.93231	3331.2875
824.78336	3335.2875
828.63172	3357.9875
832.47738	3360.6875
836.32036	3385.0875
840.16066	3397.9875
843.99827	3420.7875
847.8332	3447.5875
851.66546	3464.7875
855.49504	3484.8875
859.32195	3533.2875
863.1462	3582.9875
866.96777	3643.5875
870.78668	3703.9875
874.60293	3788.0875
878.41652	3870.4875
882.22745	3950.7875
886.03573	4090.4875
889.84136	4260.3875
893.64433	4455.5875
897.44466	4713.6875
901.24235	5039.5875
905.0374	5413.2875
908.8298	5796.6875
912.61957	6130.6875
916.40671	6347.7875
920.19121	6436.4875
923.97308	6455.4875
927.75233	6372.2875
931.52895	6264.8875
935.30295	6083.6875
939.07433	5883.6875
942.84309	5684.9875
946.60924	5468.5875
950.37278	5300.8875
954.13371	5149.1875
957.89203	5034.8875
961.64774	4942.3875
965.40086	4848.3875
969.15137	4765.2875
972.89929	4713.9875
976.64461	4669.9875
980.38733	4611.9875
984.12747	4567.0875
987.86502	4543.4875
991.59999	4492.8875
995.33237	4487.0875
999.06217	4480.4875
1002.78939	4496.7875
1006.51404	4525.3875
1010.23611	4555.1875
1013.95561	4581.8875
1017.67255	4640.0875
1021.38692	4679.8875
1025.09872	4733.4875
1028.80796	4762.8875
1032.51465	4832.8875
1036.21877	4913.1875
1039.92035	4988.4875
1043.61937	5057.0875
1047.31584	5119.4875
1051.00976	5157.5875
1054.70114	5136.8875
1058.38998	5029.0875
1062.07627	4899.9875
1065.76003	4709.4875
1069.44126	4547.1875
1073.11995	4379.9875
1076.79611	4229.7875
1080.46974	4094.4875
1084.14085	3988.7875
1087.80943	3892.1875
1091.47549	3805.9875
1095.13903	3724.1875
1098.80005	3664.8875
1102.45857	3598.0875
1106.11456	3548.3875
1109.76805	3514.5875
1113.41903	3488.1875
1117.06751	3473.1875
1120.71348	3473.5875
1124.35696	3460.5875
1127.99793	3467.3875
1131.63641	3463.6875
1135.2724	3441.2875
1138.90589	3423.1875
1142.5369	3387.8875
1146.16542	3378.1875
1149.79145	3345.4875
1153.415	3337.6875
1157.03607	3337.3875
1160.65467	3329.9875
1164.27079	3332.5875
1167.88443	3368.8875
1171.49561	3397.4875
1175.10432	3448.5875
1178.71056	3498.3875
1182.31434	3564.3875
1185.91565	3612.8875
1189.51451	3621.1875
1193.11091	3610.1875
1196.70485	3576.4875
1200.29634	3523.6875
1203.88538	3489.6875
1207.47197	3453.3875
1211.05612	3403.9875
1214.63782	3401.0875
1218.21708	3383.1875
1221.79391	3385.9875
1225.36829	3398.5875
1228.94024	3413.2875
1232.50976	3425.2875
1236.07685	3441.1875
1239.6415	3439.8875
1243.20374	3453.5875
1246.76355	3468.3875
1250.32093	3471.2875
1253.8759	3492.8875
1257.42845	3498.8875
1260.97859	3526.1875
1264.52631	3561.4875
1268.07163	3584.1875
1271.61453	3615.0875
1275.15503	3656.9875
1278.69312	3650.0875
1282.22882	3689.0875
1285.76211	3726.5875
1289.29301	3740.8875
1292.82151	3807.6875
1296.34761	3860.7875
1299.87133	3908.4875
1303.39266	3932.4875
1306.9116	3989.0875
1310.42815	4055.9875
1313.94233	4064.5875
1317.45412	4028.4875
1320.96354	4002.0875
1324.47058	3954.8875
1327.97525	3902.1875
1331.47754	3889.1875
1334.97747	3895.3875
1338.47502	3891.2875
1341.97022	3934.9875
1345.46305	3953.8875
1348.95352	4019.3875
1352.44163	4089.0875
1355.92738	4166.4875
1359.41078	4250.3875
1362.89183	4331.9875
1366.37053	4346.7875
1369.84688	4265.1875
1373.32088	4167.8875
1376.79254	4102.0875
1380.26186	4058.2875
1383.72883	4022.9875
1387.19347	4027.1875
1390.65578	4009.1875
1394.11575	4014.9875
1397.57339	3987.5875
1401.0287	3975.1875
1404.48168	3963.8875
1407.93234	3964.5875
1411.38068	3944.1875
1414.82669	3927.5875
1418.27039	3922.6875
1421.71177	3895.5875
1425.15083	3858.5875
1428.58758	3814.4875
1432.02203	3787.9875
1435.45416	3774.5875
1438.88399	3749.7875
1442.31151	3733.0875
1445.73673	3712.5875
1449.15965	3680.5875
1452.58027	3674.3875
1455.9986	3652.9875
1459.41463	3653.4875
1462.82837	3649.6875
1466.23982	3654.4875
1469.64898	3662.6875
1473.05586	3664.9875
1476.46045	3672.7875
1479.86276	3685.8875
1483.26279	3697.0875
1486.66054	3711.9875
1490.05602	3716.8875
1493.44922	3740.8875
1496.84016	3757.4875
1500.22882	3797.0875
1503.61521	3850.1875
1506.99934	3914.0875
1510.38121	3962.8875
1513.76081	3983.2875
1517.13816	3929.4875
1520.51324	3869.4875
1523.88607	3821.3875
1527.25665	3752.2875
1530.62498	3717.1875
1533.99105	3702.3875
1537.35488	3685.7875
1540.71647	3680.4875
1544.07581	3646.9875
1547.4329	3641.5875
1550.78776	3623.0875
1554.14038	3616.6875
1557.49077	3592.8875
1560.83892	3590.7875
1564.18484	3594.8875
1567.52853	3565.8875
1570.86999	3545.7875
1574.20922	3545.1875
1577.54624	3533.0875
1580.88103	3503.9875
1584.2136	3466.5875
1587.54395	3430.8875
1590.87208	3415.2875
1594.19801	3422.4875
1597.52172	3419.8875
1600.84321	3419.8875
1604.16251	3404.9875
1607.47959	3382.2875
1610.79447	3360.8875
1614.10715	3335.0875
1617.41763	3325.4875
1620.7259	3299.1875
1624.03199	3284.2875
1627.33587	3274.6875
1630.63757	3284.5875
1633.93707	3273.3875
1637.23439	3284.9875
1640.52951	3277.1875
1643.82246	3305.0875
1647.11321	3326.2875
1650.40179	3349.4875
1653.68819	3307.1875
1656.97241	3241.8875
1660.25446	3164.9875
1663.53433	3100.7875
1666.81203	3060.9875
1670.08756	3024.2875
1673.36092	2988.0875
1676.63211	2975.2875
1679.90115	2963.6875
1683.16801	2944.1875
1686.43272	2928.7875
1689.69527	2899.1875
1692.95567	2887.1875
1696.2139	2870.3875
1699.46999	2866.9875
1702.72392	2853.4875
1705.97571	2863.2875
1709.22535	2859.1875
1712.47284	2868.2875
1715.71819	2882.4875
1718.96139	2852.1875
1722.20246	2868.7875
1725.44139	2866.1875
1728.67818	2862.9875
1731.91284	2838.2875
1735.14537	2855.5875
1738.37576	2844.7875
1741.60403	2834.3875
1744.83017	2826.4875
1748.05418	2815.2875
1751.27607	2828.2875
1754.49584	2814.2875
1757.71349	2815.2875
1760.92903	2795.5875
1764.14244	2797.1875
1767.35375	2817.4875
1770.56294	2802.7875
1773.77002	2801.1875
1776.97499	2798.8875
1780.17785	2801.8875
1783.37861	2812.0875
1786.57727	2811.9875
1789.77382	2810.3875
1792.96828	2800.6875
1796.16064	2799.6875
1799.3509	2800.0875
1802.53907	2793.8875
1805.72514	2793.1875
1808.90913	2786.9875
1812.09102	2773.4875
1815.27083	2764.3875
1818.44856	2774.1875
1821.6242	2783.1875
1824.79776	2764.8875
1827.96924	2763.5875
1831.13864	2765.8875
1834.30597	2768.2875
1837.47122	2760.4875
1840.6344	2773.1875
1843.7955	2766.2875
1846.95454	2761.7875
1850.11151	2757.8875
1853.26642	2759.0875
1856.41926	2768.3875
1859.57004	2757.4875
1862.71876	2762.2875
1865.86542	2750.4875
1869.01003	2755.5875
1872.15258	2743.7875
1875.29308	2747.4875
1878.43152	2740.9875
1881.56792	2742.3875
1884.70227	2740.1875
1887.83457	2748.8875
1890.96482	2749.4875
1894.09304	2720.8875
1897.21921	2716.9875
1900.34335	2733.6875
1903.46544	2727.6875
1906.58551	2727.5875
1909.70353	2729.7875
1912.81953	2714.3875
1915.93349	2720.3875
1919.04543	2726.8875
1922.15534	2712.9875
1925.26322	2703.8875
1928.36908	2702.6875
1931.47292	2709.8875
1934.57473	2707.8875
1937.67453	2703.5875
1940.77232	2696.5875
1943.86808	2698.8875
1946.96184	2677.2875
1950.05358	2675.6875
1953.14331	2664.7875
1956.23103	2662.0875
1959.31675	2646.6875
1962.40046	2645.5875
1965.48217	2648.4875
1968.56188	2627.5875
1971.63959	2615.9875
1974.7153	2607.1875
1977.78901	2608.6875
1980.86073	2593.8875
1983.93046	2596.5875
1986.99819	2584.6875
1990.06394	2573.1875
1993.1277	2578.8875
1996.18947	2576.1875
1999.24925	2572.9875
2002.30706	2554.0875
2005.36288	2549.9875
2008.41672	2544.1875
2011.46859	2534.9875
2014.51848	2538.2875
2017.56639	2538.8875
2020.61233	2537.0875
2023.6563	2538.3875
2026.6983	2543.9875
2029.73833	2547.9875
2032.7764	2535.4875
2035.8125	2542.2875
2038.84664	2534.6875
2041.87881	2540.8875
2044.90903	2555.1875
2047.93729	2561.1875
2050.96359	2563.7875
2053.98794	2562.2875
2057.01034	2562.9875
2060.03078	2565.0875
2063.04927	2578.0875
2066.06582	2587.6875
2069.08042	2597.4875
2072.09307	2584.6875
2075.10378	2585.8875
2078.11255	2582.6875
2081.11938	2583.2875
2084.12426	2590.3875
2087.12722	2586.6875
2090.12824	2566.6875
2093.12732	2563.9875
2096.12447	2560.8875
2099.11969	2553.5875
2102.11299	2540.8875
2105.10435	2539.5875
2108.09379	2535.8875
2111.08131	2515.7875
2114.0669	2519.7875
2117.05057	2502.1875
2120.03233	2494.6875
2123.01216	2504.3875
2125.99008	2492.1875
2128.96609	2486.5875
2131.94018	2501.9875
2134.91236	2490.6875
2137.88263	2486.7875
2140.851	2472.8875
2143.81746	2474.2875
2146.78201	2476.9875
2149.74466	2478.1875
2152.7054	2467.3875
2155.66425	2472.5875
2158.6212	2483.4875
2161.57625	2465.1875
2164.52941	2465.9875
2167.48067	2469.1875
2170.43004	2468.9875
2173.37752	2463.1875
2176.32311	2463.9875
2179.26681	2461.2875
2182.20863	2459.3875
2185.14856	2458.8875
2188.08661	2457.5875
2191.02278	2473.4875
2193.95707	2464.2875
2196.88948	2467.0875
2199.82001	2464.9875
2202.74867	2454.3875
2205.67545	2459.1875
2208.60037	2452.6875
2211.52341	2447.3875
2214.44458	2439.8875
2217.36388	2434.1875
2220.28132	2432.7875
2223.1969	2420.9875
2226.11061	2429.9875
2229.02246	2430.3875
2231.93245	2406.2875
2234.84058	2416.0875
2237.74686	2416.8875
2240.65128	2426.1875
2243.55385	2414.5875
2246.45456	2407.4875
2249.35343	2412.8875
2252.25044	2412.0875
2255.14561	2414.3875
2258.03893	2393.9875
2260.93041	2391.7875
2263.82004	2383.0875
2266.70783	2390.2875
2269.59378	2383.2875
2272.4779	2374.2875
2275.36017	2368.6875
2278.24061	2371.9875
2281.11922	2348.9875
2283.996	2350.4875
2286.87094	2341.3875
2289.74405	2339.2875
2292.61534	2337.5875
2295.4848	2328.2875
2298.35243	2335.6875
2301.21824	2328.4875
2304.08223	2319.2875
2306.94439	2330.6875
2309.80474	2322.5875
2312.66327	2319.6875
2315.51999	2311.7875
2318.37489	2313.4875
2321.22797	2308.7875
2324.07925	2324.2875
2326.92871	2307.7875
2329.77637	2304.1875
2332.62222	2304.1875
2335.46626	2298.1875
2338.3085	2278.2875
2341.14893	2278.6875
2343.98756	2280.0875
2346.8244	2282.7875
2349.65943	2290.4875
2352.49267	2272.0875
2355.32411	2276.6875
2358.15376	2280.9875
2360.98161	2278.4875
2363.80768	2270.6875
2366.63195	2262.1875
2369.45444	2266.8875
2372.27514	2256.7875
2375.09405	2270.6875
2377.91118	2252.0875
2380.72652	2260.0875
2383.54009	2253.6875
2386.35187	2246.0875
2389.16188	2243.8875
2391.97011	2244.2875
2394.77657	2231.7875
2397.58125	2236.7875
2400.38416	2224.1875
2403.18529	2222.1875
2405.98466	2226.0875
2408.78226	2216.8875
2411.57809	2231.9875
2414.37216	2215.3875
2417.16446	2210.2875
2419.955	2206.7875
2422.74378	2208.3875
2425.5308	2200.1875
2428.31606	2193.4875
2431.09956	2199.7875
2433.88131	2198.9875
2436.6613	2204.4875
2439.43954	2191.5875
2442.21603	2191.8875
2444.99077	2182.4875
2447.76377	2182.9875
2450.53501	2189.7875
2453.30451	2174.0875
2456.07226	2183.6875
2458.83827	2175.4875
2461.60254	2165.7875
2464.36507	2175.8875
2467.12586	2170.9875
2469.88492	2158.2875
2472.64224	2165.7875
2475.39782	2159.8875
2478.15167	2151.8875
2480.90379	2148.7875
2483.65417	2149.4875
2486.40283	2152.3875
2489.14976	2154.2875
2491.89497	2141.2875
2494.63845	2154.3875
2497.3802	2134.2875
2500.12024	2138.6875
2502.85855	2135.1875
2505.59514	2146.3875
2508.33002	2143.7875
2511.06318	2133.8875
2513.79462	2130.7875
2516.52435	2130.2875
2519.25237	2124.3875
2521.97867	2123.2875
2524.70327	2123.0875
2527.42616	2113.9875
2530.14734	2120.7875
2532.86681	2117.1875
2535.58458	2114.9875
2538.30065	2115.4875
2541.01501	2107.6875
2543.72768	2103.1875
2546.43864	2099.5875
2549.14791	2092.6875
2551.85548	2090.2875
2554.56136	2093.3875
2557.26554	2080.3875
2559.96803	2078.9875
2562.66883	2080.5875
2565.36794	2075.5875
2568.06536	2073.1875
2570.7611	2071.0875
2573.45514	2059.6875
2576.14751	2063.3875
2578.83819	2052.6875
2581.52719	2055.0875
2584.21451	2046.1875
2586.90015	2053.0875
2589.58411	2047.3875
2592.2664	2037.5875
2594.94701	2039.6875
2597.62594	2032.3875
2600.30321	2029.8875
2602.9788	2032.7875
2605.65273	2028.8875
2608.32498	2011.1875
2610.99557	2010.7875
2613.66449	2005.0875
2616.33175	2011.8875
2618.99734	2005.1875
2621.66128	2005.5875
2624.32355	2006.0875
2626.98416	1994.3875
2629.64311	2001.4875
2632.30041	1999.9875
2634.95605	1999.8875
2637.61004	1998.8875
2640.26238	2008.9875
2642.91306	1982.5875
2645.56209	1985.0875
2648.20948	1974.0875
2650.85521	1984.8875
2653.4993	1973.1875
2656.14175	1987.4875
2658.78255	1990.0875
2661.42171	1980.4875
2664.05923	1973.6875
2666.6951	1979.5875
2669.32934	1983.1875
2671.96194	1984.4875
2674.59291	1978.3875
2677.22224	1982.0875
2679.84993	1987.0875
2682.476	1978.6875
2685.10043	1981.1875
2687.72324	1982.6875
2690.34441	1976.9875
2692.96396	1978.6875
2695.58188	1982.3875
2698.19818	1967.8875
2700.81285	1979.3875
2703.4259	1966.4875
2706.03733	1946.8875
2708.64714	1965.6875
2711.25533	1973.3875
2713.86191	1973.0875
2716.46687	1983.7875
2719.07021	1969.6875
2721.67194	1981.0875
2724.27206	1976.5875
2726.87057	1970.3875
2729.46747	1980.0875
2732.06276	1978.5875
2734.65644	1971.6875
2737.24852	1982.6875
2739.83899	1962.3875
2742.42786	1974.7875
2745.01513	1969.5875
2747.60079	1968.8875
2750.18486	1963.6875
2752.76733	1966.9875
2755.3482	1968.0875
2757.92747	1967.0875
2760.50515	1962.0875
2763.08123	1968.1875
2765.65573	1956.4875
2768.22863	1958.1875
2770.79994	1956.7875
2773.36967	1963.3875
2775.9378	1954.0875
2778.50435	1940.3875
2781.06932	1948.5875
2783.6327	1937.9875
2786.1945	1941.1875
2788.75471	1935.8875
2791.31335	1927.2875
2793.87041	1922.7875
2796.42589	1922.2875
2798.97979	1915.0875
2801.53212	1919.7875
2804.08288	1916.0875
2806.63206	1899.7875
2809.17967	1908.2875
2811.72571	1910.1875
2814.27018	1908.5875
2816.81308	1908.5875
2819.35442	1897.3875
2821.89419	1895.2875
2824.43239	1897.4875
2826.96904	1902.7875
2829.50412	1890.7875
2832.03763	1889.2875
2834.56959	1889.7875
2837.1	1890.1875
2839.62884	1889.5875
2842.15613	1880.8875
2844.68186	1894.6875
2847.20604	1888.0875
2849.72867	1892.1875
2852.24974	1890.0875
2854.76927	1884.8875
2857.28724	1888.9875
2859.80367	1903.9875
2862.31855	1904.3875
2864.83189	1910.5875
2867.34368	1911.0875
2869.85393	1901.8875
2872.36264	1919.1875
2874.8698	1920.1875
2877.37543	1930.6875
2879.87952	1940.5875
2882.38207	1950.5875
2884.88308	1955.6875
2887.38256	1969.7875
2889.88051	1976.4875
2892.37692	1982.3875
2894.8718	1990.1875
2897.36515	1996.9875
2899.85698	2001.1875
2902.34727	2015.7875
2904.83604	2016.3875
2907.32328	2025.3875
2909.809	2027.7875
2912.29319	2027.3875
2914.77587	2041.6875
2917.25702	2045.6875
2919.73665	2041.8875
2922.21476	2039.1875
2924.69136	2044.0875
2927.16644	2039.0875
2929.64	2033.4875
2932.11205	2036.1875
2934.58258	2024.2875
2937.05161	2023.0875
2939.51912	2011.1875
2941.98513	2015.1875
2944.44962	1995.9875
2946.91261	1983.3875
2949.37409	1979.6875
2951.83407	1976.1875
2954.29254	1973.9875
2956.74951	1966.2875
2959.20498	1952.0875
2961.65895	1946.7875
2964.11142	1937.8875
2966.56239	1925.2875
2969.01186	1932.2875
2971.45984	1919.3875
2973.90632	1912.0875
2976.35131	1901.7875
2978.7948	1901.1875
2981.23681	1889.1875
2983.67732	1881.3875
2986.11635	1875.4875
2988.55388	1875.4875
2990.98993	1866.6875
2993.4245	1863.4875
2995.85758	1853.0875
2998.28917	1848.4875
3000.71928	1854.1875
3003.14791	1853.5875
3005.57506	1849.2875
3008.00073	1836.5875
3010.42493	1840.6875
3012.84764	1846.4875
3015.26888	1842.8875
3017.68865	1828.3875
3020.10694	1841.3875
3022.52376	1821.5875
3024.9391	1830.4875
3027.35298	1821.2875
3029.76539	1815.1875
3032.17632	1822.6875
3034.5858	1825.7875
3036.9938	1816.0875
3039.40034	1817.3875
3041.80542	1817.1875
3044.20903	1811.1875
3046.61118	1811.3875
3049.01187	1805.4875
3051.4111	1801.9875
3053.80888	1807.3875
3056.20519	1817.0875
3058.60005	1803.4875
3060.99345	1805.5875
3063.3854	1803.5875
3065.7759	1803.3875
3068.16494	1807.3875
3070.55254	1808.1875
3072.93868	1797.4875
3075.32338	1798.6875
3077.70662	1798.2875
3080.08842	1798.2875
3082.46878	1807.0875
3084.84769	1804.3875
3087.22515	1808.9875
3089.60118	1814.5875
3091.97576	1818.5875
3094.3489	1823.5875
3096.72061	1820.4875
3099.09087	1834.3875
3101.4597	1835.4875
3103.82709	1847.9875
3106.19305	1836.4875
3108.55757	1838.2875
3110.92066	1838.6875
3113.28232	1845.1875
3115.64255	1844.9875
3118.00134	1849.6875
3120.35871	1854.8875
3122.71466	1847.1875
3125.06917	1859.3875
3127.42226	1861.6875
3129.77393	1875.4875
3132.12417	1861.1875
3134.47299	1866.4875
3136.82039	1875.4875
3139.16636	1886.4875
3141.51092	1883.4875
3143.85406	1905.3875
3146.19579	1915.6875
3148.53609	1897.7875
3150.87499	1909.0875
3153.21246	1909.0875
3155.54853	1920.4875
3157.88318	1925.1875
3160.21642	1929.5875
3162.54826	1937.9875
3164.87868	1942.6875
3167.2077	1954.0875
3169.5353	1946.5875
3171.86151	1953.4875
3174.18631	1970.2875
3176.5097	1959.0875
3178.83169	1969.2875
3181.15228	1966.6875
3183.47147	1977.6875
3185.78926	1976.6875
3188.10565	1969.7875
3190.42065	1993.5875
3192.73424	1982.1875
3195.04645	1997.8875
3197.35725	2000.5875
3199.66667	1992.1875
3201.97469	2003.9875
3204.28132	2008.3875
3206.58656	2019.6875
3208.8904	2011.3875
3211.19287	2021.6875
3213.49394	2026.2875
3215.79363	2023.2875
3218.09193	2033.9875
3220.38884	2026.7875
3222.68438	2020.9875
3224.97853	2027.2875
3227.2713	2029.8875
3229.56269	2030.6875
3231.8527	2029.9875
3234.14133	2025.4875
3236.42858	2017.1875
3238.71446	2032.1875
3240.99896	2037.5875
3243.28209	2027.9875
3245.56384	2031.2875
3247.84423	2043.4875
3250.12324	2027.5875
3252.40088	2037.0875
3254.67715	2034.3875
3256.95205	2035.3875
3259.22558	2041.0875
3261.49775	2033.4875
3263.76855	2028.1875
3266.03799	2027.6875
3268.30606	2031.6875
3270.57277	2020.3875
3272.83812	2012.8875
3275.10211	2023.9875
3277.36474	2029.7875
3279.62601	2019.0875
3281.88593	2019.8875
3284.14448	2018.0875
3286.40168	2004.5875
3288.65753	2022.3875
3290.91202	2005.5875
3293.16516	2006.2875
3295.41695	1997.2875
3297.66738	1988.0875
3299.91647	1978.8875
3302.16421	1966.4875
3304.4106	1967.0875
3306.65564	1951.8875
3308.89933	1946.7875
3311.14169	1932.1875
3313.38269	1911.7875
3315.62236	1909.3875
3317.86068	1892.8875
3320.09766	1874.6875
3322.3333	1872.3875
3324.5676	1872.4875
3326.80056	1823.8875
3329.03219	1816.2875
3331.26248	-0.0125
3333.49143	0.8875
3335.71905	-0.5125
