Data from AgNPs_FTO_APTES_UA_200uM_R6G_10uM_NaF_0.1M_Addition_RamanShift__38__16-44-37-540.txt Node

Date: Fri Dec 17 16:44:37 GMT 2021
User: TCL
Spectrometer: QEP01345
Trigger mode: 4
Integration Time (sec): 7.000000E0
Scans to average: 10
Electric dark correction enabled: true
Nonlinearity correction enabled: false
Boxcar width: 0
XAxis mode: Raman Shifts
Number of Pixels in Spectrum: 1044
>>>>>Begin Spectral Data<<<<<
46.04893	-0.3
50.45542	-0.4
54.85868	-0.6
59.25871	1
63.6555	41.8
68.04907	44.6
72.43941	48.9
76.82654	50.9
81.21044	51.5
85.59113	54.5
89.96862	57.7
94.34289	56.9
98.71396	59.5
103.08183	61.6
107.4465	65.7
111.80798	63
116.16626	67.2
120.52136	66.1
124.87327	71.5
129.222	70.3
133.56755	74.9
137.90993	78.4
142.24913	83.1
146.58517	89.5
150.91804	104.7
155.24774	120.6
159.57429	145
163.89768	186.9
168.21792	239.1
172.53501	315.2
176.84895	433
181.15975	603
185.46741	847.6
189.77193	1171.6
194.07331	1566.9
198.37157	2017.7
202.6667	2518
206.9587	2979.3
211.24758	3441.7
215.53334	3935.5
219.81599	4413.1
224.09553	4957.2
228.37195	5544.4
232.64527	6228
236.91549	6975.9
241.18261	7689.7
245.44663	8352.8
249.70755	8964.6
253.96539	9493.3
258.22014	9967.3
262.4718	10319.1
266.72039	10574.8
270.96589	10729.4
275.20832	10729
279.44768	10631.9
283.68397	10477.8
287.91719	10272.8
292.14735	10151.3
296.37445	10104.3
300.59849	10145
304.81948	10181.4
309.03742	10170.6
313.25231	10061.3
317.46415	9852.5
321.67296	9634.4
325.87872	9473.1
330.08145	9410
334.28114	9441.6
338.47781	9517.2
342.67145	9638.2
346.86207	9812.2
351.04966	9983.6
355.23424	10191.6
359.4158	10424.8
363.59435	10617.2
367.76989	10776.9
371.94243	10864.5
376.11196	10998.8
380.27849	11079.8
384.44203	11135.9
388.60257	11174.2
392.76012	11201.9
396.91468	11274.9
401.06626	11392.3
405.21485	11471.6
409.36047	11386.1
413.50311	11223
417.64277	11038.7
421.77947	10904.9
425.9132	10884.6
430.04396	10877
434.17176	10892.4
438.2966	10988.1
442.41849	11093.1
446.53742	11186.3
450.6534	11284
454.76644	11346
458.87653	11417.5
462.98368	11432.1
467.08789	11427.2
471.18916	11406.1
475.2875	11350.5
479.38291	11288.6
483.4754	11257.5
487.56496	11216.9
491.6516	11230.4
495.73531	11264.6
499.81612	11258.7
503.89401	11287.4
507.96899	11320.8
512.04106	11348.6
516.11023	11448.4
520.1765	11501.8
524.23987	11476.3
528.30034	11453.4
532.35792	11364.1
536.41261	11302.9
540.46441	11218.3
544.51333	11181.3
548.55936	11179.6
552.60252	11216.3
556.64279	11302.5
560.6802	11342.1
564.71473	11338
568.7464	11400.8
572.7752	11431.6
576.80114	11374.2
580.82422	11346.4
584.84444	11323
588.86181	11367.1
592.87633	11375.4
596.888	11399.6
600.89682	11555
604.9028	12001.1
608.90594	13067.1
612.90624	14531.4
616.90371	14337.9
620.89834	12554.2
624.89015	11737.4
628.87913	11624.1
632.86528	11795.7
636.84862	11977.4
640.82913	11944.5
644.80683	11740.4
648.78172	11480
652.75379	11349.2
656.72306	11338.1
660.68952	11464.2
664.65319	11412.8
668.61405	11209.5
672.57211	11113.1
676.52738	11112.8
680.47986	11113.2
684.42955	11099.2
688.37646	11081.1
692.32058	11080.4
696.26192	11099
700.20048	11117.4
704.13626	11160.4
708.06928	11152
711.99952	11088.4
715.927	11093.6
719.85171	11113.2
723.77365	11113.1
727.69284	11088.9
731.60928	11056.9
735.52295	11040.8
739.43388	11018.4
743.34206	11030.7
747.24749	11008
751.15017	11029.5
755.05012	11035.1
758.94733	11153.1
762.8418	11442.4
766.73354	12060.1
770.62254	12813.4
774.50882	13345.8
778.39237	13075.8
782.27321	12257
786.15132	11561.1
790.02671	11134.4
793.89938	10942.4
797.76935	10894
801.6366	10868.1
805.50115	10870.9
809.36299	10898.2
813.22213	10901
817.07857	10912.5
820.93231	10867.7
824.78336	10827.9
828.63172	10763.5
832.47738	10736.3
836.32036	10724.6
840.16066	10691
843.99827	10658.5
847.8332	10670.4
851.66546	10664.7
855.49504	10610.8
859.32195	10638.7
863.1462	10644.8
866.96777	10630.4
870.78668	10634.5
874.60293	10633.8
878.41652	10671.3
882.22745	10733.2
886.03573	10789.3
889.84136	10780.7
893.64433	10773.7
897.44466	10695.9
901.24235	10643.1
905.0374	10550.5
908.8298	10499.7
912.61957	10426.8
916.40671	10437.9
920.19121	10438
923.97308	10458.2
927.75233	10449.3
931.52895	10443.7
935.30295	10444.3
939.07433	10355.7
942.84309	10257
946.60924	10171.3
950.37278	10138.5
954.13371	10097.6
957.89203	10058.9
961.64774	10041.4
965.40086	10027.6
969.15137	9958.6
972.89929	9936.9
976.64461	9944.4
980.38733	9932.5
984.12747	9946
987.86502	9961.4
991.59999	9990.7
995.33237	10003.3
999.06217	10068.4
1002.78939	10121.7
1006.51404	10175.6
1010.23611	10256.9
1013.95561	10278.3
1017.67255	10291.9
1021.38692	10256.8
1025.09872	10229.7
1028.80796	10167.9
1032.51465	10142.1
1036.21877	10115.4
1039.92035	10144.2
1043.61937	10133.9
1047.31584	10136.2
1051.00976	10127.3
1054.70114	10127.4
1058.38998	10136.2
1062.07627	10195.2
1065.76003	10232.1
1069.44126	10291.4
1073.11995	10375.1
1076.79611	10467.6
1080.46974	10482.2
1084.14085	10442.7
1087.80943	10465.4
1091.47549	10482.2
1095.13903	10417.6
1098.80005	10360.1
1102.45857	10235.2
1106.11456	10193.4
1109.76805	10163.9
1113.41903	10205.3
1117.06751	10346
1120.71348	10549.4
1124.35696	10711.1
1127.99793	10946.7
1131.63641	11110.3
1135.2724	11033
1138.90589	10855.2
1142.5369	10653.9
1146.16542	10465.3
1149.79145	10313.6
1153.415	10161.2
1157.03607	10097.2
1160.65467	10083.6
1164.27079	10159.2
1167.88443	10339.9
1171.49561	10638.6
1175.10432	11050
1178.71056	11671.3
1182.31434	12236.8
1185.91565	12474.1
1189.51451	12340.8
1193.11091	12011.8
1196.70485	11660.9
1200.29634	11431.1
1203.88538	11232.4
1207.47197	11001.2
1211.05612	10718.3
1214.63782	10560.1
1218.21708	10430.8
1221.79391	10321.7
1225.36829	10256.6
1228.94024	10198.2
1232.50976	10182.3
1236.07685	10199.1
1239.6415	10221.8
1243.20374	10234.6
1246.76355	10251.2
1250.32093	10308
1253.8759	10382
1257.42845	10492.4
1260.97859	10622.7
1264.52631	10707.4
1268.07163	10841
1271.61453	10935.7
1275.15503	11022.9
1278.69312	11024.5
1282.22882	11048.1
1285.76211	11073.8
1289.29301	11185.6
1292.82151	11354.6
1296.34761	11540.5
1299.87133	11837.4
1303.39266	12284.8
1306.9116	12793.8
1310.42815	13391.9
1313.94233	13719.7
1317.45412	13575.2
1320.96354	13124.1
1324.47058	12646.6
1327.97525	12204.3
1331.47754	11869.7
1334.97747	11675.6
1338.47502	11670.2
1341.97022	11755
1345.46305	11970.4
1348.95352	12332
1352.44163	12837.7
1355.92738	13544.8
1359.41078	14523.9
1362.89183	15687.7
1366.37053	15846.8
1369.84688	14492.8
1373.32088	12900.7
1376.79254	11810.3
1380.26186	11237
1383.72883	10921.8
1387.19347	10709.9
1390.65578	10497.8
1394.11575	10300.4
1397.57339	10132.2
1401.0287	10019.3
1404.48168	9933
1407.93234	9895.6
1411.38068	9850
1414.82669	9803.2
1418.27039	9774.7
1421.71177	9719.4
1425.15083	9636.7
1428.58758	9569.9
1432.02203	9519.6
1435.45416	9529.2
1438.88399	9568.6
1442.31151	9590.3
1445.73673	9575.2
1449.15965	9596.1
1452.58027	9601.8
1455.9986	9584.6
1459.41463	9594.8
1462.82837	9634.9
1466.23982	9719
1469.64898	9829.8
1473.05586	9910.9
1476.46045	9961.9
1479.86276	10061.1
1483.26279	10140.9
1486.66054	10250.1
1490.05602	10363.6
1493.44922	10574
1496.84016	10948.5
1500.22882	11549.3
1503.61521	12413.4
1506.99934	13410.4
1510.38121	14286.9
1513.76081	14586.4
1517.13816	14052.8
1520.51324	13032.7
1523.88607	12022.3
1527.25665	11317.4
1530.62498	10931
1533.99105	10715.7
1537.35488	10555.2
1540.71647	10485.4
1544.07581	10422
1547.4329	10412.9
1550.78776	10393.2
1554.14038	10411.5
1557.49077	10457.2
1560.83892	10534.9
1564.18484	10640
1567.52853	10757.8
1570.86999	10907.2
1574.20922	11064.1
1577.54624	11111
1580.88103	10960.3
1584.2136	10630.9
1587.54395	10348.6
1590.87208	10204.9
1594.19801	10266.4
1597.52172	10491.6
1600.84321	10550.4
1604.16251	10502.8
1607.47959	10300.3
1610.79447	10063.9
1614.10715	9803
1617.41763	9561.3
1620.7259	9367.1
1624.03199	9251.2
1627.33587	9202.3
1630.63757	9222
1633.93707	9341
1637.23439	9554.2
1640.52951	9864.3
1643.82246	10379.6
1647.11321	11038.2
1650.40179	11613.6
1653.68819	11672.1
1656.97241	11035.9
1660.25446	10241.3
1663.53433	9616.3
1666.81203	9231.8
1670.08756	8990.6
1673.36092	8812
1676.63211	8728.3
1679.90115	8621
1683.16801	8573.3
1686.43272	8526.5
1689.69527	8507
1692.95567	8486.6
1696.2139	8483.3
1699.46999	8531.2
1702.72392	8509.6
1705.97571	8456.1
1709.22535	8366.6
1712.47284	8286.4
1715.71819	8212.8
1718.96139	8169.9
1722.20246	8099
1725.44139	8057.8
1728.67818	7998.8
1731.91284	7941.3
1735.14537	7918.7
1738.37576	7907.1
1741.60403	7871
1744.83017	7833.9
1748.05418	7846.6
1751.27607	7826.3
1754.49584	7810.6
1757.71349	7815.4
1760.92903	7819.8
1764.14244	7802.4
1767.35375	7807.4
1770.56294	7791.8
1773.77002	7767
1776.97499	7780.9
1780.17785	7740
1783.37861	7719.2
1786.57727	7709.1
1789.77382	7691.3
1792.96828	7657
1796.16064	7659.3
1799.3509	7641.4
1802.53907	7624.9
1805.72514	7594
1808.90913	7566.6
1812.09102	7559.7
1815.27083	7537.6
1818.44856	7524.3
1821.6242	7491.6
1824.79776	7523.2
1827.96924	7487.8
1831.13864	7481.5
1834.30597	7484.7
1837.47122	7460.5
1840.6344	7461.5
1843.7955	7444.6
1846.95454	7460.4
1850.11151	7433.7
1853.26642	7437.4
1856.41926	7437.1
1859.57004	7427.4
1862.71876	7408.5
1865.86542	7425.3
1869.01003	7399.6
1872.15258	7366.5
1875.29308	7370.3
1878.43152	7375.6
1881.56792	7375
1884.70227	7343.3
1887.83457	7342.8
1890.96482	7346.1
1894.09304	7315.8
1897.21921	7311.1
1900.34335	7297.9
1903.46544	7291.8
1906.58551	7289.3
1909.70353	7278.3
1912.81953	7276.5
1915.93349	7258
1919.04543	7259
1922.15534	7244.6
1925.26322	7230.9
1928.36908	7211.2
1931.47292	7188.9
1934.57473	7194
1937.67453	7153.5
1940.77232	7132.4
1943.86808	7135.9
1946.96184	7110.9
1950.05358	7121.9
1953.14331	7071.1
1956.23103	7056.2
1959.31675	7031.4
1962.40046	7008.3
1965.48217	7006.5
1968.56188	6978
1971.63959	6949.7
1974.7153	6944.9
1977.78901	6901.1
1980.86073	6899
1983.93046	6866.3
1986.99819	6836
1990.06394	6812.5
1993.1277	6820.7
1996.18947	6796.8
1999.24925	6777.2
2002.30706	6751.2
2005.36288	6721.8
2008.41672	6708.5
2011.46859	6715
2014.51848	6654.6
2017.56639	6662.4
2020.61233	6612.2
2023.6563	6619.7
2026.6983	6607.4
2029.73833	6580.8
2032.7764	6560
2035.8125	6532.8
2038.84664	6528.2
2041.87881	6514.3
2044.90903	6523.8
2047.93729	6491.5
2050.96359	6493.3
2053.98794	6483.2
2057.01034	6464.5
2060.03078	6459.7
2063.04927	6469.5
2066.06582	6454.7
2069.08042	6464.4
2072.09307	6446.8
2075.10378	6444.4
2078.11255	6425.4
2081.11938	6431.7
2084.12426	6429.1
2087.12722	6437.4
2090.12824	6440.5
2093.12732	6416.2
2096.12447	6434
2099.11969	6418.5
2102.11299	6430.3
2105.10435	6427.3
2108.09379	6424.5
2111.08131	6420.7
2114.0669	6437.7
2117.05057	6448.4
2120.03233	6436.7
2123.01216	6440.2
2125.99008	6465
2128.96609	6486.8
2131.94018	6469.9
2134.91236	6482.2
2137.88263	6483.7
2140.851	6459.5
2143.81746	6491.3
2146.78201	6488.3
2149.74466	6492.3
2152.7054	6485.2
2155.66425	6487
2158.6212	6487.6
2161.57625	6478.1
2164.52941	6486.8
2167.48067	6480.6
2170.43004	6468
2173.37752	6468.1
2176.32311	6477.3
2179.26681	6461.3
2182.20863	6451.7
2185.14856	6444.5
2188.08661	6454.9
2191.02278	6451
2193.95707	6446.4
2196.88948	6441.5
2199.82001	6449
2202.74867	6443.2
2205.67545	6408.8
2208.60037	6421.9
2211.52341	6412.2
2214.44458	6375.6
2217.36388	6363
2220.28132	6364.6
2223.1969	6344.9
2226.11061	6338.5
2229.02246	6322.5
2231.93245	6324.4
2234.84058	6293
2237.74686	6307.5
2240.65128	6298.2
2243.55385	6283.8
2246.45456	6273.4
2249.35343	6263.3
2252.25044	6258.4
2255.14561	6250
2258.03893	6258.2
2260.93041	6246.3
2263.82004	6235.8
2266.70783	6214.2
2269.59378	6208.1
2272.4779	6182.6
2275.36017	6157.8
2278.24061	6159.5
2281.11922	6166.6
2283.996	6144.7
2286.87094	6131.6
2289.74405	6106.2
2292.61534	6106.4
2295.4848	6110.9
2298.35243	6093.7
2301.21824	6104.8
2304.08223	6104.6
2306.94439	6086.3
2309.80474	6075.6
2312.66327	6073
2315.51999	6065.9
2318.37489	6067.9
2321.22797	6049.8
2324.07925	6036.8
2326.92871	6045.6
2329.77637	6027.7
2332.62222	6018
2335.46626	6016.6
2338.3085	5974.3
2341.14893	5992.2
2343.98756	5965.1
2346.8244	5973.1
2349.65943	5954.5
2352.49267	5966.3
2355.32411	5945.3
2358.15376	5972.6
2360.98161	5956.4
2363.80768	5957.3
2366.63195	5949.5
2369.45444	5927.8
2372.27514	5947.1
2375.09405	5956.9
2377.91118	5918.5
2380.72652	5912.8
2383.54009	5892.8
2386.35187	5897.3
2389.16188	5883.6
2391.97011	5844.6
2394.77657	5838.5
2397.58125	5818.8
2400.38416	5833.1
2403.18529	5816.4
2405.98466	5832.2
2408.78226	5801
2411.57809	5775.3
2414.37216	5780
2417.16446	5782.9
2419.955	5788.3
2422.74378	5766.5
2425.5308	5755.5
2428.31606	5758.7
2431.09956	5749.4
2433.88131	5738.5
2436.6613	5745.5
2439.43954	5731.5
2442.21603	5738.8
2444.99077	5715.3
2447.76377	5726.9
2450.53501	5711.7
2453.30451	5714
2456.07226	5706.8
2458.83827	5707
2461.60254	5694.1
2464.36507	5676.5
2467.12586	5688.6
2469.88492	5662.8
2472.64224	5689.5
2475.39782	5671.3
2478.15167	5667.1
2480.90379	5658.2
2483.65417	5655.6
2486.40283	5659.8
2489.14976	5659.8
2491.89497	5647.4
2494.63845	5662
2497.3802	5656.1
2500.12024	5636.1
2502.85855	5639.6
2505.59514	5626.3
2508.33002	5614
2511.06318	5616.1
2513.79462	5605.8
2516.52435	5575.7
2519.25237	5584.2
2521.97867	5560.5
2524.70327	5546.2
2527.42616	5553.4
2530.14734	5541.4
2532.86681	5542
2535.58458	5533.1
2538.30065	5508.9
2541.01501	5504.5
2543.72768	5504.9
2546.43864	5492.2
2549.14791	5483.8
2551.85548	5483.6
2554.56136	5452.7
2557.26554	5475.3
2559.96803	5460.1
2562.66883	5434
2565.36794	5447.9
2568.06536	5432.6
2570.7611	5430.8
2573.45514	5421.1
2576.14751	5422.5
2578.83819	5371.3
2581.52719	5397.2
2584.21451	5375.5
2586.90015	5368.7
2589.58411	5365.2
2592.2664	5356.7
2594.94701	5321.4
2597.62594	5328.5
2600.30321	5312.5
2602.9788	5302.4
2605.65273	5281.3
2608.32498	5268.1
2610.99557	5289.9
2613.66449	5270.2
2616.33175	5270.8
2618.99734	5266.4
2621.66128	5238.5
2624.32355	5252.1
2626.98416	5241.9
2629.64311	5231.4
2632.30041	5242
2634.95605	5225.8
2637.61004	5221
2640.26238	5205.8
2642.91306	5206.5
2645.56209	5195.2
2648.20948	5184.5
2650.85521	5179.6
2653.4993	5181.3
2656.14175	5175.4
2658.78255	5184.8
2661.42171	5181.2
2664.05923	5184.5
2666.6951	5174.5
2669.32934	5170.6
2671.96194	5178.3
2674.59291	5183
2677.22224	5181.2
2679.84993	5174.7
2682.476	5166.5
2685.10043	5177.7
2687.72324	5172.2
2690.34441	5183.6
2692.96396	5160.5
2695.58188	5169.2
2698.19818	5169.1
2700.81285	5174.2
2703.4259	5192.9
2706.03733	5199
2708.64714	5175.9
2711.25533	5176.2
2713.86191	5170.1
2716.46687	5166.4
2719.07021	5176.9
2721.67194	5173.7
2724.27206	5154.7
2726.87057	5164.5
2729.46747	5160.5
2732.06276	5155.1
2734.65644	5144.9
2737.24852	5149.2
2739.83899	5151.5
2742.42786	5147
2745.01513	5140.3
2747.60079	5131.5
2750.18486	5121.8
2752.76733	5112.9
2755.3482	5098.4
2757.92747	5114.7
2760.50515	5100.9
2763.08123	5095.8
2765.65573	5068.9
2768.22863	5070.2
2770.79994	5066.4
2773.36967	5081.6
2775.9378	5068.4
2778.50435	5057.5
2781.06932	5055.4
2783.6327	5044.3
2786.1945	5029.3
2788.75471	5040.5
2791.31335	5010.6
2793.87041	4997.7
2796.42589	4991
2798.97979	4980.6
2801.53212	4963.5
2804.08288	4965.2
2806.63206	4958.3
2809.17967	4944.1
2811.72571	4932.1
2814.27018	4930.3
2816.81308	4927.3
2819.35442	4927.2
2821.89419	4904.8
2824.43239	4904.4
2826.96904	4920.7
2829.50412	4907.5
2832.03763	4874.2
2834.56959	4902.7
2837.1	4886.8
2839.62884	4886.5
2842.15613	4890.2
2844.68186	4905.2
2847.20604	4900.7
2849.72867	4898.2
2852.24974	4897
2854.76927	4890.1
2857.28724	4888.8
2859.80367	4864
2862.31855	4854.2
2864.83189	4853.7
2867.34368	4853.6
2869.85393	4879.9
2872.36264	4862.3
2874.8698	4874.9
2877.37543	4867.1
2879.87952	4864.1
2882.38207	4865.9
2884.88308	4872.4
2887.38256	4864.5
2889.88051	4851.8
2892.37692	4857
2894.8718	4850.2
2897.36515	4850.3
2899.85698	4861
2902.34727	4841.8
2904.83604	4870.8
2907.32328	4847
2909.809	4850.6
2912.29319	4862
2914.77587	4868.7
2917.25702	4862.9
2919.73665	4837
2922.21476	4849.6
2924.69136	4855.9
2927.16644	4845.9
2929.64	4844.5
2932.11205	4843.5
2934.58258	4824
2937.05161	4835.8
2939.51912	4830.5
2941.98513	4815.9
2944.44962	4832.1
2946.91261	4793.1
2949.37409	4810.8
2951.83407	4824.9
2954.29254	4815.1
2956.74951	4808.8
2959.20498	4815.4
2961.65895	4781.8
2964.11142	4796.7
2966.56239	4787.2
2969.01186	4785.5
2971.45984	4765.8
2973.90632	4770.1
2976.35131	4760.8
2978.7948	4754.6
2981.23681	4750.2
2983.67732	4742.6
2986.11635	4733.9
2988.55388	4733.8
2990.98993	4711.8
2993.4245	4715.1
2995.85758	4711.4
2998.28917	4695.2
3000.71928	4702.7
3003.14791	4682.3
3005.57506	4696.5
3008.00073	4697.4
3010.42493	4677.7
3012.84764	4678.3
3015.26888	4686.1
3017.68865	4663.1
3020.10694	4666.8
3022.52376	4646.4
3024.9391	4654.4
3027.35298	4657
3029.76539	4634.4
3032.17632	4639.9
3034.5858	4629.5
3036.9938	4630.4
3039.40034	4626.5
3041.80542	4621.9
3044.20903	4618
3046.61118	4616.5
3049.01187	4613.3
3051.4111	4610.3
3053.80888	4609.6
3056.20519	4598.8
3058.60005	4590.4
3060.99345	4590.3
3063.3854	4583.6
3065.7759	4585.8
3068.16494	4570.2
3070.55254	4565
3072.93868	4564.3
3075.32338	4562.5
3077.70662	4560.7
3080.08842	4576.4
3082.46878	4551.7
3084.84769	4576.1
3087.22515	4560.8
3089.60118	4566.2
3091.97576	4565.1
3094.3489	4568.6
3096.72061	4580.4
3099.09087	4579.9
3101.4597	4574
3103.82709	4582.6
3106.19305	4577.5
3108.55757	4581.9
3110.92066	4574.7
3113.28232	4561.3
3115.64255	4544.9
3118.00134	4561.2
3120.35871	4562.2
3122.71466	4566.2
3125.06917	4564.9
3127.42226	4548.2
3129.77393	4541.2
3132.12417	4539.7
3134.47299	4570.3
3136.82039	4586.4
3139.16636	4584.5
3141.51092	4579.2
3143.85406	4600.4
3146.19579	4598.8
3148.53609	4601.3
3150.87499	4612
3153.21246	4618.3
3155.54853	4630.5
3157.88318	4634.7
3160.21642	4653.6
3162.54826	4653.8
3164.87868	4647
3167.2077	4651
3169.5353	4655.4
3171.86151	4649.1
3174.18631	4643.8
3176.5097	4654.2
3178.83169	4642.8
3181.15228	4648
3183.47147	4653.9
3185.78926	4635.6
3188.10565	4640.1
3190.42065	4652.8
3192.73424	4642.3
3195.04645	4662.2
3197.35725	4652.8
3199.66667	4658.3
3201.97469	4670.3
3204.28132	4670
3206.58656	4699.3
3208.8904	4690.7
3211.19287	4701.9
3213.49394	4693.2
3215.79363	4697.3
3218.09193	4696.9
3220.38884	4701.9
3222.68438	4701.5
3224.97853	4690
3227.2713	4699.7
3229.56269	4695.2
3231.8527	4698.4
3234.14133	4698.1
3236.42858	4675
3238.71446	4667
3240.99896	4662.1
3243.28209	4668.3
3245.56384	4667.1
3247.84423	4672.5
3250.12324	4672
3252.40088	4667.9
3254.67715	4660.4
3256.95205	4653.9
3259.22558	4659
3261.49775	4637
3263.76855	4643.2
3266.03799	4638.9
3268.30606	4639
3270.57277	4621.6
3272.83812	4611
3275.10211	4625.1
3277.36474	4615.2
3279.62601	4603.9
3281.88593	4606.3
3284.14448	4589.5
3286.40168	4600.1
3288.65753	4591.3
3290.91202	4574.7
3293.16516	4563.8
3295.41695	4553.7
3297.66738	4538.9
3299.91647	4519.5
3302.16421	4487.4
3304.4106	4485.2
3306.65564	4465.2
3308.89933	4435.8
3311.14169	4415.7
3313.38269	4377.7
3315.62236	4372.1
3317.86068	4320
3320.09766	4288.5
3322.3333	4260.8
3324.5676	4249
3326.80056	4190.2
3329.03219	4169.7
3331.26248	2.3
3333.49143	0.2
3335.71905	-0.3
