Data from AgNPs_FTO_APTES_UA_1uM_R6G_10uM_NaF_0.1M_Addition_RamanShift__13__11-19-07-168.txt Node

Date: Fri Dec 17 11:19:07 GMT 2021
User: TCL
Spectrometer: QEP01345
Trigger mode: 4
Integration Time (sec): 7.000000E0
Scans to average: 10
Electric dark correction enabled: true
Nonlinearity correction enabled: false
Boxcar width: 0
XAxis mode: Raman Shifts
Number of Pixels in Spectrum: 1044
>>>>>Begin Spectral Data<<<<<
46.04893	-0.5625
50.45542	-0.8625
54.85868	-1.3625
59.25871	-0.3625
63.6555	97.2375
68.04907	100.0375
72.43941	106.2375
76.82654	110.5375
81.21044	113.7375
85.59113	118.6375
89.96862	124.8375
94.34289	130.1375
98.71396	134.9375
103.08183	135.1375
107.4465	141.0375
111.80798	144.9375
116.16626	147.8375
120.52136	147.1375
124.87327	158.9375
129.222	165.2375
133.56755	171.4375
137.90993	183.3375
142.24913	199.4375
146.58517	216.1375
150.91804	250.1375
155.24774	295.5375
159.57429	362.3375
163.89768	457.0375
168.21792	587.7375
172.53501	793.6375
176.84895	1102.6375
181.15975	1529.5375
185.46741	2144.5375
189.77193	2964.0375
194.07331	3979.0375
198.37157	5139.1375
202.6667	6371.9375
206.9587	7591.7375
211.24758	8825.2375
215.53334	10030.6375
219.81599	11274.9375
224.09553	12666.6375
228.37195	14163.6375
232.64527	15917.3375
236.91549	17736.5375
241.18261	19602.3375
245.44663	21429.1375
249.70755	23135.7375
253.96539	24589.8375
258.22014	25760.0375
262.4718	26653.7375
266.72039	27265.3375
270.96589	27454.2375
275.20832	27362.6375
279.44768	27042.2375
283.68397	26554.5375
287.91719	26110.8375
292.14735	25723.9375
296.37445	25410.8375
300.59849	25236.2375
304.81948	25076.0375
309.03742	24955.2375
313.25231	24750.9375
317.46415	24493.6375
321.67296	24176.1375
325.87872	23886.8375
330.08145	23819.2375
334.28114	23841.1375
338.47781	24009.2375
342.67145	24262.5375
346.86207	24558.0375
351.04966	24892.6375
355.23424	25308.7375
359.4158	25634.9375
363.59435	25988.6375
367.76989	26220.7375
371.94243	26371.4375
376.11196	26461.0375
380.27849	26523.0375
384.44203	26604.8375
388.60257	26764.2375
392.76012	26992.6375
396.91468	27236.2375
401.06626	27593.5375
405.21485	27830.0375
409.36047	27846.6375
413.50311	27584.0375
417.64277	27447.0375
421.77947	27418.1375
425.9132	27533.0375
430.04396	27656.0375
434.17176	27794.8375
438.2966	27886.8375
442.41849	28145.4375
446.53742	28470.4375
450.6534	28852.9375
454.76644	29136.8375
458.87653	29234.0375
462.98368	29320.8375
467.08789	29298.3375
471.18916	29162.2375
475.2875	28955.1375
479.38291	28778.0375
483.4754	28679.9375
487.56496	28648.3375
491.6516	28490.9375
495.73531	28345.3375
499.81612	28277.6375
503.89401	28353.5375
507.96899	28487.4375
512.04106	28581.1375
516.11023	28598.8375
520.1765	28492.6375
524.23987	28434.0375
528.30034	28301.9375
532.35792	28255.9375
536.41261	28184.6375
540.46441	28033.6375
544.51333	28052.0375
548.55936	28231.0375
552.60252	28562.4375
556.64279	28878.1375
560.6802	29096.8375
564.71473	29299.4375
568.7464	29489.6375
572.7752	29829.1375
576.80114	30129.6375
580.82422	30568.5375
584.84444	30945.1375
588.86181	31330.2375
592.87633	31656.1375
596.888	31670.7375
600.89682	31508.0375
604.9028	32057.4375
608.90594	33783.2375
612.90624	35644.7375
616.90371	34508.5375
620.89834	31252.1375
624.89015	29688.5375
628.87913	29345.7375
632.86528	29352.2375
636.84862	29250.9375
640.82913	28924.4375
644.80683	28477.3375
648.78172	28146.1375
652.75379	28054.9375
656.72306	28236.2375
660.68952	28618.2375
664.65319	28657.7375
668.61405	28315.1375
672.57211	28340.0375
676.52738	28431.0375
680.47986	28445.9375
684.42955	28339.3375
688.37646	28297.1375
692.32058	28390.4375
696.26192	28527.8375
700.20048	28752.2375
704.13626	28953.2375
708.06928	28984.2375
711.99952	28864.9375
715.927	28764.3375
719.85171	28746.7375
723.77365	28706.7375
727.69284	28514.9375
731.60928	28313.5375
735.52295	28187.1375
739.43388	28172.4375
743.34206	28276.5375
747.24749	28309.7375
751.15017	28416.3375
755.05012	28692.8375
758.94733	29084.4375
762.8418	29817.0375
766.73354	31005.1375
770.62254	32242.3375
774.50882	32641.1375
778.39237	32007.0375
782.27321	30825.2375
786.15132	29851.2375
790.02671	29189.1375
793.89938	28767.2375
797.76935	28524.6375
801.6366	28415.4375
805.50115	28324.5375
809.36299	28273.1375
813.22213	28132.2375
817.07857	28098.2375
820.93231	28077.9375
824.78336	28051.2375
828.63172	28056.4375
832.47738	28012.5375
836.32036	28023.2375
840.16066	28025.3375
843.99827	28028.7375
847.8332	28047.3375
851.66546	28042.2375
855.49504	28137.2375
859.32195	28171.2375
863.1462	28179.4375
866.96777	28274.1375
870.78668	28318.9375
874.60293	28370.1375
878.41652	28454.3375
882.22745	28584.7375
886.03573	28678.4375
889.84136	28767.9375
893.64433	28813.5375
897.44466	28881.9375
901.24235	28941.3375
905.0374	29059.9375
908.8298	29155.3375
912.61957	29198.0375
916.40671	29416.3375
920.19121	29549.3375
923.97308	29722.9375
927.75233	29744.6375
931.52895	29674.0375
935.30295	29403.0375
939.07433	29035.8375
942.84309	28716.1375
946.60924	28469.0375
950.37278	28356.8375
954.13371	28181.1375
957.89203	28125.9375
961.64774	28076.2375
965.40086	27968.7375
969.15137	27874.0375
972.89929	27803.4375
976.64461	27733.7375
980.38733	27670.8375
984.12747	27678.5375
987.86502	27717.3375
991.59999	27772.2375
995.33237	27844.4375
999.06217	28045.7375
1002.78939	28303.5375
1006.51404	28675.1375
1010.23611	29034.8375
1013.95561	29226.4375
1017.67255	29263.6375
1021.38692	29096.2375
1025.09872	28885.1375
1028.80796	28621.5375
1032.51465	28525.1375
1036.21877	28535.2375
1039.92035	28601.1375
1043.61937	28699.7375
1047.31584	28820.0375
1051.00976	28953.0375
1054.70114	29032.6375
1058.38998	29131.5375
1062.07627	29250.5375
1065.76003	29451.0375
1069.44126	29687.0375
1073.11995	29983.6375
1076.79611	30282.9375
1080.46974	30390.9375
1084.14085	30425.7375
1087.80943	30452.1375
1091.47549	30560.1375
1095.13903	30615.5375
1098.80005	30427.4375
1102.45857	30091.4375
1106.11456	29707.1375
1109.76805	29421.8375
1113.41903	29253.0375
1117.06751	29178.9375
1120.71348	29332.4375
1124.35696	29411.1375
1127.99793	29545.6375
1131.63641	29732.7375
1135.2724	29647.8375
1138.90589	29558.4375
1142.5369	29514.5375
1146.16542	29465.9375
1149.79145	29482.7375
1153.415	29545.1375
1157.03607	29659.6375
1160.65467	29950.6375
1164.27079	30501.8375
1167.88443	31273.9375
1171.49561	32219.9375
1175.10432	33424.8375
1178.71056	34922.1375
1182.31434	36389.7375
1185.91565	37481.2375
1189.51451	37933.5375
1193.11091	37896.4375
1196.70485	37259.7375
1200.29634	36299.8375
1203.88538	35338.0375
1207.47197	34545.3375
1211.05612	34002.4375
1214.63782	33485.7375
1218.21708	33066.5375
1221.79391	32549.0375
1225.36829	32176.3375
1228.94024	31919.4375
1232.50976	31867.8375
1236.07685	31851.6375
1239.6415	31838.4375
1243.20374	31913.9375
1246.76355	32018.3375
1250.32093	32183.7375
1253.8759	32540.2375
1257.42845	33042.6375
1260.97859	33665.7375
1264.52631	34267.6375
1268.07163	34857.2375
1271.61453	35416.0375
1275.15503	35885.8375
1278.69312	36432.0375
1282.22882	36848.6375
1285.76211	37317.5375
1289.29301	37779.8375
1292.82151	38389.0375
1296.34761	39141.4375
1299.87133	40036.6375
1303.39266	41022.6375
1306.9116	42127.0375
1310.42815	43168.0375
1313.94233	43880.6375
1317.45412	44035.5375
1320.96354	43889.1375
1324.47058	43786.8375
1327.97525	43674.3375
1331.47754	43601.5375
1334.97747	43609.1375
1338.47502	43757.1375
1341.97022	44090.9375
1345.46305	44419.0375
1348.95352	44733.7375
1352.44163	44777.8375
1355.92738	44745.6375
1359.41078	44879.8375
1362.89183	45127.6375
1366.37053	44448.0375
1369.84688	42292.0375
1373.32088	39656.7375
1376.79254	37682.6375
1380.26186	36588.3375
1383.72883	36168.6375
1387.19347	35780.1375
1390.65578	35362.3375
1394.11575	35080.3375
1397.57339	34965.5375
1401.0287	35001.8375
1404.48168	35079.8375
1407.93234	35005.0375
1411.38068	34837.5375
1414.82669	34389.4375
1418.27039	33808.7375
1421.71177	33257.7375
1425.15083	32815.0375
1428.58758	32608.7375
1432.02203	32633.2375
1435.45416	32948.5375
1438.88399	33285.0375
1442.31151	33498.5375
1445.73673	33694.1375
1449.15965	33827.2375
1452.58027	34014.5375
1455.9986	34125.6375
1459.41463	34321.9375
1462.82837	34703.6375
1466.23982	35068.5375
1469.64898	35393.5375
1473.05586	35576.2375
1476.46045	35646.4375
1479.86276	35609.7375
1483.26279	35585.6375
1486.66054	35561.3375
1490.05602	35743.2375
1493.44922	36097.7375
1496.84016	36750.7375
1500.22882	37549.9375
1503.61521	38662.2375
1506.99934	39662.8375
1510.38121	40369.0375
1513.76081	40448.1375
1517.13816	39879.6375
1520.51324	38821.7375
1523.88607	37824.9375
1527.25665	37217.1375
1530.62498	36796.5375
1533.99105	36511.9375
1537.35488	36068.7375
1540.71647	35575.9375
1544.07581	35034.0375
1547.4329	34567.1375
1550.78776	34218.2375
1554.14038	34038.1375
1557.49077	33968.9375
1560.83892	34108.7375
1564.18484	34230.6375
1567.52853	34353.5375
1570.86999	34554.9375
1574.20922	34858.8375
1577.54624	35169.8375
1580.88103	35180.5375
1584.2136	35041.6375
1587.54395	35235.7375
1590.87208	35779.9375
1594.19801	36557.8375
1597.52172	37457.7375
1600.84321	37726.2375
1604.16251	36869.5375
1607.47959	35522.9375
1610.79447	34029.1375
1614.10715	32376.9375
1617.41763	30992.1375
1620.7259	30007.8375
1624.03199	29445.7375
1627.33587	29387.9375
1630.63757	29759.2375
1633.93707	30658.2375
1637.23439	32174.7375
1640.52951	34353.6375
1643.82246	36806.5375
1647.11321	38716.9375
1650.40179	39046.9375
1653.68819	37522.5375
1656.97241	34681.4375
1660.25446	31769.8375
1663.53433	29510.8375
1666.81203	27982.1375
1670.08756	27023.7375
1673.36092	26377.9375
1676.63211	25980.3375
1679.90115	25651.7375
1683.16801	25393.3375
1686.43272	25232.2375
1689.69527	25086.4375
1692.95567	24963.0375
1696.2139	24890.5375
1699.46999	24787.7375
1702.72392	24776.7375
1705.97571	24768.8375
1709.22535	24710.1375
1712.47284	24698.2375
1715.71819	24708.3375
1718.96139	24694.9375
1722.20246	24563.0375
1725.44139	24555.4375
1728.67818	24449.0375
1731.91284	24353.6375
1735.14537	24243.3375
1738.37576	24169.3375
1741.60403	24107.0375
1744.83017	24044.9375
1748.05418	24020.1375
1751.27607	23957.9375
1754.49584	23956.3375
1757.71349	23906.5375
1760.92903	23863.9375
1764.14244	23855.1375
1767.35375	23892.2375
1770.56294	23826.8375
1773.77002	23766.7375
1776.97499	23747.6375
1780.17785	23684.4375
1783.37861	23702.1375
1786.57727	23660.5375
1789.77382	23658.5375
1792.96828	23602.2375
1796.16064	23574.2375
1799.3509	23509.1375
1802.53907	23517.4375
1805.72514	23418.3375
1808.90913	23377.6375
1812.09102	23325.5375
1815.27083	23278.1375
1818.44856	23256.7375
1821.6242	23241.7375
1824.79776	23198.4375
1827.96924	23241.8375
1831.13864	23179.6375
1834.30597	23168.6375
1837.47122	23217.7375
1840.6344	23222.3375
1843.7955	23243.5375
1846.95454	23233.5375
1850.11151	23192.2375
1853.26642	23181.7375
1856.41926	23170.8375
1859.57004	23162.8375
1862.71876	23126.8375
1865.86542	23107.6375
1869.01003	23127.7375
1872.15258	23025.7375
1875.29308	23037.8375
1878.43152	22963.9375
1881.56792	22959.1375
1884.70227	22898.1375
1887.83457	22870.4375
1890.96482	22860.0375
1894.09304	22780.1375
1897.21921	22768.6375
1900.34335	22711.0375
1903.46544	22688.8375
1906.58551	22694.3375
1909.70353	22608.1375
1912.81953	22592.8375
1915.93349	22552.9375
1919.04543	22460.1375
1922.15534	22415.3375
1925.26322	22362.4375
1928.36908	22343.0375
1931.47292	22271.2375
1934.57473	22214.4375
1937.67453	22156.6375
1940.77232	22101.4375
1943.86808	22049.3375
1946.96184	21999.5375
1950.05358	21958.9375
1953.14331	21885.0375
1956.23103	21807.2375
1959.31675	21744.1375
1962.40046	21658.8375
1965.48217	21616.8375
1968.56188	21563.0375
1971.63959	21480.4375
1974.7153	21434.0375
1977.78901	21305.8375
1980.86073	21235.7375
1983.93046	21188.3375
1986.99819	21094.5375
1990.06394	21036.7375
1993.1277	20988.9375
1996.18947	20978.9375
1999.24925	20894.2375
2002.30706	20821.9375
2005.36288	20770.9375
2008.41672	20693.7375
2011.46859	20629.5375
2014.51848	20626.1375
2017.56639	20537.7375
2020.61233	20504.7375
2023.6563	20461.2375
2026.6983	20385.9375
2029.73833	20377.4375
2032.7764	20312.5375
2035.8125	20286.8375
2038.84664	20272.4375
2041.87881	20254.0375
2044.90903	20271.5375
2047.93729	20180.9375
2050.96359	20211.8375
2053.98794	20162.0375
2057.01034	20138.7375
2060.03078	20177.4375
2063.04927	20147.9375
2066.06582	20145.8375
2069.08042	20174.5375
2072.09307	20155.6375
2075.10378	20145.2375
2078.11255	20152.4375
2081.11938	20158.3375
2084.12426	20131.6375
2087.12722	20112.4375
2090.12824	20133.3375
2093.12732	20115.7375
2096.12447	20087.1375
2099.11969	20090.5375
2102.11299	20113.6375
2105.10435	20068.4375
2108.09379	20075.1375
2111.08131	20047.7375
2114.0669	20050.3375
2117.05057	20055.1375
2120.03233	20024.9375
2123.01216	20037.5375
2125.99008	20050.1375
2128.96609	20032.1375
2131.94018	20005.3375
2134.91236	20025.8375
2137.88263	20043.7375
2140.851	20031.5375
2143.81746	20039.1375
2146.78201	20036.7375
2149.74466	20029.9375
2152.7054	20009.4375
2155.66425	20018.8375
2158.6212	19987.4375
2161.57625	19997.6375
2164.52941	19967.9375
2167.48067	19972.0375
2170.43004	19984.0375
2173.37752	19964.1375
2176.32311	19899.6375
2179.26681	19888.7375
2182.20863	19935.0375
2185.14856	19943.9375
2188.08661	19900.9375
2191.02278	19924.5375
2193.95707	19884.5375
2196.88948	19873.2375
2199.82001	19841.1375
2202.74867	19819.3375
2205.67545	19812.2375
2208.60037	19787.6375
2211.52341	19764.7375
2214.44458	19665.1375
2217.36388	19693.7375
2220.28132	19646.3375
2223.1969	19585.9375
2226.11061	19549.0375
2229.02246	19536.7375
2231.93245	19448.4375
2234.84058	19436.9375
2237.74686	19438.0375
2240.65128	19417.6375
2243.55385	19381.4375
2246.45456	19370.9375
2249.35343	19346.8375
2252.25044	19296.9375
2255.14561	19275.9375
2258.03893	19250.6375
2260.93041	19197.2375
2263.82004	19100.8375
2266.70783	19111.5375
2269.59378	19120.0375
2272.4779	19037.9375
2275.36017	19002.8375
2278.24061	18975.5375
2281.11922	18921.3375
2283.996	18891.5375
2286.87094	18865.3375
2289.74405	18791.1375
2292.61534	18757.8375
2295.4848	18737.0375
2298.35243	18729.9375
2301.21824	18707.4375
2304.08223	18721.7375
2306.94439	18671.6375
2309.80474	18655.7375
2312.66327	18643.0375
2315.51999	18599.5375
2318.37489	18596.9375
2321.22797	18591.5375
2324.07925	18548.2375
2326.92871	18541.6375
2329.77637	18510.0375
2332.62222	18459.2375
2335.46626	18443.6375
2338.3085	18397.4375
2341.14893	18386.0375
2343.98756	18340.6375
2346.8244	18370.4375
2349.65943	18338.8375
2352.49267	18299.8375
2355.32411	18282.1375
2358.15376	18279.2375
2360.98161	18262.9375
2363.80768	18231.0375
2366.63195	18212.6375
2369.45444	18204.5375
2372.27514	18182.9375
2375.09405	18165.0375
2377.91118	18146.8375
2380.72652	18079.5375
2383.54009	18060.3375
2386.35187	18064.3375
2389.16188	17980.7375
2391.97011	17955.2375
2394.77657	17921.9375
2397.58125	17867.8375
2400.38416	17877.7375
2403.18529	17806.5375
2405.98466	17804.4375
2408.78226	17775.2375
2411.57809	17755.7375
2414.37216	17733.0375
2417.16446	17717.8375
2419.955	17694.1375
2422.74378	17672.3375
2425.5308	17658.2375
2428.31606	17610.9375
2431.09956	17629.3375
2433.88131	17606.0375
2436.6613	17627.5375
2439.43954	17574.5375
2442.21603	17567.4375
2444.99077	17521.4375
2447.76377	17519.2375
2450.53501	17529.9375
2453.30451	17467.1375
2456.07226	17467.5375
2458.83827	17435.4375
2461.60254	17411.7375
2464.36507	17429.6375
2467.12586	17400.8375
2469.88492	17381.2375
2472.64224	17378.6375
2475.39782	17349.6375
2478.15167	17285.8375
2480.90379	17312.7375
2483.65417	17290.8375
2486.40283	17250.5375
2489.14976	17267.3375
2491.89497	17216.2375
2494.63845	17225.6375
2497.3802	17187.1375
2500.12024	17197.2375
2502.85855	17186.0375
2505.59514	17203.6375
2508.33002	17141.9375
2511.06318	17128.9375
2513.79462	17198.8375
2516.52435	17119.4375
2519.25237	17085.2375
2521.97867	17047.9375
2524.70327	17024.0375
2527.42616	17012.5375
2530.14734	17035.6375
2532.86681	16964.7375
2535.58458	16962.2375
2538.30065	16932.4375
2541.01501	16890.9375
2543.72768	16869.3375
2546.43864	16846.8375
2549.14791	16807.4375
2551.85548	16801.4375
2554.56136	16807.2375
2557.26554	16765.3375
2559.96803	16737.4375
2562.66883	16710.9375
2565.36794	16676.1375
2568.06536	16658.0375
2570.7611	16624.7375
2573.45514	16614.2375
2576.14751	16555.0375
2578.83819	16537.6375
2581.52719	16509.5375
2584.21451	16469.0375
2586.90015	16475.0375
2589.58411	16431.2375
2592.2664	16361.9375
2594.94701	16354.2375
2597.62594	16343.6375
2600.30321	16277.2375
2602.9788	16282.3375
2605.65273	16234.5375
2608.32498	16220.5375
2610.99557	16225.1375
2613.66449	16172.3375
2616.33175	16148.8375
2618.99734	16186.0375
2621.66128	16134.1375
2624.32355	16087.5375
2626.98416	16071.5375
2629.64311	16046.6375
2632.30041	16055.6375
2634.95605	16024.7375
2637.61004	16000.9375
2640.26238	16002.1375
2642.91306	15961.1375
2645.56209	15936.2375
2648.20948	15922.4375
2650.85521	15935.9375
2653.4993	15934.9375
2656.14175	15903.4375
2658.78255	15919.0375
2661.42171	15885.2375
2664.05923	15897.5375
2666.6951	15879.6375
2669.32934	15892.9375
2671.96194	15879.8375
2674.59291	15898.8375
2677.22224	15902.9375
2679.84993	15931.3375
2682.476	15884.1375
2685.10043	15878.0375
2687.72324	15870.5375
2690.34441	15836.5375
2692.96396	15861.0375
2695.58188	15864.5375
2698.19818	15815.0375
2700.81285	15851.2375
2703.4259	15826.7375
2706.03733	15814.3375
2708.64714	15808.2375
2711.25533	15843.8375
2713.86191	15828.5375
2716.46687	15808.7375
2719.07021	15822.0375
2721.67194	15821.0375
2724.27206	15770.9375
2726.87057	15804.7375
2729.46747	15796.6375
2732.06276	15798.4375
2734.65644	15795.3375
2737.24852	15759.2375
2739.83899	15753.9375
2742.42786	15731.4375
2745.01513	15718.6375
2747.60079	15720.4375
2750.18486	15682.7375
2752.76733	15698.3375
2755.3482	15662.0375
2757.92747	15667.8375
2760.50515	15650.8375
2763.08123	15634.8375
2765.65573	15578.7375
2768.22863	15603.1375
2770.79994	15555.4375
2773.36967	15580.5375
2775.9378	15521.9375
2778.50435	15499.0375
2781.06932	15444.5375
2783.6327	15432.1375
2786.1945	15428.6375
2788.75471	15396.5375
2791.31335	15350.5375
2793.87041	15324.6375
2796.42589	15297.0375
2798.97979	15266.7375
2801.53212	15238.5375
2804.08288	15195.0375
2806.63206	15166.2375
2809.17967	15133.6375
2811.72571	15098.9375
2814.27018	15078.0375
2816.81308	15064.2375
2819.35442	15049.5375
2821.89419	14994.8375
2824.43239	15009.8375
2826.96904	14979.0375
2829.50412	14923.3375
2832.03763	14913.2375
2834.56959	14899.4375
2837.1	14873.2375
2839.62884	14882.7375
2842.15613	14893.4375
2844.68186	14889.6375
2847.20604	14896.2375
2849.72867	14855.5375
2852.24974	14852.2375
2854.76927	14820.7375
2857.28724	14798.8375
2859.80367	14819.1375
2862.31855	14762.5375
2864.83189	14770.2375
2867.34368	14724.9375
2869.85393	14735.9375
2872.36264	14733.9375
2874.8698	14737.3375
2877.37543	14731.8375
2879.87952	14745.3375
2882.38207	14742.6375
2884.88308	14717.1375
2887.38256	14743.2375
2889.88051	14746.9375
2892.37692	14735.2375
2894.8718	14746.8375
2897.36515	14739.0375
2899.85698	14718.9375
2902.34727	14765.1375
2904.83604	14732.5375
2907.32328	14779.7375
2909.809	14731.7375
2912.29319	14743.9375
2914.77587	14724.6375
2917.25702	14730.6375
2919.73665	14727.1375
2922.21476	14728.7375
2924.69136	14694.5375
2927.16644	14722.2375
2929.64	14696.2375
2932.11205	14684.2375
2934.58258	14625.8375
2937.05161	14651.2375
2939.51912	14638.1375
2941.98513	14620.2375
2944.44962	14556.9375
2946.91261	14518.2375
2949.37409	14531.2375
2951.83407	14496.6375
2954.29254	14509.0375
2956.74951	14452.7375
2959.20498	14439.6375
2961.65895	14424.2375
2964.11142	14398.6375
2966.56239	14379.8375
2969.01186	14378.5375
2971.45984	14278.7375
2973.90632	14306.3375
2976.35131	14246.1375
2978.7948	14220.0375
2981.23681	14203.1375
2983.67732	14169.5375
2986.11635	14124.5375
2988.55388	14104.8375
2990.98993	14061.4375
2993.4245	14039.0375
2995.85758	14014.6375
2998.28917	13996.1375
3000.71928	13974.3375
3003.14791	13909.4375
3005.57506	13883.6375
3008.00073	13870.3375
3010.42493	13849.0375
3012.84764	13832.8375
3015.26888	13797.2375
3017.68865	13740.3375
3020.10694	13769.6375
3022.52376	13732.4375
3024.9391	13691.8375
3027.35298	13665.3375
3029.76539	13643.7375
3032.17632	13643.7375
3034.5858	13607.2375
3036.9938	13596.5375
3039.40034	13556.0375
3041.80542	13546.1375
3044.20903	13534.9375
3046.61118	13496.3375
3049.01187	13494.0375
3051.4111	13455.4375
3053.80888	13419.9375
3056.20519	13372.8375
3058.60005	13369.4375
3060.99345	13351.9375
3063.3854	13315.2375
3065.7759	13274.9375
3068.16494	13225.7375
3070.55254	13222.2375
3072.93868	13204.1375
3075.32338	13157.9375
3077.70662	13164.4375
3080.08842	13106.0375
3082.46878	13117.2375
3084.84769	13089.8375
3087.22515	13089.5375
3089.60118	13079.5375
3091.97576	13101.9375
3094.3489	13065.9375
3096.72061	13053.5375
3099.09087	13058.8375
3101.4597	13029.3375
3103.82709	12997.3375
3106.19305	12975.1375
3108.55757	12987.7375
3110.92066	12953.9375
3113.28232	12931.6375
3115.64255	12886.8375
3118.00134	12838.1375
3120.35871	12860.6375
3122.71466	12826.2375
3125.06917	12786.2375
3127.42226	12766.5375
3129.77393	12778.5375
3132.12417	12752.8375
3134.47299	12729.4375
3136.82039	12745.4375
3139.16636	12744.4375
3141.51092	12754.3375
3143.85406	12776.3375
3146.19579	12730.8375
3148.53609	12737.3375
3150.87499	12748.0375
3153.21246	12777.0375
3155.54853	12760.6375
3157.88318	12760.9375
3160.21642	12759.6375
3162.54826	12739.3375
3164.87868	12727.4375
3167.2077	12707.7375
3169.5353	12696.4375
3171.86151	12700.5375
3174.18631	12685.5375
3176.5097	12669.3375
3178.83169	12634.5375
3181.15228	12610.8375
3183.47147	12601.0375
3185.78926	12598.4375
3188.10565	12597.9375
3190.42065	12602.9375
3192.73424	12581.7375
3195.04645	12575.8375
3197.35725	12589.6375
3199.66667	12542.2375
3201.97469	12576.7375
3204.28132	12575.1375
3206.58656	12603.8375
3208.8904	12569.6375
3211.19287	12554.1375
3213.49394	12526.6375
3215.79363	12516.6375
3218.09193	12528.6375
3220.38884	12480.0375
3222.68438	12502.1375
3224.97853	12497.5375
3227.2713	12483.7375
3229.56269	12458.4375
3231.8527	12449.0375
3234.14133	12419.9375
3236.42858	12393.9375
3238.71446	12380.7375
3240.99896	12356.4375
3243.28209	12363.4375
3245.56384	12358.5375
3247.84423	12357.5375
3250.12324	12328.3375
3252.40088	12325.9375
3254.67715	12305.1375
3256.95205	12295.0375
3259.22558	12282.6375
3261.49775	12260.4375
3263.76855	12227.1375
3266.03799	12217.1375
3268.30606	12190.9375
3270.57277	12183.8375
3272.83812	12156.7375
3275.10211	12127.5375
3277.36474	12115.0375
3279.62601	12130.6375
3281.88593	12116.9375
3284.14448	12093.1375
3286.40168	12092.9375
3288.65753	12059.6375
3290.91202	12027.5375
3293.16516	11996.5375
3295.41695	11947.2375
3297.66738	11891.4375
3299.91647	11858.7375
3302.16421	11774.8375
3304.4106	11714.3375
3306.65564	11668.8375
3308.89933	11574.3375
3311.14169	11511.5375
3313.38269	11419.2375
3315.62236	11354.4375
3317.86068	11243.4375
3320.09766	11150.1375
3322.3333	11045.8375
3324.5676	11043.7375
3326.80056	10824.8375
3329.03219	10793.2375
3331.26248	2.7375
3333.49143	0.8375
3335.71905	-0.4625
