Data from AgNPs_FTO_APTES_UA_50uM_R6G_10uM_NaF_0.1M_Addition_RamanShift__17__14-56-07-417.txt Node

Date: Fri Dec 17 14:56:07 GMT 2021
User: TCL
Spectrometer: QEP01345
Trigger mode: 4
Integration Time (sec): 7.000000E0
Scans to average: 10
Electric dark correction enabled: true
Nonlinearity correction enabled: false
Boxcar width: 0
XAxis mode: Raman Shifts
Number of Pixels in Spectrum: 1044
>>>>>Begin Spectral Data<<<<<
46.04893	-0.0625
50.45542	0.1375
54.85868	-1.9625
59.25871	-0.2625
63.6555	88.7375
68.04907	89.7375
72.43941	96.6375
76.82654	99.9375
81.21044	102.9375
85.59113	109.0375
89.96862	114.0375
94.34289	118.8375
98.71396	121.7375
103.08183	118.7375
107.4465	127.7375
111.80798	130.1375
116.16626	133.1375
120.52136	134.8375
124.87327	143.5375
129.222	154.0375
133.56755	163.7375
137.90993	174.2375
142.24913	194.4375
146.58517	214.2375
150.91804	246.9375
155.24774	295.7375
159.57429	362.8375
163.89768	467.4375
168.21792	623.2375
172.53501	837.9375
176.84895	1168.3375
181.15975	1630.1375
185.46741	2288.2375
189.77193	3160.8375
194.07331	4223.8375
198.37157	5450.7375
202.6667	6705.4375
206.9587	7975.1375
211.24758	9192.3375
215.53334	10428.8375
219.81599	11721.9375
224.09553	13168.8375
228.37195	14787.8375
232.64527	16541.7375
236.91549	18479.3375
241.18261	20371.9375
245.44663	22120.2375
249.70755	23694.1375
253.96539	25078.7375
258.22014	26215.7375
262.4718	27146.9375
266.72039	27844.5375
270.96589	28201.7375
275.20832	28261.9375
279.44768	28111.1375
283.68397	27873.4375
287.91719	27632.6375
292.14735	27532.4375
296.37445	27492.1375
300.59849	27643.5375
304.81948	27747.3375
309.03742	27730.9375
313.25231	27396.7375
317.46415	26795.9375
321.67296	26067.3375
325.87872	25359.9375
330.08145	25055.1375
334.28114	25024.5375
338.47781	25164.7375
342.67145	25516.9375
346.86207	25878.2375
351.04966	26415.7375
355.23424	26968.6375
359.4158	27415.6375
363.59435	27771.6375
367.76989	28000.2375
371.94243	28192.3375
376.11196	28348.8375
380.27849	28505.1375
384.44203	28624.9375
388.60257	28797.8375
392.76012	29053.0375
396.91468	29382.2375
401.06626	29782.4375
405.21485	30123.3375
409.36047	29990.3375
413.50311	29518.0375
417.64277	29118.1375
421.77947	28996.8375
425.9132	29026.2375
430.04396	29172.8375
434.17176	29262.3375
438.2966	29484.9375
442.41849	29854.9375
446.53742	30514.9375
450.6534	31222.5375
454.76644	31812.8375
458.87653	32096.1375
462.98368	32087.7375
467.08789	31848.7375
471.18916	31473.4375
475.2875	31020.9375
479.38291	30743.2375
483.4754	30421.8375
487.56496	29985.7375
491.6516	29564.5375
495.73531	29282.2375
499.81612	29233.5375
503.89401	29430.6375
507.96899	29581.5375
512.04106	29594.8375
516.11023	29535.9375
520.1765	29368.5375
524.23987	29197.0375
528.30034	28924.4375
532.35792	28666.1375
536.41261	28420.0375
540.46441	28143.0375
544.51333	28071.3375
548.55936	28404.7375
552.60252	28909.6375
556.64279	29492.8375
560.6802	29893.2375
564.71473	30064.6375
568.7464	30416.1375
572.7752	30980.2375
576.80114	31412.8375
580.82422	31795.1375
584.84444	32140.3375
588.86181	32353.6375
592.87633	32596.0375
596.888	32761.6375
600.89682	32956.0375
604.9028	34191.5375
608.90594	37202.9375
612.90624	40173.1375
616.90371	37885.9375
620.89834	32035.7375
624.89015	29351.9375
628.87913	28950.3375
632.86528	29084.1375
636.84862	29167.6375
640.82913	28874.4375
644.80683	28206.9375
648.78172	27622.0375
652.75379	27465.4375
656.72306	27789.8375
660.68952	28209.4375
664.65319	28037.6375
668.61405	27623.7375
672.57211	27475.8375
676.52738	27571.2375
680.47986	27573.9375
684.42955	27424.2375
688.37646	27322.6375
692.32058	27366.5375
696.26192	27634.0375
700.20048	27892.9375
704.13626	28062.4375
708.06928	28024.1375
711.99952	27814.1375
715.927	27770.7375
719.85171	27721.8375
723.77365	27701.3375
727.69284	27442.2375
731.60928	27167.9375
735.52295	27070.1375
739.43388	27059.8375
743.34206	27162.6375
747.24749	27219.8375
751.15017	27418.6375
755.05012	27791.9375
758.94733	28576.9375
762.8418	29945.1375
766.73354	32220.8375
770.62254	34491.0375
774.50882	35234.1375
778.39237	33830.9375
782.27321	31359.6375
786.15132	29234.6375
790.02671	27973.4375
793.89938	27307.9375
797.76935	27110.6375
801.6366	26964.7375
805.50115	26888.0375
809.36299	26715.6375
813.22213	26507.7375
817.07857	26376.3375
820.93231	26250.9375
824.78336	26207.3375
828.63172	26135.5375
832.47738	26070.2375
836.32036	26074.4375
840.16066	26101.4375
843.99827	26129.6375
847.8332	26071.8375
851.66546	26023.9375
855.49504	26017.7375
859.32195	26027.9375
863.1462	26002.7375
866.96777	25903.1375
870.78668	25915.6375
874.60293	25890.7375
878.41652	25903.6375
882.22745	25974.5375
886.03573	26078.6375
889.84136	26089.0375
893.64433	26000.5375
897.44466	25880.7375
901.24235	25806.7375
905.0374	25669.7375
908.8298	25595.5375
912.61957	25548.2375
916.40671	25745.6375
920.19121	26024.2375
923.97308	26248.7375
927.75233	26284.7375
931.52895	26176.7375
935.30295	25924.7375
939.07433	25504.2375
942.84309	25178.2375
946.60924	24990.7375
950.37278	24910.1375
954.13371	24836.0375
957.89203	24812.6375
961.64774	24775.1375
965.40086	24665.0375
969.15137	24606.3375
972.89929	24590.9375
976.64461	24507.6375
980.38733	24563.4375
984.12747	24598.3375
987.86502	24765.7375
991.59999	25014.7375
995.33237	25407.7375
999.06217	25946.2375
1002.78939	26556.2375
1006.51404	27036.7375
1010.23611	27328.8375
1013.95561	27588.1375
1017.67255	27614.9375
1021.38692	27368.1375
1025.09872	27093.4375
1028.80796	27001.2375
1032.51465	27303.1375
1036.21877	27638.3375
1039.92035	27691.7375
1043.61937	27564.3375
1047.31584	27216.2375
1051.00976	26892.3375
1054.70114	26730.8375
1058.38998	26841.9375
1062.07627	27006.2375
1065.76003	27246.1375
1069.44126	27586.6375
1073.11995	27990.9375
1076.79611	28340.4375
1080.46974	28598.8375
1084.14085	28734.9375
1087.80943	28948.4375
1091.47549	29141.3375
1095.13903	29171.0375
1098.80005	28786.8375
1102.45857	28291.7375
1106.11456	27837.1375
1109.76805	27710.5375
1113.41903	27733.6375
1117.06751	27955.5375
1120.71348	28211.6375
1124.35696	28573.7375
1127.99793	28929.6375
1131.63641	29149.5375
1135.2724	28987.7375
1138.90589	28791.3375
1142.5369	28690.7375
1146.16542	28635.8375
1149.79145	28719.8375
1153.415	28849.8375
1157.03607	29216.0375
1160.65467	29922.4375
1164.27079	31000.4375
1167.88443	32505.2375
1171.49561	34339.0375
1175.10432	36778.1375
1178.71056	39681.3375
1182.31434	42571.4375
1185.91565	44304.2375
1189.51451	44679.2375
1193.11091	43768.7375
1196.70485	42122.0375
1200.29634	40171.3375
1203.88538	38578.5375
1207.47197	37202.6375
1211.05612	36095.8375
1214.63782	35269.7375
1218.21708	34772.4375
1221.79391	34488.0375
1225.36829	34429.8375
1228.94024	34151.2375
1232.50976	33844.6375
1236.07685	33470.9375
1239.6415	33312.2375
1243.20374	33263.7375
1246.76355	33417.8375
1250.32093	33849.2375
1253.8759	34499.2375
1257.42845	35376.5375
1260.97859	36354.4375
1264.52631	37279.3375
1268.07163	38309.0375
1271.61453	39248.3375
1275.15503	40260.9375
1278.69312	41222.3375
1282.22882	41969.9375
1285.76211	42678.6375
1289.29301	43490.4375
1292.82151	44611.3375
1296.34761	46121.2375
1299.87133	48123.9375
1303.39266	50562.4375
1306.9116	53310.9375
1310.42815	56119.6375
1313.94233	57963.5375
1317.45412	58281.8375
1320.96354	57601.6375
1324.47058	56707.5375
1327.97525	55922.7375
1331.47754	55378.5375
1334.97747	55331.7375
1338.47502	55668.3375
1341.97022	56142.7375
1345.46305	56224.4375
1348.95352	55956.6375
1352.44163	55506.6375
1355.92738	55692.9375
1359.41078	57029.5375
1362.89183	58554.8375
1366.37053	57352.1375
1369.84688	52875.4375
1373.32088	47732.4375
1376.79254	44125.9375
1380.26186	42444.4375
1383.72883	41941.2375
1387.19347	41698.2375
1390.65578	41303.7375
1394.11575	40990.7375
1397.57339	41160.5375
1401.0287	41681.4375
1404.48168	42308.9375
1407.93234	42648.1375
1411.38068	42403.0375
1414.82669	41549.1375
1418.27039	40248.7375
1421.71177	38867.9375
1425.15083	37697.7375
1428.58758	37137.7375
1432.02203	37196.6375
1435.45416	37773.7375
1438.88399	38600.1375
1442.31151	39392.7375
1445.73673	39930.2375
1449.15965	40349.9375
1452.58027	40736.8375
1455.9986	41104.6375
1459.41463	41526.0375
1462.82837	42233.9375
1466.23982	42912.7375
1469.64898	43616.4375
1473.05586	43940.2375
1476.46045	43908.4375
1479.86276	43678.8375
1483.26279	43318.5375
1486.66054	43038.8375
1490.05602	43178.9375
1493.44922	43453.7375
1496.84016	44053.0375
1500.22882	45189.9375
1503.61521	46835.1375
1506.99934	48811.6375
1510.38121	50368.6375
1513.76081	50786.6375
1517.13816	49590.4375
1520.51324	47375.6375
1523.88607	45200.9375
1527.25665	43845.6375
1530.62498	43189.6375
1533.99105	42906.0375
1537.35488	42681.4375
1540.71647	42257.5375
1544.07581	41679.6375
1547.4329	41084.5375
1550.78776	40521.0375
1554.14038	40124.5375
1557.49077	39968.4375
1560.83892	39811.3375
1564.18484	39831.1375
1567.52853	39912.8375
1570.86999	40091.9375
1574.20922	40498.1375
1577.54624	40847.9375
1580.88103	40714.3375
1584.2136	40486.2375
1587.54395	40842.2375
1590.87208	42096.4375
1594.19801	44254.1375
1597.52172	46509.6375
1600.84321	47489.2375
1604.16251	46207.7375
1607.47959	43684.7375
1610.79447	40763.0375
1614.10715	37722.7375
1617.41763	35047.3375
1620.7259	33011.9375
1624.03199	31864.0375
1627.33587	31609.3375
1630.63757	32202.8375
1633.93707	33845.5375
1637.23439	36703.6375
1640.52951	40442.9375
1643.82246	44581.7375
1647.11321	47618.3375
1650.40179	48104.8375
1653.68819	45360.6375
1656.97241	40309.8375
1660.25446	35173.3375
1663.53433	31234.9375
1666.81203	28597.1375
1670.08756	26968.9375
1673.36092	25881.7375
1676.63211	25130.9375
1679.90115	24630.7375
1683.16801	24217.6375
1686.43272	23907.6375
1689.69527	23681.7375
1692.95567	23515.2375
1696.2139	23392.5375
1699.46999	23296.8375
1702.72392	23197.6375
1705.97571	23090.2375
1709.22535	23017.6375
1712.47284	22977.6375
1715.71819	22943.2375
1718.96139	22834.7375
1722.20246	22763.5375
1725.44139	22609.4375
1728.67818	22487.3375
1731.91284	22400.6375
1735.14537	22254.7375
1738.37576	22174.9375
1741.60403	22078.1375
1744.83017	22024.7375
1748.05418	21955.1375
1751.27607	21890.5375
1754.49584	21853.1375
1757.71349	21849.0375
1760.92903	21825.7375
1764.14244	21715.3375
1767.35375	21770.4375
1770.56294	21749.1375
1773.77002	21691.1375
1776.97499	21651.1375
1780.17785	21610.9375
1783.37861	21582.7375
1786.57727	21570.5375
1789.77382	21535.4375
1792.96828	21446.9375
1796.16064	21416.8375
1799.3509	21360.2375
1802.53907	21325.9375
1805.72514	21258.2375
1808.90913	21229.5375
1812.09102	21212.1375
1815.27083	21130.3375
1818.44856	21102.5375
1821.6242	21079.8375
1824.79776	21014.4375
1827.96924	21037.8375
1831.13864	21036.4375
1834.30597	21057.0375
1837.47122	21021.9375
1840.6344	21008.1375
1843.7955	21052.7375
1846.95454	21018.9375
1850.11151	21030.1375
1853.26642	20998.7375
1856.41926	20998.4375
1859.57004	21014.6375
1862.71876	20979.9375
1865.86542	20965.6375
1869.01003	20968.8375
1872.15258	20946.1375
1875.29308	20903.1375
1878.43152	20864.3375
1881.56792	20869.7375
1884.70227	20840.7375
1887.83457	20821.3375
1890.96482	20825.6375
1894.09304	20750.8375
1897.21921	20764.2375
1900.34335	20806.9375
1903.46544	20760.8375
1906.58551	20713.0375
1909.70353	20677.0375
1912.81953	20656.6375
1915.93349	20624.3375
1919.04543	20550.4375
1922.15534	20499.2375
1925.26322	20444.6375
1928.36908	20446.1375
1931.47292	20399.3375
1934.57473	20275.9375
1937.67453	20244.3375
1940.77232	20201.9375
1943.86808	20102.7375
1946.96184	20059.8375
1950.05358	20032.3375
1953.14331	19978.8375
1956.23103	19907.3375
1959.31675	19863.8375
1962.40046	19816.3375
1965.48217	19746.1375
1968.56188	19703.7375
1971.63959	19628.9375
1974.7153	19570.7375
1977.78901	19524.6375
1980.86073	19486.7375
1983.93046	19394.1375
1986.99819	19332.9375
1990.06394	19279.4375
1993.1277	19212.0375
1996.18947	19153.0375
1999.24925	19145.2375
2002.30706	19069.0375
2005.36288	18982.9375
2008.41672	18919.7375
2011.46859	18905.4375
2014.51848	18858.4375
2017.56639	18807.8375
2020.61233	18766.4375
2023.6563	18737.1375
2026.6983	18683.6375
2029.73833	18634.3375
2032.7764	18585.0375
2035.8125	18580.3375
2038.84664	18527.2375
2041.87881	18495.6375
2044.90903	18522.4375
2047.93729	18425.6375
2050.96359	18423.0375
2053.98794	18435.4375
2057.01034	18377.2375
2060.03078	18373.9375
2063.04927	18339.5375
2066.06582	18374.7375
2069.08042	18323.6375
2072.09307	18354.6375
2075.10378	18335.2375
2078.11255	18276.3375
2081.11938	18303.0375
2084.12426	18249.6375
2087.12722	18251.6375
2090.12824	18246.2375
2093.12732	18261.6375
2096.12447	18279.1375
2099.11969	18241.0375
2102.11299	18261.6375
2105.10435	18296.6375
2108.09379	18264.8375
2111.08131	18314.2375
2114.0669	18313.0375
2117.05057	18320.8375
2120.03233	18364.1375
2123.01216	18344.2375
2125.99008	18372.4375
2128.96609	18346.4375
2131.94018	18386.7375
2134.91236	18387.2375
2137.88263	18406.6375
2140.851	18392.0375
2143.81746	18414.2375
2146.78201	18444.0375
2149.74466	18469.5375
2152.7054	18472.4375
2155.66425	18462.8375
2158.6212	18413.6375
2161.57625	18411.5375
2164.52941	18428.6375
2167.48067	18377.7375
2170.43004	18411.7375
2173.37752	18409.2375
2176.32311	18415.6375
2179.26681	18383.0375
2182.20863	18385.7375
2185.14856	18383.0375
2188.08661	18383.7375
2191.02278	18397.7375
2193.95707	18361.4375
2196.88948	18377.1375
2199.82001	18371.0375
2202.74867	18353.6375
2205.67545	18366.5375
2208.60037	18311.3375
2211.52341	18289.7375
2214.44458	18239.8375
2217.36388	18240.5375
2220.28132	18227.5375
2223.1969	18187.3375
2226.11061	18151.1375
2229.02246	18130.4375
2231.93245	18063.9375
2234.84058	18033.3375
2237.74686	18004.2375
2240.65128	17992.1375
2243.55385	17979.5375
2246.45456	17909.5375
2249.35343	17892.9375
2252.25044	17905.9375
2255.14561	17862.0375
2258.03893	17851.7375
2260.93041	17840.6375
2263.82004	17829.1375
2266.70783	17741.9375
2269.59378	17720.4375
2272.4779	17697.1375
2275.36017	17635.2375
2278.24061	17616.7375
2281.11922	17570.5375
2283.996	17555.8375
2286.87094	17468.8375
2289.74405	17478.1375
2292.61534	17447.4375
2295.4848	17463.2375
2298.35243	17455.5375
2301.21824	17442.6375
2304.08223	17452.9375
2306.94439	17425.9375
2309.80474	17439.7375
2312.66327	17422.2375
2315.51999	17414.9375
2318.37489	17419.6375
2321.22797	17410.3375
2324.07925	17394.4375
2326.92871	17384.2375
2329.77637	17387.6375
2332.62222	17357.3375
2335.46626	17335.3375
2338.3085	17324.9375
2341.14893	17330.3375
2343.98756	17333.3375
2346.8244	17338.8375
2349.65943	17314.1375
2352.49267	17309.5375
2355.32411	17319.8375
2358.15376	17334.2375
2360.98161	17325.7375
2363.80768	17288.6375
2366.63195	17251.8375
2369.45444	17263.7375
2372.27514	17221.1375
2375.09405	17184.8375
2377.91118	17154.2375
2380.72652	17140.1375
2383.54009	17104.2375
2386.35187	17086.5375
2389.16188	16999.1375
2391.97011	17007.4375
2394.77657	16951.9375
2397.58125	16952.8375
2400.38416	16951.9375
2403.18529	16925.1375
2405.98466	16862.2375
2408.78226	16829.4375
2411.57809	16802.9375
2414.37216	16798.1375
2417.16446	16809.4375
2419.955	16786.8375
2422.74378	16762.1375
2425.5308	16755.5375
2428.31606	16772.9375
2431.09956	16746.9375
2433.88131	16737.5375
2436.6613	16742.3375
2439.43954	16724.8375
2442.21603	16726.7375
2444.99077	16691.0375
2447.76377	16719.9375
2450.53501	16709.1375
2453.30451	16677.0375
2456.07226	16650.4375
2458.83827	16636.3375
2461.60254	16648.3375
2464.36507	16626.0375
2467.12586	16651.2375
2469.88492	16637.6375
2472.64224	16686.6375
2475.39782	16619.0375
2478.15167	16643.8375
2480.90379	16654.1375
2483.65417	16669.8375
2486.40283	16660.8375
2489.14976	16690.6375
2491.89497	16627.8375
2494.63845	16653.1375
2497.3802	16664.0375
2500.12024	16662.6375
2502.85855	16669.3375
2505.59514	16639.4375
2508.33002	16646.9375
2511.06318	16630.5375
2513.79462	16577.0375
2516.52435	16539.3375
2519.25237	16558.1375
2521.97867	16530.4375
2524.70327	16547.9375
2527.42616	16520.1375
2530.14734	16500.1375
2532.86681	16490.2375
2535.58458	16472.0375
2538.30065	16462.0375
2541.01501	16464.1375
2543.72768	16423.4375
2546.43864	16405.5375
2549.14791	16400.1375
2551.85548	16409.8375
2554.56136	16388.1375
2557.26554	16359.6375
2559.96803	16367.9375
2562.66883	16331.1375
2565.36794	16346.3375
2568.06536	16304.0375
2570.7611	16288.0375
2573.45514	16263.2375
2576.14751	16272.7375
2578.83819	16239.6375
2581.52719	16232.7375
2584.21451	16243.0375
2586.90015	16241.3375
2589.58411	16246.0375
2592.2664	16173.2375
2594.94701	16199.8375
2597.62594	16165.2375
2600.30321	16124.8375
2602.9788	16136.7375
2605.65273	16137.6375
2608.32498	16133.4375
2610.99557	16130.9375
2613.66449	16111.2375
2616.33175	16097.2375
2618.99734	16099.0375
2621.66128	16097.2375
2624.32355	16096.4375
2626.98416	16091.7375
2629.64311	16112.8375
2632.30041	16090.8375
2634.95605	16092.7375
2637.61004	16076.9375
2640.26238	16078.0375
2642.91306	16050.1375
2645.56209	16021.9375
2648.20948	16008.6375
2650.85521	16039.7375
2653.4993	16040.5375
2656.14175	15993.0375
2658.78255	16010.1375
2661.42171	16023.3375
2664.05923	16044.9375
2666.6951	16055.6375
2669.32934	16021.1375
2671.96194	16050.3375
2674.59291	16085.3375
2677.22224	16076.3375
2679.84993	16062.3375
2682.476	16071.8375
2685.10043	16070.9375
2687.72324	16050.4375
2690.34441	16054.0375
2692.96396	16072.2375
2695.58188	16062.4375
2698.19818	16028.4375
2700.81285	16081.4375
2703.4259	16050.3375
2706.03733	16036.5375
2708.64714	16049.6375
2711.25533	16057.1375
2713.86191	16071.0375
2716.46687	16095.9375
2719.07021	16091.4375
2721.67194	16118.2375
2724.27206	16011.7375
2726.87057	16071.7375
2729.46747	16077.1375
2732.06276	16056.2375
2734.65644	16069.1375
2737.24852	16091.4375
2739.83899	16058.2375
2742.42786	16067.6375
2745.01513	16036.9375
2747.60079	16041.1375
2750.18486	16065.1375
2752.76733	16056.8375
2755.3482	16005.1375
2757.92747	16006.6375
2760.50515	16017.0375
2763.08123	16019.8375
2765.65573	15964.2375
2768.22863	15982.5375
2770.79994	15977.8375
2773.36967	15982.2375
2775.9378	15950.4375
2778.50435	15976.6375
2781.06932	15926.0375
2783.6327	15957.3375
2786.1945	15916.9375
2788.75471	15914.1375
2791.31335	15859.5375
2793.87041	15823.6375
2796.42589	15816.0375
2798.97979	15801.5375
2801.53212	15768.2375
2804.08288	15778.0375
2806.63206	15735.1375
2809.17967	15681.2375
2811.72571	15703.6375
2814.27018	15682.9375
2816.81308	15658.7375
2819.35442	15660.7375
2821.89419	15608.4375
2824.43239	15616.4375
2826.96904	15617.9375
2829.50412	15607.8375
2832.03763	15538.6375
2834.56959	15539.5375
2837.1	15528.9375
2839.62884	15522.3375
2842.15613	15501.2375
2844.68186	15504.9375
2847.20604	15512.1375
2849.72867	15471.6375
2852.24974	15471.4375
2854.76927	15467.3375
2857.28724	15456.5375
2859.80367	15439.3375
2862.31855	15405.7375
2864.83189	15378.4375
2867.34368	15369.3375
2869.85393	15398.3375
2872.36264	15401.4375
2874.8698	15398.0375
2877.37543	15389.6375
2879.87952	15379.2375
2882.38207	15367.4375
2884.88308	15352.9375
2887.38256	15412.0375
2889.88051	15382.5375
2892.37692	15354.8375
2894.8718	15386.2375
2897.36515	15392.6375
2899.85698	15401.0375
2902.34727	15442.4375
2904.83604	15419.9375
2907.32328	15451.3375
2909.809	15461.7375
2912.29319	15480.9375
2914.77587	15460.9375
2917.25702	15430.1375
2919.73665	15444.0375
2922.21476	15457.3375
2924.69136	15441.2375
2927.16644	15405.4375
2929.64	15398.8375
2932.11205	15383.7375
2934.58258	15337.4375
2937.05161	15387.1375
2939.51912	15361.4375
2941.98513	15338.9375
2944.44962	15342.7375
2946.91261	15274.3375
2949.37409	15301.7375
2951.83407	15285.5375
2954.29254	15273.7375
2956.74951	15246.3375
2959.20498	15239.8375
2961.65895	15181.6375
2964.11142	15231.3375
2966.56239	15179.7375
2969.01186	15163.9375
2971.45984	15128.9375
2973.90632	15098.8375
2976.35131	15045.6375
2978.7948	14992.9375
2981.23681	14977.2375
2983.67732	14994.7375
2986.11635	14940.2375
2988.55388	14906.2375
2990.98993	14905.6375
2993.4245	14885.8375
2995.85758	14852.1375
2998.28917	14826.7375
3000.71928	14763.5375
3003.14791	14725.7375
3005.57506	14715.3375
3008.00073	14695.7375
3010.42493	14689.9375
3012.84764	14668.3375
3015.26888	14647.6375
3017.68865	14601.5375
3020.10694	14593.6375
3022.52376	14587.7375
3024.9391	14527.8375
3027.35298	14537.8375
3029.76539	14474.3375
3032.17632	14497.9375
3034.5858	14481.8375
3036.9938	14462.5375
3039.40034	14436.7375
3041.80542	14443.6375
3044.20903	14420.9375
3046.61118	14389.7375
3049.01187	14361.0375
3051.4111	14363.5375
3053.80888	14335.5375
3056.20519	14307.5375
3058.60005	14285.9375
3060.99345	14252.1375
3063.3854	14243.8375
3065.7759	14214.4375
3068.16494	14181.0375
3070.55254	14145.6375
3072.93868	14130.8375
3075.32338	14086.4375
3077.70662	14057.4375
3080.08842	14043.2375
3082.46878	14030.5375
3084.84769	13987.3375
3087.22515	14015.3375
3089.60118	13991.5375
3091.97576	13981.9375
3094.3489	13951.7375
3096.72061	13945.2375
3099.09087	13949.0375
3101.4597	13918.3375
3103.82709	13908.3375
3106.19305	13884.2375
3108.55757	13867.2375
3110.92066	13823.9375
3113.28232	13816.4375
3115.64255	13772.6375
3118.00134	13751.0375
3120.35871	13724.9375
3122.71466	13702.1375
3125.06917	13674.6375
3127.42226	13631.7375
3129.77393	13664.6375
3132.12417	13629.4375
3134.47299	13637.8375
3136.82039	13629.8375
3139.16636	13642.5375
3141.51092	13624.3375
3143.85406	13614.0375
3146.19579	13624.2375
3148.53609	13635.5375
3150.87499	13631.2375
3153.21246	13604.1375
3155.54853	13662.0375
3157.88318	13645.5375
3160.21642	13628.1375
3162.54826	13606.6375
3164.87868	13615.4375
3167.2077	13620.9375
3169.5353	13642.9375
3171.86151	13605.2375
3174.18631	13585.2375
3176.5097	13541.0375
3178.83169	13557.4375
3181.15228	13538.6375
3183.47147	13510.1375
3185.78926	13456.0375
3188.10565	13486.1375
3190.42065	13482.3375
3192.73424	13457.2375
3195.04645	13463.5375
3197.35725	13462.2375
3199.66667	13458.5375
3201.97469	13470.4375
3204.28132	13477.6375
3206.58656	13492.8375
3208.8904	13496.8375
3211.19287	13487.0375
3213.49394	13488.4375
3215.79363	13471.9375
3218.09193	13495.0375
3220.38884	13470.3375
3222.68438	13483.2375
3224.97853	13413.8375
3227.2713	13444.0375
3229.56269	13405.4375
3231.8527	13408.1375
3234.14133	13381.7375
3236.42858	13370.1375
3238.71446	13344.9375
3240.99896	13332.5375
3243.28209	13361.7375
3245.56384	13307.5375
3247.84423	13322.6375
3250.12324	13299.1375
3252.40088	13309.7375
3254.67715	13289.8375
3256.95205	13246.4375
3259.22558	13260.0375
3261.49775	13225.6375
3263.76855	13217.3375
3266.03799	13166.6375
3268.30606	13161.5375
3270.57277	13141.7375
3272.83812	13123.4375
3275.10211	13109.0375
3277.36474	13083.4375
3279.62601	13080.5375
3281.88593	13047.2375
3284.14448	13085.4375
3286.40168	13057.1375
3288.65753	13026.6375
3290.91202	13034.0375
3293.16516	12978.1375
3295.41695	12960.1375
3297.66738	12890.9375
3299.91647	12800.5375
3302.16421	12757.9375
3304.4106	12661.4375
3306.65564	12633.0375
3308.89933	12530.3375
3311.14169	12460.8375
3313.38269	12372.0375
3315.62236	12304.2375
3317.86068	12225.0375
3320.09766	12095.9375
3322.3333	11996.3375
3324.5676	11994.9375
3326.80056	11786.5375
3329.03219	11718.2375
3331.26248	5.0375
3333.49143	-0.2625
3335.71905	-1.0625
