Data from AgNPs_FTO_APTES_UA_2uM_R6G_10uM_NaF_0.1M_Addition_RamanShift__10__11-55-17-210.txt Node

Date: Fri Dec 17 11:55:17 GMT 2021
User: TCL
Spectrometer: QEP01345
Trigger mode: 4
Integration Time (sec): 7.000000E0
Scans to average: 10
Electric dark correction enabled: true
Nonlinearity correction enabled: false
Boxcar width: 0
XAxis mode: Raman Shifts
Number of Pixels in Spectrum: 1044
>>>>>Begin Spectral Data<<<<<
46.04893	-0.1875
50.45542	-0.8875
54.85868	-2.3875
59.25871	-0.0875
63.6555	119.4125
68.04907	120.2125
72.43941	128.7125
76.82654	133.6125
81.21044	138.5125
85.59113	143.9125
89.96862	149.2125
94.34289	154.7125
98.71396	157.1125
103.08183	158.9125
107.4465	170.0125
111.80798	169.4125
116.16626	177.3125
120.52136	178.7125
124.87327	186.1125
129.222	197.0125
133.56755	206.0125
137.90993	225.1125
142.24913	245.0125
146.58517	274.7125
150.91804	312.6125
155.24774	375.6125
159.57429	458.6125
163.89768	581.2125
168.21792	759.4125
172.53501	1021.3125
176.84895	1434.6125
181.15975	1991.8125
185.46741	2796.4125
189.77193	3858.5125
194.07331	5161.6125
198.37157	6653.3125
202.6667	8221.7125
206.9587	9835.4125
211.24758	11327.4125
215.53334	12840.0125
219.81599	14407.5125
224.09553	16194.1125
228.37195	18128.3125
232.64527	20303.7125
236.91549	22602.1125
241.18261	24933.9125
245.44663	27242.8125
249.70755	29304.9125
253.96539	31153.6125
258.22014	32609.1125
262.4718	33822.2125
266.72039	34673.3125
270.96589	34957.2125
275.20832	35007.5125
279.44768	34703.4125
283.68397	34317.5125
287.91719	33889.1125
292.14735	33545.8125
296.37445	33358.1125
300.59849	33193.3125
304.81948	33149.8125
309.03742	33110.3125
313.25231	32981.0125
317.46415	32715.2125
321.67296	32354.6125
325.87872	31953.0125
330.08145	31825.7125
334.28114	31885.0125
338.47781	32087.5125
342.67145	32426.9125
346.86207	32834.0125
351.04966	33358.0125
355.23424	33900.8125
359.4158	34342.2125
363.59435	34805.2125
367.76989	35075.3125
371.94243	35253.9125
376.11196	35417.7125
380.27849	35548.4125
384.44203	35717.1125
388.60257	35977.5125
392.76012	36326.7125
396.91468	36829.2125
401.06626	37329.7125
405.21485	37718.0125
409.36047	37710.1125
413.50311	37459.4125
417.64277	37350.0125
421.77947	37501.8125
425.9132	37732.6125
430.04396	37997.3125
434.17176	38122.5125
438.2966	38266.3125
442.41849	38569.0125
446.53742	39172.3125
450.6534	39800.0125
454.76644	40309.8125
458.87653	40565.5125
462.98368	40607.6125
467.08789	40362.1125
471.18916	40055.9125
475.2875	39603.0125
479.38291	39234.1125
483.4754	39033.5125
487.56496	38820.2125
491.6516	38551.0125
495.73531	38362.2125
499.81612	38312.5125
503.89401	38613.1125
507.96899	38755.5125
512.04106	38955.4125
516.11023	38830.4125
520.1765	38590.3125
524.23987	38326.6125
528.30034	37998.7125
532.35792	37773.5125
536.41261	37553.4125
540.46441	37354.0125
544.51333	37371.9125
548.55936	37627.0125
552.60252	38029.0125
556.64279	38498.8125
560.6802	38877.6125
564.71473	39073.9125
568.7464	39420.8125
572.7752	40049.5125
576.80114	40872.8125
580.82422	41942.3125
584.84444	43099.0125
588.86181	44314.0125
592.87633	45269.4125
596.888	45126.8125
600.89682	44239.8125
604.9028	44318.6125
608.90594	46330.5125
612.90624	48123.0125
616.90371	45900.7125
620.89834	41275.1125
624.89015	39164.4125
628.87913	38886.8125
632.86528	39133.2125
636.84862	39095.2125
640.82913	38697.2125
644.80683	38048.9125
648.78172	37660.3125
652.75379	37618.0125
656.72306	37925.2125
660.68952	38367.6125
664.65319	38280.4125
668.61405	37911.2125
672.57211	37985.0125
676.52738	38179.3125
680.47986	38072.5125
684.42955	37873.8125
688.37646	37762.7125
692.32058	37968.0125
696.26192	38432.0125
700.20048	38790.2125
704.13626	38998.8125
708.06928	38987.3125
711.99952	38822.1125
715.927	38712.8125
719.85171	38774.6125
723.77365	38661.5125
727.69284	38315.3125
731.60928	37897.5125
735.52295	37744.0125
739.43388	37687.0125
743.34206	37769.9125
747.24749	37949.2125
751.15017	38168.4125
755.05012	38617.0125
758.94733	39321.7125
762.8418	40500.5125
766.73354	42231.1125
770.62254	43767.8125
774.50882	44106.9125
778.39237	42942.7125
782.27321	41180.3125
786.15132	39765.7125
790.02671	38835.1125
793.89938	38308.0125
797.76935	38115.6125
801.6366	37978.8125
805.50115	37901.0125
809.36299	37790.5125
813.22213	37595.4125
817.07857	37405.1125
820.93231	37345.7125
824.78336	37222.7125
828.63172	37169.8125
832.47738	37093.6125
836.32036	37100.3125
840.16066	37099.2125
843.99827	37132.9125
847.8332	37165.4125
851.66546	37159.4125
855.49504	37235.4125
859.32195	37261.2125
863.1462	37266.1125
866.96777	37254.0125
870.78668	37272.8125
874.60293	37327.7125
878.41652	37382.4125
882.22745	37547.3125
886.03573	37682.3125
889.84136	37761.4125
893.64433	37698.4125
897.44466	37611.3125
901.24235	37470.5125
905.0374	37434.2125
908.8298	37430.9125
912.61957	37489.6125
916.40671	37652.0125
920.19121	37932.8125
923.97308	38236.7125
927.75233	38239.4125
931.52895	38058.0125
935.30295	37659.2125
939.07433	37271.4125
942.84309	36950.1125
946.60924	36763.5125
950.37278	36746.0125
954.13371	36667.1125
957.89203	36644.2125
961.64774	36589.0125
965.40086	36561.1125
969.15137	36530.5125
972.89929	36483.0125
976.64461	36389.4125
980.38733	36374.7125
984.12747	36440.6125
987.86502	36545.0125
991.59999	36659.7125
995.33237	36866.6125
999.06217	37285.2125
1002.78939	37847.9125
1006.51404	38435.7125
1010.23611	39035.4125
1013.95561	39368.5125
1017.67255	39446.2125
1021.38692	39076.3125
1025.09872	38691.3125
1028.80796	38300.1125
1032.51465	38174.2125
1036.21877	38197.5125
1039.92035	38339.8125
1043.61937	38421.6125
1047.31584	38392.0125
1051.00976	38390.5125
1054.70114	38490.4125
1058.38998	38675.4125
1062.07627	38978.9125
1065.76003	39447.2125
1069.44126	39847.3125
1073.11995	40419.0125
1076.79611	40973.0125
1080.46974	41217.0125
1084.14085	41411.4125
1087.80943	41536.8125
1091.47549	41736.6125
1095.13903	41749.4125
1098.80005	41445.1125
1102.45857	40845.3125
1106.11456	40214.8125
1109.76805	39760.4125
1113.41903	39657.1125
1117.06751	39618.9125
1120.71348	39772.6125
1124.35696	39943.9125
1127.99793	40163.7125
1131.63641	40366.6125
1135.2724	40340.5125
1138.90589	40311.8125
1142.5369	40308.0125
1146.16542	40496.1125
1149.79145	40635.9125
1153.415	40788.4125
1157.03607	41077.5125
1160.65467	41701.8125
1164.27079	42775.2125
1167.88443	44260.0125
1171.49561	45811.1125
1175.10432	47647.1125
1178.71056	49821.9125
1182.31434	52203.4125
1185.91565	53730.9125
1189.51451	54347.0125
1193.11091	54203.2125
1196.70485	53108.2125
1200.29634	51673.4125
1203.88538	50412.1125
1207.47197	49585.5125
1211.05612	49041.4125
1214.63782	48332.3125
1218.21708	47397.2125
1221.79391	46510.5125
1225.36829	45798.5125
1228.94024	45375.9125
1232.50976	45177.1125
1236.07685	45025.0125
1239.6415	44846.3125
1243.20374	44905.2125
1246.76355	45187.9125
1250.32093	45643.4125
1253.8759	46342.2125
1257.42845	47220.7125
1260.97859	48274.3125
1264.52631	49379.2125
1268.07163	50397.0125
1271.61453	51401.8125
1275.15503	52285.1125
1278.69312	53106.8125
1282.22882	53875.9125
1285.76211	54777.6125
1289.29301	55856.0125
1292.82151	57111.9125
1296.34761	58621.7125
1299.87133	60553.6125
1303.39266	62652.0125
1306.9116	64630.9125
1310.42815	66228.8125
1313.94233	67144.8125
1317.45412	67142.8125
1320.96354	66715.0125
1324.47058	66653.1125
1327.97525	66692.4125
1331.47754	66899.5125
1334.97747	67241.0125
1338.47502	67506.3125
1341.97022	67734.1125
1345.46305	67618.2125
1348.95352	67257.8125
1352.44163	66903.5125
1355.92738	66695.1125
1359.41078	67160.5125
1362.89183	67596.3125
1366.37053	66448.0125
1369.84688	63090.4125
1373.32088	58725.0125
1376.79254	55328.6125
1380.26186	53711.6125
1383.72883	53393.1125
1387.19347	53289.1125
1390.65578	52816.1125
1394.11575	52537.1125
1397.57339	52591.5125
1401.0287	52960.0125
1404.48168	53371.6125
1407.93234	53610.3125
1411.38068	53228.5125
1414.82669	52378.1125
1418.27039	51177.1125
1421.71177	49870.6125
1425.15083	48887.2125
1428.58758	48592.3125
1432.02203	48900.1125
1435.45416	49752.9125
1438.88399	50725.0125
1442.31151	51448.9125
1445.73673	51654.4125
1449.15965	51759.3125
1452.58027	51764.0125
1455.9986	51760.8125
1459.41463	52021.8125
1462.82837	52716.5125
1466.23982	53538.8125
1469.64898	54156.2125
1473.05586	54485.8125
1476.46045	54560.1125
1479.86276	54343.0125
1483.26279	54095.1125
1486.66054	54010.9125
1490.05602	54147.1125
1493.44922	54517.0125
1496.84016	55055.0125
1500.22882	55799.1125
1503.61521	56743.6125
1506.99934	57817.6125
1510.38121	58530.7125
1513.76081	58427.0125
1517.13816	57534.5125
1520.51324	56423.6125
1523.88607	55599.5125
1527.25665	55163.2125
1530.62498	55053.6125
1533.99105	54871.0125
1537.35488	54381.5125
1540.71647	53619.7125
1544.07581	52711.7125
1547.4329	51835.5125
1550.78776	51145.8125
1554.14038	50627.2125
1557.49077	50296.6125
1560.83892	50172.8125
1564.18484	50049.5125
1567.52853	49996.1125
1570.86999	50156.3125
1574.20922	50698.5125
1577.54624	51290.6125
1580.88103	51591.0125
1584.2136	51928.0125
1587.54395	52843.7125
1590.87208	54398.8125
1594.19801	56605.6125
1597.52172	58598.9125
1600.84321	59175.1125
1604.16251	57463.5125
1607.47959	54538.2125
1610.79447	51385.5125
1614.10715	48358.4125
1617.41763	45670.3125
1620.7259	43707.8125
1624.03199	42764.0125
1627.33587	42699.8125
1630.63757	43449.8125
1633.93707	45322.8125
1637.23439	48500.5125
1640.52951	52903.7125
1643.82246	57716.0125
1647.11321	61146.3125
1650.40179	61108.9125
1653.68819	57367.4125
1656.97241	51659.2125
1660.25446	46344.0125
1663.53433	42380.4125
1666.81203	39905.9125
1670.08756	38273.8125
1673.36092	37227.2125
1676.63211	36504.3125
1679.90115	36011.0125
1683.16801	35624.6125
1686.43272	35339.7125
1689.69527	35161.1125
1692.95567	34943.2125
1696.2139	34807.6125
1699.46999	34677.4125
1702.72392	34621.6125
1705.97571	34576.7125
1709.22535	34541.7125
1712.47284	34524.6125
1715.71819	34492.9125
1718.96139	34481.0125
1722.20246	34368.5125
1725.44139	34244.8125
1728.67818	34092.8125
1731.91284	33975.5125
1735.14537	33838.9125
1738.37576	33680.5125
1741.60403	33603.2125
1744.83017	33467.5125
1748.05418	33410.7125
1751.27607	33379.7125
1754.49584	33308.6125
1757.71349	33290.7125
1760.92903	33247.2125
1764.14244	33224.1125
1767.35375	33259.6125
1770.56294	33202.0125
1773.77002	33184.2125
1776.97499	33136.3125
1780.17785	33069.0125
1783.37861	33019.4125
1786.57727	33021.6125
1789.77382	32940.4125
1792.96828	32854.8125
1796.16064	32816.2125
1799.3509	32814.4125
1802.53907	32773.2125
1805.72514	32660.9125
1808.90913	32629.5125
1812.09102	32589.0125
1815.27083	32520.4125
1818.44856	32496.8125
1821.6242	32462.7125
1824.79776	32429.7125
1827.96924	32441.1125
1831.13864	32455.1125
1834.30597	32478.7125
1837.47122	32504.6125
1840.6344	32449.5125
1843.7955	32437.4125
1846.95454	32474.8125
1850.11151	32467.0125
1853.26642	32448.9125
1856.41926	32335.4125
1859.57004	32343.3125
1862.71876	32372.4125
1865.86542	32308.5125
1869.01003	32252.1125
1872.15258	32206.1125
1875.29308	32175.8125
1878.43152	32134.0125
1881.56792	32045.9125
1884.70227	32046.2125
1887.83457	32010.9125
1890.96482	31926.6125
1894.09304	31945.4125
1897.21921	31919.6125
1900.34335	31837.1125
1903.46544	31809.9125
1906.58551	31761.2125
1909.70353	31712.5125
1912.81953	31689.9125
1915.93349	31619.9125
1919.04543	31547.0125
1922.15534	31511.7125
1925.26322	31440.3125
1928.36908	31342.8125
1931.47292	31328.6125
1934.57473	31242.8125
1937.67453	31127.8125
1940.77232	31084.2125
1943.86808	31014.0125
1946.96184	30955.6125
1950.05358	30903.4125
1953.14331	30794.8125
1956.23103	30718.3125
1959.31675	30630.4125
1962.40046	30547.7125
1965.48217	30425.6125
1968.56188	30413.9125
1971.63959	30329.0125
1974.7153	30212.5125
1977.78901	30129.1125
1980.86073	30011.0125
1983.93046	29983.3125
1986.99819	29845.5125
1990.06394	29738.6125
1993.1277	29666.7125
1996.18947	29562.5125
1999.24925	29545.8125
2002.30706	29391.9125
2005.36288	29319.0125
2008.41672	29235.8125
2011.46859	29200.1125
2014.51848	29134.1125
2017.56639	29033.7125
2020.61233	28997.8125
2023.6563	28942.1125
2026.6983	28883.9125
2029.73833	28829.5125
2032.7764	28711.7125
2035.8125	28721.5125
2038.84664	28644.7125
2041.87881	28623.5125
2044.90903	28594.8125
2047.93729	28500.0125
2050.96359	28485.5125
2053.98794	28427.5125
2057.01034	28420.9125
2060.03078	28395.0125
2063.04927	28332.7125
2066.06582	28353.2125
2069.08042	28359.9125
2072.09307	28325.3125
2075.10378	28279.0125
2078.11255	28244.5125
2081.11938	28232.9125
2084.12426	28232.0125
2087.12722	28253.0125
2090.12824	28274.7125
2093.12732	28266.1125
2096.12447	28294.9125
2099.11969	28286.6125
2102.11299	28295.1125
2105.10435	28271.8125
2108.09379	28329.9125
2111.08131	28346.6125
2114.0669	28420.7125
2117.05057	28395.1125
2120.03233	28407.3125
2123.01216	28413.1125
2125.99008	28441.6125
2128.96609	28458.5125
2131.94018	28502.8125
2134.91236	28502.0125
2137.88263	28522.7125
2140.851	28473.5125
2143.81746	28572.3125
2146.78201	28514.8125
2149.74466	28562.2125
2152.7054	28523.6125
2155.66425	28523.4125
2158.6212	28546.9125
2161.57625	28532.4125
2164.52941	28527.4125
2167.48067	28536.5125
2170.43004	28545.7125
2173.37752	28508.3125
2176.32311	28501.1125
2179.26681	28517.9125
2182.20863	28495.5125
2185.14856	28485.2125
2188.08661	28522.1125
2191.02278	28494.7125
2193.95707	28473.4125
2196.88948	28469.7125
2199.82001	28474.2125
2202.74867	28388.1125
2205.67545	28379.1125
2208.60037	28337.2125
2211.52341	28292.4125
2214.44458	28258.2125
2217.36388	28206.7125
2220.28132	28124.9125
2223.1969	28067.8125
2226.11061	28096.2125
2229.02246	28019.4125
2231.93245	27991.1125
2234.84058	27923.0125
2237.74686	27920.1125
2240.65128	27867.9125
2243.55385	27835.3125
2246.45456	27817.8125
2249.35343	27756.4125
2252.25044	27716.4125
2255.14561	27677.9125
2258.03893	27653.5125
2260.93041	27557.4125
2263.82004	27553.6125
2266.70783	27479.1125
2269.59378	27434.4125
2272.4779	27400.7125
2275.36017	27337.7125
2278.24061	27283.2125
2281.11922	27216.8125
2283.996	27154.0125
2286.87094	27146.2125
2289.74405	27073.4125
2292.61534	27074.7125
2295.4848	27051.9125
2298.35243	27032.9125
2301.21824	27024.6125
2304.08223	27047.1125
2306.94439	26989.0125
2309.80474	26957.2125
2312.66327	26972.4125
2315.51999	26924.3125
2318.37489	26910.5125
2321.22797	26885.6125
2324.07925	26891.4125
2326.92871	26834.7125
2329.77637	26770.1125
2332.62222	26730.8125
2335.46626	26714.3125
2338.3085	26644.3125
2341.14893	26665.4125
2343.98756	26670.6125
2346.8244	26611.1125
2349.65943	26618.0125
2352.49267	26591.7125
2355.32411	26597.4125
2358.15376	26549.5125
2360.98161	26530.9125
2363.80768	26511.0125
2366.63195	26472.8125
2369.45444	26470.9125
2372.27514	26426.0125
2375.09405	26422.7125
2377.91118	26366.6125
2380.72652	26296.4125
2383.54009	26242.0125
2386.35187	26243.2125
2389.16188	26137.5125
2391.97011	26130.2125
2394.77657	26062.6125
2397.58125	26040.6125
2400.38416	25997.2125
2403.18529	25952.3125
2405.98466	25952.5125
2408.78226	25933.7125
2411.57809	25863.1125
2414.37216	25872.4125
2417.16446	25862.5125
2419.955	25779.8125
2422.74378	25782.5125
2425.5308	25755.0125
2428.31606	25751.3125
2431.09956	25730.7125
2433.88131	25696.5125
2436.6613	25711.3125
2439.43954	25681.5125
2442.21603	25704.5125
2444.99077	25653.6125
2447.76377	25631.5125
2450.53501	25626.5125
2453.30451	25628.4125
2456.07226	25657.4125
2458.83827	25582.3125
2461.60254	25574.8125
2464.36507	25543.8125
2467.12586	25503.6125
2469.88492	25470.0125
2472.64224	25461.3125
2475.39782	25431.1125
2478.15167	25447.0125
2480.90379	25438.9125
2483.65417	25408.2125
2486.40283	25375.3125
2489.14976	25393.8125
2491.89497	25344.4125
2494.63845	25359.4125
2497.3802	25344.8125
2500.12024	25317.5125
2502.85855	25360.5125
2505.59514	25288.3125
2508.33002	25271.2125
2511.06318	25268.6125
2513.79462	25239.9125
2516.52435	25216.6125
2519.25237	25206.4125
2521.97867	25180.3125
2524.70327	25160.6125
2527.42616	25152.6125
2530.14734	25132.9125
2532.86681	25054.3125
2535.58458	25080.8125
2538.30065	25046.3125
2541.01501	25041.6125
2543.72768	24950.9125
2546.43864	24946.9125
2549.14791	24929.3125
2551.85548	24886.9125
2554.56136	24828.8125
2557.26554	24810.5125
2559.96803	24778.9125
2562.66883	24764.0125
2565.36794	24740.0125
2568.06536	24718.6125
2570.7611	24682.8125
2573.45514	24654.3125
2576.14751	24596.0125
2578.83819	24539.1125
2581.52719	24555.1125
2584.21451	24509.6125
2586.90015	24507.3125
2589.58411	24450.4125
2592.2664	24408.0125
2594.94701	24350.6125
2597.62594	24345.2125
2600.30321	24285.5125
2602.9788	24311.3125
2605.65273	24258.5125
2608.32498	24253.0125
2610.99557	24222.9125
2613.66449	24215.2125
2616.33175	24161.3125
2618.99734	24163.3125
2621.66128	24136.4125
2624.32355	24126.4125
2626.98416	24056.8125
2629.64311	24041.9125
2632.30041	24078.2125
2634.95605	24004.6125
2637.61004	23978.6125
2640.26238	23975.5125
2642.91306	23937.5125
2645.56209	23933.3125
2648.20948	23948.4125
2650.85521	23944.5125
2653.4993	23942.1125
2656.14175	23898.0125
2658.78255	23951.6125
2661.42171	23921.3125
2664.05923	23945.2125
2666.6951	23895.9125
2669.32934	23921.4125
2671.96194	23891.0125
2674.59291	23951.3125
2677.22224	23951.2125
2679.84993	23912.4125
2682.476	23895.9125
2685.10043	23952.3125
2687.72324	23888.3125
2690.34441	23950.6125
2692.96396	23860.8125
2695.58188	23914.7125
2698.19818	23882.0125
2700.81285	23890.9125
2703.4259	23900.4125
2706.03733	23913.5125
2708.64714	23896.3125
2711.25533	23920.7125
2713.86191	23911.7125
2716.46687	23926.7125
2719.07021	23900.9125
2721.67194	23894.5125
2724.27206	23891.6125
2726.87057	23867.4125
2729.46747	23903.9125
2732.06276	23898.8125
2734.65644	23879.6125
2737.24852	23904.1125
2739.83899	23889.7125
2742.42786	23895.1125
2745.01513	23836.1125
2747.60079	23788.5125
2750.18486	23809.5125
2752.76733	23800.1125
2755.3482	23753.9125
2757.92747	23763.1125
2760.50515	23714.2125
2763.08123	23682.2125
2765.65573	23663.7125
2768.22863	23632.8125
2770.79994	23648.9125
2773.36967	23649.1125
2775.9378	23601.2125
2778.50435	23551.9125
2781.06932	23519.4125
2783.6327	23516.4125
2786.1945	23478.3125
2788.75471	23468.4125
2791.31335	23386.1125
2793.87041	23371.3125
2796.42589	23279.9125
2798.97979	23298.5125
2801.53212	23200.1125
2804.08288	23223.5125
2806.63206	23133.5125
2809.17967	23118.7125
2811.72571	23030.1125
2814.27018	23030.7125
2816.81308	22992.1125
2819.35442	22947.5125
2821.89419	22851.1125
2824.43239	22853.5125
2826.96904	22854.0125
2829.50412	22844.5125
2832.03763	22763.3125
2834.56959	22745.8125
2837.1	22757.0125
2839.62884	22698.1125
2842.15613	22646.9125
2844.68186	22661.1125
2847.20604	22662.3125
2849.72867	22683.4125
2852.24974	22626.7125
2854.76927	22637.1125
2857.28724	22585.8125
2859.80367	22548.6125
2862.31855	22492.9125
2864.83189	22517.0125
2867.34368	22484.5125
2869.85393	22506.3125
2872.36264	22436.8125
2874.8698	22422.9125
2877.37543	22434.5125
2879.87952	22482.5125
2882.38207	22462.7125
2884.88308	22429.6125
2887.38256	22466.3125
2889.88051	22427.5125
2892.37692	22478.4125
2894.8718	22412.9125
2897.36515	22481.7125
2899.85698	22413.3125
2902.34727	22502.2125
2904.83604	22473.0125
2907.32328	22502.2125
2909.809	22495.0125
2912.29319	22510.9125
2914.77587	22490.7125
2917.25702	22506.6125
2919.73665	22449.9125
2922.21476	22471.8125
2924.69136	22392.7125
2927.16644	22437.8125
2929.64	22374.9125
2932.11205	22369.9125
2934.58258	22301.0125
2937.05161	22356.4125
2939.51912	22373.0125
2941.98513	22345.8125
2944.44962	22237.2125
2946.91261	22174.6125
2949.37409	22229.7125
2951.83407	22184.8125
2954.29254	22177.1125
2956.74951	22171.9125
2959.20498	22123.2125
2961.65895	22104.3125
2964.11142	22085.0125
2966.56239	22034.8125
2969.01186	21997.7125
2971.45984	21969.3125
2973.90632	21932.3125
2976.35131	21909.0125
2978.7948	21865.7125
2981.23681	21829.4125
2983.67732	21780.4125
2986.11635	21713.8125
2988.55388	21665.2125
2990.98993	21666.5125
2993.4245	21589.5125
2995.85758	21548.9125
2998.28917	21478.4125
3000.71928	21470.2125
3003.14791	21453.9125
3005.57506	21446.0125
3008.00073	21355.8125
3010.42493	21325.3125
3012.84764	21321.5125
3015.26888	21266.2125
3017.68865	21235.0125
3020.10694	21251.2125
3022.52376	21163.6125
3024.9391	21150.0125
3027.35298	21089.6125
3029.76539	21086.0125
3032.17632	21053.6125
3034.5858	20957.2125
3036.9938	20950.8125
3039.40034	20953.2125
3041.80542	20909.4125
3044.20903	20881.4125
3046.61118	20886.8125
3049.01187	20811.2125
3051.4111	20833.4125
3053.80888	20736.3125
3056.20519	20722.0125
3058.60005	20663.1125
3060.99345	20632.7125
3063.3854	20608.4125
3065.7759	20530.0125
3068.16494	20513.2125
3070.55254	20427.8125
3072.93868	20419.3125
3075.32338	20353.0125
3077.70662	20328.7125
3080.08842	20291.1125
3082.46878	20254.9125
3084.84769	20211.2125
3087.22515	20211.7125
3089.60118	20195.9125
3091.97576	20197.3125
3094.3489	20166.8125
3096.72061	20143.0125
3099.09087	20157.2125
3101.4597	20122.8125
3103.82709	20106.6125
3106.19305	20066.2125
3108.55757	20062.2125
3110.92066	19943.0125
3113.28232	19943.6125
3115.64255	19881.6125
3118.00134	19816.2125
3120.35871	19843.3125
3122.71466	19771.2125
3125.06917	19724.3125
3127.42226	19662.6125
3129.77393	19675.1125
3132.12417	19648.2125
3134.47299	19667.2125
3136.82039	19631.9125
3139.16636	19652.8125
3141.51092	19642.7125
3143.85406	19634.3125
3146.19579	19651.7125
3148.53609	19620.7125
3150.87499	19650.5125
3153.21246	19621.8125
3155.54853	19627.5125
3157.88318	19576.8125
3160.21642	19593.5125
3162.54826	19572.5125
3164.87868	19537.5125
3167.2077	19520.0125
3169.5353	19529.9125
3171.86151	19485.3125
3174.18631	19467.7125
3176.5097	19438.9125
3178.83169	19394.0125
3181.15228	19421.5125
3183.47147	19352.0125
3185.78926	19331.4125
3188.10565	19318.9125
3190.42065	19310.7125
3192.73424	19320.7125
3195.04645	19293.5125
3197.35725	19300.8125
3199.66667	19287.8125
3201.97469	19277.8125
3204.28132	19295.8125
3206.58656	19296.8125
3208.8904	19288.8125
3211.19287	19277.8125
3213.49394	19257.3125
3215.79363	19241.8125
3218.09193	19252.0125
3220.38884	19203.6125
3222.68438	19199.8125
3224.97853	19161.4125
3227.2713	19140.1125
3229.56269	19084.2125
3231.8527	19097.6125
3234.14133	19055.1125
3236.42858	18979.7125
3238.71446	18984.2125
3240.99896	18969.2125
3243.28209	18940.5125
3245.56384	18942.0125
3247.84423	18928.3125
3250.12324	18929.6125
3252.40088	18947.8125
3254.67715	18914.5125
3256.95205	18846.7125
3259.22558	18809.4125
3261.49775	18785.3125
3263.76855	18763.1125
3266.03799	18688.0125
3268.30606	18652.0125
3270.57277	18646.2125
3272.83812	18578.8125
3275.10211	18551.7125
3277.36474	18549.8125
3279.62601	18565.7125
3281.88593	18520.5125
3284.14448	18541.0125
3286.40168	18491.2125
3288.65753	18488.7125
3290.91202	18457.0125
3293.16516	18392.9125
3295.41695	18341.0125
3297.66738	18231.1125
3299.91647	18132.9125
3302.16421	18045.4125
3304.4106	17965.3125
3306.65564	17878.7125
3308.89933	17774.5125
3311.14169	17641.3125
3313.38269	17514.5125
3315.62236	17418.3125
3317.86068	17296.4125
3320.09766	17114.4125
3322.3333	16971.8125
3324.5676	16929.5125
3326.80056	16643.9125
3329.03219	16566.6125
3331.26248	4.8125
3333.49143	0.9125
3335.71905	-0.4875
