Data from AgNPs_FTO_APTES_UA_200uM_R6G_10uM_NaF_0.1M_Addition_RamanShift__20__16-23-37-516.txt Node

Date: Fri Dec 17 16:23:37 GMT 2021
User: TCL
Spectrometer: QEP01345
Trigger mode: 4
Integration Time (sec): 7.000000E0
Scans to average: 10
Electric dark correction enabled: true
Nonlinearity correction enabled: false
Boxcar width: 0
XAxis mode: Raman Shifts
Number of Pixels in Spectrum: 1044
>>>>>Begin Spectral Data<<<<<
46.04893	1.2
50.45542	-1.4
54.85868	-1.3
59.25871	2.2
63.6555	44.8
68.04907	48.9
72.43941	47.8
76.82654	55.3
81.21044	53.2
85.59113	58
89.96862	61.9
94.34289	61.8
98.71396	63.6
103.08183	65.4
107.4465	70.2
111.80798	66
116.16626	71
120.52136	69
124.87327	76.3
129.222	80.9
133.56755	80.4
137.90993	85.4
142.24913	96.9
146.58517	100.5
150.91804	116.7
155.24774	137
159.57429	172.6
163.89768	216.7
168.21792	281.6
172.53501	380.8
176.84895	531.6
181.15975	744.4
185.46741	1044.5
189.77193	1437.6
194.07331	1942
198.37157	2491.9
202.6667	3099.8
206.9587	3681.6
211.24758	4261.6
215.53334	4836.8
219.81599	5450.6
224.09553	6112.6
228.37195	6837.3
232.64527	7649.2
236.91549	8554
241.18261	9435.1
245.44663	10295.4
249.70755	11029.5
253.96539	11660.1
258.22014	12220.6
262.4718	12628.9
266.72039	12925.6
270.96589	13109
275.20832	13082.6
279.44768	13006.3
283.68397	12799.7
287.91719	12585.5
292.14735	12478.9
296.37445	12439.4
300.59849	12540.8
304.81948	12612.3
309.03742	12574.6
313.25231	12454.2
317.46415	12135.4
321.67296	11784.7
325.87872	11508
330.08145	11422.5
334.28114	11448.8
338.47781	11551.9
342.67145	11703.3
346.86207	11933.1
351.04966	12197.6
355.23424	12502.6
359.4158	12759.2
363.59435	12970.2
367.76989	13152
371.94243	13290.9
376.11196	13371.9
380.27849	13477.6
384.44203	13571.4
388.60257	13571
392.76012	13633.2
396.91468	13720
401.06626	13894.3
405.21485	13993.4
409.36047	13929.9
413.50311	13680.5
417.64277	13410.6
421.77947	13215.8
425.9132	13148.4
430.04396	13138.5
434.17176	13164.6
438.2966	13225.4
442.41849	13317.2
446.53742	13467.9
450.6534	13636
454.76644	13769.6
458.87653	13875.5
462.98368	13914.5
467.08789	13884.4
471.18916	13852.4
475.2875	13786
479.38291	13727.7
483.4754	13672.3
487.56496	13598.2
491.6516	13574
495.73531	13576.5
499.81612	13603.1
503.89401	13653
507.96899	13677.2
512.04106	13762
516.11023	13840.9
520.1765	13957.7
524.23987	13944.6
528.30034	13905
532.35792	13840.5
536.41261	13801.5
540.46441	13694.4
544.51333	13619.7
548.55936	13578.7
552.60252	13610.8
556.64279	13664.6
560.6802	13703.5
564.71473	13690.9
568.7464	13747
572.7752	13791.9
576.80114	13740.3
580.82422	13664
584.84444	13648
588.86181	13691.2
592.87633	13722.5
596.888	13744.5
600.89682	14009.8
604.9028	14656
608.90594	16276.4
612.90624	18306.6
616.90371	17896.4
620.89834	15257.2
624.89015	13985.1
628.87913	13799.3
632.86528	14036.9
636.84862	14229.6
640.82913	14198.5
644.80683	13867.1
648.78172	13533.9
652.75379	13389.3
656.72306	13501.3
660.68952	13708.8
664.65319	13682.1
668.61405	13514.8
672.57211	13490.1
676.52738	13561
680.47986	13513
684.42955	13407.6
688.37646	13288.7
692.32058	13231.8
696.26192	13260.6
700.20048	13284.9
704.13626	13315.7
708.06928	13283.6
711.99952	13204.7
715.927	13184.1
719.85171	13186.9
723.77365	13223
727.69284	13178.9
731.60928	13155.2
735.52295	13150.6
739.43388	13147.8
743.34206	13198.7
747.24749	13182.3
751.15017	13139.1
755.05012	13139.9
758.94733	13297.4
762.8418	13770.7
766.73354	14698.9
770.62254	15894.4
774.50882	16724.7
778.39237	16380.8
782.27321	15170
786.15132	14022.3
790.02671	13337.9
793.89938	12969.7
797.76935	12844.1
801.6366	12771.6
805.50115	12771.5
809.36299	12788.6
813.22213	12782.1
817.07857	12720.6
820.93231	12667.8
824.78336	12643.6
828.63172	12564.1
832.47738	12547.1
836.32036	12515.1
840.16066	12462.5
843.99827	12435
847.8332	12418.2
851.66546	12420.4
855.49504	12395.5
859.32195	12399
863.1462	12398.2
866.96777	12423
870.78668	12432.7
874.60293	12478.4
878.41652	12453.5
882.22745	12489.4
886.03573	12557.1
889.84136	12574.7
893.64433	12531.1
897.44466	12428.3
901.24235	12307.9
905.0374	12237.4
908.8298	12152
912.61957	12111.6
916.40671	12088.3
920.19121	12105.7
923.97308	12142.1
927.75233	12163.6
931.52895	12159.9
935.30295	12130.3
939.07433	11998.8
942.84309	11876.9
946.60924	11818.5
950.37278	11791.1
954.13371	11738.6
957.89203	11705.4
961.64774	11657.2
965.40086	11585.9
969.15137	11524.5
972.89929	11471.2
976.64461	11438.7
980.38733	11423.6
984.12747	11423.5
987.86502	11414.3
991.59999	11410.9
995.33237	11486.9
999.06217	11588.2
1002.78939	11677.4
1006.51404	11768.6
1010.23611	11884.4
1013.95561	11997.9
1017.67255	12051.5
1021.38692	11998
1025.09872	11886.9
1028.80796	11800.7
1032.51465	11764.6
1036.21877	11751.1
1039.92035	11807.5
1043.61937	11836
1047.31584	11832.4
1051.00976	11819.1
1054.70114	11820.5
1058.38998	11815
1062.07627	11875.9
1065.76003	11938.3
1069.44126	12038.2
1073.11995	12107.6
1076.79611	12204.7
1080.46974	12206.6
1084.14085	12193.9
1087.80943	12196.5
1091.47549	12197.2
1095.13903	12162.6
1098.80005	12069.7
1102.45857	11900.3
1106.11456	11819.9
1109.76805	11814.8
1113.41903	11913.7
1117.06751	12055.6
1120.71348	12294.1
1124.35696	12477.3
1127.99793	12767.2
1131.63641	12999.9
1135.2724	12963
1138.90589	12753.3
1142.5369	12492.3
1146.16542	12256.6
1149.79145	11984.5
1153.415	11825
1157.03607	11759.2
1160.65467	11797.4
1164.27079	12008.3
1167.88443	12281.5
1171.49561	12727.9
1175.10432	13354.4
1178.71056	14216.1
1182.31434	15039.5
1185.91565	15361.6
1189.51451	15279.8
1193.11091	14879.7
1196.70485	14278
1200.29634	13813.2
1203.88538	13419.1
1207.47197	12961.8
1211.05612	12530.3
1214.63782	12230.7
1218.21708	12054.1
1221.79391	11973.5
1225.36829	11973.5
1228.94024	11936.5
1232.50976	11933.6
1236.07685	11960.2
1239.6415	11962.5
1243.20374	11997.1
1246.76355	12056.3
1250.32093	12141.8
1253.8759	12213.7
1257.42845	12391.7
1260.97859	12569.5
1264.52631	12783.1
1268.07163	12971.1
1271.61453	13196.5
1275.15503	13356.2
1278.69312	13520.1
1282.22882	13576
1285.76211	13720.1
1289.29301	13933.4
1292.82151	14223.6
1296.34761	14552.4
1299.87133	14996.6
1303.39266	15582.1
1306.9116	16347.8
1310.42815	17175.1
1313.94233	17644.2
1317.45412	17441.5
1320.96354	16840.5
1324.47058	16151.8
1327.97525	15483.4
1331.47754	14990.6
1334.97747	14736.3
1338.47502	14703.3
1341.97022	14886.8
1345.46305	15207.8
1348.95352	15727.7
1352.44163	16593.7
1355.92738	17688.7
1359.41078	19069.6
1362.89183	20381.9
1366.37053	20330.9
1369.84688	18341.4
1373.32088	16034.9
1376.79254	14503.1
1380.26186	13705.2
1383.72883	13272.1
1387.19347	12978.7
1390.65578	12684.3
1394.11575	12399.2
1397.57339	12212.4
1401.0287	12120.3
1404.48168	12049.9
1407.93234	12027.2
1411.38068	11949.8
1414.82669	11930.3
1418.27039	11872
1421.71177	11757.2
1425.15083	11620.8
1428.58758	11519.8
1432.02203	11466.1
1435.45416	11494.3
1438.88399	11574.9
1442.31151	11615.1
1445.73673	11654.4
1449.15965	11745.1
1452.58027	11822.5
1455.9986	11869.7
1459.41463	11930.3
1462.82837	12073.1
1466.23982	12217.2
1469.64898	12296.3
1473.05586	12411.3
1476.46045	12504.3
1479.86276	12566.7
1483.26279	12653.8
1486.66054	12792.3
1490.05602	12934.6
1493.44922	13227.9
1496.84016	13708.7
1500.22882	14492.5
1503.61521	15575.5
1506.99934	16855.1
1510.38121	18065.4
1513.76081	18443.6
1517.13816	17839.1
1520.51324	16444
1523.88607	14994.6
1527.25665	13994
1530.62498	13382.4
1533.99105	13065
1537.35488	12833.4
1540.71647	12693.9
1544.07581	12598.9
1547.4329	12534.4
1550.78776	12523.5
1554.14038	12556.2
1557.49077	12701.8
1560.83892	12840.7
1564.18484	13012.8
1567.52853	13218.8
1570.86999	13389.6
1574.20922	13528.9
1577.54624	13549.2
1580.88103	13294.8
1584.2136	12821.6
1587.54395	12440.3
1590.87208	12273.1
1594.19801	12406.3
1597.52172	12776.4
1600.84321	12983.2
1604.16251	12826.5
1607.47959	12471.8
1610.79447	12083.1
1614.10715	11675
1617.41763	11294.2
1620.7259	11000.8
1624.03199	10807.1
1627.33587	10748.4
1630.63757	10793.5
1633.93707	10954.2
1637.23439	11280.9
1640.52951	11813.8
1643.82246	12601.3
1647.11321	13534.6
1650.40179	14339.7
1653.68819	14375.4
1656.97241	13477.1
1660.25446	12229.1
1663.53433	11280
1666.81203	10645.9
1670.08756	10240.2
1673.36092	9972
1676.63211	9788.2
1679.90115	9696.1
1683.16801	9586.8
1686.43272	9487.2
1689.69527	9409.7
1692.95567	9370.3
1696.2139	9342.3
1699.46999	9331.5
1702.72392	9263.1
1705.97571	9186.8
1709.22535	9136.3
1712.47284	9090.8
1715.71819	9071.1
1718.96139	9021.4
1722.20246	8957.5
1725.44139	8924.8
1728.67818	8874.6
1731.91284	8822
1735.14537	8764.1
1738.37576	8738.1
1741.60403	8720.9
1744.83017	8653.9
1748.05418	8673.1
1751.27607	8662.9
1754.49584	8640.9
1757.71349	8627.5
1760.92903	8614.2
1764.14244	8611.2
1767.35375	8603.6
1770.56294	8584.3
1773.77002	8569.5
1776.97499	8554.2
1780.17785	8493.3
1783.37861	8463.5
1786.57727	8467.4
1789.77382	8439.6
1792.96828	8421.1
1796.16064	8391.8
1799.3509	8373.7
1802.53907	8359.3
1805.72514	8325.9
1808.90913	8304.4
1812.09102	8277.9
1815.27083	8275.6
1818.44856	8253
1821.6242	8220.1
1824.79776	8214.9
1827.96924	8202.1
1831.13864	8187.8
1834.30597	8201.7
1837.47122	8191.6
1840.6344	8171
1843.7955	8175
1846.95454	8147.1
1850.11151	8124
1853.26642	8108.1
1856.41926	8122.9
1859.57004	8109.1
1862.71876	8115.8
1865.86542	8091.9
1869.01003	8074.3
1872.15258	8072.9
1875.29308	8074.9
1878.43152	8038.2
1881.56792	8057
1884.70227	8032.7
1887.83457	8017.4
1890.96482	8025.5
1894.09304	7998.3
1897.21921	7987.6
1900.34335	7968.9
1903.46544	7958.5
1906.58551	7957.9
1909.70353	7945.5
1912.81953	7914.9
1915.93349	7920.7
1919.04543	7902.3
1922.15534	7878.7
1925.26322	7876.3
1928.36908	7842.9
1931.47292	7817.4
1934.57473	7789.1
1937.67453	7778
1940.77232	7747.8
1943.86808	7755.6
1946.96184	7739.2
1950.05358	7685.8
1953.14331	7691.6
1956.23103	7656.9
1959.31675	7649.4
1962.40046	7612.9
1965.48217	7624.7
1968.56188	7592
1971.63959	7562
1974.7153	7520.8
1977.78901	7512.4
1980.86073	7491
1983.93046	7465.7
1986.99819	7428.3
1990.06394	7417.9
1993.1277	7381.6
1996.18947	7357
1999.24925	7341
2002.30706	7321
2005.36288	7274.7
2008.41672	7258.9
2011.46859	7252.1
2014.51848	7231.4
2017.56639	7217.5
2020.61233	7166.6
2023.6563	7161.6
2026.6983	7139.9
2029.73833	7139.2
2032.7764	7114.5
2035.8125	7079.4
2038.84664	7065
2041.87881	7064.8
2044.90903	7055.4
2047.93729	7026.1
2050.96359	7013.2
2053.98794	7024.7
2057.01034	7003
2060.03078	6986.5
2063.04927	6987.4
2066.06582	6967.5
2069.08042	6953.5
2072.09307	6970.6
2075.10378	6947.7
2078.11255	6952.1
2081.11938	6947.4
2084.12426	6948
2087.12722	6926.9
2090.12824	6942.4
2093.12732	6931.9
2096.12447	6932.3
2099.11969	6939.5
2102.11299	6948.2
2105.10435	6916.6
2108.09379	6926.6
2111.08131	6945.2
2114.0669	6948.8
2117.05057	6940.7
2120.03233	6948.1
2123.01216	6953.5
2125.99008	6971.6
2128.96609	6958
2131.94018	6972.3
2134.91236	6968.4
2137.88263	6981.5
2140.851	6967.5
2143.81746	6978.8
2146.78201	6981
2149.74466	6974
2152.7054	6978.6
2155.66425	6947.7
2158.6212	6965.9
2161.57625	6955.7
2164.52941	6980.1
2167.48067	6946.6
2170.43004	6949.2
2173.37752	6960.5
2176.32311	6953.3
2179.26681	6923.8
2182.20863	6919.4
2185.14856	6924.4
2188.08661	6928.1
2191.02278	6915.4
2193.95707	6918.8
2196.88948	6915.3
2199.82001	6900.6
2202.74867	6892.3
2205.67545	6867.8
2208.60037	6888
2211.52341	6888.4
2214.44458	6840.7
2217.36388	6822.8
2220.28132	6814.5
2223.1969	6803.9
2226.11061	6802.7
2229.02246	6766.2
2231.93245	6765.3
2234.84058	6759.4
2237.74686	6733.5
2240.65128	6728.9
2243.55385	6754.8
2246.45456	6709.6
2249.35343	6702.7
2252.25044	6708.9
2255.14561	6691.5
2258.03893	6694.1
2260.93041	6670.6
2263.82004	6649.4
2266.70783	6618
2269.59378	6632.7
2272.4779	6617.6
2275.36017	6596.5
2278.24061	6579.1
2281.11922	6575.5
2283.996	6552.5
2286.87094	6553.7
2289.74405	6524.1
2292.61534	6508.6
2295.4848	6489.2
2298.35243	6503.1
2301.21824	6495.3
2304.08223	6485.7
2306.94439	6497.5
2309.80474	6473
2312.66327	6484.8
2315.51999	6474
2318.37489	6468.5
2321.22797	6451.3
2324.07925	6447
2326.92871	6438.7
2329.77637	6431.9
2332.62222	6435.8
2335.46626	6394.3
2338.3085	6388.2
2341.14893	6388.5
2343.98756	6365.4
2346.8244	6362.7
2349.65943	6361.6
2352.49267	6356
2355.32411	6365.4
2358.15376	6346.8
2360.98161	6367.9
2363.80768	6362.4
2366.63195	6364.8
2369.45444	6333
2372.27514	6343
2375.09405	6335.8
2377.91118	6311.1
2380.72652	6290.3
2383.54009	6291.4
2386.35187	6279.7
2389.16188	6247.5
2391.97011	6218.9
2394.77657	6227.3
2397.58125	6207.4
2400.38416	6203.7
2403.18529	6195.2
2405.98466	6188.1
2408.78226	6157.1
2411.57809	6158.6
2414.37216	6158.8
2417.16446	6142
2419.955	6144.6
2422.74378	6117
2425.5308	6119.8
2428.31606	6121.2
2431.09956	6102
2433.88131	6103.3
2436.6613	6116
2439.43954	6088.3
2442.21603	6080.3
2444.99077	6086.9
2447.76377	6095.7
2450.53501	6076.5
2453.30451	6070.4
2456.07226	6073.5
2458.83827	6068.5
2461.60254	6059.7
2464.36507	6041.3
2467.12586	6040.4
2469.88492	6040.6
2472.64224	6033.2
2475.39782	6027.5
2478.15167	6022.1
2480.90379	6026.9
2483.65417	6011.9
2486.40283	6014.7
2489.14976	6049.1
2491.89497	6010.2
2494.63845	6031.2
2497.3802	5997.9
2500.12024	6004.6
2502.85855	6005.1
2505.59514	5978.4
2508.33002	5971.9
2511.06318	5977.9
2513.79462	5945.1
2516.52435	5940.5
2519.25237	5918.2
2521.97867	5924.8
2524.70327	5893
2527.42616	5898.1
2530.14734	5875.6
2532.86681	5869.4
2535.58458	5862.2
2538.30065	5841.8
2541.01501	5851.8
2543.72768	5840.1
2546.43864	5836.9
2549.14791	5806.8
2551.85548	5813.6
2554.56136	5824.2
2557.26554	5820.2
2559.96803	5792.1
2562.66883	5781.5
2565.36794	5780.6
2568.06536	5773.6
2570.7611	5754.1
2573.45514	5753.1
2576.14751	5738.5
2578.83819	5731.1
2581.52719	5722.2
2584.21451	5719.6
2586.90015	5726.6
2589.58411	5701.5
2592.2664	5676.3
2594.94701	5682.2
2597.62594	5660.2
2600.30321	5652
2602.9788	5635.4
2605.65273	5642.5
2608.32498	5611.2
2610.99557	5605.1
2613.66449	5610.4
2616.33175	5602.5
2618.99734	5609.1
2621.66128	5592.4
2624.32355	5602.8
2626.98416	5584.4
2629.64311	5584.7
2632.30041	5585.4
2634.95605	5574.9
2637.61004	5569.9
2640.26238	5545.9
2642.91306	5548.2
2645.56209	5548.6
2648.20948	5535.8
2650.85521	5532.6
2653.4993	5523.2
2656.14175	5527.2
2658.78255	5530.6
2661.42171	5545.7
2664.05923	5517.1
2666.6951	5516.9
2669.32934	5509.9
2671.96194	5511.1
2674.59291	5520.7
2677.22224	5504.1
2679.84993	5515.5
2682.476	5518.3
2685.10043	5520.5
2687.72324	5508.8
2690.34441	5512.1
2692.96396	5498
2695.58188	5508.5
2698.19818	5495.5
2700.81285	5494.7
2703.4259	5524.2
2706.03733	5544.3
2708.64714	5525.5
2711.25533	5521.9
2713.86191	5503.4
2716.46687	5525.5
2719.07021	5511.9
2721.67194	5516.7
2724.27206	5490.7
2726.87057	5506.2
2729.46747	5494.7
2732.06276	5494.8
2734.65644	5467.9
2737.24852	5488.1
2739.83899	5485.2
2742.42786	5473.2
2745.01513	5470.3
2747.60079	5472.1
2750.18486	5474.5
2752.76733	5481.7
2755.3482	5459.2
2757.92747	5432.1
2760.50515	5441.9
2763.08123	5436.5
2765.65573	5429.7
2768.22863	5412.1
2770.79994	5406.6
2773.36967	5408.3
2775.9378	5433.1
2778.50435	5387.7
2781.06932	5386.5
2783.6327	5377.8
2786.1945	5360.3
2788.75471	5362.3
2791.31335	5339.1
2793.87041	5337.3
2796.42589	5315.3
2798.97979	5317.9
2801.53212	5311.8
2804.08288	5283.2
2806.63206	5284.8
2809.17967	5268.5
2811.72571	5271.9
2814.27018	5274.4
2816.81308	5258.7
2819.35442	5254.5
2821.89419	5250.6
2824.43239	5232.6
2826.96904	5253.4
2829.50412	5245
2832.03763	5206.7
2834.56959	5223.5
2837.1	5231
2839.62884	5237.6
2842.15613	5226.1
2844.68186	5229.5
2847.20604	5234.2
2849.72867	5238.4
2852.24974	5240.3
2854.76927	5214.5
2857.28724	5223.4
2859.80367	5222.7
2862.31855	5192
2864.83189	5211.5
2867.34368	5180.6
2869.85393	5206.8
2872.36264	5192.8
2874.8698	5208.2
2877.37543	5192.2
2879.87952	5184.5
2882.38207	5192.6
2884.88308	5193.2
2887.38256	5186.3
2889.88051	5178.7
2892.37692	5180
2894.8718	5173.5
2897.36515	5177.3
2899.85698	5174.7
2902.34727	5182.3
2904.83604	5194.9
2907.32328	5188.7
2909.809	5176.6
2912.29319	5194.4
2914.77587	5193.2
2917.25702	5177.2
2919.73665	5192.5
2922.21476	5189.3
2924.69136	5185.8
2927.16644	5187.8
2929.64	5174.6
2932.11205	5165.9
2934.58258	5143.7
2937.05161	5163.9
2939.51912	5158.1
2941.98513	5136.8
2944.44962	5143.9
2946.91261	5129.9
2949.37409	5125.5
2951.83407	5130
2954.29254	5128
2956.74951	5125.5
2959.20498	5114.9
2961.65895	5106.9
2964.11142	5108.3
2966.56239	5092.5
2969.01186	5106.8
2971.45984	5083.4
2973.90632	5082.4
2976.35131	5057.4
2978.7948	5059.2
2981.23681	5042.6
2983.67732	5048.3
2986.11635	5026.8
2988.55388	5022.9
2990.98993	5006.3
2993.4245	5013.4
2995.85758	4995.9
2998.28917	4993.1
3000.71928	4984
3003.14791	4978.7
3005.57506	4978.1
3008.00073	4976.2
3010.42493	4983.8
3012.84764	4956.5
3015.26888	4957
3017.68865	4953.2
3020.10694	4950.4
3022.52376	4932.9
3024.9391	4928.9
3027.35298	4934.2
3029.76539	4911.6
3032.17632	4908.6
3034.5858	4896
3036.9938	4894.6
3039.40034	4872.5
3041.80542	4891.2
3044.20903	4880.3
3046.61118	4887.5
3049.01187	4878.8
3051.4111	4859.3
3053.80888	4860.1
3056.20519	4856.1
3058.60005	4852.9
3060.99345	4855.6
3063.3854	4843.7
3065.7759	4829.6
3068.16494	4825.9
3070.55254	4811.8
3072.93868	4814.5
3075.32338	4806.9
3077.70662	4810.2
3080.08842	4802.5
3082.46878	4778.4
3084.84769	4810.7
3087.22515	4814.8
3089.60118	4819.5
3091.97576	4817.8
3094.3489	4823.3
3096.72061	4810.3
3099.09087	4820.9
3101.4597	4808.6
3103.82709	4828.5
3106.19305	4812.3
3108.55757	4821.4
3110.92066	4804.1
3113.28232	4811.5
3115.64255	4777.4
3118.00134	4784.9
3120.35871	4796.2
3122.71466	4778.8
3125.06917	4778.8
3127.42226	4799.6
3129.77393	4773.7
3132.12417	4791.7
3134.47299	4782.5
3136.82039	4794.1
3139.16636	4795.6
3141.51092	4796.8
3143.85406	4823.8
3146.19579	4830.5
3148.53609	4811.2
3150.87499	4830.9
3153.21246	4835.9
3155.54853	4861.6
3157.88318	4860.5
3160.21642	4852.9
3162.54826	4856.3
3164.87868	4858.8
3167.2077	4866.8
3169.5353	4857.9
3171.86151	4870
3174.18631	4868
3176.5097	4843.2
3178.83169	4856.4
3181.15228	4880.1
3183.47147	4848.1
3185.78926	4860.4
3188.10565	4849.9
3190.42065	4864.1
3192.73424	4855.9
3195.04645	4881.7
3197.35725	4875.8
3199.66667	4862.9
3201.97469	4882
3204.28132	4884.6
3206.58656	4876.1
3208.8904	4912.4
3211.19287	4915.7
3213.49394	4903.7
3215.79363	4897.2
3218.09193	4904.2
3220.38884	4912.6
3222.68438	4912.3
3224.97853	4908.1
3227.2713	4898.9
3229.56269	4888.1
3231.8527	4897.7
3234.14133	4900.2
3236.42858	4879.7
3238.71446	4868
3240.99896	4863.2
3243.28209	4875.1
3245.56384	4856.2
3247.84423	4884.3
3250.12324	4866.9
3252.40088	4876.3
3254.67715	4860.4
3256.95205	4858.4
3259.22558	4870.3
3261.49775	4843.3
3263.76855	4845.2
3266.03799	4836.5
3268.30606	4830.3
3270.57277	4819.5
3272.83812	4828.7
3275.10211	4803.5
3277.36474	4805.6
3279.62601	4807.4
3281.88593	4792.3
3284.14448	4806.8
3286.40168	4806.4
3288.65753	4784.7
3290.91202	4784.3
3293.16516	4777
3295.41695	4744.7
3297.66738	4730.1
3299.91647	4705.3
3302.16421	4681
3304.4106	4672.6
3306.65564	4661.3
3308.89933	4610.3
3311.14169	4617.9
3313.38269	4570
3315.62236	4557.4
3317.86068	4516.2
3320.09766	4477.3
3322.3333	4435.6
3324.5676	4440.9
3326.80056	4361
3329.03219	4343.8
3331.26248	1.6
3333.49143	-0.1
3335.71905	-1.5
