Data from AgNPs_FTO_APTES_UA_200uM_R6G_10uM_NaF_0.1M_Addition_RamanShift__27__16-31-47-525.txt Node

Date: Fri Dec 17 16:31:47 GMT 2021
User: TCL
Spectrometer: QEP01345
Trigger mode: 4
Integration Time (sec): 7.000000E0
Scans to average: 10
Electric dark correction enabled: true
Nonlinearity correction enabled: false
Boxcar width: 0
XAxis mode: Raman Shifts
Number of Pixels in Spectrum: 1044
>>>>>Begin Spectral Data<<<<<
46.04893	-0.1625
50.45542	0.4375
54.85868	0.0375
59.25871	0.4375
63.6555	48.3375
68.04907	47.3375
72.43941	49.4375
76.82654	55.4375
81.21044	55.4375
85.59113	57.6375
89.96862	62.2375
94.34289	63.9375
98.71396	66.3375
103.08183	66.4375
107.4465	69.3375
111.80798	73.3375
116.16626	73.7375
120.52136	70.6375
124.87327	76.7375
129.222	83.0375
133.56755	85.2375
137.90993	88.4375
142.24913	96.5375
146.58517	107.9375
150.91804	122.8375
155.24774	145.0375
159.57429	182.5375
163.89768	225.2375
168.21792	297.7375
172.53501	402.8375
176.84895	555.7375
181.15975	775.7375
185.46741	1094.8375
189.77193	1499.8375
194.07331	2025.4375
198.37157	2623.8375
202.6667	3251.2375
206.9587	3863.5375
211.24758	4460.6375
215.53334	5056.9375
219.81599	5696.8375
224.09553	6373.6375
228.37195	7116.1375
232.64527	7959.7375
236.91549	8867.3375
241.18261	9765.6375
245.44663	10626.0375
249.70755	11363.2375
253.96539	12048.9375
258.22014	12636.5375
262.4718	13112.8375
266.72039	13428.7375
270.96589	13606.4375
275.20832	13614.9375
279.44768	13489.0375
283.68397	13296.4375
287.91719	13083.9375
292.14735	12930.0375
296.37445	12929.7375
300.59849	12994.6375
304.81948	13109.9375
309.03742	13110.7375
313.25231	12993.1375
317.46415	12687.9375
321.67296	12320.3375
325.87872	12013.1375
330.08145	11886.1375
334.28114	11929.7375
338.47781	12030.9375
342.67145	12186.7375
346.86207	12423.0375
351.04966	12695.4375
355.23424	13057.5375
359.4158	13352.3375
363.59435	13575.4375
367.76989	13739.8375
371.94243	13825.3375
376.11196	13951.8375
380.27849	13997.0375
384.44203	14064.8375
388.60257	14034.5375
392.76012	14059.4375
396.91468	14128.3375
401.06626	14327.1375
405.21485	14457.5375
409.36047	14415.0375
413.50311	14101.7375
417.64277	13820.2375
421.77947	13654.9375
425.9132	13566.4375
430.04396	13569.9375
434.17176	13618.0375
438.2966	13700.8375
442.41849	13822.1375
446.53742	13945.0375
450.6534	14104.4375
454.76644	14181.2375
458.87653	14223.5375
462.98368	14254.3375
467.08789	14208.0375
471.18916	14146.9375
475.2875	14096.5375
479.38291	14008.9375
483.4754	13968.2375
487.56496	13925.9375
491.6516	13927.8375
495.73531	13931.9375
499.81612	13883.7375
503.89401	13915.3375
507.96899	13951.4375
512.04106	14028.1375
516.11023	14152.4375
520.1765	14202.9375
524.23987	14236.7375
528.30034	14161.9375
532.35792	14073.9375
536.41261	13950.4375
540.46441	13806.0375
544.51333	13737.2375
548.55936	13755.2375
552.60252	13809.3375
556.64279	13893.8375
560.6802	13921.8375
564.71473	13977.0375
568.7464	14073.5375
572.7752	14121.1375
576.80114	14031.6375
580.82422	13916.7375
584.84444	13880.8375
588.86181	13862.9375
592.87633	13888.8375
596.888	13910.6375
600.89682	14105.9375
604.9028	14704.8375
608.90594	16283.4375
612.90624	18409.2375
616.90371	18181.9375
620.89834	15577.3375
624.89015	14325.9375
628.87913	14183.5375
632.86528	14298.9375
636.84862	14487.5375
640.82913	14378.6375
644.80683	14062.2375
648.78172	13763.1375
652.75379	13655.1375
656.72306	13721.4375
660.68952	13924.9375
664.65319	13875.8375
668.61405	13650.3375
672.57211	13541.9375
676.52738	13520.7375
680.47986	13508.2375
684.42955	13469.0375
688.37646	13414.6375
692.32058	13410.3375
696.26192	13448.8375
700.20048	13475.8375
704.13626	13502.3375
708.06928	13458.8375
711.99952	13401.5375
715.927	13389.7375
719.85171	13349.4375
723.77365	13394.3375
727.69284	13339.2375
731.60928	13278.4375
735.52295	13247.3375
739.43388	13221.3375
743.34206	13219.6375
747.24749	13219.6375
751.15017	13220.5375
755.05012	13300.7375
758.94733	13472.4375
762.8418	13883.5375
766.73354	14764.8375
770.62254	15794.6375
774.50882	16537.0375
778.39237	16153.0375
782.27321	15022.8375
786.15132	14014.2375
790.02671	13392.8375
793.89938	13151.3375
797.76935	13042.3375
801.6366	13005.1375
805.50115	13013.4375
809.36299	13042.8375
813.22213	13085.3375
817.07857	13030.4375
820.93231	12996.7375
824.78336	12868.8375
828.63172	12815.0375
832.47738	12747.1375
836.32036	12697.4375
840.16066	12682.0375
843.99827	12653.6375
847.8332	12617.3375
851.66546	12601.6375
855.49504	12562.6375
859.32195	12573.6375
863.1462	12534.3375
866.96777	12527.1375
870.78668	12533.1375
874.60293	12550.9375
878.41652	12600.5375
882.22745	12634.0375
886.03573	12701.1375
889.84136	12676.3375
893.64433	12615.6375
897.44466	12524.8375
901.24235	12416.0375
905.0374	12324.0375
908.8298	12266.4375
912.61957	12193.9375
916.40671	12185.6375
920.19121	12189.6375
923.97308	12201.1375
927.75233	12206.8375
931.52895	12235.6375
935.30295	12199.7375
939.07433	12066.0375
942.84309	11949.5375
946.60924	11860.7375
950.37278	11795.8375
954.13371	11701.0375
957.89203	11671.5375
961.64774	11633.4375
965.40086	11608.2375
969.15137	11544.6375
972.89929	11528.2375
976.64461	11448.7375
980.38733	11464.2375
984.12747	11410.6375
987.86502	11436.0375
991.59999	11459.2375
995.33237	11487.0375
999.06217	11545.9375
1002.78939	11632.6375
1006.51404	11742.4375
1010.23611	11835.8375
1013.95561	11931.5375
1017.67255	11933.0375
1021.38692	11863.8375
1025.09872	11795.4375
1028.80796	11714.6375
1032.51465	11682.3375
1036.21877	11714.2375
1039.92035	11699.0375
1043.61937	11693.8375
1047.31584	11648.6375
1051.00976	11624.2375
1054.70114	11596.1375
1058.38998	11599.0375
1062.07627	11626.7375
1065.76003	11693.4375
1069.44126	11730.8375
1073.11995	11838.1375
1076.79611	11858.8375
1080.46974	11865.7375
1084.14085	11859.9375
1087.80943	11891.8375
1091.47549	11892.0375
1095.13903	11833.2375
1098.80005	11663.5375
1102.45857	11501.4375
1106.11456	11398.1375
1109.76805	11432.0375
1113.41903	11517.7375
1117.06751	11660.7375
1120.71348	11885.2375
1124.35696	12106.3375
1127.99793	12357.1375
1131.63641	12518.8375
1135.2724	12396.7375
1138.90589	12159.7375
1142.5369	11954.3375
1146.16542	11662.4375
1149.79145	11471.3375
1153.415	11335.3375
1157.03607	11278.9375
1160.65467	11286.5375
1164.27079	11423.1375
1167.88443	11643.6375
1171.49561	11971.1375
1175.10432	12596.5375
1178.71056	13433.0375
1182.31434	14229.2375
1185.91565	14541.8375
1189.51451	14346.4375
1193.11091	13853.2375
1196.70485	13304.9375
1200.29634	12881.3375
1203.88538	12609.9375
1207.47197	12259.5375
1211.05612	11906.0375
1214.63782	11639.6375
1218.21708	11430.1375
1221.79391	11309.7375
1225.36829	11307.3375
1228.94024	11255.6375
1232.50976	11262.9375
1236.07685	11277.0375
1239.6415	11292.2375
1243.20374	11311.7375
1246.76355	11369.0375
1250.32093	11413.7375
1253.8759	11476.4375
1257.42845	11626.9375
1260.97859	11745.4375
1264.52631	11836.3375
1268.07163	12010.5375
1271.61453	12138.9375
1275.15503	12211.1375
1278.69312	12260.9375
1282.22882	12267.3375
1285.76211	12312.7375
1289.29301	12481.8375
1292.82151	12694.9375
1296.34761	12950.7375
1299.87133	13304.7375
1303.39266	13893.2375
1306.9116	14698.3375
1310.42815	15611.5375
1313.94233	16238.9375
1317.45412	16080.4375
1320.96354	15392.3375
1324.47058	14640.9375
1327.97525	13958.2375
1331.47754	13445.2375
1334.97747	13238.3375
1338.47502	13189.2375
1341.97022	13324.3375
1345.46305	13591.6375
1348.95352	13993.6375
1352.44163	14706.1375
1355.92738	15679.2375
1359.41078	17077.1375
1362.89183	18725.5375
1366.37053	18920.5375
1369.84688	16990.1375
1373.32088	14762.1375
1376.79254	13316.5375
1380.26186	12530.2375
1383.72883	12145.4375
1387.19347	11910.9375
1390.65578	11586.1375
1394.11575	11333.4375
1397.57339	11127.0375
1401.0287	11039.2375
1404.48168	10973.5375
1407.93234	10962.9375
1411.38068	10963.5375
1414.82669	10894.6375
1418.27039	10851.5375
1421.71177	10793.4375
1425.15083	10685.4375
1428.58758	10567.1375
1432.02203	10514.7375
1435.45416	10506.5375
1438.88399	10537.0375
1442.31151	10543.1375
1445.73673	10533.1375
1449.15965	10572.9375
1452.58027	10545.5375
1455.9986	10518.6375
1459.41463	10522.4375
1462.82837	10550.5375
1466.23982	10636.6375
1469.64898	10775.5375
1473.05586	10894.7375
1476.46045	10953.9375
1479.86276	11081.3375
1483.26279	11250.9375
1486.66054	11414.2375
1490.05602	11616.0375
1493.44922	11931.7375
1496.84016	12380.8375
1500.22882	13140.3375
1503.61521	14180.6375
1506.99934	15533.4375
1510.38121	16773.9375
1513.76081	17296.1375
1517.13816	16746.3375
1520.51324	15322.2375
1523.88607	13815.4375
1527.25665	12712.2375
1530.62498	12092.2375
1533.99105	11754.3375
1537.35488	11535.6375
1540.71647	11436.8375
1544.07581	11369.3375
1547.4329	11360.6375
1550.78776	11365.4375
1554.14038	11415.3375
1557.49077	11509.4375
1560.83892	11626.7375
1564.18484	11793.6375
1567.52853	11985.3375
1570.86999	12157.4375
1574.20922	12307.8375
1577.54624	12352.0375
1580.88103	12077.7375
1584.2136	11602.9375
1587.54395	11203.1375
1590.87208	11061.0375
1594.19801	11197.4375
1597.52172	11518.6375
1600.84321	11695.4375
1604.16251	11540.2375
1607.47959	11205.5375
1610.79447	10855.5375
1614.10715	10518.1375
1617.41763	10204.7375
1620.7259	9958.7375
1624.03199	9797.1375
1627.33587	9795.5375
1630.63757	9813.4375
1633.93707	9989.8375
1637.23439	10253.0375
1640.52951	10662.6375
1643.82246	11329.8375
1647.11321	12191.6375
1650.40179	13001.7375
1653.68819	13127.4375
1656.97241	12340.7375
1660.25446	11124.9375
1663.53433	10225.3375
1666.81203	9683.6375
1670.08756	9326.0375
1673.36092	9103.9375
1676.63211	8920.7375
1679.90115	8817.8375
1683.16801	8734.2375
1686.43272	8657.8375
1689.69527	8625.0375
1692.95567	8589.6375
1696.2139	8555.0375
1699.46999	8531.8375
1702.72392	8485.8375
1705.97571	8428.8375
1709.22535	8373.7375
1712.47284	8276.4375
1715.71819	8271.2375
1718.96139	8229.9375
1722.20246	8186.5375
1725.44139	8156.1375
1728.67818	8092.0375
1731.91284	8065.8375
1735.14537	8012.9375
1738.37576	7973.9375
1741.60403	7957.7375
1744.83017	7918.0375
1748.05418	7919.6375
1751.27607	7872.5375
1754.49584	7877.8375
1757.71349	7863.1375
1760.92903	7839.8375
1764.14244	7851.8375
1767.35375	7840.4375
1770.56294	7823.5375
1773.77002	7784.3375
1776.97499	7775.6375
1780.17785	7739.4375
1783.37861	7710.2375
1786.57727	7686.4375
1789.77382	7661.1375
1792.96828	7643.5375
1796.16064	7633.8375
1799.3509	7591.5375
1802.53907	7601.7375
1805.72514	7568.6375
1808.90913	7536.6375
1812.09102	7531.7375
1815.27083	7493.0375
1818.44856	7477.7375
1821.6242	7447.6375
1824.79776	7422.6375
1827.96924	7426.0375
1831.13864	7402.0375
1834.30597	7386.0375
1837.47122	7394.9375
1840.6344	7383.9375
1843.7955	7345.2375
1846.95454	7366.7375
1850.11151	7344.1375
1853.26642	7323.3375
1856.41926	7337.6375
1859.57004	7315.5375
1862.71876	7312.6375
1865.86542	7283.9375
1869.01003	7301.3375
1872.15258	7258.0375
1875.29308	7263.1375
1878.43152	7249.2375
1881.56792	7243.9375
1884.70227	7211.0375
1887.83457	7220.8375
1890.96482	7196.8375
1894.09304	7190.5375
1897.21921	7172.2375
1900.34335	7167.2375
1903.46544	7154.7375
1906.58551	7149.9375
1909.70353	7126.4375
1912.81953	7109.4375
1915.93349	7086.8375
1919.04543	7079.4375
1922.15534	7065.2375
1925.26322	7062.6375
1928.36908	7036.4375
1931.47292	7015.1375
1934.57473	6989.2375
1937.67453	6977.9375
1940.77232	6955.4375
1943.86808	6921.8375
1946.96184	6917.2375
1950.05358	6907.0375
1953.14331	6875.4375
1956.23103	6868.9375
1959.31675	6826.4375
1962.40046	6822.7375
1965.48217	6799.7375
1968.56188	6792.0375
1971.63959	6748.9375
1974.7153	6706.3375
1977.78901	6675.9375
1980.86073	6670.9375
1983.93046	6633.7375
1986.99819	6629.6375
1990.06394	6575.3375
1993.1277	6577.7375
1996.18947	6537.8375
1999.24925	6537.9375
2002.30706	6499.2375
2005.36288	6476.5375
2008.41672	6452.7375
2011.46859	6443.6375
2014.51848	6429.5375
2017.56639	6372.2375
2020.61233	6376.7375
2023.6563	6352.9375
2026.6983	6350.5375
2029.73833	6319.5375
2032.7764	6293.1375
2035.8125	6286.0375
2038.84664	6263.8375
2041.87881	6265.9375
2044.90903	6243.7375
2047.93729	6228.1375
2050.96359	6223.2375
2053.98794	6199.0375
2057.01034	6188.6375
2060.03078	6172.5375
2063.04927	6162.8375
2066.06582	6159.8375
2069.08042	6137.7375
2072.09307	6148.8375
2075.10378	6135.8375
2078.11255	6140.2375
2081.11938	6130.2375
2084.12426	6120.2375
2087.12722	6117.2375
2090.12824	6098.1375
2093.12732	6106.4375
2096.12447	6111.7375
2099.11969	6087.7375
2102.11299	6096.5375
2105.10435	6089.6375
2108.09379	6105.4375
2111.08131	6092.5375
2114.0669	6098.8375
2117.05057	6104.6375
2120.03233	6109.6375
2123.01216	6116.0375
2125.99008	6106.1375
2128.96609	6102.6375
2131.94018	6092.8375
2134.91236	6129.6375
2137.88263	6116.6375
2140.851	6103.9375
2143.81746	6108.2375
2146.78201	6094.8375
2149.74466	6099.1375
2152.7054	6101.6375
2155.66425	6091.7375
2158.6212	6090.1375
2161.57625	6095.8375
2164.52941	6085.5375
2167.48067	6077.6375
2170.43004	6052.0375
2173.37752	6058.4375
2176.32311	6062.1375
2179.26681	6055.1375
2182.20863	6025.1375
2185.14856	6044.3375
2188.08661	6034.7375
2191.02278	6023.7375
2193.95707	5999.2375
2196.88948	5993.2375
2199.82001	6005.1375
2202.74867	5982.2375
2205.67545	5987.4375
2208.60037	5991.2375
2211.52341	5963.2375
2214.44458	5934.3375
2217.36388	5925.6375
2220.28132	5914.8375
2223.1969	5907.0375
2226.11061	5887.4375
2229.02246	5883.0375
2231.93245	5867.8375
2234.84058	5856.9375
2237.74686	5847.7375
2240.65128	5824.0375
2243.55385	5827.4375
2246.45456	5805.1375
2249.35343	5795.8375
2252.25044	5803.6375
2255.14561	5765.0375
2258.03893	5791.6375
2260.93041	5760.2375
2263.82004	5736.2375
2266.70783	5754.7375
2269.59378	5726.7375
2272.4779	5705.3375
2275.36017	5696.4375
2278.24061	5685.5375
2281.11922	5663.2375
2283.996	5648.4375
2286.87094	5638.8375
2289.74405	5619.2375
2292.61534	5603.6375
2295.4848	5612.6375
2298.35243	5591.6375
2301.21824	5600.4375
2304.08223	5580.4375
2306.94439	5579.0375
2309.80474	5557.8375
2312.66327	5572.1375
2315.51999	5542.6375
2318.37489	5546.4375
2321.22797	5531.0375
2324.07925	5524.0375
2326.92871	5524.5375
2329.77637	5528.3375
2332.62222	5491.1375
2335.46626	5492.8375
2338.3085	5449.7375
2341.14893	5444.6375
2343.98756	5439.5375
2346.8244	5457.3375
2349.65943	5442.9375
2352.49267	5440.0375
2355.32411	5430.7375
2358.15376	5445.6375
2360.98161	5427.4375
2363.80768	5434.2375
2366.63195	5409.7375
2369.45444	5422.5375
2372.27514	5413.4375
2375.09405	5391.6375
2377.91118	5381.9375
2380.72652	5370.4375
2383.54009	5353.7375
2386.35187	5348.4375
2389.16188	5317.8375
2391.97011	5295.8375
2394.77657	5297.2375
2397.58125	5281.6375
2400.38416	5267.6375
2403.18529	5253.8375
2405.98466	5240.7375
2408.78226	5224.1375
2411.57809	5202.9375
2414.37216	5202.9375
2417.16446	5205.3375
2419.955	5190.0375
2422.74378	5183.4375
2425.5308	5187.7375
2428.31606	5164.8375
2431.09956	5160.1375
2433.88131	5144.2375
2436.6613	5161.9375
2439.43954	5154.8375
2442.21603	5115.6375
2444.99077	5134.5375
2447.76377	5151.3375
2450.53501	5136.6375
2453.30451	5110.8375
2456.07226	5110.1375
2458.83827	5100.2375
2461.60254	5099.9375
2464.36507	5087.5375
2467.12586	5094.8375
2469.88492	5083.5375
2472.64224	5078.0375
2475.39782	5068.9375
2478.15167	5066.1375
2480.90379	5049.6375
2483.65417	5052.5375
2486.40283	5046.2375
2489.14976	5041.6375
2491.89497	5056.7375
2494.63845	5067.7375
2497.3802	5043.7375
2500.12024	5019.8375
2502.85855	5020.1375
2505.59514	5014.9375
2508.33002	5002.1375
2511.06318	5002.2375
2513.79462	4974.7375
2516.52435	4970.1375
2519.25237	4950.0375
2521.97867	4937.0375
2524.70327	4926.0375
2527.42616	4902.1375
2530.14734	4907.3375
2532.86681	4889.4375
2535.58458	4871.2375
2538.30065	4881.2375
2541.01501	4874.5375
2543.72768	4860.9375
2546.43864	4856.8375
2549.14791	4847.6375
2551.85548	4840.0375
2554.56136	4826.9375
2557.26554	4818.7375
2559.96803	4809.4375
2562.66883	4783.9375
2565.36794	4791.3375
2568.06536	4795.9375
2570.7611	4787.8375
2573.45514	4763.7375
2576.14751	4750.8375
2578.83819	4728.3375
2581.52719	4729.3375
2584.21451	4726.4375
2586.90015	4716.9375
2589.58411	4711.5375
2592.2664	4687.8375
2594.94701	4675.2375
2597.62594	4677.0375
2600.30321	4663.1375
2602.9788	4654.3375
2605.65273	4651.0375
2608.32498	4634.5375
2610.99557	4640.3375
2613.66449	4613.2375
2616.33175	4628.5375
2618.99734	4621.6375
2621.66128	4605.1375
2624.32355	4594.2375
2626.98416	4581.3375
2629.64311	4589.9375
2632.30041	4600.5375
2634.95605	4589.4375
2637.61004	4567.5375
2640.26238	4560.7375
2642.91306	4532.4375
2645.56209	4543.8375
2648.20948	4536.6375
2650.85521	4526.0375
2653.4993	4517.6375
2656.14175	4526.8375
2658.78255	4529.1375
2661.42171	4533.9375
2664.05923	4529.8375
2666.6951	4509.8375
2669.32934	4509.3375
2671.96194	4488.9375
2674.59291	4512.5375
2677.22224	4508.9375
2679.84993	4500.0375
2682.476	4503.1375
2685.10043	4509.9375
2687.72324	4491.9375
2690.34441	4501.5375
2692.96396	4489.0375
2695.58188	4503.8375
2698.19818	4473.1375
2700.81285	4489.8375
2703.4259	4499.0375
2706.03733	4524.1375
2708.64714	4487.6375
2711.25533	4490.7375
2713.86191	4496.5375
2716.46687	4488.2375
2719.07021	4475.3375
2721.67194	4478.5375
2724.27206	4474.9375
2726.87057	4467.1375
2729.46747	4463.2375
2732.06276	4467.8375
2734.65644	4454.5375
2737.24852	4446.3375
2739.83899	4446.3375
2742.42786	4452.2375
2745.01513	4432.9375
2747.60079	4429.0375
2750.18486	4429.6375
2752.76733	4418.8375
2755.3482	4407.0375
2757.92747	4419.5375
2760.50515	4416.4375
2763.08123	4381.5375
2765.65573	4371.3375
2768.22863	4378.8375
2770.79994	4372.1375
2773.36967	4387.2375
2775.9378	4366.2375
2778.50435	4346.9375
2781.06932	4337.6375
2783.6327	4347.2375
2786.1945	4344.2375
2788.75471	4326.5375
2791.31335	4304.4375
2793.87041	4302.5375
2796.42589	4283.9375
2798.97979	4290.0375
2801.53212	4280.9375
2804.08288	4270.5375
2806.63206	4254.8375
2809.17967	4248.0375
2811.72571	4250.3375
2814.27018	4244.8375
2816.81308	4233.0375
2819.35442	4235.8375
2821.89419	4222.8375
2824.43239	4227.6375
2826.96904	4207.6375
2829.50412	4221.3375
2832.03763	4215.1375
2834.56959	4205.3375
2837.1	4206.9375
2839.62884	4211.5375
2842.15613	4201.6375
2844.68186	4200.9375
2847.20604	4218.1375
2849.72867	4217.1375
2852.24974	4212.6375
2854.76927	4216.0375
2857.28724	4205.3375
2859.80367	4187.5375
2862.31855	4192.9375
2864.83189	4185.8375
2867.34368	4170.8375
2869.85393	4180.9375
2872.36264	4183.1375
2874.8698	4174.9375
2877.37543	4190.8375
2879.87952	4165.4375
2882.38207	4174.0375
2884.88308	4169.4375
2887.38256	4166.8375
2889.88051	4168.5375
2892.37692	4159.4375
2894.8718	4165.2375
2897.36515	4153.2375
2899.85698	4165.7375
2902.34727	4178.9375
2904.83604	4159.2375
2907.32328	4173.2375
2909.809	4142.5375
2912.29319	4181.0375
2914.77587	4163.9375
2917.25702	4167.1375
2919.73665	4158.8375
2922.21476	4156.7375
2924.69136	4155.4375
2927.16644	4139.6375
2929.64	4147.4375
2932.11205	4144.5375
2934.58258	4129.8375
2937.05161	4124.4375
2939.51912	4138.9375
2941.98513	4117.2375
2944.44962	4109.9375
2946.91261	4106.6375
2949.37409	4104.1375
2951.83407	4100.0375
2954.29254	4087.7375
2956.74951	4079.0375
2959.20498	4071.6375
2961.65895	4062.4375
2964.11142	4059.7375
2966.56239	4066.1375
2969.01186	4068.4375
2971.45984	4044.2375
2973.90632	4043.8375
2976.35131	4023.2375
2978.7948	4019.6375
2981.23681	4004.6375
2983.67732	4029.3375
2986.11635	3999.2375
2988.55388	3997.9375
2990.98993	4000.7375
2993.4245	3989.5375
2995.85758	3976.0375
2998.28917	3987.2375
3000.71928	3976.3375
3003.14791	3953.5375
3005.57506	3972.0375
3008.00073	3947.6375
3010.42493	3950.0375
3012.84764	3949.5375
3015.26888	3940.4375
3017.68865	3943.6375
3020.10694	3947.6375
3022.52376	3929.1375
3024.9391	3928.5375
3027.35298	3922.1375
3029.76539	3900.3375
3032.17632	3896.0375
3034.5858	3896.3375
3036.9938	3890.9375
3039.40034	3882.2375
3041.80542	3885.5375
3044.20903	3897.2375
3046.61118	3879.9375
3049.01187	3877.5375
3051.4111	3883.3375
3053.80888	3880.6375
3056.20519	3875.1375
3058.60005	3859.0375
3060.99345	3864.3375
3063.3854	3848.1375
3065.7759	3846.0375
3068.16494	3851.1375
3070.55254	3846.9375
3072.93868	3848.3375
3075.32338	3817.3375
3077.70662	3835.8375
3080.08842	3822.9375
3082.46878	3842.2375
3084.84769	3819.4375
3087.22515	3838.9375
3089.60118	3824.3375
3091.97576	3828.7375
3094.3489	3836.0375
3096.72061	3838.2375
3099.09087	3845.7375
3101.4597	3835.0375
3103.82709	3849.9375
3106.19305	3849.1375
3108.55757	3836.4375
3110.92066	3832.7375
3113.28232	3824.4375
3115.64255	3818.9375
3118.00134	3821.1375
3120.35871	3836.9375
3122.71466	3821.2375
3125.06917	3809.7375
3127.42226	3808.4375
3129.77393	3816.2375
3132.12417	3820.2375
3134.47299	3841.4375
3136.82039	3834.2375
3139.16636	3838.8375
3141.51092	3843.4375
3143.85406	3854.5375
3146.19579	3851.5375
3148.53609	3867.0375
3150.87499	3877.2375
3153.21246	3886.9375
3155.54853	3879.1375
3157.88318	3883.9375
3160.21642	3895.4375
3162.54826	3883.0375
3164.87868	3902.5375
3167.2077	3893.8375
3169.5353	3897.9375
3171.86151	3916.9375
3174.18631	3891.5375
3176.5097	3899.0375
3178.83169	3891.9375
3181.15228	3897.7375
3183.47147	3897.1375
3185.78926	3899.4375
3188.10565	3911.3375
3190.42065	3905.6375
3192.73424	3921.8375
3195.04645	3905.7375
3197.35725	3904.9375
3199.66667	3924.2375
3201.97469	3937.1375
3204.28132	3923.3375
3206.58656	3945.4375
3208.8904	3947.8375
3211.19287	3953.9375
3213.49394	3959.8375
3215.79363	3948.7375
3218.09193	3968.5375
3220.38884	3962.3375
3222.68438	3954.2375
3224.97853	3945.6375
3227.2713	3951.8375
3229.56269	3937.5375
3231.8527	3948.7375
3234.14133	3940.2375
3236.42858	3939.6375
3238.71446	3942.3375
3240.99896	3926.0375
3243.28209	3932.6375
3245.56384	3934.8375
3247.84423	3943.2375
3250.12324	3925.4375
3252.40088	3918.1375
3254.67715	3924.6375
3256.95205	3924.7375
3259.22558	3917.6375
3261.49775	3907.4375
3263.76855	3912.7375
3266.03799	3903.4375
3268.30606	3885.6375
3270.57277	3885.6375
3272.83812	3895.8375
3275.10211	3869.1375
3277.36474	3878.3375
3279.62601	3888.7375
3281.88593	3858.4375
3284.14448	3878.2375
3286.40168	3860.0375
3288.65753	3868.9375
3290.91202	3857.9375
3293.16516	3835.3375
3295.41695	3832.3375
3297.66738	3813.9375
3299.91647	3796.4375
3302.16421	3764.5375
3304.4106	3764.1375
3306.65564	3744.2375
3308.89933	3726.2375
3311.14169	3716.8375
3313.38269	3681.4375
3315.62236	3678.0375
3317.86068	3654.0375
3320.09766	3585.7375
3322.3333	3577.1375
3324.5676	3573.8375
3326.80056	3519.2375
3329.03219	3502.8375
3331.26248	0.9375
3333.49143	0.5375
3335.71905	-1.1625
