Data from AgNPs_FTO_APTES_UA_200uM_R6G_10uM_NaF_0.1M_Addition_RamanShift__34__16-39-57-535.txt Node

Date: Fri Dec 17 16:39:57 GMT 2021
User: TCL
Spectrometer: QEP01345
Trigger mode: 4
Integration Time (sec): 7.000000E0
Scans to average: 10
Electric dark correction enabled: true
Nonlinearity correction enabled: false
Boxcar width: 0
XAxis mode: Raman Shifts
Number of Pixels in Spectrum: 1044
>>>>>Begin Spectral Data<<<<<
46.04893	1.125
50.45542	-0.375
54.85868	-1.075
59.25871	0.825
63.6555	40.825
68.04907	44.825
72.43941	44.625
76.82654	51.625
81.21044	49.625
85.59113	55.525
89.96862	58.025
94.34289	56.925
98.71396	58.925
103.08183	61.525
107.4465	63.025
111.80798	62.625
116.16626	67.925
120.52136	64.225
124.87327	70.625
129.222	71.625
133.56755	74.025
137.90993	78.625
142.24913	86.225
146.58517	87.125
150.91804	101.525
155.24774	122.425
159.57429	147.825
163.89768	190.125
168.21792	243.025
172.53501	329.525
176.84895	451.425
181.15975	630.625
185.46741	885.825
189.77193	1217.325
194.07331	1632.425
198.37157	2108.325
202.6667	2615.925
206.9587	3124.225
211.24758	3622.825
215.53334	4108.625
219.81599	4604.125
224.09553	5177.525
228.37195	5798.925
232.64527	6500.725
236.91549	7269.025
241.18261	8014.025
245.44663	8703.325
249.70755	9306.725
253.96539	9872.225
258.22014	10313.625
262.4718	10696.025
266.72039	10952.525
270.96589	11121.125
275.20832	11131.125
279.44768	10995.425
283.68397	10843.325
287.91719	10609.525
292.14735	10474.525
296.37445	10466.925
300.59849	10527.925
304.81948	10605.825
309.03742	10634.125
313.25231	10512.725
317.46415	10267.525
321.67296	9977.925
325.87872	9750.025
330.08145	9672.625
334.28114	9681.325
338.47781	9774.025
342.67145	9886.725
346.86207	10073.825
351.04966	10303.525
355.23424	10576.325
359.4158	10825.925
363.59435	11039.825
367.76989	11184.925
371.94243	11267.925
376.11196	11396.425
380.27849	11470.425
384.44203	11490.325
388.60257	11496.825
392.76012	11545.225
396.91468	11599.925
401.06626	11720.125
405.21485	11804.025
409.36047	11692.125
413.50311	11470.625
417.64277	11244.525
421.77947	11073.625
425.9132	10991.725
430.04396	10974.025
434.17176	11010.125
438.2966	11057.025
442.41849	11148.325
446.53742	11273.525
450.6534	11400.825
454.76644	11486.325
458.87653	11533.725
462.98368	11557.525
467.08789	11502.325
471.18916	11461.825
475.2875	11400.825
479.38291	11367.125
483.4754	11316.425
487.56496	11288.825
491.6516	11292.725
495.73531	11285.425
499.81612	11295.725
503.89401	11330.725
507.96899	11361.225
512.04106	11417.825
516.11023	11538.025
520.1765	11582.125
524.23987	11550.925
528.30034	11470.425
532.35792	11420.925
536.41261	11314.425
540.46441	11241.825
544.51333	11186.225
548.55936	11143.025
552.60252	11177.725
556.64279	11283.725
560.6802	11329.625
564.71473	11336.425
568.7464	11436.725
572.7752	11484.525
576.80114	11387.625
580.82422	11275.725
584.84444	11266.425
588.86181	11270.425
592.87633	11344.725
596.888	11400.625
600.89682	11525.925
604.9028	12045.325
608.90594	13383.225
612.90624	15139.425
616.90371	14945.225
620.89834	12713.425
624.89015	11693.925
628.87913	11570.625
632.86528	11722.325
636.84862	11947.025
640.82913	11891.125
644.80683	11630.625
648.78172	11352.625
652.75379	11204.525
656.72306	11251.225
660.68952	11367.625
664.65319	11306.225
668.61405	11044.725
672.57211	10933.325
676.52738	10916.825
680.47986	10943.925
684.42955	10930.725
688.37646	10891.325
692.32058	10896.025
696.26192	10881.925
700.20048	10912.425
704.13626	10956.025
708.06928	10929.125
711.99952	10898.825
715.927	10895.925
719.85171	10913.025
723.77365	10927.425
727.69284	10912.325
731.60928	10890.425
735.52295	10815.325
739.43388	10793.825
743.34206	10803.825
747.24749	10801.025
751.15017	10787.225
755.05012	10818.225
758.94733	10960.225
762.8418	11327.525
766.73354	12034.125
770.62254	12951.325
774.50882	13600.725
778.39237	13268.525
782.27321	12274.225
786.15132	11449.025
790.02671	10946.625
793.89938	10699.725
797.76935	10603.625
801.6366	10550.625
805.50115	10598.425
809.36299	10599.725
813.22213	10634.925
817.07857	10642.525
820.93231	10595.725
824.78336	10551.825
828.63172	10461.025
832.47738	10434.925
836.32036	10391.225
840.16066	10355.925
843.99827	10350.425
847.8332	10320.925
851.66546	10313.225
855.49504	10294.025
859.32195	10297.525
863.1462	10259.925
866.96777	10262.925
870.78668	10265.925
874.60293	10295.925
878.41652	10312.125
882.22745	10375.625
886.03573	10416.725
889.84136	10438.725
893.64433	10402.725
897.44466	10317.825
901.24235	10226.525
905.0374	10161.125
908.8298	10095.325
912.61957	10047.925
916.40671	10037.925
920.19121	10018.625
923.97308	10041.825
927.75233	10040.625
931.52895	10074.525
935.30295	10040.125
939.07433	9951.025
942.84309	9826.425
946.60924	9745.625
950.37278	9677.225
954.13371	9635.125
957.89203	9581.525
961.64774	9588.525
965.40086	9541.325
969.15137	9494.725
972.89929	9475.025
976.64461	9475.925
980.38733	9434.425
984.12747	9421.225
987.86502	9428.625
991.59999	9480.825
995.33237	9435.325
999.06217	9511.325
1002.78939	9565.625
1006.51404	9624.625
1010.23611	9703.625
1013.95561	9752.025
1017.67255	9771.625
1021.38692	9725.425
1025.09872	9680.825
1028.80796	9614.225
1032.51465	9605.525
1036.21877	9582.725
1039.92035	9574.925
1043.61937	9579.625
1047.31584	9568.925
1051.00976	9561.725
1054.70114	9571.125
1058.38998	9567.925
1062.07627	9592.525
1065.76003	9631.525
1069.44126	9662.525
1073.11995	9744.425
1076.79611	9800.325
1080.46974	9795.025
1084.14085	9795.525
1087.80943	9846.025
1091.47549	9872.925
1095.13903	9819.925
1098.80005	9723.225
1102.45857	9593.025
1106.11456	9551.925
1109.76805	9521.225
1113.41903	9644.825
1117.06751	9760.025
1120.71348	9990.625
1124.35696	10172.125
1127.99793	10418.025
1131.63641	10615.725
1135.2724	10509.825
1138.90589	10281.525
1142.5369	10053.525
1146.16542	9852.525
1149.79145	9662.225
1153.415	9527.125
1157.03607	9441.325
1160.65467	9473.225
1164.27079	9581.825
1167.88443	9743.125
1171.49561	10077.525
1175.10432	10563.325
1178.71056	11331.825
1182.31434	11987.025
1185.91565	12227.425
1189.51451	11995.425
1193.11091	11522.125
1196.70485	11006.125
1200.29634	10696.825
1203.88538	10504.425
1207.47197	10257.125
1211.05612	9992.125
1214.63782	9768.825
1218.21708	9621.625
1221.79391	9534.525
1225.36829	9490.425
1228.94024	9450.625
1232.50976	9420.125
1236.07685	9411.525
1239.6415	9420.925
1243.20374	9427.125
1246.76355	9490.125
1250.32093	9519.225
1253.8759	9610.525
1257.42845	9689.325
1260.97859	9792.625
1264.52631	9919.525
1268.07163	10064.425
1271.61453	10209.125
1275.15503	10263.325
1278.69312	10296.825
1282.22882	10299.025
1285.76211	10360.225
1289.29301	10485.925
1292.82151	10693.225
1296.34761	10942.025
1299.87133	11292.925
1303.39266	11757.025
1306.9116	12474.225
1310.42815	13207.725
1313.94233	13644.625
1317.45412	13441.925
1320.96354	12867.125
1324.47058	12208.125
1327.97525	11622.125
1331.47754	11175.725
1334.97747	10924.825
1338.47502	10798.125
1341.97022	10894.425
1345.46305	11060.325
1348.95352	11479.325
1352.44163	12151.925
1355.92738	13036.125
1359.41078	14349.825
1362.89183	15847.725
1366.37053	16144.525
1369.84688	14486.025
1373.32088	12569.225
1376.79254	11232.225
1380.26186	10558.125
1383.72883	10227.325
1387.19347	9973.325
1390.65578	9752.225
1394.11575	9527.925
1397.57339	9348.325
1401.0287	9256.425
1404.48168	9173.225
1407.93234	9101.925
1411.38068	9046.525
1414.82669	8978.925
1418.27039	8949.825
1421.71177	8855.625
1425.15083	8799.725
1428.58758	8738.325
1432.02203	8708.025
1435.45416	8731.925
1438.88399	8757.125
1442.31151	8783.725
1445.73673	8788.625
1449.15965	8806.625
1452.58027	8810.925
1455.9986	8795.925
1459.41463	8775.325
1462.82837	8806.525
1466.23982	8861.625
1469.64898	8958.425
1473.05586	9046.825
1476.46045	9120.725
1479.86276	9185.325
1483.26279	9300.025
1486.66054	9399.525
1490.05602	9558.125
1493.44922	9771.925
1496.84016	10193.925
1500.22882	10874.325
1503.61521	11820.625
1506.99934	12970.925
1510.38121	14049.425
1513.76081	14512.725
1517.13816	13981.825
1520.51324	12750.725
1523.88607	11479.825
1527.25665	10575.225
1530.62498	10075.825
1533.99105	9806.625
1537.35488	9648.025
1540.71647	9514.725
1544.07581	9425.425
1547.4329	9399.025
1550.78776	9384.625
1554.14038	9420.125
1557.49077	9499.225
1560.83892	9593.325
1564.18484	9728.425
1567.52853	9885.125
1570.86999	10083.925
1574.20922	10284.325
1577.54624	10290.025
1580.88103	10085.725
1584.2136	9678.425
1587.54395	9353.125
1590.87208	9209.525
1594.19801	9278.525
1597.52172	9514.625
1600.84321	9626.325
1604.16251	9508.625
1607.47959	9246.025
1610.79447	8959.525
1614.10715	8704.025
1617.41763	8462.925
1620.7259	8282.125
1624.03199	8174.125
1627.33587	8149.225
1630.63757	8172.225
1633.93707	8308.525
1637.23439	8566.625
1640.52951	8943.025
1643.82246	9559.125
1647.11321	10349.525
1650.40179	11066.625
1653.68819	11157.125
1656.97241	10455.425
1660.25446	9453.225
1663.53433	8646.425
1666.81203	8211.225
1670.08756	7908.025
1673.36092	7719.725
1676.63211	7611.625
1679.90115	7543.725
1683.16801	7471.725
1686.43272	7428.025
1689.69527	7368.625
1692.95567	7363.525
1696.2139	7381.925
1699.46999	7365.525
1702.72392	7350.925
1705.97571	7263.325
1709.22535	7192.825
1712.47284	7089.125
1715.71819	7054.825
1718.96139	6989.925
1722.20246	6945.225
1725.44139	6903.725
1728.67818	6832.725
1731.91284	6811.725
1735.14537	6791.925
1738.37576	6752.725
1741.60403	6730.625
1744.83017	6680.325
1748.05418	6679.225
1751.27607	6678.525
1754.49584	6661.025
1757.71349	6659.725
1760.92903	6633.025
1764.14244	6634.725
1767.35375	6626.725
1770.56294	6625.725
1773.77002	6595.525
1776.97499	6591.325
1780.17785	6551.625
1783.37861	6515.925
1786.57727	6526.125
1789.77382	6488.625
1792.96828	6498.825
1796.16064	6470.525
1799.3509	6444.525
1802.53907	6447.525
1805.72514	6415.825
1808.90913	6390.325
1812.09102	6386.625
1815.27083	6352.425
1818.44856	6343.725
1821.6242	6310.525
1824.79776	6312.025
1827.96924	6289.325
1831.13864	6276.925
1834.30597	6273.325
1837.47122	6267.025
1840.6344	6240.525
1843.7955	6262.425
1846.95454	6246.825
1850.11151	6226.125
1853.26642	6218.625
1856.41926	6228.525
1859.57004	6203.025
1862.71876	6198.625
1865.86542	6175.925
1869.01003	6193.825
1872.15258	6166.025
1875.29308	6149.525
1878.43152	6126.725
1881.56792	6122.125
1884.70227	6128.125
1887.83457	6096.725
1890.96482	6088.025
1894.09304	6079.925
1897.21921	6075.925
1900.34335	6077.525
1903.46544	6045.025
1906.58551	6031.525
1909.70353	6033.625
1912.81953	6024.325
1915.93349	6022.525
1919.04543	6003.725
1922.15534	5976.525
1925.26322	5984.625
1928.36908	5970.825
1931.47292	5928.725
1934.57473	5912.325
1937.67453	5906.625
1940.77232	5889.025
1943.86808	5873.425
1946.96184	5870.025
1950.05358	5840.625
1953.14331	5829.125
1956.23103	5798.025
1959.31675	5784.925
1962.40046	5768.325
1965.48217	5746.625
1968.56188	5728.225
1971.63959	5724.925
1974.7153	5693.025
1977.78901	5661.825
1980.86073	5654.125
1983.93046	5628.725
1986.99819	5596.225
1990.06394	5591.125
1993.1277	5569.325
1996.18947	5553.725
1999.24925	5540.825
2002.30706	5502.725
2005.36288	5485.825
2008.41672	5454.225
2011.46859	5448.825
2014.51848	5436.925
2017.56639	5415.825
2020.61233	5389.925
2023.6563	5351.425
2026.6983	5374.625
2029.73833	5346.425
2032.7764	5314.025
2035.8125	5307.125
2038.84664	5286.825
2041.87881	5311.625
2044.90903	5288.125
2047.93729	5261.325
2050.96359	5256.125
2053.98794	5253.025
2057.01034	5225.725
2060.03078	5235.325
2063.04927	5216.225
2066.06582	5209.525
2069.08042	5214.525
2072.09307	5197.125
2075.10378	5196.125
2078.11255	5174.725
2081.11938	5185.425
2084.12426	5192.025
2087.12722	5172.625
2090.12824	5169.025
2093.12732	5151.925
2096.12447	5172.825
2099.11969	5154.325
2102.11299	5168.525
2105.10435	5155.325
2108.09379	5155.125
2111.08131	5168.325
2114.0669	5145.325
2117.05057	5154.025
2120.03233	5157.225
2123.01216	5159.625
2125.99008	5168.825
2128.96609	5185.125
2131.94018	5168.425
2134.91236	5174.825
2137.88263	5179.125
2140.851	5164.925
2143.81746	5167.225
2146.78201	5168.825
2149.74466	5169.025
2152.7054	5152.825
2155.66425	5162.525
2158.6212	5153.625
2161.57625	5142.325
2164.52941	5149.425
2167.48067	5151.025
2170.43004	5138.525
2173.37752	5125.725
2176.32311	5139.225
2179.26681	5101.025
2182.20863	5109.725
2185.14856	5125.325
2188.08661	5103.625
2191.02278	5107.725
2193.95707	5080.425
2196.88948	5072.625
2199.82001	5080.125
2202.74867	5073.825
2205.67545	5051.825
2208.60037	5059.725
2211.52341	5047.325
2214.44458	5040.225
2217.36388	5012.425
2220.28132	5004.225
2223.1969	4973.625
2226.11061	4980.425
2229.02246	4970.925
2231.93245	4965.125
2234.84058	4930.725
2237.74686	4950.025
2240.65128	4934.225
2243.55385	4925.025
2246.45456	4907.325
2249.35343	4916.025
2252.25044	4905.725
2255.14561	4888.625
2258.03893	4898.125
2260.93041	4881.325
2263.82004	4865.225
2266.70783	4847.625
2269.59378	4832.125
2272.4779	4826.425
2275.36017	4804.025
2278.24061	4799.025
2281.11922	4789.825
2283.996	4760.825
2286.87094	4754.225
2289.74405	4755.325
2292.61534	4741.325
2295.4848	4726.025
2298.35243	4721.725
2301.21824	4722.025
2304.08223	4723.125
2306.94439	4709.825
2309.80474	4696.825
2312.66327	4692.425
2315.51999	4684.625
2318.37489	4683.325
2321.22797	4669.925
2324.07925	4664.525
2326.92871	4648.025
2329.77637	4656.325
2332.62222	4633.525
2335.46626	4627.125
2338.3085	4619.425
2341.14893	4600.925
2343.98756	4595.925
2346.8244	4596.925
2349.65943	4579.725
2352.49267	4579.225
2355.32411	4603.725
2358.15376	4592.225
2360.98161	4581.825
2363.80768	4570.525
2366.63195	4578.925
2369.45444	4573.925
2372.27514	4561.825
2375.09405	4567.425
2377.91118	4532.425
2380.72652	4516.125
2383.54009	4511.625
2386.35187	4517.825
2389.16188	4477.625
2391.97011	4459.725
2394.77657	4459.225
2397.58125	4453.425
2400.38416	4451.925
2403.18529	4438.125
2405.98466	4408.525
2408.78226	4411.125
2411.57809	4402.925
2414.37216	4392.725
2417.16446	4386.625
2419.955	4373.025
2422.74378	4363.225
2425.5308	4373.125
2428.31606	4369.625
2431.09956	4362.725
2433.88131	4345.025
2436.6613	4361.825
2439.43954	4345.025
2442.21603	4328.025
2444.99077	4327.325
2447.76377	4338.525
2450.53501	4330.325
2453.30451	4325.025
2456.07226	4306.125
2458.83827	4293.725
2461.60254	4284.325
2464.36507	4302.525
2467.12586	4281.325
2469.88492	4273.825
2472.64224	4269.725
2475.39782	4279.125
2478.15167	4278.325
2480.90379	4282.725
2483.65417	4262.725
2486.40283	4254.325
2489.14976	4243.525
2491.89497	4241.025
2494.63845	4249.525
2497.3802	4250.925
2500.12024	4220.125
2502.85855	4230.925
2505.59514	4216.925
2508.33002	4203.325
2511.06318	4201.525
2513.79462	4186.725
2516.52435	4179.925
2519.25237	4172.525
2521.97867	4156.425
2524.70327	4138.425
2527.42616	4123.025
2530.14734	4115.025
2532.86681	4116.425
2535.58458	4109.725
2538.30065	4093.725
2541.01501	4092.225
2543.72768	4076.125
2546.43864	4075.125
2549.14791	4067.225
2551.85548	4068.925
2554.56136	4043.025
2557.26554	4044.525
2559.96803	4041.425
2562.66883	4033.625
2565.36794	4025.125
2568.06536	4028.525
2570.7611	4000.625
2573.45514	3998.625
2576.14751	3985.225
2578.83819	3985.725
2581.52719	3977.525
2584.21451	3969.725
2586.90015	3965.525
2589.58411	3954.325
2592.2664	3925.225
2594.94701	3929.325
2597.62594	3905.925
2600.30321	3907.025
2602.9788	3905.525
2605.65273	3878.125
2608.32498	3879.825
2610.99557	3878.225
2613.66449	3848.325
2616.33175	3871.325
2618.99734	3842.125
2621.66128	3842.125
2624.32355	3844.725
2626.98416	3842.125
2629.64311	3825.625
2632.30041	3833.025
2634.95605	3818.925
2637.61004	3822.125
2640.26238	3797.425
2642.91306	3794.325
2645.56209	3794.425
2648.20948	3792.025
2650.85521	3790.225
2653.4993	3782.225
2656.14175	3779.425
2658.78255	3780.025
2661.42171	3776.425
2664.05923	3778.725
2666.6951	3763.725
2669.32934	3762.725
2671.96194	3756.225
2674.59291	3746.725
2677.22224	3750.025
2679.84993	3761.625
2682.476	3753.325
2685.10043	3757.625
2687.72324	3743.425
2690.34441	3747.625
2692.96396	3749.125
2695.58188	3749.425
2698.19818	3745.425
2700.81285	3732.925
2703.4259	3745.925
2706.03733	3764.425
2708.64714	3750.325
2711.25533	3761.925
2713.86191	3739.125
2716.46687	3743.825
2719.07021	3734.225
2721.67194	3730.225
2724.27206	3721.325
2726.87057	3713.125
2729.46747	3718.925
2732.06276	3711.325
2734.65644	3699.625
2737.24852	3709.225
2739.83899	3697.725
2742.42786	3683.725
2745.01513	3661.625
2747.60079	3679.025
2750.18486	3678.725
2752.76733	3678.125
2755.3482	3666.425
2757.92747	3666.225
2760.50515	3657.925
2763.08123	3648.525
2765.65573	3638.625
2768.22863	3635.825
2770.79994	3612.725
2773.36967	3621.525
2775.9378	3616.025
2778.50435	3597.525
2781.06932	3606.825
2783.6327	3596.625
2786.1945	3584.125
2788.75471	3572.925
2791.31335	3557.725
2793.87041	3561.925
2796.42589	3544.325
2798.97979	3551.325
2801.53212	3540.325
2804.08288	3532.525
2806.63206	3524.525
2809.17967	3512.025
2811.72571	3505.725
2814.27018	3501.825
2816.81308	3499.525
2819.35442	3492.925
2821.89419	3488.825
2824.43239	3488.625
2826.96904	3485.725
2829.50412	3488.525
2832.03763	3471.825
2834.56959	3485.525
2837.1	3481.425
2839.62884	3473.025
2842.15613	3470.625
2844.68186	3485.525
2847.20604	3484.725
2849.72867	3481.425
2852.24974	3495.225
2854.76927	3480.925
2857.28724	3482.825
2859.80367	3477.925
2862.31855	3450.125
2864.83189	3460.225
2867.34368	3454.925
2869.85393	3470.025
2872.36264	3471.525
2874.8698	3456.925
2877.37543	3474.025
2879.87952	3463.225
2882.38207	3468.125
2884.88308	3451.925
2887.38256	3449.525
2889.88051	3453.825
2892.37692	3426.525
2894.8718	3440.825
2897.36515	3457.225
2899.85698	3438.125
2902.34727	3451.025
2904.83604	3433.125
2907.32328	3437.825
2909.809	3427.425
2912.29319	3447.425
2914.77587	3450.425
2917.25702	3444.425
2919.73665	3432.725
2922.21476	3437.525
2924.69136	3443.225
2927.16644	3431.225
2929.64	3415.525
2932.11205	3420.925
2934.58258	3411.725
2937.05161	3422.725
2939.51912	3409.525
2941.98513	3392.125
2944.44962	3388.325
2946.91261	3379.925
2949.37409	3383.225
2951.83407	3378.325
2954.29254	3384.725
2956.74951	3376.325
2959.20498	3373.425
2961.65895	3365.425
2964.11142	3355.325
2966.56239	3357.025
2969.01186	3350.425
2971.45984	3334.925
2973.90632	3344.225
2976.35131	3326.925
2978.7948	3324.225
2981.23681	3316.925
2983.67732	3304.625
2986.11635	3308.925
2988.55388	3300.225
2990.98993	3296.625
2993.4245	3297.325
2995.85758	3283.425
2998.28917	3274.625
3000.71928	3262.625
3003.14791	3267.225
3005.57506	3276.925
3008.00073	3259.925
3010.42493	3270.825
3012.84764	3255.625
3015.26888	3262.925
3017.68865	3245.925
3020.10694	3238.725
3022.52376	3238.025
3024.9391	3251.625
3027.35298	3236.525
3029.76539	3213.125
3032.17632	3215.525
3034.5858	3228.025
3036.9938	3218.425
3039.40034	3202.125
3041.80542	3221.425
3044.20903	3205.825
3046.61118	3217.225
3049.01187	3217.525
3051.4111	3198.325
3053.80888	3186.125
3056.20519	3200.125
3058.60005	3195.525
3060.99345	3185.925
3063.3854	3183.125
3065.7759	3186.625
3068.16494	3188.625
3070.55254	3174.025
3072.93868	3184.125
3075.32338	3178.325
3077.70662	3176.925
3080.08842	3166.925
3082.46878	3179.325
3084.84769	3184.625
3087.22515	3171.825
3089.60118	3187.725
3091.97576	3181.925
3094.3489	3179.525
3096.72061	3201.125
3099.09087	3182.325
3101.4597	3196.425
3103.82709	3196.325
3106.19305	3186.825
3108.55757	3195.225
3110.92066	3190.925
3113.28232	3184.325
3115.64255	3169.225
3118.00134	3170.925
3120.35871	3183.725
3122.71466	3181.525
3125.06917	3180.925
3127.42226	3174.025
3129.77393	3176.525
3132.12417	3188.025
3134.47299	3210.625
3136.82039	3188.125
3139.16636	3205.225
3141.51092	3221.525
3143.85406	3229.725
3146.19579	3227.925
3148.53609	3230.725
3150.87499	3232.425
3153.21246	3247.825
3155.54853	3254.125
3157.88318	3247.425
3160.21642	3259.925
3162.54826	3242.225
3164.87868	3260.625
3167.2077	3278.725
3169.5353	3276.125
3171.86151	3282.325
3174.18631	3286.725
3176.5097	3276.425
3178.83169	3279.425
3181.15228	3292.625
3183.47147	3276.625
3185.78926	3289.825
3188.10565	3285.325
3190.42065	3286.225
3192.73424	3285.425
3195.04645	3306.025
3197.35725	3307.225
3199.66667	3295.025
3201.97469	3300.725
3204.28132	3309.125
3206.58656	3318.825
3208.8904	3313.725
3211.19287	3328.825
3213.49394	3338.525
3215.79363	3339.125
3218.09193	3349.625
3220.38884	3338.325
3222.68438	3331.425
3224.97853	3337.025
3227.2713	3329.725
3229.56269	3330.725
3231.8527	3338.725
3234.14133	3334.725
3236.42858	3317.525
3238.71446	3323.025
3240.99896	3313.425
3243.28209	3322.225
3245.56384	3318.225
3247.84423	3325.725
3250.12324	3311.925
3252.40088	3305.625
3254.67715	3309.325
3256.95205	3317.525
3259.22558	3305.625
3261.49775	3302.825
3263.76855	3295.425
3266.03799	3298.925
3268.30606	3294.525
3270.57277	3286.325
3272.83812	3269.325
3275.10211	3279.725
3277.36474	3259.525
3279.62601	3269.525
3281.88593	3283.425
3284.14448	3271.125
3286.40168	3266.325
3288.65753	3261.925
3290.91202	3244.525
3293.16516	3251.125
3295.41695	3238.725
3297.66738	3216.525
3299.91647	3205.325
3302.16421	3192.625
3304.4106	3178.225
3306.65564	3173.725
3308.89933	3148.425
3311.14169	3144.125
3313.38269	3113.425
3315.62236	3096.425
3317.86068	3072.025
3320.09766	3046.525
3322.3333	3006.325
3324.5676	3023.925
3326.80056	2981.325
3329.03219	2957.525
3331.26248	-0.275
3333.49143	0.925
3335.71905	-0.575
