Data from AgNPs_FTO_APTES_UA_20uM_R6G_10uM_NaF_0.1M_Addition_RamanShift__24__14-23-27-380.txt Node

Date: Fri Dec 17 14:23:27 GMT 2021
User: TCL
Spectrometer: QEP01345
Trigger mode: 4
Integration Time (sec): 7.000000E0
Scans to average: 10
Electric dark correction enabled: true
Nonlinearity correction enabled: false
Boxcar width: 0
XAxis mode: Raman Shifts
Number of Pixels in Spectrum: 1044
>>>>>Begin Spectral Data<<<<<
46.04893	-1.4125
50.45542	-0.4125
54.85868	-1.3125
59.25871	0.7875
63.6555	69.3875
68.04907	71.0875
72.43941	74.5875
76.82654	84.2875
81.21044	82.1875
85.59113	85.9875
89.96862	88.7875
94.34289	90.9875
98.71396	92.4875
103.08183	99.1875
107.4465	101.5875
111.80798	100.8875
116.16626	105.5875
120.52136	99.7875
124.87327	115.2875
129.222	120.5875
133.56755	123.9875
137.90993	134.4875
142.24913	147.2875
146.58517	158.5875
150.91804	182.5875
155.24774	213.0875
159.57429	261.8875
163.89768	336.4875
168.21792	439.2875
172.53501	599.0875
176.84895	831.8875
181.15975	1157.6875
185.46741	1630.2875
189.77193	2232.6875
194.07331	2983.8875
198.37157	3866.0875
202.6667	4774.5875
206.9587	5680.0875
211.24758	6574.0875
215.53334	7442.6875
219.81599	8368.6875
224.09553	9412.5875
228.37195	10564.6875
232.64527	11867.5875
236.91549	13242.3875
241.18261	14616.4875
245.44663	15926.1875
249.70755	17053.6875
253.96539	18046.2875
258.22014	18882.9875
262.4718	19578.9875
266.72039	20120.6875
270.96589	20408.9875
275.20832	20491.0875
279.44768	20315.0875
283.68397	20124.6875
287.91719	19907.5875
292.14735	19790.5875
296.37445	19819.3875
300.59849	19921.2875
304.81948	20115.2875
309.03742	20187.1875
313.25231	19991.7875
317.46415	19495.0875
321.67296	18906.8875
325.87872	18413.0875
330.08145	18211.2875
334.28114	18229.1875
338.47781	18463.4875
342.67145	18759.5875
346.86207	19138.3875
351.04966	19683.1875
355.23424	20223.1875
359.4158	20740.7875
363.59435	21133.5875
367.76989	21363.2875
371.94243	21537.1875
376.11196	21636.9875
380.27849	21748.2875
384.44203	21851.5875
388.60257	21962.1875
392.76012	22004.4875
396.91468	22279.2875
401.06626	22601.8875
405.21485	22862.5875
409.36047	22815.0875
413.50311	22448.8875
417.64277	22051.0875
421.77947	21887.7875
425.9132	21883.4875
430.04396	21961.0875
434.17176	22052.9875
438.2966	22231.3875
442.41849	22579.6875
446.53742	23031.5875
450.6534	23550.9875
454.76644	24002.1875
458.87653	24168.6875
462.98368	24133.7875
467.08789	23926.7875
471.18916	23614.7875
475.2875	23262.8875
479.38291	22999.2875
483.4754	22814.2875
487.56496	22577.3875
491.6516	22421.7875
495.73531	22327.8875
499.81612	22309.0875
503.89401	22426.5875
507.96899	22538.5875
512.04106	22621.6875
516.11023	22759.8875
520.1765	22803.4875
524.23987	22810.8875
528.30034	22657.8875
532.35792	22407.6875
536.41261	22250.8875
540.46441	22064.1875
544.51333	21991.8875
548.55936	22049.8875
552.60252	22306.1875
556.64279	22603.3875
560.6802	22752.1875
564.71473	22772.5875
568.7464	23000.1875
572.7752	23270.4875
576.80114	23344.0875
580.82422	23356.0875
584.84444	23471.9875
588.86181	23597.7875
592.87633	23715.2875
596.888	23966.3875
600.89682	24327.7875
604.9028	25658.0875
608.90594	28616.9875
612.90624	31983.3875
616.90371	30880.8875
620.89834	25912.1875
624.89015	23602.2875
628.87913	23199.2875
632.86528	23184.7875
636.84862	23214.3875
640.82913	23061.8875
644.80683	22549.6875
648.78172	22169.3875
652.75379	22130.8875
656.72306	22420.8875
660.68952	22874.6875
664.65319	22837.6875
668.61405	22464.6875
672.57211	22304.8875
676.52738	22346.7875
680.47986	22361.1875
684.42955	22280.5875
688.37646	22285.4875
692.32058	22369.0875
696.26192	22457.9875
700.20048	22631.8875
704.13626	22717.4875
708.06928	22641.2875
711.99952	22507.0875
715.927	22410.0875
719.85171	22455.9875
723.77365	22403.8875
727.69284	22313.0875
731.60928	22204.4875
735.52295	22184.4875
739.43388	22198.6875
743.34206	22324.3875
747.24749	22445.7875
751.15017	22515.7875
755.05012	22765.4875
758.94733	23244.3875
762.8418	24285.1875
766.73354	25943.1875
770.62254	27803.6875
774.50882	28820.5875
778.39237	27923.8875
782.27321	25950.6875
786.15132	24072.6875
790.02671	23023.4875
793.89938	22551.1875
797.76935	22328.9875
801.6366	22274.0875
805.50115	22233.2875
809.36299	22156.1875
813.22213	22129.6875
817.07857	22043.0875
820.93231	22038.3875
824.78336	22018.0875
828.63172	22056.9875
832.47738	22067.0875
836.32036	22115.1875
840.16066	22121.1875
843.99827	22192.5875
847.8332	22144.2875
851.66546	22051.9875
855.49504	22080.8875
859.32195	22049.4875
863.1462	22020.7875
866.96777	21956.9875
870.78668	21952.3875
874.60293	21991.2875
878.41652	21991.1875
882.22745	22093.7875
886.03573	22106.4875
889.84136	22153.6875
893.64433	22058.5875
897.44466	21920.1875
901.24235	21851.2875
905.0374	21815.6875
908.8298	21739.1875
912.61957	21792.3875
916.40671	21876.9875
920.19121	22004.7875
923.97308	22176.4875
927.75233	22311.4875
931.52895	22329.8875
935.30295	22208.8875
939.07433	21946.9875
942.84309	21700.8875
946.60924	21593.7875
950.37278	21483.7875
954.13371	21416.9875
957.89203	21303.0875
961.64774	21225.5875
965.40086	21109.6875
969.15137	21118.8875
972.89929	21036.2875
976.64461	21013.5875
980.38733	21027.8875
984.12747	21119.0875
987.86502	21243.7875
991.59999	21460.6875
995.33237	21708.5875
999.06217	22235.2875
1002.78939	22851.9875
1006.51404	23243.5875
1010.23611	23548.0875
1013.95561	23770.5875
1017.67255	23843.7875
1021.38692	23722.5875
1025.09872	23605.0875
1028.80796	23740.9875
1032.51465	24236.0875
1036.21877	24614.4875
1039.92035	24653.7875
1043.61937	24379.9875
1047.31584	23863.7875
1051.00976	23325.8875
1054.70114	23075.9875
1058.38998	22967.0875
1062.07627	23003.4875
1065.76003	23090.7875
1069.44126	23240.4875
1073.11995	23405.7875
1076.79611	23572.6875
1080.46974	23657.6875
1084.14085	23813.1875
1087.80943	23971.8875
1091.47549	24001.6875
1095.13903	23841.6875
1098.80005	23485.7875
1102.45857	23168.0875
1106.11456	23002.2875
1109.76805	23027.1875
1113.41903	23223.4875
1117.06751	23480.3875
1120.71348	23804.3875
1124.35696	24122.1875
1127.99793	24395.3875
1131.63641	24556.0875
1135.2724	24321.2875
1138.90589	23990.0875
1142.5369	23699.2875
1146.16542	23474.2875
1149.79145	23287.1875
1153.415	23302.6875
1157.03607	23460.1875
1160.65467	23754.6875
1164.27079	24237.4875
1167.88443	25059.3875
1171.49561	26073.0875
1175.10432	27653.4875
1178.71056	29776.5875
1182.31434	31795.1875
1185.91565	32936.7875
1189.51451	33004.8875
1193.11091	32053.1875
1196.70485	30587.7875
1200.29634	29346.1875
1203.88538	28276.5875
1207.47197	27308.5875
1211.05612	26611.3875
1214.63782	26180.5875
1218.21708	26037.5875
1221.79391	26085.0875
1225.36829	26219.2875
1228.94024	26213.0875
1232.50976	26135.8875
1236.07685	26082.1875
1239.6415	26114.9875
1243.20374	26121.5875
1246.76355	26178.6875
1250.32093	26453.2875
1253.8759	26925.8875
1257.42845	27544.6875
1260.97859	28070.1875
1264.52631	28517.3875
1268.07163	28968.8875
1271.61453	29648.2875
1275.15503	30216.0875
1278.69312	30846.8875
1282.22882	31318.7875
1285.76211	31721.0875
1289.29301	32151.5875
1292.82151	32652.4875
1296.34761	33396.8875
1299.87133	34479.4875
1303.39266	36089.8875
1306.9116	38139.7875
1310.42815	40403.9875
1313.94233	41783.2875
1317.45412	41691.3875
1320.96354	40651.2875
1324.47058	39322.9875
1327.97525	38100.7875
1331.47754	37302.2875
1334.97747	37102.1875
1338.47502	37431.0875
1341.97022	37996.6875
1345.46305	38317.7875
1348.95352	38439.6875
1352.44163	38830.4875
1355.92738	39954.1875
1359.41078	42155.2875
1362.89183	44393.2875
1366.37053	43766.3875
1369.84688	39936.9875
1373.32088	35743.9875
1376.79254	32890.5875
1380.26186	31402.5875
1383.72883	30767.3875
1387.19347	30236.0875
1390.65578	29750.7875
1394.11575	29421.4875
1397.57339	29408.3875
1401.0287	29690.0875
1404.48168	30107.3875
1407.93234	30655.9875
1411.38068	31006.0875
1414.82669	31086.4875
1418.27039	30694.5875
1421.71177	30022.1875
1425.15083	29409.9875
1428.58758	29028.8875
1432.02203	28925.7875
1435.45416	29016.9875
1438.88399	29209.5875
1442.31151	29334.2875
1445.73673	29486.7875
1449.15965	29673.6875
1452.58027	29798.0875
1455.9986	29761.1875
1459.41463	29814.1875
1462.82837	30124.2875
1466.23982	30551.8875
1469.64898	31109.8875
1473.05586	31472.2875
1476.46045	31736.1875
1479.86276	31927.6875
1483.26279	32150.0875
1486.66054	32484.9875
1490.05602	32905.7875
1493.44922	33428.2875
1496.84016	34064.7875
1500.22882	34957.2875
1503.61521	36411.2875
1506.99934	38085.7875
1510.38121	39648.8875
1513.76081	40043.0875
1517.13816	38924.8875
1520.51324	36673.6875
1523.88607	34520.4875
1527.25665	32967.6875
1530.62498	32093.4875
1533.99105	31564.6875
1537.35488	31248.4875
1540.71647	31070.4875
1544.07581	30957.9875
1547.4329	30837.8875
1550.78776	30803.2875
1554.14038	30740.2875
1557.49077	30784.6875
1560.83892	30898.1875
1564.18484	30928.2875
1567.52853	31003.7875
1570.86999	31040.0875
1574.20922	31125.0875
1577.54624	31202.6875
1580.88103	30859.8875
1584.2136	30488.2875
1587.54395	30502.7875
1590.87208	31274.6875
1594.19801	32615.7875
1597.52172	34317.0875
1600.84321	35100.8875
1604.16251	34424.6875
1607.47959	32794.5875
1610.79447	30909.6875
1614.10715	29089.2875
1617.41763	27623.0875
1620.7259	26529.4875
1624.03199	26013.1875
1627.33587	26021.8875
1630.63757	26410.8875
1633.93707	27429.0875
1637.23439	28752.2875
1640.52951	30421.1875
1643.82246	32218.8875
1647.11321	33750.7875
1650.40179	34278.9875
1653.68819	33098.3875
1656.97241	30390.6875
1660.25446	27487.6875
1663.53433	25310.4875
1666.81203	23945.7875
1670.08756	23069.1875
1673.36092	22495.4875
1676.63211	22140.8875
1679.90115	21803.5875
1683.16801	21599.4875
1686.43272	21450.4875
1689.69527	21324.2875
1692.95567	21222.2875
1696.2139	21201.0875
1699.46999	21145.2875
1702.72392	21076.3875
1705.97571	21053.5875
1709.22535	21002.7875
1712.47284	21009.1875
1715.71819	20984.9875
1718.96139	20945.4875
1722.20246	20909.9875
1725.44139	20843.6875
1728.67818	20772.7875
1731.91284	20681.9875
1735.14537	20607.9875
1738.37576	20549.4875
1741.60403	20481.7875
1744.83017	20484.2875
1748.05418	20429.5875
1751.27607	20371.7875
1754.49584	20370.6875
1757.71349	20366.4875
1760.92903	20336.4875
1764.14244	20338.5875
1767.35375	20375.0875
1770.56294	20344.0875
1773.77002	20324.4875
1776.97499	20329.1875
1780.17785	20276.5875
1783.37861	20241.9875
1786.57727	20265.7875
1789.77382	20201.0875
1792.96828	20190.5875
1796.16064	20208.2875
1799.3509	20184.4875
1802.53907	20144.3875
1805.72514	20086.6875
1808.90913	20083.4875
1812.09102	20023.5875
1815.27083	20010.2875
1818.44856	20002.2875
1821.6242	19994.0875
1824.79776	19952.0875
1827.96924	19966.1875
1831.13864	19955.6875
1834.30597	19943.8875
1837.47122	19950.3875
1840.6344	19917.8875
1843.7955	19973.5875
1846.95454	19945.1875
1850.11151	19938.1875
1853.26642	19936.3875
1856.41926	19920.2875
1859.57004	19967.8875
1862.71876	19950.5875
1865.86542	19976.1875
1869.01003	19907.8875
1872.15258	19937.2875
1875.29308	19948.9875
1878.43152	19938.5875
1881.56792	19918.1875
1884.70227	19936.0875
1887.83457	19930.7875
1890.96482	19976.2875
1894.09304	19909.3875
1897.21921	19920.6875
1900.34335	19897.2875
1903.46544	19921.9875
1906.58551	19918.5875
1909.70353	19885.4875
1912.81953	19908.8875
1915.93349	19829.7875
1919.04543	19831.8875
1922.15534	19780.5875
1925.26322	19770.3875
1928.36908	19726.0875
1931.47292	19722.1875
1934.57473	19652.6875
1937.67453	19616.7875
1940.77232	19527.3875
1943.86808	19464.4875
1946.96184	19467.2875
1950.05358	19379.4875
1953.14331	19329.1875
1956.23103	19300.5875
1959.31675	19197.3875
1962.40046	19209.5875
1965.48217	19122.0875
1968.56188	19131.3875
1971.63959	19024.8875
1974.7153	18951.6875
1977.78901	18911.0875
1980.86073	18863.8875
1983.93046	18766.0875
1986.99819	18766.6875
1990.06394	18692.5875
1993.1277	18696.4875
1996.18947	18575.5875
1999.24925	18554.0875
2002.30706	18533.6875
2005.36288	18456.7875
2008.41672	18436.9875
2011.46859	18394.5875
2014.51848	18320.5875
2017.56639	18291.0875
2020.61233	18229.3875
2023.6563	18210.9875
2026.6983	18206.0875
2029.73833	18141.0875
2032.7764	18134.5875
2035.8125	18087.9875
2038.84664	18102.3875
2041.87881	18050.3875
2044.90903	18067.6875
2047.93729	17994.5875
2050.96359	17996.2875
2053.98794	17954.6875
2057.01034	17957.8875
2060.03078	17934.7875
2063.04927	17950.5875
2066.06582	17934.2875
2069.08042	17914.7875
2072.09307	17879.9875
2075.10378	17853.3875
2078.11255	17885.7875
2081.11938	17853.6875
2084.12426	17867.8875
2087.12722	17848.1875
2090.12824	17830.8875
2093.12732	17856.4875
2096.12447	17863.7875
2099.11969	17897.4875
2102.11299	17871.7875
2105.10435	17858.9875
2108.09379	17882.5875
2111.08131	17920.5875
2114.0669	17897.9875
2117.05057	17949.8875
2120.03233	17932.4875
2123.01216	17961.5875
2125.99008	17994.3875
2128.96609	18029.0875
2131.94018	17970.5875
2134.91236	18036.2875
2137.88263	18072.6875
2140.851	18077.3875
2143.81746	18080.7875
2146.78201	18104.8875
2149.74466	18119.2875
2152.7054	18105.1875
2155.66425	18096.2875
2158.6212	18101.2875
2161.57625	18122.3875
2164.52941	18095.8875
2167.48067	18117.0875
2170.43004	18069.7875
2173.37752	18086.2875
2176.32311	18095.6875
2179.26681	18104.9875
2182.20863	18114.1875
2185.14856	18127.7875
2188.08661	18111.6875
2191.02278	18072.3875
2193.95707	18118.1875
2196.88948	18121.4875
2199.82001	18103.2875
2202.74867	18084.8875
2205.67545	18103.3875
2208.60037	18091.7875
2211.52341	18057.7875
2214.44458	18068.8875
2217.36388	18027.3875
2220.28132	18018.9875
2223.1969	18002.7875
2226.11061	17972.1875
2229.02246	17973.9875
2231.93245	17930.4875
2234.84058	17891.5875
2237.74686	17816.4875
2240.65128	17821.7875
2243.55385	17806.4875
2246.45456	17818.2875
2249.35343	17768.2875
2252.25044	17753.2875
2255.14561	17775.1875
2258.03893	17736.7875
2260.93041	17710.7875
2263.82004	17644.4875
2266.70783	17647.2875
2269.59378	17569.1875
2272.4779	17538.7875
2275.36017	17528.4875
2278.24061	17482.7875
2281.11922	17466.1875
2283.996	17396.3875
2286.87094	17414.5875
2289.74405	17382.4875
2292.61534	17394.5875
2295.4848	17358.9875
2298.35243	17359.3875
2301.21824	17349.7875
2304.08223	17386.3875
2306.94439	17387.4875
2309.80474	17385.9875
2312.66327	17375.0875
2315.51999	17397.6875
2318.37489	17417.1875
2321.22797	17372.8875
2324.07925	17379.8875
2326.92871	17359.9875
2329.77637	17346.1875
2332.62222	17295.5875
2335.46626	17307.3875
2338.3085	17273.4875
2341.14893	17298.3875
2343.98756	17306.7875
2346.8244	17263.3875
2349.65943	17277.6875
2352.49267	17278.3875
2355.32411	17283.0875
2358.15376	17306.0875
2360.98161	17254.8875
2363.80768	17238.0875
2366.63195	17222.8875
2369.45444	17167.9875
2372.27514	17177.6875
2375.09405	17186.7875
2377.91118	17105.9875
2380.72652	17062.0875
2383.54009	17048.8875
2386.35187	17060.2875
2389.16188	16987.5875
2391.97011	16987.6875
2394.77657	16945.7875
2397.58125	16924.2875
2400.38416	16900.6875
2403.18529	16864.6875
2405.98466	16860.3875
2408.78226	16776.3875
2411.57809	16778.2875
2414.37216	16760.4875
2417.16446	16762.3875
2419.955	16724.1875
2422.74378	16699.1875
2425.5308	16716.5875
2428.31606	16681.8875
2431.09956	16689.0875
2433.88131	16660.0875
2436.6613	16664.8875
2439.43954	16644.2875
2442.21603	16648.2875
2444.99077	16648.8875
2447.76377	16653.7875
2450.53501	16638.4875
2453.30451	16610.1875
2456.07226	16578.6875
2458.83827	16574.8875
2461.60254	16572.0875
2464.36507	16551.8875
2467.12586	16551.0875
2469.88492	16579.9875
2472.64224	16557.9875
2475.39782	16553.6875
2478.15167	16565.4875
2480.90379	16556.4875
2483.65417	16572.2875
2486.40283	16578.8875
2489.14976	16567.4875
2491.89497	16552.0875
2494.63845	16576.4875
2497.3802	16591.6875
2500.12024	16547.3875
2502.85855	16604.3875
2505.59514	16523.9875
2508.33002	16578.0875
2511.06318	16537.3875
2513.79462	16495.5875
2516.52435	16501.6875
2519.25237	16507.9875
2521.97867	16437.2875
2524.70327	16443.7875
2527.42616	16413.1875
2530.14734	16411.8875
2532.86681	16394.7875
2535.58458	16386.8875
2538.30065	16390.7875
2541.01501	16377.8875
2543.72768	16338.0875
2546.43864	16363.9875
2549.14791	16332.3875
2551.85548	16260.1875
2554.56136	16247.5875
2557.26554	16290.0875
2559.96803	16240.4875
2562.66883	16235.5875
2565.36794	16232.0875
2568.06536	16215.8875
2570.7611	16188.8875
2573.45514	16165.0875
2576.14751	16192.3875
2578.83819	16123.3875
2581.52719	16144.8875
2584.21451	16158.6875
2586.90015	16130.5875
2589.58411	16107.6875
2592.2664	16103.5875
2594.94701	16068.8875
2597.62594	16066.3875
2600.30321	16065.7875
2602.9788	16038.2875
2605.65273	16012.8875
2608.32498	16051.1875
2610.99557	16039.6875
2613.66449	16051.3875
2616.33175	15985.0875
2618.99734	16017.1875
2621.66128	16003.6875
2624.32355	15995.5875
2626.98416	16000.2875
2629.64311	15990.3875
2632.30041	15990.5875
2634.95605	15989.7875
2637.61004	15939.0875
2640.26238	15919.6875
2642.91306	15915.2875
2645.56209	15871.3875
2648.20948	15874.0875
2650.85521	15891.3875
2653.4993	15886.5875
2656.14175	15834.4875
2658.78255	15886.0875
2661.42171	15882.2875
2664.05923	15895.6875
2666.6951	15892.3875
2669.32934	15879.5875
2671.96194	15916.0875
2674.59291	15941.7875
2677.22224	15901.3875
2679.84993	15913.8875
2682.476	15905.7875
2685.10043	15930.8875
2687.72324	15916.9875
2690.34441	15918.5875
2692.96396	15912.3875
2695.58188	15921.1875
2698.19818	15895.3875
2700.81285	15896.8875
2703.4259	15917.8875
2706.03733	15948.9875
2708.64714	15947.3875
2711.25533	15926.2875
2713.86191	15929.7875
2716.46687	15944.4875
2719.07021	15932.6875
2721.67194	15928.1875
2724.27206	15869.3875
2726.87057	15929.8875
2729.46747	15918.1875
2732.06276	15942.1875
2734.65644	15947.0875
2737.24852	15933.6875
2739.83899	15934.9875
2742.42786	15942.3875
2745.01513	15876.1875
2747.60079	15901.8875
2750.18486	15900.5875
2752.76733	15898.6875
2755.3482	15895.7875
2757.92747	15900.4875
2760.50515	15876.8875
2763.08123	15874.0875
2765.65573	15850.3875
2768.22863	15839.1875
2770.79994	15793.1875
2773.36967	15829.1875
2775.9378	15791.5875
2778.50435	15783.3875
2781.06932	15738.7875
2783.6327	15760.1875
2786.1945	15758.9875
2788.75471	15712.2875
2791.31335	15710.9875
2793.87041	15679.9875
2796.42589	15631.7875
2798.97979	15634.8875
2801.53212	15594.7875
2804.08288	15547.7875
2806.63206	15542.0875
2809.17967	15532.8875
2811.72571	15510.8875
2814.27018	15498.8875
2816.81308	15503.9875
2819.35442	15496.0875
2821.89419	15430.9875
2824.43239	15433.7875
2826.96904	15443.5875
2829.50412	15459.1875
2832.03763	15422.4875
2834.56959	15391.0875
2837.1	15381.2875
2839.62884	15390.5875
2842.15613	15340.3875
2844.68186	15394.9875
2847.20604	15371.3875
2849.72867	15371.7875
2852.24974	15371.6875
2854.76927	15355.0875
2857.28724	15369.3875
2859.80367	15305.2875
2862.31855	15262.7875
2864.83189	15268.0875
2867.34368	15227.6875
2869.85393	15292.3875
2872.36264	15256.9875
2874.8698	15251.7875
2877.37543	15238.6875
2879.87952	15288.9875
2882.38207	15282.7875
2884.88308	15271.6875
2887.38256	15287.4875
2889.88051	15277.1875
2892.37692	15281.0875
2894.8718	15246.8875
2897.36515	15294.7875
2899.85698	15298.0875
2902.34727	15312.7875
2904.83604	15326.7875
2907.32328	15345.4875
2909.809	15315.6875
2912.29319	15340.5875
2914.77587	15316.3875
2917.25702	15345.5875
2919.73665	15355.7875
2922.21476	15324.6875
2924.69136	15305.3875
2927.16644	15306.3875
2929.64	15304.4875
2932.11205	15289.0875
2934.58258	15238.9875
2937.05161	15239.7875
2939.51912	15243.4875
2941.98513	15220.9875
2944.44962	15233.5875
2946.91261	15194.1875
2949.37409	15196.1875
2951.83407	15209.8875
2954.29254	15196.9875
2956.74951	15171.3875
2959.20498	15166.1875
2961.65895	15150.3875
2964.11142	15124.9875
2966.56239	15100.9875
2969.01186	15127.0875
2971.45984	15072.4875
2973.90632	15059.4875
2976.35131	15031.2875
2978.7948	15013.2875
2981.23681	14973.5875
2983.67732	14967.9875
2986.11635	14918.1875
2988.55388	14898.9875
2990.98993	14872.0875
2993.4245	14851.2875
2995.85758	14840.9875
2998.28917	14790.6875
3000.71928	14786.4875
3003.14791	14763.6875
3005.57506	14783.3875
3008.00073	14727.9875
3010.42493	14721.8875
3012.84764	14697.8875
3015.26888	14730.6875
3017.68865	14695.5875
3020.10694	14666.4875
3022.52376	14613.4875
3024.9391	14623.6875
3027.35298	14618.7875
3029.76539	14562.6875
3032.17632	14549.0875
3034.5858	14505.7875
3036.9938	14523.5875
3039.40034	14493.5875
3041.80542	14523.6875
3044.20903	14454.0875
3046.61118	14456.1875
3049.01187	14413.8875
3051.4111	14436.7875
3053.80888	14372.4875
3056.20519	14356.3875
3058.60005	14319.0875
3060.99345	14297.8875
3063.3854	14295.3875
3065.7759	14252.3875
3068.16494	14216.7875
3070.55254	14174.2875
3072.93868	14171.6875
3075.32338	14136.0875
3077.70662	14129.8875
3080.08842	14100.0875
3082.46878	14086.2875
3084.84769	14062.7875
3087.22515	14093.5875
3089.60118	14045.8875
3091.97576	14054.5875
3094.3489	14071.7875
3096.72061	14061.2875
3099.09087	14042.7875
3101.4597	14001.1875
3103.82709	14029.4875
3106.19305	13961.4875
3108.55757	13996.2875
3110.92066	13943.4875
3113.28232	13919.3875
3115.64255	13922.1875
3118.00134	13876.4875
3120.35871	13865.2875
3122.71466	13844.4875
3125.06917	13797.2875
3127.42226	13809.6875
3129.77393	13805.5875
3132.12417	13800.6875
3134.47299	13795.6875
3136.82039	13763.8875
3139.16636	13810.7875
3141.51092	13790.3875
3143.85406	13798.1875
3146.19579	13821.1875
3148.53609	13816.7875
3150.87499	13823.1875
3153.21246	13814.2875
3155.54853	13824.6875
3157.88318	13820.8875
3160.21642	13831.1875
3162.54826	13822.5875
3164.87868	13798.7875
3167.2077	13758.5875
3169.5353	13799.0875
3171.86151	13763.5875
3174.18631	13783.8875
3176.5097	13765.3875
3178.83169	13753.1875
3181.15228	13764.9875
3183.47147	13702.8875
3185.78926	13719.4875
3188.10565	13708.9875
3190.42065	13693.1875
3192.73424	13730.1875
3195.04645	13739.1875
3197.35725	13692.8875
3199.66667	13718.8875
3201.97469	13726.9875
3204.28132	13722.1875
3206.58656	13754.6875
3208.8904	13735.2875
3211.19287	13739.1875
3213.49394	13746.0875
3215.79363	13723.7875
3218.09193	13749.8875
3220.38884	13720.4875
3222.68438	13728.1875
3224.97853	13719.3875
3227.2713	13705.5875
3229.56269	13703.0875
3231.8527	13703.2875
3234.14133	13659.3875
3236.42858	13628.7875
3238.71446	13604.8875
3240.99896	13597.0875
3243.28209	13609.3875
3245.56384	13612.3875
3247.84423	13597.6875
3250.12324	13611.9875
3252.40088	13580.5875
3254.67715	13567.0875
3256.95205	13560.9875
3259.22558	13545.1875
3261.49775	13550.7875
3263.76855	13525.9875
3266.03799	13512.3875
3268.30606	13471.8875
3270.57277	13483.4875
3272.83812	13435.0875
3275.10211	13421.9875
3277.36474	13430.8875
3279.62601	13436.7875
3281.88593	13385.0875
3284.14448	13377.7875
3286.40168	13370.7875
3288.65753	13360.1875
3290.91202	13327.9875
3293.16516	13306.8875
3295.41695	13286.6875
3297.66738	13182.3875
3299.91647	13123.5875
3302.16421	13064.6875
3304.4106	13050.5875
3306.65564	12998.5875
3308.89933	12902.6875
3311.14169	12832.6875
3313.38269	12739.9875
3315.62236	12653.4875
3317.86068	12585.4875
3320.09766	12434.2875
3322.3333	12371.5875
3324.5676	12339.7875
3326.80056	12147.3875
3329.03219	12114.8875
3331.26248	3.0875
3333.49143	0.4875
3335.71905	0.4875
