Data from AgNPs_FTO_APTES_UA_1uM_R6G_10uM_NaF_0.1M_Addition_RamanShift__30__11-38-57-191.txt Node

Date: Fri Dec 17 11:38:57 GMT 2021
User: TCL
Spectrometer: QEP01345
Trigger mode: 4
Integration Time (sec): 7.000000E0
Scans to average: 10
Electric dark correction enabled: true
Nonlinearity correction enabled: false
Boxcar width: 0
XAxis mode: Raman Shifts
Number of Pixels in Spectrum: 1044
>>>>>Begin Spectral Data<<<<<
46.04893	0.4375
50.45542	0.4375
54.85868	-0.9625
59.25871	0.4375
63.6555	64.9375
68.04907	64.2375
72.43941	71.3375
76.82654	75.4375
81.21044	80.3375
85.59113	83.0375
89.96862	89.2375
94.34289	91.1375
98.71396	96.5375
103.08183	96.3375
107.4465	102.2375
111.80798	99.1375
116.16626	100.5375
120.52136	102.5375
124.87327	102.1375
129.222	103.3375
133.56755	104.4375
137.90993	104.5375
142.24913	112.4375
146.58517	117.5375
150.91804	124.6375
155.24774	139.8375
159.57429	159.1375
163.89768	190.6375
168.21792	237.7375
172.53501	300.2375
176.84895	409.2375
181.15975	546.2375
185.46741	749.0375
189.77193	1016.9375
194.07331	1352.6375
198.37157	1719.1375
202.6667	2128.3375
206.9587	2509.1375
211.24758	2895.0375
215.53334	3294.9375
219.81599	3721.9375
224.09553	4228.3375
228.37195	4758.5375
232.64527	5355.7375
236.91549	5930.7375
241.18261	6491.4375
245.44663	6975.0375
249.70755	7374.7375
253.96539	7739.2375
258.22014	8023.9375
262.4718	8321.2375
266.72039	8521.8375
270.96589	8662.9375
275.20832	8679.9375
279.44768	8610.5375
283.68397	8480.7375
287.91719	8375.8375
292.14735	8358.3375
296.37445	8405.2375
300.59849	8647.9375
304.81948	8903.4375
309.03742	9087.8375
313.25231	9056.9375
317.46415	8714.9375
321.67296	8179.6375
325.87872	7778.8375
330.08145	7583.3375
334.28114	7627.5375
338.47781	7744.9375
342.67145	7926.9375
346.86207	8246.3375
351.04966	8633.8375
355.23424	9121.5375
359.4158	9522.1375
363.59435	9735.2375
367.76989	9836.4375
371.94243	9831.5375
376.11196	9807.5375
380.27849	9765.4375
384.44203	9723.5375
388.60257	9676.0375
392.76012	9632.1375
396.91468	9746.7375
401.06626	9987.2375
405.21485	10167.3375
409.36047	10073.4375
413.50311	9717.8375
417.64277	9401.2375
421.77947	9188.0375
425.9132	9138.6375
430.04396	9132.5375
434.17176	9214.2375
438.2966	9347.3375
442.41849	9578.6375
446.53742	9866.3375
450.6534	10130.2375
454.76644	10324.7375
458.87653	10358.2375
462.98368	10300.9375
467.08789	10139.5375
471.18916	9904.3375
475.2875	9687.1375
479.38291	9514.4375
483.4754	9405.2375
487.56496	9316.4375
491.6516	9247.4375
495.73531	9177.9375
499.81612	9221.4375
503.89401	9252.0375
507.96899	9343.1375
512.04106	9465.3375
516.11023	9590.6375
520.1765	9684.7375
524.23987	9674.5375
528.30034	9551.6375
532.35792	9401.5375
536.41261	9203.6375
540.46441	9051.0375
544.51333	8989.2375
548.55936	9021.8375
552.60252	9154.0375
556.64279	9291.0375
560.6802	9362.6375
564.71473	9500.7375
568.7464	9760.5375
572.7752	9942.6375
576.80114	9817.4375
580.82422	9680.6375
584.84444	9648.0375
588.86181	9671.0375
592.87633	9722.1375
596.888	9862.0375
600.89682	10176.1375
604.9028	11069.3375
608.90594	13238.4375
612.90624	15962.8375
616.90371	15362.4375
620.89834	11720.6375
624.89015	9972.1375
628.87913	9610.9375
632.86528	9628.3375
636.84862	9674.5375
640.82913	9576.1375
644.80683	9301.0375
648.78172	9153.4375
652.75379	9204.6375
656.72306	9539.0375
660.68952	9903.3375
664.65319	9842.9375
668.61405	9450.5375
672.57211	9278.2375
676.52738	9261.7375
680.47986	9244.3375
684.42955	9252.6375
688.37646	9217.9375
692.32058	9290.3375
696.26192	9383.0375
700.20048	9493.2375
704.13626	9603.7375
708.06928	9602.1375
711.99952	9511.2375
715.927	9460.1375
719.85171	9437.0375
723.77365	9416.9375
727.69284	9336.4375
731.60928	9288.4375
735.52295	9300.2375
739.43388	9329.1375
743.34206	9391.0375
747.24749	9470.4375
751.15017	9542.8375
755.05012	9684.1375
758.94733	10035.3375
762.8418	10738.2375
766.73354	11906.1375
770.62254	13148.9375
774.50882	13875.5375
778.39237	13478.5375
782.27321	12151.0375
786.15132	10825.8375
790.02671	10053.0375
793.89938	9707.2375
797.76935	9571.3375
801.6366	9506.4375
805.50115	9474.8375
809.36299	9423.2375
813.22213	9424.9375
817.07857	9409.9375
820.93231	9398.8375
824.78336	9460.9375
828.63172	9478.0375
832.47738	9492.8375
836.32036	9491.5375
840.16066	9475.4375
843.99827	9453.1375
847.8332	9434.2375
851.66546	9439.2375
855.49504	9467.9375
859.32195	9441.9375
863.1462	9396.5375
866.96777	9368.7375
870.78668	9383.6375
874.60293	9393.2375
878.41652	9448.2375
882.22745	9464.1375
886.03573	9518.4375
889.84136	9497.4375
893.64433	9479.2375
897.44466	9451.5375
901.24235	9471.4375
905.0374	9456.0375
908.8298	9461.0375
912.61957	9438.7375
916.40671	9488.8375
920.19121	9559.4375
923.97308	9659.7375
927.75233	9760.3375
931.52895	9819.0375
935.30295	9745.3375
939.07433	9555.2375
942.84309	9421.4375
946.60924	9319.2375
950.37278	9269.2375
954.13371	9213.2375
957.89203	9174.8375
961.64774	9138.7375
965.40086	9120.7375
969.15137	9095.4375
972.89929	9068.8375
976.64461	9054.6375
980.38733	9095.7375
984.12747	9094.3375
987.86502	9128.0375
991.59999	9190.1375
995.33237	9255.1375
999.06217	9448.2375
1002.78939	9667.5375
1006.51404	9872.5375
1010.23611	10054.6375
1013.95561	10178.9375
1017.67255	10157.2375
1021.38692	10036.2375
1025.09872	9907.0375
1028.80796	9816.7375
1032.51465	9871.2375
1036.21877	10011.0375
1039.92035	10134.5375
1043.61937	10136.4375
1047.31584	10046.3375
1051.00976	9946.5375
1054.70114	9853.1375
1058.38998	9827.9375
1062.07627	9823.2375
1065.76003	9891.5375
1069.44126	9983.3375
1073.11995	10058.2375
1076.79611	10144.5375
1080.46974	10256.8375
1084.14085	10383.2375
1087.80943	10546.2375
1091.47549	10569.1375
1095.13903	10404.1375
1098.80005	10126.4375
1102.45857	9902.0375
1106.11456	9827.8375
1109.76805	9839.5375
1113.41903	9982.8375
1117.06751	10166.5375
1120.71348	10444.3375
1124.35696	10740.2375
1127.99793	11008.8375
1131.63641	10961.1375
1135.2724	10657.5375
1138.90589	10321.2375
1142.5369	10129.6375
1146.16542	10015.4375
1149.79145	9919.4375
1153.415	9943.2375
1157.03607	10053.9375
1160.65467	10167.9375
1164.27079	10458.7375
1167.88443	10794.0375
1171.49561	11378.2375
1175.10432	12399.4375
1178.71056	13753.1375
1182.31434	14829.9375
1185.91565	15293.1375
1189.51451	15155.0375
1193.11091	14467.4375
1196.70485	13545.5375
1200.29634	12745.6375
1203.88538	12160.6375
1207.47197	11575.4375
1211.05612	11153.7375
1214.63782	10923.8375
1218.21708	10878.7375
1221.79391	10920.6375
1225.36829	11063.8375
1228.94024	11214.3375
1232.50976	11358.2375
1236.07685	11437.7375
1239.6415	11449.9375
1243.20374	11449.2375
1246.76355	11429.3375
1250.32093	11505.8375
1253.8759	11698.2375
1257.42845	11933.6375
1260.97859	12172.6375
1264.52631	12461.4375
1268.07163	12683.1375
1271.61453	12951.0375
1275.15503	13159.2375
1278.69312	13259.8375
1282.22882	13387.4375
1285.76211	13643.5375
1289.29301	13951.6375
1292.82151	14278.9375
1296.34761	14508.3375
1299.87133	14908.4375
1303.39266	15617.1375
1306.9116	16830.2375
1310.42815	18237.2375
1313.94233	19154.6375
1317.45412	19059.8375
1320.96354	18260.7375
1324.47058	17371.7375
1327.97525	16604.2375
1331.47754	16174.6375
1334.97747	16026.1375
1338.47502	16177.6375
1341.97022	16372.0375
1345.46305	16694.1375
1348.95352	17172.0375
1352.44163	17962.6375
1355.92738	19082.8375
1359.41078	20849.1375
1362.89183	22473.4375
1366.37053	22020.2375
1369.84688	19566.0375
1373.32088	17014.9375
1376.79254	15310.4375
1380.26186	14410.0375
1383.72883	13913.2375
1387.19347	13509.6375
1390.65578	13065.8375
1394.11575	12725.2375
1397.57339	12572.6375
1401.0287	12655.7375
1404.48168	12896.9375
1407.93234	13239.8375
1411.38068	13488.0375
1414.82669	13535.1375
1418.27039	13342.4375
1421.71177	13065.0375
1425.15083	12840.3375
1428.58758	12718.7375
1432.02203	12760.0375
1435.45416	12825.3375
1438.88399	12878.1375
1442.31151	12891.3375
1445.73673	12894.2375
1449.15965	12947.6375
1452.58027	12870.0375
1455.9986	12746.9375
1459.41463	12705.7375
1462.82837	12716.2375
1466.23982	12899.3375
1469.64898	13075.7375
1473.05586	13218.1375
1476.46045	13314.9375
1479.86276	13456.8375
1483.26279	13698.8375
1486.66054	13986.5375
1490.05602	14368.0375
1493.44922	14857.9375
1496.84016	15484.0375
1500.22882	16416.7375
1503.61521	17626.9375
1506.99934	18943.2375
1510.38121	20160.1375
1513.76081	20652.6375
1517.13816	19851.4375
1520.51324	18110.7375
1523.88607	16340.4375
1527.25665	15112.8375
1530.62498	14428.9375
1533.99105	14028.6375
1537.35488	13726.7375
1540.71647	13596.2375
1544.07581	13534.0375
1547.4329	13489.8375
1550.78776	13399.1375
1554.14038	13280.6375
1557.49077	13338.8375
1560.83892	13395.8375
1564.18484	13585.4375
1567.52853	13767.3375
1570.86999	14032.5375
1574.20922	14178.6375
1577.54624	14182.3375
1580.88103	13799.7375
1584.2136	13267.4375
1587.54395	13072.6375
1590.87208	13355.4375
1594.19801	13993.5375
1597.52172	14796.4375
1600.84321	15199.7375
1604.16251	14884.5375
1607.47959	14088.1375
1610.79447	13146.0375
1614.10715	12256.6375
1617.41763	11552.5375
1620.7259	11158.3375
1624.03199	10971.0375
1627.33587	11008.9375
1630.63757	11237.2375
1633.93707	11691.7375
1637.23439	12343.3375
1640.52951	13119.7375
1643.82246	14036.6375
1647.11321	14946.8375
1650.40179	15471.8375
1653.68819	15006.0375
1656.97241	13540.5375
1660.25446	11908.5375
1663.53433	10754.0375
1666.81203	10072.9375
1670.08756	9681.1375
1673.36092	9418.4375
1676.63211	9242.9375
1679.90115	9115.6375
1683.16801	9021.2375
1686.43272	8963.4375
1689.69527	8915.4375
1692.95567	8877.2375
1696.2139	8865.9375
1699.46999	8816.2375
1702.72392	8815.4375
1705.97571	8805.0375
1709.22535	8795.7375
1712.47284	8800.5375
1715.71819	8813.4375
1718.96139	8823.3375
1722.20246	8788.8375
1725.44139	8795.6375
1728.67818	8731.2375
1731.91284	8681.9375
1735.14537	8619.4375
1738.37576	8586.8375
1741.60403	8547.0375
1744.83017	8532.1375
1748.05418	8488.0375
1751.27607	8482.2375
1754.49584	8463.5375
1757.71349	8476.9375
1760.92903	8451.6375
1764.14244	8435.1375
1767.35375	8427.8375
1770.56294	8417.2375
1773.77002	8404.4375
1776.97499	8385.7375
1780.17785	8369.4375
1783.37861	8361.8375
1786.57727	8359.8375
1789.77382	8329.7375
1792.96828	8343.5375
1796.16064	8314.6375
1799.3509	8304.8375
1802.53907	8320.5375
1805.72514	8287.7375
1808.90913	8275.6375
1812.09102	8260.1375
1815.27083	8252.7375
1818.44856	8218.6375
1821.6242	8221.4375
1824.79776	8205.5375
1827.96924	8202.0375
1831.13864	8199.1375
1834.30597	8217.2375
1837.47122	8180.9375
1840.6344	8180.7375
1843.7955	8182.3375
1846.95454	8181.5375
1850.11151	8188.2375
1853.26642	8181.9375
1856.41926	8178.7375
1859.57004	8173.5375
1862.71876	8171.5375
1865.86542	8196.8375
1869.01003	8197.2375
1872.15258	8189.5375
1875.29308	8216.0375
1878.43152	8188.9375
1881.56792	8212.4375
1884.70227	8235.2375
1887.83457	8223.6375
1890.96482	8230.0375
1894.09304	8196.7375
1897.21921	8214.5375
1900.34335	8221.3375
1903.46544	8212.7375
1906.58551	8207.7375
1909.70353	8195.6375
1912.81953	8197.3375
1915.93349	8204.1375
1919.04543	8163.3375
1922.15534	8167.1375
1925.26322	8135.3375
1928.36908	8134.1375
1931.47292	8132.9375
1934.57473	8065.1375
1937.67453	8027.3375
1940.77232	8009.5375
1943.86808	7985.8375
1946.96184	7930.9375
1950.05358	7897.8375
1953.14331	7862.7375
1956.23103	7846.4375
1959.31675	7810.0375
1962.40046	7804.6375
1965.48217	7750.1375
1968.56188	7741.4375
1971.63959	7731.3375
1974.7153	7702.5375
1977.78901	7679.3375
1980.86073	7630.0375
1983.93046	7626.9375
1986.99819	7578.0375
1990.06394	7554.6375
1993.1277	7547.1375
1996.18947	7518.0375
1999.24925	7498.1375
2002.30706	7475.2375
2005.36288	7433.1375
2008.41672	7429.8375
2011.46859	7405.1375
2014.51848	7405.4375
2017.56639	7356.8375
2020.61233	7361.5375
2023.6563	7334.0375
2026.6983	7335.0375
2029.73833	7285.3375
2032.7764	7261.8375
2035.8125	7267.6375
2038.84664	7265.8375
2041.87881	7251.2375
2044.90903	7228.1375
2047.93729	7218.2375
2050.96359	7229.7375
2053.98794	7192.3375
2057.01034	7182.6375
2060.03078	7169.5375
2063.04927	7166.6375
2066.06582	7174.2375
2069.08042	7145.9375
2072.09307	7149.0375
2075.10378	7160.5375
2078.11255	7145.4375
2081.11938	7138.3375
2084.12426	7137.6375
2087.12722	7132.5375
2090.12824	7118.8375
2093.12732	7108.0375
2096.12447	7125.9375
2099.11969	7127.2375
2102.11299	7117.0375
2105.10435	7136.4375
2108.09379	7130.5375
2111.08131	7136.6375
2114.0669	7120.8375
2117.05057	7135.5375
2120.03233	7142.5375
2123.01216	7130.7375
2125.99008	7123.2375
2128.96609	7145.2375
2131.94018	7140.1375
2134.91236	7152.7375
2137.88263	7163.4375
2140.851	7153.1375
2143.81746	7162.2375
2146.78201	7154.7375
2149.74466	7158.7375
2152.7054	7137.4375
2155.66425	7141.3375
2158.6212	7150.1375
2161.57625	7146.4375
2164.52941	7140.6375
2167.48067	7123.4375
2170.43004	7141.1375
2173.37752	7111.8375
2176.32311	7144.2375
2179.26681	7110.8375
2182.20863	7135.0375
2185.14856	7129.5375
2188.08661	7117.0375
2191.02278	7123.6375
2193.95707	7109.7375
2196.88948	7100.9375
2199.82001	7103.0375
2202.74867	7068.6375
2205.67545	7073.5375
2208.60037	7091.6375
2211.52341	7066.3375
2214.44458	7044.1375
2217.36388	7032.3375
2220.28132	7024.4375
2223.1969	6984.4375
2226.11061	6990.4375
2229.02246	6975.0375
2231.93245	6979.2375
2234.84058	6936.8375
2237.74686	6936.6375
2240.65128	6932.4375
2243.55385	6907.5375
2246.45456	6901.6375
2249.35343	6912.8375
2252.25044	6899.0375
2255.14561	6869.6375
2258.03893	6877.8375
2260.93041	6860.6375
2263.82004	6836.2375
2266.70783	6861.6375
2269.59378	6807.4375
2272.4779	6803.4375
2275.36017	6778.3375
2278.24061	6764.3375
2281.11922	6736.6375
2283.996	6758.5375
2286.87094	6723.9375
2289.74405	6722.3375
2292.61534	6711.1375
2295.4848	6682.9375
2298.35243	6694.5375
2301.21824	6666.8375
2304.08223	6675.0375
2306.94439	6670.1375
2309.80474	6684.4375
2312.66327	6666.6375
2315.51999	6660.7375
2318.37489	6659.8375
2321.22797	6640.4375
2324.07925	6637.5375
2326.92871	6621.2375
2329.77637	6613.9375
2332.62222	6597.6375
2335.46626	6592.6375
2338.3085	6575.7375
2341.14893	6584.8375
2343.98756	6582.5375
2346.8244	6579.8375
2349.65943	6576.8375
2352.49267	6560.1375
2355.32411	6560.4375
2358.15376	6548.4375
2360.98161	6552.8375
2363.80768	6555.5375
2366.63195	6549.1375
2369.45444	6518.6375
2372.27514	6557.1375
2375.09405	6533.2375
2377.91118	6516.0375
2380.72652	6502.2375
2383.54009	6484.6375
2386.35187	6469.9375
2389.16188	6436.3375
2391.97011	6416.7375
2394.77657	6399.8375
2397.58125	6407.1375
2400.38416	6381.7375
2403.18529	6347.4375
2405.98466	6357.4375
2408.78226	6353.7375
2411.57809	6334.7375
2414.37216	6324.8375
2417.16446	6307.8375
2419.955	6307.2375
2422.74378	6289.9375
2425.5308	6282.1375
2428.31606	6281.6375
2431.09956	6289.5375
2433.88131	6266.5375
2436.6613	6290.2375
2439.43954	6261.0375
2442.21603	6233.0375
2444.99077	6258.6375
2447.76377	6263.7375
2450.53501	6235.8375
2453.30451	6239.5375
2456.07226	6234.8375
2458.83827	6236.6375
2461.60254	6223.0375
2464.36507	6201.6375
2467.12586	6210.5375
2469.88492	6197.2375
2472.64224	6188.0375
2475.39782	6196.5375
2478.15167	6176.7375
2480.90379	6166.5375
2483.65417	6183.7375
2486.40283	6194.9375
2489.14976	6185.3375
2491.89497	6184.1375
2494.63845	6183.8375
2497.3802	6193.4375
2500.12024	6205.3375
2502.85855	6171.7375
2505.59514	6165.9375
2508.33002	6148.0375
2511.06318	6129.8375
2513.79462	6121.7375
2516.52435	6115.7375
2519.25237	6121.3375
2521.97867	6087.9375
2524.70327	6090.3375
2527.42616	6079.7375
2530.14734	6068.9375
2532.86681	6051.5375
2535.58458	6039.8375
2538.30065	6033.0375
2541.01501	6050.2375
2543.72768	6030.9375
2546.43864	6020.9375
2549.14791	6002.3375
2551.85548	6025.4375
2554.56136	6017.0375
2557.26554	5992.1375
2559.96803	5983.6375
2562.66883	5973.8375
2565.36794	5965.4375
2568.06536	5967.7375
2570.7611	5928.5375
2573.45514	5935.9375
2576.14751	5929.0375
2578.83819	5904.2375
2581.52719	5905.2375
2584.21451	5909.9375
2586.90015	5902.3375
2589.58411	5893.9375
2592.2664	5862.4375
2594.94701	5860.4375
2597.62594	5863.5375
2600.30321	5867.4375
2602.9788	5862.5375
2605.65273	5817.8375
2608.32498	5841.6375
2610.99557	5832.0375
2613.66449	5818.4375
2616.33175	5813.8375
2618.99734	5810.8375
2621.66128	5814.2375
2624.32355	5809.0375
2626.98416	5796.0375
2629.64311	5790.6375
2632.30041	5803.5375
2634.95605	5796.6375
2637.61004	5780.0375
2640.26238	5771.5375
2642.91306	5764.9375
2645.56209	5757.1375
2648.20948	5736.1375
2650.85521	5740.4375
2653.4993	5736.4375
2656.14175	5749.1375
2658.78255	5758.2375
2661.42171	5739.5375
2664.05923	5742.7375
2666.6951	5747.6375
2669.32934	5742.3375
2671.96194	5755.2375
2674.59291	5762.1375
2677.22224	5759.1375
2679.84993	5758.7375
2682.476	5773.3375
2685.10043	5765.0375
2687.72324	5758.5375
2690.34441	5766.9375
2692.96396	5766.4375
2695.58188	5759.4375
2698.19818	5760.8375
2700.81285	5761.9375
2703.4259	5766.0375
2706.03733	5747.5375
2708.64714	5785.6375
2711.25533	5775.4375
2713.86191	5778.8375
2716.46687	5804.4375
2719.07021	5789.6375
2721.67194	5808.1375
2724.27206	5795.1375
2726.87057	5797.1375
2729.46747	5794.7375
2732.06276	5780.6375
2734.65644	5772.8375
2737.24852	5787.2375
2739.83899	5763.6375
2742.42786	5770.7375
2745.01513	5768.3375
2747.60079	5765.2375
2750.18486	5767.7375
2752.76733	5771.3375
2755.3482	5745.0375
2757.92747	5752.1375
2760.50515	5753.1375
2763.08123	5739.5375
2765.65573	5766.0375
2768.22863	5738.0375
2770.79994	5745.4375
2773.36967	5751.4375
2775.9378	5764.1375
2778.50435	5749.1375
2781.06932	5740.2375
2783.6327	5752.9375
2786.1945	5746.0375
2788.75471	5747.7375
2791.31335	5757.5375
2793.87041	5757.4375
2796.42589	5732.0375
2798.97979	5747.6375
2801.53212	5751.6375
2804.08288	5736.4375
2806.63206	5755.8375
2809.17967	5766.2375
2811.72571	5772.0375
2814.27018	5783.2375
2816.81308	5801.4375
2819.35442	5806.8375
2821.89419	5802.2375
2824.43239	5812.4375
2826.96904	5800.8375
2829.50412	5786.5375
2832.03763	5773.5375
2834.56959	5811.3375
2837.1	5816.9375
2839.62884	5830.5375
2842.15613	5857.7375
2844.68186	5901.9375
2847.20604	5972.5375
2849.72867	6026.8375
2852.24974	6040.7375
2854.76927	6010.2375
2857.28724	5996.4375
2859.80367	5995.4375
2862.31855	5967.3375
2864.83189	5959.4375
2867.34368	5930.8375
2869.85393	5917.6375
2872.36264	5915.5375
2874.8698	5921.6375
2877.37543	5909.1375
2879.87952	5905.2375
2882.38207	5896.3375
2884.88308	5879.8375
2887.38256	5882.2375
2889.88051	5899.1375
2892.37692	5877.7375
2894.8718	5895.7375
2897.36515	5897.7375
2899.85698	5890.4375
2902.34727	5890.4375
2904.83604	5875.7375
2907.32328	5885.3375
2909.809	5864.8375
2912.29319	5857.7375
2914.77587	5856.7375
2917.25702	5826.3375
2919.73665	5829.1375
2922.21476	5813.7375
2924.69136	5807.2375
2927.16644	5797.4375
2929.64	5780.3375
2932.11205	5757.8375
2934.58258	5740.0375
2937.05161	5731.2375
2939.51912	5686.3375
2941.98513	5658.8375
2944.44962	5631.0375
2946.91261	5576.2375
2949.37409	5540.6375
2951.83407	5510.6375
2954.29254	5472.1375
2956.74951	5459.0375
2959.20498	5437.6375
2961.65895	5422.9375
2964.11142	5394.3375
2966.56239	5355.5375
2969.01186	5364.7375
2971.45984	5341.0375
2973.90632	5313.9375
2976.35131	5304.8375
2978.7948	5269.8375
2981.23681	5242.6375
2983.67732	5225.0375
2986.11635	5210.1375
2988.55388	5194.6375
2990.98993	5169.1375
2993.4245	5142.1375
2995.85758	5126.5375
2998.28917	5114.8375
3000.71928	5109.5375
3003.14791	5080.3375
3005.57506	5090.9375
3008.00073	5057.5375
3010.42493	5053.6375
3012.84764	5038.9375
3015.26888	5042.8375
3017.68865	5021.6375
3020.10694	5018.0375
3022.52376	5023.2375
3024.9391	4997.6375
3027.35298	4976.1375
3029.76539	4980.6375
3032.17632	4975.0375
3034.5858	4972.2375
3036.9938	4943.5375
3039.40034	4939.2375
3041.80542	4935.5375
3044.20903	4917.5375
3046.61118	4932.8375
3049.01187	4918.8375
3051.4111	4915.9375
3053.80888	4879.0375
3056.20519	4884.8375
3058.60005	4877.2375
3060.99345	4876.6375
3063.3854	4866.9375
3065.7759	4847.0375
3068.16494	4832.7375
3070.55254	4820.1375
3072.93868	4816.6375
3075.32338	4803.8375
3077.70662	4791.0375
3080.08842	4784.0375
3082.46878	4766.7375
3084.84769	4771.7375
3087.22515	4760.3375
3089.60118	4745.1375
3091.97576	4754.8375
3094.3489	4740.1375
3096.72061	4741.0375
3099.09087	4734.8375
3101.4597	4744.0375
3103.82709	4718.9375
3106.19305	4726.3375
3108.55757	4718.4375
3110.92066	4696.7375
3113.28232	4706.7375
3115.64255	4683.9375
3118.00134	4689.3375
3120.35871	4666.4375
3122.71466	4660.0375
3125.06917	4646.3375
3127.42226	4667.2375
3129.77393	4668.1375
3132.12417	4657.0375
3134.47299	4675.6375
3136.82039	4659.3375
3139.16636	4667.9375
3141.51092	4666.5375
3143.85406	4657.7375
3146.19579	4665.7375
3148.53609	4681.3375
3150.87499	4690.8375
3153.21246	4684.2375
3155.54853	4685.8375
3157.88318	4695.4375
3160.21642	4683.9375
3162.54826	4688.5375
3164.87868	4684.1375
3167.2077	4674.8375
3169.5353	4678.1375
3171.86151	4679.4375
3174.18631	4678.5375
3176.5097	4685.0375
3178.83169	4656.7375
3181.15228	4670.2375
3183.47147	4666.7375
3185.78926	4671.3375
3188.10565	4663.7375
3190.42065	4684.5375
3192.73424	4677.8375
3195.04645	4686.4375
3197.35725	4684.6375
3199.66667	4663.1375
3201.97469	4689.6375
3204.28132	4696.5375
3206.58656	4691.8375
3208.8904	4686.4375
3211.19287	4687.3375
3213.49394	4691.0375
3215.79363	4704.0375
3218.09193	4706.4375
3220.38884	4677.4375
3222.68438	4686.3375
3224.97853	4680.7375
3227.2713	4686.7375
3229.56269	4664.0375
3231.8527	4658.6375
3234.14133	4659.8375
3236.42858	4652.2375
3238.71446	4646.6375
3240.99896	4639.9375
3243.28209	4631.5375
3245.56384	4635.1375
3247.84423	4641.7375
3250.12324	4636.4375
3252.40088	4628.9375
3254.67715	4632.9375
3256.95205	4615.6375
3259.22558	4619.5375
3261.49775	4603.2375
3263.76855	4598.1375
3266.03799	4594.5375
3268.30606	4598.1375
3270.57277	4588.2375
3272.83812	4582.4375
3275.10211	4660.5375
3277.36474	4630.7375
3279.62601	4580.0375
3281.88593	4550.4375
3284.14448	4546.6375
3286.40168	4547.8375
3288.65753	4526.2375
3290.91202	4531.3375
3293.16516	4504.0375
3295.41695	4497.5375
3297.66738	4485.5375
3299.91647	4458.1375
3302.16421	4410.1375
3304.4106	4403.2375
3306.65564	4387.1375
3308.89933	4356.4375
3311.14169	4322.5375
3313.38269	4291.4375
3315.62236	4253.0375
3317.86068	4226.3375
3320.09766	4180.7375
3322.3333	4141.3375
3324.5676	4153.3375
3326.80056	4075.4375
3329.03219	4055.6375
3331.26248	0.8375
3333.49143	-0.3625
3335.71905	0.4375
