Data from AgNPs_FTO_APTES_UA_0uM_R6G_10uM_NaF_0.1M_Addition_RamanShift__30__10-31-17-114.txt Node

Date: Fri Dec 17 10:31:17 GMT 2021
User: TCL
Spectrometer: QEP01345
Trigger mode: 4
Integration Time (sec): 7.000000E0
Scans to average: 10
Electric dark correction enabled: true
Nonlinearity correction enabled: false
Boxcar width: 0
XAxis mode: Raman Shifts
Number of Pixels in Spectrum: 1044
>>>>>Begin Spectral Data<<<<<
46.04893	0.8125
50.45542	-0.8875
54.85868	-1.1875
59.25871	-0.1875
63.6555	73.0125
68.04907	72.9125
72.43941	78.9125
76.82654	82.2125
81.21044	82.9125
85.59113	88.0125
89.96862	90.2125
94.34289	87.6125
98.71396	96.2125
103.08183	95.6125
107.4465	99.3125
111.80798	103.8125
116.16626	106.2125
120.52136	111.5125
124.87327	115.4125
129.222	123.3125
133.56755	125.5125
137.90993	135.4125
142.24913	154.7125
146.58517	168.4125
150.91804	195.9125
155.24774	235.9125
159.57429	296.0125
163.89768	370.1125
168.21792	497.1125
172.53501	667.2125
176.84895	931.1125
181.15975	1294.0125
185.46741	1827.5125
189.77193	2510.3125
194.07331	3352.5125
198.37157	4297.8125
202.6667	5317.1125
206.9587	6312.9125
211.24758	7280.2125
215.53334	8274.2125
219.81599	9319.6125
224.09553	10492.1125
228.37195	11779.6125
232.64527	13215.8125
236.91549	14696.9125
241.18261	16146.5125
245.44663	17453.2125
249.70755	18632.9125
253.96539	19626.7125
258.22014	20465.4125
262.4718	21146.3125
266.72039	21575.8125
270.96589	21765.1125
275.20832	21705.2125
279.44768	21474.8125
283.68397	21232.0125
287.91719	20943.5125
292.14735	20834.1125
296.37445	20777.0125
300.59849	20877.8125
304.81948	21048.2125
309.03742	21193.6125
313.25231	21249.6125
317.46415	21149.5125
321.67296	20964.2125
325.87872	20794.3125
330.08145	20699.8125
334.28114	20663.0125
338.47781	20781.7125
342.67145	21044.2125
346.86207	21430.9125
351.04966	21835.4125
355.23424	22284.9125
359.4158	22559.2125
363.59435	22796.8125
367.76989	22937.3125
371.94243	23042.5125
376.11196	23087.7125
380.27849	23148.3125
384.44203	23269.6125
388.60257	23525.6125
392.76012	23751.5125
396.91468	23934.3125
401.06626	24296.2125
405.21485	24565.3125
409.36047	24591.6125
413.50311	24679.5125
417.64277	25051.1125
421.77947	25375.2125
425.9132	25246.7125
430.04396	25232.7125
434.17176	25260.1125
438.2966	25436.6125
442.41849	25931.7125
446.53742	26900.1125
450.6534	27840.6125
454.76644	28337.9125
458.87653	28292.3125
462.98368	27795.6125
467.08789	27105.7125
471.18916	26382.9125
475.2875	25574.5125
479.38291	24883.9125
483.4754	24539.9125
487.56496	24327.7125
491.6516	24239.3125
495.73531	24170.4125
499.81612	24249.8125
503.89401	24566.9125
507.96899	24682.4125
512.04106	24568.0125
516.11023	24434.0125
520.1765	24231.3125
524.23987	24103.6125
528.30034	24080.6125
532.35792	23938.1125
536.41261	23675.6125
540.46441	23316.2125
544.51333	23194.2125
548.55936	23303.4125
552.60252	23787.5125
556.64279	24428.5125
560.6802	24963.9125
564.71473	25124.1125
568.7464	25246.7125
572.7752	25816.5125
576.80114	26641.6125
580.82422	27872.0125
584.84444	29806.3125
588.86181	32386.5125
592.87633	34675.8125
596.888	34615.4125
600.89682	32092.2125
604.9028	30368.4125
608.90594	31225.8125
612.90624	32628.0125
616.90371	30745.9125
620.89834	26678.3125
624.89015	24802.6125
628.87913	24501.6125
632.86528	24495.6125
636.84862	24189.4125
640.82913	23651.2125
644.80683	23108.4125
648.78172	22877.7125
652.75379	23000.5125
656.72306	23342.8125
660.68952	23617.7125
664.65319	23454.0125
668.61405	23089.9125
672.57211	23099.7125
676.52738	23241.1125
680.47986	23225.0125
684.42955	22960.7125
688.37646	22853.9125
692.32058	23133.3125
696.26192	23590.1125
700.20048	24116.5125
704.13626	24283.0125
708.06928	24213.2125
711.99952	24076.6125
715.927	24142.6125
719.85171	24325.8125
723.77365	24236.0125
727.69284	23787.9125
731.60928	23374.0125
735.52295	23259.1125
739.43388	23360.7125
743.34206	23442.0125
747.24749	23630.8125
751.15017	23868.6125
755.05012	24279.4125
758.94733	24891.7125
762.8418	25913.1125
766.73354	27349.2125
770.62254	28678.6125
774.50882	28757.9125
778.39237	27605.7125
782.27321	26104.5125
786.15132	24921.9125
790.02671	24148.7125
793.89938	23783.9125
797.76935	23710.7125
801.6366	23634.7125
805.50115	23614.5125
809.36299	23537.2125
813.22213	23305.8125
817.07857	23112.6125
820.93231	22941.5125
824.78336	22833.4125
828.63172	22749.3125
832.47738	22692.9125
836.32036	22755.1125
840.16066	22853.3125
843.99827	22937.4125
847.8332	22950.6125
851.66546	22899.9125
855.49504	22929.2125
859.32195	22910.5125
863.1462	22866.3125
866.96777	22792.1125
870.78668	22744.2125
874.60293	22805.6125
878.41652	22856.0125
882.22745	22967.4125
886.03573	23070.5125
889.84136	23056.0125
893.64433	22929.3125
897.44466	22784.9125
901.24235	22711.7125
905.0374	22671.4125
908.8298	22659.2125
912.61957	22665.0125
916.40671	22901.7125
920.19121	23242.4125
923.97308	23620.6125
927.75233	23738.3125
931.52895	23576.0125
935.30295	23136.4125
939.07433	22758.5125
942.84309	22494.5125
946.60924	22389.2125
950.37278	22429.9125
954.13371	22346.5125
957.89203	22256.0125
961.64774	22247.6125
965.40086	22249.4125
969.15137	22221.6125
972.89929	22195.8125
976.64461	22213.3125
980.38733	22259.1125
984.12747	22268.1125
987.86502	22390.9125
991.59999	22638.8125
995.33237	22943.6125
999.06217	23536.1125
1002.78939	24269.1125
1006.51404	24946.9125
1010.23611	25413.3125
1013.95561	25735.8125
1017.67255	25839.1125
1021.38692	25505.2125
1025.09872	25010.0125
1028.80796	24825.4125
1032.51465	25202.6125
1036.21877	25640.8125
1039.92035	25837.1125
1043.61937	25634.4125
1047.31584	25152.3125
1051.00976	24669.3125
1054.70114	24392.9125
1058.38998	24288.2125
1062.07627	24364.2125
1065.76003	24467.3125
1069.44126	24730.1125
1073.11995	25167.2125
1076.79611	25610.7125
1080.46974	25853.9125
1084.14085	26076.5125
1087.80943	26363.6125
1091.47549	26510.5125
1095.13903	26394.9125
1098.80005	25931.4125
1102.45857	25296.3125
1106.11456	24889.3125
1109.76805	24808.0125
1113.41903	24848.9125
1117.06751	24941.8125
1120.71348	25145.1125
1124.35696	25268.8125
1127.99793	25462.8125
1131.63641	25582.8125
1135.2724	25488.6125
1138.90589	25539.0125
1142.5369	25623.7125
1146.16542	25777.9125
1149.79145	26021.8125
1153.415	26164.0125
1157.03607	26491.7125
1160.65467	27296.7125
1164.27079	28705.2125
1167.88443	30341.5125
1171.49561	31959.9125
1175.10432	34070.8125
1178.71056	36722.0125
1182.31434	39315.3125
1185.91565	40339.4125
1189.51451	39517.5125
1193.11091	37945.2125
1196.70485	36375.8125
1200.29634	35077.2125
1203.88538	34259.0125
1207.47197	33873.4125
1211.05612	33511.0125
1214.63782	32934.6125
1218.21708	32241.3125
1221.79391	31644.8125
1225.36829	31376.3125
1228.94024	31191.2125
1232.50976	30657.0125
1236.07685	29782.5125
1239.6415	29228.3125
1243.20374	29060.4125
1246.76355	29238.1125
1250.32093	29792.8125
1253.8759	30488.3125
1257.42845	31409.7125
1260.97859	32400.2125
1264.52631	33454.4125
1268.07163	34537.6125
1271.61453	35641.2125
1275.15503	36718.0125
1278.69312	37900.4125
1282.22882	39078.5125
1285.76211	40532.6125
1289.29301	42187.3125
1292.82151	44079.5125
1296.34761	46558.5125
1299.87133	49704.6125
1303.39266	53189.0125
1306.9116	56436.6125
1310.42815	58967.5125
1313.94233	60147.8125
1317.45412	59293.7125
1320.96354	57136.0125
1324.47058	55046.0125
1327.97525	53657.2125
1331.47754	52664.8125
1334.97747	51822.3125
1338.47502	50682.0125
1341.97022	49243.8125
1345.46305	47823.7125
1348.95352	47102.6125
1352.44163	47772.1125
1355.92738	50417.7125
1359.41078	54066.1125
1362.89183	56858.6125
1366.37053	56665.3125
1369.84688	52422.4125
1373.32088	45962.8125
1376.79254	41323.0125
1380.26186	39669.4125
1383.72883	39754.1125
1387.19347	39761.9125
1390.65578	39127.2125
1394.11575	38877.5125
1397.57339	39383.6125
1401.0287	40386.1125
1404.48168	41291.1125
1407.93234	41558.2125
1411.38068	41088.4125
1414.82669	40031.3125
1418.27039	38600.4125
1421.71177	37001.5125
1425.15083	35799.6125
1428.58758	35300.9125
1432.02203	35934.7125
1435.45416	37311.3125
1438.88399	38609.0125
1442.31151	39338.6125
1445.73673	39521.2125
1449.15965	39286.4125
1452.58027	38685.8125
1455.9986	37975.8125
1459.41463	37766.4125
1462.82837	38341.4125
1466.23982	39350.9125
1469.64898	40403.9125
1473.05586	41087.1125
1476.46045	41476.3125
1479.86276	41426.8125
1483.26279	41046.8125
1486.66054	40845.6125
1490.05602	41062.4125
1493.44922	41291.1125
1496.84016	41164.0125
1500.22882	40973.9125
1503.61521	41092.8125
1506.99934	41446.7125
1510.38121	41819.8125
1513.76081	41642.7125
1517.13816	41033.2125
1520.51324	40065.7125
1523.88607	39652.4125
1527.25665	39890.2125
1530.62498	40340.6125
1533.99105	40559.0125
1537.35488	40159.7125
1540.71647	39292.1125
1544.07581	38169.5125
1547.4329	37023.7125
1550.78776	36012.3125
1554.14038	35155.3125
1557.49077	34536.9125
1560.83892	34179.4125
1564.18484	34078.0125
1567.52853	34071.9125
1570.86999	34357.8125
1574.20922	34922.4125
1577.54624	35457.7125
1580.88103	35796.9125
1584.2136	36445.4125
1587.54395	38217.5125
1590.87208	41254.5125
1594.19801	44999.3125
1597.52172	48443.6125
1600.84321	49481.2125
1604.16251	46987.2125
1607.47959	42271.4125
1610.79447	37360.9125
1614.10715	33361.9125
1617.41763	30600.0125
1620.7259	29020.8125
1624.03199	28391.6125
1627.33587	28638.6125
1630.63757	29659.6125
1633.93707	31777.8125
1637.23439	35449.6125
1640.52951	41080.9125
1643.82246	47936.7125
1647.11321	53149.6125
1650.40179	53050.5125
1653.68819	47398.2125
1656.97241	39537.3125
1660.25446	32999.9125
1663.53433	28707.1125
1666.81203	26219.8125
1670.08756	24802.1125
1673.36092	23875.1125
1676.63211	23297.6125
1679.90115	22893.7125
1683.16801	22543.8125
1686.43272	22331.4125
1689.69527	22163.6125
1692.95567	22012.0125
1696.2139	21898.4125
1699.46999	21879.5125
1702.72392	21787.8125
1705.97571	21805.8125
1709.22535	21766.8125
1712.47284	21702.5125
1715.71819	21728.8125
1718.96139	21689.0125
1722.20246	21617.6125
1725.44139	21511.0125
1728.67818	21400.6125
1731.91284	21274.3125
1735.14537	21162.7125
1738.37576	21094.7125
1741.60403	21016.1125
1744.83017	20950.7125
1748.05418	20896.6125
1751.27607	20876.9125
1754.49584	20847.5125
1757.71349	20840.5125
1760.92903	20837.0125
1764.14244	20795.8125
1767.35375	20782.1125
1770.56294	20745.6125
1773.77002	20718.7125
1776.97499	20660.5125
1780.17785	20626.8125
1783.37861	20673.2125
1786.57727	20629.3125
1789.77382	20588.7125
1792.96828	20555.2125
1796.16064	20478.3125
1799.3509	20486.4125
1802.53907	20455.9125
1805.72514	20401.3125
1808.90913	20362.2125
1812.09102	20302.0125
1815.27083	20257.1125
1818.44856	20210.9125
1821.6242	20227.1125
1824.79776	20191.1125
1827.96924	20204.1125
1831.13864	20190.2125
1834.30597	20179.6125
1837.47122	20194.5125
1840.6344	20166.4125
1843.7955	20239.9125
1846.95454	20213.5125
1850.11151	20205.0125
1853.26642	20137.0125
1856.41926	20163.0125
1859.57004	20155.3125
1862.71876	20112.2125
1865.86542	20131.4125
1869.01003	20137.8125
1872.15258	20113.1125
1875.29308	20101.3125
1878.43152	20087.4125
1881.56792	20077.3125
1884.70227	20079.5125
1887.83457	20081.0125
1890.96482	20040.2125
1894.09304	19997.1125
1897.21921	19984.7125
1900.34335	19974.2125
1903.46544	19930.3125
1906.58551	19966.7125
1909.70353	19947.5125
1912.81953	19923.3125
1915.93349	19917.9125
1919.04543	19844.3125
1922.15534	19761.6125
1925.26322	19728.4125
1928.36908	19683.6125
1931.47292	19635.4125
1934.57473	19625.6125
1937.67453	19537.5125
1940.77232	19490.3125
1943.86808	19476.8125
1946.96184	19460.3125
1950.05358	19400.0125
1953.14331	19341.4125
1956.23103	19297.0125
1959.31675	19248.3125
1962.40046	19214.6125
1965.48217	19154.9125
1968.56188	19108.1125
1971.63959	19066.3125
1974.7153	18995.4125
1977.78901	18903.8125
1980.86073	18884.0125
1983.93046	18814.6125
1986.99819	18747.0125
1990.06394	18695.4125
1993.1277	18677.3125
1996.18947	18607.6125
1999.24925	18611.5125
2002.30706	18491.6125
2005.36288	18438.8125
2008.41672	18437.5125
2011.46859	18384.9125
2014.51848	18330.6125
2017.56639	18303.7125
2020.61233	18246.8125
2023.6563	18244.7125
2026.6983	18249.6125
2029.73833	18205.3125
2032.7764	18158.9125
2035.8125	18136.4125
2038.84664	18111.7125
2041.87881	18084.0125
2044.90903	18088.1125
2047.93729	18045.6125
2050.96359	18034.5125
2053.98794	17994.0125
2057.01034	17971.1125
2060.03078	17949.6125
2063.04927	17937.8125
2066.06582	17908.5125
2069.08042	17955.8125
2072.09307	17928.6125
2075.10378	17869.5125
2078.11255	17859.0125
2081.11938	17880.3125
2084.12426	17867.7125
2087.12722	17886.2125
2090.12824	17882.0125
2093.12732	17884.8125
2096.12447	17903.6125
2099.11969	17902.5125
2102.11299	17905.0125
2105.10435	17928.4125
2108.09379	17917.5125
2111.08131	17921.3125
2114.0669	17947.5125
2117.05057	17932.7125
2120.03233	17951.5125
2123.01216	17951.8125
2125.99008	17972.2125
2128.96609	18013.6125
2131.94018	18047.3125
2134.91236	18027.4125
2137.88263	18048.8125
2140.851	18045.2125
2143.81746	18062.5125
2146.78201	18055.4125
2149.74466	18069.6125
2152.7054	18045.6125
2155.66425	18036.3125
2158.6212	18073.9125
2161.57625	18051.7125
2164.52941	18073.8125
2167.48067	18057.3125
2170.43004	18060.6125
2173.37752	18058.9125
2176.32311	18029.7125
2179.26681	18055.8125
2182.20863	18060.6125
2185.14856	18102.1125
2188.08661	18072.5125
2191.02278	18087.4125
2193.95707	18066.5125
2196.88948	18071.8125
2199.82001	18101.8125
2202.74867	18038.6125
2205.67545	18011.0125
2208.60037	18021.4125
2211.52341	17979.5125
2214.44458	17956.0125
2217.36388	17943.9125
2220.28132	17972.0125
2223.1969	17858.1125
2226.11061	17894.2125
2229.02246	17892.9125
2231.93245	17863.0125
2234.84058	17804.1125
2237.74686	17807.3125
2240.65128	17811.2125
2243.55385	17785.8125
2246.45456	17733.7125
2249.35343	17686.2125
2252.25044	17644.6125
2255.14561	17642.2125
2258.03893	17602.8125
2260.93041	17537.4125
2263.82004	17487.1125
2266.70783	17476.3125
2269.59378	17444.0125
2272.4779	17410.8125
2275.36017	17367.3125
2278.24061	17360.9125
2281.11922	17333.2125
2283.996	17326.2125
2286.87094	17288.4125
2289.74405	17284.6125
2292.61534	17329.4125
2295.4848	17254.5125
2298.35243	17279.8125
2301.21824	17245.8125
2304.08223	17272.1125
2306.94439	17279.3125
2309.80474	17280.6125
2312.66327	17271.4125
2315.51999	17286.0125
2318.37489	17253.9125
2321.22797	17247.3125
2324.07925	17231.4125
2326.92871	17231.6125
2329.77637	17229.4125
2332.62222	17201.5125
2335.46626	17210.7125
2338.3085	17177.7125
2341.14893	17174.9125
2343.98756	17200.7125
2346.8244	17187.1125
2349.65943	17194.6125
2352.49267	17154.6125
2355.32411	17142.2125
2358.15376	17137.7125
2360.98161	17079.9125
2363.80768	17110.7125
2366.63195	17079.3125
2369.45444	17041.4125
2372.27514	17013.0125
2375.09405	16984.3125
2377.91118	16961.0125
2380.72652	16980.5125
2383.54009	16915.6125
2386.35187	16922.9125
2389.16188	16889.7125
2391.97011	16868.7125
2394.77657	16814.0125
2397.58125	16816.7125
2400.38416	16795.2125
2403.18529	16787.1125
2405.98466	16770.4125
2408.78226	16702.2125
2411.57809	16707.1125
2414.37216	16664.9125
2417.16446	16649.9125
2419.955	16659.8125
2422.74378	16637.8125
2425.5308	16610.9125
2428.31606	16581.0125
2431.09956	16580.3125
2433.88131	16566.0125
2436.6613	16607.5125
2439.43954	16571.7125
2442.21603	16561.8125
2444.99077	16553.0125
2447.76377	16547.0125
2450.53501	16538.6125
2453.30451	16551.5125
2456.07226	16536.6125
2458.83827	16543.1125
2461.60254	16519.7125
2464.36507	16527.7125
2467.12586	16542.9125
2469.88492	16538.6125
2472.64224	16510.8125
2475.39782	16517.9125
2478.15167	16503.9125
2480.90379	16508.2125
2483.65417	16548.0125
2486.40283	16497.2125
2489.14976	16531.4125
2491.89497	16492.4125
2494.63845	16504.6125
2497.3802	16500.5125
2500.12024	16494.6125
2502.85855	16517.3125
2505.59514	16522.5125
2508.33002	16499.8125
2511.06318	16474.9125
2513.79462	16460.1125
2516.52435	16473.1125
2519.25237	16484.8125
2521.97867	16452.0125
2524.70327	16438.5125
2527.42616	16445.2125
2530.14734	16442.0125
2532.86681	16387.4125
2535.58458	16393.5125
2538.30065	16373.0125
2541.01501	16374.0125
2543.72768	16339.9125
2546.43864	16325.7125
2549.14791	16347.2125
2551.85548	16312.0125
2554.56136	16340.3125
2557.26554	16330.1125
2559.96803	16290.6125
2562.66883	16297.9125
2565.36794	16296.6125
2568.06536	16289.1125
2570.7611	16295.3125
2573.45514	16261.0125
2576.14751	16267.9125
2578.83819	16245.1125
2581.52719	16266.7125
2584.21451	16264.9125
2586.90015	16211.0125
2589.58411	16224.2125
2592.2664	16208.3125
2594.94701	16142.2125
2597.62594	16203.1125
2600.30321	16185.3125
2602.9788	16150.2125
2605.65273	16128.0125
2608.32498	16137.6125
2610.99557	16146.1125
2613.66449	16135.2125
2616.33175	16082.7125
2618.99734	16121.0125
2621.66128	16095.8125
2624.32355	16121.0125
2626.98416	16084.2125
2629.64311	16075.6125
2632.30041	16107.0125
2634.95605	16067.3125
2637.61004	16060.0125
2640.26238	16051.1125
2642.91306	16049.2125
2645.56209	15991.0125
2648.20948	15985.9125
2650.85521	15992.7125
2653.4993	15987.5125
2656.14175	16020.1125
2658.78255	16030.1125
2661.42171	15989.1125
2664.05923	16052.8125
2666.6951	16061.1125
2669.32934	16039.4125
2671.96194	16069.7125
2674.59291	16081.2125
2677.22224	16056.4125
2679.84993	16029.5125
2682.476	16051.8125
2685.10043	16046.5125
2687.72324	16020.8125
2690.34441	16043.1125
2692.96396	15999.3125
2695.58188	16053.8125
2698.19818	15984.8125
2700.81285	16037.0125
2703.4259	16024.4125
2706.03733	16043.6125
2708.64714	16032.4125
2711.25533	16048.5125
2713.86191	16038.5125
2716.46687	16054.5125
2719.07021	16091.9125
2721.67194	16089.0125
2724.27206	16062.2125
2726.87057	16083.9125
2729.46747	16078.8125
2732.06276	16124.9125
2734.65644	16115.3125
2737.24852	16075.2125
2739.83899	16083.9125
2742.42786	16064.3125
2745.01513	16084.8125
2747.60079	16087.0125
2750.18486	16062.5125
2752.76733	16102.6125
2755.3482	16053.9125
2757.92747	16067.9125
2760.50515	16056.9125
2763.08123	16059.0125
2765.65573	16039.0125
2768.22863	16046.0125
2770.79994	16030.6125
2773.36967	16089.3125
2775.9378	16078.3125
2778.50435	16038.1125
2781.06932	16026.2125
2783.6327	16016.1125
2786.1945	16034.4125
2788.75471	16002.4125
2791.31335	15937.1125
2793.87041	15932.0125
2796.42589	15912.8125
2798.97979	15891.3125
2801.53212	15864.4125
2804.08288	15856.1125
2806.63206	15804.3125
2809.17967	15824.7125
2811.72571	15767.3125
2814.27018	15771.8125
2816.81308	15721.5125
2819.35442	15717.9125
2821.89419	15682.3125
2824.43239	15680.9125
2826.96904	15643.4125
2829.50412	15644.7125
2832.03763	15601.9125
2834.56959	15615.0125
2837.1	15589.2125
2839.62884	15583.0125
2842.15613	15589.2125
2844.68186	15600.4125
2847.20604	15615.9125
2849.72867	15557.4125
2852.24974	15550.5125
2854.76927	15554.8125
2857.28724	15565.8125
2859.80367	15574.8125
2862.31855	15518.2125
2864.83189	15533.1125
2867.34368	15494.0125
2869.85393	15486.4125
2872.36264	15514.6125
2874.8698	15549.4125
2877.37543	15525.3125
2879.87952	15552.1125
2882.38207	15536.5125
2884.88308	15515.2125
2887.38256	15565.8125
2889.88051	15543.7125
2892.37692	15567.5125
2894.8718	15588.3125
2897.36515	15601.6125
2899.85698	15581.0125
2902.34727	15622.8125
2904.83604	15613.8125
2907.32328	15661.4125
2909.809	15609.3125
2912.29319	15620.6125
2914.77587	15621.1125
2917.25702	15608.5125
2919.73665	15608.8125
2922.21476	15645.8125
2924.69136	15595.3125
2927.16644	15617.3125
2929.64	15569.9125
2932.11205	15576.9125
2934.58258	15528.4125
2937.05161	15547.4125
2939.51912	15531.8125
2941.98513	15525.7125
2944.44962	15469.8125
2946.91261	15423.3125
2949.37409	15485.7125
2951.83407	15441.4125
2954.29254	15448.7125
2956.74951	15442.3125
2959.20498	15414.6125
2961.65895	15406.7125
2964.11142	15391.3125
2966.56239	15341.4125
2969.01186	15346.0125
2971.45984	15292.6125
2973.90632	15259.3125
2976.35131	15239.3125
2978.7948	15179.8125
2981.23681	15151.8125
2983.67732	15104.2125
2986.11635	15047.7125
2988.55388	15033.5125
2990.98993	15009.5125
2993.4245	14980.8125
2995.85758	14944.9125
2998.28917	14937.7125
3000.71928	14937.7125
3003.14791	14867.3125
3005.57506	14868.1125
3008.00073	14857.5125
3010.42493	14842.1125
3012.84764	14806.5125
3015.26888	14798.6125
3017.68865	14740.5125
3020.10694	14712.9125
3022.52376	14681.7125
3024.9391	14691.1125
3027.35298	14649.0125
3029.76539	14602.8125
3032.17632	14613.8125
3034.5858	14598.0125
3036.9938	14572.5125
3039.40034	14588.4125
3041.80542	14581.1125
3044.20903	14551.0125
3046.61118	14550.9125
3049.01187	14503.2125
3051.4111	14495.4125
3053.80888	14446.1125
3056.20519	14434.7125
3058.60005	14382.6125
3060.99345	14381.0125
3063.3854	14335.2125
3065.7759	14306.3125
3068.16494	14269.3125
3070.55254	14207.3125
3072.93868	14225.7125
3075.32338	14177.4125
3077.70662	14197.1125
3080.08842	14120.9125
3082.46878	14116.3125
3084.84769	14103.5125
3087.22515	14079.6125
3089.60118	14089.8125
3091.97576	14078.0125
3094.3489	14056.1125
3096.72061	14042.1125
3099.09087	14059.3125
3101.4597	14033.6125
3103.82709	14016.3125
3106.19305	14005.8125
3108.55757	13979.4125
3110.92066	13952.6125
3113.28232	13914.1125
3115.64255	13875.5125
3118.00134	13856.2125
3120.35871	13845.6125
3122.71466	13809.0125
3125.06917	13816.5125
3127.42226	13793.5125
3129.77393	13818.3125
3132.12417	13753.2125
3134.47299	13756.3125
3136.82039	13797.6125
3139.16636	13756.2125
3141.51092	13742.0125
3143.85406	13766.1125
3146.19579	13758.1125
3148.53609	13735.5125
3150.87499	13736.5125
3153.21246	13756.3125
3155.54853	13766.7125
3157.88318	13708.0125
3160.21642	13708.0125
3162.54826	13695.2125
3164.87868	13684.6125
3167.2077	13667.5125
3169.5353	13679.4125
3171.86151	13674.6125
3174.18631	13662.3125
3176.5097	13649.6125
3178.83169	13635.2125
3181.15228	13644.4125
3183.47147	13607.6125
3185.78926	13607.0125
3188.10565	13582.1125
3190.42065	13625.1125
3192.73424	13595.1125
3195.04645	13595.5125
3197.35725	13594.0125
3199.66667	13602.4125
3201.97469	13581.5125
3204.28132	13583.5125
3206.58656	13547.2125
3208.8904	13547.6125
3211.19287	13557.0125
3213.49394	13523.5125
3215.79363	13486.3125
3218.09193	13538.0125
3220.38884	13513.7125
3222.68438	13497.6125
3224.97853	13513.5125
3227.2713	13484.4125
3229.56269	13462.0125
3231.8527	13478.2125
3234.14133	13447.9125
3236.42858	13454.4125
3238.71446	13436.8125
3240.99896	13413.8125
3243.28209	13402.6125
3245.56384	13391.7125
3247.84423	13426.7125
3250.12324	13393.5125
3252.40088	13392.5125
3254.67715	13344.4125
3256.95205	13327.5125
3259.22558	13298.7125
3261.49775	13272.4125
3263.76855	13261.9125
3266.03799	13245.7125
3268.30606	13225.2125
3270.57277	13219.3125
3272.83812	13194.1125
3275.10211	13194.1125
3277.36474	13148.5125
3279.62601	13205.0125
3281.88593	13130.7125
3284.14448	13139.3125
3286.40168	13131.7125
3288.65753	13172.0125
3290.91202	13090.9125
3293.16516	13076.5125
3295.41695	13063.7125
3297.66738	12971.8125
3299.91647	12885.1125
3302.16421	12822.4125
3304.4106	12752.7125
3306.65564	12706.1125
3308.89933	12605.0125
3311.14169	12558.8125
3313.38269	12442.4125
3315.62236	12373.0125
3317.86068	12264.4125
3320.09766	12173.3125
3322.3333	12047.2125
3324.5676	12053.1125
3326.80056	11834.9125
3329.03219	11790.4125
3331.26248	3.5125
3333.49143	0.6125
3335.71905	-0.8875
