Data from AgNPs_FTO_APTES_UA_100uM_R6G_10uM_NaF_0.1M_Addition_RamanShift__19__15-39-17-466.txt Node

Date: Fri Dec 17 15:39:17 GMT 2021
User: TCL
Spectrometer: QEP01345
Trigger mode: 4
Integration Time (sec): 7.000000E0
Scans to average: 10
Electric dark correction enabled: true
Nonlinearity correction enabled: false
Boxcar width: 0
XAxis mode: Raman Shifts
Number of Pixels in Spectrum: 1044
>>>>>Begin Spectral Data<<<<<
46.04893	-0.5625
50.45542	-0.5625
54.85868	-1.6625
59.25871	0.1375
63.6555	60.9375
68.04907	62.5375
72.43941	68.3375
76.82654	70.5375
81.21044	70.4375
85.59113	77.2375
89.96862	83.0375
94.34289	79.3375
98.71396	85.8375
103.08183	86.9375
107.4465	92.1375
111.80798	89.8375
116.16626	88.9375
120.52136	94.5375
124.87327	99.0375
129.222	101.4375
133.56755	106.7375
137.90993	113.9375
142.24913	119.5375
146.58517	130.7375
150.91804	143.1375
155.24774	171.8375
159.57429	208.3375
163.89768	259.0375
168.21792	337.3375
172.53501	453.7375
176.84895	626.4375
181.15975	865.9375
185.46741	1214.9375
189.77193	1676.1375
194.07331	2242.0375
198.37157	2886.0375
202.6667	3568.3375
206.9587	4250.6375
211.24758	4900.0375
215.53334	5551.1375
219.81599	6250.3375
224.09553	7017.4375
228.37195	7863.4375
232.64527	8841.0375
236.91549	9888.1375
241.18261	10922.9375
245.44663	11922.9375
249.70755	12782.8375
253.96539	13497.1375
258.22014	14095.0375
262.4718	14586.0375
266.72039	14931.6375
270.96589	15123.4375
275.20832	15168.7375
279.44768	15041.5375
283.68397	14845.3375
287.91719	14676.2375
292.14735	14586.8375
296.37445	14592.2375
300.59849	14665.8375
304.81948	14730.2375
309.03742	14698.7375
313.25231	14449.7375
317.46415	14126.0375
321.67296	13702.8375
325.87872	13365.5375
330.08145	13233.4375
334.28114	13249.2375
338.47781	13377.7375
342.67145	13578.1375
346.86207	13845.0375
351.04966	14108.4375
355.23424	14429.4375
359.4158	14715.0375
363.59435	14932.9375
367.76989	15127.5375
371.94243	15258.3375
376.11196	15378.0375
380.27849	15477.0375
384.44203	15584.9375
388.60257	15647.0375
392.76012	15738.6375
396.91468	15889.8375
401.06626	16071.5375
405.21485	16206.6375
409.36047	16109.2375
413.50311	15816.0375
417.64277	15473.3375
421.77947	15278.4375
425.9132	15219.7375
430.04396	15210.1375
434.17176	15258.1375
438.2966	15394.3375
442.41849	15517.8375
446.53742	15737.5375
450.6534	15993.0375
454.76644	16247.8375
458.87653	16374.2375
462.98368	16426.2375
467.08789	16400.3375
471.18916	16315.3375
475.2875	16227.8375
479.38291	16119.3375
483.4754	15959.9375
487.56496	15829.9375
491.6516	15742.5375
495.73531	15731.9375
499.81612	15742.9375
503.89401	15839.8375
507.96899	15948.3375
512.04106	16017.0375
516.11023	16097.0375
520.1765	16115.2375
524.23987	16124.9375
528.30034	16051.0375
532.35792	16037.6375
536.41261	15987.9375
540.46441	15900.2375
544.51333	15829.6375
548.55936	15862.0375
552.60252	15899.9375
556.64279	16024.3375
560.6802	16035.0375
564.71473	15998.0375
568.7464	16033.2375
572.7752	16133.5375
576.80114	16127.2375
580.82422	16138.0375
584.84444	16194.2375
588.86181	16244.5375
592.87633	16256.9375
596.888	16350.7375
600.89682	16622.1375
604.9028	17484.0375
608.90594	19400.5375
612.90624	21562.8375
616.90371	20811.4375
620.89834	17592.2375
624.89015	16083.6375
628.87913	15822.5375
632.86528	16036.6375
636.84862	16282.9375
640.82913	16274.6375
644.80683	15878.0375
648.78172	15511.2375
652.75379	15374.2375
656.72306	15471.1375
660.68952	15750.4375
664.65319	15756.2375
668.61405	15519.0375
672.57211	15554.2375
676.52738	15639.8375
680.47986	15667.2375
684.42955	15525.1375
688.37646	15335.6375
692.32058	15291.2375
696.26192	15276.5375
700.20048	15337.7375
704.13626	15420.5375
708.06928	15424.7375
711.99952	15327.8375
715.927	15315.1375
719.85171	15305.6375
723.77365	15335.2375
727.69284	15280.7375
731.60928	15271.3375
735.52295	15277.3375
739.43388	15305.7375
743.34206	15349.3375
747.24749	15349.0375
751.15017	15309.1375
755.05012	15317.1375
758.94733	15553.7375
762.8418	16208.6375
766.73354	17415.0375
770.62254	18879.2375
774.50882	19849.3375
778.39237	19401.1375
782.27321	17868.6375
786.15132	16474.7375
790.02671	15556.3375
793.89938	15091.7375
797.76935	14922.5375
801.6366	14857.4375
805.50115	14823.2375
809.36299	14768.4375
813.22213	14670.4375
817.07857	14637.1375
820.93231	14621.1375
824.78336	14621.8375
828.63172	14546.9375
832.47738	14534.5375
836.32036	14496.4375
840.16066	14461.2375
843.99827	14458.8375
847.8332	14438.9375
851.66546	14464.0375
855.49504	14421.3375
859.32195	14493.2375
863.1462	14492.5375
866.96777	14546.8375
870.78668	14539.8375
874.60293	14543.8375
878.41652	14512.8375
882.22745	14574.6375
886.03573	14615.5375
889.84136	14649.8375
893.64433	14606.2375
897.44466	14511.3375
901.24235	14431.4375
905.0374	14343.7375
908.8298	14206.4375
912.61957	14193.2375
916.40671	14226.4375
920.19121	14300.5375
923.97308	14370.5375
927.75233	14392.5375
931.52895	14390.7375
935.30295	14314.3375
939.07433	14149.7375
942.84309	14005.1375
946.60924	13954.6375
950.37278	13874.8375
954.13371	13862.8375
957.89203	13831.2375
961.64774	13728.3375
965.40086	13684.1375
969.15137	13615.0375
972.89929	13543.8375
976.64461	13491.4375
980.38733	13474.8375
984.12747	13465.6375
987.86502	13540.5375
991.59999	13591.3375
995.33237	13693.6375
999.06217	13883.2375
1002.78939	14025.9375
1006.51404	14207.3375
1010.23611	14367.3375
1013.95561	14465.7375
1017.67255	14589.4375
1021.38692	14540.5375
1025.09872	14391.3375
1028.80796	14251.8375
1032.51465	14301.3375
1036.21877	14395.9375
1039.92035	14434.3375
1043.61937	14456.2375
1047.31584	14468.2375
1051.00976	14421.5375
1054.70114	14405.2375
1058.38998	14431.6375
1062.07627	14470.8375
1065.76003	14589.7375
1069.44126	14685.0375
1073.11995	14822.8375
1076.79611	14927.3375
1080.46974	14998.5375
1084.14085	14982.1375
1087.80943	15029.5375
1091.47549	15070.6375
1095.13903	15118.8375
1098.80005	14972.8375
1102.45857	14793.0375
1106.11456	14639.0375
1109.76805	14635.5375
1113.41903	14712.4375
1117.06751	14868.4375
1120.71348	15081.6375
1124.35696	15365.5375
1127.99793	15670.3375
1131.63641	15898.1375
1135.2724	15872.0375
1138.90589	15676.8375
1142.5369	15457.0375
1146.16542	15161.1375
1149.79145	14901.3375
1153.415	14807.2375
1157.03607	14786.6375
1160.65467	14957.5375
1164.27079	15299.7375
1167.88443	15811.6375
1171.49561	16442.8375
1175.10432	17379.4375
1178.71056	18573.8375
1182.31434	19662.0375
1185.91565	20281.1375
1189.51451	20365.1375
1193.11091	19933.9375
1196.70485	19194.6375
1200.29634	18413.1375
1203.88538	17744.9375
1207.47197	17108.2375
1211.05612	16516.6375
1214.63782	16088.9375
1218.21708	15844.2375
1221.79391	15722.5375
1225.36829	15688.9375
1228.94024	15655.3375
1232.50976	15642.4375
1236.07685	15639.5375
1239.6415	15672.7375
1243.20374	15709.9375
1246.76355	15796.3375
1250.32093	15923.3375
1253.8759	16138.8375
1257.42845	16456.9375
1260.97859	16762.9375
1264.52631	17136.8375
1268.07163	17436.5375
1271.61453	17804.9375
1275.15503	18086.8375
1278.69312	18413.2375
1282.22882	18677.1375
1285.76211	18887.5375
1289.29301	19248.9375
1292.82151	19714.0375
1296.34761	20280.3375
1299.87133	20997.4375
1303.39266	21821.0375
1306.9116	22761.9375
1310.42815	23741.7375
1313.94233	24310.9375
1317.45412	24077.3375
1320.96354	23470.3375
1324.47058	22825.2375
1327.97525	22130.7375
1331.47754	21669.5375
1334.97747	21395.9375
1338.47502	21473.2375
1341.97022	21734.4375
1345.46305	22228.3375
1348.95352	22854.3375
1352.44163	23711.1375
1355.92738	24786.7375
1359.41078	26074.5375
1362.89183	27266.9375
1366.37053	26803.9375
1369.84688	24314.2375
1373.32088	21516.4375
1376.79254	19667.9375
1380.26186	18701.5375
1383.72883	18217.6375
1387.19347	17903.6375
1390.65578	17587.5375
1394.11575	17303.7375
1397.57339	17115.8375
1401.0287	17042.9375
1404.48168	17091.7375
1407.93234	17068.9375
1411.38068	17002.3375
1414.82669	16867.5375
1418.27039	16632.9375
1421.71177	16377.4375
1425.15083	16108.6375
1428.58758	15883.9375
1432.02203	15888.3375
1435.45416	15966.3375
1438.88399	16130.6375
1442.31151	16307.7375
1445.73673	16460.4375
1449.15965	16653.2375
1452.58027	16839.1375
1455.9986	16965.7375
1459.41463	17214.4375
1462.82837	17463.8375
1466.23982	17680.5375
1469.64898	17854.6375
1473.05586	18012.6375
1476.46045	18063.8375
1479.86276	18042.5375
1483.26279	18079.2375
1486.66054	18136.8375
1490.05602	18267.8375
1493.44922	18573.5375
1496.84016	19098.0375
1500.22882	19978.0375
1503.61521	21213.9375
1506.99934	22653.1375
1510.38121	23954.3375
1513.76081	24294.8375
1517.13816	23523.7375
1520.51324	22021.1375
1523.88607	20519.5375
1527.25665	19495.1375
1530.62498	18921.5375
1533.99105	18576.0375
1537.35488	18286.5375
1540.71647	18102.1375
1544.07581	17895.3375
1547.4329	17759.2375
1550.78776	17645.6375
1554.14038	17637.1375
1557.49077	17734.0375
1560.83892	17900.1375
1564.18484	18080.1375
1567.52853	18220.1375
1570.86999	18377.5375
1574.20922	18547.0375
1577.54624	18618.5375
1580.88103	18300.8375
1584.2136	17794.3375
1587.54395	17485.1375
1590.87208	17496.7375
1594.19801	17853.1375
1597.52172	18502.2375
1600.84321	18817.9375
1604.16251	18513.7375
1607.47959	17890.4375
1610.79447	17215.1375
1614.10715	16456.7375
1617.41763	15729.6375
1620.7259	15144.7375
1624.03199	14799.0375
1627.33587	14691.8375
1630.63757	14762.2375
1633.93707	15137.7375
1637.23439	15775.9375
1640.52951	16700.6375
1643.82246	17913.2375
1647.11321	19157.0375
1650.40179	19964.8375
1653.68819	19716.6375
1656.97241	18296.1375
1660.25446	16506.0375
1663.53433	15131.4375
1666.81203	14176.5375
1670.08756	13570.4375
1673.36092	13200.3375
1676.63211	12907.6375
1679.90115	12691.8375
1683.16801	12537.1375
1686.43272	12411.8375
1689.69527	12296.3375
1692.95567	12226.3375
1696.2139	12191.1375
1699.46999	12132.2375
1702.72392	12089.4375
1705.97571	12049.8375
1709.22535	11989.4375
1712.47284	11943.7375
1715.71819	11930.3375
1718.96139	11876.2375
1722.20246	11844.2375
1725.44139	11797.7375
1728.67818	11729.7375
1731.91284	11668.8375
1735.14537	11612.3375
1738.37576	11594.0375
1741.60403	11546.9375
1744.83017	11530.2375
1748.05418	11502.6375
1751.27607	11480.7375
1754.49584	11464.9375
1757.71349	11458.7375
1760.92903	11439.7375
1764.14244	11428.2375
1767.35375	11412.3375
1770.56294	11418.1375
1773.77002	11383.2375
1776.97499	11337.7375
1780.17785	11317.2375
1783.37861	11283.3375
1786.57727	11284.6375
1789.77382	11249.3375
1792.96828	11225.0375
1796.16064	11200.4375
1799.3509	11210.6375
1802.53907	11190.7375
1805.72514	11153.4375
1808.90913	11139.7375
1812.09102	11097.5375
1815.27083	11092.0375
1818.44856	11052.0375
1821.6242	11036.1375
1824.79776	11019.3375
1827.96924	10998.7375
1831.13864	10979.4375
1834.30597	10956.7375
1837.47122	10990.5375
1840.6344	10972.8375
1843.7955	10952.4375
1846.95454	10972.2375
1850.11151	10938.2375
1853.26642	10942.6375
1856.41926	10929.5375
1859.57004	10922.5375
1862.71876	10902.3375
1865.86542	10917.2375
1869.01003	10873.7375
1872.15258	10899.3375
1875.29308	10857.0375
1878.43152	10847.0375
1881.56792	10845.0375
1884.70227	10840.0375
1887.83457	10847.2375
1890.96482	10821.6375
1894.09304	10830.0375
1897.21921	10802.4375
1900.34335	10781.8375
1903.46544	10780.5375
1906.58551	10778.3375
1909.70353	10750.7375
1912.81953	10742.6375
1915.93349	10737.1375
1919.04543	10694.5375
1922.15534	10681.5375
1925.26322	10657.1375
1928.36908	10629.8375
1931.47292	10598.1375
1934.57473	10586.7375
1937.67453	10557.9375
1940.77232	10545.2375
1943.86808	10524.7375
1946.96184	10516.2375
1950.05358	10478.6375
1953.14331	10455.2375
1956.23103	10421.8375
1959.31675	10391.1375
1962.40046	10351.8375
1965.48217	10353.1375
1968.56188	10326.3375
1971.63959	10263.1375
1974.7153	10248.2375
1977.78901	10193.7375
1980.86073	10192.1375
1983.93046	10151.2375
1986.99819	10114.0375
1990.06394	10108.3375
1993.1277	10088.4375
1996.18947	10047.9375
1999.24925	10036.3375
2002.30706	9989.5375
2005.36288	9951.0375
2008.41672	9927.2375
2011.46859	9914.3375
2014.51848	9881.0375
2017.56639	9855.9375
2020.61233	9803.1375
2023.6563	9814.2375
2026.6983	9791.9375
2029.73833	9761.3375
2032.7764	9726.9375
2035.8125	9721.5375
2038.84664	9716.3375
2041.87881	9689.3375
2044.90903	9673.6375
2047.93729	9641.8375
2050.96359	9629.3375
2053.98794	9634.7375
2057.01034	9622.4375
2060.03078	9608.4375
2063.04927	9588.4375
2066.06582	9589.3375
2069.08042	9590.4375
2072.09307	9554.8375
2075.10378	9551.7375
2078.11255	9552.4375
2081.11938	9571.6375
2084.12426	9553.8375
2087.12722	9529.4375
2090.12824	9544.4375
2093.12732	9540.4375
2096.12447	9542.4375
2099.11969	9540.8375
2102.11299	9547.9375
2105.10435	9561.6375
2108.09379	9544.9375
2111.08131	9567.5375
2114.0669	9574.1375
2117.05057	9594.0375
2120.03233	9599.0375
2123.01216	9601.0375
2125.99008	9614.8375
2128.96609	9644.7375
2131.94018	9656.8375
2134.91236	9642.3375
2137.88263	9627.9375
2140.851	9639.9375
2143.81746	9641.5375
2146.78201	9641.7375
2149.74466	9664.3375
2152.7054	9638.4375
2155.66425	9640.4375
2158.6212	9645.5375
2161.57625	9638.0375
2164.52941	9641.1375
2167.48067	9614.2375
2170.43004	9632.8375
2173.37752	9638.4375
2176.32311	9617.6375
2179.26681	9623.0375
2182.20863	9626.8375
2185.14856	9607.0375
2188.08661	9609.8375
2191.02278	9614.1375
2193.95707	9595.3375
2196.88948	9597.0375
2199.82001	9605.7375
2202.74867	9587.5375
2205.67545	9559.2375
2208.60037	9560.0375
2211.52341	9542.2375
2214.44458	9525.4375
2217.36388	9506.7375
2220.28132	9486.3375
2223.1969	9457.5375
2226.11061	9499.4375
2229.02246	9445.1375
2231.93245	9422.7375
2234.84058	9397.7375
2237.74686	9413.5375
2240.65128	9385.5375
2243.55385	9398.5375
2246.45456	9381.6375
2249.35343	9372.3375
2252.25044	9349.6375
2255.14561	9345.1375
2258.03893	9306.6375
2260.93041	9295.9375
2263.82004	9306.1375
2266.70783	9264.6375
2269.59378	9232.2375
2272.4779	9247.8375
2275.36017	9232.9375
2278.24061	9189.8375
2281.11922	9173.7375
2283.996	9181.7375
2286.87094	9151.6375
2289.74405	9142.3375
2292.61534	9127.8375
2295.4848	9125.7375
2298.35243	9100.9375
2301.21824	9094.7375
2304.08223	9095.5375
2306.94439	9096.6375
2309.80474	9078.6375
2312.66327	9100.9375
2315.51999	9069.5375
2318.37489	9076.5375
2321.22797	9052.6375
2324.07925	9050.9375
2326.92871	9068.6375
2329.77637	9040.1375
2332.62222	9029.1375
2335.46626	9019.7375
2338.3085	9002.8375
2341.14893	8996.3375
2343.98756	8986.8375
2346.8244	8953.4375
2349.65943	8987.1375
2352.49267	8982.4375
2355.32411	8975.2375
2358.15376	8947.1375
2360.98161	8978.7375
2363.80768	8962.3375
2366.63195	8958.3375
2369.45444	8955.8375
2372.27514	8947.8375
2375.09405	8924.9375
2377.91118	8935.5375
2380.72652	8868.8375
2383.54009	8867.3375
2386.35187	8874.3375
2389.16188	8841.2375
2391.97011	8815.8375
2394.77657	8799.9375
2397.58125	8787.6375
2400.38416	8781.1375
2403.18529	8749.5375
2405.98466	8753.8375
2408.78226	8728.5375
2411.57809	8728.3375
2414.37216	8714.9375
2417.16446	8710.2375
2419.955	8715.9375
2422.74378	8668.9375
2425.5308	8674.3375
2428.31606	8663.2375
2431.09956	8679.1375
2433.88131	8660.4375
2436.6613	8653.7375
2439.43954	8652.0375
2442.21603	8652.6375
2444.99077	8659.5375
2447.76377	8635.0375
2450.53501	8650.5375
2453.30451	8631.3375
2456.07226	8621.6375
2458.83827	8632.2375
2461.60254	8611.0375
2464.36507	8615.5375
2467.12586	8618.3375
2469.88492	8593.4375
2472.64224	8588.1375
2475.39782	8589.5375
2478.15167	8584.4375
2480.90379	8607.3375
2483.65417	8614.0375
2486.40283	8560.4375
2489.14976	8602.1375
2491.89497	8590.1375
2494.63845	8591.2375
2497.3802	8559.2375
2500.12024	8574.0375
2502.85855	8554.6375
2505.59514	8530.5375
2508.33002	8555.5375
2511.06318	8523.2375
2513.79462	8527.6375
2516.52435	8494.2375
2519.25237	8482.8375
2521.97867	8493.3375
2524.70327	8469.1375
2527.42616	8440.8375
2530.14734	8460.6375
2532.86681	8441.9375
2535.58458	8447.3375
2538.30065	8416.2375
2541.01501	8428.7375
2543.72768	8402.2375
2546.43864	8403.0375
2549.14791	8380.1375
2551.85548	8382.6375
2554.56136	8383.9375
2557.26554	8352.6375
2559.96803	8351.2375
2562.66883	8319.1375
2565.36794	8342.5375
2568.06536	8336.1375
2570.7611	8313.2375
2573.45514	8306.9375
2576.14751	8308.4375
2578.83819	8286.1375
2581.52719	8286.8375
2584.21451	8257.3375
2586.90015	8262.9375
2589.58411	8273.3375
2592.2664	8225.3375
2594.94701	8215.5375
2597.62594	8192.1375
2600.30321	8176.9375
2602.9788	8166.4375
2605.65273	8169.9375
2608.32498	8169.8375
2610.99557	8148.9375
2613.66449	8162.2375
2616.33175	8149.9375
2618.99734	8147.5375
2621.66128	8121.0375
2624.32355	8116.2375
2626.98416	8130.2375
2629.64311	8116.9375
2632.30041	8124.6375
2634.95605	8138.4375
2637.61004	8089.2375
2640.26238	8085.5375
2642.91306	8088.4375
2645.56209	8088.3375
2648.20948	8060.3375
2650.85521	8072.1375
2653.4993	8064.8375
2656.14175	8061.5375
2658.78255	8063.1375
2661.42171	8060.1375
2664.05923	8050.5375
2666.6951	8055.5375
2669.32934	8073.0375
2671.96194	8050.1375
2674.59291	8060.8375
2677.22224	8049.7375
2679.84993	8051.0375
2682.476	8101.1375
2685.10043	8044.1375
2687.72324	8045.1375
2690.34441	8059.5375
2692.96396	8032.4375
2695.58188	8066.5375
2698.19818	8040.3375
2700.81285	8073.1375
2703.4259	8039.5375
2706.03733	8071.2375
2708.64714	8068.1375
2711.25533	8075.8375
2713.86191	8058.9375
2716.46687	8080.5375
2719.07021	8057.2375
2721.67194	8063.0375
2724.27206	8047.0375
2726.87057	8066.4375
2729.46747	8065.7375
2732.06276	8028.6375
2734.65644	8041.3375
2737.24852	8047.5375
2739.83899	8033.9375
2742.42786	8037.2375
2745.01513	8021.7375
2747.60079	8027.0375
2750.18486	8015.4375
2752.76733	8022.4375
2755.3482	8008.8375
2757.92747	7997.8375
2760.50515	7998.3375
2763.08123	7984.0375
2765.65573	7985.8375
2768.22863	7982.2375
2770.79994	7967.2375
2773.36967	7969.4375
2775.9378	7973.5375
2778.50435	7944.8375
2781.06932	7944.6375
2783.6327	7929.6375
2786.1945	7925.0375
2788.75471	7906.2375
2791.31335	7884.7375
2793.87041	7871.7375
2796.42589	7839.7375
2798.97979	7845.2375
2801.53212	7831.5375
2804.08288	7846.5375
2806.63206	7821.6375
2809.17967	7812.1375
2811.72571	7782.0375
2814.27018	7791.7375
2816.81308	7763.8375
2819.35442	7757.1375
2821.89419	7745.5375
2824.43239	7750.2375
2826.96904	7748.0375
2829.50412	7738.9375
2832.03763	7733.6375
2834.56959	7735.2375
2837.1	7715.4375
2839.62884	7733.0375
2842.15613	7721.7375
2844.68186	7729.4375
2847.20604	7719.5375
2849.72867	7738.5375
2852.24974	7731.9375
2854.76927	7711.2375
2857.28724	7715.1375
2859.80367	7688.6375
2862.31855	7679.4375
2864.83189	7665.3375
2867.34368	7654.8375
2869.85393	7690.7375
2872.36264	7665.4375
2874.8698	7686.8375
2877.37543	7681.2375
2879.87952	7678.9375
2882.38207	7663.7375
2884.88308	7683.1375
2887.38256	7674.7375
2889.88051	7684.9375
2892.37692	7655.8375
2894.8718	7658.9375
2897.36515	7661.8375
2899.85698	7684.8375
2902.34727	7687.3375
2904.83604	7659.6375
2907.32328	7671.4375
2909.809	7673.0375
2912.29319	7692.2375
2914.77587	7679.3375
2917.25702	7681.0375
2919.73665	7692.0375
2922.21476	7677.2375
2924.69136	7689.9375
2927.16644	7672.2375
2929.64	7662.9375
2932.11205	7647.1375
2934.58258	7645.5375
2937.05161	7663.7375
2939.51912	7637.3375
2941.98513	7626.6375
2944.44962	7622.8375
2946.91261	7592.1375
2949.37409	7608.2375
2951.83407	7595.2375
2954.29254	7601.2375
2956.74951	7600.7375
2959.20498	7595.0375
2961.65895	7573.6375
2964.11142	7572.9375
2966.56239	7551.2375
2969.01186	7561.4375
2971.45984	7548.8375
2973.90632	7528.8375
2976.35131	7513.9375
2978.7948	7501.9375
2981.23681	7485.0375
2983.67732	7497.8375
2986.11635	7470.2375
2988.55388	7458.4375
2990.98993	7442.8375
2993.4245	7431.1375
2995.85758	7441.6375
2998.28917	7421.3375
3000.71928	7416.9375
3003.14791	7367.7375
3005.57506	7392.0375
3008.00073	7374.4375
3010.42493	7383.3375
3012.84764	7377.6375
3015.26888	7382.0375
3017.68865	7361.7375
3020.10694	7349.6375
3022.52376	7358.5375
3024.9391	7308.4375
3027.35298	7306.7375
3029.76539	7295.6375
3032.17632	7302.7375
3034.5858	7272.0375
3036.9938	7270.0375
3039.40034	7255.0375
3041.80542	7252.2375
3044.20903	7236.5375
3046.61118	7259.0375
3049.01187	7236.4375
3051.4111	7232.1375
3053.80888	7215.1375
3056.20519	7206.3375
3058.60005	7205.9375
3060.99345	7213.0375
3063.3854	7184.3375
3065.7759	7172.0375
3068.16494	7169.8375
3070.55254	7147.6375
3072.93868	7126.4375
3075.32338	7123.3375
3077.70662	7145.9375
3080.08842	7136.0375
3082.46878	7126.8375
3084.84769	7102.0375
3087.22515	7127.2375
3089.60118	7121.6375
3091.97576	7113.1375
3094.3489	7118.3375
3096.72061	7107.5375
3099.09087	7120.2375
3101.4597	7096.7375
3103.82709	7096.3375
3106.19305	7100.1375
3108.55757	7094.2375
3110.92066	7079.8375
3113.28232	7068.7375
3115.64255	7070.0375
3118.00134	7051.3375
3120.35871	7061.1375
3122.71466	7055.9375
3125.06917	7040.8375
3127.42226	7015.6375
3129.77393	7015.8375
3132.12417	7033.7375
3134.47299	7059.5375
3136.82039	7059.0375
3139.16636	7040.3375
3141.51092	7045.5375
3143.85406	7049.4375
3146.19579	7064.6375
3148.53609	7062.7375
3150.87499	7068.7375
3153.21246	7081.0375
3155.54853	7091.8375
3157.88318	7080.2375
3160.21642	7098.8375
3162.54826	7087.2375
3164.87868	7092.9375
3167.2077	7093.4375
3169.5353	7103.9375
3171.86151	7111.5375
3174.18631	7091.6375
3176.5097	7075.9375
3178.83169	7078.7375
3181.15228	7096.0375
3183.47147	7067.1375
3185.78926	7069.8375
3188.10565	7058.3375
3190.42065	7068.1375
3192.73424	7084.6375
3195.04645	7090.5375
3197.35725	7057.7375
3199.66667	7071.1375
3201.97469	7085.8375
3204.28132	7094.3375
3206.58656	7100.8375
3208.8904	7124.3375
3211.19287	7122.6375
3213.49394	7128.8375
3215.79363	7129.2375
3218.09193	7114.7375
3220.38884	7118.5375
3222.68438	7106.1375
3224.97853	7113.3375
3227.2713	7120.3375
3229.56269	7096.7375
3231.8527	7103.9375
3234.14133	7076.7375
3236.42858	7067.3375
3238.71446	7052.3375
3240.99896	7052.1375
3243.28209	7060.9375
3245.56384	7066.3375
3247.84423	7059.4375
3250.12324	7048.5375
3252.40088	7063.7375
3254.67715	7062.4375
3256.95205	7038.2375
3259.22558	7044.5375
3261.49775	6993.1375
3263.76855	7027.1375
3266.03799	7006.7375
3268.30606	6995.5375
3270.57277	6988.1375
3272.83812	6978.4375
3275.10211	6953.3375
3277.36474	6974.5375
3279.62601	6958.5375
3281.88593	6958.1375
3284.14448	6959.6375
3286.40168	6937.5375
3288.65753	6929.0375
3290.91202	6932.1375
3293.16516	6905.6375
3295.41695	6893.4375
3297.66738	6851.2375
3299.91647	6826.0375
3302.16421	6794.4375
3304.4106	6769.4375
3306.65564	6734.3375
3308.89933	6705.0375
3311.14169	6667.0375
3313.38269	6605.0375
3315.62236	6572.3375
3317.86068	6519.7375
3320.09766	6461.3375
3322.3333	6398.0375
3324.5676	6401.5375
3326.80056	6300.7375
3329.03219	6257.4375
3331.26248	2.1375
3333.49143	0.8375
3335.71905	0.7375
