Data from AgNPs_FTO_APTES_UA_20uM_R6G_10uM_NaF_0.1M_Addition_RamanShift__3__13-58-57-352.txt Node

Date: Fri Dec 17 13:58:57 GMT 2021
User: TCL
Spectrometer: QEP01345
Trigger mode: 4
Integration Time (sec): 7.000000E0
Scans to average: 10
Electric dark correction enabled: true
Nonlinearity correction enabled: false
Boxcar width: 0
XAxis mode: Raman Shifts
Number of Pixels in Spectrum: 1044
>>>>>Begin Spectral Data<<<<<
46.04893	-1.0125
50.45542	-1.4125
54.85868	-1.7125
59.25871	-0.0125
63.6555	78.9875
68.04907	83.5875
72.43941	87.1875
76.82654	94.6875
81.21044	92.8875
85.59113	94.8875
89.96862	103.6875
94.34289	104.2875
98.71396	110.3875
103.08183	109.7875
107.4465	114.8875
111.80798	116.3875
116.16626	122.8875
120.52136	121.8875
124.87327	130.3875
129.222	137.0875
133.56755	143.5875
137.90993	156.5875
142.24913	172.0875
146.58517	190.9875
150.91804	222.2875
155.24774	264.6875
159.57429	329.2875
163.89768	419.7875
168.21792	552.5875
172.53501	753.6875
176.84895	1042.2875
181.15975	1469.0875
185.46741	2079.4875
189.77193	2847.9875
194.07331	3832.0875
198.37157	4954.3875
202.6667	6128.5875
206.9587	7304.4875
211.24758	8422.5875
215.53334	9563.9875
219.81599	10769.5875
224.09553	12104.3875
228.37195	13558.3875
232.64527	15202.2875
236.91549	16894.1875
241.18261	18636.8875
245.44663	20258.4875
249.70755	21673.0875
253.96539	22925.4875
258.22014	23982.1875
262.4718	24829.0875
266.72039	25407.5875
270.96589	25660.2875
275.20832	25708.4875
279.44768	25465.4875
283.68397	25058.7875
287.91719	24771.3875
292.14735	24555.5875
296.37445	24525.8875
300.59849	24597.0875
304.81948	24729.5875
309.03742	24825.7875
313.25231	24735.5875
317.46415	24408.6875
321.67296	23901.6875
325.87872	23514.4875
330.08145	23299.9875
334.28114	23322.4875
338.47781	23538.6875
342.67145	23817.7875
346.86207	24233.0875
351.04966	24762.7875
355.23424	25291.2875
359.4158	25746.9875
363.59435	26124.7875
367.76989	26421.3875
371.94243	26594.5875
376.11196	26687.4875
380.27849	26811.8875
384.44203	26936.5875
388.60257	27105.1875
392.76012	27272.2875
396.91468	27552.1875
401.06626	27881.6875
405.21485	28163.7875
409.36047	28149.9875
413.50311	27819.7875
417.64277	27508.2875
421.77947	27413.6875
425.9132	27490.5875
430.04396	27596.7875
434.17176	27660.7875
438.2966	27785.3875
442.41849	28116.0875
446.53742	28632.8875
450.6534	29178.4875
454.76644	29671.9875
458.87653	29846.3875
462.98368	29749.9875
467.08789	29488.9875
471.18916	29135.8875
475.2875	28702.8875
479.38291	28346.8875
483.4754	28060.0875
487.56496	27857.0875
491.6516	27689.7875
495.73531	27675.6875
499.81612	27734.5875
503.89401	27977.3875
507.96899	28077.8875
512.04106	28139.9875
516.11023	28142.1875
520.1765	28063.5875
524.23987	27979.7875
528.30034	27832.7875
532.35792	27704.6875
536.41261	27422.1875
540.46441	27160.1875
544.51333	27053.7875
548.55936	27163.7875
552.60252	27537.2875
556.64279	27912.2875
560.6802	28153.9875
564.71473	28269.0875
568.7464	28456.5875
572.7752	28807.3875
576.80114	29128.4875
580.82422	29601.0875
584.84444	30289.7875
588.86181	31037.3875
592.87633	31443.9875
596.888	31348.7875
600.89682	31057.8875
604.9028	31785.9875
608.90594	34365.0875
612.90624	37209.6875
616.90371	35692.4875
620.89834	30879.6875
624.89015	28611.9875
628.87913	28257.4875
632.86528	28323.7875
636.84862	28361.2875
640.82913	28108.6875
644.80683	27577.5875
648.78172	27205.2875
652.75379	27153.3875
656.72306	27511.2875
660.68952	27874.3875
664.65319	27840.3875
668.61405	27464.7875
672.57211	27435.6875
676.52738	27554.3875
680.47986	27525.4875
684.42955	27322.2875
688.37646	27237.4875
692.32058	27461.0875
696.26192	27763.6875
700.20048	28044.1875
704.13626	28170.9875
708.06928	27990.9875
711.99952	27840.5875
715.927	27837.1875
719.85171	27909.2875
723.77365	27875.0875
727.69284	27634.0875
731.60928	27318.7875
735.52295	27200.0875
739.43388	27171.0875
743.34206	27251.4875
747.24749	27420.3875
751.15017	27518.1875
755.05012	27756.9875
758.94733	28272.6875
762.8418	29275.2875
766.73354	30913.4875
770.62254	32623.6875
774.50882	33299.6875
778.39237	32503.8875
782.27321	30813.6875
786.15132	29203.5875
790.02671	28271.0875
793.89938	27732.2875
797.76935	27561.3875
801.6366	27494.2875
805.50115	27437.9875
809.36299	27281.2875
813.22213	27144.9875
817.07857	27018.7875
820.93231	26902.4875
824.78336	26877.3875
828.63172	26883.2875
832.47738	26881.1875
836.32036	26905.5875
840.16066	26923.9875
843.99827	26992.6875
847.8332	26952.9875
851.66546	26868.8875
855.49504	26902.4875
859.32195	26897.7875
863.1462	26898.9875
866.96777	26886.8875
870.78668	26826.2875
874.60293	26860.9875
878.41652	26927.0875
882.22745	27018.6875
886.03573	27166.4875
889.84136	27180.8875
893.64433	27096.0875
897.44466	26925.4875
901.24235	26831.0875
905.0374	26731.8875
908.8298	26661.8875
912.61957	26697.7875
916.40671	26753.3875
920.19121	26904.7875
923.97308	27130.5875
927.75233	27283.4875
931.52895	27283.5875
935.30295	27099.6875
939.07433	26795.2875
942.84309	26524.9875
946.60924	26438.8875
950.37278	26355.1875
954.13371	26311.3875
957.89203	26182.5875
961.64774	26190.0875
965.40086	26116.8875
969.15137	26095.5875
972.89929	26093.5875
976.64461	26138.9875
980.38733	26226.4875
984.12747	26260.8875
987.86502	26424.8875
991.59999	26622.7875
995.33237	26893.1875
999.06217	27368.8875
1002.78939	27920.3875
1006.51404	28320.6875
1010.23611	28589.6875
1013.95561	28771.5875
1017.67255	28788.4875
1021.38692	28627.2875
1025.09872	28393.0875
1028.80796	28361.0875
1032.51465	28659.5875
1036.21877	29099.5875
1039.92035	29219.5875
1043.61937	29139.2875
1047.31584	28805.4875
1051.00976	28384.6875
1054.70114	28121.1875
1058.38998	28138.1875
1062.07627	28269.7875
1065.76003	28420.3875
1069.44126	28642.2875
1073.11995	29050.7875
1076.79611	29428.0875
1080.46974	29721.6875
1084.14085	29843.3875
1087.80943	30027.2875
1091.47549	30078.4875
1095.13903	29925.6875
1098.80005	29571.9875
1102.45857	29162.6875
1106.11456	28876.6875
1109.76805	28701.2875
1113.41903	28719.1875
1117.06751	28803.9875
1120.71348	29008.1875
1124.35696	29256.0875
1127.99793	29501.5875
1131.63641	29701.3875
1135.2724	29410.4875
1138.90589	29192.7875
1142.5369	29117.3875
1146.16542	29019.5875
1149.79145	28898.3875
1153.415	28951.6875
1157.03607	29082.6875
1160.65467	29457.3875
1164.27079	30218.7875
1167.88443	31255.0875
1171.49561	32489.6875
1175.10432	34063.6875
1178.71056	36218.2875
1182.31434	38327.0875
1185.91565	39591.6875
1189.51451	39758.1875
1193.11091	38971.0875
1196.70485	37719.8875
1200.29634	36434.2875
1203.88538	35448.4875
1207.47197	34566.9875
1211.05612	33852.1875
1214.63782	33263.8875
1218.21708	32769.1875
1221.79391	32393.7875
1225.36829	32204.5875
1228.94024	31994.4875
1232.50976	31738.1875
1236.07685	31512.9875
1239.6415	31357.2875
1243.20374	31419.9875
1246.76355	31588.2875
1250.32093	31995.9875
1253.8759	32482.9875
1257.42845	33168.3875
1260.97859	33873.1875
1264.52631	34678.5875
1268.07163	35529.4875
1271.61453	36449.0875
1275.15503	37256.1875
1278.69312	37814.3875
1282.22882	38216.2875
1285.76211	38557.0875
1289.29301	39042.5875
1292.82151	39828.9875
1296.34761	40892.0875
1299.87133	42444.3875
1303.39266	44401.6875
1306.9116	46741.8875
1310.42815	48949.2875
1313.94233	50023.3875
1317.45412	49645.8875
1320.96354	48425.3875
1324.47058	47172.0875
1327.97525	46139.5875
1331.47754	45497.7875
1334.97747	45297.8875
1338.47502	45212.1875
1341.97022	45194.7875
1345.46305	45138.9875
1348.95352	45364.4875
1352.44163	45919.6875
1355.92738	47076.8875
1359.41078	49004.3875
1362.89183	50775.3875
1366.37053	49996.1875
1369.84688	46307.7875
1373.32088	41935.0875
1376.79254	38825.1875
1380.26186	37387.5875
1383.72883	36901.7875
1387.19347	36569.2875
1390.65578	35916.0875
1394.11575	35528.1875
1397.57339	35407.4875
1401.0287	35565.8875
1404.48168	35839.8875
1407.93234	36074.9875
1411.38068	36123.1875
1414.82669	35814.9875
1418.27039	35198.0875
1421.71177	34515.1875
1425.15083	33968.7875
1428.58758	33779.6875
1432.02203	34122.3875
1435.45416	34731.9875
1438.88399	35322.5875
1442.31151	35673.7875
1445.73673	35737.8875
1449.15965	35692.3875
1452.58027	35632.2875
1455.9986	35496.3875
1459.41463	35624.6875
1462.82837	36114.0875
1466.23982	36723.2875
1469.64898	37267.0875
1473.05586	37663.4875
1476.46045	37796.5875
1479.86276	37760.4875
1483.26279	37665.8875
1486.66054	37862.2875
1490.05602	38197.5875
1493.44922	38647.1875
1496.84016	39278.8875
1500.22882	40266.9875
1503.61521	41691.3875
1506.99934	43407.4875
1510.38121	44680.4875
1513.76081	44797.5875
1517.13816	43362.5875
1520.51324	41190.5875
1523.88607	39166.3875
1527.25665	38015.5875
1530.62498	37422.1875
1533.99105	37165.0875
1537.35488	36917.2875
1540.71647	36566.5875
1544.07581	36168.6875
1547.4329	35813.6875
1550.78776	35450.8875
1554.14038	35215.3875
1557.49077	34990.4875
1560.83892	34941.6875
1564.18484	35066.5875
1567.52853	35214.4875
1570.86999	35554.3875
1574.20922	35882.0875
1577.54624	36141.2875
1580.88103	35959.2875
1584.2136	35737.3875
1587.54395	36026.5875
1590.87208	37026.0875
1594.19801	38675.8875
1597.52172	40505.5875
1600.84321	41289.1875
1604.16251	40366.3875
1607.47959	38371.6875
1610.79447	36055.4875
1614.10715	33907.9875
1617.41763	32002.6875
1620.7259	30672.2875
1624.03199	30019.0875
1627.33587	29954.5875
1630.63757	30489.9875
1633.93707	31609.4875
1637.23439	33589.1875
1640.52951	36398.4875
1643.82246	39739.7875
1647.11321	42369.3875
1650.40179	42990.9875
1653.68819	40724.9875
1656.97241	36715.9875
1660.25446	32760.2875
1663.53433	29964.6875
1666.81203	28232.4875
1670.08756	27147.6875
1673.36092	26449.9875
1676.63211	25988.5875
1679.90115	25668.8875
1683.16801	25408.0875
1686.43272	25228.0875
1689.69527	25122.9875
1692.95567	25000.1875
1696.2139	24883.5875
1699.46999	24864.2875
1702.72392	24784.7875
1705.97571	24775.5875
1709.22535	24732.9875
1712.47284	24735.9875
1715.71819	24711.0875
1718.96139	24656.6875
1722.20246	24574.0875
1725.44139	24552.3875
1728.67818	24440.8875
1731.91284	24360.0875
1735.14537	24248.7875
1738.37576	24126.5875
1741.60403	24052.3875
1744.83017	24018.2875
1748.05418	23996.9875
1751.27607	23951.5875
1754.49584	23917.8875
1757.71349	23892.8875
1760.92903	23903.8875
1764.14244	23879.0875
1767.35375	23870.7875
1770.56294	23853.1875
1773.77002	23795.2875
1776.97499	23787.7875
1780.17785	23737.2875
1783.37861	23732.6875
1786.57727	23717.7875
1789.77382	23619.4875
1792.96828	23647.1875
1796.16064	23585.7875
1799.3509	23534.5875
1802.53907	23546.5875
1805.72514	23475.5875
1808.90913	23438.4875
1812.09102	23415.6875
1815.27083	23359.9875
1818.44856	23324.3875
1821.6242	23326.0875
1824.79776	23270.0875
1827.96924	23273.1875
1831.13864	23244.4875
1834.30597	23275.8875
1837.47122	23209.3875
1840.6344	23222.3875
1843.7955	23229.4875
1846.95454	23223.4875
1850.11151	23182.1875
1853.26642	23173.9875
1856.41926	23156.5875
1859.57004	23188.4875
1862.71876	23148.5875
1865.86542	23124.3875
1869.01003	23066.4875
1872.15258	23091.1875
1875.29308	23085.3875
1878.43152	22996.8875
1881.56792	23039.9875
1884.70227	23050.4875
1887.83457	23011.6875
1890.96482	22990.4875
1894.09304	22953.1875
1897.21921	22924.7875
1900.34335	22897.9875
1903.46544	22887.9875
1906.58551	22904.2875
1909.70353	22831.0875
1912.81953	22785.9875
1915.93349	22769.7875
1919.04543	22738.2875
1922.15534	22700.5875
1925.26322	22659.2875
1928.36908	22613.6875
1931.47292	22624.9875
1934.57473	22552.0875
1937.67453	22488.2875
1940.77232	22398.0875
1943.86808	22373.5875
1946.96184	22333.5875
1950.05358	22299.1875
1953.14331	22227.3875
1956.23103	22154.6875
1959.31675	22125.2875
1962.40046	22045.7875
1965.48217	21979.3875
1968.56188	21947.4875
1971.63959	21876.8875
1974.7153	21824.1875
1977.78901	21814.5875
1980.86073	21735.5875
1983.93046	21602.4875
1986.99819	21596.0875
1990.06394	21537.7875
1993.1277	21455.6875
1996.18947	21419.4875
1999.24925	21366.0875
2002.30706	21316.3875
2005.36288	21274.0875
2008.41672	21258.4875
2011.46859	21172.2875
2014.51848	21079.3875
2017.56639	21054.3875
2020.61233	20984.8875
2023.6563	20932.8875
2026.6983	20924.6875
2029.73833	20868.9875
2032.7764	20837.2875
2035.8125	20818.8875
2038.84664	20753.2875
2041.87881	20748.4875
2044.90903	20729.1875
2047.93729	20666.3875
2050.96359	20621.0875
2053.98794	20611.2875
2057.01034	20613.6875
2060.03078	20596.4875
2063.04927	20574.4875
2066.06582	20588.9875
2069.08042	20558.2875
2072.09307	20549.2875
2075.10378	20510.8875
2078.11255	20502.3875
2081.11938	20521.6875
2084.12426	20497.6875
2087.12722	20475.3875
2090.12824	20518.7875
2093.12732	20494.4875
2096.12447	20518.1875
2099.11969	20516.8875
2102.11299	20521.3875
2105.10435	20526.1875
2108.09379	20568.1875
2111.08131	20559.5875
2114.0669	20564.8875
2117.05057	20618.3875
2120.03233	20626.2875
2123.01216	20608.6875
2125.99008	20665.5875
2128.96609	20653.4875
2131.94018	20707.5875
2134.91236	20724.4875
2137.88263	20748.2875
2140.851	20745.3875
2143.81746	20765.5875
2146.78201	20785.8875
2149.74466	20765.2875
2152.7054	20797.3875
2155.66425	20797.7875
2158.6212	20787.6875
2161.57625	20766.7875
2164.52941	20797.9875
2167.48067	20786.6875
2170.43004	20800.1875
2173.37752	20780.9875
2176.32311	20762.4875
2179.26681	20774.7875
2182.20863	20748.4875
2185.14856	20761.8875
2188.08661	20748.8875
2191.02278	20782.7875
2193.95707	20761.9875
2196.88948	20771.6875
2199.82001	20775.0875
2202.74867	20719.2875
2205.67545	20683.1875
2208.60037	20678.3875
2211.52341	20694.8875
2214.44458	20674.7875
2217.36388	20614.7875
2220.28132	20596.6875
2223.1969	20536.6875
2226.11061	20519.4875
2229.02246	20518.6875
2231.93245	20482.9875
2234.84058	20416.4875
2237.74686	20343.8875
2240.65128	20407.2875
2243.55385	20318.4875
2246.45456	20348.4875
2249.35343	20298.4875
2252.25044	20279.1875
2255.14561	20235.8875
2258.03893	20246.2875
2260.93041	20188.4875
2263.82004	20170.7875
2266.70783	20137.4875
2269.59378	20094.4875
2272.4779	20055.6875
2275.36017	20011.8875
2278.24061	19974.9875
2281.11922	19930.5875
2283.996	19916.4875
2286.87094	19910.6875
2289.74405	19862.3875
2292.61534	19895.4875
2295.4848	19795.6875
2298.35243	19841.7875
2301.21824	19804.4875
2304.08223	19858.3875
2306.94439	19822.7875
2309.80474	19827.5875
2312.66327	19849.4875
2315.51999	19802.5875
2318.37489	19811.3875
2321.22797	19800.1875
2324.07925	19759.0875
2326.92871	19744.5875
2329.77637	19705.6875
2332.62222	19693.2875
2335.46626	19696.0875
2338.3085	19631.0875
2341.14893	19621.6875
2343.98756	19614.3875
2346.8244	19645.8875
2349.65943	19599.6875
2352.49267	19589.1875
2355.32411	19594.2875
2358.15376	19595.8875
2360.98161	19568.2875
2363.80768	19561.9875
2366.63195	19558.2875
2369.45444	19534.3875
2372.27514	19503.6875
2375.09405	19447.6875
2377.91118	19419.2875
2380.72652	19404.7875
2383.54009	19353.5875
2386.35187	19346.8875
2389.16188	19293.5875
2391.97011	19294.1875
2394.77657	19249.6875
2397.58125	19239.0875
2400.38416	19169.3875
2403.18529	19139.1875
2405.98466	19143.2875
2408.78226	19085.2875
2411.57809	19121.7875
2414.37216	19073.9875
2417.16446	19034.4875
2419.955	19012.0875
2422.74378	19009.2875
2425.5308	18987.9875
2428.31606	18973.3875
2431.09956	19004.7875
2433.88131	18974.6875
2436.6613	18961.3875
2439.43954	18936.8875
2442.21603	18937.8875
2444.99077	18893.7875
2447.76377	18916.3875
2450.53501	18903.1875
2453.30451	18927.5875
2456.07226	18892.7875
2458.83827	18860.2875
2461.60254	18872.1875
2464.36507	18850.1875
2467.12586	18866.3875
2469.88492	18856.3875
2472.64224	18861.7875
2475.39782	18831.7875
2478.15167	18843.1875
2480.90379	18853.3875
2483.65417	18848.0875
2486.40283	18827.1875
2489.14976	18830.6875
2491.89497	18819.1875
2494.63845	18854.4875
2497.3802	18801.3875
2500.12024	18788.3875
2502.85855	18743.2875
2505.59514	18740.0875
2508.33002	18735.6875
2511.06318	18760.2875
2513.79462	18717.4875
2516.52435	18679.0875
2519.25237	18700.9875
2521.97867	18669.3875
2524.70327	18638.8875
2527.42616	18598.8875
2530.14734	18624.2875
2532.86681	18589.9875
2535.58458	18602.5875
2538.30065	18597.8875
2541.01501	18590.1875
2543.72768	18499.7875
2546.43864	18529.5875
2549.14791	18499.7875
2551.85548	18468.0875
2554.56136	18437.5875
2557.26554	18429.2875
2559.96803	18383.0875
2562.66883	18388.7875
2565.36794	18396.6875
2568.06536	18396.5875
2570.7611	18351.0875
2573.45514	18322.0875
2576.14751	18303.0875
2578.83819	18280.4875
2581.52719	18259.2875
2584.21451	18266.2875
2586.90015	18254.3875
2589.58411	18215.8875
2592.2664	18179.3875
2594.94701	18148.1875
2597.62594	18134.5875
2600.30321	18105.6875
2602.9788	18085.4875
2605.65273	18088.9875
2608.32498	18070.0875
2610.99557	18060.8875
2613.66449	18039.2875
2616.33175	18046.2875
2618.99734	18022.5875
2621.66128	17997.0875
2624.32355	17951.0875
2626.98416	17978.3875
2629.64311	17939.6875
2632.30041	17977.2875
2634.95605	17915.8875
2637.61004	17892.0875
2640.26238	17861.5875
2642.91306	17856.3875
2645.56209	17852.3875
2648.20948	17836.3875
2650.85521	17841.5875
2653.4993	17857.9875
2656.14175	17813.0875
2658.78255	17834.9875
2661.42171	17846.9875
2664.05923	17861.8875
2666.6951	17833.4875
2669.32934	17864.2875
2671.96194	17863.7875
2674.59291	17870.1875
2677.22224	17852.0875
2679.84993	17847.5875
2682.476	17859.3875
2685.10043	17855.3875
2687.72324	17801.9875
2690.34441	17796.5875
2692.96396	17796.6875
2695.58188	17824.4875
2698.19818	17803.3875
2700.81285	17819.8875
2703.4259	17800.9875
2706.03733	17870.0875
2708.64714	17858.2875
2711.25533	17869.6875
2713.86191	17862.0875
2716.46687	17848.1875
2719.07021	17893.3875
2721.67194	17883.5875
2724.27206	17852.2875
2726.87057	17867.0875
2729.46747	17845.0875
2732.06276	17848.8875
2734.65644	17846.9875
2737.24852	17839.7875
2739.83899	17810.4875
2742.42786	17841.0875
2745.01513	17810.0875
2747.60079	17801.7875
2750.18486	17764.6875
2752.76733	17778.3875
2755.3482	17783.5875
2757.92747	17762.8875
2760.50515	17746.6875
2763.08123	17722.7875
2765.65573	17686.5875
2768.22863	17719.3875
2770.79994	17671.6875
2773.36967	17672.3875
2775.9378	17663.7875
2778.50435	17635.2875
2781.06932	17630.8875
2783.6327	17595.0875
2786.1945	17610.9875
2788.75471	17542.3875
2791.31335	17514.6875
2793.87041	17509.2875
2796.42589	17435.6875
2798.97979	17454.6875
2801.53212	17397.0875
2804.08288	17373.3875
2806.63206	17304.6875
2809.17967	17307.5875
2811.72571	17285.7875
2814.27018	17292.9875
2816.81308	17238.0875
2819.35442	17232.4875
2821.89419	17201.9875
2824.43239	17216.5875
2826.96904	17170.6875
2829.50412	17188.6875
2832.03763	17087.5875
2834.56959	17125.4875
2837.1	17055.1875
2839.62884	17080.9875
2842.15613	17053.4875
2844.68186	17079.6875
2847.20604	17065.4875
2849.72867	17057.3875
2852.24974	17032.8875
2854.76927	17009.5875
2857.28724	16992.2875
2859.80367	16954.6875
2862.31855	16967.3875
2864.83189	16945.5875
2867.34368	16930.8875
2869.85393	16946.0875
2872.36264	16917.5875
2874.8698	16946.7875
2877.37543	16967.4875
2879.87952	16955.1875
2882.38207	16932.9875
2884.88308	16937.2875
2887.38256	16941.1875
2889.88051	16958.7875
2892.37692	16928.4875
2894.8718	16937.4875
2897.36515	16960.2875
2899.85698	16950.2875
2902.34727	16994.9875
2904.83604	17012.4875
2907.32328	17013.1875
2909.809	17004.4875
2912.29319	16973.4875
2914.77587	16987.2875
2917.25702	17010.8875
2919.73665	17000.8875
2922.21476	16978.5875
2924.69136	16967.5875
2927.16644	16993.6875
2929.64	16926.8875
2932.11205	16938.0875
2934.58258	16859.8875
2937.05161	16892.7875
2939.51912	16914.5875
2941.98513	16866.3875
2944.44962	16857.4875
2946.91261	16811.1875
2949.37409	16849.2875
2951.83407	16816.4875
2954.29254	16825.0875
2956.74951	16796.8875
2959.20498	16786.0875
2961.65895	16781.2875
2964.11142	16746.2875
2966.56239	16725.1875
2969.01186	16735.4875
2971.45984	16686.9875
2973.90632	16676.1875
2976.35131	16634.8875
2978.7948	16613.8875
2981.23681	16573.0875
2983.67732	16551.8875
2986.11635	16502.2875
2988.55388	16502.7875
2990.98993	16489.0875
2993.4245	16471.8875
2995.85758	16403.6875
2998.28917	16375.4875
3000.71928	16352.0875
3003.14791	16345.0875
3005.57506	16326.4875
3008.00073	16307.2875
3010.42493	16288.9875
3012.84764	16270.4875
3015.26888	16269.1875
3017.68865	16229.6875
3020.10694	16236.5875
3022.52376	16170.3875
3024.9391	16181.5875
3027.35298	16136.1875
3029.76539	16083.6875
3032.17632	16089.3875
3034.5858	16049.2875
3036.9938	16079.4875
3039.40034	16054.5875
3041.80542	16016.5875
3044.20903	15985.7875
3046.61118	15981.9875
3049.01187	15937.6875
3051.4111	15938.9875
3053.80888	15881.5875
3056.20519	15872.9875
3058.60005	15821.2875
3060.99345	15860.2875
3063.3854	15831.6875
3065.7759	15811.5875
3068.16494	15750.3875
3070.55254	15704.7875
3072.93868	15676.0875
3075.32338	15660.0875
3077.70662	15668.0875
3080.08842	15618.4875
3082.46878	15586.8875
3084.84769	15592.4875
3087.22515	15586.1875
3089.60118	15574.3875
3091.97576	15564.4875
3094.3489	15555.9875
3096.72061	15507.4875
3099.09087	15552.6875
3101.4597	15499.7875
3103.82709	15532.3875
3106.19305	15506.7875
3108.55757	15480.9875
3110.92066	15447.0875
3113.28232	15418.2875
3115.64255	15378.2875
3118.00134	15337.9875
3120.35871	15367.8875
3122.71466	15304.2875
3125.06917	15278.8875
3127.42226	15258.5875
3129.77393	15262.6875
3132.12417	15241.6875
3134.47299	15264.1875
3136.82039	15258.3875
3139.16636	15263.1875
3141.51092	15266.8875
3143.85406	15240.2875
3146.19579	15249.1875
3148.53609	15270.2875
3150.87499	15285.4875
3153.21246	15299.7875
3155.54853	15298.1875
3157.88318	15257.9875
3160.21642	15280.3875
3162.54826	15243.8875
3164.87868	15235.6875
3167.2077	15226.2875
3169.5353	15230.4875
3171.86151	15205.9875
3174.18631	15202.8875
3176.5097	15205.1875
3178.83169	15180.0875
3181.15228	15193.5875
3183.47147	15132.9875
3185.78926	15137.0875
3188.10565	15111.9875
3190.42065	15096.2875
3192.73424	15123.3875
3195.04645	15114.5875
3197.35725	15096.7875
3199.66667	15130.4875
3201.97469	15123.0875
3204.28132	15119.6875
3206.58656	15122.2875
3208.8904	15124.7875
3211.19287	15141.5875
3213.49394	15147.0875
3215.79363	15105.1875
3218.09193	15140.6875
3220.38884	15069.1875
3222.68438	15116.2875
3224.97853	15154.7875
3227.2713	15075.4875
3229.56269	15071.7875
3231.8527	15025.8875
3234.14133	15001.5875
3236.42858	14952.8875
3238.71446	14978.3875
3240.99896	14963.2875
3243.28209	14964.3875
3245.56384	14927.3875
3247.84423	14946.6875
3250.12324	14934.4875
3252.40088	14917.1875
3254.67715	14909.5875
3256.95205	14876.9875
3259.22558	14873.7875
3261.49775	14854.1875
3263.76855	14830.7875
3266.03799	14831.1875
3268.30606	14783.9875
3270.57277	14767.6875
3272.83812	14734.6875
3275.10211	14730.8875
3277.36474	14699.5875
3279.62601	14725.6875
3281.88593	14690.9875
3284.14448	14668.4875
3286.40168	14674.0875
3288.65753	14628.3875
3290.91202	14602.1875
3293.16516	14570.2875
3295.41695	14528.6875
3297.66738	14478.1875
3299.91647	14425.8875
3302.16421	14314.9875
3304.4106	14270.1875
3306.65564	14227.2875
3308.89933	14137.9875
3311.14169	14021.3875
3313.38269	13936.9875
3315.62236	13870.0875
3317.86068	13754.8875
3320.09766	13607.4875
3322.3333	13518.3875
3324.5676	13494.0875
3326.80056	13304.8875
3329.03219	13234.3875
3331.26248	4.9875
3333.49143	0.2875
3335.71905	-0.9125
