Data from AgNPs_FTO_APTES_UA_200uM_R6G_10uM_NaF_0.1M_Addition_RamanShift__9__16-10-47-502.txt Node

Date: Fri Dec 17 16:10:47 GMT 2021
User: TCL
Spectrometer: QEP01345
Trigger mode: 4
Integration Time (sec): 7.000000E0
Scans to average: 10
Electric dark correction enabled: true
Nonlinearity correction enabled: false
Boxcar width: 0
XAxis mode: Raman Shifts
Number of Pixels in Spectrum: 1044
>>>>>Begin Spectral Data<<<<<
46.04893	0.1
50.45542	0.3
54.85868	-1
59.25871	1.1
63.6555	53.8
68.04907	54.4
72.43941	57.4
76.82654	62.5
81.21044	67
85.59113	69.5
89.96862	72.5
94.34289	75.2
98.71396	80.7
103.08183	78.7
107.4465	83.1
111.80798	80.3
116.16626	82.3
120.52136	81.2
124.87327	86.3
129.222	86.6
133.56755	92.4
137.90993	94
142.24913	97.6
146.58517	102.5
150.91804	117.2
155.24774	130.8
159.57429	159.5
163.89768	194
168.21792	249.1
172.53501	323.8
176.84895	444.5
181.15975	605.5
185.46741	842.3
189.77193	1158.8
194.07331	1546.2
198.37157	1993
202.6667	2475.5
206.9587	2949.9
211.24758	3413.3
215.53334	3889.2
219.81599	4359.1
224.09553	4899.2
228.37195	5506.4
232.64527	6166.9
236.91549	6900.7
241.18261	7644.8
245.44663	8312.6
249.70755	8895.2
253.96539	9424.1
258.22014	9805.8
262.4718	10171.6
266.72039	10404.6
270.96589	10536.7
275.20832	10533.5
279.44768	10397.2
283.68397	10233.9
287.91719	10054.6
292.14735	9943.5
296.37445	9901.2
300.59849	9973.3
304.81948	10018.5
309.03742	10017.5
313.25231	9926.7
317.46415	9717.5
321.67296	9438.3
325.87872	9243.6
330.08145	9144.7
334.28114	9168.5
338.47781	9249.4
342.67145	9379.2
346.86207	9537.9
351.04966	9762.7
355.23424	9980.9
359.4158	10171.2
363.59435	10370.9
367.76989	10478.6
371.94243	10583.9
376.11196	10709.1
380.27849	10759.1
384.44203	10798.9
388.60257	10814.2
392.76012	10895.7
396.91468	10968.7
401.06626	11095.4
405.21485	11202
409.36047	11131
413.50311	10934.9
417.64277	10704.9
421.77947	10547.2
425.9132	10498.5
430.04396	10479
434.17176	10509
438.2966	10550.5
442.41849	10633.5
446.53742	10724
450.6534	10843.9
454.76644	10920.2
458.87653	10988.3
462.98368	11013.9
467.08789	11008.6
471.18916	10965.5
475.2875	10901.2
479.38291	10800.1
483.4754	10753.1
487.56496	10719.8
491.6516	10745
495.73531	10728.3
499.81612	10736.1
503.89401	10757.3
507.96899	10823.6
512.04106	10850.1
516.11023	10910.1
520.1765	10949.6
524.23987	10934.5
528.30034	10868
532.35792	10783.4
536.41261	10737.1
540.46441	10644.8
544.51333	10614.8
548.55936	10650.7
552.60252	10733.1
556.64279	10821.5
560.6802	10882.4
564.71473	10885.8
568.7464	10931.7
572.7752	11004.6
576.80114	10992.5
580.82422	10985.2
584.84444	11059.8
588.86181	11106.2
592.87633	11092
596.888	11060.5
600.89682	11167
604.9028	11645.6
608.90594	12906.9
612.90624	14521.8
616.90371	14238.2
620.89834	12151.2
624.89015	11095.8
628.87913	10967.5
632.86528	11097.7
636.84862	11301.4
640.82913	11279.8
644.80683	11011.2
648.78172	10777.1
652.75379	10678.9
656.72306	10734.5
660.68952	10880.1
664.65319	10844.2
668.61405	10649.9
672.57211	10519.9
676.52738	10544.9
680.47986	10492.1
684.42955	10510.6
688.37646	10450.8
692.32058	10444.4
696.26192	10476.4
700.20048	10537
704.13626	10556
708.06928	10573.5
711.99952	10528.6
715.927	10524.8
719.85171	10524.8
723.77365	10543.9
727.69284	10491.4
731.60928	10456.3
735.52295	10408.4
739.43388	10394.7
743.34206	10414.5
747.24749	10444.3
751.15017	10443.7
755.05012	10480.5
758.94733	10648
762.8418	11074.8
766.73354	11768.2
770.62254	12672.9
774.50882	13252.4
778.39237	12904.1
782.27321	11947.3
786.15132	11120.9
790.02671	10613.4
793.89938	10387.4
797.76935	10300
801.6366	10251.1
805.50115	10231.4
809.36299	10222.2
813.22213	10237.6
817.07857	10241.2
820.93231	10218.7
824.78336	10194.8
828.63172	10171.9
832.47738	10128
836.32036	10123.1
840.16066	10088.8
843.99827	10037.9
847.8332	10050
851.66546	10038.2
855.49504	10001.3
859.32195	9997.5
863.1462	10010.2
866.96777	10004.7
870.78668	10007
874.60293	9999.6
878.41652	10002.8
882.22745	10050.6
886.03573	10069.9
889.84136	10103.1
893.64433	10091.2
897.44466	10039.6
901.24235	9999.5
905.0374	9935.9
908.8298	9905.6
912.61957	9881.2
916.40671	9876.1
920.19121	9882.5
923.97308	9909.6
927.75233	9924.2
931.52895	9935.1
935.30295	9898
939.07433	9791.9
942.84309	9669.1
946.60924	9608.3
950.37278	9517.3
954.13371	9497.9
957.89203	9456.7
961.64774	9427.2
965.40086	9403.5
969.15137	9359.9
972.89929	9358.4
976.64461	9351.6
980.38733	9334.9
984.12747	9329.4
987.86502	9339.4
991.59999	9313.8
995.33237	9380
999.06217	9419.6
1002.78939	9467.7
1006.51404	9540.4
1010.23611	9610.5
1013.95561	9667.1
1017.67255	9693.3
1021.38692	9663.3
1025.09872	9598.3
1028.80796	9543.4
1032.51465	9509.9
1036.21877	9511.2
1039.92035	9531.6
1043.61937	9536.3
1047.31584	9570.8
1051.00976	9585.8
1054.70114	9615.8
1058.38998	9631.5
1062.07627	9661.4
1065.76003	9723.5
1069.44126	9818.3
1073.11995	9922.7
1076.79611	10027.7
1080.46974	10061.4
1084.14085	10039.9
1087.80943	10049
1091.47549	10051.6
1095.13903	10075.5
1098.80005	10002.6
1102.45857	9869.2
1106.11456	9783.8
1109.76805	9708
1113.41903	9778.6
1117.06751	9876.6
1120.71348	10044
1124.35696	10183.7
1127.99793	10363.7
1131.63641	10514.5
1135.2724	10424.5
1138.90589	10205.6
1142.5369	10018.3
1146.16542	9862.2
1149.79145	9744.6
1153.415	9655.3
1157.03607	9618.4
1160.65467	9658
1164.27079	9780.9
1167.88443	10003.5
1171.49561	10341.3
1175.10432	10889.3
1178.71056	11628.8
1182.31434	12318.2
1185.91565	12557.6
1189.51451	12454.9
1193.11091	12097.9
1196.70485	11630.7
1200.29634	11280.6
1203.88538	10972.5
1207.47197	10653.2
1211.05612	10285.2
1214.63782	10110.6
1218.21708	9939.7
1221.79391	9847.4
1225.36829	9779.4
1228.94024	9787.8
1232.50976	9811.1
1236.07685	9826.3
1239.6415	9830.3
1243.20374	9874.8
1246.76355	9946.8
1250.32093	9963.8
1253.8759	10045.1
1257.42845	10151.8
1260.97859	10305.8
1264.52631	10440.8
1268.07163	10588.7
1271.61453	10721.7
1275.15503	10807.2
1278.69312	10866.5
1282.22882	10903.6
1285.76211	10986.6
1289.29301	11117.6
1292.82151	11309.8
1296.34761	11496.6
1299.87133	11822.6
1303.39266	12300.9
1306.9116	12947.1
1310.42815	13622.4
1313.94233	14010.5
1317.45412	13839.8
1320.96354	13404.2
1324.47058	12954.1
1327.97525	12464.1
1331.47754	12085.6
1334.97747	11865.5
1338.47502	11777.9
1341.97022	11870
1345.46305	12112.9
1348.95352	12477.2
1352.44163	13065.1
1355.92738	13825.9
1359.41078	14941.8
1362.89183	16180.7
1366.37053	16345.9
1369.84688	14862.8
1373.32088	13060
1376.79254	11814.2
1380.26186	11119.8
1383.72883	10734.9
1387.19347	10486.8
1390.65578	10200.9
1394.11575	9961.4
1397.57339	9763.8
1401.0287	9618.4
1404.48168	9512.1
1407.93234	9484.8
1411.38068	9453.4
1414.82669	9440.2
1418.27039	9393.9
1421.71177	9339.9
1425.15083	9253.3
1428.58758	9176.2
1432.02203	9146.8
1435.45416	9162.3
1438.88399	9196.1
1442.31151	9186.4
1445.73673	9207
1449.15965	9222.3
1452.58027	9241.5
1455.9986	9246.4
1459.41463	9249
1462.82837	9348.3
1466.23982	9466.4
1469.64898	9604.7
1473.05586	9777.8
1476.46045	9847.1
1479.86276	9972.6
1483.26279	10113
1486.66054	10258.7
1490.05602	10415.5
1493.44922	10740.1
1496.84016	11275.3
1500.22882	12081.4
1503.61521	13209.5
1506.99934	14433.2
1510.38121	15464.6
1513.76081	15708.4
1517.13816	14984.9
1520.51324	13733.2
1523.88607	12465.9
1527.25665	11587.4
1530.62498	11041.5
1533.99105	10712
1537.35488	10531.2
1540.71647	10338.7
1544.07581	10265.5
1547.4329	10246.5
1550.78776	10204.5
1554.14038	10217.5
1557.49077	10253.4
1560.83892	10373
1564.18484	10488.4
1567.52853	10664.1
1570.86999	10839.3
1574.20922	11011.5
1577.54624	11022.4
1580.88103	10760.7
1584.2136	10333.9
1587.54395	9966
1590.87208	9825.2
1594.19801	9914.3
1597.52172	10129.1
1600.84321	10318.7
1604.16251	10225.3
1607.47959	9986.2
1610.79447	9770.2
1614.10715	9488.1
1617.41763	9162.3
1620.7259	8915.4
1624.03199	8788
1627.33587	8710.8
1630.63757	8725.9
1633.93707	8828.2
1637.23439	9028.2
1640.52951	9444.7
1643.82246	10025.8
1647.11321	10839.1
1650.40179	11548
1653.68819	11688.2
1656.97241	11030.7
1660.25446	10078
1663.53433	9291.6
1666.81203	8774.2
1670.08756	8424.4
1673.36092	8223.7
1676.63211	8079.4
1679.90115	7986.6
1683.16801	7894
1686.43272	7828.4
1689.69527	7784.6
1692.95567	7771.5
1696.2139	7752.2
1699.46999	7735.9
1702.72392	7717.1
1705.97571	7695.9
1709.22535	7646.6
1712.47284	7600.6
1715.71819	7570.5
1718.96139	7521.2
1722.20246	7458.3
1725.44139	7382
1728.67818	7328.9
1731.91284	7306.9
1735.14537	7256.5
1738.37576	7236
1741.60403	7195.1
1744.83017	7169.1
1748.05418	7160.8
1751.27607	7125.6
1754.49584	7125.5
1757.71349	7102
1760.92903	7088.9
1764.14244	7084.1
1767.35375	7062.4
1770.56294	7072.4
1773.77002	7045.1
1776.97499	7031.6
1780.17785	7022.7
1783.37861	7003.7
1786.57727	6992.4
1789.77382	6967.7
1792.96828	6933.7
1796.16064	6929.5
1799.3509	6928.2
1802.53907	6900.7
1805.72514	6859.1
1808.90913	6841
1812.09102	6843.9
1815.27083	6808.8
1818.44856	6790.7
1821.6242	6763
1824.79776	6769.1
1827.96924	6750.5
1831.13864	6742.7
1834.30597	6728.7
1837.47122	6733.8
1840.6344	6704.5
1843.7955	6721.3
1846.95454	6695.7
1850.11151	6673.1
1853.26642	6662.1
1856.41926	6674.9
1859.57004	6646.7
1862.71876	6654.8
1865.86542	6643.5
1869.01003	6628.3
1872.15258	6614.5
1875.29308	6597.9
1878.43152	6598.2
1881.56792	6588.4
1884.70227	6572.6
1887.83457	6569.6
1890.96482	6557.6
1894.09304	6541.7
1897.21921	6520.6
1900.34335	6512.3
1903.46544	6507.2
1906.58551	6493.8
1909.70353	6479.4
1912.81953	6485.4
1915.93349	6446
1919.04543	6441.1
1922.15534	6422
1925.26322	6420.4
1928.36908	6420
1931.47292	6388.5
1934.57473	6362.8
1937.67453	6349.5
1940.77232	6338.2
1943.86808	6318.4
1946.96184	6292.5
1950.05358	6300.8
1953.14331	6273.8
1956.23103	6250.2
1959.31675	6224.5
1962.40046	6205.6
1965.48217	6191.1
1968.56188	6163.7
1971.63959	6117.9
1974.7153	6124.9
1977.78901	6094.6
1980.86073	6065.5
1983.93046	6069.8
1986.99819	6039.4
1990.06394	5998.3
1993.1277	5991.2
1996.18947	5969.1
1999.24925	5962.9
2002.30706	5933.4
2005.36288	5905.4
2008.41672	5899
2011.46859	5877.8
2014.51848	5853.8
2017.56639	5832.3
2020.61233	5804.1
2023.6563	5797.7
2026.6983	5799.7
2029.73833	5778.9
2032.7764	5738.3
2035.8125	5719.8
2038.84664	5722.1
2041.87881	5710
2044.90903	5691.7
2047.93729	5667.9
2050.96359	5670
2053.98794	5640.9
2057.01034	5643.6
2060.03078	5631.3
2063.04927	5620.3
2066.06582	5623.7
2069.08042	5613.4
2072.09307	5600.8
2075.10378	5606.4
2078.11255	5592
2081.11938	5587.2
2084.12426	5597.1
2087.12722	5571.6
2090.12824	5579.4
2093.12732	5581.5
2096.12447	5595.5
2099.11969	5571.2
2102.11299	5576.2
2105.10435	5564.9
2108.09379	5571.6
2111.08131	5568.3
2114.0669	5583.7
2117.05057	5579.2
2120.03233	5569.1
2123.01216	5584.8
2125.99008	5579.8
2128.96609	5580
2131.94018	5604.4
2134.91236	5611.3
2137.88263	5586.6
2140.851	5588.1
2143.81746	5595.6
2146.78201	5584.6
2149.74466	5586.3
2152.7054	5583.8
2155.66425	5570.9
2158.6212	5566.1
2161.57625	5567.8
2164.52941	5555.2
2167.48067	5544.7
2170.43004	5541.9
2173.37752	5555.4
2176.32311	5525.9
2179.26681	5528
2182.20863	5523.5
2185.14856	5527
2188.08661	5523.9
2191.02278	5505.7
2193.95707	5516.2
2196.88948	5504.1
2199.82001	5502.1
2202.74867	5481.2
2205.67545	5472.9
2208.60037	5468
2211.52341	5453.4
2214.44458	5433.9
2217.36388	5425.6
2220.28132	5403.5
2223.1969	5396
2226.11061	5368.4
2229.02246	5369.9
2231.93245	5359.5
2234.84058	5328.4
2237.74686	5346.8
2240.65128	5332.1
2243.55385	5330.5
2246.45456	5307.2
2249.35343	5311.7
2252.25044	5307.5
2255.14561	5282.2
2258.03893	5284.2
2260.93041	5282.8
2263.82004	5255.7
2266.70783	5230.5
2269.59378	5236.8
2272.4779	5231
2275.36017	5198.3
2278.24061	5201.2
2281.11922	5189.8
2283.996	5165
2286.87094	5177.6
2289.74405	5147.9
2292.61534	5137.6
2295.4848	5124.7
2298.35243	5114.6
2301.21824	5090.3
2304.08223	5090.1
2306.94439	5092.9
2309.80474	5088.6
2312.66327	5074
2315.51999	5072.9
2318.37489	5074.6
2321.22797	5065.3
2324.07925	5052.9
2326.92871	5039.7
2329.77637	5026.5
2332.62222	5017.2
2335.46626	5003.6
2338.3085	4983
2341.14893	4992.9
2343.98756	4978.7
2346.8244	4972.8
2349.65943	4966
2352.49267	4965.9
2355.32411	4952.9
2358.15376	4964.6
2360.98161	4972
2363.80768	4958.7
2366.63195	4944.8
2369.45444	4944.8
2372.27514	4942.8
2375.09405	4946.7
2377.91118	4926.5
2380.72652	4904.3
2383.54009	4893.7
2386.35187	4890.4
2389.16188	4868.7
2391.97011	4848.4
2394.77657	4838.2
2397.58125	4827.8
2400.38416	4796.7
2403.18529	4806.1
2405.98466	4813.6
2408.78226	4774
2411.57809	4780.7
2414.37216	4772.3
2417.16446	4768.8
2419.955	4747.6
2422.74378	4744.7
2425.5308	4758.1
2428.31606	4744.3
2431.09956	4743.2
2433.88131	4715.4
2436.6613	4731.6
2439.43954	4716.3
2442.21603	4700.5
2444.99077	4704
2447.76377	4705.5
2450.53501	4719.3
2453.30451	4700.8
2456.07226	4688.8
2458.83827	4683.8
2461.60254	4672.4
2464.36507	4664.5
2467.12586	4659.5
2469.88492	4656.4
2472.64224	4648.1
2475.39782	4650.4
2478.15167	4638.9
2480.90379	4635.8
2483.65417	4633.9
2486.40283	4639
2489.14976	4612.3
2491.89497	4619.8
2494.63845	4634.3
2497.3802	4619
2500.12024	4596
2502.85855	4592.1
2505.59514	4593.4
2508.33002	4574.8
2511.06318	4566.6
2513.79462	4561.6
2516.52435	4536.9
2519.25237	4529.3
2521.97867	4514.7
2524.70327	4501.8
2527.42616	4501.8
2530.14734	4489.3
2532.86681	4482.4
2535.58458	4456.5
2538.30065	4457.7
2541.01501	4475.4
2543.72768	4452.1
2546.43864	4456.1
2549.14791	4421.5
2551.85548	4426.4
2554.56136	4414.1
2557.26554	4415.7
2559.96803	4405.8
2562.66883	4397.5
2565.36794	4383.9
2568.06536	4379
2570.7611	4385.4
2573.45514	4361.6
2576.14751	4341.4
2578.83819	4339.2
2581.52719	4316.5
2584.21451	4327.2
2586.90015	4323
2589.58411	4308.6
2592.2664	4294.6
2594.94701	4275.8
2597.62594	4274.4
2600.30321	4258.1
2602.9788	4257.4
2605.65273	4230.2
2608.32498	4216.7
2610.99557	4234.1
2613.66449	4227
2616.33175	4225
2618.99734	4210.5
2621.66128	4197.2
2624.32355	4188.2
2626.98416	4190.2
2629.64311	4174.1
2632.30041	4176.7
2634.95605	4178.7
2637.61004	4161.9
2640.26238	4156.3
2642.91306	4147
2645.56209	4140.9
2648.20948	4124.1
2650.85521	4137.2
2653.4993	4123.4
2656.14175	4111.3
2658.78255	4113.9
2661.42171	4128.4
2664.05923	4117.6
2666.6951	4115.5
2669.32934	4116.2
2671.96194	4110.6
2674.59291	4108.8
2677.22224	4101.4
2679.84993	4098.5
2682.476	4090
2685.10043	4098.8
2687.72324	4087.6
2690.34441	4094.7
2692.96396	4090.7
2695.58188	4087.6
2698.19818	4090.2
2700.81285	4086.9
2703.4259	4088.8
2706.03733	4088.3
2708.64714	4074.2
2711.25533	4082.3
2713.86191	4084.4
2716.46687	4091.1
2719.07021	4074.4
2721.67194	4068.7
2724.27206	4078
2726.87057	4067.7
2729.46747	4081.7
2732.06276	4047.7
2734.65644	4043.8
2737.24852	4040
2739.83899	4050.1
2742.42786	4025.9
2745.01513	4025
2747.60079	4024.1
2750.18486	4029.8
2752.76733	4026
2755.3482	4006.7
2757.92747	3998.4
2760.50515	4005.6
2763.08123	3983.4
2765.65573	3987.7
2768.22863	3970.6
2770.79994	3960.8
2773.36967	3953.6
2775.9378	3959.1
2778.50435	3942.7
2781.06932	3942
2783.6327	3940.2
2786.1945	3932.3
2788.75471	3918.7
2791.31335	3916.5
2793.87041	3899
2796.42589	3889.2
2798.97979	3889.4
2801.53212	3872.8
2804.08288	3890.2
2806.63206	3844.1
2809.17967	3847.5
2811.72571	3844.7
2814.27018	3845
2816.81308	3834.6
2819.35442	3827
2821.89419	3822.7
2824.43239	3824.1
2826.96904	3827.3
2829.50412	3812.1
2832.03763	3800.7
2834.56959	3809.7
2837.1	3813
2839.62884	3793.9
2842.15613	3807.5
2844.68186	3810
2847.20604	3806
2849.72867	3807.8
2852.24974	3804.2
2854.76927	3804.3
2857.28724	3780.9
2859.80367	3789
2862.31855	3789.4
2864.83189	3784.8
2867.34368	3783.3
2869.85393	3770.5
2872.36264	3784.3
2874.8698	3786.8
2877.37543	3790
2879.87952	3778.5
2882.38207	3765.8
2884.88308	3780.7
2887.38256	3772.5
2889.88051	3753.6
2892.37692	3773.5
2894.8718	3750.8
2897.36515	3752.4
2899.85698	3751.6
2902.34727	3759
2904.83604	3764.6
2907.32328	3749.7
2909.809	3756.8
2912.29319	3765.8
2914.77587	3758.1
2917.25702	3774.2
2919.73665	3753
2922.21476	3750.2
2924.69136	3754.6
2927.16644	3760.2
2929.64	3750.3
2932.11205	3728.5
2934.58258	3728.9
2937.05161	3730
2939.51912	3727.4
2941.98513	3726.2
2944.44962	3718
2946.91261	3698.7
2949.37409	3694.2
2951.83407	3690.4
2954.29254	3695
2956.74951	3680.3
2959.20498	3680.4
2961.65895	3675.1
2964.11142	3672
2966.56239	3664.8
2969.01186	3665.5
2971.45984	3649.3
2973.90632	3656.8
2976.35131	3648.2
2978.7948	3632.4
2981.23681	3623.8
2983.67732	3625
2986.11635	3611.7
2988.55388	3602
2990.98993	3602.5
2993.4245	3590.1
2995.85758	3564.7
2998.28917	3568.9
3000.71928	3579.9
3003.14791	3566.9
3005.57506	3568.3
3008.00073	3574.4
3010.42493	3556.9
3012.84764	3566.3
3015.26888	3552.3
3017.68865	3543.4
3020.10694	3556.3
3022.52376	3528.7
3024.9391	3530.9
3027.35298	3528.1
3029.76539	3524
3032.17632	3509.4
3034.5858	3523.5
3036.9938	3513.6
3039.40034	3496.3
3041.80542	3513.2
3044.20903	3493.2
3046.61118	3488
3049.01187	3504.2
3051.4111	3485.9
3053.80888	3487.3
3056.20519	3494.2
3058.60005	3481.2
3060.99345	3483.3
3063.3854	3471.5
3065.7759	3463.6
3068.16494	3470.3
3070.55254	3466.4
3072.93868	3465.4
3075.32338	3448.1
3077.70662	3454.4
3080.08842	3458.4
3082.46878	3445.6
3084.84769	3454.2
3087.22515	3460
3089.60118	3448.5
3091.97576	3460.9
3094.3489	3464.2
3096.72061	3469.6
3099.09087	3482
3101.4597	3478.8
3103.82709	3471
3106.19305	3467.7
3108.55757	3481
3110.92066	3459
3113.28232	3464
3115.64255	3457.6
3118.00134	3459.4
3120.35871	3466.6
3122.71466	3451.7
3125.06917	3449.2
3127.42226	3466.1
3129.77393	3454.2
3132.12417	3460.1
3134.47299	3479.1
3136.82039	3462.1
3139.16636	3485.2
3141.51092	3484.5
3143.85406	3481.9
3146.19579	3483.5
3148.53609	3494.6
3150.87499	3516.3
3153.21246	3506.9
3155.54853	3531.7
3157.88318	3525.2
3160.21642	3535.5
3162.54826	3532.9
3164.87868	3546.3
3167.2077	3550.3
3169.5353	3538
3171.86151	3545.7
3174.18631	3550.8
3176.5097	3547.1
3178.83169	3534.8
3181.15228	3563.6
3183.47147	3551.1
3185.78926	3547.6
3188.10565	3548.4
3190.42065	3556.2
3192.73424	3560.9
3195.04645	3558.8
3197.35725	3552.7
3199.66667	3556.9
3201.97469	3576.1
3204.28132	3580.9
3206.58656	3588.1
3208.8904	3579.5
3211.19287	3584.7
3213.49394	3602.1
3215.79363	3598.3
3218.09193	3609.5
3220.38884	3591.7
3222.68438	3586.3
3224.97853	3584.3
3227.2713	3584.8
3229.56269	3586.1
3231.8527	3585.9
3234.14133	3595
3236.42858	3578.4
3238.71446	3577.8
3240.99896	3575.9
3243.28209	3577.6
3245.56384	3577.2
3247.84423	3572
3250.12324	3578.7
3252.40088	3576.2
3254.67715	3579.4
3256.95205	3555.9
3259.22558	3556.2
3261.49775	3561.5
3263.76855	3556.8
3266.03799	3547.6
3268.30606	3544.7
3270.57277	3548.3
3272.83812	3527.5
3275.10211	3538.4
3277.36474	3519.9
3279.62601	3519
3281.88593	3513.8
3284.14448	3525.2
3286.40168	3518.2
3288.65753	3508.9
3290.91202	3508.3
3293.16516	3496.7
3295.41695	3481.4
3297.66738	3464
3299.91647	3448.6
3302.16421	3412.9
3304.4106	3408.4
3306.65564	3416.7
3308.89933	3387.9
3311.14169	3359.1
3313.38269	3340.8
3315.62236	3331.5
3317.86068	3312.8
3320.09766	3258.9
3322.3333	3244.5
3324.5676	3263
3326.80056	3180
3329.03219	3178.4
3331.26248	0.8
3333.49143	0.7
3335.71905	-0.8
