Data from AgNPs_FTO_APTES_UA_0uM_R6G_10uM_NaF_0.1M_Addition_RamanShift__27__10-26-37-108.txt Node

Date: Fri Dec 17 10:26:37 GMT 2021
User: TCL
Spectrometer: QEP01345
Trigger mode: 4
Integration Time (sec): 7.000000E0
Scans to average: 10
Electric dark correction enabled: true
Nonlinearity correction enabled: false
Boxcar width: 0
XAxis mode: Raman Shifts
Number of Pixels in Spectrum: 1044
>>>>>Begin Spectral Data<<<<<
46.04893	-1.2125
50.45542	0.2875
54.85868	-0.0125
59.25871	1.5875
63.6555	75.7875
68.04907	74.9875
72.43941	76.2875
76.82654	85.2875
81.21044	86.9875
85.59113	88.4875
89.96862	94.4875
94.34289	96.5875
98.71396	97.7875
103.08183	98.2875
107.4465	103.5875
111.80798	103.3875
116.16626	111.5875
120.52136	105.7875
124.87327	116.5875
129.222	121.2875
133.56755	126.5875
137.90993	136.9875
142.24913	149.4875
146.58517	166.4875
150.91804	186.7875
155.24774	221.8875
159.57429	272.0875
163.89768	344.9875
168.21792	455.9875
172.53501	609.1875
176.84895	846.9875
181.15975	1186.5875
185.46741	1660.2875
189.77193	2263.1875
194.07331	3039.2875
198.37157	3919.3875
202.6667	4835.2875
206.9587	5759.1875
211.24758	6651.1875
215.53334	7547.8875
219.81599	8519.0875
224.09553	9583.9875
228.37195	10781.9875
232.64527	12075.8875
236.91549	13422.7875
241.18261	14771.3875
245.44663	15971.1875
249.70755	17052.4875
253.96539	17900.9875
258.22014	18739.8875
262.4718	19391.6875
266.72039	19845.6875
270.96589	20032.7875
275.20832	19953.3875
279.44768	19746.0875
283.68397	19438.3875
287.91719	19165.4875
292.14735	18996.9875
296.37445	18931.6875
300.59849	19125.7875
304.81948	19346.7875
309.03742	19524.5875
313.25231	19620.9875
317.46415	19529.1875
321.67296	19317.6875
325.87872	19104.5875
330.08145	19050.2875
334.28114	19079.5875
338.47781	19213.4875
342.67145	19528.0875
346.86207	19857.8875
351.04966	20246.5875
355.23424	20672.7875
359.4158	21002.6875
363.59435	21222.9875
367.76989	21382.5875
371.94243	21477.1875
376.11196	21585.3875
380.27849	21683.1875
384.44203	21744.7875
388.60257	21873.0875
392.76012	21985.4875
396.91468	22143.4875
401.06626	22373.9875
405.21485	22640.4875
409.36047	22636.2875
413.50311	22394.2875
417.64277	22351.3875
421.77947	22354.1875
425.9132	22455.0875
430.04396	22586.8875
434.17176	22744.1875
438.2966	23090.9875
442.41849	23727.8875
446.53742	24673.6875
450.6534	25674.6875
454.76644	26162.1875
458.87653	26020.3875
462.98368	25462.5875
467.08789	24740.2875
471.18916	24087.9875
475.2875	23363.1875
479.38291	22739.6875
483.4754	22355.6875
487.56496	22225.2875
491.6516	22155.5875
495.73531	22192.5875
499.81612	22337.6875
503.89401	22542.2875
507.96899	22595.1875
512.04106	22542.6875
516.11023	22526.1875
520.1765	22545.0875
524.23987	22645.9875
528.30034	22740.7875
532.35792	22724.7875
536.41261	22440.7875
540.46441	22055.8875
544.51333	21862.8875
548.55936	21943.0875
552.60252	22290.3875
556.64279	22883.4875
560.6802	23281.0875
564.71473	23288.7875
568.7464	23209.4875
572.7752	23380.4875
576.80114	23604.0875
580.82422	24178.4875
584.84444	25214.6875
588.86181	26931.8875
592.87633	29017.3875
596.888	29903.3875
600.89682	28554.7875
604.9028	27565.5875
608.90594	29131.2875
612.90624	31454.2875
616.90371	30174.9875
620.89834	25893.2875
624.89015	23774.6875
628.87913	23348.6875
632.86528	23186.5875
636.84862	22902.2875
640.82913	22467.3875
644.80683	22012.6875
648.78172	21737.3875
652.75379	21875.9875
656.72306	22236.1875
660.68952	22681.9875
664.65319	22587.7875
668.61405	22242.5875
672.57211	22212.7875
676.52738	22357.5875
680.47986	22318.5875
684.42955	22061.9875
688.37646	21988.5875
692.32058	22199.6875
696.26192	22597.5875
700.20048	22961.4875
704.13626	23171.5875
708.06928	22953.6875
711.99952	22760.2875
715.927	22796.2875
719.85171	22952.6875
723.77365	22942.6875
727.69284	22677.4875
731.60928	22378.4875
735.52295	22403.5875
739.43388	22444.1875
743.34206	22611.1875
747.24749	22679.2875
751.15017	22796.5875
755.05012	23050.2875
758.94733	23517.4875
762.8418	24353.1875
766.73354	25841.8875
770.62254	27377.3875
774.50882	27898.8875
778.39237	27131.9875
782.27321	25715.8875
786.15132	24350.7875
790.02671	23499.0875
793.89938	23066.5875
797.76935	22960.2875
801.6366	22871.2875
805.50115	22815.0875
809.36299	22720.3875
813.22213	22553.0875
817.07857	22470.8875
820.93231	22372.8875
824.78336	22366.7875
828.63172	22420.0875
832.47738	22463.2875
836.32036	22533.8875
840.16066	22675.4875
843.99827	22741.0875
847.8332	22681.3875
851.66546	22625.3875
855.49504	22604.3875
859.32195	22645.6875
863.1462	22549.5875
866.96777	22458.0875
870.78668	22426.8875
874.60293	22451.1875
878.41652	22547.9875
882.22745	22646.9875
886.03573	22753.4875
889.84136	22745.8875
893.64433	22645.3875
897.44466	22535.4875
901.24235	22407.0875
905.0374	22382.9875
908.8298	22355.5875
912.61957	22395.6875
916.40671	22500.8875
920.19121	22732.9875
923.97308	23034.6875
927.75233	23230.3875
931.52895	23288.4875
935.30295	23096.1875
939.07433	22714.8875
942.84309	22487.9875
946.60924	22411.3875
950.37278	22328.4875
954.13371	22278.2875
957.89203	22099.0875
961.64774	22117.0875
965.40086	22098.6875
969.15137	22036.5875
972.89929	22072.2875
976.64461	22131.2875
980.38733	22252.4875
984.12747	22361.9875
987.86502	22574.4875
991.59999	22831.0875
995.33237	23184.8875
999.06217	23774.5875
1002.78939	24498.4875
1006.51404	24967.8875
1010.23611	25218.9875
1013.95561	25442.8875
1017.67255	25507.2875
1021.38692	25237.0875
1025.09872	24894.9875
1028.80796	24970.2875
1032.51465	25687.1875
1036.21877	26322.8875
1039.92035	26475.6875
1043.61937	26119.6875
1047.31584	25494.3875
1051.00976	24880.2875
1054.70114	24467.3875
1058.38998	24281.0875
1062.07627	24191.2875
1065.76003	24179.1875
1069.44126	24269.1875
1073.11995	24498.3875
1076.79611	24885.5875
1080.46974	25096.8875
1084.14085	25343.8875
1087.80943	25614.0875
1091.47549	25692.6875
1095.13903	25478.2875
1098.80005	25095.0875
1102.45857	24703.9875
1106.11456	24504.3875
1109.76805	24543.7875
1113.41903	24608.9875
1117.06751	24774.8875
1120.71348	24947.1875
1124.35696	25124.6875
1127.99793	25340.8875
1131.63641	25371.8875
1135.2724	25185.3875
1138.90589	24915.1875
1142.5369	24802.5875
1146.16542	24797.5875
1149.79145	24817.9875
1153.415	24873.0875
1157.03607	24950.2875
1160.65467	25334.0875
1164.27079	26140.2875
1167.88443	27274.4875
1171.49561	28745.5875
1175.10432	30797.5875
1178.71056	33445.8875
1182.31434	35932.0875
1185.91565	36849.3875
1189.51451	36062.8875
1193.11091	34478.6875
1196.70485	32847.6875
1200.29634	31572.8875
1203.88538	30542.0875
1207.47197	29825.3875
1211.05612	29207.3875
1214.63782	28742.5875
1218.21708	28630.2875
1221.79391	28786.8875
1225.36829	29080.3875
1228.94024	28937.0875
1232.50976	28319.6875
1236.07685	27522.4875
1239.6415	27018.1875
1243.20374	26912.8875
1246.76355	27106.4875
1250.32093	27525.3875
1253.8759	28086.3875
1257.42845	28769.8875
1260.97859	29593.7875
1264.52631	30423.7875
1268.07163	31255.4875
1271.61453	32119.2875
1275.15503	32963.0875
1278.69312	33777.5875
1282.22882	34464.2875
1285.76211	35232.3875
1289.29301	36122.0875
1292.82151	37315.7875
1296.34761	38790.3875
1299.87133	40838.8875
1303.39266	43556.0875
1306.9116	46491.9875
1310.42815	49466.1875
1313.94233	51208.2875
1317.45412	50709.8875
1320.96354	48389.0875
1324.47058	45590.9875
1327.97525	43172.3875
1331.47754	41503.9875
1334.97747	40582.0875
1338.47502	39996.6875
1341.97022	39256.6875
1345.46305	38664.9875
1348.95352	38867.9875
1352.44163	40488.1875
1355.92738	43497.4875
1359.41078	47348.6875
1362.89183	50210.0875
1366.37053	49880.7875
1369.84688	45552.3875
1373.32088	39795.7875
1376.79254	35790.4875
1380.26186	34269.5875
1383.72883	34059.7875
1387.19347	33819.3875
1390.65578	33076.8875
1394.11575	32575.3875
1397.57339	32640.8875
1401.0287	32909.9875
1404.48168	33331.0875
1407.93234	33457.1875
1411.38068	33404.5875
1414.82669	33172.0875
1418.27039	32630.2875
1421.71177	31906.3875
1425.15083	31167.6875
1428.58758	30936.0875
1432.02203	31345.0875
1435.45416	32145.4875
1438.88399	32893.1875
1442.31151	33218.9875
1445.73673	33246.0875
1449.15965	33060.5875
1452.58027	32612.5875
1455.9986	32053.1875
1459.41463	31801.2875
1462.82837	32139.0875
1466.23982	32957.0875
1469.64898	33813.4875
1473.05586	34503.3875
1476.46045	35001.0875
1479.86276	35243.1875
1483.26279	35303.7875
1486.66054	35321.0875
1490.05602	35589.5875
1493.44922	35891.4875
1496.84016	35903.0875
1500.22882	35945.3875
1503.61521	36427.1875
1506.99934	37325.9875
1510.38121	38302.1875
1513.76081	38708.6875
1517.13816	37935.0875
1520.51324	36289.4875
1523.88607	34757.1875
1527.25665	33925.3875
1530.62498	33686.8875
1533.99105	33566.5875
1537.35488	33313.4875
1540.71647	32859.7875
1544.07581	32392.2875
1547.4329	31907.0875
1550.78776	31442.8875
1554.14038	30955.8875
1557.49077	30621.9875
1560.83892	30375.3875
1564.18484	30375.5875
1567.52853	30535.4875
1570.86999	30849.3875
1574.20922	31193.3875
1577.54624	31369.0875
1580.88103	31274.6875
1584.2136	31201.6875
1587.54395	32032.5875
1590.87208	33895.6875
1594.19801	36580.7875
1597.52172	39421.1875
1600.84321	40961.8875
1604.16251	39740.8875
1607.47959	36551.5875
1610.79447	32907.8875
1614.10715	29794.1875
1617.41763	27687.2875
1620.7259	26578.1875
1624.03199	26176.6875
1627.33587	26355.4875
1630.63757	27081.2875
1633.93707	28356.7875
1637.23439	30630.7875
1640.52951	34066.9875
1643.82246	38539.2875
1647.11321	42286.5875
1650.40179	42697.5875
1653.68819	39216.0875
1656.97241	33870.0875
1660.25446	29266.1875
1663.53433	26382.3875
1666.81203	24727.0875
1670.08756	23779.7875
1673.36092	23194.7875
1676.63211	22783.0875
1679.90115	22509.8875
1683.16801	22266.1875
1686.43272	22161.1875
1689.69527	22002.4875
1692.95567	21933.1875
1696.2139	21889.2875
1699.46999	21868.7875
1702.72392	21826.5875
1705.97571	21832.3875
1709.22535	21813.0875
1712.47284	21798.3875
1715.71819	21853.1875
1718.96139	21797.6875
1722.20246	21778.8875
1725.44139	21711.5875
1728.67818	21595.8875
1731.91284	21482.2875
1735.14537	21401.4875
1738.37576	21367.1875
1741.60403	21317.2875
1744.83017	21270.2875
1748.05418	21257.4875
1751.27607	21199.2875
1754.49584	21176.0875
1757.71349	21158.8875
1760.92903	21158.3875
1764.14244	21137.8875
1767.35375	21111.4875
1770.56294	21109.8875
1773.77002	21093.2875
1776.97499	21041.6875
1780.17785	21059.3875
1783.37861	21037.9875
1786.57727	21038.3875
1789.77382	21010.6875
1792.96828	20996.0875
1796.16064	20922.4875
1799.3509	20933.0875
1802.53907	20924.1875
1805.72514	20839.1875
1808.90913	20827.5875
1812.09102	20741.8875
1815.27083	20719.9875
1818.44856	20722.6875
1821.6242	20692.3875
1824.79776	20671.8875
1827.96924	20660.4875
1831.13864	20634.7875
1834.30597	20637.9875
1837.47122	20647.3875
1840.6344	20620.5875
1843.7955	20660.5875
1846.95454	20635.5875
1850.11151	20605.8875
1853.26642	20627.4875
1856.41926	20625.7875
1859.57004	20579.8875
1862.71876	20559.9875
1865.86542	20572.6875
1869.01003	20575.6875
1872.15258	20555.4875
1875.29308	20600.6875
1878.43152	20575.6875
1881.56792	20528.0875
1884.70227	20527.1875
1887.83457	20535.9875
1890.96482	20536.3875
1894.09304	20476.6875
1897.21921	20503.3875
1900.34335	20491.6875
1903.46544	20465.3875
1906.58551	20494.1875
1909.70353	20482.7875
1912.81953	20489.0875
1915.93349	20397.8875
1919.04543	20405.1875
1922.15534	20371.4875
1925.26322	20323.2875
1928.36908	20304.5875
1931.47292	20229.9875
1934.57473	20199.6875
1937.67453	20153.6875
1940.77232	20125.1875
1943.86808	20069.9875
1946.96184	20055.9875
1950.05358	20031.2875
1953.14331	19934.2875
1956.23103	19914.8875
1959.31675	19876.2875
1962.40046	19797.3875
1965.48217	19796.5875
1968.56188	19731.2875
1971.63959	19687.6875
1974.7153	19664.0875
1977.78901	19565.6875
1980.86073	19493.7875
1983.93046	19458.2875
1986.99819	19372.0875
1990.06394	19341.5875
1993.1277	19315.4875
1996.18947	19247.5875
1999.24925	19260.5875
2002.30706	19166.1875
2005.36288	19112.8875
2008.41672	19046.1875
2011.46859	18986.8875
2014.51848	18988.5875
2017.56639	18952.5875
2020.61233	18910.7875
2023.6563	18880.0875
2026.6983	18844.4875
2029.73833	18802.6875
2032.7764	18791.6875
2035.8125	18784.3875
2038.84664	18738.4875
2041.87881	18767.7875
2044.90903	18731.7875
2047.93729	18688.7875
2050.96359	18667.3875
2053.98794	18630.0875
2057.01034	18631.4875
2060.03078	18625.0875
2063.04927	18570.9875
2066.06582	18600.7875
2069.08042	18591.3875
2072.09307	18578.4875
2075.10378	18520.6875
2078.11255	18551.2875
2081.11938	18561.3875
2084.12426	18567.3875
2087.12722	18525.4875
2090.12824	18550.9875
2093.12732	18574.5875
2096.12447	18589.4875
2099.11969	18580.5875
2102.11299	18581.5875
2105.10435	18613.9875
2108.09379	18578.4875
2111.08131	18616.8875
2114.0669	18636.0875
2117.05057	18650.6875
2120.03233	18656.8875
2123.01216	18675.9875
2125.99008	18744.4875
2128.96609	18743.6875
2131.94018	18758.0875
2134.91236	18733.2875
2137.88263	18757.7875
2140.851	18778.2875
2143.81746	18808.4875
2146.78201	18798.4875
2149.74466	18815.9875
2152.7054	18808.5875
2155.66425	18834.3875
2158.6212	18849.5875
2161.57625	18834.3875
2164.52941	18847.7875
2167.48067	18855.8875
2170.43004	18870.0875
2173.37752	18842.1875
2176.32311	18831.7875
2179.26681	18843.7875
2182.20863	18849.8875
2185.14856	18859.4875
2188.08661	18895.6875
2191.02278	18848.7875
2193.95707	18875.5875
2196.88948	18871.0875
2199.82001	18867.9875
2202.74867	18864.3875
2205.67545	18860.6875
2208.60037	18856.3875
2211.52341	18834.0875
2214.44458	18835.4875
2217.36388	18761.2875
2220.28132	18745.6875
2223.1969	18706.0875
2226.11061	18742.6875
2229.02246	18700.6875
2231.93245	18658.7875
2234.84058	18629.9875
2237.74686	18628.6875
2240.65128	18600.1875
2243.55385	18539.0875
2246.45456	18561.7875
2249.35343	18520.1875
2252.25044	18512.9875
2255.14561	18447.7875
2258.03893	18437.3875
2260.93041	18389.8875
2263.82004	18366.1875
2266.70783	18306.4875
2269.59378	18303.4875
2272.4779	18303.9875
2275.36017	18238.6875
2278.24061	18241.8875
2281.11922	18198.5875
2283.996	18179.1875
2286.87094	18178.3875
2289.74405	18127.5875
2292.61534	18135.5875
2295.4848	18084.2875
2298.35243	18136.5875
2301.21824	18135.8875
2304.08223	18125.2875
2306.94439	18128.7875
2309.80474	18159.1875
2312.66327	18158.1875
2315.51999	18128.7875
2318.37489	18151.1875
2321.22797	18134.0875
2324.07925	18088.8875
2326.92871	18079.8875
2329.77637	18098.5875
2332.62222	18069.9875
2335.46626	18088.3875
2338.3085	18031.3875
2341.14893	18035.4875
2343.98756	18014.3875
2346.8244	18060.8875
2349.65943	18035.4875
2352.49267	18003.5875
2355.32411	17981.5875
2358.15376	17945.3875
2360.98161	17937.8875
2363.80768	17940.5875
2366.63195	17914.2875
2369.45444	17845.9875
2372.27514	17854.4875
2375.09405	17815.2875
2377.91118	17835.2875
2380.72652	17778.5875
2383.54009	17761.0875
2386.35187	17773.9875
2389.16188	17724.0875
2391.97011	17719.0875
2394.77657	17690.2875
2397.58125	17691.1875
2400.38416	17624.3875
2403.18529	17600.2875
2405.98466	17620.2875
2408.78226	17541.6875
2411.57809	17512.0875
2414.37216	17498.3875
2417.16446	17456.2875
2419.955	17457.0875
2422.74378	17472.5875
2425.5308	17461.2875
2428.31606	17430.9875
2431.09956	17440.5875
2433.88131	17394.7875
2436.6613	17394.9875
2439.43954	17415.7875
2442.21603	17362.6875
2444.99077	17374.4875
2447.76377	17366.5875
2450.53501	17350.4875
2453.30451	17353.0875
2456.07226	17342.0875
2458.83827	17335.6875
2461.60254	17319.9875
2464.36507	17333.9875
2467.12586	17333.3875
2469.88492	17321.7875
2472.64224	17301.8875
2475.39782	17307.3875
2478.15167	17352.8875
2480.90379	17319.1875
2483.65417	17282.3875
2486.40283	17299.2875
2489.14976	17314.9875
2491.89497	17256.7875
2494.63845	17274.3875
2497.3802	17318.2875
2500.12024	17295.4875
2502.85855	17301.2875
2505.59514	17300.5875
2508.33002	17292.3875
2511.06318	17235.0875
2513.79462	17211.3875
2516.52435	17214.3875
2519.25237	17203.6875
2521.97867	17171.0875
2524.70327	17162.8875
2527.42616	17122.6875
2530.14734	17127.9875
2532.86681	17080.7875
2535.58458	17116.1875
2538.30065	17117.7875
2541.01501	17075.8875
2543.72768	17035.4875
2546.43864	17046.2875
2549.14791	17003.0875
2551.85548	17026.3875
2554.56136	17028.9875
2557.26554	16991.5875
2559.96803	16981.1875
2562.66883	16972.3875
2565.36794	16982.5875
2568.06536	16967.2875
2570.7611	16951.2875
2573.45514	16950.5875
2576.14751	16913.5875
2578.83819	16897.7875
2581.52719	16896.9875
2584.21451	16903.5875
2586.90015	16882.3875
2589.58411	16857.3875
2592.2664	16835.3875
2594.94701	16813.1875
2597.62594	16815.7875
2600.30321	16779.3875
2602.9788	16772.5875
2605.65273	16709.6875
2608.32498	16755.0875
2610.99557	16698.0875
2613.66449	16722.0875
2616.33175	16701.4875
2618.99734	16701.9875
2621.66128	16698.8875
2624.32355	16662.3875
2626.98416	16655.8875
2629.64311	16639.7875
2632.30041	16651.2875
2634.95605	16639.5875
2637.61004	16626.6875
2640.26238	16608.8875
2642.91306	16536.5875
2645.56209	16554.4875
2648.20948	16495.5875
2650.85521	16515.6875
2653.4993	16497.0875
2656.14175	16524.0875
2658.78255	16534.8875
2661.42171	16501.3875
2664.05923	16534.5875
2666.6951	16529.1875
2669.32934	16564.9875
2671.96194	16560.7875
2674.59291	16575.8875
2677.22224	16556.3875
2679.84993	16534.9875
2682.476	16555.9875
2685.10043	16520.4875
2687.72324	16521.1875
2690.34441	16526.4875
2692.96396	16500.9875
2695.58188	16483.6875
2698.19818	16507.2875
2700.81285	16528.9875
2703.4259	16488.7875
2706.03733	16508.8875
2708.64714	16506.3875
2711.25533	16539.4875
2713.86191	16539.5875
2716.46687	16517.0875
2719.07021	16556.4875
2721.67194	16565.9875
2724.27206	16530.8875
2726.87057	16586.8875
2729.46747	16567.9875
2732.06276	16543.3875
2734.65644	16562.5875
2737.24852	16552.9875
2739.83899	16541.5875
2742.42786	16543.9875
2745.01513	16508.5875
2747.60079	16538.8875
2750.18486	16538.6875
2752.76733	16548.4875
2755.3482	16542.1875
2757.92747	16515.3875
2760.50515	16531.2875
2763.08123	16502.8875
2765.65573	16461.3875
2768.22863	16495.4875
2770.79994	16472.4875
2773.36967	16519.0875
2775.9378	16485.7875
2778.50435	16478.7875
2781.06932	16435.8875
2783.6327	16434.2875
2786.1945	16433.1875
2788.75471	16380.4875
2791.31335	16352.3875
2793.87041	16345.1875
2796.42589	16312.6875
2798.97979	16323.7875
2801.53212	16246.2875
2804.08288	16234.8875
2806.63206	16185.8875
2809.17967	16177.9875
2811.72571	16193.6875
2814.27018	16168.3875
2816.81308	16135.3875
2819.35442	16164.7875
2821.89419	16138.4875
2824.43239	16118.4875
2826.96904	16077.1875
2829.50412	16043.6875
2832.03763	16019.4875
2834.56959	16059.5875
2837.1	16018.1875
2839.62884	16042.7875
2842.15613	16022.9875
2844.68186	16068.5875
2847.20604	16066.6875
2849.72867	16066.1875
2852.24974	16060.3875
2854.76927	16049.3875
2857.28724	16055.1875
2859.80367	16032.5875
2862.31855	16036.8875
2864.83189	16037.1875
2867.34368	16008.9875
2869.85393	16014.8875
2872.36264	16039.1875
2874.8698	16055.1875
2877.37543	16064.3875
2879.87952	16068.1875
2882.38207	16064.5875
2884.88308	16068.3875
2887.38256	16072.3875
2889.88051	16101.0875
2892.37692	16087.6875
2894.8718	16103.6875
2897.36515	16114.7875
2899.85698	16087.8875
2902.34727	16148.8875
2904.83604	16107.6875
2907.32328	16153.3875
2909.809	16138.0875
2912.29319	16130.1875
2914.77587	16149.8875
2917.25702	16148.9875
2919.73665	16118.8875
2922.21476	16119.6875
2924.69136	16130.1875
2927.16644	16078.1875
2929.64	16098.7875
2932.11205	16051.0875
2934.58258	16042.8875
2937.05161	16076.1875
2939.51912	16045.7875
2941.98513	16005.5875
2944.44962	15975.5875
2946.91261	15874.7875
2949.37409	15927.4875
2951.83407	15907.6875
2954.29254	15889.4875
2956.74951	15885.9875
2959.20498	15882.7875
2961.65895	15848.5875
2964.11142	15849.2875
2966.56239	15766.5875
2969.01186	15780.9875
2971.45984	15750.9875
2973.90632	15727.6875
2976.35131	15673.0875
2978.7948	15647.2875
2981.23681	15618.2875
2983.67732	15591.6875
2986.11635	15507.5875
2988.55388	15498.0875
2990.98993	15476.0875
2993.4245	15410.1875
2995.85758	15406.1875
2998.28917	15411.0875
3000.71928	15416.5875
3003.14791	15369.3875
3005.57506	15338.5875
3008.00073	15314.2875
3010.42493	15316.4875
3012.84764	15305.3875
3015.26888	15283.1875
3017.68865	15248.8875
3020.10694	15230.4875
3022.52376	15216.0875
3024.9391	15174.8875
3027.35298	15134.7875
3029.76539	15127.1875
3032.17632	15129.6875
3034.5858	15098.4875
3036.9938	15088.4875
3039.40034	15085.7875
3041.80542	15093.9875
3044.20903	15012.6875
3046.61118	15036.1875
3049.01187	15009.4875
3051.4111	15004.6875
3053.80888	14957.5875
3056.20519	14964.5875
3058.60005	14936.6875
3060.99345	14934.8875
3063.3854	14888.0875
3065.7759	14822.5875
3068.16494	14797.5875
3070.55254	14787.6875
3072.93868	14802.3875
3075.32338	14764.2875
3077.70662	14786.3875
3080.08842	14715.7875
3082.46878	14710.6875
3084.84769	14661.1875
3087.22515	14680.2875
3089.60118	14687.5875
3091.97576	14673.1875
3094.3489	14670.5875
3096.72061	14648.3875
3099.09087	14634.5875
3101.4597	14629.0875
3103.82709	14605.0875
3106.19305	14605.1875
3108.55757	14616.3875
3110.92066	14575.1875
3113.28232	14568.3875
3115.64255	14521.8875
3118.00134	14494.5875
3120.35871	14492.0875
3122.71466	14503.5875
3125.06917	14473.3875
3127.42226	14454.1875
3129.77393	14469.7875
3132.12417	14462.5875
3134.47299	14434.2875
3136.82039	14441.5875
3139.16636	14465.1875
3141.51092	14451.1875
3143.85406	14463.3875
3146.19579	14453.4875
3148.53609	14453.1875
3150.87499	14450.5875
3153.21246	14456.9875
3155.54853	14474.2875
3157.88318	14408.3875
3160.21642	14459.7875
3162.54826	14452.1875
3164.87868	14434.6875
3167.2077	14411.2875
3169.5353	14400.9875
3171.86151	14416.5875
3174.18631	14423.1875
3176.5097	14403.9875
3178.83169	14369.3875
3181.15228	14361.8875
3183.47147	14351.9875
3185.78926	14357.2875
3188.10565	14344.6875
3190.42065	14383.9875
3192.73424	14381.1875
3195.04645	14384.5875
3197.35725	14385.4875
3199.66667	14357.3875
3201.97469	14383.1875
3204.28132	14339.4875
3206.58656	14374.3875
3208.8904	14342.8875
3211.19287	14349.6875
3213.49394	14365.2875
3215.79363	14330.1875
3218.09193	14341.6875
3220.38884	14330.2875
3222.68438	14323.4875
3224.97853	14301.7875
3227.2713	14303.2875
3229.56269	14305.3875
3231.8527	14295.5875
3234.14133	14271.8875
3236.42858	14256.9875
3238.71446	14255.7875
3240.99896	14241.8875
3243.28209	14217.9875
3245.56384	14244.1875
3247.84423	14232.3875
3250.12324	14225.9875
3252.40088	14209.9875
3254.67715	14180.3875
3256.95205	14185.0875
3259.22558	14163.8875
3261.49775	14124.1875
3263.76855	14111.0875
3266.03799	14131.9875
3268.30606	14075.7875
3270.57277	14086.4875
3272.83812	14045.6875
3275.10211	14070.3875
3277.36474	14035.9875
3279.62601	14066.5875
3281.88593	13994.9875
3284.14448	14019.1875
3286.40168	14019.0875
3288.65753	14002.4875
3290.91202	13974.7875
3293.16516	13937.3875
3295.41695	13949.1875
3297.66738	13837.6875
3299.91647	13769.2875
3302.16421	13693.2875
3304.4106	13638.7875
3306.65564	13564.4875
3308.89933	13475.9875
3311.14169	13429.3875
3313.38269	13324.0875
3315.62236	13251.4875
3317.86068	13150.4875
3320.09766	13049.8875
3322.3333	12912.1875
3324.5676	12889.9875
3326.80056	12690.8875
3329.03219	12649.8875
3331.26248	2.9875
3333.49143	0.0875
3335.71905	-1.2125
