Data from AgNPs_FTO_APTES_UA_1uM_R6G_10uM_NaF_0.1M_Addition_RamanShift__33__11-42-27-195.txt Node

Date: Fri Dec 17 11:42:27 GMT 2021
User: TCL
Spectrometer: QEP01345
Trigger mode: 4
Integration Time (sec): 7.000000E0
Scans to average: 10
Electric dark correction enabled: true
Nonlinearity correction enabled: false
Boxcar width: 0
XAxis mode: Raman Shifts
Number of Pixels in Spectrum: 1044
>>>>>Begin Spectral Data<<<<<
46.04893	-0.8875
50.45542	-1.4875
54.85868	-0.7875
59.25871	1.0125
63.6555	40.9125
68.04907	46.0125
72.43941	46.8125
76.82654	52.7125
81.21044	49.5125
85.59113	55.1125
89.96862	60.7125
94.34289	60.4125
98.71396	64.2125
103.08183	60.8125
107.4465	65.9125
111.80798	64.4125
116.16626	70.6125
120.52136	62.0125
124.87327	70.8125
129.222	67.1125
133.56755	69.2125
137.90993	71.3125
142.24913	72.1125
146.58517	77.5125
150.91804	81.1125
155.24774	89.8125
159.57429	112.9125
163.89768	126.4125
168.21792	155.6125
172.53501	197.6125
176.84895	264.0125
181.15975	354.2125
185.46741	482.7125
189.77193	658.2125
194.07331	869.0125
198.37157	1108.4125
202.6667	1364.9125
206.9587	1615.9125
211.24758	1875.6125
215.53334	2138.0125
219.81599	2425.5125
224.09553	2753.6125
228.37195	3107.6125
232.64527	3494.4125
236.91549	3880.0125
241.18261	4241.3125
245.44663	4551.5125
249.70755	4772.4125
253.96539	4963.3125
258.22014	5137.7125
262.4718	5300.6125
266.72039	5435.8125
270.96589	5537.0125
275.20832	5503.5125
279.44768	5460.3125
283.68397	5368.7125
287.91719	5298.6125
292.14735	5279.7125
296.37445	5383.1125
300.59849	5597.0125
304.81948	5835.9125
309.03742	6026.2125
313.25231	5997.1125
317.46415	5707.3125
321.67296	5260.0125
325.87872	4933.4125
330.08145	4771.1125
334.28114	4759.4125
338.47781	4856.8125
342.67145	4989.1125
346.86207	5239.2125
351.04966	5561.5125
355.23424	5945.3125
359.4158	6218.7125
363.59435	6379.9125
367.76989	6427.4125
371.94243	6424.0125
376.11196	6398.0125
380.27849	6380.5125
384.44203	6302.5125
388.60257	6232.2125
392.76012	6191.2125
396.91468	6247.0125
401.06626	6396.5125
405.21485	6534.8125
409.36047	6469.2125
413.50311	6170.8125
417.64277	5922.7125
421.77947	5805.6125
425.9132	5839.8125
430.04396	5877.6125
434.17176	5927.4125
438.2966	5941.9125
442.41849	6024.1125
446.53742	6145.2125
450.6534	6279.7125
454.76644	6390.6125
458.87653	6380.6125
462.98368	6304.7125
467.08789	6177.7125
471.18916	6019.8125
475.2875	5863.7125
479.38291	5764.8125
483.4754	5677.0125
487.56496	5651.3125
491.6516	5619.9125
495.73531	5587.5125
499.81612	5572.5125
503.89401	5616.5125
507.96899	5677.6125
512.04106	5754.2125
516.11023	5884.5125
520.1765	5930.4125
524.23987	5916.7125
528.30034	5806.4125
532.35792	5681.8125
536.41261	5551.0125
540.46441	5432.6125
544.51333	5342.6125
548.55936	5361.7125
552.60252	5470.9125
556.64279	5602.8125
560.6802	5639.1125
564.71473	5727.1125
568.7464	5938.2125
572.7752	6061.3125
576.80114	5914.9125
580.82422	5737.3125
584.84444	5667.6125
588.86181	5679.9125
592.87633	5726.7125
596.888	5828.9125
600.89682	6079.6125
604.9028	6790.8125
608.90594	8573.4125
612.90624	10836.8125
616.90371	10436.3125
620.89834	7393.8125
624.89015	5949.1125
628.87913	5650.5125
632.86528	5637.2125
636.84862	5727.2125
640.82913	5658.3125
644.80683	5452.6125
648.78172	5328.4125
652.75379	5364.3125
656.72306	5610.9125
660.68952	5898.7125
664.65319	5806.5125
668.61405	5508.1125
672.57211	5368.3125
676.52738	5365.1125
680.47986	5349.1125
684.42955	5353.3125
688.37646	5357.8125
692.32058	5431.1125
696.26192	5525.0125
700.20048	5666.0125
704.13626	5803.2125
708.06928	5811.5125
711.99952	5735.1125
715.927	5640.6125
719.85171	5600.4125
723.77365	5552.4125
727.69284	5469.3125
731.60928	5431.0125
735.52295	5416.4125
739.43388	5421.5125
743.34206	5470.0125
747.24749	5476.5125
751.15017	5520.2125
755.05012	5620.9125
758.94733	5842.2125
762.8418	6385.2125
766.73354	7332.1125
770.62254	8365.6125
774.50882	8959.9125
778.39237	8724.7125
782.27321	7656.7125
786.15132	6559.6125
790.02671	5928.7125
793.89938	5664.7125
797.76935	5553.1125
801.6366	5506.5125
805.50115	5470.9125
809.36299	5451.3125
813.22213	5431.6125
817.07857	5430.5125
820.93231	5425.9125
824.78336	5455.9125
828.63172	5473.9125
832.47738	5467.4125
836.32036	5474.7125
840.16066	5455.1125
843.99827	5440.5125
847.8332	5403.2125
851.66546	5421.8125
855.49504	5415.2125
859.32195	5395.3125
863.1462	5386.7125
866.96777	5359.2125
870.78668	5346.3125
874.60293	5361.2125
878.41652	5386.9125
882.22745	5421.6125
886.03573	5434.2125
889.84136	5448.0125
893.64433	5396.4125
897.44466	5411.5125
901.24235	5407.4125
905.0374	5391.1125
908.8298	5381.7125
912.61957	5369.0125
916.40671	5381.5125
920.19121	5445.2125
923.97308	5492.5125
927.75233	5560.8125
931.52895	5609.2125
935.30295	5579.3125
939.07433	5439.7125
942.84309	5334.1125
946.60924	5249.0125
950.37278	5210.1125
954.13371	5179.9125
957.89203	5150.9125
961.64774	5124.1125
965.40086	5118.6125
969.15137	5096.3125
972.89929	5094.0125
976.64461	5076.3125
980.38733	5082.3125
984.12747	5096.6125
987.86502	5102.9125
991.59999	5144.8125
995.33237	5200.7125
999.06217	5269.7125
1002.78939	5397.5125
1006.51404	5532.5125
1010.23611	5633.7125
1013.95561	5701.1125
1017.67255	5702.9125
1021.38692	5635.4125
1025.09872	5533.2125
1028.80796	5480.5125
1032.51465	5502.9125
1036.21877	5575.3125
1039.92035	5652.2125
1043.61937	5688.6125
1047.31584	5657.7125
1051.00976	5586.0125
1054.70114	5538.1125
1058.38998	5521.1125
1062.07627	5520.3125
1065.76003	5552.3125
1069.44126	5577.7125
1073.11995	5660.5125
1076.79611	5716.3125
1080.46974	5820.2125
1084.14085	5921.3125
1087.80943	6041.3125
1091.47549	6086.4125
1095.13903	5995.1125
1098.80005	5783.1125
1102.45857	5624.9125
1106.11456	5566.5125
1109.76805	5619.6125
1113.41903	5728.0125
1117.06751	5884.0125
1120.71348	6107.7125
1124.35696	6319.6125
1127.99793	6534.3125
1131.63641	6492.6125
1135.2724	6257.7125
1138.90589	5954.3125
1142.5369	5809.6125
1146.16542	5696.9125
1149.79145	5611.6125
1153.415	5635.9125
1157.03607	5677.8125
1160.65467	5777.6125
1164.27079	5968.7125
1167.88443	6221.0125
1171.49561	6649.0125
1175.10432	7394.6125
1178.71056	8426.2125
1182.31434	9251.8125
1185.91565	9503.7125
1189.51451	9339.7125
1193.11091	8786.1125
1196.70485	8075.4125
1200.29634	7511.3125
1203.88538	7124.0125
1207.47197	6707.2125
1211.05612	6355.4125
1214.63782	6193.3125
1218.21708	6164.0125
1221.79391	6174.3125
1225.36829	6236.3125
1228.94024	6342.5125
1232.50976	6415.0125
1236.07685	6496.2125
1239.6415	6533.1125
1243.20374	6553.7125
1246.76355	6594.9125
1250.32093	6668.7125
1253.8759	6814.5125
1257.42845	7014.5125
1260.97859	7217.4125
1264.52631	7382.4125
1268.07163	7578.0125
1271.61453	7714.9125
1275.15503	7813.2125
1278.69312	7830.4125
1282.22882	7821.4125
1285.76211	7922.8125
1289.29301	8133.0125
1292.82151	8335.7125
1296.34761	8506.9125
1299.87133	8806.8125
1303.39266	9359.4125
1306.9116	10232.7125
1310.42815	11337.5125
1313.94233	12026.0125
1317.45412	11882.3125
1320.96354	11197.6125
1324.47058	10450.9125
1327.97525	9801.8125
1331.47754	9286.7125
1334.97747	9123.9125
1338.47502	9177.8125
1341.97022	9343.8125
1345.46305	9613.8125
1348.95352	10121.6125
1352.44163	10849.1125
1355.92738	11899.2125
1359.41078	13414.4125
1362.89183	14913.3125
1366.37053	14648.9125
1369.84688	12669.5125
1373.32088	10606.8125
1376.79254	9223.3125
1380.26186	8575.9125
1383.72883	8312.6125
1387.19347	8087.9125
1390.65578	7767.9125
1394.11575	7412.0125
1397.57339	7174.0125
1401.0287	7129.5125
1404.48168	7220.3125
1407.93234	7360.5125
1411.38068	7457.4125
1414.82669	7490.5125
1418.27039	7431.1125
1421.71177	7274.7125
1425.15083	7170.5125
1428.58758	7104.7125
1432.02203	7132.0125
1435.45416	7189.2125
1438.88399	7224.9125
1442.31151	7230.2125
1445.73673	7290.4125
1449.15965	7337.3125
1452.58027	7246.1125
1455.9986	7141.6125
1459.41463	7109.8125
1462.82837	7147.6125
1466.23982	7239.3125
1469.64898	7360.4125
1473.05586	7472.2125
1476.46045	7531.2125
1479.86276	7610.7125
1483.26279	7798.0125
1486.66054	7971.5125
1490.05602	8240.2125
1493.44922	8583.3125
1496.84016	9082.4125
1500.22882	9868.1125
1503.61521	10930.5125
1506.99934	12126.2125
1510.38121	13266.1125
1513.76081	13769.5125
1517.13816	13137.6125
1520.51324	11623.1125
1523.88607	10077.5125
1527.25665	9025.0125
1530.62498	8438.2125
1533.99105	8077.9125
1537.35488	7872.3125
1540.71647	7742.6125
1544.07581	7689.5125
1547.4329	7670.5125
1550.78776	7640.5125
1554.14038	7582.9125
1557.49077	7637.8125
1560.83892	7720.0125
1564.18484	7885.4125
1567.52853	8083.2125
1570.86999	8310.6125
1574.20922	8490.5125
1577.54624	8505.0125
1580.88103	8199.1125
1584.2136	7702.2125
1587.54395	7446.0125
1590.87208	7541.6125
1594.19801	7953.1125
1597.52172	8471.4125
1600.84321	8777.1125
1604.16251	8562.0125
1607.47959	8076.2125
1610.79447	7530.8125
1614.10715	6953.9125
1617.41763	6542.5125
1620.7259	6283.9125
1624.03199	6202.8125
1627.33587	6239.3125
1630.63757	6419.1125
1633.93707	6692.6125
1637.23439	7164.0125
1640.52951	7748.2125
1643.82246	8536.9125
1647.11321	9421.4125
1650.40179	10089.8125
1653.68819	10022.9125
1656.97241	9002.1125
1660.25446	7790.5125
1663.53433	6895.3125
1666.81203	6338.1125
1670.08756	5947.3125
1673.36092	5652.4125
1676.63211	5425.0125
1679.90115	5280.9125
1683.16801	5217.7125
1686.43272	5193.1125
1689.69527	5217.7125
1692.95567	5424.3125
1696.2139	5749.3125
1699.46999	6071.2125
1702.72392	6071.4125
1705.97571	5759.6125
1709.22535	5391.9125
1712.47284	5144.5125
1715.71819	5012.3125
1718.96139	4938.7125
1722.20246	4893.1125
1725.44139	4849.8125
1728.67818	4802.3125
1731.91284	4768.9125
1735.14537	4749.3125
1738.37576	4744.9125
1741.60403	4734.5125
1744.83017	4752.6125
1748.05418	4808.3125
1751.27607	4900.2125
1754.49584	5061.6125
1757.71349	5296.4125
1760.92903	5381.4125
1764.14244	5333.8125
1767.35375	5332.8125
1770.56294	5307.2125
1773.77002	5197.3125
1776.97499	4970.3125
1780.17785	4752.9125
1783.37861	4652.8125
1786.57727	4585.2125
1789.77382	4535.4125
1792.96828	4507.4125
1796.16064	4488.0125
1799.3509	4457.4125
1802.53907	4450.5125
1805.72514	4413.8125
1808.90913	4408.7125
1812.09102	4393.1125
1815.27083	4376.1125
1818.44856	4356.5125
1821.6242	4345.3125
1824.79776	4339.2125
1827.96924	4317.4125
1831.13864	4328.5125
1834.30597	4321.9125
1837.47122	4325.1125
1840.6344	4324.9125
1843.7955	4309.0125
1846.95454	4315.9125
1850.11151	4311.6125
1853.26642	4288.7125
1856.41926	4299.9125
1859.57004	4308.4125
1862.71876	4300.7125
1865.86542	4307.1125
1869.01003	4304.9125
1872.15258	4313.6125
1875.29308	4310.4125
1878.43152	4305.7125
1881.56792	4317.8125
1884.70227	4316.3125
1887.83457	4323.7125
1890.96482	4335.4125
1894.09304	4324.6125
1897.21921	4321.3125
1900.34335	4316.3125
1903.46544	4302.3125
1906.58551	4312.0125
1909.70353	4293.2125
1912.81953	4295.9125
1915.93349	4299.6125
1919.04543	4283.7125
1922.15534	4270.0125
1925.26322	4272.3125
1928.36908	4250.4125
1931.47292	4241.2125
1934.57473	4215.7125
1937.67453	4215.9125
1940.77232	4203.1125
1943.86808	4177.5125
1946.96184	4145.9125
1950.05358	4142.1125
1953.14331	4129.5125
1956.23103	4132.1125
1959.31675	4093.4125
1962.40046	4073.0125
1965.48217	4066.4125
1968.56188	4047.8125
1971.63959	4036.2125
1974.7153	4015.1125
1977.78901	4014.1125
1980.86073	3998.4125
1983.93046	3983.4125
1986.99819	3979.4125
1990.06394	3964.0125
1993.1277	3956.4125
1996.18947	3919.7125
1999.24925	3926.6125
2002.30706	3909.5125
2005.36288	3889.4125
2008.41672	3898.2125
2011.46859	3877.5125
2014.51848	3867.5125
2017.56639	3842.5125
2020.61233	3839.4125
2023.6563	3848.5125
2026.6983	3826.3125
2029.73833	3815.5125
2032.7764	3807.0125
2035.8125	3799.9125
2038.84664	3775.0125
2041.87881	3773.6125
2044.90903	3772.4125
2047.93729	3752.9125
2050.96359	3780.8125
2053.98794	3779.9125
2057.01034	3768.3125
2060.03078	3752.4125
2063.04927	3756.0125
2066.06582	3734.2125
2069.08042	3741.9125
2072.09307	3740.1125
2075.10378	3732.6125
2078.11255	3729.3125
2081.11938	3724.1125
2084.12426	3721.6125
2087.12722	3714.2125
2090.12824	3717.7125
2093.12732	3711.9125
2096.12447	3724.0125
2099.11969	3719.8125
2102.11299	3710.6125
2105.10435	3711.1125
2108.09379	3716.9125
2111.08131	3711.6125
2114.0669	3718.0125
2117.05057	3717.3125
2120.03233	3723.9125
2123.01216	3710.9125
2125.99008	3713.0125
2128.96609	3737.9125
2131.94018	3720.8125
2134.91236	3725.5125
2137.88263	3729.2125
2140.851	3724.4125
2143.81746	3723.2125
2146.78201	3738.7125
2149.74466	3734.0125
2152.7054	3722.5125
2155.66425	3717.9125
2158.6212	3708.4125
2161.57625	3707.5125
2164.52941	3719.0125
2167.48067	3711.3125
2170.43004	3709.6125
2173.37752	3701.2125
2176.32311	3709.8125
2179.26681	3708.7125
2182.20863	3708.5125
2185.14856	3701.7125
2188.08661	3706.0125
2191.02278	3694.3125
2193.95707	3699.3125
2196.88948	3682.3125
2199.82001	3682.3125
2202.74867	3678.8125
2205.67545	3683.7125
2208.60037	3687.8125
2211.52341	3663.8125
2214.44458	3659.3125
2217.36388	3651.9125
2220.28132	3648.9125
2223.1969	3625.2125
2226.11061	3635.5125
2229.02246	3622.7125
2231.93245	3604.9125
2234.84058	3597.0125
2237.74686	3593.5125
2240.65128	3607.1125
2243.55385	3585.3125
2246.45456	3582.1125
2249.35343	3586.5125
2252.25044	3587.5125
2255.14561	3595.9125
2258.03893	3626.4125
2260.93041	3686.4125
2263.82004	3614.8125
2266.70783	3581.8125
2269.59378	3558.4125
2272.4779	3551.2125
2275.36017	3523.7125
2278.24061	3526.7125
2281.11922	3502.8125
2283.996	3512.6125
2286.87094	3506.8125
2289.74405	3479.3125
2292.61534	3490.4125
2295.4848	3469.1125
2298.35243	3455.1125
2301.21824	3469.2125
2304.08223	3461.4125
2306.94439	3454.5125
2309.80474	3452.7125
2312.66327	3469.0125
2315.51999	3458.1125
2318.37489	3464.1125
2321.22797	3456.5125
2324.07925	3452.9125
2326.92871	3452.7125
2329.77637	3445.3125
2332.62222	3444.1125
2335.46626	3438.6125
2338.3085	3438.6125
2341.14893	3448.5125
2343.98756	3439.4125
2346.8244	3433.4125
2349.65943	3436.9125
2352.49267	3429.2125
2355.32411	3425.1125
2358.15376	3416.1125
2360.98161	3419.5125
2363.80768	3412.7125
2366.63195	3417.0125
2369.45444	3410.1125
2372.27514	3417.6125
2375.09405	3403.3125
2377.91118	3399.3125
2380.72652	3385.0125
2383.54009	3368.4125
2386.35187	3371.3125
2389.16188	3339.5125
2391.97011	3333.5125
2394.77657	3325.4125
2397.58125	3315.8125
2400.38416	3310.1125
2403.18529	3318.5125
2405.98466	3311.8125
2408.78226	3314.8125
2411.57809	3304.1125
2414.37216	3291.2125
2417.16446	3286.8125
2419.955	3274.4125
2422.74378	3285.3125
2425.5308	3259.1125
2428.31606	3258.0125
2431.09956	3259.1125
2433.88131	3249.4125
2436.6613	3253.9125
2439.43954	3255.1125
2442.21603	3240.0125
2444.99077	3238.7125
2447.76377	3251.7125
2450.53501	3237.5125
2453.30451	3245.9125
2456.07226	3234.0125
2458.83827	3242.2125
2461.60254	3237.2125
2464.36507	3230.9125
2467.12586	3229.0125
2469.88492	3230.4125
2472.64224	3228.9125
2475.39782	3284.8125
2478.15167	3303.0125
2480.90379	3278.5125
2483.65417	3258.3125
2486.40283	3250.9125
2489.14976	3251.6125
2491.89497	3253.8125
2494.63845	3312.6125
2497.3802	3320.3125
2500.12024	3271.4125
2502.85855	3237.9125
2505.59514	3242.7125
2508.33002	3218.1125
2511.06318	3200.4125
2513.79462	3189.5125
2516.52435	3174.1125
2519.25237	3172.1125
2521.97867	3157.3125
2524.70327	3148.1125
2527.42616	3154.6125
2530.14734	3161.9125
2532.86681	3145.9125
2535.58458	3134.2125
2538.30065	3126.5125
2541.01501	3134.9125
2543.72768	3129.2125
2546.43864	3123.5125
2549.14791	3118.9125
2551.85548	3122.1125
2554.56136	3116.4125
2557.26554	3126.1125
2559.96803	3100.4125
2562.66883	3114.8125
2565.36794	3102.1125
2568.06536	3095.4125
2570.7611	3088.6125
2573.45514	3085.7125
2576.14751	3080.5125
2578.83819	3078.7125
2581.52719	3067.3125
2584.21451	3058.9125
2586.90015	3075.5125
2589.58411	3071.8125
2592.2664	3045.6125
2594.94701	3037.0125
2597.62594	3051.7125
2600.30321	3043.4125
2602.9788	3026.8125
2605.65273	3019.5125
2608.32498	3015.4125
2610.99557	3025.1125
2613.66449	3023.3125
2616.33175	3024.8125
2618.99734	3022.9125
2621.66128	3008.7125
2624.32355	3023.3125
2626.98416	3015.8125
2629.64311	3006.8125
2632.30041	3014.9125
2634.95605	2999.8125
2637.61004	2992.7125
2640.26238	2985.9125
2642.91306	2995.0125
2645.56209	2990.1125
2648.20948	2994.6125
2650.85521	2995.6125
2653.4993	2978.1125
2656.14175	2991.1125
2658.78255	2984.1125
2661.42171	2988.3125
2664.05923	2986.2125
2666.6951	2976.5125
2669.32934	2984.3125
2671.96194	2985.2125
2674.59291	2995.0125
2677.22224	2993.7125
2679.84993	2999.0125
2682.476	2997.8125
2685.10043	2998.6125
2687.72324	3000.6125
2690.34441	3000.4125
2692.96396	2997.2125
2695.58188	2998.3125
2698.19818	3012.8125
2700.81285	3019.7125
2703.4259	3163.2125
2706.03733	3452.8125
2708.64714	3251.9125
2711.25533	3118.9125
2713.86191	3093.7125
2716.46687	3071.6125
2719.07021	3054.3125
2721.67194	3041.0125
2724.27206	3014.2125
2726.87057	3021.6125
2729.46747	3019.2125
2732.06276	3021.8125
2734.65644	3013.6125
2737.24852	3002.7125
2739.83899	2996.6125
2742.42786	3003.1125
2745.01513	3005.0125
2747.60079	3006.6125
2750.18486	3007.5125
2752.76733	3007.7125
2755.3482	2996.6125
2757.92747	3000.1125
2760.50515	3002.1125
2763.08123	2999.5125
2765.65573	2992.0125
2768.22863	2987.7125
2770.79994	2979.1125
2773.36967	3000.4125
2775.9378	3011.7125
2778.50435	3000.8125
2781.06932	3000.0125
2783.6327	3006.1125
2786.1945	2998.1125
2788.75471	3011.5125
2791.31335	3008.6125
2793.87041	3024.1125
2796.42589	3017.8125
2798.97979	3025.4125
2801.53212	3002.0125
2804.08288	3016.9125
2806.63206	3028.7125
2809.17967	3024.1125
2811.72571	3045.9125
2814.27018	3053.5125
2816.81308	3059.5125
2819.35442	3054.4125
2821.89419	3052.7125
2824.43239	3054.1125
2826.96904	3064.4125
2829.50412	3069.4125
2832.03763	3071.4125
2834.56959	3077.7125
2837.1	3082.3125
2839.62884	3098.3125
2842.15613	3128.7125
2844.68186	3157.4125
2847.20604	3187.4125
2849.72867	3227.0125
2852.24974	3249.6125
2854.76927	3295.4125
2857.28724	3352.7125
2859.80367	3293.2125
2862.31855	3243.9125
2864.83189	3243.5125
2867.34368	3220.8125
2869.85393	3201.5125
2872.36264	3198.6125
2874.8698	3180.1125
2877.37543	3177.7125
2879.87952	3167.4125
2882.38207	3169.5125
2884.88308	3157.9125
2887.38256	3158.2125
2889.88051	3151.6125
2892.37692	3147.9125
2894.8718	3156.5125
2897.36515	3147.4125
2899.85698	3153.2125
2902.34727	3168.4125
2904.83604	3161.2125
2907.32328	3158.5125
2909.809	3147.1125
2912.29319	3143.3125
2914.77587	3130.4125
2917.25702	3128.8125
2919.73665	3120.4125
2922.21476	3112.2125
2924.69136	3111.0125
2927.16644	3105.9125
2929.64	3086.0125
2932.11205	3085.1125
2934.58258	3058.5125
2937.05161	3064.5125
2939.51912	3038.2125
2941.98513	3014.0125
2944.44962	2977.9125
2946.91261	2947.0125
2949.37409	2937.5125
2951.83407	2899.6125
2954.29254	2886.9125
2956.74951	2885.9125
2959.20498	2858.0125
2961.65895	2842.2125
2964.11142	2840.2125
2966.56239	2823.4125
2969.01186	2810.4125
2971.45984	2808.9125
2973.90632	2793.9125
2976.35131	2769.7125
2978.7948	2767.7125
2981.23681	2754.0125
2983.67732	2721.6125
2986.11635	2720.3125
2988.55388	2714.2125
2990.98993	2705.1125
2993.4245	2698.4125
2995.85758	2694.4125
2998.28917	2674.7125
3000.71928	2671.0125
3003.14791	2660.2125
3005.57506	2660.6125
3008.00073	2661.1125
3010.42493	2642.4125
3012.84764	2647.4125
3015.26888	2642.3125
3017.68865	2627.6125
3020.10694	2633.9125
3022.52376	2616.7125
3024.9391	2611.4125
3027.35298	2601.6125
3029.76539	2605.8125
3032.17632	2593.2125
3034.5858	2593.6125
3036.9938	2594.0125
3039.40034	2577.5125
3041.80542	2584.5125
3044.20903	2588.9125
3046.61118	2579.8125
3049.01187	2574.3125
3051.4111	2572.3125
3053.80888	2559.7125
3056.20519	2554.6125
3058.60005	2559.5125
3060.99345	2562.9125
3063.3854	2556.0125
3065.7759	2542.9125
3068.16494	2528.9125
3070.55254	2540.1125
3072.93868	2527.0125
3075.32338	2530.7125
3077.70662	2519.7125
3080.08842	2506.9125
3082.46878	2511.5125
3084.84769	2497.5125
3087.22515	2489.0125
3089.60118	2481.1125
3091.97576	2489.6125
3094.3489	2495.1125
3096.72061	2477.7125
3099.09087	2489.2125
3101.4597	2474.0125
3103.82709	2481.5125
3106.19305	2474.0125
3108.55757	2469.3125
3110.92066	2461.5125
3113.28232	2462.3125
3115.64255	2458.6125
3118.00134	2456.3125
3120.35871	2459.2125
3122.71466	2453.9125
3125.06917	2441.6125
3127.42226	2451.7125
3129.77393	2466.6125
3132.12417	2445.9125
3134.47299	2451.3125
3136.82039	2446.8125
3139.16636	2466.8125
3141.51092	2456.9125
3143.85406	2468.5125
3146.19579	2482.0125
3148.53609	2461.6125
3150.87499	2474.0125
3153.21246	2482.8125
3155.54853	2489.2125
3157.88318	2474.9125
3160.21642	2486.4125
3162.54826	2478.8125
3164.87868	2480.5125
3167.2077	2476.2125
3169.5353	2491.7125
3171.86151	2482.5125
3174.18631	2478.9125
3176.5097	2488.3125
3178.83169	2480.9125
3181.15228	2489.1125
3183.47147	2483.0125
3185.78926	2479.5125
3188.10565	2479.8125
3190.42065	2491.2125
3192.73424	2492.4125
3195.04645	2497.5125
3197.35725	2487.5125
3199.66667	2498.1125
3201.97469	2503.2125
3204.28132	2497.3125
3206.58656	2505.3125
3208.8904	2502.2125
3211.19287	2514.0125
3213.49394	2491.4125
3215.79363	2504.1125
3218.09193	2521.4125
3220.38884	2571.9125
3222.68438	2631.6125
3224.97853	2563.4125
3227.2713	2547.9125
3229.56269	2523.8125
3231.8527	2519.4125
3234.14133	2524.6125
3236.42858	2508.2125
3238.71446	2487.6125
3240.99896	2499.5125
3243.28209	2481.4125
3245.56384	2487.9125
3247.84423	2493.9125
3250.12324	2481.6125
3252.40088	2483.6125
3254.67715	2482.2125
3256.95205	2464.6125
3259.22558	2483.4125
3261.49775	2471.7125
3263.76855	2469.4125
3266.03799	2464.9125
3268.30606	2463.4125
3270.57277	2450.1125
3272.83812	2454.7125
3275.10211	2453.3125
3277.36474	2446.9125
3279.62601	2456.6125
3281.88593	2448.2125
3284.14448	2453.1125
3286.40168	2435.5125
3288.65753	2440.4125
3290.91202	2438.0125
3293.16516	2421.3125
3295.41695	2417.9125
3297.66738	2422.6125
3299.91647	2392.6125
3302.16421	2387.3125
3304.4106	2362.9125
3306.65564	2355.0125
3308.89933	2345.5125
3311.14169	2360.5125
3313.38269	2382.5125
3315.62236	2335.2125
3317.86068	2290.5125
3320.09766	2280.5125
3322.3333	2256.4125
3324.5676	2301.9125
3326.80056	2344.6125
3329.03219	2271.5125
3331.26248	0.3125
3333.49143	0.9125
3335.71905	1.1125
