Data from AgNPs_FTO_APTES_UA_1uM_R6G_10uM_NaF_0.1M_Addition_RamanShift__22__11-29-37-181.txt Node

Date: Fri Dec 17 11:29:37 GMT 2021
User: TCL
Spectrometer: QEP01345
Trigger mode: 4
Integration Time (sec): 7.000000E0
Scans to average: 10
Electric dark correction enabled: true
Nonlinearity correction enabled: false
Boxcar width: 0
XAxis mode: Raman Shifts
Number of Pixels in Spectrum: 1044
>>>>>Begin Spectral Data<<<<<
46.04893	-0.4625
50.45542	-0.7625
54.85868	-2.0625
59.25871	0.2375
63.6555	103.8375
68.04907	109.5375
72.43941	116.0375
76.82654	118.6375
81.21044	123.4375
85.59113	130.4375
89.96862	134.9375
94.34289	138.2375
98.71396	142.9375
103.08183	149.1375
107.4465	155.9375
111.80798	158.4375
116.16626	159.5375
120.52136	159.4375
124.87327	171.1375
129.222	177.3375
133.56755	185.1375
137.90993	204.5375
142.24913	220.7375
146.58517	244.7375
150.91804	276.5375
155.24774	327.5375
159.57429	398.2375
163.89768	508.3375
168.21792	661.5375
172.53501	895.1375
176.84895	1237.2375
181.15975	1715.9375
185.46741	2408.4375
189.77193	3309.0375
194.07331	4427.3375
198.37157	5712.2375
202.6667	7046.1375
206.9587	8361.9375
211.24758	9670.0375
215.53334	10989.2375
219.81599	12435.4375
224.09553	14000.7375
228.37195	15757.5375
232.64527	17659.4375
236.91549	19693.1375
241.18261	21645.3375
245.44663	23398.8375
249.70755	24935.3375
253.96539	26241.0375
258.22014	27362.4375
262.4718	28329.5375
266.72039	29068.3375
270.96589	29451.0375
275.20832	29513.2375
279.44768	29263.8375
283.68397	28897.6375
287.91719	28517.4375
292.14735	28352.6375
296.37445	28433.9375
300.59849	28734.2375
304.81948	29157.7375
309.03742	29425.7375
313.25231	29205.7375
317.46415	28420.2375
321.67296	27293.9375
325.87872	26331.8375
330.08145	25930.3375
334.28114	25896.5375
338.47781	26219.5375
342.67145	26670.6375
346.86207	27336.9375
351.04966	28258.7375
355.23424	29279.5375
359.4158	30152.7375
363.59435	30689.3375
367.76989	31004.7375
371.94243	31165.5375
376.11196	31215.1375
380.27849	31237.2375
384.44203	31271.9375
388.60257	31303.3375
392.76012	31455.8375
396.91468	31774.1375
401.06626	32356.9375
405.21485	32831.4375
409.36047	32664.7375
413.50311	31911.9375
417.64277	31182.0375
421.77947	30892.1375
425.9132	30788.4375
430.04396	30952.6375
434.17176	31101.6375
438.2966	31401.3375
442.41849	32023.7375
446.53742	32844.7375
450.6534	33726.4375
454.76644	34401.5375
458.87653	34742.2375
462.98368	34630.8375
467.08789	34202.0375
471.18916	33522.5375
475.2875	32865.7375
479.38291	32415.2375
483.4754	32049.5375
487.56496	31734.7375
491.6516	31416.9375
495.73531	31127.3375
499.81612	30969.8375
503.89401	31087.8375
507.96899	31224.0375
512.04106	31412.1375
516.11023	31555.2375
520.1765	31713.1375
524.23987	31616.6375
528.30034	31336.3375
532.35792	30956.2375
536.41261	30460.8375
540.46441	30022.4375
544.51333	29896.6375
548.55936	30107.1375
552.60252	30576.0375
556.64279	31068.4375
560.6802	31348.4375
564.71473	31604.5375
568.7464	32159.8375
572.7752	32704.7375
576.80114	32754.9375
580.82422	32663.4375
584.84444	32890.2375
588.86181	33138.4375
592.87633	33608.8375
596.888	34169.5375
600.89682	34959.1375
604.9028	37065.4375
608.90594	42176.6375
612.90624	47936.4375
616.90371	45692.8375
620.89834	36889.2375
624.89015	32876.3375
628.87913	32192.9375
632.86528	32096.2375
636.84862	31900.6375
640.82913	31366.8375
644.80683	30500.1375
648.78172	29834.9375
652.75379	29726.0375
656.72306	30301.5375
660.68952	31141.1375
664.65319	30968.0375
668.61405	30240.4375
672.57211	29927.4375
676.52738	29829.5375
680.47986	29853.4375
684.42955	29755.5375
688.37646	29688.2375
692.32058	29881.0375
696.26192	30118.4375
700.20048	30433.9375
704.13626	30620.2375
708.06928	30517.4375
711.99952	30222.8375
715.927	30174.8375
719.85171	30196.6375
723.77365	30104.2375
727.69284	29810.8375
731.60928	29543.4375
735.52295	29504.7375
739.43388	29596.2375
743.34206	29754.1375
747.24749	29869.6375
751.15017	30107.4375
755.05012	30579.9375
758.94733	31453.6375
762.8418	33275.0375
766.73354	36266.0375
770.62254	39464.6375
774.50882	40763.0375
778.39237	39109.6375
782.27321	35703.7375
786.15132	32773.7375
790.02671	31056.7375
793.89938	30263.8375
797.76935	29903.7375
801.6366	29800.6375
805.50115	29645.8375
809.36299	29523.9375
813.22213	29338.0375
817.07857	29282.4375
820.93231	29252.3375
824.78336	29245.7375
828.63172	29291.9375
832.47738	29380.7375
836.32036	29464.4375
840.16066	29620.7375
843.99827	29681.2375
847.8332	29558.3375
851.66546	29443.5375
855.49504	29365.0375
859.32195	29319.0375
863.1462	29194.6375
866.96777	29037.2375
870.78668	28958.4375
874.60293	28970.8375
878.41652	28996.2375
882.22745	29137.8375
886.03573	29195.9375
889.84136	29202.9375
893.64433	29033.9375
897.44466	28928.1375
901.24235	28876.1375
905.0374	28881.8375
908.8298	28836.9375
912.61957	28852.6375
916.40671	29002.5375
920.19121	29346.6375
923.97308	29780.1375
927.75233	30140.2375
931.52895	30250.9375
935.30295	30014.4375
939.07433	29377.2375
942.84309	28870.9375
946.60924	28636.8375
950.37278	28487.2375
954.13371	28195.3375
957.89203	28025.1375
961.64774	27897.3375
965.40086	27839.7375
969.15137	27732.2375
972.89929	27654.9375
976.64461	27643.2375
980.38733	27683.8375
984.12747	27858.8375
987.86502	28089.6375
991.59999	28569.0375
995.33237	29153.9375
999.06217	30148.7375
1002.78939	31331.7375
1006.51404	32059.0375
1010.23611	32483.1375
1013.95561	32673.4375
1017.67255	32565.7375
1021.38692	32192.2375
1025.09872	32008.9375
1028.80796	32486.4375
1032.51465	33681.0375
1036.21877	34747.3375
1039.92035	34878.8375
1043.61937	34219.9375
1047.31584	33099.6375
1051.00976	31851.7375
1054.70114	31114.5375
1058.38998	30845.3375
1062.07627	30862.1375
1065.76003	30967.6375
1069.44126	31194.1375
1073.11995	31626.2375
1076.79611	31945.0375
1080.46974	32258.6375
1084.14085	32481.0375
1087.80943	32824.8375
1091.47549	32862.2375
1095.13903	32465.6375
1098.80005	31774.0375
1102.45857	31119.6375
1106.11456	30747.3375
1109.76805	30741.9375
1113.41903	30975.9375
1117.06751	31371.5375
1120.71348	31844.8375
1124.35696	32338.1375
1127.99793	32809.2375
1131.63641	33021.1375
1135.2724	32506.5375
1138.90589	31859.8375
1142.5369	31504.3375
1146.16542	31116.7375
1149.79145	31011.9375
1153.415	31033.7375
1157.03607	31310.6375
1160.65467	31820.1375
1164.27079	32761.1375
1167.88443	34181.6375
1171.49561	36322.4375
1175.10432	39428.3375
1178.71056	43563.1375
1182.31434	47296.1375
1185.91565	49263.0375
1189.51451	49035.4375
1193.11091	47056.7375
1196.70485	44236.9375
1200.29634	41827.3375
1203.88538	39956.3375
1207.47197	38345.5375
1211.05612	37136.4375
1214.63782	36524.0375
1218.21708	36434.7375
1221.79391	36592.4375
1225.36829	36880.0375
1228.94024	36873.0375
1232.50976	36502.3375
1236.07685	36246.4375
1239.6415	36098.1375
1243.20374	35974.4375
1246.76355	36068.2375
1250.32093	36456.1375
1253.8759	37199.5375
1257.42845	38309.1375
1260.97859	39382.2375
1264.52631	40319.1375
1268.07163	41333.5375
1271.61453	42513.3375
1275.15503	43790.1375
1278.69312	44957.7375
1282.22882	45849.9375
1285.76211	46636.9375
1289.29301	47413.8375
1292.82151	48402.5375
1296.34761	49668.0375
1299.87133	51648.0375
1303.39266	54583.9375
1306.9116	58791.9375
1310.42815	63448.7375
1313.94233	66521.3375
1317.45412	66620.8375
1320.96354	64478.8375
1324.47058	61722.1375
1327.97525	59219.3375
1331.47754	57279.5375
1334.97747	56516.0375
1338.47502	56493.4375
1341.97022	56856.7375
1345.46305	56930.8375
1348.95352	56897.9375
1352.44163	57497.4375
1355.92738	59517.9375
1359.41078	63795.0375
1362.89183	68385.4375
1366.37053	67796.1375
1369.84688	61122.3375
1373.32088	53499.9375
1376.79254	48307.7375
1380.26186	45817.1375
1383.72883	44792.7375
1387.19347	44062.1375
1390.65578	43165.2375
1394.11575	42786.2375
1397.57339	42957.4375
1401.0287	43605.3375
1404.48168	44402.2375
1407.93234	45059.5375
1411.38068	45455.0375
1414.82669	45230.5375
1418.27039	44242.4375
1421.71177	43028.9375
1425.15083	41899.0375
1428.58758	41187.8375
1432.02203	41110.6375
1435.45416	41357.8375
1438.88399	41831.0375
1442.31151	42163.4375
1445.73673	42566.8375
1449.15965	42902.8375
1452.58027	43091.8375
1455.9986	42973.6375
1459.41463	43042.6375
1462.82837	43497.5375
1466.23982	44209.7375
1469.64898	44949.9375
1473.05586	45368.4375
1476.46045	45614.2375
1479.86276	45800.1375
1483.26279	46012.6375
1486.66054	46356.5375
1490.05602	47069.6375
1493.44922	47923.1375
1496.84016	48829.4375
1500.22882	50218.8375
1503.61521	52303.5375
1506.99934	55025.2375
1510.38121	57896.5375
1513.76081	59273.0375
1517.13816	57882.7375
1520.51324	54153.7375
1523.88607	50184.6375
1527.25665	47417.1375
1530.62498	45759.4375
1533.99105	44785.7375
1537.35488	44100.0375
1540.71647	43625.7375
1544.07581	43339.1375
1547.4329	42963.7375
1550.78776	42616.9375
1554.14038	42544.4375
1557.49077	42633.9375
1560.83892	42814.0375
1564.18484	43057.8375
1567.52853	43198.4375
1570.86999	43503.4375
1574.20922	43918.7375
1577.54624	44353.4375
1580.88103	44104.8375
1584.2136	43717.0375
1587.54395	44015.6375
1590.87208	45521.5375
1594.19801	48092.0375
1597.52172	50945.7375
1600.84321	51986.5375
1604.16251	50117.0375
1607.47959	46651.2375
1610.79447	42836.6375
1614.10715	39494.5375
1617.41763	36826.7375
1620.7259	35172.5375
1624.03199	34376.9375
1627.33587	34629.8375
1630.63757	35640.4375
1633.93707	37524.2375
1637.23439	40205.6375
1640.52951	43474.3375
1643.82246	46980.5375
1647.11321	49824.2375
1650.40179	50662.8375
1653.68819	48292.6375
1656.97241	43102.4375
1660.25446	37587.2375
1663.53433	33541.4375
1666.81203	31026.3375
1670.08756	29454.1375
1673.36092	28466.4375
1676.63211	27815.0375
1679.90115	27349.2375
1683.16801	27013.2375
1686.43272	26765.4375
1689.69527	26620.6375
1692.95567	26458.7375
1696.2139	26405.7375
1699.46999	26312.7375
1702.72392	26242.6375
1705.97571	26248.7375
1709.22535	26215.8375
1712.47284	26225.2375
1715.71819	26237.5375
1718.96139	26121.0375
1722.20246	26083.9375
1725.44139	25954.5375
1728.67818	25901.8375
1731.91284	25710.3375
1735.14537	25617.6375
1738.37576	25513.7375
1741.60403	25438.4375
1744.83017	25379.4375
1748.05418	25312.0375
1751.27607	25292.9375
1754.49584	25249.9375
1757.71349	25196.4375
1760.92903	25171.7375
1764.14244	25179.1375
1767.35375	25219.0375
1770.56294	25137.1375
1773.77002	25089.9375
1776.97499	25054.9375
1780.17785	25029.0375
1783.37861	24960.9375
1786.57727	24960.5375
1789.77382	24989.3375
1792.96828	24986.2375
1796.16064	24946.4375
1799.3509	24938.6375
1802.53907	24920.7375
1805.72514	24829.4375
1808.90913	24775.4375
1812.09102	24749.5375
1815.27083	24662.2375
1818.44856	24640.2375
1821.6242	24609.4375
1824.79776	24585.9375
1827.96924	24581.7375
1831.13864	24589.3375
1834.30597	24592.0375
1837.47122	24591.5375
1840.6344	24601.8375
1843.7955	24597.1375
1846.95454	24607.2375
1850.11151	24588.6375
1853.26642	24625.1375
1856.41926	24652.2375
1859.57004	24684.3375
1862.71876	24648.5375
1865.86542	24660.0375
1869.01003	24687.7375
1872.15258	24658.2375
1875.29308	24732.4375
1878.43152	24696.4375
1881.56792	24758.6375
1884.70227	24719.1375
1887.83457	24801.5375
1890.96482	24738.0375
1894.09304	24774.7375
1897.21921	24762.2375
1900.34335	24734.1375
1903.46544	24737.6375
1906.58551	24745.5375
1909.70353	24760.5375
1912.81953	24737.4375
1915.93349	24675.1375
1919.04543	24606.7375
1922.15534	24564.4375
1925.26322	24495.3375
1928.36908	24403.2375
1931.47292	24381.3375
1934.57473	24324.5375
1937.67453	24206.6375
1940.77232	24086.4375
1943.86808	24010.8375
1946.96184	23948.6375
1950.05358	23815.7375
1953.14331	23740.4375
1956.23103	23642.6375
1959.31675	23585.5375
1962.40046	23481.1375
1965.48217	23406.7375
1968.56188	23401.0375
1971.63959	23326.1375
1974.7153	23248.1375
1977.78901	23167.9375
1980.86073	23078.1375
1983.93046	22998.1375
1986.99819	22927.5375
1990.06394	22859.4375
1993.1277	22794.7375
1996.18947	22719.0375
1999.24925	22690.7375
2002.30706	22590.0375
2005.36288	22519.8375
2008.41672	22525.1375
2011.46859	22421.7375
2014.51848	22370.4375
2017.56639	22315.1375
2020.61233	22289.7375
2023.6563	22297.2375
2026.6983	22234.6375
2029.73833	22190.6375
2032.7764	22137.4375
2035.8125	22106.8375
2038.84664	22101.6375
2041.87881	22102.7375
2044.90903	22045.0375
2047.93729	22013.2375
2050.96359	21979.8375
2053.98794	21963.9375
2057.01034	21945.4375
2060.03078	21921.2375
2063.04927	21860.0375
2066.06582	21846.5375
2069.08042	21842.3375
2072.09307	21836.3375
2075.10378	21770.7375
2078.11255	21763.2375
2081.11938	21756.3375
2084.12426	21739.8375
2087.12722	21730.5375
2090.12824	21754.3375
2093.12732	21735.3375
2096.12447	21727.4375
2099.11969	21745.4375
2102.11299	21734.3375
2105.10435	21748.4375
2108.09379	21751.4375
2111.08131	21772.0375
2114.0669	21755.9375
2117.05057	21785.9375
2120.03233	21801.3375
2123.01216	21805.9375
2125.99008	21814.9375
2128.96609	21858.3375
2131.94018	21856.9375
2134.91236	21869.3375
2137.88263	21887.1375
2140.851	21915.1375
2143.81746	21963.0375
2146.78201	21920.0375
2149.74466	21960.2375
2152.7054	21967.2375
2155.66425	21932.9375
2158.6212	21969.6375
2161.57625	21976.4375
2164.52941	21931.5375
2167.48067	21935.4375
2170.43004	21949.1375
2173.37752	21935.0375
2176.32311	21944.7375
2179.26681	21921.9375
2182.20863	21945.1375
2185.14856	21994.1375
2188.08661	21961.2375
2191.02278	21995.2375
2193.95707	21952.6375
2196.88948	21956.0375
2199.82001	21987.1375
2202.74867	21969.2375
2205.67545	21959.1375
2208.60037	21955.3375
2211.52341	21955.9375
2214.44458	21920.4375
2217.36388	21907.0375
2220.28132	21873.2375
2223.1969	21846.6375
2226.11061	21809.1375
2229.02246	21771.4375
2231.93245	21716.8375
2234.84058	21656.5375
2237.74686	21675.5375
2240.65128	21662.5375
2243.55385	21598.6375
2246.45456	21589.1375
2249.35343	21541.6375
2252.25044	21573.4375
2255.14561	21481.9375
2258.03893	21479.9375
2260.93041	21421.6375
2263.82004	21397.0375
2266.70783	21371.5375
2269.59378	21332.0375
2272.4779	21272.6375
2275.36017	21204.3375
2278.24061	21204.3375
2281.11922	21136.5375
2283.996	21143.7375
2286.87094	21153.4375
2289.74405	21068.2375
2292.61534	21068.5375
2295.4848	21054.4375
2298.35243	21049.7375
2301.21824	21053.5375
2304.08223	21034.8375
2306.94439	21117.3375
2309.80474	21119.6375
2312.66327	21118.7375
2315.51999	21133.9375
2318.37489	21170.8375
2321.22797	21091.4375
2324.07925	21097.2375
2326.92871	21093.9375
2329.77637	21138.7375
2332.62222	21065.4375
2335.46626	21092.2375
2338.3085	21050.6375
2341.14893	21048.4375
2343.98756	21121.5375
2346.8244	21089.3375
2349.65943	21099.7375
2352.49267	21071.7375
2355.32411	21050.1375
2358.15376	21061.7375
2360.98161	21026.8375
2363.80768	20999.5375
2366.63195	20943.6375
2369.45444	20928.7375
2372.27514	20900.2375
2375.09405	20856.2375
2377.91118	20814.9375
2380.72652	20782.0375
2383.54009	20720.6375
2386.35187	20687.7375
2389.16188	20652.2375
2391.97011	20583.9375
2394.77657	20612.3375
2397.58125	20555.2375
2400.38416	20547.9375
2403.18529	20483.0375
2405.98466	20464.2375
2408.78226	20428.9375
2411.57809	20381.9375
2414.37216	20322.3375
2417.16446	20294.6375
2419.955	20259.5375
2422.74378	20249.5375
2425.5308	20238.0375
2428.31606	20221.0375
2431.09956	20209.8375
2433.88131	20165.2375
2436.6613	20204.4375
2439.43954	20188.8375
2442.21603	20141.9375
2444.99077	20143.1375
2447.76377	20171.5375
2450.53501	20142.6375
2453.30451	20166.3375
2456.07226	20119.0375
2458.83827	20148.7375
2461.60254	20136.3375
2464.36507	20127.7375
2467.12586	20126.0375
2469.88492	20154.7375
2472.64224	20161.1375
2475.39782	20138.5375
2478.15167	20163.7375
2480.90379	20158.9375
2483.65417	20183.0375
2486.40283	20199.1375
2489.14976	20177.0375
2491.89497	20193.7375
2494.63845	20207.5375
2497.3802	20177.3375
2500.12024	20233.2375
2502.85855	20201.7375
2505.59514	20169.5375
2508.33002	20161.1375
2511.06318	20125.9375
2513.79462	20120.0375
2516.52435	20094.2375
2519.25237	20062.1375
2521.97867	20033.9375
2524.70327	20011.1375
2527.42616	19965.2375
2530.14734	19994.8375
2532.86681	19989.1375
2535.58458	19964.3375
2538.30065	19934.2375
2541.01501	19966.6375
2543.72768	19883.8375
2546.43864	19936.3375
2549.14791	19875.7375
2551.85548	19892.3375
2554.56136	19900.1375
2557.26554	19876.7375
2559.96803	19863.1375
2562.66883	19827.6375
2565.36794	19841.7375
2568.06536	19833.6375
2570.7611	19787.4375
2573.45514	19761.3375
2576.14751	19745.5375
2578.83819	19733.4375
2581.52719	19753.1375
2584.21451	19739.4375
2586.90015	19754.5375
2589.58411	19704.6375
2592.2664	19694.9375
2594.94701	19667.1375
2597.62594	19674.9375
2600.30321	19674.3375
2602.9788	19666.2375
2605.65273	19628.2375
2608.32498	19625.4375
2610.99557	19636.0375
2613.66449	19640.3375
2616.33175	19621.7375
2618.99734	19638.3375
2621.66128	19608.2375
2624.32355	19626.9375
2626.98416	19625.3375
2629.64311	19656.3375
2632.30041	19666.1375
2634.95605	19620.2375
2637.61004	19597.8375
2640.26238	19570.8375
2642.91306	19566.9375
2645.56209	19504.3375
2648.20948	19469.8375
2650.85521	19458.5375
2653.4993	19459.5375
2656.14175	19454.1375
2658.78255	19450.5375
2661.42171	19488.8375
2664.05923	19462.8375
2666.6951	19486.1375
2669.32934	19530.7375
2671.96194	19507.2375
2674.59291	19542.8375
2677.22224	19507.8375
2679.84993	19561.5375
2682.476	19517.7375
2685.10043	19497.3375
2687.72324	19475.2375
2690.34441	19495.9375
2692.96396	19446.4375
2695.58188	19460.2375
2698.19818	19438.9375
2700.81285	19464.3375
2703.4259	19405.0375
2706.03733	19413.1375
2708.64714	19445.0375
2711.25533	19422.3375
2713.86191	19409.3375
2716.46687	19457.9375
2719.07021	19453.7375
2721.67194	19489.3375
2724.27206	19437.5375
2726.87057	19481.2375
2729.46747	19452.9375
2732.06276	19497.4375
2734.65644	19441.1375
2737.24852	19461.8375
2739.83899	19444.9375
2742.42786	19465.6375
2745.01513	19444.4375
2747.60079	19461.2375
2750.18486	19422.4375
2752.76733	19413.2375
2755.3482	19430.1375
2757.92747	19428.9375
2760.50515	19443.2375
2763.08123	19400.0375
2765.65573	19389.3375
2768.22863	19402.3375
2770.79994	19398.3375
2773.36967	19374.8375
2775.9378	19343.1375
2778.50435	19377.6375
2781.06932	19328.4375
2783.6327	19298.6375
2786.1945	19305.1375
2788.75471	19319.3375
2791.31335	19268.7375
2793.87041	19251.0375
2796.42589	19206.7375
2798.97979	19184.3375
2801.53212	19127.0375
2804.08288	19090.6375
2806.63206	19079.6375
2809.17967	19081.0375
2811.72571	19039.3375
2814.27018	19045.0375
2816.81308	19040.5375
2819.35442	19020.4375
2821.89419	18977.4375
2824.43239	18994.2375
2826.96904	18972.9375
2829.50412	18983.4375
2832.03763	18914.2375
2834.56959	18933.8375
2837.1	18922.7375
2839.62884	18920.8375
2842.15613	18929.0375
2844.68186	18978.6375
2847.20604	18951.8375
2849.72867	18964.7375
2852.24974	18951.9375
2854.76927	18925.6375
2857.28724	18911.0375
2859.80367	18921.6375
2862.31855	18880.9375
2864.83189	18894.3375
2867.34368	18850.0375
2869.85393	18887.8375
2872.36264	18881.4375
2874.8698	18919.6375
2877.37543	18918.9375
2879.87952	18907.4375
2882.38207	18937.8375
2884.88308	18879.3375
2887.38256	18937.7375
2889.88051	18925.7375
2892.37692	18970.8375
2894.8718	18952.5375
2897.36515	18987.1375
2899.85698	18958.0375
2902.34727	19017.4375
2904.83604	19001.0375
2907.32328	19054.5375
2909.809	19020.7375
2912.29319	19031.1375
2914.77587	19054.7375
2917.25702	19004.8375
2919.73665	18990.3375
2922.21476	19017.9375
2924.69136	19001.8375
2927.16644	19001.1375
2929.64	18923.8375
2932.11205	18923.0375
2934.58258	18878.0375
2937.05161	18878.0375
2939.51912	18860.2375
2941.98513	18841.6375
2944.44962	18777.0375
2946.91261	18720.4375
2949.37409	18773.5375
2951.83407	18722.9375
2954.29254	18691.9375
2956.74951	18650.2375
2959.20498	18651.3375
2961.65895	18620.8375
2964.11142	18584.9375
2966.56239	18504.8375
2969.01186	18506.9375
2971.45984	18441.0375
2973.90632	18424.0375
2976.35131	18356.2375
2978.7948	18304.1375
2981.23681	18271.8375
2983.67732	18206.9375
2986.11635	18211.1375
2988.55388	18164.5375
2990.98993	18109.2375
2993.4245	18052.6375
2995.85758	18027.6375
2998.28917	18011.5375
3000.71928	18024.3375
3003.14791	17960.7375
3005.57506	17931.6375
3008.00073	17882.0375
3010.42493	17894.3375
3012.84764	17868.1375
3015.26888	17853.0375
3017.68865	17815.3375
3020.10694	17775.2375
3022.52376	17724.1375
3024.9391	17697.0375
3027.35298	17691.7375
3029.76539	17621.4375
3032.17632	17653.4375
3034.5858	17616.3375
3036.9938	17588.3375
3039.40034	17589.0375
3041.80542	17587.5375
3044.20903	17506.8375
3046.61118	17478.2375
3049.01187	17446.8375
3051.4111	17426.4375
3053.80888	17387.8375
3056.20519	17369.0375
3058.60005	17306.3375
3060.99345	17289.6375
3063.3854	17252.1375
3065.7759	17197.4375
3068.16494	17175.3375
3070.55254	17126.8375
3072.93868	17136.5375
3075.32338	17078.2375
3077.70662	17034.7375
3080.08842	17005.9375
3082.46878	16989.3375
3084.84769	16944.1375
3087.22515	16928.6375
3089.60118	16939.1375
3091.97576	16917.8375
3094.3489	16933.8375
3096.72061	16916.5375
3099.09087	16901.4375
3101.4597	16881.5375
3103.82709	16867.9375
3106.19305	16834.2375
3108.55757	16826.2375
3110.92066	16776.3375
3113.28232	16767.0375
3115.64255	16704.0375
3118.00134	16680.8375
3120.35871	16659.2375
3122.71466	16642.4375
3125.06917	16595.6375
3127.42226	16590.5375
3129.77393	16611.2375
3132.12417	16587.4375
3134.47299	16595.2375
3136.82039	16592.9375
3139.16636	16592.1375
3141.51092	16575.2375
3143.85406	16566.2375
3146.19579	16552.4375
3148.53609	16563.4375
3150.87499	16573.0375
3153.21246	16598.4375
3155.54853	16621.3375
3157.88318	16576.7375
3160.21642	16614.1375
3162.54826	16533.9375
3164.87868	16580.4375
3167.2077	16514.2375
3169.5353	16512.4375
3171.86151	16500.4375
3174.18631	16478.4375
3176.5097	16472.1375
3178.83169	16477.4375
3181.15228	16456.5375
3183.47147	16413.8375
3185.78926	16439.5375
3188.10565	16419.6375
3190.42065	16410.3375
3192.73424	16459.8375
3195.04645	16437.1375
3197.35725	16431.3375
3199.66667	16411.3375
3201.97469	16450.3375
3204.28132	16423.0375
3206.58656	16445.6375
3208.8904	16440.3375
3211.19287	16456.5375
3213.49394	16423.3375
3215.79363	16426.4375
3218.09193	16439.7375
3220.38884	16410.3375
3222.68438	16422.4375
3224.97853	16399.3375
3227.2713	16367.9375
3229.56269	16374.5375
3231.8527	16370.9375
3234.14133	16336.3375
3236.42858	16339.8375
3238.71446	16311.5375
3240.99896	16280.8375
3243.28209	16270.3375
3245.56384	16254.8375
3247.84423	16283.3375
3250.12324	16261.7375
3252.40088	16271.2375
3254.67715	16240.2375
3256.95205	16222.5375
3259.22558	16183.9375
3261.49775	16183.6375
3263.76855	16168.9375
3266.03799	16152.1375
3268.30606	16137.0375
3270.57277	16103.8375
3272.83812	16075.9375
3275.10211	16063.2375
3277.36474	16064.6375
3279.62601	16053.0375
3281.88593	16014.7375
3284.14448	16009.5375
3286.40168	16009.8375
3288.65753	15973.2375
3290.91202	15939.3375
3293.16516	15903.1375
3295.41695	15915.2375
3297.66738	15782.1375
3299.91647	15719.1375
3302.16421	15632.6375
3304.4106	15619.6375
3306.65564	15526.8375
3308.89933	15430.9375
3311.14169	15343.2375
3313.38269	15202.2375
3315.62236	15125.6375
3317.86068	15014.5375
3320.09766	14896.9375
3322.3333	14758.9375
3324.5676	14732.0375
3326.80056	14493.2375
3329.03219	14434.0375
3331.26248	4.0375
3333.49143	0.9375
3335.71905	-0.5625
