Data from AgNPs_FTO_APTES_UA_50uM_R6G_10uM_NaF_0.1M_Addition_RamanShift__4__14-40-57-399.txt Node

Date: Fri Dec 17 14:40:57 GMT 2021
User: TCL
Spectrometer: QEP01345
Trigger mode: 4
Integration Time (sec): 7.000000E0
Scans to average: 10
Electric dark correction enabled: true
Nonlinearity correction enabled: false
Boxcar width: 0
XAxis mode: Raman Shifts
Number of Pixels in Spectrum: 1044
>>>>>Begin Spectral Data<<<<<
46.04893	-1.075
50.45542	0.825
54.85868	-1.475
59.25871	-0.375
63.6555	94.125
68.04907	100.625
72.43941	107.225
76.82654	108.825
81.21044	112.225
85.59113	116.725
89.96862	121.425
94.34289	122.525
98.71396	127.525
103.08183	130.525
107.4465	130.825
111.80798	137.425
116.16626	142.325
120.52136	145.725
124.87327	153.025
129.222	160.925
133.56755	169.325
137.90993	187.625
142.24913	203.325
146.58517	225.625
150.91804	255.925
155.24774	308.425
159.57429	388.525
163.89768	494.925
168.21792	645.825
172.53501	875.125
176.84895	1213.925
181.15975	1719.025
185.46741	2402.325
189.77193	3314.525
194.07331	4434.525
198.37157	5728.425
202.6667	7084.525
206.9587	8418.325
211.24758	9736.325
215.53334	11029.625
219.81599	12413.025
224.09553	13944.325
228.37195	15649.025
232.64527	17481.325
236.91549	19503.425
241.18261	21463.625
245.44663	23342.725
249.70755	25040.525
253.96539	26571.825
258.22014	27858.325
262.4718	28813.625
266.72039	29469.025
270.96589	29815.725
275.20832	29852.225
279.44768	29660.725
283.68397	29320.225
287.91719	29027.925
292.14735	28777.225
296.37445	28677.925
300.59849	28763.825
304.81948	28868.925
309.03742	28890.625
313.25231	28682.925
317.46415	28276.425
321.67296	27706.525
325.87872	27237.425
330.08145	26996.325
334.28114	26966.525
338.47781	27199.125
342.67145	27508.925
346.86207	27916.425
351.04966	28393.125
355.23424	28952.925
359.4158	29488.925
363.59435	29880.225
367.76989	30194.725
371.94243	30368.125
376.11196	30591.525
380.27849	30718.125
384.44203	30851.125
388.60257	31106.925
392.76012	31397.025
396.91468	31790.725
401.06626	32245.025
405.21485	32618.025
409.36047	32577.725
413.50311	32310.425
417.64277	32127.925
421.77947	32101.225
425.9132	32170.425
430.04396	32286.725
434.17176	32402.525
438.2966	32561.325
442.41849	32844.925
446.53742	33438.425
450.6534	34134.825
454.76644	34652.425
458.87653	34982.225
462.98368	34941.725
467.08789	34649.225
471.18916	34208.825
475.2875	33704.125
479.38291	33320.325
483.4754	32972.425
487.56496	32717.525
491.6516	32427.825
495.73531	32332.425
499.81612	32341.425
503.89401	32654.325
507.96899	32821.025
512.04106	32856.825
516.11023	32780.225
520.1765	32556.125
524.23987	32318.025
528.30034	32052.125
532.35792	31833.425
536.41261	31489.425
540.46441	31232.125
544.51333	31183.625
548.55936	31432.425
552.60252	31815.625
556.64279	32300.625
560.6802	32728.525
564.71473	32928.225
568.7464	33215.025
572.7752	33748.525
576.80114	34405.925
580.82422	35196.825
584.84444	36155.825
588.86181	37081.325
592.87633	37555.525
596.888	37310.825
600.89682	36840.325
604.9028	37552.825
608.90594	40121.225
612.90624	42708.325
616.90371	40545.125
620.89834	35269.125
624.89015	32893.125
628.87913	32567.225
632.86528	32668.525
636.84862	32642.325
640.82913	32262.625
644.80683	31723.825
648.78172	31301.525
652.75379	31251.625
656.72306	31585.925
660.68952	32063.725
664.65319	31898.925
668.61405	31529.325
672.57211	31491.925
676.52738	31611.525
680.47986	31624.425
684.42955	31440.925
688.37646	31289.225
692.32058	31548.325
696.26192	31907.925
700.20048	32292.425
704.13626	32432.325
708.06928	32323.725
711.99952	32077.225
715.927	32058.125
719.85171	32185.525
723.77365	32162.925
727.69284	31788.325
731.60928	31418.525
735.52295	31232.825
739.43388	31203.325
743.34206	31318.925
747.24749	31437.525
751.15017	31668.225
755.05012	31991.325
758.94733	32669.125
762.8418	33865.025
766.73354	35649.425
770.62254	37426.725
774.50882	37934.425
778.39237	36860.425
782.27321	34840.325
786.15132	33190.525
790.02671	32149.225
793.89938	31658.825
797.76935	31473.125
801.6366	31468.625
805.50115	31351.425
809.36299	31182.325
813.22213	31023.325
817.07857	30859.525
820.93231	30760.125
824.78336	30627.325
828.63172	30602.325
832.47738	30560.525
836.32036	30590.425
840.16066	30673.225
843.99827	30721.725
847.8332	30674.325
851.66546	30620.325
855.49504	30619.025
859.32195	30651.225
863.1462	30558.325
866.96777	30522.325
870.78668	30539.225
874.60293	30590.125
878.41652	30597.525
882.22745	30721.625
886.03573	30838.925
889.84136	30837.625
893.64433	30691.125
897.44466	30558.925
901.24235	30460.725
905.0374	30412.625
908.8298	30301.925
912.61957	30336.725
916.40671	30493.725
920.19121	30798.725
923.97308	31042.625
927.75233	31126.925
931.52895	31010.225
935.30295	30773.925
939.07433	30372.025
942.84309	30077.125
946.60924	29976.225
950.37278	29928.025
954.13371	29857.425
957.89203	29788.225
961.64774	29779.525
965.40086	29713.725
969.15137	29712.425
972.89929	29707.825
976.64461	29691.525
980.38733	29742.725
984.12747	29827.125
987.86502	30012.725
991.59999	30263.725
995.33237	30612.225
999.06217	31164.925
1002.78939	31884.125
1006.51404	32494.625
1010.23611	32921.625
1013.95561	33139.725
1017.67255	33103.325
1021.38692	32776.725
1025.09872	32452.125
1028.80796	32391.925
1032.51465	32798.525
1036.21877	33246.725
1039.92035	33477.725
1043.61937	33341.725
1047.31584	32957.925
1051.00976	32456.925
1054.70114	32187.725
1058.38998	32198.425
1062.07627	32367.525
1065.76003	32674.725
1069.44126	33040.025
1073.11995	33516.925
1076.79611	34044.825
1080.46974	34273.025
1084.14085	34361.025
1087.80943	34544.825
1091.47549	34774.525
1095.13903	34718.825
1098.80005	34403.425
1102.45857	33787.525
1106.11456	33347.025
1109.76805	33094.725
1113.41903	33024.325
1117.06751	33112.825
1120.71348	33275.325
1124.35696	33493.725
1127.99793	33743.725
1131.63641	33963.225
1135.2724	33887.425
1138.90589	33759.725
1142.5369	33723.625
1146.16542	33797.725
1149.79145	33881.625
1153.415	34014.425
1157.03607	34314.625
1160.65467	35022.725
1164.27079	36188.425
1167.88443	37606.625
1171.49561	39201.825
1175.10432	41170.925
1178.71056	43578.325
1182.31434	46096.725
1185.91565	47685.425
1189.51451	48014.925
1193.11091	47189.625
1196.70485	45818.225
1200.29634	44196.325
1203.88538	43010.125
1207.47197	42191.825
1211.05612	41543.025
1214.63782	40874.025
1218.21708	40095.925
1221.79391	39394.025
1225.36829	38848.625
1228.94024	38447.625
1232.50976	38104.625
1236.07685	37896.725
1239.6415	37816.225
1243.20374	37869.525
1246.76355	38179.925
1250.32093	38804.325
1253.8759	39461.525
1257.42845	40385.125
1260.97859	41410.225
1264.52631	42419.825
1268.07163	43545.725
1271.61453	44612.025
1275.15503	45579.125
1278.69312	46510.625
1282.22882	47200.625
1285.76211	47952.125
1289.29301	48778.525
1292.82151	50037.525
1296.34761	51701.525
1299.87133	53872.725
1303.39266	56434.425
1306.9116	58971.525
1310.42815	61080.225
1313.94233	62132.925
1317.45412	61778.025
1320.96354	60766.725
1324.47058	59978.125
1327.97525	59445.325
1331.47754	59174.825
1334.97747	59261.525
1338.47502	59385.325
1341.97022	59157.625
1345.46305	58701.625
1348.95352	58234.125
1352.44163	58179.525
1355.92738	58867.525
1359.41078	60599.925
1362.89183	62217.625
1366.37053	61261.925
1369.84688	57193.725
1373.32088	52112.325
1376.79254	48435.625
1380.26186	46847.825
1383.72883	46404.825
1387.19347	46190.625
1390.65578	45594.125
1394.11575	45078.925
1397.57339	45026.625
1401.0287	45427.525
1404.48168	46120.925
1407.93234	46518.025
1411.38068	46425.225
1414.82669	45694.325
1418.27039	44531.825
1421.71177	43278.425
1425.15083	42306.225
1428.58758	41843.625
1432.02203	42200.925
1435.45416	43027.625
1438.88399	44103.025
1442.31151	44853.425
1445.73673	45211.025
1449.15965	45276.025
1452.58027	45245.225
1455.9986	45147.125
1459.41463	45308.225
1462.82837	46000.925
1466.23982	46842.125
1469.64898	47618.825
1473.05586	48154.125
1476.46045	48313.325
1479.86276	48244.425
1483.26279	47895.225
1486.66054	47815.025
1490.05602	48078.425
1493.44922	48418.625
1496.84016	48969.525
1500.22882	49769.625
1503.61521	50986.125
1506.99934	52317.425
1510.38121	53420.525
1513.76081	53477.525
1517.13816	52353.625
1520.51324	50436.825
1523.88607	48803.625
1527.25665	47856.325
1530.62498	47397.725
1533.99105	47167.225
1537.35488	46793.925
1540.71647	46282.125
1544.07581	45546.425
1547.4329	44836.125
1550.78776	44314.825
1554.14038	43838.525
1557.49077	43584.325
1560.83892	43406.325
1564.18484	43356.425
1567.52853	43264.325
1570.86999	43501.925
1574.20922	44010.725
1577.54624	44536.325
1580.88103	44675.025
1584.2136	44833.425
1587.54395	45824.225
1590.87208	47645.825
1594.19801	50203.025
1597.52172	52616.125
1600.84321	53364.025
1604.16251	51592.625
1607.47959	48475.225
1610.79447	45097.825
1614.10715	41911.225
1617.41763	39297.325
1620.7259	37530.525
1624.03199	36538.225
1627.33587	36483.825
1630.63757	37177.725
1633.93707	38951.225
1637.23439	41849.825
1640.52951	45940.825
1643.82246	50442.725
1647.11321	53938.525
1650.40179	54182.225
1653.68819	50844.325
1656.97241	45336.525
1660.25446	40088.925
1663.53433	36176.625
1666.81203	33730.625
1670.08756	32147.925
1673.36092	31136.125
1676.63211	30483.825
1679.90115	30004.525
1683.16801	29642.325
1686.43272	29349.725
1689.69527	29150.325
1692.95567	28970.425
1696.2139	28903.525
1699.46999	28808.625
1702.72392	28714.325
1705.97571	28638.625
1709.22535	28639.025
1712.47284	28588.425
1715.71819	28556.025
1718.96139	28491.125
1722.20246	28397.125
1725.44139	28262.025
1728.67818	28163.725
1731.91284	28032.325
1735.14537	27957.225
1738.37576	27839.825
1741.60403	27774.825
1744.83017	27672.725
1748.05418	27591.725
1751.27607	27562.925
1754.49584	27539.825
1757.71349	27560.225
1760.92903	27497.025
1764.14244	27440.325
1767.35375	27475.525
1770.56294	27417.425
1773.77002	27435.825
1776.97499	27374.725
1780.17785	27317.825
1783.37861	27285.125
1786.57727	27296.125
1789.77382	27239.525
1792.96828	27182.325
1796.16064	27128.725
1799.3509	27107.425
1802.53907	27092.225
1805.72514	27007.025
1808.90913	26890.425
1812.09102	26902.525
1815.27083	26871.625
1818.44856	26803.425
1821.6242	26800.025
1824.79776	26751.425
1827.96924	26726.425
1831.13864	26731.725
1834.30597	26756.725
1837.47122	26760.725
1840.6344	26794.725
1843.7955	26774.225
1846.95454	26719.325
1850.11151	26773.825
1853.26642	26700.325
1856.41926	26740.525
1859.57004	26736.725
1862.71876	26687.925
1865.86542	26690.525
1869.01003	26694.025
1872.15258	26627.225
1875.29308	26567.325
1878.43152	26552.425
1881.56792	26547.125
1884.70227	26503.025
1887.83457	26525.625
1890.96482	26506.125
1894.09304	26456.225
1897.21921	26430.325
1900.34335	26426.425
1903.46544	26374.725
1906.58551	26333.725
1909.70353	26298.325
1912.81953	26315.725
1915.93349	26283.025
1919.04543	26214.725
1922.15534	26138.325
1925.26322	26105.425
1928.36908	26080.325
1931.47292	26003.925
1934.57473	25933.825
1937.67453	25893.825
1940.77232	25821.825
1943.86808	25740.725
1946.96184	25715.425
1950.05358	25664.525
1953.14331	25657.225
1956.23103	25592.225
1959.31675	25451.125
1962.40046	25441.225
1965.48217	25409.725
1968.56188	25283.625
1971.63959	25235.025
1974.7153	25149.525
1977.78901	25055.925
1980.86073	25007.925
1983.93046	24953.925
1986.99819	24875.225
1990.06394	24816.625
1993.1277	24739.125
1996.18947	24649.525
1999.24925	24620.025
2002.30706	24549.625
2005.36288	24438.025
2008.41672	24395.425
2011.46859	24389.325
2014.51848	24309.625
2017.56639	24246.025
2020.61233	24209.025
2023.6563	24149.225
2026.6983	24126.325
2029.73833	24065.525
2032.7764	24015.425
2035.8125	23981.525
2038.84664	23952.025
2041.87881	23926.425
2044.90903	23902.125
2047.93729	23851.025
2050.96359	23866.725
2053.98794	23819.225
2057.01034	23752.725
2060.03078	23740.625
2063.04927	23775.125
2066.06582	23731.425
2069.08042	23736.425
2072.09307	23721.025
2075.10378	23711.025
2078.11255	23678.225
2081.11938	23678.125
2084.12426	23683.025
2087.12722	23660.325
2090.12824	23620.025
2093.12732	23655.225
2096.12447	23685.025
2099.11969	23658.125
2102.11299	23649.625
2105.10435	23706.725
2108.09379	23727.425
2111.08131	23739.525
2114.0669	23755.325
2117.05057	23782.925
2120.03233	23792.025
2123.01216	23842.525
2125.99008	23806.425
2128.96609	23889.125
2131.94018	23913.925
2134.91236	23912.925
2137.88263	23926.525
2140.851	23942.125
2143.81746	23985.125
2146.78201	23959.825
2149.74466	23994.225
2152.7054	23989.025
2155.66425	23962.425
2158.6212	24009.425
2161.57625	24005.025
2164.52941	24008.125
2167.48067	23988.625
2170.43004	23989.925
2173.37752	23997.925
2176.32311	24002.425
2179.26681	23969.325
2182.20863	24006.825
2185.14856	23938.725
2188.08661	24003.225
2191.02278	23987.425
2193.95707	23969.125
2196.88948	23961.125
2199.82001	24022.225
2202.74867	23978.725
2205.67545	23984.325
2208.60037	23906.625
2211.52341	23873.525
2214.44458	23871.125
2217.36388	23812.025
2220.28132	23778.625
2223.1969	23766.025
2226.11061	23748.125
2229.02246	23696.025
2231.93245	23673.925
2234.84058	23632.225
2237.74686	23579.725
2240.65128	23558.725
2243.55385	23553.025
2246.45456	23517.725
2249.35343	23456.025
2252.25044	23457.825
2255.14561	23367.925
2258.03893	23381.525
2260.93041	23362.625
2263.82004	23307.125
2266.70783	23260.325
2269.59378	23223.725
2272.4779	23192.325
2275.36017	23076.325
2278.24061	23115.325
2281.11922	23094.425
2283.996	23025.525
2286.87094	23009.525
2289.74405	22941.225
2292.61534	22967.925
2295.4848	22948.325
2298.35243	22936.825
2301.21824	22944.625
2304.08223	22981.625
2306.94439	22938.925
2309.80474	22942.525
2312.66327	22944.925
2315.51999	22925.525
2318.37489	22917.325
2321.22797	22942.725
2324.07925	22902.725
2326.92871	22840.725
2329.77637	22864.925
2332.62222	22806.425
2335.46626	22819.425
2338.3085	22794.425
2341.14893	22806.725
2343.98756	22754.325
2346.8244	22745.725
2349.65943	22749.425
2352.49267	22758.025
2355.32411	22765.525
2358.15376	22760.125
2360.98161	22685.325
2363.80768	22699.025
2366.63195	22678.525
2369.45444	22648.425
2372.27514	22618.325
2375.09405	22572.725
2377.91118	22565.825
2380.72652	22491.125
2383.54009	22501.525
2386.35187	22467.625
2389.16188	22412.025
2391.97011	22355.525
2394.77657	22332.825
2397.58125	22304.025
2400.38416	22310.025
2403.18529	22257.325
2405.98466	22273.425
2408.78226	22211.925
2411.57809	22180.025
2414.37216	22185.125
2417.16446	22164.525
2419.955	22123.425
2422.74378	22112.725
2425.5308	22098.025
2428.31606	22117.225
2431.09956	22111.325
2433.88131	22086.925
2436.6613	22115.925
2439.43954	22059.025
2442.21603	22021.625
2444.99077	22028.225
2447.76377	22069.525
2450.53501	22003.625
2453.30451	22005.525
2456.07226	22000.125
2458.83827	21976.725
2461.60254	21966.225
2464.36507	21956.525
2467.12586	21960.325
2469.88492	21975.825
2472.64224	21988.625
2475.39782	21983.925
2478.15167	21926.925
2480.90379	21929.525
2483.65417	21946.525
2486.40283	21943.525
2489.14976	21950.725
2491.89497	21959.325
2494.63845	21963.625
2497.3802	21931.225
2500.12024	21968.825
2502.85855	21929.725
2505.59514	21969.025
2508.33002	21956.025
2511.06318	21900.625
2513.79462	21919.425
2516.52435	21871.225
2519.25237	21857.325
2521.97867	21846.125
2524.70327	21822.125
2527.42616	21816.125
2530.14734	21833.725
2532.86681	21787.025
2535.58458	21784.025
2538.30065	21732.425
2541.01501	21768.425
2543.72768	21715.725
2546.43864	21718.925
2549.14791	21695.825
2551.85548	21695.325
2554.56136	21630.525
2557.26554	21617.925
2559.96803	21634.525
2562.66883	21589.225
2565.36794	21600.225
2568.06536	21606.525
2570.7611	21545.625
2573.45514	21552.825
2576.14751	21497.725
2578.83819	21496.825
2581.52719	21461.925
2584.21451	21462.825
2586.90015	21477.925
2589.58411	21415.425
2592.2664	21384.625
2594.94701	21328.425
2597.62594	21361.625
2600.30321	21329.425
2602.9788	21339.625
2605.65273	21339.525
2608.32498	21299.225
2610.99557	21229.225
2613.66449	21266.225
2616.33175	21240.725
2618.99734	21267.625
2621.66128	21256.925
2624.32355	21197.425
2626.98416	21201.525
2629.64311	21203.525
2632.30041	21178.225
2634.95605	21181.025
2637.61004	21144.725
2640.26238	21140.525
2642.91306	21129.825
2645.56209	21104.425
2648.20948	21130.925
2650.85521	21108.325
2653.4993	21117.925
2656.14175	21095.925
2658.78255	21162.525
2661.42171	21149.025
2664.05923	21176.425
2666.6951	21130.725
2669.32934	21153.825
2671.96194	21174.725
2674.59291	21177.225
2677.22224	21177.925
2679.84993	21147.725
2682.476	21133.525
2685.10043	21125.825
2687.72324	21135.725
2690.34441	21150.725
2692.96396	21125.825
2695.58188	21129.325
2698.19818	21100.225
2700.81285	21142.325
2703.4259	21145.925
2706.03733	21158.325
2708.64714	21165.225
2711.25533	21175.325
2713.86191	21153.425
2716.46687	21216.725
2719.07021	21209.925
2721.67194	21185.425
2724.27206	21160.225
2726.87057	21205.325
2729.46747	21195.325
2732.06276	21201.925
2734.65644	21179.425
2737.24852	21181.325
2739.83899	21179.425
2742.42786	21210.625
2745.01513	21137.425
2747.60079	21182.225
2750.18486	21160.125
2752.76733	21163.325
2755.3482	21168.725
2757.92747	21129.025
2760.50515	21142.225
2763.08123	21125.625
2765.65573	21077.425
2768.22863	21066.625
2770.79994	21056.825
2773.36967	21048.125
2775.9378	21066.425
2778.50435	20994.425
2781.06932	20997.125
2783.6327	21012.825
2786.1945	20998.825
2788.75471	20962.825
2791.31335	20911.825
2793.87041	20896.925
2796.42589	20805.125
2798.97979	20825.025
2801.53212	20766.025
2804.08288	20804.825
2806.63206	20697.525
2809.17967	20684.825
2811.72571	20652.125
2814.27018	20643.325
2816.81308	20613.025
2819.35442	20558.325
2821.89419	20528.625
2824.43239	20517.125
2826.96904	20512.225
2829.50412	20507.925
2832.03763	20470.225
2834.56959	20445.825
2837.1	20447.825
2839.62884	20430.925
2842.15613	20362.725
2844.68186	20389.425
2847.20604	20370.625
2849.72867	20374.725
2852.24974	20345.825
2854.76927	20336.525
2857.28724	20309.525
2859.80367	20323.725
2862.31855	20266.025
2864.83189	20275.425
2867.34368	20225.225
2869.85393	20268.725
2872.36264	20246.825
2874.8698	20229.725
2877.37543	20215.425
2879.87952	20249.325
2882.38207	20256.825
2884.88308	20226.625
2887.38256	20242.625
2889.88051	20257.025
2892.37692	20260.825
2894.8718	20241.025
2897.36515	20271.525
2899.85698	20258.525
2902.34727	20350.425
2904.83604	20331.125
2907.32328	20322.925
2909.809	20275.925
2912.29319	20373.425
2914.77587	20361.825
2917.25702	20309.025
2919.73665	20318.825
2922.21476	20329.725
2924.69136	20267.425
2927.16644	20267.925
2929.64	20260.325
2932.11205	20237.225
2934.58258	20204.325
2937.05161	20228.025
2939.51912	20243.025
2941.98513	20209.225
2944.44962	20188.225
2946.91261	20106.725
2949.37409	20163.825
2951.83407	20122.825
2954.29254	20141.025
2956.74951	20115.225
2959.20498	20134.125
2961.65895	20100.025
2964.11142	20043.025
2966.56239	20022.425
2969.01186	20050.025
2971.45984	19990.225
2973.90632	19934.425
2976.35131	19884.525
2978.7948	19888.725
2981.23681	19841.325
2983.67732	19827.225
2986.11635	19768.925
2988.55388	19729.325
2990.98993	19707.125
2993.4245	19667.225
2995.85758	19640.925
2998.28917	19617.525
3000.71928	19560.625
3003.14791	19490.325
3005.57506	19524.725
3008.00073	19441.825
3010.42493	19458.925
3012.84764	19425.225
3015.26888	19406.825
3017.68865	19370.925
3020.10694	19353.825
3022.52376	19332.625
3024.9391	19284.025
3027.35298	19221.725
3029.76539	19212.625
3032.17632	19180.225
3034.5858	19147.625
3036.9938	19164.325
3039.40034	19163.425
3041.80542	19152.725
3044.20903	19102.125
3046.61118	19090.325
3049.01187	19061.225
3051.4111	19035.525
3053.80888	19004.425
3056.20519	18988.825
3058.60005	18966.925
3060.99345	18911.225
3063.3854	18915.025
3065.7759	18858.625
3068.16494	18826.425
3070.55254	18796.525
3072.93868	18771.225
3075.32338	18689.725
3077.70662	18694.125
3080.08842	18628.125
3082.46878	18619.325
3084.84769	18585.325
3087.22515	18609.825
3089.60118	18586.825
3091.97576	18568.325
3094.3489	18570.725
3096.72061	18566.925
3099.09087	18574.425
3101.4597	18504.625
3103.82709	18527.325
3106.19305	18456.425
3108.55757	18471.925
3110.92066	18416.825
3113.28232	18373.425
3115.64255	18338.125
3118.00134	18293.425
3120.35871	18282.625
3122.71466	18225.825
3125.06917	18229.025
3127.42226	18204.325
3129.77393	18206.725
3132.12417	18184.925
3134.47299	18159.125
3136.82039	18148.825
3139.16636	18185.025
3141.51092	18155.125
3143.85406	18153.225
3146.19579	18170.725
3148.53609	18168.225
3150.87499	18173.125
3153.21246	18174.925
3155.54853	18180.625
3157.88318	18160.425
3160.21642	18167.825
3162.54826	18159.125
3164.87868	18134.625
3167.2077	18147.025
3169.5353	18151.725
3171.86151	18124.125
3174.18631	18108.225
3176.5097	18045.425
3178.83169	18028.425
3181.15228	18036.725
3183.47147	17992.225
3185.78926	17990.125
3188.10565	17963.025
3190.42065	17955.525
3192.73424	17939.425
3195.04645	17952.225
3197.35725	17907.025
3199.66667	17907.325
3201.97469	17923.225
3204.28132	17938.325
3206.58656	17959.725
3208.8904	17939.725
3211.19287	17972.825
3213.49394	17955.025
3215.79363	17963.225
3218.09193	17905.025
3220.38884	17935.925
3222.68438	17941.325
3224.97853	17885.825
3227.2713	17906.825
3229.56269	17866.425
3231.8527	17853.225
3234.14133	17816.325
3236.42858	17793.825
3238.71446	17757.125
3240.99896	17759.725
3243.28209	17778.825
3245.56384	17738.825
3247.84423	17751.025
3250.12324	17734.125
3252.40088	17735.925
3254.67715	17649.525
3256.95205	17658.425
3259.22558	17673.525
3261.49775	17629.225
3263.76855	17578.125
3266.03799	17572.625
3268.30606	17569.525
3270.57277	17533.825
3272.83812	17512.325
3275.10211	17444.025
3277.36474	17419.525
3279.62601	17452.125
3281.88593	17430.825
3284.14448	17453.325
3286.40168	17448.225
3288.65753	17421.125
3290.91202	17378.925
3293.16516	17284.825
3295.41695	17286.225
3297.66738	17195.125
3299.91647	17078.125
3302.16421	16984.225
3304.4106	16947.525
3306.65564	16875.525
3308.89933	16727.725
3311.14169	16645.725
3313.38269	16542.625
3315.62236	16433.325
3317.86068	16284.225
3320.09766	16158.325
3322.3333	16017.825
3324.5676	16014.325
3326.80056	15767.625
3329.03219	15684.025
3331.26248	2.725
3333.49143	0.425
3335.71905	-0.175
