Data from AgNPs_FTO_APTES_UA_200uM_R6G_10uM_NaF_0.1M_Addition_RamanShift__35__16-41-07-536.txt Node

Date: Fri Dec 17 16:41:07 GMT 2021
User: TCL
Spectrometer: QEP01345
Trigger mode: 4
Integration Time (sec): 7.000000E0
Scans to average: 10
Electric dark correction enabled: true
Nonlinearity correction enabled: false
Boxcar width: 0
XAxis mode: Raman Shifts
Number of Pixels in Spectrum: 1044
>>>>>Begin Spectral Data<<<<<
46.04893	0.8625
50.45542	-0.5375
54.85868	-2.2375
59.25871	0.6625
63.6555	42.4625
68.04907	41.8625
72.43941	43.6625
76.82654	48.5625
81.21044	49.7625
85.59113	52.2625
89.96862	57.0625
94.34289	56.2625
98.71396	58.9625
103.08183	59.7625
107.4465	62.1625
111.80798	61.2625
116.16626	64.4625
120.52136	65.0625
124.87327	68.7625
129.222	71.0625
133.56755	71.7625
137.90993	77.6625
142.24913	83.8625
146.58517	88.9625
150.91804	101.3625
155.24774	118.3625
159.57429	149.2625
163.89768	183.8625
168.21792	236.8625
172.53501	317.5625
176.84895	438.1625
181.15975	619.1625
185.46741	859.6625
189.77193	1187.1625
194.07331	1589.5625
198.37157	2053.8625
202.6667	2549.4625
206.9587	3015.3625
211.24758	3502.4625
215.53334	3987.2625
219.81599	4471.2625
224.09553	5041.7625
228.37195	5658.3625
232.64527	6333.2625
236.91549	7036.1625
241.18261	7756.8625
245.44663	8464.8625
249.70755	9071.1625
253.96539	9613.4625
258.22014	10042.7625
262.4718	10409.8625
266.72039	10694.5625
270.96589	10825.9625
275.20832	10833.0625
279.44768	10706.6625
283.68397	10538.2625
287.91719	10346.1625
292.14735	10236.4625
296.37445	10196.3625
300.59849	10252.9625
304.81948	10305.2625
309.03742	10321.6625
313.25231	10211.5625
317.46415	9977.4625
321.67296	9700.7625
325.87872	9482.1625
330.08145	9433.6625
334.28114	9434.8625
338.47781	9533.1625
342.67145	9639.2625
346.86207	9832.7625
351.04966	10038.1625
355.23424	10294.0625
359.4158	10539.1625
363.59435	10742.2625
367.76989	10871.5625
371.94243	11002.4625
376.11196	11089.4625
380.27849	11168.1625
384.44203	11211.9625
388.60257	11232.1625
392.76012	11270.3625
396.91468	11323.3625
401.06626	11420.6625
405.21485	11522.9625
409.36047	11446.8625
413.50311	11244.0625
417.64277	10991.2625
421.77947	10844.2625
425.9132	10807.1625
430.04396	10783.5625
434.17176	10827.8625
438.2966	10885.0625
442.41849	10966.5625
446.53742	11056.8625
450.6534	11187.6625
454.76644	11282.3625
458.87653	11343.4625
462.98368	11364.4625
467.08789	11345.5625
471.18916	11281.6625
475.2875	11222.1625
479.38291	11212.6625
483.4754	11142.2625
487.56496	11132.6625
491.6516	11125.8625
495.73531	11134.1625
499.81612	11130.3625
503.89401	11168.5625
507.96899	11197.1625
512.04106	11239.8625
516.11023	11319.9625
520.1765	11384.9625
524.23987	11372.9625
528.30034	11288.1625
532.35792	11230.3625
536.41261	11162.7625
540.46441	11083.6625
544.51333	11021.8625
548.55936	11003.1625
552.60252	11047.9625
556.64279	11119.9625
560.6802	11155.6625
564.71473	11173.4625
568.7464	11239.6625
572.7752	11298.9625
576.80114	11227.5625
580.82422	11147.3625
584.84444	11117.0625
588.86181	11149.7625
592.87633	11209.2625
596.888	11268.1625
600.89682	11397.6625
604.9028	11872.2625
608.90594	13119.1625
612.90624	14756.9625
616.90371	14575.2625
620.89834	12514.5625
624.89015	11530.0625
628.87913	11415.1625
632.86528	11571.9625
636.84862	11790.1625
640.82913	11769.7625
644.80683	11497.0625
648.78172	11229.7625
652.75379	11088.3625
656.72306	11092.1625
660.68952	11255.6625
664.65319	11167.2625
668.61405	10940.5625
672.57211	10834.9625
676.52738	10838.3625
680.47986	10835.6625
684.42955	10841.1625
688.37646	10797.7625
692.32058	10795.6625
696.26192	10817.3625
700.20048	10823.9625
704.13626	10859.1625
708.06928	10856.9625
711.99952	10815.5625
715.927	10846.8625
719.85171	10816.9625
723.77365	10844.1625
727.69284	10809.5625
731.60928	10774.0625
735.52295	10741.8625
739.43388	10700.0625
743.34206	10722.7625
747.24749	10714.9625
751.15017	10697.5625
755.05012	10737.4625
758.94733	10865.1625
762.8418	11226.0625
766.73354	11889.7625
770.62254	12747.4625
774.50882	13323.2625
778.39237	13069.0625
782.27321	12120.2625
786.15132	11332.5625
790.02671	10860.5625
793.89938	10660.5625
797.76935	10558.7625
801.6366	10519.4625
805.50115	10527.2625
809.36299	10545.9625
813.22213	10584.5625
817.07857	10577.0625
820.93231	10549.4625
824.78336	10484.8625
828.63172	10425.0625
832.47738	10370.5625
836.32036	10358.5625
840.16066	10331.8625
843.99827	10306.2625
847.8332	10290.2625
851.66546	10265.5625
855.49504	10262.5625
859.32195	10274.0625
863.1462	10261.2625
866.96777	10253.3625
870.78668	10281.5625
874.60293	10269.7625
878.41652	10309.3625
882.22745	10332.9625
886.03573	10389.2625
889.84136	10432.2625
893.64433	10414.9625
897.44466	10305.6625
901.24235	10252.9625
905.0374	10166.7625
908.8298	10096.5625
912.61957	10063.9625
916.40671	10021.6625
920.19121	10024.0625
923.97308	10040.0625
927.75233	10076.4625
931.52895	10071.7625
935.30295	10042.0625
939.07433	9962.1625
942.84309	9834.9625
946.60924	9765.7625
950.37278	9717.7625
954.13371	9670.1625
957.89203	9645.4625
961.64774	9605.3625
965.40086	9565.6625
969.15137	9568.9625
972.89929	9534.9625
976.64461	9525.0625
980.38733	9505.4625
984.12747	9503.8625
987.86502	9503.5625
991.59999	9530.5625
995.33237	9559.8625
999.06217	9619.7625
1002.78939	9683.9625
1006.51404	9734.2625
1010.23611	9810.0625
1013.95561	9847.5625
1017.67255	9870.9625
1021.38692	9828.5625
1025.09872	9779.0625
1028.80796	9717.9625
1032.51465	9707.8625
1036.21877	9726.6625
1039.92035	9721.9625
1043.61937	9717.3625
1047.31584	9721.4625
1051.00976	9689.4625
1054.70114	9662.4625
1058.38998	9678.9625
1062.07627	9687.7625
1065.76003	9775.9625
1069.44126	9814.7625
1073.11995	9874.3625
1076.79611	9935.3625
1080.46974	9974.6625
1084.14085	9964.9625
1087.80943	9982.6625
1091.47549	9981.5625
1095.13903	9977.0625
1098.80005	9897.6625
1102.45857	9753.3625
1106.11456	9687.0625
1109.76805	9687.5625
1113.41903	9784.5625
1117.06751	9926.2625
1120.71348	10116.5625
1124.35696	10328.9625
1127.99793	10530.9625
1131.63641	10719.8625
1135.2724	10630.4625
1138.90589	10438.4625
1142.5369	10226.0625
1146.16542	10008.1625
1149.79145	9822.6625
1153.415	9680.0625
1157.03607	9632.4625
1160.65467	9630.2625
1164.27079	9711.4625
1167.88443	9919.9625
1171.49561	10215.5625
1175.10432	10708.6625
1178.71056	11428.6625
1182.31434	12091.0625
1185.91565	12279.4625
1189.51451	12124.7625
1193.11091	11693.1625
1196.70485	11249.9625
1200.29634	10925.4625
1203.88538	10756.3625
1207.47197	10512.4625
1211.05612	10225.9625
1214.63782	10036.4625
1218.21708	9906.5625
1221.79391	9788.1625
1225.36829	9736.2625
1228.94024	9664.2625
1232.50976	9654.1625
1236.07685	9654.6625
1239.6415	9635.7625
1243.20374	9663.9625
1246.76355	9690.7625
1250.32093	9770.5625
1253.8759	9849.6625
1257.42845	9940.4625
1260.97859	10074.8625
1264.52631	10192.9625
1268.07163	10324.0625
1271.61453	10437.7625
1275.15503	10548.4625
1278.69312	10592.9625
1282.22882	10584.8625
1285.76211	10643.8625
1289.29301	10784.3625
1292.82151	10970.2625
1296.34761	11196.7625
1299.87133	11539.3625
1303.39266	11999.4625
1306.9116	12673.9625
1310.42815	13379.5625
1313.94233	13757.9625
1317.45412	13565.0625
1320.96354	13021.5625
1324.47058	12443.9625
1327.97525	11901.7625
1331.47754	11455.3625
1334.97747	11231.8625
1338.47502	11164.0625
1341.97022	11248.5625
1345.46305	11427.8625
1348.95352	11822.6625
1352.44163	12423.4625
1355.92738	13265.2625
1359.41078	14464.1625
1362.89183	15825.7625
1366.37053	16064.1625
1369.84688	14525.6625
1373.32088	12692.8625
1376.79254	11460.7625
1380.26186	10823.1625
1383.72883	10514.1625
1387.19347	10262.5625
1390.65578	10057.2625
1394.11575	9846.3625
1397.57339	9652.0625
1401.0287	9543.0625
1404.48168	9480.2625
1407.93234	9410.3625
1411.38068	9341.3625
1414.82669	9271.9625
1418.27039	9226.3625
1421.71177	9171.6625
1425.15083	9096.6625
1428.58758	9043.3625
1432.02203	8989.6625
1435.45416	9007.2625
1438.88399	9067.1625
1442.31151	9066.1625
1445.73673	9091.5625
1449.15965	9099.7625
1452.58027	9113.5625
1455.9986	9080.6625
1459.41463	9086.4625
1462.82837	9117.6625
1466.23982	9193.0625
1469.64898	9303.9625
1473.05586	9386.8625
1476.46045	9460.5625
1479.86276	9512.5625
1483.26279	9624.4625
1486.66054	9734.2625
1490.05602	9849.1625
1493.44922	10095.6625
1496.84016	10473.4625
1500.22882	11110.4625
1503.61521	12039.6625
1506.99934	13082.8625
1510.38121	14109.4625
1513.76081	14490.9625
1517.13816	13982.5625
1520.51324	12825.8625
1523.88607	11634.6625
1527.25665	10870.4625
1530.62498	10424.2625
1533.99105	10144.2625
1537.35488	9967.7625
1540.71647	9869.7625
1544.07581	9783.7625
1547.4329	9749.6625
1550.78776	9728.3625
1554.14038	9758.1625
1557.49077	9832.6625
1560.83892	9912.1625
1564.18484	10047.6625
1567.52853	10214.7625
1570.86999	10374.5625
1574.20922	10535.0625
1577.54624	10579.6625
1580.88103	10375.4625
1584.2136	10031.6625
1587.54395	9715.7625
1590.87208	9601.6625
1594.19801	9676.6625
1597.52172	9898.9625
1600.84321	10020.7625
1604.16251	9898.6625
1607.47959	9668.1625
1610.79447	9376.2625
1614.10715	9095.0625
1617.41763	8845.5625
1620.7259	8659.9625
1624.03199	8528.6625
1627.33587	8499.5625
1630.63757	8539.6625
1633.93707	8670.7625
1637.23439	8904.5625
1640.52951	9296.7625
1643.82246	9876.9625
1647.11321	10626.4625
1650.40179	11289.5625
1653.68819	11382.0625
1656.97241	10682.9625
1660.25446	9712.1625
1663.53433	9002.7625
1666.81203	8528.8625
1670.08756	8251.5625
1673.36092	8103.0625
1676.63211	7987.4625
1679.90115	7905.9625
1683.16801	7838.2625
1686.43272	7806.9625
1689.69527	7744.5625
1692.95567	7742.0625
1696.2139	7751.9625
1699.46999	7751.7625
1702.72392	7725.2625
1705.97571	7661.9625
1709.22535	7560.8625
1712.47284	7497.2625
1715.71819	7422.6625
1718.96139	7377.5625
1722.20246	7334.7625
1725.44139	7287.9625
1728.67818	7207.8625
1731.91284	7192.2625
1735.14537	7159.6625
1738.37576	7113.7625
1741.60403	7120.3625
1744.83017	7068.9625
1748.05418	7061.5625
1751.27607	7045.1625
1754.49584	7055.5625
1757.71349	7043.7625
1760.92903	7015.1625
1764.14244	7027.3625
1767.35375	7002.7625
1770.56294	7007.0625
1773.77002	6983.0625
1776.97499	6961.9625
1780.17785	6935.3625
1783.37861	6895.8625
1786.57727	6898.8625
1789.77382	6883.3625
1792.96828	6876.5625
1796.16064	6847.4625
1799.3509	6854.4625
1802.53907	6828.1625
1805.72514	6812.0625
1808.90913	6750.8625
1812.09102	6775.9625
1815.27083	6748.0625
1818.44856	6729.5625
1821.6242	6712.5625
1824.79776	6694.8625
1827.96924	6689.8625
1831.13864	6683.7625
1834.30597	6663.9625
1837.47122	6663.6625
1840.6344	6652.9625
1843.7955	6643.5625
1846.95454	6637.1625
1850.11151	6613.8625
1853.26642	6621.6625
1856.41926	6616.1625
1859.57004	6606.4625
1862.71876	6591.4625
1865.86542	6589.1625
1869.01003	6580.7625
1872.15258	6586.6625
1875.29308	6566.7625
1878.43152	6549.8625
1881.56792	6548.6625
1884.70227	6526.6625
1887.83457	6522.6625
1890.96482	6496.1625
1894.09304	6489.8625
1897.21921	6483.4625
1900.34335	6471.1625
1903.46544	6474.6625
1906.58551	6467.8625
1909.70353	6453.3625
1912.81953	6436.0625
1915.93349	6433.2625
1919.04543	6407.6625
1922.15534	6397.4625
1925.26322	6392.3625
1928.36908	6382.1625
1931.47292	6357.0625
1934.57473	6333.8625
1937.67453	6319.4625
1940.77232	6309.6625
1943.86808	6272.2625
1946.96184	6277.3625
1950.05358	6268.4625
1953.14331	6251.5625
1956.23103	6214.2625
1959.31675	6204.6625
1962.40046	6190.4625
1965.48217	6164.8625
1968.56188	6131.3625
1971.63959	6138.1625
1974.7153	6107.5625
1977.78901	6078.4625
1980.86073	6049.1625
1983.93046	6036.5625
1986.99819	6007.7625
1990.06394	6000.4625
1993.1277	5972.3625
1996.18947	5956.3625
1999.24925	5949.2625
2002.30706	5912.1625
2005.36288	5901.6625
2008.41672	5872.9625
2011.46859	5882.6625
2014.51848	5845.9625
2017.56639	5801.0625
2020.61233	5806.0625
2023.6563	5795.9625
2026.6983	5775.4625
2029.73833	5753.5625
2032.7764	5745.0625
2035.8125	5710.6625
2038.84664	5704.8625
2041.87881	5698.8625
2044.90903	5688.0625
2047.93729	5676.5625
2050.96359	5680.9625
2053.98794	5641.7625
2057.01034	5635.5625
2060.03078	5646.9625
2063.04927	5634.3625
2066.06582	5631.4625
2069.08042	5632.1625
2072.09307	5615.0625
2075.10378	5603.2625
2078.11255	5590.3625
2081.11938	5593.8625
2084.12426	5601.6625
2087.12722	5588.6625
2090.12824	5574.7625
2093.12732	5584.3625
2096.12447	5601.1625
2099.11969	5592.0625
2102.11299	5581.1625
2105.10435	5587.0625
2108.09379	5567.6625
2111.08131	5596.7625
2114.0669	5574.4625
2117.05057	5602.6625
2120.03233	5601.8625
2123.01216	5595.0625
2125.99008	5610.6625
2128.96609	5622.2625
2131.94018	5595.1625
2134.91236	5611.2625
2137.88263	5603.7625
2140.851	5593.7625
2143.81746	5616.7625
2146.78201	5624.1625
2149.74466	5614.1625
2152.7054	5601.9625
2155.66425	5594.4625
2158.6212	5600.8625
2161.57625	5584.3625
2164.52941	5585.4625
2167.48067	5585.9625
2170.43004	5572.7625
2173.37752	5574.0625
2176.32311	5569.8625
2179.26681	5574.6625
2182.20863	5558.7625
2185.14856	5554.0625
2188.08661	5551.4625
2191.02278	5552.3625
2193.95707	5555.4625
2196.88948	5541.8625
2199.82001	5546.3625
2202.74867	5536.8625
2205.67545	5517.6625
2208.60037	5516.3625
2211.52341	5501.8625
2214.44458	5480.7625
2217.36388	5460.5625
2220.28132	5476.2625
2223.1969	5449.9625
2226.11061	5435.7625
2229.02246	5423.6625
2231.93245	5417.6625
2234.84058	5400.6625
2237.74686	5391.1625
2240.65128	5391.2625
2243.55385	5372.4625
2246.45456	5366.3625
2249.35343	5350.3625
2252.25044	5357.0625
2255.14561	5345.9625
2258.03893	5361.5625
2260.93041	5327.6625
2263.82004	5329.4625
2266.70783	5308.0625
2269.59378	5278.9625
2272.4779	5279.7625
2275.36017	5267.3625
2278.24061	5255.8625
2281.11922	5246.5625
2283.996	5238.1625
2286.87094	5231.8625
2289.74405	5205.3625
2292.61534	5207.9625
2295.4848	5188.2625
2298.35243	5182.3625
2301.21824	5169.0625
2304.08223	5172.6625
2306.94439	5160.4625
2309.80474	5162.6625
2312.66327	5154.3625
2315.51999	5150.8625
2318.37489	5142.9625
2321.22797	5123.8625
2324.07925	5137.3625
2326.92871	5120.5625
2329.77637	5122.0625
2332.62222	5093.1625
2335.46626	5097.5625
2338.3085	5083.7625
2341.14893	5069.2625
2343.98756	5064.0625
2346.8244	5060.4625
2349.65943	5049.7625
2352.49267	5054.2625
2355.32411	5035.6625
2358.15376	5040.5625
2360.98161	5028.6625
2363.80768	5037.5625
2366.63195	5036.6625
2369.45444	5027.4625
2372.27514	5014.3625
2375.09405	5025.0625
2377.91118	5005.0625
2380.72652	4976.5625
2383.54009	4993.2625
2386.35187	4971.1625
2389.16188	4938.7625
2391.97011	4925.2625
2394.77657	4911.4625
2397.58125	4912.5625
2400.38416	4886.2625
2403.18529	4889.3625
2405.98466	4906.6625
2408.78226	4869.3625
2411.57809	4860.6625
2414.37216	4856.2625
2417.16446	4849.7625
2419.955	4838.8625
2422.74378	4846.0625
2425.5308	4842.6625
2428.31606	4834.1625
2431.09956	4825.5625
2433.88131	4823.2625
2436.6613	4806.0625
2439.43954	4812.9625
2442.21603	4804.1625
2444.99077	4802.2625
2447.76377	4811.5625
2450.53501	4807.5625
2453.30451	4786.3625
2456.07226	4785.6625
2458.83827	4771.7625
2461.60254	4770.5625
2464.36507	4768.3625
2467.12586	4755.9625
2469.88492	4746.0625
2472.64224	4757.4625
2475.39782	4737.0625
2478.15167	4747.7625
2480.90379	4746.7625
2483.65417	4723.1625
2486.40283	4725.4625
2489.14976	4741.7625
2491.89497	4720.0625
2494.63845	4722.6625
2497.3802	4720.4625
2500.12024	4703.1625
2502.85855	4697.4625
2505.59514	4686.2625
2508.33002	4676.3625
2511.06318	4680.2625
2513.79462	4645.0625
2516.52435	4650.7625
2519.25237	4648.2625
2521.97867	4616.3625
2524.70327	4619.3625
2527.42616	4610.1625
2530.14734	4586.2625
2532.86681	4586.3625
2535.58458	4587.4625
2538.30065	4567.0625
2541.01501	4569.5625
2543.72768	4563.5625
2546.43864	4551.0625
2549.14791	4551.5625
2551.85548	4538.4625
2554.56136	4524.9625
2557.26554	4537.5625
2559.96803	4510.9625
2562.66883	4495.0625
2565.36794	4503.1625
2568.06536	4499.6625
2570.7611	4485.9625
2573.45514	4487.5625
2576.14751	4457.2625
2578.83819	4444.9625
2581.52719	4442.5625
2584.21451	4439.0625
2586.90015	4449.7625
2589.58411	4437.9625
2592.2664	4406.8625
2594.94701	4389.2625
2597.62594	4393.1625
2600.30321	4383.6625
2602.9788	4373.5625
2605.65273	4358.8625
2608.32498	4350.2625
2610.99557	4346.7625
2613.66449	4339.2625
2616.33175	4334.6625
2618.99734	4337.5625
2621.66128	4322.9625
2624.32355	4305.3625
2626.98416	4321.1625
2629.64311	4308.0625
2632.30041	4304.4625
2634.95605	4302.7625
2637.61004	4306.4625
2640.26238	4278.6625
2642.91306	4265.4625
2645.56209	4265.9625
2648.20948	4252.1625
2650.85521	4255.0625
2653.4993	4256.0625
2656.14175	4250.5625
2658.78255	4246.5625
2661.42171	4248.3625
2664.05923	4241.8625
2666.6951	4232.6625
2669.32934	4239.4625
2671.96194	4233.7625
2674.59291	4242.1625
2677.22224	4230.6625
2679.84993	4239.3625
2682.476	4235.4625
2685.10043	4234.9625
2687.72324	4237.3625
2690.34441	4211.1625
2692.96396	4228.5625
2695.58188	4215.1625
2698.19818	4216.5625
2700.81285	4228.2625
2703.4259	4233.3625
2706.03733	4252.9625
2708.64714	4230.9625
2711.25533	4203.6625
2713.86191	4211.8625
2716.46687	4228.1625
2719.07021	4218.8625
2721.67194	4215.5625
2724.27206	4213.7625
2726.87057	4207.6625
2729.46747	4210.4625
2732.06276	4209.3625
2734.65644	4174.7625
2737.24852	4182.8625
2739.83899	4177.4625
2742.42786	4171.4625
2745.01513	4151.8625
2747.60079	4164.5625
2750.18486	4172.3625
2752.76733	4158.7625
2755.3482	4144.3625
2757.92747	4143.2625
2760.50515	4153.2625
2763.08123	4125.7625
2765.65573	4121.6625
2768.22863	4124.3625
2770.79994	4105.7625
2773.36967	4093.1625
2775.9378	4102.9625
2778.50435	4101.4625
2781.06932	4089.0625
2783.6327	4087.3625
2786.1945	4074.1625
2788.75471	4062.5625
2791.31335	4050.6625
2793.87041	4051.6625
2796.42589	4025.4625
2798.97979	4041.0625
2801.53212	4015.7625
2804.08288	4023.6625
2806.63206	4004.7625
2809.17967	4003.2625
2811.72571	3987.2625
2814.27018	3989.6625
2816.81308	3975.8625
2819.35442	3963.7625
2821.89419	3970.1625
2824.43239	3982.4625
2826.96904	3961.8625
2829.50412	3952.2625
2832.03763	3961.0625
2834.56959	3952.2625
2837.1	3942.4625
2839.62884	3948.1625
2842.15613	3940.8625
2844.68186	3965.9625
2847.20604	3944.8625
2849.72867	3951.5625
2852.24974	3975.2625
2854.76927	3956.7625
2857.28724	3947.5625
2859.80367	3943.2625
2862.31855	3931.9625
2864.83189	3940.7625
2867.34368	3923.8625
2869.85393	3929.7625
2872.36264	3938.4625
2874.8698	3933.9625
2877.37543	3936.9625
2879.87952	3933.3625
2882.38207	3936.6625
2884.88308	3925.6625
2887.38256	3916.2625
2889.88051	3929.8625
2892.37692	3912.5625
2894.8718	3905.8625
2897.36515	3902.4625
2899.85698	3911.9625
2902.34727	3916.5625
2904.83604	3904.0625
2907.32328	3931.1625
2909.809	3923.5625
2912.29319	3927.8625
2914.77587	3917.5625
2917.25702	3914.2625
2919.73665	3924.5625
2922.21476	3921.0625
2924.69136	3920.4625
2927.16644	3905.7625
2929.64	3898.0625
2932.11205	3898.0625
2934.58258	3887.6625
2937.05161	3884.0625
2939.51912	3890.3625
2941.98513	3874.9625
2944.44962	3884.1625
2946.91261	3854.8625
2949.37409	3851.2625
2951.83407	3856.6625
2954.29254	3863.8625
2956.74951	3856.3625
2959.20498	3851.4625
2961.65895	3839.2625
2964.11142	3845.0625
2966.56239	3839.7625
2969.01186	3839.1625
2971.45984	3821.8625
2973.90632	3816.9625
2976.35131	3811.7625
2978.7948	3805.8625
2981.23681	3799.5625
2983.67732	3807.4625
2986.11635	3780.1625
2988.55388	3775.2625
2990.98993	3771.8625
2993.4245	3773.3625
2995.85758	3768.1625
2998.28917	3749.0625
3000.71928	3751.6625
3003.14791	3739.6625
3005.57506	3736.5625
3008.00073	3739.0625
3010.42493	3743.5625
3012.84764	3743.6625
3015.26888	3740.8625
3017.68865	3723.2625
3020.10694	3735.9625
3022.52376	3722.7625
3024.9391	3705.4625
3027.35298	3705.3625
3029.76539	3697.6625
3032.17632	3689.5625
3034.5858	3696.9625
3036.9938	3688.6625
3039.40034	3679.9625
3041.80542	3688.8625
3044.20903	3681.0625
3046.61118	3683.4625
3049.01187	3673.6625
3051.4111	3667.8625
3053.80888	3663.5625
3056.20519	3673.5625
3058.60005	3665.1625
3060.99345	3673.3625
3063.3854	3661.5625
3065.7759	3658.0625
3068.16494	3655.9625
3070.55254	3640.6625
3072.93868	3651.2625
3075.32338	3649.0625
3077.70662	3654.9625
3080.08842	3634.6625
3082.46878	3639.8625
3084.84769	3652.4625
3087.22515	3623.8625
3089.60118	3652.0625
3091.97576	3637.9625
3094.3489	3650.2625
3096.72061	3666.6625
3099.09087	3659.3625
3101.4597	3667.0625
3103.82709	3671.7625
3106.19305	3667.2625
3108.55757	3665.3625
3110.92066	3659.9625
3113.28232	3647.5625
3115.64255	3651.8625
3118.00134	3646.7625
3120.35871	3653.5625
3122.71466	3641.8625
3125.06917	3655.8625
3127.42226	3659.5625
3129.77393	3661.0625
3132.12417	3647.6625
3134.47299	3673.4625
3136.82039	3664.6625
3139.16636	3685.5625
3141.51092	3680.3625
3143.85406	3684.2625
3146.19579	3696.1625
3148.53609	3706.8625
3150.87499	3719.8625
3153.21246	3701.9625
3155.54853	3724.8625
3157.88318	3721.2625
3160.21642	3736.2625
3162.54826	3727.9625
3164.87868	3741.4625
3167.2077	3731.8625
3169.5353	3748.4625
3171.86151	3764.8625
3174.18631	3744.5625
3176.5097	3731.3625
3178.83169	3740.0625
3181.15228	3761.9625
3183.47147	3748.7625
3185.78926	3763.0625
3188.10565	3753.1625
3190.42065	3755.6625
3192.73424	3767.6625
3195.04645	3776.4625
3197.35725	3772.8625
3199.66667	3765.9625
3201.97469	3775.7625
3204.28132	3800.9625
3206.58656	3792.1625
3208.8904	3813.1625
3211.19287	3793.8625
3213.49394	3807.7625
3215.79363	3799.7625
3218.09193	3812.7625
3220.38884	3804.9625
3222.68438	3817.0625
3224.97853	3804.7625
3227.2713	3817.7625
3229.56269	3798.3625
3231.8527	3799.3625
3234.14133	3807.2625
3236.42858	3787.5625
3238.71446	3782.0625
3240.99896	3787.5625
3243.28209	3779.4625
3245.56384	3779.9625
3247.84423	3783.7625
3250.12324	3778.2625
3252.40088	3798.6625
3254.67715	3778.5625
3256.95205	3773.5625
3259.22558	3800.2625
3261.49775	3762.3625
3263.76855	3757.0625
3266.03799	3764.2625
3268.30606	3765.5625
3270.57277	3746.5625
3272.83812	3744.3625
3275.10211	3740.6625
3277.36474	3725.5625
3279.62601	3752.5625
3281.88593	3722.4625
3284.14448	3743.3625
3286.40168	3725.0625
3288.65753	3715.2625
3290.91202	3718.7625
3293.16516	3716.7625
3295.41695	3697.0625
3297.66738	3677.9625
3299.91647	3660.9625
3302.16421	3638.9625
3304.4106	3636.8625
3306.65564	3613.9625
3308.89933	3602.3625
3311.14169	3579.9625
3313.38269	3549.3625
3315.62236	3546.6625
3317.86068	3503.9625
3320.09766	3475.8625
3322.3333	3445.2625
3324.5676	3460.2625
3326.80056	3405.7625
3329.03219	3382.9625
3331.26248	1.8625
3333.49143	0.1625
3335.71905	-0.0375
