Data from AgNPs_FTO_APTES_UA_20uM_R6G_10uM_NaF_0.1M_Addition_RamanShift__23__14-22-17-378.txt Node

Date: Fri Dec 17 14:22:17 GMT 2021
User: TCL
Spectrometer: QEP01345
Trigger mode: 4
Integration Time (sec): 7.000000E0
Scans to average: 10
Electric dark correction enabled: true
Nonlinearity correction enabled: false
Boxcar width: 0
XAxis mode: Raman Shifts
Number of Pixels in Spectrum: 1044
>>>>>Begin Spectral Data<<<<<
46.04893	-0.7125
50.45542	0.1875
54.85868	-2.4125
59.25871	-0.5125
63.6555	72.2875
68.04907	72.9875
72.43941	77.5875
76.82654	82.9875
81.21044	84.6875
85.59113	88.0875
89.96862	91.1875
94.34289	96.2875
98.71396	98.1875
103.08183	100.1875
107.4465	100.0875
111.80798	105.2875
116.16626	107.4875
120.52136	109.1875
124.87327	118.6875
129.222	121.8875
133.56755	126.7875
137.90993	134.8875
142.24913	154.1875
146.58517	168.2875
150.91804	191.0875
155.24774	226.2875
159.57429	284.2875
163.89768	359.4875
168.21792	468.1875
172.53501	637.9875
176.84895	888.6875
181.15975	1237.9875
185.46741	1740.5875
189.77193	2393.8875
194.07331	3209.5875
198.37157	4136.0875
202.6667	5116.7875
206.9587	6076.9875
211.24758	7017.7875
215.53334	7974.0875
219.81599	8982.2875
224.09553	10080.3875
228.37195	11336.3875
232.64527	12702.2875
236.91549	14183.5875
241.18261	15662.0875
245.44663	16994.3875
249.70755	18213.3875
253.96539	19247.3875
258.22014	20098.0875
262.4718	20882.6875
266.72039	21412.7875
270.96589	21724.3875
275.20832	21788.7875
279.44768	21645.6875
283.68397	21398.9875
287.91719	21148.4875
292.14735	21043.3875
296.37445	21052.4875
300.59849	21206.6875
304.81948	21343.3875
309.03742	21384.7875
313.25231	21168.5875
317.46415	20644.9875
321.67296	20000.8875
325.87872	19461.5875
330.08145	19251.7875
334.28114	19278.0875
338.47781	19451.9875
342.67145	19781.1875
346.86207	20191.6875
351.04966	20702.0875
355.23424	21250.1875
359.4158	21771.9875
363.59435	22140.9875
367.76989	22424.8875
371.94243	22582.6875
376.11196	22675.2875
380.27849	22835.0875
384.44203	22906.4875
388.60257	22986.8875
392.76012	23072.5875
396.91468	23296.5875
401.06626	23661.4875
405.21485	23945.0875
409.36047	23798.8875
413.50311	23374.5875
417.64277	22947.9875
421.77947	22768.0875
425.9132	22725.2875
430.04396	22816.9875
434.17176	22910.6875
438.2966	23101.5875
442.41849	23387.9875
446.53742	23840.2875
450.6534	24406.5875
454.76644	24794.7875
458.87653	25026.7875
462.98368	24989.6875
467.08789	24773.5875
471.18916	24459.7875
475.2875	24112.7875
479.38291	23834.4875
483.4754	23619.0875
487.56496	23383.5875
491.6516	23183.3875
495.73531	23039.3875
499.81612	23033.0875
503.89401	23198.5875
507.96899	23290.6875
512.04106	23401.0875
516.11023	23515.0875
520.1765	23548.3875
524.23987	23512.9875
528.30034	23307.9875
532.35792	23113.9875
536.41261	22913.9875
540.46441	22666.1875
544.51333	22575.2875
548.55936	22666.5875
552.60252	22953.7875
556.64279	23238.8875
560.6802	23382.3875
564.71473	23434.1875
568.7464	23672.2875
572.7752	23955.0875
576.80114	24033.5875
580.82422	24107.3875
584.84444	24257.4875
588.86181	24354.1875
592.87633	24548.3875
596.888	24771.8875
600.89682	25174.5875
604.9028	26457.8875
608.90594	29589.7875
612.90624	33100.2875
616.90371	31753.3875
620.89834	26476.3875
624.89015	24001.3875
628.87913	23595.0875
632.86528	23607.7875
636.84862	23723.4875
640.82913	23476.0875
644.80683	22950.7875
648.78172	22499.3875
652.75379	22433.8875
656.72306	22719.3875
660.68952	23176.3875
664.65319	23073.2875
668.61405	22691.6875
672.57211	22504.2875
676.52738	22602.2875
680.47986	22604.3875
684.42955	22489.7875
688.37646	22443.1875
692.32058	22488.5875
696.26192	22624.3875
700.20048	22757.2875
704.13626	22878.1875
708.06928	22775.1875
711.99952	22627.5875
715.927	22538.3875
719.85171	22568.4875
723.77365	22551.0875
727.69284	22435.8875
731.60928	22288.8875
735.52295	22259.5875
739.43388	22300.1875
743.34206	22403.6875
747.24749	22476.8875
751.15017	22575.1875
755.05012	22784.2875
758.94733	23292.3875
762.8418	24402.6875
766.73354	26255.9875
770.62254	28229.6875
774.50882	29282.4875
778.39237	28339.8875
782.27321	26102.6875
786.15132	24189.5875
790.02671	23056.2875
793.89938	22509.3875
797.76935	22328.4875
801.6366	22212.1875
805.50115	22179.5875
809.36299	22106.6875
813.22213	22009.9875
817.07857	21933.4875
820.93231	21884.2875
824.78336	21849.0875
828.63172	21856.9875
832.47738	21892.7875
836.32036	21886.0875
840.16066	21923.1875
843.99827	21957.5875
847.8332	21968.4875
851.66546	21844.7875
855.49504	21814.4875
859.32195	21840.7875
863.1462	21792.1875
866.96777	21730.4875
870.78668	21719.8875
874.60293	21746.9875
878.41652	21733.3875
882.22745	21769.5875
886.03573	21847.1875
889.84136	21872.3875
893.64433	21775.8875
897.44466	21654.9875
901.24235	21585.9875
905.0374	21508.2875
908.8298	21460.3875
912.61957	21423.6875
916.40671	21527.6875
920.19121	21700.9875
923.97308	21867.3875
927.75233	22025.1875
931.52895	22052.7875
935.30295	21856.2875
939.07433	21598.9875
942.84309	21310.7875
946.60924	21185.3875
950.37278	21135.3875
954.13371	20987.1875
957.89203	20872.6875
961.64774	20747.5875
965.40086	20720.6875
969.15137	20633.5875
972.89929	20571.7875
976.64461	20562.9875
980.38733	20587.9875
984.12747	20645.4875
987.86502	20792.3875
991.59999	21009.2875
995.33237	21349.2875
999.06217	21884.3875
1002.78939	22493.8875
1006.51404	22919.5875
1010.23611	23219.4875
1013.95561	23395.8875
1017.67255	23426.6875
1021.38692	23255.7875
1025.09872	23133.0875
1028.80796	23342.6875
1032.51465	23814.0875
1036.21877	24334.6875
1039.92035	24393.6875
1043.61937	24099.9875
1047.31584	23531.9875
1051.00976	22975.1875
1054.70114	22605.2875
1058.38998	22508.2875
1062.07627	22550.3875
1065.76003	22659.5875
1069.44126	22745.5875
1073.11995	22951.4875
1076.79611	23161.9875
1080.46974	23258.1875
1084.14085	23404.2875
1087.80943	23615.1875
1091.47549	23660.2875
1095.13903	23530.2875
1098.80005	23153.6875
1102.45857	22832.0875
1106.11456	22579.3875
1109.76805	22601.3875
1113.41903	22812.1875
1117.06751	23073.2875
1120.71348	23374.3875
1124.35696	23679.7875
1127.99793	24002.2875
1131.63641	24207.1875
1135.2724	23992.2875
1138.90589	23630.3875
1142.5369	23312.3875
1146.16542	23074.2875
1149.79145	22926.7875
1153.415	22922.9875
1157.03607	23063.8875
1160.65467	23380.3875
1164.27079	23972.9875
1167.88443	24861.6875
1171.49561	26048.2875
1175.10432	27762.8875
1178.71056	30040.3875
1182.31434	32287.7875
1185.91565	33509.5875
1189.51451	33510.3875
1193.11091	32466.0875
1196.70485	30866.9875
1200.29634	29495.8875
1203.88538	28339.4875
1207.47197	27354.1875
1211.05612	26544.7875
1214.63782	26064.4875
1218.21708	25888.9875
1221.79391	25925.8875
1225.36829	26018.5875
1228.94024	25932.6875
1232.50976	25801.1875
1236.07685	25653.1875
1239.6415	25633.1875
1243.20374	25621.9875
1246.76355	25758.4875
1250.32093	26018.6875
1253.8759	26506.2875
1257.42845	27119.5875
1260.97859	27773.7875
1264.52631	28295.7875
1268.07163	28847.7875
1271.61453	29559.0875
1275.15503	30342.1875
1278.69312	31004.2875
1282.22882	31535.1875
1285.76211	31940.6875
1289.29301	32345.0875
1292.82151	32920.4875
1296.34761	33767.6875
1299.87133	34992.5875
1303.39266	36769.6875
1306.9116	39006.9875
1310.42815	41402.7875
1313.94233	42838.1875
1317.45412	42695.9875
1320.96354	41489.4875
1324.47058	40197.7875
1327.97525	38904.7875
1331.47754	38030.3875
1334.97747	37747.5875
1338.47502	37951.9875
1341.97022	38404.4875
1345.46305	38638.9875
1348.95352	38788.8875
1352.44163	39272.9875
1355.92738	40503.7875
1359.41078	42873.3875
1362.89183	45281.4875
1366.37053	44649.9875
1369.84688	40561.5875
1373.32088	35950.1875
1376.79254	32834.7875
1380.26186	31236.1875
1383.72883	30544.6875
1387.19347	30065.1875
1390.65578	29548.3875
1394.11575	29260.2875
1397.57339	29300.2875
1401.0287	29557.8875
1404.48168	29979.7875
1407.93234	30370.8875
1411.38068	30681.1875
1414.82669	30571.8875
1418.27039	30086.3875
1421.71177	29378.7875
1425.15083	28689.3875
1428.58758	28245.8875
1432.02203	28152.2875
1435.45416	28339.9875
1438.88399	28628.4875
1442.31151	28893.9875
1445.73673	29124.9875
1449.15965	29385.2875
1452.58027	29499.7875
1455.9986	29498.7875
1459.41463	29673.5875
1462.82837	29971.5875
1466.23982	30516.3875
1469.64898	31053.3875
1473.05586	31494.0875
1476.46045	31669.5875
1479.86276	31782.9875
1483.26279	31935.9875
1486.66054	32105.1875
1490.05602	32425.6875
1493.44922	32888.6875
1496.84016	33541.3875
1500.22882	34415.5875
1503.61521	35901.3875
1506.99934	37763.8875
1510.38121	39440.8875
1513.76081	39966.3875
1517.13816	38779.3875
1520.51324	36466.0875
1523.88607	34155.1875
1527.25665	32554.1875
1530.62498	31672.0875
1533.99105	31150.5875
1537.35488	30836.5875
1540.71647	30561.2875
1544.07581	30381.6875
1547.4329	30205.0875
1550.78776	30099.5875
1554.14038	30023.3875
1557.49077	30100.0875
1560.83892	30168.9875
1564.18484	30289.2875
1567.52853	30299.6875
1570.86999	30431.1875
1574.20922	30581.0875
1577.54624	30715.2875
1580.88103	30389.4875
1584.2136	29932.8875
1587.54395	29994.0875
1590.87208	30827.2875
1594.19801	32241.5875
1597.52172	33935.3875
1600.84321	34738.5875
1604.16251	33933.2875
1607.47959	32159.7875
1610.79447	30155.9875
1614.10715	28251.7875
1617.41763	26584.0875
1620.7259	25462.4875
1624.03199	24892.3875
1627.33587	24850.7875
1630.63757	25304.8875
1633.93707	26310.3875
1637.23439	27818.6875
1640.52951	29704.9875
1643.82246	31817.8875
1647.11321	33630.2875
1650.40179	34296.3875
1653.68819	32976.5875
1656.97241	29983.3875
1660.25446	26761.8875
1663.53433	24347.2875
1666.81203	22806.0875
1670.08756	21800.6875
1673.36092	21196.7875
1676.63211	20725.7875
1679.90115	20434.2875
1683.16801	20194.0875
1686.43272	20003.3875
1689.69527	19888.0875
1692.95567	19752.6875
1696.2139	19709.2875
1699.46999	19654.0875
1702.72392	19593.7875
1705.97571	19519.6875
1709.22535	19493.0875
1712.47284	19508.6875
1715.71819	19471.0875
1718.96139	19407.9875
1722.20246	19372.6875
1725.44139	19306.5875
1728.67818	19222.8875
1731.91284	19122.9875
1735.14537	19009.7875
1738.37576	18955.1875
1741.60403	18890.3875
1744.83017	18844.8875
1748.05418	18805.2875
1751.27607	18760.2875
1754.49584	18765.8875
1757.71349	18783.8875
1760.92903	18723.9875
1764.14244	18747.5875
1767.35375	18733.1875
1770.56294	18704.2875
1773.77002	18673.4875
1776.97499	18650.0875
1780.17785	18608.5875
1783.37861	18592.0875
1786.57727	18584.0875
1789.77382	18561.9875
1792.96828	18553.3875
1796.16064	18519.6875
1799.3509	18470.6875
1802.53907	18468.1875
1805.72514	18407.9875
1808.90913	18376.1875
1812.09102	18376.2875
1815.27083	18320.7875
1818.44856	18287.7875
1821.6242	18276.0875
1824.79776	18266.3875
1827.96924	18278.9875
1831.13864	18238.6875
1834.30597	18242.9875
1837.47122	18227.8875
1840.6344	18233.9875
1843.7955	18225.9875
1846.95454	18227.8875
1850.11151	18256.3875
1853.26642	18201.8875
1856.41926	18203.7875
1859.57004	18223.9875
1862.71876	18244.4875
1865.86542	18214.9875
1869.01003	18153.3875
1872.15258	18174.6875
1875.29308	18169.4875
1878.43152	18158.1875
1881.56792	18179.8875
1884.70227	18187.4875
1887.83457	18159.0875
1890.96482	18200.3875
1894.09304	18175.4875
1897.21921	18127.1875
1900.34335	18135.2875
1903.46544	18134.2875
1906.58551	18153.3875
1909.70353	18119.8875
1912.81953	18098.9875
1915.93349	18060.3875
1919.04543	18031.3875
1922.15534	17986.5875
1925.26322	17970.2875
1928.36908	17941.0875
1931.47292	17879.1875
1934.57473	17833.3875
1937.67453	17778.0875
1940.77232	17750.9875
1943.86808	17680.2875
1946.96184	17662.5875
1950.05358	17590.4875
1953.14331	17527.4875
1956.23103	17482.2875
1959.31675	17461.3875
1962.40046	17438.4875
1965.48217	17357.2875
1968.56188	17290.0875
1971.63959	17256.8875
1974.7153	17206.8875
1977.78901	17181.5875
1980.86073	17113.5875
1983.93046	17025.5875
1986.99819	17009.1875
1990.06394	17016.7875
1993.1277	16878.0875
1996.18947	16843.3875
1999.24925	16816.3875
2002.30706	16761.1875
2005.36288	16674.4875
2008.41672	16669.3875
2011.46859	16664.9875
2014.51848	16623.0875
2017.56639	16565.2875
2020.61233	16522.4875
2023.6563	16476.3875
2026.6983	16469.3875
2029.73833	16421.9875
2032.7764	16408.9875
2035.8125	16360.5875
2038.84664	16345.9875
2041.87881	16339.9875
2044.90903	16323.3875
2047.93729	16283.6875
2050.96359	16270.7875
2053.98794	16228.9875
2057.01034	16198.2875
2060.03078	16191.0875
2063.04927	16184.6875
2066.06582	16189.2875
2069.08042	16190.2875
2072.09307	16178.9875
2075.10378	16158.1875
2078.11255	16127.5875
2081.11938	16157.2875
2084.12426	16119.8875
2087.12722	16117.9875
2090.12824	16099.0875
2093.12732	16121.1875
2096.12447	16109.0875
2099.11969	16101.0875
2102.11299	16113.9875
2105.10435	16131.6875
2108.09379	16177.5875
2111.08131	16157.0875
2114.0669	16164.4875
2117.05057	16169.3875
2120.03233	16183.4875
2123.01216	16190.2875
2125.99008	16182.5875
2128.96609	16217.6875
2131.94018	16273.0875
2134.91236	16274.0875
2137.88263	16281.5875
2140.851	16292.5875
2143.81746	16313.1875
2146.78201	16347.0875
2149.74466	16294.2875
2152.7054	16289.0875
2155.66425	16301.9875
2158.6212	16303.2875
2161.57625	16304.2875
2164.52941	16305.7875
2167.48067	16298.0875
2170.43004	16294.8875
2173.37752	16310.5875
2176.32311	16295.9875
2179.26681	16291.2875
2182.20863	16294.3875
2185.14856	16297.6875
2188.08661	16281.2875
2191.02278	16281.6875
2193.95707	16282.3875
2196.88948	16294.9875
2199.82001	16288.4875
2202.74867	16281.6875
2205.67545	16257.1875
2208.60037	16246.7875
2211.52341	16267.7875
2214.44458	16215.9875
2217.36388	16226.4875
2220.28132	16249.2875
2223.1969	16179.0875
2226.11061	16160.0875
2229.02246	16124.4875
2231.93245	16141.8875
2234.84058	16024.0875
2237.74686	16015.9875
2240.65128	16044.0875
2243.55385	15994.4875
2246.45456	16015.6875
2249.35343	16004.1875
2252.25044	15954.3875
2255.14561	15922.4875
2258.03893	15916.3875
2260.93041	15909.9875
2263.82004	15848.6875
2266.70783	15814.6875
2269.59378	15805.0875
2272.4779	15776.3875
2275.36017	15721.3875
2278.24061	15702.3875
2281.11922	15699.1875
2283.996	15633.7875
2286.87094	15630.0875
2289.74405	15584.1875
2292.61534	15620.9875
2295.4848	15623.5875
2298.35243	15569.6875
2301.21824	15592.1875
2304.08223	15607.8875
2306.94439	15615.3875
2309.80474	15619.3875
2312.66327	15632.4875
2315.51999	15593.0875
2318.37489	15615.6875
2321.22797	15610.9875
2324.07925	15608.9875
2326.92871	15553.9875
2329.77637	15561.9875
2332.62222	15551.5875
2335.46626	15530.2875
2338.3085	15550.2875
2341.14893	15509.0875
2343.98756	15527.6875
2346.8244	15539.9875
2349.65943	15530.6875
2352.49267	15511.3875
2355.32411	15543.3875
2358.15376	15505.0875
2360.98161	15472.4875
2363.80768	15488.9875
2366.63195	15445.8875
2369.45444	15462.5875
2372.27514	15431.0875
2375.09405	15380.0875
2377.91118	15367.5875
2380.72652	15325.3875
2383.54009	15271.9875
2386.35187	15280.0875
2389.16188	15245.2875
2391.97011	15232.9875
2394.77657	15195.4875
2397.58125	15186.9875
2400.38416	15150.5875
2403.18529	15110.8875
2405.98466	15088.2875
2408.78226	15085.7875
2411.57809	15076.8875
2414.37216	15013.7875
2417.16446	15019.1875
2419.955	14952.7875
2422.74378	15000.9875
2425.5308	14954.7875
2428.31606	14923.2875
2431.09956	14935.9875
2433.88131	14907.0875
2436.6613	14908.9875
2439.43954	14933.7875
2442.21603	14933.3875
2444.99077	14908.1875
2447.76377	14900.8875
2450.53501	14886.6875
2453.30451	14893.1875
2456.07226	14885.7875
2458.83827	14852.7875
2461.60254	14843.3875
2464.36507	14857.4875
2467.12586	14843.4875
2469.88492	14870.2875
2472.64224	14880.4875
2475.39782	14843.3875
2478.15167	14832.1875
2480.90379	14857.6875
2483.65417	14859.4875
2486.40283	14878.5875
2489.14976	14877.7875
2491.89497	14856.3875
2494.63845	14890.3875
2497.3802	14847.4875
2500.12024	14863.7875
2502.85855	14859.9875
2505.59514	14851.0875
2508.33002	14832.6875
2511.06318	14807.4875
2513.79462	14796.8875
2516.52435	14799.9875
2519.25237	14758.9875
2521.97867	14748.0875
2524.70327	14733.1875
2527.42616	14735.8875
2530.14734	14739.8875
2532.86681	14706.4875
2535.58458	14684.5875
2538.30065	14664.6875
2541.01501	14661.0875
2543.72768	14620.0875
2546.43864	14634.7875
2549.14791	14621.1875
2551.85548	14602.0875
2554.56136	14595.7875
2557.26554	14586.8875
2559.96803	14577.1875
2562.66883	14533.3875
2565.36794	14557.6875
2568.06536	14549.1875
2570.7611	14501.0875
2573.45514	14533.0875
2576.14751	14533.4875
2578.83819	14497.5875
2581.52719	14470.3875
2584.21451	14483.8875
2586.90015	14464.3875
2589.58411	14430.5875
2592.2664	14438.5875
2594.94701	14429.2875
2597.62594	14443.1875
2600.30321	14407.8875
2602.9788	14385.3875
2605.65273	14382.4875
2608.32498	14377.8875
2610.99557	14363.7875
2613.66449	14382.6875
2616.33175	14321.7875
2618.99734	14365.1875
2621.66128	14374.4875
2624.32355	14384.4875
2626.98416	14366.9875
2629.64311	14367.5875
2632.30041	14352.0875
2634.95605	14331.0875
2637.61004	14306.1875
2640.26238	14281.5875
2642.91306	14302.7875
2645.56209	14248.1875
2648.20948	14246.9875
2650.85521	14249.9875
2653.4993	14240.9875
2656.14175	14229.2875
2658.78255	14248.1875
2661.42171	14235.4875
2664.05923	14246.4875
2666.6951	14273.7875
2669.32934	14269.0875
2671.96194	14285.1875
2674.59291	14277.4875
2677.22224	14265.6875
2679.84993	14252.1875
2682.476	14257.6875
2685.10043	14278.9875
2687.72324	14254.6875
2690.34441	14262.5875
2692.96396	14222.4875
2695.58188	14252.0875
2698.19818	14203.2875
2700.81285	14264.9875
2703.4259	14221.2875
2706.03733	14284.3875
2708.64714	14244.5875
2711.25533	14264.0875
2713.86191	14275.4875
2716.46687	14271.9875
2719.07021	14248.9875
2721.67194	14283.9875
2724.27206	14247.6875
2726.87057	14257.1875
2729.46747	14279.3875
2732.06276	14253.8875
2734.65644	14262.7875
2737.24852	14276.0875
2739.83899	14246.6875
2742.42786	14253.3875
2745.01513	14221.7875
2747.60079	14237.5875
2750.18486	14223.3875
2752.76733	14224.2875
2755.3482	14226.7875
2757.92747	14211.3875
2760.50515	14188.0875
2763.08123	14204.8875
2765.65573	14161.5875
2768.22863	14165.6875
2770.79994	14161.0875
2773.36967	14153.7875
2775.9378	14136.5875
2778.50435	14123.0875
2781.06932	14108.7875
2783.6327	14113.0875
2786.1945	14088.5875
2788.75471	14082.4875
2791.31335	14025.3875
2793.87041	14004.7875
2796.42589	13973.7875
2798.97979	13983.0875
2801.53212	13961.9875
2804.08288	13936.9875
2806.63206	13873.6875
2809.17967	13877.5875
2811.72571	13888.0875
2814.27018	13911.9875
2816.81308	13865.6875
2819.35442	13861.6875
2821.89419	13805.3875
2824.43239	13817.0875
2826.96904	13806.8875
2829.50412	13821.2875
2832.03763	13790.3875
2834.56959	13779.4875
2837.1	13759.3875
2839.62884	13751.6875
2842.15613	13737.6875
2844.68186	13777.7875
2847.20604	13783.5875
2849.72867	13771.7875
2852.24974	13750.5875
2854.76927	13741.5875
2857.28724	13698.8875
2859.80367	13668.7875
2862.31855	13656.4875
2864.83189	13657.1875
2867.34368	13648.7875
2869.85393	13657.8875
2872.36264	13667.1875
2874.8698	13651.6875
2877.37543	13685.4875
2879.87952	13680.2875
2882.38207	13675.5875
2884.88308	13681.7875
2887.38256	13685.0875
2889.88051	13666.3875
2892.37692	13653.1875
2894.8718	13651.0875
2897.36515	13661.7875
2899.85698	13682.6875
2902.34727	13707.8875
2904.83604	13715.1875
2907.32328	13711.6875
2909.809	13703.6875
2912.29319	13724.3875
2914.77587	13724.5875
2917.25702	13734.2875
2919.73665	13698.9875
2922.21476	13699.1875
2924.69136	13671.6875
2927.16644	13672.9875
2929.64	13669.5875
2932.11205	13643.9875
2934.58258	13581.0875
2937.05161	13649.9875
2939.51912	13638.8875
2941.98513	13602.7875
2944.44962	13620.9875
2946.91261	13545.1875
2949.37409	13580.2875
2951.83407	13561.7875
2954.29254	13579.1875
2956.74951	13554.2875
2959.20498	13530.4875
2961.65895	13511.5875
2964.11142	13492.2875
2966.56239	13476.3875
2969.01186	13485.7875
2971.45984	13438.7875
2973.90632	13449.6875
2976.35131	13406.8875
2978.7948	13379.1875
2981.23681	13335.9875
2983.67732	13324.0875
2986.11635	13298.4875
2988.55388	13267.1875
2990.98993	13242.5875
2993.4245	13244.0875
2995.85758	13230.0875
2998.28917	13158.0875
3000.71928	13168.4875
3003.14791	13156.3875
3005.57506	13148.0875
3008.00073	13118.5875
3010.42493	13121.2875
3012.84764	13089.1875
3015.26888	13098.9875
3017.68865	13060.4875
3020.10694	13048.2875
3022.52376	13010.8875
3024.9391	13008.0875
3027.35298	12982.6875
3029.76539	12956.3875
3032.17632	12954.2875
3034.5858	12931.2875
3036.9938	12923.3875
3039.40034	12914.1875
3041.80542	12888.4875
3044.20903	12859.2875
3046.61118	12854.3875
3049.01187	12815.8875
3051.4111	12817.0875
3053.80888	12808.4875
3056.20519	12770.6875
3058.60005	12736.6875
3060.99345	12752.1875
3063.3854	12726.5875
3065.7759	12692.8875
3068.16494	12648.3875
3070.55254	12621.9875
3072.93868	12589.6875
3075.32338	12570.9875
3077.70662	12572.2875
3080.08842	12545.6875
3082.46878	12543.5875
3084.84769	12504.1875
3087.22515	12526.9875
3089.60118	12500.5875
3091.97576	12494.0875
3094.3489	12475.4875
3096.72061	12481.6875
3099.09087	12466.3875
3101.4597	12465.9875
3103.82709	12443.2875
3106.19305	12436.9875
3108.55757	12452.6875
3110.92066	12388.6875
3113.28232	12395.9875
3115.64255	12382.5875
3118.00134	12325.3875
3120.35871	12358.7875
3122.71466	12291.5875
3125.06917	12266.7875
3127.42226	12282.2875
3129.77393	12270.6875
3132.12417	12269.3875
3134.47299	12277.4875
3136.82039	12278.3875
3139.16636	12280.7875
3141.51092	12263.8875
3143.85406	12264.4875
3146.19579	12258.6875
3148.53609	12295.0875
3150.87499	12299.2875
3153.21246	12302.1875
3155.54853	12305.5875
3157.88318	12299.1875
3160.21642	12307.2875
3162.54826	12290.6875
3164.87868	12288.3875
3167.2077	12276.8875
3169.5353	12272.5875
3171.86151	12286.5875
3174.18631	12256.5875
3176.5097	12262.9875
3178.83169	12240.8875
3181.15228	12226.4875
3183.47147	12168.8875
3185.78926	12216.9875
3188.10565	12209.0875
3190.42065	12180.4875
3192.73424	12225.0875
3195.04645	12200.7875
3197.35725	12205.1875
3199.66667	12185.1875
3201.97469	12205.6875
3204.28132	12220.8875
3206.58656	12217.3875
3208.8904	12211.7875
3211.19287	12243.7875
3213.49394	12263.2875
3215.79363	12226.3875
3218.09193	12251.8875
3220.38884	12228.2875
3222.68438	12222.9875
3224.97853	12223.5875
3227.2713	12196.7875
3229.56269	12192.0875
3231.8527	12191.6875
3234.14133	12172.8875
3236.42858	12136.3875
3238.71446	12134.3875
3240.99896	12124.9875
3243.28209	12115.8875
3245.56384	12120.1875
3247.84423	12121.9875
3250.12324	12088.5875
3252.40088	12105.2875
3254.67715	12089.3875
3256.95205	12054.8875
3259.22558	12071.8875
3261.49775	12056.7875
3263.76855	12037.8875
3266.03799	12020.1875
3268.30606	11998.0875
3270.57277	11989.6875
3272.83812	11970.4875
3275.10211	11955.7875
3277.36474	11917.9875
3279.62601	11919.7875
3281.88593	11902.5875
3284.14448	11917.8875
3286.40168	11914.8875
3288.65753	11905.6875
3290.91202	11876.2875
3293.16516	11840.7875
3295.41695	11821.4875
3297.66738	11786.6875
3299.91647	11708.6875
3302.16421	11640.8875
3304.4106	11595.0875
3306.65564	11558.3875
3308.89933	11494.3875
3311.14169	11428.7875
3313.38269	11347.1875
3315.62236	11281.1875
3317.86068	11180.9875
3320.09766	11067.8875
3322.3333	10965.9875
3324.5676	10987.4875
3326.80056	10818.2875
3329.03219	10792.2875
3331.26248	3.5875
3333.49143	1.9875
3335.71905	-0.7125
