Data from AgNPs_FTO_APTES_UA_10uM_R6G_10uM_NaF_0.1M_Addition_RamanShift__34__13-49-37-326.txt Node

Date: Fri Dec 17 13:49:37 GMT 2021
User: TCL
Spectrometer: QEP01345
Trigger mode: 4
Integration Time (sec): 7.000000E0
Scans to average: 10
Electric dark correction enabled: true
Nonlinearity correction enabled: false
Boxcar width: 0
XAxis mode: Raman Shifts
Number of Pixels in Spectrum: 1044
>>>>>Begin Spectral Data<<<<<
46.04893	-0.075
50.45542	-1.275
54.85868	-2.975
59.25871	-0.475
63.6555	122.925
68.04907	127.625
72.43941	131.225
76.82654	137.125
81.21044	139.825
85.59113	143.325
89.96862	150.725
94.34289	149.125
98.71396	152.725
103.08183	160.525
107.4465	165.025
111.80798	168.025
116.16626	176.925
120.52136	180.725
124.87327	194.525
129.222	206.925
133.56755	213.225
137.90993	233.325
142.24913	261.625
146.58517	286.525
150.91804	333.525
155.24774	402.225
159.57429	500.425
163.89768	649.925
168.21792	852.725
172.53501	1168.125
176.84895	1636.225
181.15975	2302.425
185.46741	3228.325
189.77193	4457.725
194.07331	5998.525
198.37157	7756.425
202.6667	9622.225
206.9587	11437.025
211.24758	13247.925
215.53334	15031.925
219.81599	16904.725
224.09553	18993.425
228.37195	21314.125
232.64527	23831.225
236.91549	26453.925
241.18261	29179.225
245.44663	31836.925
249.70755	34180.725
253.96539	36244.525
258.22014	38012.625
262.4718	39411.725
266.72039	40407.725
270.96589	40932.425
275.20832	40955.625
279.44768	40599.925
283.68397	40068.425
287.91719	39608.725
292.14735	39198.125
296.37445	39025.225
300.59849	38958.125
304.81948	39114.525
309.03742	39064.925
313.25231	38945.225
317.46415	38587.925
321.67296	38052.625
325.87872	37654.225
330.08145	37561.625
334.28114	37698.025
338.47781	38023.825
342.67145	38466.725
346.86207	39040.925
351.04966	39826.325
355.23424	40548.125
359.4158	41323.125
363.59435	41956.925
367.76989	42416.325
371.94243	42822.325
376.11196	43062.125
380.27849	43378.325
384.44203	43717.225
388.60257	44017.925
392.76012	44373.725
396.91468	44816.825
401.06626	45390.225
405.21485	45857.225
409.36047	45978.125
413.50311	45665.225
417.64277	45489.625
421.77947	45502.725
425.9132	45748.925
430.04396	45930.525
434.17176	46154.525
438.2966	46506.725
442.41849	47208.525
446.53742	48323.625
450.6534	49547.325
454.76644	50486.325
458.87653	50834.425
462.98368	50549.325
467.08789	49879.425
471.18916	49071.025
475.2875	48189.925
479.38291	47442.925
483.4754	46903.325
487.56496	46520.425
491.6516	46373.725
495.73531	46331.025
499.81612	46522.625
503.89401	46876.625
507.96899	46967.425
512.04106	46893.425
516.11023	46810.225
520.1765	46746.525
524.23987	46716.625
528.30034	46644.025
532.35792	46419.325
536.41261	46052.725
540.46441	45583.925
544.51333	45394.425
548.55936	45518.425
552.60252	45938.825
556.64279	46534.325
560.6802	46984.225
564.71473	47135.425
568.7464	47387.225
572.7752	47909.125
576.80114	48395.725
580.82422	49222.425
584.84444	50534.225
588.86181	51973.025
592.87633	53349.025
596.888	53769.425
600.89682	53245.525
604.9028	53983.825
608.90594	57501.125
612.90624	60975.325
616.90371	58424.525
620.89834	51901.425
624.89015	48946.125
628.87913	48404.825
632.86528	48198.025
636.84862	47852.925
640.82913	47190.025
644.80683	46343.025
648.78172	45739.525
652.75379	45860.225
656.72306	46449.725
660.68952	47168.025
664.65319	47119.925
668.61405	46658.525
672.57211	46785.525
676.52738	47012.925
680.47986	46894.525
684.42955	46520.825
688.37646	46527.125
692.32058	46982.425
696.26192	47599.025
700.20048	48185.425
704.13626	48314.525
708.06928	47944.425
711.99952	47510.125
715.927	47608.725
719.85171	47815.525
723.77365	47715.325
727.69284	47147.225
731.60928	46721.525
735.52295	46448.325
739.43388	46513.525
743.34206	46650.725
747.24749	46809.325
751.15017	47071.625
755.05012	47443.725
758.94733	48217.525
762.8418	49539.325
766.73354	51476.525
770.62254	53501.625
774.50882	54315.025
778.39237	53318.325
782.27321	51356.125
786.15132	49418.125
790.02671	48122.925
793.89938	47591.825
797.76935	47385.425
801.6366	47394.125
805.50115	47274.125
809.36299	47148.025
813.22213	46854.025
817.07857	46698.725
820.93231	46514.125
824.78336	46552.625
828.63172	46603.525
832.47738	46634.625
836.32036	46781.825
840.16066	46968.825
843.99827	47157.125
847.8332	47093.925
851.66546	46882.225
855.49504	46857.725
859.32195	46889.825
863.1462	46822.725
866.96777	46723.325
870.78668	46716.225
874.60293	46704.925
878.41652	46736.425
882.22745	46998.025
886.03573	47200.425
889.84136	47196.625
893.64433	46933.625
897.44466	46610.625
901.24235	46414.625
905.0374	46335.925
908.8298	46328.825
912.61957	46358.525
916.40671	46625.525
920.19121	46890.025
923.97308	47390.025
927.75233	47778.625
931.52895	47870.325
935.30295	47560.125
939.07433	47089.925
942.84309	46735.825
946.60924	46665.525
950.37278	46596.325
954.13371	46466.625
957.89203	46237.725
961.64774	46143.725
965.40086	46068.425
969.15137	46054.725
972.89929	46153.025
976.64461	46308.925
980.38733	46569.425
984.12747	46792.225
987.86502	47245.125
991.59999	47728.525
995.33237	48418.725
999.06217	49521.025
1002.78939	50758.625
1006.51404	51576.925
1010.23611	52168.825
1013.95561	52396.525
1017.67255	52255.225
1021.38692	51732.825
1025.09872	51511.225
1028.80796	52074.725
1032.51465	53663.425
1036.21877	55036.925
1039.92035	55270.125
1043.61937	54530.025
1047.31584	53133.225
1051.00976	51756.525
1054.70114	51008.225
1058.38998	50647.625
1062.07627	50633.625
1065.76003	50656.225
1069.44126	50813.825
1073.11995	51320.325
1076.79611	51978.425
1080.46974	52426.625
1084.14085	52724.025
1087.80943	52979.225
1091.47549	52970.125
1095.13903	52612.325
1098.80005	51986.925
1102.45857	51395.725
1106.11456	51104.825
1109.76805	50981.025
1113.41903	51049.625
1117.06751	51057.825
1120.71348	51239.125
1124.35696	51393.825
1127.99793	51670.125
1131.63641	51844.225
1135.2724	51653.425
1138.90589	51442.825
1142.5369	51242.825
1146.16542	51154.725
1149.79145	51210.125
1153.415	51264.425
1157.03607	51446.025
1160.65467	52023.025
1164.27079	53304.825
1167.88443	54919.525
1171.49561	56869.725
1175.10432	59415.825
1178.71056	62868.525
1182.31434	66499.525
1185.91565	68687.425
1189.51451	69019.125
1193.11091	67684.025
1196.70485	65429.425
1200.29634	63423.425
1203.88538	62013.025
1207.47197	60967.425
1211.05612	59993.725
1214.63782	59123.725
1218.21708	58589.025
1221.79391	58291.025
1225.36829	58194.525
1228.94024	57640.025
1232.50976	56874.125
1236.07685	56096.125
1239.6415	55770.925
1243.20374	55893.325
1246.76355	56352.625
1250.32093	57226.625
1253.8759	58281.025
1257.42845	59463.625
1260.97859	60827.125
1264.52631	62202.525
1268.07163	63812.425
1271.61453	65399.625
1275.15503	66976.025
1278.69312	68409.825
1282.22882	69389.025
1285.76211	70002.625
1289.29301	70805.925
1292.82151	72059.025
1296.34761	73936.125
1299.87133	76922.525
1303.39266	80730.325
1306.9116	85007.025
1310.42815	88492.625
1313.94233	90095.025
1317.45412	89183.825
1320.96354	86756.225
1324.47058	84357.925
1327.97525	82328.825
1331.47754	81171.125
1334.97747	80532.125
1338.47502	80132.925
1341.97022	79227.225
1345.46305	78026.825
1348.95352	77428.525
1352.44163	78227.225
1355.92738	80761.025
1359.41078	84649.325
1362.89183	87595.525
1366.37053	86511.625
1369.84688	80935.325
1373.32088	74034.625
1376.79254	69075.625
1380.26186	66956.425
1383.72883	66438.025
1387.19347	65996.925
1390.65578	65008.925
1394.11575	64067.625
1397.57339	63854.125
1401.0287	64177.225
1404.48168	64785.025
1407.93234	65465.625
1411.38068	65793.025
1414.82669	65498.025
1418.27039	64568.025
1421.71177	63280.125
1425.15083	62138.825
1428.58758	61688.725
1432.02203	62253.625
1435.45416	63346.625
1438.88399	64469.825
1442.31151	65121.925
1445.73673	65232.325
1449.15965	64989.225
1452.58027	64763.225
1455.9986	64248.025
1459.41463	64274.025
1462.82837	65053.625
1466.23982	66416.225
1469.64898	67706.825
1473.05586	68741.625
1476.46045	69369.025
1479.86276	69486.625
1483.26279	69408.225
1486.66054	69513.825
1490.05602	69901.425
1493.44922	70251.725
1496.84016	70357.625
1500.22882	70503.725
1503.61521	71295.525
1506.99934	72542.325
1510.38121	73565.925
1513.76081	73613.625
1517.13816	72160.125
1520.51324	69757.825
1523.88607	67516.725
1527.25665	66231.625
1530.62498	65840.425
1533.99105	65656.425
1537.35488	65405.725
1540.71647	64980.125
1544.07581	64369.925
1547.4329	63913.725
1550.78776	63418.025
1554.14038	62902.825
1557.49077	62588.425
1560.83892	62211.825
1564.18484	62029.325
1567.52853	62050.125
1570.86999	62308.225
1574.20922	62750.225
1577.54624	63206.225
1580.88103	63333.425
1584.2136	63742.325
1587.54395	65272.425
1590.87208	68399.725
1594.19801	72392.325
1597.52172	76144.525
1600.84321	77571.125
1604.16251	75318.625
1607.47959	70566.825
1610.79447	65357.825
1614.10715	60825.025
1617.41763	57456.525
1620.7259	55357.125
1624.03199	54584.425
1627.33587	54762.725
1630.63757	55904.425
1633.93707	58101.625
1637.23439	61442.025
1640.52951	66166.925
1643.82246	71671.225
1647.11321	75772.125
1650.40179	75800.025
1653.68819	71220.125
1656.97241	64158.525
1660.25446	57790.725
1663.53433	53516.525
1666.81203	50934.325
1670.08756	49300.025
1673.36092	48277.625
1676.63211	47587.525
1679.90115	47151.625
1683.16801	46725.025
1686.43272	46484.825
1689.69527	46296.125
1692.95567	46040.525
1696.2139	46027.325
1699.46999	45993.025
1702.72392	45868.025
1705.97571	45882.425
1709.22535	45813.725
1712.47284	45823.225
1715.71819	45816.825
1718.96139	45714.025
1722.20246	45689.825
1725.44139	45558.725
1728.67818	45412.325
1731.91284	45248.025
1735.14537	45112.125
1738.37576	44965.225
1741.60403	44832.825
1744.83017	44736.325
1748.05418	44706.525
1751.27607	44706.825
1754.49584	44569.325
1757.71349	44562.125
1760.92903	44583.625
1764.14244	44617.825
1767.35375	44640.425
1770.56294	44591.425
1773.77002	44520.625
1776.97499	44506.325
1780.17785	44471.625
1783.37861	44453.625
1786.57727	44451.525
1789.77382	44330.525
1792.96828	44292.325
1796.16064	44220.125
1799.3509	44157.125
1802.53907	44179.925
1805.72514	44084.425
1808.90913	44014.025
1812.09102	43993.025
1815.27083	43886.225
1818.44856	43796.925
1821.6242	43765.525
1824.79776	43744.025
1827.96924	43735.025
1831.13864	43702.225
1834.30597	43744.825
1837.47122	43761.125
1840.6344	43735.325
1843.7955	43713.925
1846.95454	43714.825
1850.11151	43696.525
1853.26642	43633.025
1856.41926	43650.425
1859.57004	43655.625
1862.71876	43671.125
1865.86542	43592.625
1869.01003	43552.525
1872.15258	43576.025
1875.29308	43592.225
1878.43152	43535.525
1881.56792	43531.625
1884.70227	43535.525
1887.83457	43532.625
1890.96482	43476.625
1894.09304	43466.525
1897.21921	43422.425
1900.34335	43384.725
1903.46544	43402.425
1906.58551	43341.425
1909.70353	43293.225
1912.81953	43233.525
1915.93349	43196.025
1919.04543	43130.525
1922.15534	43080.125
1925.26322	43020.625
1928.36908	43000.325
1931.47292	42930.025
1934.57473	42895.125
1937.67453	42728.825
1940.77232	42637.925
1943.86808	42576.825
1946.96184	42529.725
1950.05358	42418.425
1953.14331	42319.225
1956.23103	42224.725
1959.31675	42129.725
1962.40046	42041.425
1965.48217	41913.825
1968.56188	41863.325
1971.63959	41730.025
1974.7153	41629.125
1977.78901	41572.825
1980.86073	41412.725
1983.93046	41306.225
1986.99819	41220.725
1990.06394	41144.925
1993.1277	40956.325
1996.18947	40845.925
1999.24925	40801.125
2002.30706	40686.025
2005.36288	40596.325
2008.41672	40506.325
2011.46859	40448.725
2014.51848	40349.525
2017.56639	40254.225
2020.61233	40139.225
2023.6563	40118.225
2026.6983	40056.525
2029.73833	40012.125
2032.7764	39928.625
2035.8125	39800.925
2038.84664	39822.725
2041.87881	39827.525
2044.90903	39753.225
2047.93729	39696.025
2050.96359	39642.125
2053.98794	39622.025
2057.01034	39576.625
2060.03078	39599.525
2063.04927	39561.325
2066.06582	39600.025
2069.08042	39600.525
2072.09307	39522.125
2075.10378	39509.025
2078.11255	39461.925
2081.11938	39473.325
2084.12426	39444.025
2087.12722	39420.825
2090.12824	39445.325
2093.12732	39419.425
2096.12447	39547.625
2099.11969	39487.225
2102.11299	39494.325
2105.10435	39578.325
2108.09379	39596.725
2111.08131	39633.525
2114.0669	39628.425
2117.05057	39669.225
2120.03233	39731.225
2123.01216	39803.825
2125.99008	39902.225
2128.96609	39847.025
2131.94018	39912.025
2134.91236	39980.225
2137.88263	40030.325
2140.851	40012.025
2143.81746	40135.925
2146.78201	40139.725
2149.74466	40158.225
2152.7054	40139.125
2155.66425	40178.125
2158.6212	40200.725
2161.57625	40203.525
2164.52941	40212.125
2167.48067	40177.325
2170.43004	40203.225
2173.37752	40195.025
2176.32311	40171.725
2179.26681	40232.125
2182.20863	40198.325
2185.14856	40226.625
2188.08661	40260.725
2191.02278	40224.825
2193.95707	40207.925
2196.88948	40248.525
2199.82001	40269.025
2202.74867	40249.425
2205.67545	40276.225
2208.60037	40204.925
2211.52341	40208.325
2214.44458	40183.125
2217.36388	40115.725
2220.28132	40071.825
2223.1969	40012.125
2226.11061	39972.725
2229.02246	39876.325
2231.93245	39835.825
2234.84058	39767.925
2237.74686	39761.525
2240.65128	39774.125
2243.55385	39696.025
2246.45456	39590.925
2249.35343	39584.825
2252.25044	39490.825
2255.14561	39437.525
2258.03893	39410.625
2260.93041	39367.325
2263.82004	39290.625
2266.70783	39247.025
2269.59378	39172.825
2272.4779	39097.125
2275.36017	39004.825
2278.24061	39023.925
2281.11922	38900.825
2283.996	38863.325
2286.87094	38850.125
2289.74405	38788.025
2292.61534	38750.225
2295.4848	38757.725
2298.35243	38793.825
2301.21824	38814.525
2304.08223	38827.025
2306.94439	38866.525
2309.80474	38898.725
2312.66327	38879.325
2315.51999	38924.325
2318.37489	38888.725
2321.22797	38840.325
2324.07925	38830.225
2326.92871	38728.825
2329.77637	38659.525
2332.62222	38652.625
2335.46626	38640.625
2338.3085	38658.525
2341.14893	38666.325
2343.98756	38636.125
2346.8244	38567.425
2349.65943	38554.525
2352.49267	38603.025
2355.32411	38595.225
2358.15376	38527.725
2360.98161	38436.825
2363.80768	38391.225
2366.63195	38369.425
2369.45444	38335.125
2372.27514	38338.125
2375.09405	38222.325
2377.91118	38146.225
2380.72652	38056.725
2383.54009	38085.325
2386.35187	38048.725
2389.16188	37972.425
2391.97011	37942.225
2394.77657	37893.125
2397.58125	37879.025
2400.38416	37811.425
2403.18529	37748.125
2405.98466	37725.625
2408.78226	37609.925
2411.57809	37557.525
2414.37216	37573.525
2417.16446	37529.025
2419.955	37476.525
2422.74378	37492.725
2425.5308	37451.025
2428.31606	37380.225
2431.09956	37422.425
2433.88131	37335.425
2436.6613	37318.425
2439.43954	37352.825
2442.21603	37310.625
2444.99077	37306.425
2447.76377	37315.825
2450.53501	37269.225
2453.30451	37309.425
2456.07226	37253.525
2458.83827	37223.025
2461.60254	37186.025
2464.36507	37171.525
2467.12586	37132.225
2469.88492	37168.125
2472.64224	37228.125
2475.39782	37217.425
2478.15167	37144.025
2480.90379	37162.025
2483.65417	37152.525
2486.40283	37165.525
2489.14976	37198.425
2491.89497	37156.825
2494.63845	37178.925
2497.3802	37138.325
2500.12024	37081.225
2502.85855	37096.325
2505.59514	37092.125
2508.33002	37137.825
2511.06318	37116.225
2513.79462	37050.025
2516.52435	37061.425
2519.25237	37042.225
2521.97867	36978.025
2524.70327	36993.025
2527.42616	36927.625
2530.14734	36955.125
2532.86681	36875.825
2535.58458	36908.625
2538.30065	36880.525
2541.01501	36817.425
2543.72768	36773.825
2546.43864	36753.125
2549.14791	36692.025
2551.85548	36645.025
2554.56136	36587.625
2557.26554	36610.625
2559.96803	36587.025
2562.66883	36548.125
2565.36794	36521.225
2568.06536	36571.725
2570.7611	36515.425
2573.45514	36461.025
2576.14751	36520.325
2578.83819	36437.425
2581.52719	36375.025
2584.21451	36375.725
2586.90015	36405.425
2589.58411	36300.025
2592.2664	36305.425
2594.94701	36257.625
2597.62594	36215.225
2600.30321	36115.525
2602.9788	36205.025
2605.65273	36110.325
2608.32498	36089.125
2610.99557	36025.325
2613.66449	36063.325
2616.33175	35975.825
2618.99734	35956.025
2621.66128	35975.925
2624.32355	35937.225
2626.98416	35903.025
2629.64311	35917.325
2632.30041	35946.425
2634.95605	35841.725
2637.61004	35797.825
2640.26238	35757.125
2642.91306	35800.125
2645.56209	35744.425
2648.20948	35726.625
2650.85521	35688.325
2653.4993	35721.125
2656.14175	35655.825
2658.78255	35713.025
2661.42171	35733.025
2664.05923	35780.225
2666.6951	35773.125
2669.32934	35766.825
2671.96194	35823.625
2674.59291	35825.625
2677.22224	35746.825
2679.84993	35789.225
2682.476	35746.725
2685.10043	35821.325
2687.72324	35718.625
2690.34441	35655.425
2692.96396	35684.325
2695.58188	35723.725
2698.19818	35712.025
2700.81285	35749.525
2703.4259	35710.525
2706.03733	35793.525
2708.64714	35790.725
2711.25533	35873.125
2713.86191	35816.325
2716.46687	35821.525
2719.07021	35823.225
2721.67194	35866.425
2724.27206	35770.425
2726.87057	35842.225
2729.46747	35902.125
2732.06276	35845.925
2734.65644	35842.325
2737.24852	35881.225
2739.83899	35768.725
2742.42786	35829.625
2745.01513	35810.025
2747.60079	35788.625
2750.18486	35777.325
2752.76733	35760.925
2755.3482	35759.025
2757.92747	35746.925
2760.50515	35699.825
2763.08123	35700.225
2765.65573	35653.225
2768.22863	35618.925
2770.79994	35604.525
2773.36967	35589.725
2775.9378	35567.125
2778.50435	35519.825
2781.06932	35462.625
2783.6327	35473.425
2786.1945	35452.625
2788.75471	35455.825
2791.31335	35372.025
2793.87041	35310.225
2796.42589	35161.825
2798.97979	35097.225
2801.53212	35080.725
2804.08288	35059.625
2806.63206	34952.725
2809.17967	34969.225
2811.72571	34919.825
2814.27018	34904.925
2816.81308	34824.925
2819.35442	34759.825
2821.89419	34679.125
2824.43239	34696.625
2826.96904	34672.625
2829.50412	34682.325
2832.03763	34583.525
2834.56959	34563.825
2837.1	34477.025
2839.62884	34509.825
2842.15613	34414.425
2844.68186	34436.225
2847.20604	34418.425
2849.72867	34454.325
2852.24974	34419.825
2854.76927	34413.025
2857.28724	34283.525
2859.80367	34310.825
2862.31855	34272.025
2864.83189	34241.925
2867.34368	34188.025
2869.85393	34221.925
2872.36264	34183.625
2874.8698	34241.925
2877.37543	34289.625
2879.87952	34269.725
2882.38207	34289.825
2884.88308	34248.925
2887.38256	34302.225
2889.88051	34323.225
2892.37692	34321.625
2894.8718	34271.025
2897.36515	34351.625
2899.85698	34367.925
2902.34727	34455.925
2904.83604	34444.325
2907.32328	34504.225
2909.809	34483.325
2912.29319	34506.325
2914.77587	34468.025
2917.25702	34507.625
2919.73665	34425.925
2922.21476	34437.625
2924.69136	34329.425
2927.16644	34385.925
2929.64	34368.325
2932.11205	34315.125
2934.58258	34180.325
2937.05161	34225.225
2939.51912	34293.925
2941.98513	34252.325
2944.44962	34239.825
2946.91261	34152.825
2949.37409	34263.725
2951.83407	34242.825
2954.29254	34194.725
2956.74951	34201.425
2959.20498	34166.725
2961.65895	34142.025
2964.11142	34142.625
2966.56239	34063.225
2969.01186	34041.325
2971.45984	33968.625
2973.90632	33980.825
2976.35131	33916.525
2978.7948	33877.725
2981.23681	33809.125
2983.67732	33748.325
2986.11635	33668.425
2988.55388	33630.825
2990.98993	33562.925
2993.4245	33499.225
2995.85758	33494.725
2998.28917	33370.525
3000.71928	33395.025
3003.14791	33359.725
3005.57506	33314.225
3008.00073	33285.325
3010.42493	33264.025
3012.84764	33213.225
3015.26888	33180.825
3017.68865	33163.625
3020.10694	33165.325
3022.52376	33053.025
3024.9391	33035.825
3027.35298	32992.825
3029.76539	32980.125
3032.17632	32905.425
3034.5858	32811.325
3036.9938	32843.025
3039.40034	32821.825
3041.80542	32797.025
3044.20903	32700.925
3046.61118	32671.125
3049.01187	32621.525
3051.4111	32639.625
3053.80888	32546.325
3056.20519	32532.525
3058.60005	32437.225
3060.99345	32473.725
3063.3854	32414.725
3065.7759	32311.425
3068.16494	32237.325
3070.55254	32124.525
3072.93868	32145.425
3075.32338	32049.125
3077.70662	32035.325
3080.08842	31977.825
3082.46878	32000.125
3084.84769	31923.825
3087.22515	31958.125
3089.60118	31907.225
3091.97576	31870.525
3094.3489	31865.925
3096.72061	31839.525
3099.09087	31851.925
3101.4597	31864.925
3103.82709	31816.625
3106.19305	31820.525
3108.55757	31809.925
3110.92066	31726.125
3113.28232	31638.625
3115.64255	31551.825
3118.00134	31503.625
3120.35871	31459.125
3122.71466	31361.025
3125.06917	31335.925
3127.42226	31290.525
3129.77393	31296.025
3132.12417	31257.225
3134.47299	31275.825
3136.82039	31310.025
3139.16636	31254.525
3141.51092	31251.025
3143.85406	31303.025
3146.19579	31297.025
3148.53609	31277.325
3150.87499	31339.425
3153.21246	31297.425
3155.54853	31275.925
3157.88318	31203.725
3160.21642	31242.025
3162.54826	31274.225
3164.87868	31233.125
3167.2077	31221.825
3169.5353	31194.725
3171.86151	31150.025
3174.18631	31128.425
3176.5097	31089.125
3178.83169	31065.825
3181.15228	31057.725
3183.47147	30975.725
3185.78926	30937.625
3188.10565	30929.225
3190.42065	30958.725
3192.73424	30986.825
3195.04645	30935.525
3197.35725	30946.725
3199.66667	30947.325
3201.97469	30992.425
3204.28132	30969.025
3206.58656	31014.325
3208.8904	30948.825
3211.19287	31026.425
3213.49394	31025.825
3215.79363	30943.525
3218.09193	31003.125
3220.38884	30912.325
3222.68438	30920.525
3224.97853	30880.625
3227.2713	30839.025
3229.56269	30789.625
3231.8527	30862.425
3234.14133	30794.825
3236.42858	30672.025
3238.71446	30619.125
3240.99896	30627.425
3243.28209	30677.625
3245.56384	30637.225
3247.84423	30684.425
3250.12324	30659.525
3252.40088	30602.225
3254.67715	30618.125
3256.95205	30525.425
3259.22558	30545.225
3261.49775	30472.125
3263.76855	30439.425
3266.03799	30401.525
3268.30606	30394.525
3270.57277	30345.225
3272.83812	30262.325
3275.10211	30223.625
3277.36474	30205.525
3279.62601	30214.325
3281.88593	30133.925
3284.14448	30165.625
3286.40168	30143.925
3288.65753	30155.925
3290.91202	30057.725
3293.16516	29991.125
3295.41695	29887.825
3297.66738	29753.025
3299.91647	29648.825
3302.16421	29434.525
3304.4106	29370.425
3306.65564	29266.625
3308.89933	29107.125
3311.14169	28917.025
3313.38269	28706.125
3315.62236	28536.925
3317.86068	28300.925
3320.09766	28044.925
3322.3333	27822.125
3324.5676	27854.625
3326.80056	27391.525
3329.03219	27315.525
3331.26248	5.825
3333.49143	0.625
3335.71905	0.025
