Data from AgNPs_FTO_APTES_UA_2uM_R6G_10uM_NaF_0.1M_Addition_RamanShift__13__11-58-47-214.txt Node

Date: Fri Dec 17 11:58:47 GMT 2021
User: TCL
Spectrometer: QEP01345
Trigger mode: 4
Integration Time (sec): 7.000000E0
Scans to average: 10
Electric dark correction enabled: true
Nonlinearity correction enabled: false
Boxcar width: 0
XAxis mode: Raman Shifts
Number of Pixels in Spectrum: 1044
>>>>>Begin Spectral Data<<<<<
46.04893	0.3375
50.45542	-0.4625
54.85868	-1.2625
59.25871	-0.2625
63.6555	112.6375
68.04907	116.3375
72.43941	122.9375
76.82654	130.0375
81.21044	135.8375
85.59113	141.1375
89.96862	144.8375
94.34289	150.1375
98.71396	154.0375
103.08183	154.9375
107.4465	161.5375
111.80798	165.8375
116.16626	176.4375
120.52136	174.5375
124.87327	190.5375
129.222	192.7375
133.56755	199.9375
137.90993	219.1375
142.24913	238.5375
146.58517	266.4375
150.91804	303.5375
155.24774	360.4375
159.57429	445.6375
163.89768	568.2375
168.21792	743.4375
172.53501	999.6375
176.84895	1383.9375
181.15975	1936.5375
185.46741	2721.0375
189.77193	3768.4375
194.07331	5036.0375
198.37157	6504.4375
202.6667	8082.0375
206.9587	9606.5375
211.24758	11108.3375
215.53334	12592.8375
219.81599	14154.5375
224.09553	15857.3375
228.37195	17768.2375
232.64527	19901.8375
236.91549	22103.4375
241.18261	24460.4375
245.44663	26765.7375
249.70755	28833.3375
253.96539	30705.8375
258.22014	32138.4375
262.4718	33341.9375
266.72039	34146.6375
270.96589	34494.1375
275.20832	34448.9375
279.44768	34143.8375
283.68397	33719.0375
287.91719	33283.2375
292.14735	32927.0375
296.37445	32577.0375
300.59849	32418.0375
304.81948	32309.5375
309.03742	32205.8375
313.25231	32042.8375
317.46415	31735.7375
321.67296	31379.8375
325.87872	31040.9375
330.08145	30864.4375
334.28114	31001.1375
338.47781	31228.0375
342.67145	31516.8375
346.86207	31894.5375
351.04966	32365.4375
355.23424	32868.9375
359.4158	33309.3375
363.59435	33715.2375
367.76989	33964.6375
371.94243	34204.6375
376.11196	34312.4375
380.27849	34420.6375
384.44203	34610.2375
388.60257	34840.0375
392.76012	35164.0375
396.91468	35568.8375
401.06626	36034.1375
405.21485	36397.0375
409.36047	36398.7375
413.50311	36131.7375
417.64277	35971.7375
421.77947	36028.7375
425.9132	36245.1375
430.04396	36509.5375
434.17176	36604.1375
438.2966	36849.9375
442.41849	37086.0375
446.53742	37560.2375
450.6534	38058.5375
454.76644	38421.4375
458.87653	38681.8375
462.98368	38790.8375
467.08789	38672.2375
471.18916	38472.5375
475.2875	38151.9375
479.38291	37927.9375
483.4754	37786.2375
487.56496	37580.2375
491.6516	37374.9375
495.73531	37250.8375
499.81612	37152.1375
503.89401	37347.3375
507.96899	37547.4375
512.04106	37649.6375
516.11023	37681.0375
520.1765	37521.2375
524.23987	37236.3375
528.30034	37050.9375
532.35792	36837.2375
536.41261	36680.6375
540.46441	36544.5375
544.51333	36565.1375
548.55936	36873.4375
552.60252	37252.2375
556.64279	37634.3375
560.6802	37955.4375
564.71473	38131.1375
568.7464	38391.1375
572.7752	38859.4375
576.80114	39552.2375
580.82422	40291.5375
584.84444	40975.9375
588.86181	41580.5375
592.87633	42110.9375
596.888	41988.5375
600.89682	41716.6375
604.9028	42203.6375
608.90594	44143.5375
612.90624	46020.8375
616.90371	44196.6375
620.89834	40163.6375
624.89015	38284.0375
628.87913	37997.0375
632.86528	38166.3375
636.84862	38198.8375
640.82913	37889.7375
644.80683	37300.1375
648.78172	36903.9375
652.75379	36826.9375
656.72306	37096.0375
660.68952	37470.8375
664.65319	37413.9375
668.61405	37126.5375
672.57211	37143.8375
676.52738	37264.4375
680.47986	37270.5375
684.42955	37110.4375
688.37646	37033.7375
692.32058	37192.3375
696.26192	37440.2375
700.20048	37734.2375
704.13626	37994.5375
708.06928	38009.1375
711.99952	37843.6375
715.927	37726.3375
719.85171	37690.5375
723.77365	37609.6375
727.69284	37328.5375
731.60928	37077.9375
735.52295	36858.1375
739.43388	36842.0375
743.34206	36963.8375
747.24749	37036.4375
751.15017	37215.8375
755.05012	37562.8375
758.94733	38174.3375
762.8418	39209.4375
766.73354	40793.4375
770.62254	42328.6375
774.50882	42699.2375
778.39237	41717.5375
782.27321	40160.0375
786.15132	38847.3375
790.02671	37981.3375
793.89938	37463.9375
797.76935	37216.4375
801.6366	37074.5375
805.50115	36954.4375
809.36299	36822.8375
813.22213	36702.6375
817.07857	36632.5375
820.93231	36515.8375
824.78336	36497.1375
828.63172	36524.4375
832.47738	36431.6375
836.32036	36417.2375
840.16066	36406.5375
843.99827	36428.3375
847.8332	36427.4375
851.66546	36494.4375
855.49504	36529.0375
859.32195	36620.9375
863.1462	36618.9375
866.96777	36598.6375
870.78668	36606.6375
874.60293	36690.7375
878.41652	36752.8375
882.22745	36886.8375
886.03573	36962.1375
889.84136	37067.4375
893.64433	36992.6375
897.44466	36988.0375
901.24235	36905.6375
905.0374	36948.6375
908.8298	37013.5375
912.61957	37026.3375
916.40671	37144.6375
920.19121	37342.7375
923.97308	37565.7375
927.75233	37614.3375
931.52895	37341.0375
935.30295	37123.9375
939.07433	36737.5375
942.84309	36434.0375
946.60924	36280.7375
950.37278	36157.9375
954.13371	36080.4375
957.89203	36036.4375
961.64774	35981.3375
965.40086	35904.6375
969.15137	35842.2375
972.89929	35762.7375
976.64461	35723.1375
980.38733	35734.9375
984.12747	35645.5375
987.86502	35812.7375
991.59999	35841.5375
995.33237	35968.1375
999.06217	36305.4375
1002.78939	36719.8375
1006.51404	37168.2375
1010.23611	37691.7375
1013.95561	38008.0375
1017.67255	38053.1375
1021.38692	37724.9375
1025.09872	37448.0375
1028.80796	37112.0375
1032.51465	36927.7375
1036.21877	36916.4375
1039.92035	37026.0375
1043.61937	37112.6375
1047.31584	37174.7375
1051.00976	37309.5375
1054.70114	37468.4375
1058.38998	37636.6375
1062.07627	37892.5375
1065.76003	38254.0375
1069.44126	38601.5375
1073.11995	39057.9375
1076.79611	39459.2375
1080.46974	39694.5375
1084.14085	39756.7375
1087.80943	39839.9375
1091.47549	40005.3375
1095.13903	40075.2375
1098.80005	39894.0375
1102.45857	39384.4375
1106.11456	38855.2375
1109.76805	38515.5375
1113.41903	38330.6375
1117.06751	38288.0375
1120.71348	38392.5375
1124.35696	38566.6375
1127.99793	38776.8375
1131.63641	38938.7375
1135.2724	38912.4375
1138.90589	38787.2375
1142.5369	38761.5375
1146.16542	38799.6375
1149.79145	38963.1375
1153.415	39030.7375
1157.03607	39205.3375
1160.65467	39690.6375
1164.27079	40467.6375
1167.88443	41596.5375
1171.49561	42942.3375
1175.10432	44457.8375
1178.71056	46345.0375
1182.31434	48278.7375
1185.91565	49775.8375
1189.51451	50475.1375
1193.11091	50551.3375
1196.70485	49755.5375
1200.29634	48442.0375
1203.88538	47245.0375
1207.47197	46252.8375
1211.05612	45544.9375
1214.63782	44856.9375
1218.21708	44136.2375
1221.79391	43473.7375
1225.36829	42972.9375
1228.94024	42677.9375
1232.50976	42564.6375
1236.07685	42530.0375
1239.6415	42446.2375
1243.20374	42581.0375
1246.76355	42761.2375
1250.32093	43086.2375
1253.8759	43520.6375
1257.42845	44301.1375
1260.97859	45139.5375
1264.52631	45915.9375
1268.07163	46745.2375
1271.61453	47465.3375
1275.15503	48109.5375
1278.69312	48810.4375
1282.22882	49382.7375
1285.76211	49960.7375
1289.29301	50673.1375
1292.82151	51603.2375
1296.34761	52651.0375
1299.87133	53949.6375
1303.39266	55316.6375
1306.9116	56847.6375
1310.42815	58108.6375
1313.94233	58960.5375
1317.45412	59080.8375
1320.96354	59002.3375
1324.47058	59020.7375
1327.97525	59136.6375
1331.47754	59316.6375
1334.97747	59586.3375
1338.47502	60122.2375
1341.97022	60701.1375
1345.46305	61151.4375
1348.95352	61329.6375
1352.44163	61194.5375
1355.92738	60931.3375
1359.41078	60842.4375
1362.89183	60845.8375
1366.37053	59623.6375
1369.84688	56756.1375
1373.32088	53274.4375
1376.79254	50564.3375
1380.26186	49204.0375
1383.72883	48671.3375
1387.19347	48384.6375
1390.65578	47881.7375
1394.11575	47508.9375
1397.57339	47426.2375
1401.0287	47558.3375
1404.48168	47728.0375
1407.93234	47797.7375
1411.38068	47431.9375
1414.82669	46946.5375
1418.27039	46061.0375
1421.71177	45099.8375
1425.15083	44397.5375
1428.58758	44079.9375
1432.02203	44196.9375
1435.45416	44675.3375
1438.88399	45239.8375
1442.31151	45816.3375
1445.73673	46012.9375
1449.15965	46222.0375
1452.58027	46337.3375
1455.9986	46517.3375
1459.41463	46853.3375
1462.82837	47407.3375
1466.23982	48053.9375
1469.64898	48539.6375
1473.05586	48932.8375
1476.46045	48993.3375
1479.86276	48860.7375
1483.26279	48749.8375
1486.66054	48703.7375
1490.05602	48892.6375
1493.44922	49264.5375
1496.84016	50020.8375
1500.22882	51001.6375
1503.61521	52328.9375
1506.99934	53361.2375
1510.38121	54186.3375
1513.76081	54175.3375
1517.13816	53354.7375
1520.51324	52163.4375
1523.88607	51149.9375
1527.25665	50549.6375
1530.62498	50285.2375
1533.99105	49988.6375
1537.35488	49564.2375
1540.71647	48918.6375
1544.07581	48223.9375
1547.4329	47513.1375
1550.78776	46934.7375
1554.14038	46544.2375
1557.49077	46348.8375
1560.83892	46340.5375
1564.18484	46420.4375
1567.52853	46465.8375
1570.86999	46637.1375
1574.20922	47014.1375
1577.54624	47470.3375
1580.88103	47510.3375
1584.2136	47501.6375
1587.54395	47863.3375
1590.87208	48701.2375
1594.19801	50014.0375
1597.52172	51460.0375
1600.84321	51906.2375
1604.16251	50792.3375
1607.47959	48819.8375
1610.79447	46699.8375
1614.10715	44402.0375
1617.41763	42312.9375
1620.7259	40778.9375
1624.03199	39882.0375
1627.33587	39679.6375
1630.63757	40246.1375
1633.93707	41545.1375
1637.23439	43803.5375
1640.52951	46937.4375
1643.82246	50480.8375
1647.11321	53028.3375
1650.40179	53297.6375
1653.68819	50987.6375
1656.97241	46981.1375
1660.25446	42834.6375
1663.53433	39653.5375
1666.81203	37576.6375
1670.08756	36230.9375
1673.36092	35258.0375
1676.63211	34629.4375
1679.90115	34210.0375
1683.16801	33863.6375
1686.43272	33635.4375
1689.69527	33424.9375
1692.95567	33266.0375
1696.2139	33110.0375
1699.46999	33052.3375
1702.72392	33002.3375
1705.97571	32920.3375
1709.22535	32918.2375
1712.47284	32881.2375
1715.71819	32903.8375
1718.96139	32837.8375
1722.20246	32736.8375
1725.44139	32650.5375
1728.67818	32491.7375
1731.91284	32392.4375
1735.14537	32266.8375
1738.37576	32157.8375
1741.60403	32012.7375
1744.83017	31945.9375
1748.05418	31910.5375
1751.27607	31841.6375
1754.49584	31728.8375
1757.71349	31747.2375
1760.92903	31710.4375
1764.14244	31670.0375
1767.35375	31713.8375
1770.56294	31673.8375
1773.77002	31589.9375
1776.97499	31600.5375
1780.17785	31507.7375
1783.37861	31528.0375
1786.57727	31492.0375
1789.77382	31385.9375
1792.96828	31351.2375
1796.16064	31296.7375
1799.3509	31259.6375
1802.53907	31196.9375
1805.72514	31119.5375
1808.90913	31037.3375
1812.09102	31002.9375
1815.27083	30964.3375
1818.44856	30951.7375
1821.6242	30927.8375
1824.79776	30888.8375
1827.96924	30854.3375
1831.13864	30884.8375
1834.30597	30890.2375
1837.47122	30874.8375
1840.6344	30877.4375
1843.7955	30910.8375
1846.95454	30898.0375
1850.11151	30889.9375
1853.26642	30840.0375
1856.41926	30827.0375
1859.57004	30803.4375
1862.71876	30762.7375
1865.86542	30755.8375
1869.01003	30740.0375
1872.15258	30600.6375
1875.29308	30590.8375
1878.43152	30569.6375
1881.56792	30513.9375
1884.70227	30484.1375
1887.83457	30470.6375
1890.96482	30401.0375
1894.09304	30330.4375
1897.21921	30298.4375
1900.34335	30239.0375
1903.46544	30203.6375
1906.58551	30165.0375
1909.70353	30147.2375
1912.81953	30109.8375
1915.93349	29983.2375
1919.04543	29933.3375
1922.15534	29899.6375
1925.26322	29825.4375
1928.36908	29748.3375
1931.47292	29721.9375
1934.57473	29609.2375
1937.67453	29551.7375
1940.77232	29493.1375
1943.86808	29392.5375
1946.96184	29324.1375
1950.05358	29264.0375
1953.14331	29184.0375
1956.23103	29105.2375
1959.31675	28986.9375
1962.40046	28891.0375
1965.48217	28842.9375
1968.56188	28798.2375
1971.63959	28696.5375
1974.7153	28626.2375
1977.78901	28506.6375
1980.86073	28447.8375
1983.93046	28349.3375
1986.99819	28238.7375
1990.06394	28149.7375
1993.1277	28076.4375
1996.18947	27979.6375
1999.24925	27907.8375
2002.30706	27841.8375
2005.36288	27708.6375
2008.41672	27647.1375
2011.46859	27571.1375
2014.51848	27493.2375
2017.56639	27416.5375
2020.61233	27370.5375
2023.6563	27295.1375
2026.6983	27255.6375
2029.73833	27187.0375
2032.7764	27105.5375
2035.8125	27077.5375
2038.84664	27029.4375
2041.87881	26996.8375
2044.90903	26965.2375
2047.93729	26858.6375
2050.96359	26871.0375
2053.98794	26838.4375
2057.01034	26810.1375
2060.03078	26766.6375
2063.04927	26770.6375
2066.06582	26755.8375
2069.08042	26721.4375
2072.09307	26742.3375
2075.10378	26709.7375
2078.11255	26681.6375
2081.11938	26678.4375
2084.12426	26625.4375
2087.12722	26612.0375
2090.12824	26664.3375
2093.12732	26657.5375
2096.12447	26718.7375
2099.11969	26654.5375
2102.11299	26638.9375
2105.10435	26660.2375
2108.09379	26647.7375
2111.08131	26701.7375
2114.0669	26712.8375
2117.05057	26711.6375
2120.03233	26706.9375
2123.01216	26731.1375
2125.99008	26753.9375
2128.96609	26738.5375
2131.94018	26786.8375
2134.91236	26801.1375
2137.88263	26788.0375
2140.851	26776.4375
2143.81746	26819.7375
2146.78201	26807.5375
2149.74466	26816.2375
2152.7054	26799.9375
2155.66425	26791.1375
2158.6212	26797.0375
2161.57625	26763.2375
2164.52941	26757.4375
2167.48067	26778.0375
2170.43004	26766.4375
2173.37752	26736.9375
2176.32311	26768.5375
2179.26681	26706.8375
2182.20863	26714.2375
2185.14856	26714.4375
2188.08661	26703.5375
2191.02278	26651.9375
2193.95707	26674.4375
2196.88948	26671.3375
2199.82001	26639.7375
2202.74867	26574.7375
2205.67545	26545.8375
2208.60037	26568.9375
2211.52341	26489.3375
2214.44458	26464.7375
2217.36388	26348.6375
2220.28132	26334.4375
2223.1969	26319.2375
2226.11061	26218.4375
2229.02246	26190.6375
2231.93245	26165.2375
2234.84058	26111.0375
2237.74686	26091.1375
2240.65128	26043.6375
2243.55385	25990.7375
2246.45456	25933.7375
2249.35343	25953.9375
2252.25044	25873.7375
2255.14561	25865.0375
2258.03893	25826.2375
2260.93041	25769.0375
2263.82004	25679.5375
2266.70783	25656.4375
2269.59378	25563.1375
2272.4779	25570.4375
2275.36017	25470.9375
2278.24061	25480.8375
2281.11922	25407.2375
2283.996	25312.2375
2286.87094	25351.1375
2289.74405	25254.1375
2292.61534	25250.0375
2295.4848	25177.7375
2298.35243	25242.7375
2301.21824	25148.2375
2304.08223	25167.7375
2306.94439	25134.5375
2309.80474	25109.2375
2312.66327	25095.6375
2315.51999	25059.0375
2318.37489	25052.1375
2321.22797	24994.1375
2324.07925	24949.7375
2326.92871	24957.4375
2329.77637	24879.7375
2332.62222	24856.9375
2335.46626	24815.6375
2338.3085	24769.7375
2341.14893	24772.5375
2343.98756	24751.5375
2346.8244	24742.9375
2349.65943	24710.5375
2352.49267	24667.7375
2355.32411	24688.3375
2358.15376	24622.4375
2360.98161	24594.0375
2363.80768	24582.0375
2366.63195	24585.6375
2369.45444	24550.7375
2372.27514	24500.5375
2375.09405	24466.5375
2377.91118	24449.8375
2380.72652	24390.5375
2383.54009	24345.0375
2386.35187	24313.5375
2389.16188	24273.8375
2391.97011	24211.5375
2394.77657	24179.2375
2397.58125	24113.4375
2400.38416	24105.4375
2403.18529	24073.6375
2405.98466	24028.5375
2408.78226	23996.6375
2411.57809	23963.6375
2414.37216	23918.1375
2417.16446	23936.9375
2419.955	23859.2375
2422.74378	23854.3375
2425.5308	23825.0375
2428.31606	23853.2375
2431.09956	23776.1375
2433.88131	23745.3375
2436.6613	23783.2375
2439.43954	23752.8375
2442.21603	23739.9375
2444.99077	23720.3375
2447.76377	23717.0375
2450.53501	23672.3375
2453.30451	23626.9375
2456.07226	23631.8375
2458.83827	23629.8375
2461.60254	23608.0375
2464.36507	23529.5375
2467.12586	23510.1375
2469.88492	23501.5375
2472.64224	23440.5375
2475.39782	23457.6375
2478.15167	23439.6375
2480.90379	23409.1375
2483.65417	23396.4375
2486.40283	23377.2375
2489.14976	23392.5375
2491.89497	23340.6375
2494.63845	23367.9375
2497.3802	23308.6375
2500.12024	23320.9375
2502.85855	23291.6375
2505.59514	23287.2375
2508.33002	23260.5375
2511.06318	23224.8375
2513.79462	23165.8375
2516.52435	23160.3375
2519.25237	23151.8375
2521.97867	23135.9375
2524.70327	23142.8375
2527.42616	23097.1375
2530.14734	23098.0375
2532.86681	23046.4375
2535.58458	23008.5375
2538.30065	22990.2375
2541.01501	22951.7375
2543.72768	22886.0375
2546.43864	22859.9375
2549.14791	22811.3375
2551.85548	22810.4375
2554.56136	22767.3375
2557.26554	22734.4375
2559.96803	22664.9375
2562.66883	22627.5375
2565.36794	22640.4375
2568.06536	22586.8375
2570.7611	22585.6375
2573.45514	22528.6375
2576.14751	22465.1375
2578.83819	22444.2375
2581.52719	22425.7375
2584.21451	22395.7375
2586.90015	22353.9375
2589.58411	22305.0375
2592.2664	22293.9375
2594.94701	22233.8375
2597.62594	22219.0375
2600.30321	22175.4375
2602.9788	22130.9375
2605.65273	22097.3375
2608.32498	22106.1375
2610.99557	22037.1375
2613.66449	22047.2375
2616.33175	22031.3375
2618.99734	21989.1375
2621.66128	21969.1375
2624.32355	21926.4375
2626.98416	21883.8375
2629.64311	21886.4375
2632.30041	21879.2375
2634.95605	21827.1375
2637.61004	21842.8375
2640.26238	21769.6375
2642.91306	21766.1375
2645.56209	21754.4375
2648.20948	21745.7375
2650.85521	21728.1375
2653.4993	21707.9375
2656.14175	21684.9375
2658.78255	21738.0375
2661.42171	21668.9375
2664.05923	21692.2375
2666.6951	21697.2375
2669.32934	21693.8375
2671.96194	21663.8375
2674.59291	21706.5375
2677.22224	21668.8375
2679.84993	21664.8375
2682.476	21671.6375
2685.10043	21710.1375
2687.72324	21695.7375
2690.34441	21673.7375
2692.96396	21649.7375
2695.58188	21676.4375
2698.19818	21634.0375
2700.81285	21660.9375
2703.4259	21623.4375
2706.03733	21636.1375
2708.64714	21620.1375
2711.25533	21657.6375
2713.86191	21615.7375
2716.46687	21629.5375
2719.07021	21613.8375
2721.67194	21620.2375
2724.27206	21569.0375
2726.87057	21608.5375
2729.46747	21566.7375
2732.06276	21621.9375
2734.65644	21572.8375
2737.24852	21591.2375
2739.83899	21545.9375
2742.42786	21533.8375
2745.01513	21508.3375
2747.60079	21464.7375
2750.18486	21467.7375
2752.76733	21469.8375
2755.3482	21438.9375
2757.92747	21432.4375
2760.50515	21364.3375
2763.08123	21365.6375
2765.65573	21316.7375
2768.22863	21301.3375
2770.79994	21248.1375
2773.36967	21266.6375
2775.9378	21245.7375
2778.50435	21201.8375
2781.06932	21167.7375
2783.6327	21152.2375
2786.1945	21130.9375
2788.75471	21083.5375
2791.31335	21025.5375
2793.87041	20984.4375
2796.42589	20903.3375
2798.97979	20924.1375
2801.53212	20877.8375
2804.08288	20846.1375
2806.63206	20768.7375
2809.17967	20747.1375
2811.72571	20702.5375
2814.27018	20644.7375
2816.81308	20656.3375
2819.35442	20583.0375
2821.89419	20548.5375
2824.43239	20540.5375
2826.96904	20491.0375
2829.50412	20491.6375
2832.03763	20415.5375
2834.56959	20422.9375
2837.1	20401.0375
2839.62884	20375.1375
2842.15613	20283.2375
2844.68186	20327.4375
2847.20604	20329.4375
2849.72867	20338.4375
2852.24974	20279.2375
2854.76927	20266.2375
2857.28724	20186.6375
2859.80367	20168.3375
2862.31855	20161.1375
2864.83189	20152.3375
2867.34368	20109.0375
2869.85393	20139.8375
2872.36264	20090.3375
2874.8698	20114.8375
2877.37543	20077.7375
2879.87952	20072.8375
2882.38207	20093.6375
2884.88308	20042.8375
2887.38256	20069.2375
2889.88051	20095.5375
2892.37692	20069.0375
2894.8718	20022.9375
2897.36515	20077.5375
2899.85698	20085.5375
2902.34727	20116.0375
2904.83604	20104.3375
2907.32328	20123.6375
2909.809	20071.3375
2912.29319	20051.9375
2914.77587	20049.4375
2917.25702	20067.5375
2919.73665	20018.2375
2922.21476	20001.6375
2924.69136	20021.3375
2927.16644	19992.0375
2929.64	19951.9375
2932.11205	19968.4375
2934.58258	19859.5375
2937.05161	19906.7375
2939.51912	19928.6375
2941.98513	19881.9375
2944.44962	19856.0375
2946.91261	19789.0375
2949.37409	19798.8375
2951.83407	19784.1375
2954.29254	19763.3375
2956.74951	19740.3375
2959.20498	19723.0375
2961.65895	19690.5375
2964.11142	19640.6375
2966.56239	19608.3375
2969.01186	19593.7375
2971.45984	19540.6375
2973.90632	19522.7375
2976.35131	19499.3375
2978.7948	19485.3375
2981.23681	19428.7375
2983.67732	19414.3375
2986.11635	19363.3375
2988.55388	19309.1375
2990.98993	19263.3375
2993.4245	19224.7375
2995.85758	19182.3375
2998.28917	19142.1375
3000.71928	19105.3375
3003.14791	19095.7375
3005.57506	19081.6375
3008.00073	19009.9375
3010.42493	18991.2375
3012.84764	18905.4375
3015.26888	18937.8375
3017.68865	18887.9375
3020.10694	18935.9375
3022.52376	18802.3375
3024.9391	18813.3375
3027.35298	18769.4375
3029.76539	18739.9375
3032.17632	18731.0375
3034.5858	18622.6375
3036.9938	18660.6375
3039.40034	18608.7375
3041.80542	18595.5375
3044.20903	18558.0375
3046.61118	18549.1375
3049.01187	18497.5375
3051.4111	18466.1375
3053.80888	18421.1375
3056.20519	18377.8375
3058.60005	18338.5375
3060.99345	18324.9375
3063.3854	18295.0375
3065.7759	18243.7375
3068.16494	18208.1375
3070.55254	18100.3375
3072.93868	18127.5375
3075.32338	18072.8375
3077.70662	18066.5375
3080.08842	18005.5375
3082.46878	18010.8375
3084.84769	17937.8375
3087.22515	17936.4375
3089.60118	17915.0375
3091.97576	17913.0375
3094.3489	17911.9375
3096.72061	17919.8375
3099.09087	17867.0375
3101.4597	17852.5375
3103.82709	17848.0375
3106.19305	17792.7375
3108.55757	17778.0375
3110.92066	17695.1375
3113.28232	17702.0375
3115.64255	17630.8375
3118.00134	17630.2375
3120.35871	17596.8375
3122.71466	17553.1375
3125.06917	17517.1375
3127.42226	17464.4375
3129.77393	17438.4375
3132.12417	17450.3375
3134.47299	17435.9375
3136.82039	17436.2375
3139.16636	17430.6375
3141.51092	17428.9375
3143.85406	17407.2375
3146.19579	17412.2375
3148.53609	17437.7375
3150.87499	17414.1375
3153.21246	17431.7375
3155.54853	17415.5375
3157.88318	17322.3375
3160.21642	17367.0375
3162.54826	17364.8375
3164.87868	17355.1375
3167.2077	17310.0375
3169.5353	17307.8375
3171.86151	17292.0375
3174.18631	17269.2375
3176.5097	17230.3375
3178.83169	17214.8375
3181.15228	17216.6375
3183.47147	17170.9375
3185.78926	17185.8375
3188.10565	17114.6375
3190.42065	17136.5375
3192.73424	17125.5375
3195.04645	17133.2375
3197.35725	17108.5375
3199.66667	17077.6375
3201.97469	17105.3375
3204.28132	17081.6375
3206.58656	17124.2375
3208.8904	17094.1375
3211.19287	17079.6375
3213.49394	17080.4375
3215.79363	17055.6375
3218.09193	17052.6375
3220.38884	17026.1375
3222.68438	16982.6375
3224.97853	16962.7375
3227.2713	16967.1375
3229.56269	16919.1375
3231.8527	16914.7375
3234.14133	16888.8375
3236.42858	16826.5375
3238.71446	16769.2375
3240.99896	16793.3375
3243.28209	16789.2375
3245.56384	16764.8375
3247.84423	16793.4375
3250.12324	16743.1375
3252.40088	16759.7375
3254.67715	16759.6375
3256.95205	16684.0375
3259.22558	16660.8375
3261.49775	16620.0375
3263.76855	16605.0375
3266.03799	16520.1375
3268.30606	16524.7375
3270.57277	16507.6375
3272.83812	16432.5375
3275.10211	16449.3375
3277.36474	16384.7375
3279.62601	16404.8375
3281.88593	16363.6375
3284.14448	16373.8375
3286.40168	16359.6375
3288.65753	16362.2375
3290.91202	16330.1375
3293.16516	16246.4375
3295.41695	16195.2375
3297.66738	16115.8375
3299.91647	16021.8375
3302.16421	15927.4375
3304.4106	15890.3375
3306.65564	15765.1375
3308.89933	15690.8375
3311.14169	15555.2375
3313.38269	15472.3375
3315.62236	15434.0375
3317.86068	15256.9375
3320.09766	15103.7375
3322.3333	14961.6375
3324.5676	14955.4375
3326.80056	14707.2375
3329.03219	14635.4375
3331.26248	3.4375
3333.49143	0.3375
3335.71905	-0.9625
