Data from AgNPs_FTO_APTES_UA_0uM_R6G_10uM_NaF_0.1M_Addition_RamanShift__6__10-02-07-080.txt Node

Date: Fri Dec 17 10:02:07 GMT 2021
User: TCL
Spectrometer: QEP01345
Trigger mode: 4
Integration Time (sec): 7.000000E0
Scans to average: 10
Electric dark correction enabled: true
Nonlinearity correction enabled: false
Boxcar width: 0
XAxis mode: Raman Shifts
Number of Pixels in Spectrum: 1044
>>>>>Begin Spectral Data<<<<<
46.04893	0.4875
50.45542	-0.4125
54.85868	-1.0125
59.25871	-0.0125
63.6555	28.8875
68.04907	28.8875
72.43941	30.8875
76.82654	37.6875
81.21044	32.9875
85.59113	40.7875
89.96862	39.9875
94.34289	41.1875
98.71396	45.6875
103.08183	43.6875
107.4465	46.5875
111.80798	44.2875
116.16626	47.1875
120.52136	42.7875
124.87327	48.7875
129.222	48.3875
133.56755	49.5875
137.90993	49.3875
142.24913	58.6875
146.58517	59.5875
150.91804	64.0875
155.24774	74.6875
159.57429	91.2875
163.89768	109.8875
168.21792	131.4875
172.53501	168.3875
176.84895	232.2875
181.15975	318.5875
185.46741	439.9875
189.77193	610.1875
194.07331	825.2875
198.37157	1082.5875
202.6667	1374.1875
206.9587	1662.4875
211.24758	1956.7875
215.53334	2254.6875
219.81599	2576.2875
224.09553	2924.0875
228.37195	3303.7875
232.64527	3749.4875
236.91549	4213.1875
241.18261	4680.2875
245.44663	5166.1875
249.70755	5586.5875
253.96539	5941.3875
258.22014	6168.4875
262.4718	6269.6875
266.72039	6233.6875
270.96589	6055.3875
275.20832	5808.9875
279.44768	5489.1875
283.68397	5199.8875
287.91719	4834.7875
292.14735	4564.8875
296.37445	4310.4875
300.59849	4089.1875
304.81948	3931.0875
309.03742	3782.4875
313.25231	3681.2875
317.46415	3596.6875
321.67296	3510.5875
325.87872	3462.4875
330.08145	3434.2875
334.28114	3403.0875
338.47781	3382.0875
342.67145	3364.7875
346.86207	3363.0875
351.04966	3316.9875
355.23424	3305.1875
359.4158	3263.2875
363.59435	3230.6875
367.76989	3184.8875
371.94243	3133.4875
376.11196	3090.1875
380.27849	3045.0875
384.44203	3011.1875
388.60257	2974.4875
392.76012	2973.0875
396.91468	2972.3875
401.06626	2968.0875
405.21485	2974.9875
409.36047	2984.6875
413.50311	2997.7875
417.64277	3039.1875
421.77947	3055.7875
425.9132	3017.7875
430.04396	2990.6875
434.17176	3021.9875
438.2966	3028.3875
442.41849	3055.0875
446.53742	3059.6875
450.6534	3058.4875
454.76644	3047.6875
458.87653	3042.9875
462.98368	3017.7875
467.08789	2990.2875
471.18916	2964.1875
475.2875	2935.1875
479.38291	2910.2875
483.4754	2899.9875
487.56496	2885.1875
491.6516	2862.6875
495.73531	2835.4875
499.81612	2818.0875
503.89401	2813.4875
507.96899	2796.0875
512.04106	2821.8875
516.11023	2853.5875
520.1765	2904.6875
524.23987	2998.8875
528.30034	3107.9875
532.35792	3227.4875
536.41261	3338.3875
540.46441	3428.5875
544.51333	3513.9875
548.55936	3609.2875
552.60252	3703.6875
556.64279	3803.1875
560.6802	3876.2875
564.71473	3935.6875
568.7464	3962.9875
572.7752	3931.1875
576.80114	3807.5875
580.82422	3646.7875
584.84444	3473.2875
588.86181	3339.6875
592.87633	3250.4875
596.888	3235.3875
600.89682	3297.5875
604.9028	3439.2875
608.90594	3714.8875
612.90624	4063.8875
616.90371	4382.1875
620.89834	4551.6875
624.89015	4584.1875
628.87913	4381.6875
632.86528	3945.8875
636.84862	3515.6875
640.82913	3169.1875
644.80683	2998.4875
648.78172	2908.0875
652.75379	2859.1875
656.72306	2853.7875
660.68952	2871.1875
664.65319	2883.0875
668.61405	2895.8875
672.57211	2940.6875
676.52738	2990.9875
680.47986	3063.6875
684.42955	3096.8875
688.37646	3112.0875
692.32058	3101.8875
696.26192	3122.0875
700.20048	3105.9875
704.13626	3104.4875
708.06928	3073.3875
711.99952	3062.1875
715.927	3039.9875
719.85171	3026.1875
723.77365	2999.0875
727.69284	2996.4875
731.60928	2988.4875
735.52295	2986.3875
739.43388	2978.0875
743.34206	2966.5875
747.24749	2968.6875
751.15017	2970.2875
755.05012	2984.6875
758.94733	2999.9875
762.8418	3029.7875
766.73354	3076.7875
770.62254	3142.1875
774.50882	3180.3875
778.39237	3171.9875
782.27321	3123.6875
786.15132	3091.9875
790.02671	3080.9875
793.89938	3080.8875
797.76935	3078.8875
801.6366	3093.9875
805.50115	3106.4875
809.36299	3132.7875
813.22213	3142.8875
817.07857	3154.6875
820.93231	3159.1875
824.78336	3178.2875
828.63172	3181.8875
832.47738	3202.9875
836.32036	3206.4875
840.16066	3231.7875
843.99827	3241.9875
847.8332	3266.8875
851.66546	3264.7875
855.49504	3309.0875
859.32195	3352.7875
863.1462	3418.3875
866.96777	3445.9875
870.78668	3513.9875
874.60293	3579.4875
878.41652	3663.8875
882.22745	3762.9875
886.03573	3880.1875
889.84136	4027.9875
893.64433	4238.9875
897.44466	4477.5875
901.24235	4766.0875
905.0374	5114.4875
908.8298	5475.6875
912.61957	5780.7875
916.40671	5996.1875
920.19121	6126.9875
923.97308	6157.7875
927.75233	6087.7875
931.52895	6001.0875
935.30295	5836.3875
939.07433	5633.1875
942.84309	5414.7875
946.60924	5230.8875
950.37278	5042.9875
954.13371	4896.1875
957.89203	4759.4875
961.64774	4665.4875
965.40086	4577.0875
969.15137	4484.2875
972.89929	4442.4875
976.64461	4380.1875
980.38733	4333.7875
984.12747	4284.9875
987.86502	4269.8875
991.59999	4233.6875
995.33237	4205.8875
999.06217	4220.1875
1002.78939	4216.8875
1006.51404	4240.7875
1010.23611	4275.9875
1013.95561	4308.6875
1017.67255	4324.3875
1021.38692	4374.7875
1025.09872	4393.7875
1028.80796	4444.1875
1032.51465	4508.1875
1036.21877	4567.6875
1039.92035	4636.8875
1043.61937	4699.7875
1047.31584	4754.8875
1051.00976	4789.2875
1054.70114	4772.5875
1058.38998	4696.9875
1062.07627	4590.8875
1065.76003	4452.5875
1069.44126	4292.2875
1073.11995	4149.1875
1076.79611	4014.6875
1080.46974	3882.8875
1084.14085	3775.2875
1087.80943	3689.1875
1091.47549	3607.4875
1095.13903	3531.2875
1098.80005	3462.3875
1102.45857	3385.8875
1106.11456	3350.2875
1109.76805	3321.1875
1113.41903	3287.6875
1117.06751	3285.8875
1120.71348	3274.7875
1124.35696	3268.4875
1127.99793	3274.1875
1131.63641	3264.9875
1135.2724	3237.9875
1138.90589	3215.1875
1142.5369	3198.1875
1146.16542	3179.7875
1149.79145	3158.2875
1153.415	3140.0875
1157.03607	3140.6875
1160.65467	3123.4875
1164.27079	3147.6875
1167.88443	3161.0875
1171.49561	3198.9875
1175.10432	3257.8875
1178.71056	3319.5875
1182.31434	3370.3875
1185.91565	3424.9875
1189.51451	3443.4875
1193.11091	3438.4875
1196.70485	3385.7875
1200.29634	3344.4875
1203.88538	3307.6875
1207.47197	3271.5875
1211.05612	3225.7875
1214.63782	3203.9875
1218.21708	3189.8875
1221.79391	3198.7875
1225.36829	3212.0875
1228.94024	3219.1875
1232.50976	3231.7875
1236.07685	3248.2875
1239.6415	3253.7875
1243.20374	3249.9875
1246.76355	3270.0875
1250.32093	3280.2875
1253.8759	3271.2875
1257.42845	3315.6875
1260.97859	3332.0875
1264.52631	3363.1875
1268.07163	3378.6875
1271.61453	3421.8875
1275.15503	3445.6875
1278.69312	3470.9875
1282.22882	3493.5875
1285.76211	3522.9875
1289.29301	3564.5875
1292.82151	3597.3875
1296.34761	3651.8875
1299.87133	3691.2875
1303.39266	3748.0875
1306.9116	3796.0875
1310.42815	3839.3875
1313.94233	3859.1875
1317.45412	3833.4875
1320.96354	3783.8875
1324.47058	3751.2875
1327.97525	3714.0875
1331.47754	3688.9875
1334.97747	3683.6875
1338.47502	3700.4875
1341.97022	3735.8875
1345.46305	3774.9875
1348.95352	3832.4875
1352.44163	3895.0875
1355.92738	3977.3875
1359.41078	4072.5875
1362.89183	4139.1875
1366.37053	4172.8875
1369.84688	4097.8875
1373.32088	4002.3875
1376.79254	3927.4875
1380.26186	3889.9875
1383.72883	3866.7875
1387.19347	3843.4875
1390.65578	3844.5875
1394.11575	3831.6875
1397.57339	3828.9875
1401.0287	3812.8875
1404.48168	3794.6875
1407.93234	3789.3875
1411.38068	3784.9875
1414.82669	3766.5875
1418.27039	3734.3875
1421.71177	3711.3875
1425.15083	3687.7875
1428.58758	3621.3875
1432.02203	3597.7875
1435.45416	3587.3875
1438.88399	3549.9875
1442.31151	3537.0875
1445.73673	3517.9875
1449.15965	3491.8875
1452.58027	3485.8875
1455.9986	3463.6875
1459.41463	3473.8875
1462.82837	3482.1875
1466.23982	3456.4875
1469.64898	3474.5875
1473.05586	3484.1875
1476.46045	3482.7875
1479.86276	3484.4875
1483.26279	3520.3875
1486.66054	3516.5875
1490.05602	3544.9875
1493.44922	3551.6875
1496.84016	3572.0875
1500.22882	3610.5875
1503.61521	3660.5875
1506.99934	3717.5875
1510.38121	3768.8875
1513.76081	3777.4875
1517.13816	3744.1875
1520.51324	3676.9875
1523.88607	3601.6875
1527.25665	3562.3875
1530.62498	3528.3875
1533.99105	3499.3875
1537.35488	3499.4875
1540.71647	3477.5875
1544.07581	3458.4875
1547.4329	3431.5875
1550.78776	3423.0875
1554.14038	3404.5875
1557.49077	3392.4875
1560.83892	3379.9875
1564.18484	3364.9875
1567.52853	3367.4875
1570.86999	3348.8875
1574.20922	3343.3875
1577.54624	3328.0875
1580.88103	3307.0875
1584.2136	3253.4875
1587.54395	3220.9875
1590.87208	3210.6875
1594.19801	3198.6875
1597.52172	3217.5875
1600.84321	3212.9875
1604.16251	3198.2875
1607.47959	3175.5875
1610.79447	3162.3875
1614.10715	3141.0875
1617.41763	3105.8875
1620.7259	3105.6875
1624.03199	3095.1875
1627.33587	3084.9875
1630.63757	3067.9875
1633.93707	3059.4875
1637.23439	3074.9875
1640.52951	3090.8875
1643.82246	3096.1875
1647.11321	3125.8875
1650.40179	3128.7875
1653.68819	3105.2875
1656.97241	3034.3875
1660.25446	2956.7875
1663.53433	2895.6875
1666.81203	2851.0875
1670.08756	2811.5875
1673.36092	2786.0875
1676.63211	2776.3875
1679.90115	2765.0875
1683.16801	2741.2875
1686.43272	2723.9875
1689.69527	2703.4875
1692.95567	2695.8875
1696.2139	2674.8875
1699.46999	2642.9875
1702.72392	2642.2875
1705.97571	2643.8875
1709.22535	2653.9875
1712.47284	2663.1875
1715.71819	2663.6875
1718.96139	2657.4875
1722.20246	2647.6875
1725.44139	2644.5875
1728.67818	2646.1875
1731.91284	2640.0875
1735.14537	2632.9875
1738.37576	2624.2875
1741.60403	2626.8875
1744.83017	2623.5875
1748.05418	2609.0875
1751.27607	2605.0875
1754.49584	2612.5875
1757.71349	2604.0875
1760.92903	2592.7875
1764.14244	2592.7875
1767.35375	2594.3875
1770.56294	2582.9875
1773.77002	2582.6875
1776.97499	2586.6875
1780.17785	2587.0875
1783.37861	2589.8875
1786.57727	2593.8875
1789.77382	2584.2875
1792.96828	2598.1875
1796.16064	2577.8875
1799.3509	2582.2875
1802.53907	2579.7875
1805.72514	2585.8875
1808.90913	2568.9875
1812.09102	2560.5875
1815.27083	2550.7875
1818.44856	2556.1875
1821.6242	2556.3875
1824.79776	2552.3875
1827.96924	2561.4875
1831.13864	2550.7875
1834.30597	2552.0875
1837.47122	2551.0875
1840.6344	2554.3875
1843.7955	2555.2875
1846.95454	2548.1875
1850.11151	2539.6875
1853.26642	2557.4875
1856.41926	2546.5875
1859.57004	2546.2875
1862.71876	2546.7875
1865.86542	2544.9875
1869.01003	2546.8875
1872.15258	2541.7875
1875.29308	2546.5875
1878.43152	2531.7875
1881.56792	2523.5875
1884.70227	2533.4875
1887.83457	2520.3875
1890.96482	2524.7875
1894.09304	2498.5875
1897.21921	2513.8875
1900.34335	2507.0875
1903.46544	2500.0875
1906.58551	2516.5875
1909.70353	2510.5875
1912.81953	2518.7875
1915.93349	2500.3875
1919.04543	2516.9875
1922.15534	2500.1875
1925.26322	2501.2875
1928.36908	2487.2875
1931.47292	2494.1875
1934.57473	2487.8875
1937.67453	2490.8875
1940.77232	2488.8875
1943.86808	2478.5875
1946.96184	2465.0875
1950.05358	2457.6875
1953.14331	2461.6875
1956.23103	2455.6875
1959.31675	2444.8875
1962.40046	2429.8875
1965.48217	2430.9875
1968.56188	2415.5875
1971.63959	2419.1875
1974.7153	2398.7875
1977.78901	2399.3875
1980.86073	2394.3875
1983.93046	2387.7875
1986.99819	2368.6875
1990.06394	2368.2875
1993.1277	2374.7875
1996.18947	2366.5875
1999.24925	2374.2875
2002.30706	2352.9875
2005.36288	2343.6875
2008.41672	2344.5875
2011.46859	2338.9875
2014.51848	2338.8875
2017.56639	2339.5875
2020.61233	2342.7875
2023.6563	2342.5875
2026.6983	2328.1875
2029.73833	2343.0875
2032.7764	2343.1875
2035.8125	2347.8875
2038.84664	2345.7875
2041.87881	2360.5875
2044.90903	2369.5875
2047.93729	2373.5875
2050.96359	2370.3875
2053.98794	2374.1875
2057.01034	2391.0875
2060.03078	2394.5875
2063.04927	2397.2875
2066.06582	2412.1875
2069.08042	2421.8875
2072.09307	2417.9875
2075.10378	2417.2875
2078.11255	2417.5875
2081.11938	2406.9875
2084.12426	2401.4875
2087.12722	2399.8875
2090.12824	2394.2875
2093.12732	2395.0875
2096.12447	2391.0875
2099.11969	2372.8875
2102.11299	2368.0875
2105.10435	2345.5875
2108.09379	2341.0875
2111.08131	2345.4875
2114.0669	2336.7875
2117.05057	2331.5875
2120.03233	2329.7875
2123.01216	2294.9875
2125.99008	2300.2875
2128.96609	2298.8875
2131.94018	2292.0875
2134.91236	2287.2875
2137.88263	2281.3875
2140.851	2285.3875
2143.81746	2283.2875
2146.78201	2276.9875
2149.74466	2278.8875
2152.7054	2277.9875
2155.66425	2282.1875
2158.6212	2277.9875
2161.57625	2280.3875
2164.52941	2276.5875
2167.48067	2279.6875
2170.43004	2273.2875
2173.37752	2273.0875
2176.32311	2270.6875
2179.26681	2263.4875
2182.20863	2262.6875
2185.14856	2266.1875
2188.08661	2269.5875
2191.02278	2267.4875
2193.95707	2268.3875
2196.88948	2256.1875
2199.82001	2251.2875
2202.74867	2254.5875
2205.67545	2254.3875
2208.60037	2250.8875
2211.52341	2246.7875
2214.44458	2244.8875
2217.36388	2244.2875
2220.28132	2235.3875
2223.1969	2229.3875
2226.11061	2239.5875
2229.02246	2222.9875
2231.93245	2218.7875
2234.84058	2229.7875
2237.74686	2211.3875
2240.65128	2222.6875
2243.55385	2218.6875
2246.45456	2214.6875
2249.35343	2213.7875
2252.25044	2212.9875
2255.14561	2222.2875
2258.03893	2214.4875
2260.93041	2202.1875
2263.82004	2198.7875
2266.70783	2186.7875
2269.59378	2182.2875
2272.4779	2178.2875
2275.36017	2185.1875
2278.24061	2167.2875
2281.11922	2153.5875
2283.996	2173.5875
2286.87094	2156.6875
2289.74405	2151.2875
2292.61534	2148.2875
2295.4848	2136.5875
2298.35243	2144.8875
2301.21824	2132.5875
2304.08223	2143.0875
2306.94439	2142.6875
2309.80474	2131.6875
2312.66327	2128.2875
2315.51999	2128.1875
2318.37489	2121.0875
2321.22797	2124.1875
2324.07925	2115.0875
2326.92871	2133.2875
2329.77637	2110.7875
2332.62222	2116.3875
2335.46626	2097.9875
2338.3085	2102.3875
2341.14893	2095.7875
2343.98756	2093.2875
2346.8244	2092.1875
2349.65943	2097.2875
2352.49267	2092.8875
2355.32411	2087.0875
2358.15376	2083.2875
2360.98161	2091.4875
2363.80768	2076.5875
2366.63195	2079.5875
2369.45444	2078.0875
2372.27514	2069.3875
2375.09405	2071.1875
2377.91118	2082.1875
2380.72652	2073.7875
2383.54009	2063.0875
2386.35187	2060.3875
2389.16188	2057.5875
2391.97011	2050.7875
2394.77657	2059.3875
2397.58125	2047.5875
2400.38416	2049.6875
2403.18529	2045.0875
2405.98466	2040.1875
2408.78226	2036.0875
2411.57809	2030.0875
2414.37216	2030.4875
2417.16446	2030.9875
2419.955	2018.5875
2422.74378	2025.0875
2425.5308	2031.6875
2428.31606	2011.8875
2431.09956	2021.8875
2433.88131	2017.7875
2436.6613	2011.5875
2439.43954	2011.8875
2442.21603	1998.3875
2444.99077	2000.6875
2447.76377	2008.4875
2450.53501	2007.7875
2453.30451	2002.4875
2456.07226	2003.9875
2458.83827	1998.6875
2461.60254	1993.2875
2464.36507	1992.7875
2467.12586	1990.7875
2469.88492	1978.1875
2472.64224	1987.1875
2475.39782	1981.2875
2478.15167	1982.5875
2480.90379	1979.9875
2483.65417	1978.0875
2486.40283	1965.8875
2489.14976	1973.8875
2491.89497	1966.2875
2494.63845	1957.3875
2497.3802	1968.2875
2500.12024	1960.4875
2502.85855	1978.8875
2505.59514	1968.6875
2508.33002	1955.9875
2511.06318	1964.5875
2513.79462	1947.9875
2516.52435	1962.0875
2519.25237	1950.0875
2521.97867	1951.1875
2524.70327	1946.6875
2527.42616	1936.8875
2530.14734	1950.0875
2532.86681	1932.0875
2535.58458	1925.3875
2538.30065	1937.1875
2541.01501	1932.7875
2543.72768	1931.7875
2546.43864	1924.8875
2549.14791	1919.7875
2551.85548	1924.2875
2554.56136	1922.0875
2557.26554	1910.2875
2559.96803	1907.4875
2562.66883	1909.1875
2565.36794	1903.2875
2568.06536	1894.2875
2570.7611	1884.4875
2573.45514	1890.3875
2576.14751	1899.2875
2578.83819	1886.9875
2581.52719	1883.1875
2584.21451	1883.6875
2586.90015	1876.7875
2589.58411	1877.8875
2592.2664	1879.4875
2594.94701	1865.2875
2597.62594	1870.3875
2600.30321	1860.0875
2602.9788	1861.9875
2605.65273	1849.4875
2608.32498	1848.7875
2610.99557	1850.4875
2613.66449	1853.7875
2616.33175	1838.5875
2618.99734	1843.4875
2621.66128	1835.2875
2624.32355	1836.7875
2626.98416	1844.4875
2629.64311	1841.5875
2632.30041	1834.2875
2634.95605	1830.2875
2637.61004	1825.4875
2640.26238	1825.1875
2642.91306	1820.9875
2645.56209	1817.0875
2648.20948	1817.1875
2650.85521	1820.4875
2653.4993	1823.2875
2656.14175	1815.2875
2658.78255	1828.8875
2661.42171	1826.6875
2664.05923	1815.8875
2666.6951	1807.3875
2669.32934	1809.2875
2671.96194	1817.1875
2674.59291	1817.6875
2677.22224	1814.3875
2679.84993	1820.5875
2682.476	1805.8875
2685.10043	1827.3875
2687.72324	1814.5875
2690.34441	1822.4875
2692.96396	1815.6875
2695.58188	1819.5875
2698.19818	1812.6875
2700.81285	1812.5875
2703.4259	1814.1875
2706.03733	1782.4875
2708.64714	1785.5875
2711.25533	1799.7875
2713.86191	1811.4875
2716.46687	1806.2875
2719.07021	1823.4875
2721.67194	1822.7875
2724.27206	1821.9875
2726.87057	1823.7875
2729.46747	1826.5875
2732.06276	1806.4875
2734.65644	1820.5875
2737.24852	1818.5875
2739.83899	1816.2875
2742.42786	1816.6875
2745.01513	1810.5875
2747.60079	1817.3875
2750.18486	1802.5875
2752.76733	1802.4875
2755.3482	1811.9875
2757.92747	1811.3875
2760.50515	1808.2875
2763.08123	1801.1875
2765.65573	1797.6875
2768.22863	1799.9875
2770.79994	1794.9875
2773.36967	1805.7875
2775.9378	1800.0875
2778.50435	1788.5875
2781.06932	1794.4875
2783.6327	1782.4875
2786.1945	1789.4875
2788.75471	1783.2875
2791.31335	1772.7875
2793.87041	1768.2875
2796.42589	1768.3875
2798.97979	1774.5875
2801.53212	1765.7875
2804.08288	1765.5875
2806.63206	1758.2875
2809.17967	1749.2875
2811.72571	1754.1875
2814.27018	1765.8875
2816.81308	1756.8875
2819.35442	1758.2875
2821.89419	1739.1875
2824.43239	1742.9875
2826.96904	1750.7875
2829.50412	1736.6875
2832.03763	1742.7875
2834.56959	1733.7875
2837.1	1746.8875
2839.62884	1741.9875
2842.15613	1749.1875
2844.68186	1748.4875
2847.20604	1740.9875
2849.72867	1755.0875
2852.24974	1757.8875
2854.76927	1755.9875
2857.28724	1737.3875
2859.80367	1752.5875
2862.31855	1762.3875
2864.83189	1766.3875
2867.34368	1760.8875
2869.85393	1771.1875
2872.36264	1785.5875
2874.8698	1788.2875
2877.37543	1797.3875
2879.87952	1809.1875
2882.38207	1815.8875
2884.88308	1826.1875
2887.38256	1832.4875
2889.88051	1835.6875
2892.37692	1848.4875
2894.8718	1847.2875
2897.36515	1861.3875
2899.85698	1866.5875
2902.34727	1883.6875
2904.83604	1885.6875
2907.32328	1894.8875
2909.809	1899.8875
2912.29319	1894.6875
2914.77587	1904.0875
2917.25702	1902.7875
2919.73665	1904.2875
2922.21476	1912.8875
2924.69136	1904.2875
2927.16644	1912.6875
2929.64	1892.4875
2932.11205	1902.4875
2934.58258	1901.1875
2937.05161	1893.7875
2939.51912	1884.8875
2941.98513	1876.5875
2944.44962	1863.2875
2946.91261	1856.0875
2949.37409	1859.4875
2951.83407	1841.4875
2954.29254	1839.2875
2956.74951	1823.1875
2959.20498	1817.0875
2961.65895	1804.5875
2964.11142	1797.7875
2966.56239	1789.2875
2969.01186	1786.4875
2971.45984	1785.3875
2973.90632	1776.5875
2976.35131	1772.9875
2978.7948	1763.7875
2981.23681	1744.6875
2983.67732	1748.6875
2986.11635	1737.2875
2988.55388	1725.3875
2990.98993	1717.4875
2993.4245	1727.3875
2995.85758	1717.3875
2998.28917	1712.8875
3000.71928	1712.6875
3003.14791	1706.3875
3005.57506	1708.4875
3008.00073	1707.1875
3010.42493	1702.0875
3012.84764	1698.5875
3015.26888	1682.5875
3017.68865	1684.5875
3020.10694	1698.3875
3022.52376	1692.6875
3024.9391	1679.0875
3027.35298	1686.6875
3029.76539	1681.4875
3032.17632	1679.2875
3034.5858	1681.0875
3036.9938	1674.5875
3039.40034	1676.6875
3041.80542	1672.4875
3044.20903	1680.0875
3046.61118	1681.2875
3049.01187	1676.7875
3051.4111	1679.9875
3053.80888	1663.2875
3056.20519	1670.2875
3058.60005	1667.3875
3060.99345	1668.7875
3063.3854	1669.6875
3065.7759	1661.3875
3068.16494	1670.3875
3070.55254	1667.9875
3072.93868	1663.9875
3075.32338	1669.3875
3077.70662	1665.6875
3080.08842	1666.0875
3082.46878	1672.0875
3084.84769	1667.5875
3087.22515	1674.7875
3089.60118	1676.3875
3091.97576	1689.7875
3094.3489	1693.6875
3096.72061	1688.6875
3099.09087	1704.4875
3101.4597	1699.3875
3103.82709	1696.0875
3106.19305	1701.7875
3108.55757	1706.2875
3110.92066	1715.0875
3113.28232	1711.5875
3115.64255	1709.2875
3118.00134	1719.4875
3120.35871	1716.4875
3122.71466	1708.7875
3125.06917	1715.1875
3127.42226	1729.2875
3129.77393	1733.9875
3132.12417	1729.3875
3134.47299	1745.5875
3136.82039	1735.5875
3139.16636	1743.2875
3141.51092	1754.3875
3143.85406	1767.7875
3146.19579	1767.9875
3148.53609	1773.2875
3150.87499	1774.6875
3153.21246	1786.9875
3155.54853	1791.5875
3157.88318	1790.5875
3160.21642	1800.9875
3162.54826	1804.0875
3164.87868	1802.9875
3167.2077	1809.3875
3169.5353	1812.8875
3171.86151	1823.4875
3174.18631	1814.6875
3176.5097	1841.5875
3178.83169	1826.9875
3181.15228	1836.3875
3183.47147	1831.0875
3185.78926	1831.5875
3188.10565	1832.8875
3190.42065	1849.2875
3192.73424	1859.1875
3195.04645	1851.6875
3197.35725	1856.5875
3199.66667	1860.2875
3201.97469	1874.1875
3204.28132	1867.2875
3206.58656	1870.9875
3208.8904	1879.4875
3211.19287	1884.1875
3213.49394	1885.9875
3215.79363	1888.8875
3218.09193	1891.6875
3220.38884	1889.1875
3222.68438	1873.3875
3224.97853	1878.8875
3227.2713	1890.9875
3229.56269	1891.7875
3231.8527	1888.9875
3234.14133	1889.4875
3236.42858	1886.8875
3238.71446	1890.2875
3240.99896	1887.3875
3243.28209	1897.7875
3245.56384	1887.4875
3247.84423	1904.1875
3250.12324	1908.0875
3252.40088	1890.3875
3254.67715	1901.0875
3256.95205	1901.4875
3259.22558	1900.3875
3261.49775	1898.2875
3263.76855	1886.7875
3266.03799	1909.3875
3268.30606	1889.8875
3270.57277	1888.1875
3272.83812	1890.4875
3275.10211	1895.7875
3277.36474	1887.8875
3279.62601	1886.4875
3281.88593	1883.6875
3284.14448	1878.0875
3286.40168	1874.5875
3288.65753	1878.2875
3290.91202	1869.3875
3293.16516	1873.5875
3295.41695	1863.0875
3297.66738	1862.9875
3299.91647	1834.3875
3302.16421	1832.7875
3304.4106	1827.6875
3306.65564	1826.3875
3308.89933	1816.4875
3311.14169	1806.3875
3313.38269	1797.2875
3315.62236	1783.6875
3317.86068	1768.0875
3320.09766	1752.1875
3322.3333	1737.5875
3324.5676	1734.9875
3326.80056	1699.7875
3329.03219	1696.7875
3331.26248	0.8875
3333.49143	0.5875
3335.71905	0.3875
