Data from AgNPs_FTO_APTES_UA_10uM_R6G_10uM_NaF_0.1M_Addition_RamanShift__26__13-40-17-330.txt Node

Date: Fri Dec 17 13:40:17 GMT 2021
User: TCL
Spectrometer: QEP01345
Trigger mode: 4
Integration Time (sec): 7.000000E0
Scans to average: 10
Electric dark correction enabled: true
Nonlinearity correction enabled: false
Boxcar width: 0
XAxis mode: Raman Shifts
Number of Pixels in Spectrum: 1044
>>>>>Begin Spectral Data<<<<<
46.04893	-1.6125
50.45542	0.4875
54.85868	-1.3125
59.25871	-0.9125
63.6555	76.8875
68.04907	79.2875
72.43941	82.8875
76.82654	91.0875
81.21044	92.1875
85.59113	93.3875
89.96862	99.8875
94.34289	101.7875
98.71396	106.0875
103.08183	109.0875
107.4465	109.3875
111.80798	114.4875
116.16626	118.7875
120.52136	115.6875
124.87327	125.7875
129.222	130.2875
133.56755	134.7875
137.90993	143.2875
142.24913	159.3875
146.58517	174.4875
150.91804	199.7875
155.24774	229.3875
159.57429	284.0875
163.89768	364.4875
168.21792	471.3875
172.53501	639.7875
176.84895	877.4875
181.15975	1227.3875
185.46741	1720.0875
189.77193	2370.4875
194.07331	3183.9875
198.37157	4077.8875
202.6667	5059.4875
206.9587	6017.3875
211.24758	6965.3875
215.53334	7910.5875
219.81599	8948.4875
224.09553	10100.4875
228.37195	11366.0875
232.64527	12770.8875
236.91549	14244.3875
241.18261	15706.7875
245.44663	17076.5875
249.70755	18195.6875
253.96539	19213.2875
258.22014	20062.8875
262.4718	20818.6875
266.72039	21385.2875
270.96589	21704.8875
275.20832	21764.9875
279.44768	21599.9875
283.68397	21304.0875
287.91719	21100.8875
292.14735	21016.0875
296.37445	21075.2875
300.59849	21320.3875
304.81948	21701.5875
309.03742	21907.4875
313.25231	21744.7875
317.46415	21191.2875
321.67296	20314.1875
325.87872	19625.2875
330.08145	19358.1875
334.28114	19371.0875
338.47781	19651.5875
342.67145	20036.3875
346.86207	20570.0875
351.04966	21316.4875
355.23424	22149.4875
359.4158	22840.7875
363.59435	23309.3875
367.76989	23582.3875
371.94243	23731.0875
376.11196	23821.4875
380.27849	23871.5875
384.44203	23891.0875
388.60257	23918.7875
392.76012	23990.4875
396.91468	24234.2875
401.06626	24684.4875
405.21485	25068.9875
409.36047	24962.2875
413.50311	24397.4875
417.64277	23868.9875
421.77947	23601.7875
425.9132	23544.9875
430.04396	23635.5875
434.17176	23769.9875
438.2966	24059.4875
442.41849	24528.0875
446.53742	25094.8875
450.6534	25720.3875
454.76644	26211.5875
458.87653	26467.9875
462.98368	26351.3875
467.08789	26116.2875
471.18916	25644.6875
475.2875	25173.1875
479.38291	24811.1875
483.4754	24570.9875
487.56496	24388.8875
491.6516	24199.6875
495.73531	24067.9875
499.81612	24061.4875
503.89401	24193.6875
507.96899	24298.5875
512.04106	24487.2875
516.11023	24722.7875
520.1765	24874.9875
524.23987	24897.4875
528.30034	24671.5875
532.35792	24400.0875
536.41261	24106.6875
540.46441	23817.1875
544.51333	23713.4875
548.55936	23843.6875
552.60252	24120.4875
556.64279	24451.6875
560.6802	24634.8875
564.71473	24798.8875
568.7464	25178.3875
572.7752	25541.6875
576.80114	25450.0875
580.82422	25303.8875
584.84444	25354.1875
588.86181	25461.9875
592.87633	25659.5875
596.888	25919.0875
600.89682	26488.2875
604.9028	28194.0875
608.90594	32287.2875
612.90624	37271.3875
616.90371	36012.6875
620.89834	29326.1875
624.89015	26140.9875
628.87913	25521.1875
632.86528	25485.4875
636.84862	25605.4875
640.82913	25366.0875
644.80683	24761.3875
648.78172	24278.1875
652.75379	24282.7875
656.72306	24730.6875
660.68952	25388.8875
664.65319	25337.1875
668.61405	24774.6875
672.57211	24544.3875
676.52738	24563.0875
680.47986	24615.2875
684.42955	24513.2875
688.37646	24526.5875
692.32058	24587.1875
696.26192	24749.1875
700.20048	24969.3875
704.13626	25092.4875
708.06928	24990.9875
711.99952	24843.4875
715.927	24721.9875
719.85171	24759.6875
723.77365	24783.3875
727.69284	24674.0875
731.60928	24531.2875
735.52295	24581.4875
739.43388	24645.4875
743.34206	24783.3875
747.24749	24917.5875
751.15017	25085.1875
755.05012	25395.6875
758.94733	26026.6875
762.8418	27351.0875
766.73354	29508.5875
770.62254	31903.6875
774.50882	33090.2875
778.39237	32140.2875
782.27321	29593.7875
786.15132	27234.3875
790.02671	25858.6875
793.89938	25230.7875
797.76935	25013.2875
801.6366	24899.9875
805.50115	24902.1875
809.36299	24810.8875
813.22213	24762.6875
817.07857	24775.7875
820.93231	24760.3875
824.78336	24751.8875
828.63172	24848.0875
832.47738	24898.8875
836.32036	24913.3875
840.16066	24937.6875
843.99827	24994.1875
847.8332	24981.7875
851.66546	24955.4875
855.49504	24899.4875
859.32195	24843.2875
863.1462	24815.6875
866.96777	24766.9875
870.78668	24763.2875
874.60293	24801.4875
878.41652	24859.1875
882.22745	24935.2875
886.03573	25046.5875
889.84136	25019.4875
893.64433	24919.7875
897.44466	24828.2875
901.24235	24757.7875
905.0374	24707.0875
908.8298	24708.0875
912.61957	24706.9875
916.40671	24812.6875
920.19121	24981.9875
923.97308	25170.6875
927.75233	25351.7875
931.52895	25455.8875
935.30295	25354.2875
939.07433	24967.6875
942.84309	24678.4875
946.60924	24574.2875
950.37278	24409.0875
954.13371	24300.0875
957.89203	24171.7875
961.64774	24035.7875
965.40086	24026.3875
969.15137	23959.9875
972.89929	23911.3875
976.64461	23933.6875
980.38733	23937.1875
984.12747	24061.0875
987.86502	24192.8875
991.59999	24431.9875
995.33237	24780.6875
999.06217	25349.9875
1002.78939	26081.7875
1006.51404	26639.6875
1010.23611	27112.0875
1013.95561	27427.3875
1017.67255	27532.5875
1021.38692	27443.8875
1025.09872	27267.3875
1028.80796	27411.4875
1032.51465	27879.4875
1036.21877	28223.3875
1039.92035	28260.6875
1043.61937	27920.2875
1047.31584	27293.3875
1051.00976	26680.9875
1054.70114	26314.0875
1058.38998	26248.6875
1062.07627	26318.5875
1065.76003	26469.5875
1069.44126	26576.1875
1073.11995	26802.3875
1076.79611	26986.4875
1080.46974	27116.4875
1084.14085	27303.9875
1087.80943	27555.6875
1091.47549	27617.8875
1095.13903	27391.8875
1098.80005	26936.3875
1102.45857	26457.7875
1106.11456	26279.9875
1109.76805	26314.5875
1113.41903	26611.8875
1117.06751	26982.8875
1120.71348	27415.0875
1124.35696	27897.5875
1127.99793	28391.1875
1131.63641	28508.0875
1135.2724	28081.3875
1138.90589	27560.7875
1142.5369	27181.8875
1146.16542	26848.9875
1149.79145	26687.1875
1153.415	26627.3875
1157.03607	26838.0875
1160.65467	27165.2875
1164.27079	27747.8875
1167.88443	28669.2875
1171.49561	29912.0875
1175.10432	31892.5875
1178.71056	34592.0875
1182.31434	37099.0875
1185.91565	38367.9875
1189.51451	38346.3875
1193.11091	37071.1875
1196.70485	35128.4875
1200.29634	33577.5875
1203.88538	32382.2875
1207.47197	31261.0875
1211.05612	30389.0875
1214.63782	29986.7875
1218.21708	29875.5875
1221.79391	30019.8875
1225.36829	30203.9875
1228.94024	30335.6875
1232.50976	30447.0875
1236.07685	30469.5875
1239.6415	30473.4875
1243.20374	30432.5875
1246.76355	30457.2875
1250.32093	30705.1875
1253.8759	31201.8875
1257.42845	31947.8875
1260.97859	32607.3875
1264.52631	33140.0875
1268.07163	33702.6875
1271.61453	34378.5875
1275.15503	35106.3875
1278.69312	35823.2875
1282.22882	36394.7875
1285.76211	36964.7875
1289.29301	37636.9875
1292.82151	38230.5875
1296.34761	38935.6875
1299.87133	40052.6875
1303.39266	41937.0875
1306.9116	44639.0875
1310.42815	47688.8875
1313.94233	49774.2875
1317.45412	49704.5875
1320.96354	48298.3875
1324.47058	46341.2875
1327.97525	44605.6875
1331.47754	43481.2875
1334.97747	43238.0875
1338.47502	43635.5875
1341.97022	44338.4875
1345.46305	44846.8875
1348.95352	45247.5875
1352.44163	45919.6875
1355.92738	47423.9875
1359.41078	50543.3875
1362.89183	53803.6875
1366.37053	53143.8875
1369.84688	48102.7875
1373.32088	42587.4875
1376.79254	38977.2875
1380.26186	37135.2875
1383.72883	36246.7875
1387.19347	35505.3875
1390.65578	34825.5875
1394.11575	34336.4875
1397.57339	34352.8875
1401.0287	34798.0875
1404.48168	35424.9875
1407.93234	36126.4875
1411.38068	36778.6875
1414.82669	36942.3875
1418.27039	36483.8875
1421.71177	35726.6875
1425.15083	35074.1875
1428.58758	34635.0875
1432.02203	34590.1875
1435.45416	34687.8875
1438.88399	34749.2875
1442.31151	34850.4875
1445.73673	34978.4875
1449.15965	35113.8875
1452.58027	35199.6875
1455.9986	35033.0875
1459.41463	34999.9875
1462.82837	35226.8875
1466.23982	35696.9875
1469.64898	36309.4875
1473.05586	36816.7875
1476.46045	37101.2875
1479.86276	37386.1875
1483.26279	37803.1875
1486.66054	38314.0875
1490.05602	38983.2875
1493.44922	39824.3875
1496.84016	40758.8875
1500.22882	42045.1875
1503.61521	43834.0875
1506.99934	46075.6875
1510.38121	48222.7875
1513.76081	49046.7875
1517.13816	47543.8875
1520.51324	44484.7875
1523.88607	41336.1875
1527.25665	39097.1875
1530.62498	37722.9875
1533.99105	36971.4875
1537.35488	36512.5875
1540.71647	36266.1875
1544.07581	36168.0875
1547.4329	36092.8875
1550.78776	36114.4875
1554.14038	36098.3875
1557.49077	36235.9875
1560.83892	36436.6875
1564.18484	36561.3875
1567.52853	36700.2875
1570.86999	36777.0875
1574.20922	36864.0875
1577.54624	36895.3875
1580.88103	36451.3875
1584.2136	35858.4875
1587.54395	35914.6875
1590.87208	36838.3875
1594.19801	38633.4875
1597.52172	40730.4875
1600.84321	41717.4875
1604.16251	40871.8875
1607.47959	38845.7875
1610.79447	36455.7875
1614.10715	34195.5875
1617.41763	32375.1875
1620.7259	31259.5875
1624.03199	30766.6875
1627.33587	30858.0875
1630.63757	31494.6875
1633.93707	32758.6875
1637.23439	34493.5875
1640.52951	36507.0875
1643.82246	38524.8875
1647.11321	40120.4875
1650.40179	40735.2875
1653.68819	39250.0875
1656.97241	35896.3875
1660.25446	32330.1875
1663.53433	29714.7875
1666.81203	28116.5875
1670.08756	27138.9875
1673.36092	26462.2875
1676.63211	26028.3875
1679.90115	25733.9875
1683.16801	25496.4875
1686.43272	25339.1875
1689.69527	25220.2875
1692.95567	25109.6875
1696.2139	25081.0875
1699.46999	25047.9875
1702.72392	24995.6875
1705.97571	25003.6875
1709.22535	24963.3875
1712.47284	24985.9875
1715.71819	24968.2875
1718.96139	24913.1875
1722.20246	24890.8875
1725.44139	24815.5875
1728.67818	24733.7875
1731.91284	24630.5875
1735.14537	24567.0875
1738.37576	24504.7875
1741.60403	24421.2875
1744.83017	24363.6875
1748.05418	24306.2875
1751.27607	24303.8875
1754.49584	24278.0875
1757.71349	24279.8875
1760.92903	24306.6875
1764.14244	24292.6875
1767.35375	24284.2875
1770.56294	24278.2875
1773.77002	24234.5875
1776.97499	24229.0875
1780.17785	24200.4875
1783.37861	24143.4875
1786.57727	24179.1875
1789.77382	24154.1875
1792.96828	24107.3875
1796.16064	24113.3875
1799.3509	24116.2875
1802.53907	24126.5875
1805.72514	24044.2875
1808.90913	24041.1875
1812.09102	23998.3875
1815.27083	23927.0875
1818.44856	23898.5875
1821.6242	23933.1875
1824.79776	23914.5875
1827.96924	23883.9875
1831.13864	23866.2875
1834.30597	23869.4875
1837.47122	23899.0875
1840.6344	23888.7875
1843.7955	23910.5875
1846.95454	23891.5875
1850.11151	23882.0875
1853.26642	23897.0875
1856.41926	23936.5875
1859.57004	23933.5875
1862.71876	23947.6875
1865.86542	23973.2875
1869.01003	23943.3875
1872.15258	23957.6875
1875.29308	24026.2875
1878.43152	24001.7875
1881.56792	24018.4875
1884.70227	24012.1875
1887.83457	24029.5875
1890.96482	24043.0875
1894.09304	24035.3875
1897.21921	24061.7875
1900.34335	24069.1875
1903.46544	24045.1875
1906.58551	24069.2875
1909.70353	24108.2875
1912.81953	24083.9875
1915.93349	24079.8875
1919.04543	24033.8875
1922.15534	24001.2875
1925.26322	23952.8875
1928.36908	23929.5875
1931.47292	23839.2875
1934.57473	23794.1875
1937.67453	23685.9875
1940.77232	23638.3875
1943.86808	23519.8875
1946.96184	23443.9875
1950.05358	23395.9875
1953.14331	23297.0875
1956.23103	23215.4875
1959.31675	23174.7875
1962.40046	23120.9875
1965.48217	23038.5875
1968.56188	22977.1875
1971.63959	22932.1875
1974.7153	22821.2875
1977.78901	22768.0875
1980.86073	22714.7875
1983.93046	22660.2875
1986.99819	22595.6875
1990.06394	22551.0875
1993.1277	22474.5875
1996.18947	22382.9875
1999.24925	22350.6875
2002.30706	22288.8875
2005.36288	22231.2875
2008.41672	22239.6875
2011.46859	22151.8875
2014.51848	22106.2875
2017.56639	22074.0875
2020.61233	22009.4875
2023.6563	21972.6875
2026.6983	21928.7875
2029.73833	21889.0875
2032.7764	21789.8875
2035.8125	21774.0875
2038.84664	21799.7875
2041.87881	21741.4875
2044.90903	21745.9875
2047.93729	21705.5875
2050.96359	21669.3875
2053.98794	21619.3875
2057.01034	21621.5875
2060.03078	21594.7875
2063.04927	21571.3875
2066.06582	21603.1875
2069.08042	21572.7875
2072.09307	21543.7875
2075.10378	21540.8875
2078.11255	21502.4875
2081.11938	21525.5875
2084.12426	21509.8875
2087.12722	21488.3875
2090.12824	21521.3875
2093.12732	21494.3875
2096.12447	21532.3875
2099.11969	21513.8875
2102.11299	21514.4875
2105.10435	21558.7875
2108.09379	21574.2875
2111.08131	21581.4875
2114.0669	21584.0875
2117.05057	21588.3875
2120.03233	21594.8875
2123.01216	21644.8875
2125.99008	21662.2875
2128.96609	21704.2875
2131.94018	21716.1875
2134.91236	21672.9875
2137.88263	21751.1875
2140.851	21737.0875
2143.81746	21841.9875
2146.78201	21813.1875
2149.74466	21781.2875
2152.7054	21785.3875
2155.66425	21801.4875
2158.6212	21800.1875
2161.57625	21818.0875
2164.52941	21793.9875
2167.48067	21800.0875
2170.43004	21786.1875
2173.37752	21813.4875
2176.32311	21804.9875
2179.26681	21778.4875
2182.20863	21838.5875
2185.14856	21825.6875
2188.08661	21790.9875
2191.02278	21807.5875
2193.95707	21800.2875
2196.88948	21809.6875
2199.82001	21844.5875
2202.74867	21814.0875
2205.67545	21806.3875
2208.60037	21801.5875
2211.52341	21770.0875
2214.44458	21774.4875
2217.36388	21728.9875
2220.28132	21671.8875
2223.1969	21672.7875
2226.11061	21642.1875
2229.02246	21606.9875
2231.93245	21567.3875
2234.84058	21520.2875
2237.74686	21498.4875
2240.65128	21475.2875
2243.55385	21477.6875
2246.45456	21394.9875
2249.35343	21403.8875
2252.25044	21368.9875
2255.14561	21328.7875
2258.03893	21345.5875
2260.93041	21301.6875
2263.82004	21274.0875
2266.70783	21238.7875
2269.59378	21180.3875
2272.4779	21151.1875
2275.36017	21097.3875
2278.24061	21068.0875
2281.11922	21022.3875
2283.996	21009.4875
2286.87094	20981.5875
2289.74405	20985.2875
2292.61534	20936.2875
2295.4848	20911.6875
2298.35243	20911.4875
2301.21824	20909.2875
2304.08223	20929.1875
2306.94439	20927.6875
2309.80474	20926.7875
2312.66327	20937.9875
2315.51999	20906.0875
2318.37489	20932.8875
2321.22797	20888.1875
2324.07925	20921.3875
2326.92871	20871.6875
2329.77637	20839.1875
2332.62222	20814.1875
2335.46626	20804.3875
2338.3085	20821.7875
2341.14893	20774.4875
2343.98756	20830.8875
2346.8244	20826.0875
2349.65943	20820.2875
2352.49267	20821.1875
2355.32411	20816.4875
2358.15376	20796.6875
2360.98161	20779.7875
2363.80768	20740.7875
2366.63195	20742.4875
2369.45444	20730.7875
2372.27514	20680.0875
2375.09405	20632.8875
2377.91118	20622.8875
2380.72652	20531.9875
2383.54009	20492.5875
2386.35187	20492.2875
2389.16188	20408.4875
2391.97011	20431.1875
2394.77657	20376.8875
2397.58125	20373.2875
2400.38416	20340.4875
2403.18529	20299.3875
2405.98466	20259.7875
2408.78226	20217.2875
2411.57809	20180.1875
2414.37216	20162.5875
2417.16446	20182.5875
2419.955	20095.4875
2422.74378	20091.9875
2425.5308	20090.7875
2428.31606	20055.1875
2431.09956	20046.7875
2433.88131	19988.6875
2436.6613	20052.5875
2439.43954	19991.5875
2442.21603	20020.6875
2444.99077	19980.3875
2447.76377	19995.4875
2450.53501	19942.6875
2453.30451	19942.8875
2456.07226	19913.3875
2458.83827	19935.6875
2461.60254	19914.9875
2464.36507	19934.8875
2467.12586	19873.6875
2469.88492	19910.1875
2472.64224	19904.7875
2475.39782	19910.5875
2478.15167	19936.2875
2480.90379	19904.5875
2483.65417	19923.9875
2486.40283	19920.5875
2489.14976	19923.4875
2491.89497	19928.7875
2494.63845	19988.5875
2497.3802	19947.5875
2500.12024	19944.6875
2502.85855	19901.0875
2505.59514	19928.3875
2508.33002	19912.1875
2511.06318	19881.2875
2513.79462	19871.2875
2516.52435	19831.8875
2519.25237	19803.8875
2521.97867	19786.5875
2524.70327	19768.3875
2527.42616	19743.5875
2530.14734	19714.3875
2532.86681	19681.6875
2535.58458	19703.7875
2538.30065	19681.8875
2541.01501	19679.7875
2543.72768	19597.3875
2546.43864	19604.9875
2549.14791	19566.2875
2551.85548	19556.4875
2554.56136	19514.5875
2557.26554	19508.2875
2559.96803	19510.0875
2562.66883	19465.1875
2565.36794	19461.8875
2568.06536	19468.8875
2570.7611	19431.9875
2573.45514	19417.6875
2576.14751	19403.3875
2578.83819	19364.6875
2581.52719	19390.0875
2584.21451	19347.3875
2586.90015	19339.9875
2589.58411	19372.2875
2592.2664	19328.6875
2594.94701	19290.3875
2597.62594	19346.8875
2600.30321	19277.4875
2602.9788	19275.4875
2605.65273	19242.1875
2608.32498	19219.8875
2610.99557	19229.1875
2613.66449	19228.9875
2616.33175	19229.9875
2618.99734	19216.2875
2621.66128	19239.4875
2624.32355	19232.2875
2626.98416	19190.0875
2629.64311	19191.4875
2632.30041	19221.8875
2634.95605	19202.5875
2637.61004	19132.2875
2640.26238	19099.8875
2642.91306	19152.6875
2645.56209	19118.6875
2648.20948	19091.4875
2650.85521	19092.7875
2653.4993	19046.8875
2656.14175	19063.7875
2658.78255	19051.2875
2661.42171	19053.3875
2664.05923	19054.1875
2666.6951	19082.2875
2669.32934	19096.3875
2671.96194	19107.2875
2674.59291	19121.6875
2677.22224	19109.4875
2679.84993	19143.1875
2682.476	19154.6875
2685.10043	19139.8875
2687.72324	19119.3875
2690.34441	19116.6875
2692.96396	19109.1875
2695.58188	19083.3875
2698.19818	19113.3875
2700.81285	19106.5875
2703.4259	19103.1875
2706.03733	19177.2875
2708.64714	19150.9875
2711.25533	19159.5875
2713.86191	19160.4875
2716.46687	19145.5875
2719.07021	19147.8875
2721.67194	19152.5875
2724.27206	19116.0875
2726.87057	19128.7875
2729.46747	19141.0875
2732.06276	19155.7875
2734.65644	19112.2875
2737.24852	19150.1875
2739.83899	19119.1875
2742.42786	19121.5875
2745.01513	19115.7875
2747.60079	19079.0875
2750.18486	19088.6875
2752.76733	19095.6875
2755.3482	19084.5875
2757.92747	19077.2875
2760.50515	19075.9875
2763.08123	19056.8875
2765.65573	19036.1875
2768.22863	19007.1875
2770.79994	19029.6875
2773.36967	18979.5875
2775.9378	18983.1875
2778.50435	18936.0875
2781.06932	18914.1875
2783.6327	18920.8875
2786.1945	18887.7875
2788.75471	18897.0875
2791.31335	18821.5875
2793.87041	18848.6875
2796.42589	18762.8875
2798.97979	18781.2875
2801.53212	18713.5875
2804.08288	18693.9875
2806.63206	18668.2875
2809.17967	18636.2875
2811.72571	18631.0875
2814.27018	18619.6875
2816.81308	18599.8875
2819.35442	18558.8875
2821.89419	18542.3875
2824.43239	18573.9875
2826.96904	18528.6875
2829.50412	18510.7875
2832.03763	18493.7875
2834.56959	18474.3875
2837.1	18485.9875
2839.62884	18500.4875
2842.15613	18467.6875
2844.68186	18491.1875
2847.20604	18517.8875
2849.72867	18520.8875
2852.24974	18518.5875
2854.76927	18516.9875
2857.28724	18465.4875
2859.80367	18438.6875
2862.31855	18413.2875
2864.83189	18398.9875
2867.34368	18380.7875
2869.85393	18385.6875
2872.36264	18373.6875
2874.8698	18390.8875
2877.37543	18358.7875
2879.87952	18369.4875
2882.38207	18359.2875
2884.88308	18372.2875
2887.38256	18399.5875
2889.88051	18365.1875
2892.37692	18414.2875
2894.8718	18361.0875
2897.36515	18391.4875
2899.85698	18374.9875
2902.34727	18432.2875
2904.83604	18422.5875
2907.32328	18471.8875
2909.809	18448.9875
2912.29319	18488.0875
2914.77587	18439.0875
2917.25702	18442.4875
2919.73665	18417.0875
2922.21476	18421.8875
2924.69136	18376.6875
2927.16644	18403.8875
2929.64	18352.5875
2932.11205	18354.3875
2934.58258	18289.4875
2937.05161	18313.8875
2939.51912	18315.3875
2941.98513	18283.0875
2944.44962	18252.9875
2946.91261	18198.3875
2949.37409	18263.0875
2951.83407	18235.2875
2954.29254	18222.4875
2956.74951	18184.1875
2959.20498	18179.4875
2961.65895	18126.9875
2964.11142	18150.3875
2966.56239	18063.1875
2969.01186	18047.2875
2971.45984	18005.0875
2973.90632	17988.5875
2976.35131	17967.3875
2978.7948	17947.3875
2981.23681	17878.2875
2983.67732	17864.2875
2986.11635	17803.6875
2988.55388	17767.8875
2990.98993	17723.5875
2993.4245	17699.9875
2995.85758	17683.3875
2998.28917	17650.0875
3000.71928	17611.9875
3003.14791	17600.3875
3005.57506	17594.8875
3008.00073	17547.5875
3010.42493	17547.6875
3012.84764	17492.0875
3015.26888	17535.7875
3017.68865	17463.9875
3020.10694	17446.3875
3022.52376	17422.1875
3024.9391	17389.7875
3027.35298	17377.9875
3029.76539	17341.8875
3032.17632	17276.2875
3034.5858	17288.8875
3036.9938	17274.4875
3039.40034	17261.7875
3041.80542	17238.3875
3044.20903	17159.0875
3046.61118	17177.8875
3049.01187	17132.1875
3051.4111	17131.2875
3053.80888	17078.1875
3056.20519	17051.4875
3058.60005	16998.3875
3060.99345	16982.4875
3063.3854	16959.8875
3065.7759	16925.4875
3068.16494	16889.3875
3070.55254	16832.2875
3072.93868	16795.8875
3075.32338	16732.7875
3077.70662	16745.8875
3080.08842	16698.0875
3082.46878	16717.9875
3084.84769	16657.3875
3087.22515	16649.6875
3089.60118	16671.2875
3091.97576	16639.8875
3094.3489	16587.5875
3096.72061	16594.7875
3099.09087	16609.3875
3101.4597	16589.9875
3103.82709	16590.8875
3106.19305	16575.4875
3108.55757	16548.6875
3110.92066	16482.0875
3113.28232	16450.9875
3115.64255	16416.4875
3118.00134	16391.6875
3120.35871	16392.4875
3122.71466	16354.8875
3125.06917	16297.3875
3127.42226	16250.6875
3129.77393	16300.7875
3132.12417	16278.9875
3134.47299	16267.0875
3136.82039	16248.9875
3139.16636	16246.1875
3141.51092	16275.1875
3143.85406	16236.4875
3146.19579	16269.0875
3148.53609	16262.4875
3150.87499	16281.1875
3153.21246	16258.4875
3155.54853	16276.8875
3157.88318	16234.8875
3160.21642	16258.7875
3162.54826	16255.6875
3164.87868	16229.6875
3167.2077	16263.1875
3169.5353	16217.0875
3171.86151	16203.3875
3174.18631	16217.3875
3176.5097	16188.1875
3178.83169	16149.6875
3181.15228	16138.5875
3183.47147	16115.0875
3185.78926	16111.4875
3188.10565	16097.2875
3190.42065	16099.3875
3192.73424	16152.3875
3195.04645	16093.7875
3197.35725	16101.6875
3199.66667	16086.0875
3201.97469	16147.2875
3204.28132	16114.1875
3206.58656	16160.8875
3208.8904	16116.5875
3211.19287	16149.7875
3213.49394	16144.7875
3215.79363	16130.4875
3218.09193	16139.7875
3220.38884	16115.6875
3222.68438	16136.9875
3224.97853	16078.0875
3227.2713	16080.8875
3229.56269	16015.8875
3231.8527	16065.6875
3234.14133	16016.0875
3236.42858	15982.6875
3238.71446	15953.1875
3240.99896	15968.6875
3243.28209	15953.5875
3245.56384	15946.9875
3247.84423	15937.9875
3250.12324	15924.1875
3252.40088	15928.1875
3254.67715	15900.5875
3256.95205	15876.0875
3259.22558	15864.9875
3261.49775	15843.4875
3263.76855	15833.8875
3266.03799	15805.3875
3268.30606	15791.6875
3270.57277	15769.1875
3272.83812	15747.4875
3275.10211	15719.3875
3277.36474	15683.4875
3279.62601	15700.0875
3281.88593	15655.7875
3284.14448	15689.8875
3286.40168	15649.3875
3288.65753	15648.2875
3290.91202	15616.9875
3293.16516	15572.3875
3295.41695	15531.8875
3297.66738	15429.1875
3299.91647	15381.3875
3302.16421	15273.1875
3304.4106	15226.0875
3306.65564	15157.2875
3308.89933	15095.5875
3311.14169	14956.8875
3313.38269	14911.4875
3315.62236	14797.1875
3317.86068	14703.5875
3320.09766	14537.6875
3322.3333	14446.3875
3324.5676	14451.0875
3326.80056	14197.0875
3329.03219	14116.7875
3331.26248	3.7875
3333.49143	2.3875
3335.71905	-0.4125
