Data from AgNPs_FTO_APTES_UA_1uM_R6G_10uM_NaF_0.1M_Addition_RamanShift__23__11-30-47-182.txt Node

Date: Fri Dec 17 11:30:47 GMT 2021
User: TCL
Spectrometer: QEP01345
Trigger mode: 4
Integration Time (sec): 7.000000E0
Scans to average: 10
Electric dark correction enabled: true
Nonlinearity correction enabled: false
Boxcar width: 0
XAxis mode: Raman Shifts
Number of Pixels in Spectrum: 1044
>>>>>Begin Spectral Data<<<<<
46.04893	-0.3125
50.45542	-1.8125
54.85868	-1.5125
59.25871	-0.3125
63.6555	101.3875
68.04907	108.5875
72.43941	111.5875
76.82654	118.3875
81.21044	121.0875
85.59113	129.5875
89.96862	133.0875
94.34289	140.2875
98.71396	143.6875
103.08183	146.7875
107.4465	152.5875
111.80798	155.5875
116.16626	158.1875
120.52136	162.5875
124.87327	171.4875
129.222	179.1875
133.56755	187.9875
137.90993	199.2875
142.24913	214.7875
146.58517	238.3875
150.91804	272.0875
155.24774	319.2875
159.57429	398.9875
163.89768	500.3875
168.21792	661.4875
172.53501	882.7875
176.84895	1223.3875
181.15975	1695.7875
185.46741	2367.5875
189.77193	3264.1875
194.07331	4355.2875
198.37157	5614.4875
202.6667	6931.0875
206.9587	8227.7875
211.24758	9550.1875
215.53334	10839.8875
219.81599	12263.3875
224.09553	13815.7875
228.37195	15540.8875
232.64527	17469.3875
236.91549	19441.2875
241.18261	21369.5875
245.44663	23085.2875
249.70755	24577.4875
253.96539	25838.0875
258.22014	26945.2875
262.4718	27907.4875
266.72039	28655.4875
270.96589	29035.8875
275.20832	29038.3875
279.44768	28825.7875
283.68397	28442.8875
287.91719	28106.1875
292.14735	27934.3875
296.37445	28005.6875
300.59849	28360.9875
304.81948	28752.4875
309.03742	29057.9875
313.25231	28925.8875
317.46415	28107.3875
321.67296	26911.2875
325.87872	25991.9875
330.08145	25552.8875
334.28114	25539.4875
338.47781	25811.9875
342.67145	26253.6875
346.86207	26929.0875
351.04966	27882.0875
355.23424	28962.5875
359.4158	29796.0875
363.59435	30350.6875
367.76989	30669.3875
371.94243	30797.3875
376.11196	30850.2875
380.27849	30834.9875
384.44203	30867.9875
388.60257	30907.6875
392.76012	31013.0875
396.91468	31324.3875
401.06626	31916.3875
405.21485	32374.8875
409.36047	32165.8875
413.50311	31441.2875
417.64277	30676.2875
421.77947	30327.9875
425.9132	30293.0875
430.04396	30378.2875
434.17176	30536.8875
438.2966	30869.6875
442.41849	31450.2875
446.53742	32325.5875
450.6534	33174.6875
454.76644	33915.2875
458.87653	34232.5875
462.98368	34087.4875
467.08789	33632.0875
471.18916	32950.6875
475.2875	32303.4875
479.38291	31773.7875
483.4754	31459.8875
487.56496	31108.9875
491.6516	30792.8875
495.73531	30509.5875
499.81612	30363.6875
503.89401	30516.5875
507.96899	30621.0875
512.04106	30775.3875
516.11023	31050.5875
520.1765	31135.3875
524.23987	31050.6875
528.30034	30782.8875
532.35792	30411.8875
536.41261	29926.9875
540.46441	29447.5875
544.51333	29351.9875
548.55936	29542.9875
552.60252	29977.6875
556.64279	30496.4875
560.6802	30755.3875
564.71473	30983.3875
568.7464	31614.7875
572.7752	32132.2875
576.80114	32130.7875
580.82422	32075.0875
584.84444	32212.8875
588.86181	32538.6875
592.87633	32949.6875
596.888	33593.8875
600.89682	34351.4875
604.9028	36528.1875
608.90594	41677.9875
612.90624	47599.7875
616.90371	45405.8875
620.89834	36427.7875
624.89015	32269.6875
628.87913	31526.2875
632.86528	31434.2875
636.84862	31318.9875
640.82913	30802.9875
644.80683	29915.3875
648.78172	29233.4875
652.75379	29155.1875
656.72306	29745.1875
660.68952	30534.8875
664.65319	30417.1875
668.61405	29672.5875
672.57211	29290.9875
676.52738	29279.5875
680.47986	29264.8875
684.42955	29165.2875
688.37646	29101.7875
692.32058	29248.8875
696.26192	29532.0875
700.20048	29844.5875
704.13626	30035.3875
708.06928	29860.6875
711.99952	29652.3875
715.927	29541.3875
719.85171	29556.4875
723.77365	29528.3875
727.69284	29203.9875
731.60928	28933.8875
735.52295	28912.6875
739.43388	28988.3875
743.34206	29163.7875
747.24749	29317.8875
751.15017	29524.3875
755.05012	29968.7875
758.94733	30846.6875
762.8418	32696.0875
766.73354	35739.0875
770.62254	39024.9875
774.50882	40358.8875
778.39237	38645.9875
782.27321	35235.6875
786.15132	32227.5875
790.02671	30449.4875
793.89938	29680.3875
797.76935	29357.4875
801.6366	29192.6875
805.50115	29046.3875
809.36299	28923.1875
813.22213	28701.5875
817.07857	28687.8875
820.93231	28691.7875
824.78336	28694.6875
828.63172	28714.8875
832.47738	28840.3875
836.32036	28910.6875
840.16066	29006.6875
843.99827	29103.3875
847.8332	28988.2875
851.66546	28880.1875
855.49504	28792.9875
859.32195	28715.7875
863.1462	28622.8875
866.96777	28491.4875
870.78668	28389.5875
874.60293	28407.9875
878.41652	28461.2875
882.22745	28492.5875
886.03573	28658.8875
889.84136	28550.4875
893.64433	28467.5875
897.44466	28408.4875
901.24235	28325.5875
905.0374	28269.5875
908.8298	28239.8875
912.61957	28260.7875
916.40671	28450.9875
920.19121	28803.8875
923.97308	29165.4875
927.75233	29559.7875
931.52895	29676.6875
935.30295	29415.9875
939.07433	28791.7875
942.84309	28277.7875
946.60924	28010.1875
950.37278	27871.9875
954.13371	27640.0875
957.89203	27434.1875
961.64774	27320.1875
965.40086	27230.7875
969.15137	27104.5875
972.89929	27070.3875
976.64461	27029.9875
980.38733	27167.4875
984.12747	27249.3875
987.86502	27560.8875
991.59999	27964.6875
995.33237	28525.9875
999.06217	29511.7875
1002.78939	30673.6875
1006.51404	31435.5875
1010.23611	31827.1875
1013.95561	32054.8875
1017.67255	31965.9875
1021.38692	31569.2875
1025.09872	31373.7875
1028.80796	31868.0875
1032.51465	33004.0875
1036.21877	34015.5875
1039.92035	34175.3875
1043.61937	33620.6875
1047.31584	32454.1875
1051.00976	31227.2875
1054.70114	30506.5875
1058.38998	30236.5875
1062.07627	30242.2875
1065.76003	30329.7875
1069.44126	30532.2875
1073.11995	30910.7875
1076.79611	31292.7875
1080.46974	31533.9875
1084.14085	31827.2875
1087.80943	32172.9875
1091.47549	32188.1875
1095.13903	31833.3875
1098.80005	31098.9875
1102.45857	30454.2875
1106.11456	30066.1875
1109.76805	30063.8875
1113.41903	30373.6875
1117.06751	30712.6875
1120.71348	31242.5875
1124.35696	31724.2875
1127.99793	32303.4875
1131.63641	32434.0875
1135.2724	31912.1875
1138.90589	31268.7875
1142.5369	30859.8875
1146.16542	30478.6875
1149.79145	30359.1875
1153.415	30383.5875
1157.03607	30684.9875
1160.65467	31187.8875
1164.27079	32078.6875
1167.88443	33524.6875
1171.49561	35616.9875
1175.10432	38734.0875
1178.71056	42918.4875
1182.31434	46602.1875
1185.91565	48554.3875
1189.51451	48313.2875
1193.11091	46245.6875
1196.70485	43417.5875
1200.29634	41044.0875
1203.88538	39213.0875
1207.47197	37595.7875
1211.05612	36361.5875
1214.63782	35758.4875
1218.21708	35663.8875
1221.79391	35834.3875
1225.36829	36149.5875
1228.94024	36092.7875
1232.50976	35835.0875
1236.07685	35511.5875
1239.6415	35361.9875
1243.20374	35251.8875
1246.76355	35339.2875
1250.32093	35703.8875
1253.8759	36446.4875
1257.42845	37606.7875
1260.97859	38617.9875
1264.52631	39546.7875
1268.07163	40549.7875
1271.61453	41715.1875
1275.15503	42955.8875
1278.69312	44064.7875
1282.22882	44972.5875
1285.76211	45672.2875
1289.29301	46563.7875
1292.82151	47522.9875
1296.34761	48833.9875
1299.87133	50748.1875
1303.39266	53726.4875
1306.9116	57843.8875
1310.42815	62527.0875
1313.94233	65691.8875
1317.45412	65723.7875
1320.96354	63459.3875
1324.47058	60768.4875
1327.97525	58088.4875
1331.47754	56152.7875
1334.97747	55389.4875
1338.47502	55416.5875
1341.97022	55769.7875
1345.46305	55845.7875
1348.95352	55884.4875
1352.44163	56591.8875
1355.92738	58771.5875
1359.41078	63197.2875
1362.89183	67949.9875
1366.37053	67412.1875
1369.84688	60573.8875
1373.32088	52858.9875
1376.79254	47583.3875
1380.26186	45062.3875
1383.72883	44014.4875
1387.19347	43237.6875
1390.65578	42402.8875
1394.11575	41985.3875
1397.57339	42183.5875
1401.0287	42744.9875
1404.48168	43504.7875
1407.93234	44241.1875
1411.38068	44591.2875
1414.82669	44375.8875
1418.27039	43422.7875
1421.71177	42208.2875
1425.15083	41138.5875
1428.58758	40436.4875
1432.02203	40380.6875
1435.45416	40647.7875
1438.88399	41119.5875
1442.31151	41436.5875
1445.73673	41823.8875
1449.15965	42148.9875
1452.58027	42244.9875
1455.9986	42139.4875
1459.41463	42237.0875
1462.82837	42599.4875
1466.23982	43319.3875
1469.64898	44082.5875
1473.05586	44537.0875
1476.46045	44720.0875
1479.86276	44952.8875
1483.26279	45131.3875
1486.66054	45558.9875
1490.05602	46272.4875
1493.44922	47138.7875
1496.84016	48077.4875
1500.22882	49520.9875
1503.61521	51688.0875
1506.99934	54461.9875
1510.38121	57429.0875
1513.76081	58918.8875
1517.13816	57458.2875
1520.51324	53634.1875
1523.88607	49622.8875
1527.25665	46707.2875
1530.62498	44992.3875
1533.99105	44007.7875
1537.35488	43341.9875
1540.71647	42842.9875
1544.07581	42464.6875
1547.4329	42124.5875
1550.78776	41851.8875
1554.14038	41749.8875
1557.49077	41869.0875
1560.83892	42038.5875
1564.18484	42311.9875
1567.52853	42502.7875
1570.86999	42746.1875
1574.20922	43182.3875
1577.54624	43555.2875
1580.88103	43322.5875
1584.2136	42807.8875
1587.54395	43149.8875
1590.87208	44598.5875
1594.19801	47141.3875
1597.52172	49979.0875
1600.84321	51060.2875
1604.16251	49208.2875
1607.47959	45818.4875
1610.79447	42055.2875
1614.10715	38733.4875
1617.41763	36115.2875
1620.7259	34434.3875
1624.03199	33751.2875
1627.33587	33918.6875
1630.63757	34971.1875
1633.93707	36836.2875
1637.23439	39442.6875
1640.52951	42738.0875
1643.82246	46217.0875
1647.11321	49125.2875
1650.40179	50046.1875
1653.68819	47726.3875
1656.97241	42448.8875
1660.25446	36957.7875
1663.53433	32930.0875
1666.81203	30415.6875
1670.08756	28862.2875
1673.36092	27895.0875
1676.63211	27229.1875
1679.90115	26784.8875
1683.16801	26452.6875
1686.43272	26159.3875
1689.69527	26019.1875
1692.95567	25903.2875
1696.2139	25795.0875
1699.46999	25749.1875
1702.72392	25698.8875
1705.97571	25695.2875
1709.22535	25652.2875
1712.47284	25612.6875
1715.71819	25646.4875
1718.96139	25622.8875
1722.20246	25490.1875
1725.44139	25421.0875
1728.67818	25311.2875
1731.91284	25159.3875
1735.14537	25076.0875
1738.37576	24948.7875
1741.60403	24857.1875
1744.83017	24833.8875
1748.05418	24777.6875
1751.27607	24678.0875
1754.49584	24662.3875
1757.71349	24677.1875
1760.92903	24602.6875
1764.14244	24597.9875
1767.35375	24626.6875
1770.56294	24564.2875
1773.77002	24477.3875
1776.97499	24501.2875
1780.17785	24504.8875
1783.37861	24482.6875
1786.57727	24450.0875
1789.77382	24417.1875
1792.96828	24410.3875
1796.16064	24416.3875
1799.3509	24391.6875
1802.53907	24317.5875
1805.72514	24304.1875
1808.90913	24187.0875
1812.09102	24167.7875
1815.27083	24121.7875
1818.44856	24120.6875
1821.6242	24081.0875
1824.79776	24029.2875
1827.96924	24046.4875
1831.13864	24037.5875
1834.30597	24021.8875
1837.47122	24015.9875
1840.6344	24056.5875
1843.7955	24056.7875
1846.95454	24088.0875
1850.11151	24086.5875
1853.26642	24095.8875
1856.41926	24099.9875
1859.57004	24105.5875
1862.71876	24128.4875
1865.86542	24088.9875
1869.01003	24123.0875
1872.15258	24114.0875
1875.29308	24176.9875
1878.43152	24203.3875
1881.56792	24188.1875
1884.70227	24200.3875
1887.83457	24211.9875
1890.96482	24219.0875
1894.09304	24202.5875
1897.21921	24213.1875
1900.34335	24200.2875
1903.46544	24175.6875
1906.58551	24177.1875
1909.70353	24190.9875
1912.81953	24190.2875
1915.93349	24108.4875
1919.04543	24100.5875
1922.15534	24022.4875
1925.26322	23925.2875
1928.36908	23909.1875
1931.47292	23807.5875
1934.57473	23695.4875
1937.67453	23693.3875
1940.77232	23578.4875
1943.86808	23479.7875
1946.96184	23387.2875
1950.05358	23310.0875
1953.14331	23215.5875
1956.23103	23153.5875
1959.31675	23072.1875
1962.40046	22989.8875
1965.48217	22893.8875
1968.56188	22851.9875
1971.63959	22791.6875
1974.7153	22706.8875
1977.78901	22645.4875
1980.86073	22581.6875
1983.93046	22510.3875
1986.99819	22416.6875
1990.06394	22348.4875
1993.1277	22284.6875
1996.18947	22213.4875
1999.24925	22157.7875
2002.30706	22092.3875
2005.36288	22058.1875
2008.41672	22020.8875
2011.46859	21969.4875
2014.51848	21859.2875
2017.56639	21812.0875
2020.61233	21831.2875
2023.6563	21759.5875
2026.6983	21724.6875
2029.73833	21689.0875
2032.7764	21636.1875
2035.8125	21637.6875
2038.84664	21592.5875
2041.87881	21595.6875
2044.90903	21543.0875
2047.93729	21513.3875
2050.96359	21522.4875
2053.98794	21472.0875
2057.01034	21415.7875
2060.03078	21443.3875
2063.04927	21387.0875
2066.06582	21353.4875
2069.08042	21365.0875
2072.09307	21365.9875
2075.10378	21293.8875
2078.11255	21291.2875
2081.11938	21292.8875
2084.12426	21256.9875
2087.12722	21251.3875
2090.12824	21266.1875
2093.12732	21279.0875
2096.12447	21242.4875
2099.11969	21242.9875
2102.11299	21269.3875
2105.10435	21273.5875
2108.09379	21271.1875
2111.08131	21285.2875
2114.0669	21296.7875
2117.05057	21317.0875
2120.03233	21303.6875
2123.01216	21356.9875
2125.99008	21363.5875
2128.96609	21371.6875
2131.94018	21384.5875
2134.91236	21377.5875
2137.88263	21397.8875
2140.851	21431.3875
2143.81746	21469.1875
2146.78201	21460.9875
2149.74466	21472.3875
2152.7054	21511.5875
2155.66425	21464.6875
2158.6212	21467.4875
2161.57625	21459.3875
2164.52941	21457.4875
2167.48067	21456.1875
2170.43004	21423.2875
2173.37752	21434.9875
2176.32311	21457.0875
2179.26681	21411.5875
2182.20863	21454.6875
2185.14856	21509.9875
2188.08661	21484.6875
2191.02278	21443.9875
2193.95707	21475.2875
2196.88948	21480.2875
2199.82001	21488.4875
2202.74867	21460.1875
2205.67545	21490.6875
2208.60037	21499.0875
2211.52341	21440.4875
2214.44458	21419.9875
2217.36388	21405.6875
2220.28132	21410.2875
2223.1969	21329.0875
2226.11061	21323.3875
2229.02246	21282.2875
2231.93245	21240.0875
2234.84058	21214.3875
2237.74686	21202.6875
2240.65128	21166.5875
2243.55385	21127.8875
2246.45456	21099.9875
2249.35343	21075.0875
2252.25044	21073.4875
2255.14561	21032.2875
2258.03893	20993.0875
2260.93041	20947.2875
2263.82004	20903.9875
2266.70783	20907.1875
2269.59378	20842.4875
2272.4779	20767.1875
2275.36017	20741.6875
2278.24061	20716.4875
2281.11922	20709.4875
2283.996	20663.0875
2286.87094	20647.1875
2289.74405	20595.0875
2292.61534	20615.2875
2295.4848	20577.8875
2298.35243	20596.5875
2301.21824	20583.0875
2304.08223	20609.2875
2306.94439	20650.4875
2309.80474	20635.5875
2312.66327	20667.5875
2315.51999	20657.6875
2318.37489	20643.8875
2321.22797	20651.7875
2324.07925	20645.9875
2326.92871	20636.7875
2329.77637	20625.3875
2332.62222	20569.9875
2335.46626	20618.8875
2338.3085	20590.4875
2341.14893	20625.3875
2343.98756	20631.7875
2346.8244	20622.7875
2349.65943	20642.4875
2352.49267	20625.3875
2355.32411	20631.0875
2358.15376	20619.2875
2360.98161	20557.0875
2363.80768	20536.3875
2366.63195	20503.2875
2369.45444	20494.0875
2372.27514	20445.6875
2375.09405	20416.3875
2377.91118	20380.8875
2380.72652	20335.5875
2383.54009	20260.1875
2386.35187	20208.3875
2389.16188	20179.9875
2391.97011	20162.2875
2394.77657	20160.1875
2397.58125	20107.3875
2400.38416	20038.9875
2403.18529	20033.7875
2405.98466	20018.2875
2408.78226	19973.7875
2411.57809	19908.9875
2414.37216	19902.2875
2417.16446	19854.6875
2419.955	19820.4875
2422.74378	19827.7875
2425.5308	19780.6875
2428.31606	19773.7875
2431.09956	19744.3875
2433.88131	19728.2875
2436.6613	19763.2875
2439.43954	19719.9875
2442.21603	19715.7875
2444.99077	19692.5875
2447.76377	19695.9875
2450.53501	19729.9875
2453.30451	19711.6875
2456.07226	19696.1875
2458.83827	19724.9875
2461.60254	19694.7875
2464.36507	19687.2875
2467.12586	19654.2875
2469.88492	19715.4875
2472.64224	19682.4875
2475.39782	19685.2875
2478.15167	19712.5875
2480.90379	19732.4875
2483.65417	19737.6875
2486.40283	19733.5875
2489.14976	19738.1875
2491.89497	19727.9875
2494.63845	19763.7875
2497.3802	19793.2875
2500.12024	19771.7875
2502.85855	19756.6875
2505.59514	19707.8875
2508.33002	19709.8875
2511.06318	19654.9875
2513.79462	19630.2875
2516.52435	19638.7875
2519.25237	19636.1875
2521.97867	19627.7875
2524.70327	19571.6875
2527.42616	19543.2875
2530.14734	19553.5875
2532.86681	19537.5875
2535.58458	19530.2875
2538.30065	19529.7875
2541.01501	19497.0875
2543.72768	19487.2875
2546.43864	19473.7875
2549.14791	19459.7875
2551.85548	19451.3875
2554.56136	19442.6875
2557.26554	19423.0875
2559.96803	19394.6875
2562.66883	19411.7875
2565.36794	19389.1875
2568.06536	19394.9875
2570.7611	19349.3875
2573.45514	19341.1875
2576.14751	19319.0875
2578.83819	19333.5875
2581.52719	19285.1875
2584.21451	19327.6875
2586.90015	19326.4875
2589.58411	19283.0875
2592.2664	19283.2875
2594.94701	19266.1875
2597.62594	19257.7875
2600.30321	19215.1875
2602.9788	19220.3875
2605.65273	19214.5875
2608.32498	19252.5875
2610.99557	19208.4875
2613.66449	19205.6875
2616.33175	19196.5875
2618.99734	19231.7875
2621.66128	19207.0875
2624.32355	19183.7875
2626.98416	19200.9875
2629.64311	19212.5875
2632.30041	19236.1875
2634.95605	19223.7875
2637.61004	19222.6875
2640.26238	19132.7875
2642.91306	19123.3875
2645.56209	19120.7875
2648.20948	19043.6875
2650.85521	19049.5875
2653.4993	19066.5875
2656.14175	19043.2875
2658.78255	19056.8875
2661.42171	19012.4875
2664.05923	19051.9875
2666.6951	19090.2875
2669.32934	19102.4875
2671.96194	19115.8875
2674.59291	19099.5875
2677.22224	19122.8875
2679.84993	19137.9875
2682.476	19104.8875
2685.10043	19093.3875
2687.72324	19042.8875
2690.34441	19051.6875
2692.96396	19050.1875
2695.58188	19033.4875
2698.19818	19019.6875
2700.81285	19022.7875
2703.4259	19002.2875
2706.03733	19000.0875
2708.64714	19034.0875
2711.25533	19027.4875
2713.86191	19014.4875
2716.46687	19055.9875
2719.07021	19045.8875
2721.67194	19045.4875
2724.27206	19018.7875
2726.87057	19018.6875
2729.46747	19073.4875
2732.06276	19036.6875
2734.65644	19032.9875
2737.24852	19084.3875
2739.83899	19028.4875
2742.42786	19053.6875
2745.01513	19000.0875
2747.60079	19045.0875
2750.18486	19017.9875
2752.76733	19039.6875
2755.3482	19027.8875
2757.92747	19037.7875
2760.50515	19013.3875
2763.08123	19036.2875
2765.65573	19006.0875
2768.22863	19019.1875
2770.79994	18980.7875
2773.36967	18992.5875
2775.9378	18956.5875
2778.50435	18959.3875
2781.06932	18935.3875
2783.6327	18946.3875
2786.1945	18930.6875
2788.75471	18941.7875
2791.31335	18875.7875
2793.87041	18848.4875
2796.42589	18778.3875
2798.97979	18782.2875
2801.53212	18734.1875
2804.08288	18711.0875
2806.63206	18664.1875
2809.17967	18676.7875
2811.72571	18616.4875
2814.27018	18641.6875
2816.81308	18637.7875
2819.35442	18636.4875
2821.89419	18546.6875
2824.43239	18584.7875
2826.96904	18581.0875
2829.50412	18552.2875
2832.03763	18519.7875
2834.56959	18531.4875
2837.1	18502.2875
2839.62884	18517.6875
2842.15613	18553.6875
2844.68186	18566.8875
2847.20604	18575.2875
2849.72867	18579.0875
2852.24974	18550.1875
2854.76927	18555.6875
2857.28724	18517.4875
2859.80367	18520.5875
2862.31855	18498.1875
2864.83189	18514.7875
2867.34368	18497.2875
2869.85393	18499.1875
2872.36264	18510.2875
2874.8698	18513.4875
2877.37543	18542.1875
2879.87952	18529.3875
2882.38207	18530.8875
2884.88308	18542.5875
2887.38256	18535.6875
2889.88051	18561.2875
2892.37692	18573.7875
2894.8718	18581.3875
2897.36515	18613.2875
2899.85698	18589.6875
2902.34727	18611.7875
2904.83604	18638.9875
2907.32328	18684.0875
2909.809	18650.5875
2912.29319	18679.3875
2914.77587	18662.1875
2917.25702	18652.2875
2919.73665	18618.8875
2922.21476	18591.4875
2924.69136	18591.3875
2927.16644	18583.5875
2929.64	18585.1875
2932.11205	18529.3875
2934.58258	18481.8875
2937.05161	18521.3875
2939.51912	18457.1875
2941.98513	18452.4875
2944.44962	18410.2875
2946.91261	18338.7875
2949.37409	18343.9875
2951.83407	18283.8875
2954.29254	18293.5875
2956.74951	18288.1875
2959.20498	18257.3875
2961.65895	18235.2875
2964.11142	18225.0875
2966.56239	18115.3875
2969.01186	18117.7875
2971.45984	18049.7875
2973.90632	18020.6875
2976.35131	17971.6875
2978.7948	17952.2875
2981.23681	17922.8875
2983.67732	17882.8875
2986.11635	17807.6875
2988.55388	17784.8875
2990.98993	17723.4875
2993.4245	17691.7875
2995.85758	17629.5875
2998.28917	17654.0875
3000.71928	17623.1875
3003.14791	17618.2875
3005.57506	17542.4875
3008.00073	17506.4875
3010.42493	17490.8875
3012.84764	17472.0875
3015.26888	17472.2875
3017.68865	17427.3875
3020.10694	17387.0875
3022.52376	17332.9875
3024.9391	17365.1875
3027.35298	17322.3875
3029.76539	17274.7875
3032.17632	17278.6875
3034.5858	17231.2875
3036.9938	17201.2875
3039.40034	17177.1875
3041.80542	17181.7875
3044.20903	17178.1875
3046.61118	17097.5875
3049.01187	17088.0875
3051.4111	17069.6875
3053.80888	17030.9875
3056.20519	16992.8875
3058.60005	16932.9875
3060.99345	16931.6875
3063.3854	16879.5875
3065.7759	16823.7875
3068.16494	16811.5875
3070.55254	16744.6875
3072.93868	16745.4875
3075.32338	16694.7875
3077.70662	16709.6875
3080.08842	16639.1875
3082.46878	16632.0875
3084.84769	16561.5875
3087.22515	16601.9875
3089.60118	16567.2875
3091.97576	16574.3875
3094.3489	16578.6875
3096.72061	16562.5875
3099.09087	16525.4875
3101.4597	16515.2875
3103.82709	16494.9875
3106.19305	16478.4875
3108.55757	16487.2875
3110.92066	16427.4875
3113.28232	16412.2875
3115.64255	16359.4875
3118.00134	16317.3875
3120.35871	16319.1875
3122.71466	16284.6875
3125.06917	16254.2875
3127.42226	16245.7875
3129.77393	16269.4875
3132.12417	16223.5875
3134.47299	16211.2875
3136.82039	16223.3875
3139.16636	16221.3875
3141.51092	16197.3875
3143.85406	16213.6875
3146.19579	16206.9875
3148.53609	16201.7875
3150.87499	16208.1875
3153.21246	16195.3875
3155.54853	16246.5875
3157.88318	16230.1875
3160.21642	16230.0875
3162.54826	16215.4875
3164.87868	16217.7875
3167.2077	16192.7875
3169.5353	16178.1875
3171.86151	16111.9875
3174.18631	16159.3875
3176.5097	16134.4875
3178.83169	16087.6875
3181.15228	16107.4875
3183.47147	16061.4875
3185.78926	16052.0875
3188.10565	16063.5875
3190.42065	16078.5875
3192.73424	16088.8875
3195.04645	16060.5875
3197.35725	16076.7875
3199.66667	16061.5875
3201.97469	16074.7875
3204.28132	16111.8875
3206.58656	16073.4875
3208.8904	16056.0875
3211.19287	16097.4875
3213.49394	16070.1875
3215.79363	16071.7875
3218.09193	16070.0875
3220.38884	16039.0875
3222.68438	16070.5875
3224.97853	16048.7875
3227.2713	16023.1875
3229.56269	16022.7875
3231.8527	16015.6875
3234.14133	15983.6875
3236.42858	15950.7875
3238.71446	15954.4875
3240.99896	15944.5875
3243.28209	15928.9875
3245.56384	15918.6875
3247.84423	15945.4875
3250.12324	15920.0875
3252.40088	15894.0875
3254.67715	15901.3875
3256.95205	15863.8875
3259.22558	15868.9875
3261.49775	15829.0875
3263.76855	15792.0875
3266.03799	15781.3875
3268.30606	15767.7875
3270.57277	15746.4875
3272.83812	15725.4875
3275.10211	15713.7875
3277.36474	15695.6875
3279.62601	15723.6875
3281.88593	15700.6875
3284.14448	15661.4875
3286.40168	15650.7875
3288.65753	15665.8875
3290.91202	15622.2875
3293.16516	15584.9875
3295.41695	15546.7875
3297.66738	15470.2875
3299.91647	15381.8875
3302.16421	15309.3875
3304.4106	15253.7875
3306.65564	15168.9875
3308.89933	15072.2875
3311.14169	15004.3875
3313.38269	14906.0875
3315.62236	14808.4875
3317.86068	14710.4875
3320.09766	14564.2875
3322.3333	14397.0875
3324.5676	14422.7875
3326.80056	14163.3875
3329.03219	14099.9875
3331.26248	3.3875
3333.49143	1.7875
3335.71905	-0.0125
