Data from AgNPs_FTO_APTES_UA_0uM_R6G_10uM_NaF_0.1M_Addition_RamanShift__45__10-48-47-134.txt Node

Date: Fri Dec 17 10:48:47 GMT 2021
User: TCL
Spectrometer: QEP01345
Trigger mode: 4
Integration Time (sec): 7.000000E0
Scans to average: 10
Electric dark correction enabled: true
Nonlinearity correction enabled: false
Boxcar width: 0
XAxis mode: Raman Shifts
Number of Pixels in Spectrum: 1044
>>>>>Begin Spectral Data<<<<<
46.04893	-0.1
50.45542	-0.2
54.85868	-1.3
59.25871	-0.6
63.6555	88.1
68.04907	89.6
72.43941	96.6
76.82654	100
81.21044	99.7
85.59113	104.8
89.96862	107.9
94.34289	113.5
98.71396	115.3
103.08183	118.5
107.4465	124.1
111.80798	124.2
116.16626	129.2
120.52136	127.5
124.87327	144.3
129.222	148.2
133.56755	156.3
137.90993	172.6
142.24913	189.3
146.58517	207.9
150.91804	245.1
155.24774	290.7
159.57429	367.9
163.89768	464.2
168.21792	618.9
172.53501	846.6
176.84895	1163.1
181.15975	1630.9
185.46741	2292.5
189.77193	3177.3
194.07331	4241.9
198.37157	5488.4
202.6667	6750.2
206.9587	8023.2
211.24758	9284.5
215.53334	10540.6
219.81599	11909.6
224.09553	13453.7
228.37195	15137.9
232.64527	17005.4
236.91549	18922.2
241.18261	20789.1
245.44663	22484.3
249.70755	23952.5
253.96539	25239.8
258.22014	26376.6
262.4718	27338
266.72039	27985.4
270.96589	28397.4
275.20832	28441.2
279.44768	28220.9
283.68397	27918.7
287.91719	27650.3
292.14735	27479.7
296.37445	27561.1
300.59849	27889
304.81948	28284.5
309.03742	28577.9
313.25231	28434.3
317.46415	27731.9
321.67296	26697.9
325.87872	25798.3
330.08145	25407.1
334.28114	25403.5
338.47781	25672.1
342.67145	26093.7
346.86207	26729.4
351.04966	27598.2
355.23424	28578.4
359.4158	29343.6
363.59435	29867.4
367.76989	30181.4
371.94243	30313.5
376.11196	30360.7
380.27849	30415.7
384.44203	30500.1
388.60257	30555.7
392.76012	30680.4
396.91468	31002.9
401.06626	31575.6
405.21485	32100.6
409.36047	31984.5
413.50311	31358
417.64277	30795.9
421.77947	30570.8
425.9132	30529.4
430.04396	30687.5
434.17176	30910.3
438.2966	31287.6
442.41849	31979.8
446.53742	32865.6
450.6534	33890.5
454.76644	34715.2
458.87653	35027.4
462.98368	34782.9
467.08789	34196.1
471.18916	33439.3
475.2875	32686
479.38291	32146
483.4754	31802.8
487.56496	31424.8
491.6516	31049.1
495.73531	30784
499.81612	30702.1
503.89401	30764.7
507.96899	30884.7
512.04106	30926.9
516.11023	31024.8
520.1765	31102.6
524.23987	30982.7
528.30034	30776.4
532.35792	30408.9
536.41261	29967.4
540.46441	29504
544.51333	29395.5
548.55936	29647.6
552.60252	30186.7
556.64279	30706.6
560.6802	31059.1
564.71473	31373.5
568.7464	31974.9
572.7752	32649.9
576.80114	32703.6
580.82422	32740.2
584.84444	33007.4
588.86181	33448.6
592.87633	34156.2
596.888	34814
600.89682	35398.7
604.9028	37303.4
608.90594	42098.5
612.90624	47398.2
616.90371	45052.1
620.89834	36578.3
624.89015	32707.8
628.87913	32063.5
632.86528	31879.8
636.84862	31483.1
640.82913	30873.9
644.80683	29996.6
648.78172	29411.6
652.75379	29345.3
656.72306	29962.5
660.68952	30730.2
664.65319	30626.9
668.61405	29862.5
672.57211	29528.1
676.52738	29494
680.47986	29528
684.42955	29369.9
688.37646	29341.2
692.32058	29532.4
696.26192	29780.4
700.20048	30129.2
704.13626	30373.3
708.06928	30152.2
711.99952	29876
715.927	29790.2
719.85171	29857.6
723.77365	29786.8
727.69284	29489.4
731.60928	29237.7
735.52295	29267.6
739.43388	29352.3
743.34206	29506.9
747.24749	29698.6
751.15017	29955
755.05012	30460.1
758.94733	31362.2
762.8418	33117.3
766.73354	36036.9
770.62254	39080.4
774.50882	40112.7
778.39237	38309.7
782.27321	35132.2
786.15132	32341.1
790.02671	30735.9
793.89938	30025.2
797.76935	29791.7
801.6366	29668.5
805.50115	29526.4
809.36299	29394.7
813.22213	29217.5
817.07857	29146.5
820.93231	29120.4
824.78336	29116.9
828.63172	29239.4
832.47738	29288.2
836.32036	29409.5
840.16066	29569.7
843.99827	29718.4
847.8332	29650.4
851.66546	29459.8
855.49504	29343.8
859.32195	29258.3
863.1462	29104.9
866.96777	28954.8
870.78668	28898.3
874.60293	28825.2
878.41652	28909.6
882.22745	29026.6
886.03573	29086.1
889.84136	29061.7
893.64433	28923.1
897.44466	28829.9
901.24235	28729
905.0374	28699.3
908.8298	28693.7
912.61957	28723.3
916.40671	28940.5
920.19121	29312.4
923.97308	29843.3
927.75233	30211.2
931.52895	30277.7
935.30295	29980.1
939.07433	29293.9
942.84309	28792.2
946.60924	28592.6
950.37278	28460.2
954.13371	28217.4
957.89203	27995.9
961.64774	27869.9
965.40086	27735.5
969.15137	27600.4
972.89929	27536.9
976.64461	27559.8
980.38733	27623.8
984.12747	27815.4
987.86502	28203.1
991.59999	28727.7
995.33237	29465.8
999.06217	30642.8
1002.78939	32046.4
1006.51404	32789.4
1010.23611	33051.8
1013.95561	33235.4
1017.67255	33136.8
1021.38692	32717.9
1025.09872	32582.8
1028.80796	33272.6
1032.51465	34839.3
1036.21877	36181.7
1039.92035	36348.8
1043.61937	35439.7
1047.31584	34023.7
1051.00976	32433
1054.70114	31458.9
1058.38998	31034.8
1062.07627	30956.1
1065.76003	30975.5
1069.44126	31065
1073.11995	31387.1
1076.79611	31686.2
1080.46974	31977.8
1084.14085	32363.1
1087.80943	32742.2
1091.47549	32949.6
1095.13903	32639
1098.80005	31980.7
1102.45857	31354.8
1106.11456	31065.8
1109.76805	31139.7
1113.41903	31429.8
1117.06751	31803
1120.71348	32258.3
1124.35696	32706.7
1127.99793	33118.6
1131.63641	33277.7
1135.2724	32805
1138.90589	32210.3
1142.5369	31815.7
1146.16542	31596
1149.79145	31545.7
1153.415	31605
1157.03607	31879.2
1160.65467	32475.7
1164.27079	33525
1167.88443	35111.7
1171.49561	37376
1175.10432	40659.8
1178.71056	44873.8
1182.31434	48594.6
1185.91565	50539.2
1189.51451	50260.3
1193.11091	48078.4
1196.70485	45073
1200.29634	42668.9
1203.88538	40948.4
1207.47197	39549.8
1211.05612	38457.2
1214.63782	37916.9
1218.21708	37920
1221.79391	38176.1
1225.36829	38405.5
1228.94024	38112.3
1232.50976	37430.1
1236.07685	36819.5
1239.6415	36567.4
1243.20374	36512.1
1246.76355	36764.5
1250.32093	37309.9
1253.8759	38256
1257.42845	39436.1
1260.97859	40572.6
1264.52631	41483.6
1268.07163	42483.7
1271.61453	43684.5
1275.15503	45133.9
1278.69312	46501.3
1282.22882	47611
1285.76211	48529.6
1289.29301	49465.4
1292.82151	50695
1296.34761	52256
1299.87133	54670.2
1303.39266	58093.1
1306.9116	62558.8
1310.42815	67419.9
1313.94233	70518.6
1317.45412	70319.1
1320.96354	67907.7
1324.47058	64790.2
1327.97525	61950.1
1331.47754	60022.9
1334.97747	59274.6
1338.47502	59286.7
1341.97022	59440.2
1345.46305	59185.1
1348.95352	58933.5
1352.44163	59412.9
1355.92738	61527.5
1359.41078	66006.3
1362.89183	70671.2
1366.37053	70106.3
1369.84688	63286.3
1373.32088	55334.3
1376.79254	49834.7
1380.26186	47234.8
1383.72883	46219.7
1387.19347	45586.5
1390.65578	44830.3
1394.11575	44411.1
1397.57339	44746.1
1401.0287	45659
1404.48168	46642.9
1407.93234	47472.6
1411.38068	47944.6
1414.82669	47615.4
1418.27039	46361.4
1421.71177	44782.2
1425.15083	43324.4
1428.58758	42451.3
1432.02203	42421.7
1435.45416	42867.8
1438.88399	43562.3
1442.31151	44100.1
1445.73673	44575.5
1449.15965	44991.4
1452.58027	45128.9
1455.9986	44968.6
1459.41463	44936.1
1462.82837	45326.5
1466.23982	46186
1469.64898	47174.3
1473.05586	47805
1476.46045	48123.7
1479.86276	48469.3
1483.26279	48648.9
1486.66054	48870.3
1490.05602	49426.5
1493.44922	50136.6
1496.84016	50804
1500.22882	51696.6
1503.61521	53411.4
1506.99934	55751.2
1510.38121	58345.8
1513.76081	59854.6
1517.13816	58729
1520.51324	55458.2
1523.88607	51845.2
1527.25665	49231.8
1530.62498	47822.4
1533.99105	46902
1537.35488	46325.6
1540.71647	45911.2
1544.07581	45480.6
1547.4329	44956.2
1550.78776	44415.2
1554.14038	43997.9
1557.49077	43840.6
1560.83892	43819
1564.18484	43850.4
1567.52853	43963.5
1570.86999	44086.5
1574.20922	44395.9
1577.54624	44595.6
1580.88103	44244.1
1584.2136	44000
1587.54395	44879.9
1590.87208	47202
1594.19801	50767.2
1597.52172	54534.2
1600.84321	56202.8
1604.16251	54149.9
1607.47959	49830.4
1610.79447	45192.5
1614.10715	41082.9
1617.41763	38042.1
1620.7259	36139.2
1624.03199	35334.7
1627.33587	35504.5
1630.63757	36530.8
1633.93707	38512.5
1637.23439	41458.9
1640.52951	45120.1
1643.82246	49281.7
1647.11321	52664.7
1650.40179	53686.1
1653.68819	50881.9
1656.97241	44955.7
1660.25446	38978
1663.53433	34517
1666.81203	31716.7
1670.08756	30056.5
1673.36092	28987.4
1676.63211	28289.3
1679.90115	27844.1
1683.16801	27450.3
1686.43272	27202.7
1689.69527	26981.8
1692.95567	26856.9
1696.2139	26771.9
1699.46999	26711.1
1702.72392	26662
1705.97571	26664
1709.22535	26628.6
1712.47284	26620.5
1715.71819	26606.6
1718.96139	26514.8
1722.20246	26529.4
1725.44139	26407.8
1728.67818	26271.4
1731.91284	26146.3
1735.14537	25997.2
1738.37576	25902.8
1741.60403	25805.1
1744.83017	25723.5
1748.05418	25694.4
1751.27607	25653.2
1754.49584	25603.7
1757.71349	25603.9
1760.92903	25602.2
1764.14244	25588.4
1767.35375	25575
1770.56294	25550.7
1773.77002	25509.3
1776.97499	25448.3
1780.17785	25403.3
1783.37861	25431.4
1786.57727	25409.6
1789.77382	25364.2
1792.96828	25349.9
1796.16064	25299.7
1799.3509	25290.8
1802.53907	25256.8
1805.72514	25217
1808.90913	25125
1812.09102	25063.8
1815.27083	25013.1
1818.44856	25033.6
1821.6242	24954.8
1824.79776	24947.1
1827.96924	24912.2
1831.13864	24904.9
1834.30597	24887.3
1837.47122	24878.9
1840.6344	24885.5
1843.7955	24892.1
1846.95454	24921.2
1850.11151	24907.1
1853.26642	24871
1856.41926	24857.4
1859.57004	24894.4
1862.71876	24866.2
1865.86542	24896.9
1869.01003	24913.5
1872.15258	24897
1875.29308	24953.2
1878.43152	24953.5
1881.56792	24955.3
1884.70227	24919.3
1887.83457	24904.5
1890.96482	24948.8
1894.09304	24865.4
1897.21921	24897.2
1900.34335	24853.9
1903.46544	24885.5
1906.58551	24946
1909.70353	24935
1912.81953	24922.1
1915.93349	24888.6
1919.04543	24837.8
1922.15534	24776.2
1925.26322	24728.4
1928.36908	24701.2
1931.47292	24614.3
1934.57473	24545.6
1937.67453	24466.8
1940.77232	24385.7
1943.86808	24313.3
1946.96184	24220.9
1950.05358	24139.8
1953.14331	24068
1956.23103	23968.1
1959.31675	23945
1962.40046	23836
1965.48217	23775.4
1968.56188	23742.2
1971.63959	23692.2
1974.7153	23583.2
1977.78901	23503.1
1980.86073	23418.4
1983.93046	23363
1986.99819	23277.9
1990.06394	23197.1
1993.1277	23151
1996.18947	23057.8
1999.24925	23040.8
2002.30706	22919
2005.36288	22831.4
2008.41672	22811.9
2011.46859	22749.5
2014.51848	22698.7
2017.56639	22674.6
2020.61233	22620.9
2023.6563	22560.7
2026.6983	22535.1
2029.73833	22518.5
2032.7764	22491.8
2035.8125	22470.8
2038.84664	22442.2
2041.87881	22446.7
2044.90903	22401.9
2047.93729	22332.2
2050.96359	22341.7
2053.98794	22279.4
2057.01034	22292.2
2060.03078	22248
2063.04927	22202.4
2066.06582	22187.8
2069.08042	22179.6
2072.09307	22146.8
2075.10378	22107.4
2078.11255	22069.6
2081.11938	22100.2
2084.12426	22051.4
2087.12722	22042.7
2090.12824	22024.6
2093.12732	22043.2
2096.12447	22024.5
2099.11969	22005.3
2102.11299	22027.2
2105.10435	22051
2108.09379	22072.9
2111.08131	22071.3
2114.0669	22117.4
2117.05057	22089.3
2120.03233	22101.2
2123.01216	22090.4
2125.99008	22093.5
2128.96609	22159.6
2131.94018	22151.3
2134.91236	22179.3
2137.88263	22167.9
2140.851	22214.7
2143.81746	22235.1
2146.78201	22231.1
2149.74466	22248.9
2152.7054	22257.5
2155.66425	22212.5
2158.6212	22261.8
2161.57625	22218.3
2164.52941	22230.4
2167.48067	22203.1
2170.43004	22206.6
2173.37752	22201.1
2176.32311	22197.8
2179.26681	22234.5
2182.20863	22231.6
2185.14856	22255.2
2188.08661	22268.7
2191.02278	22239.3
2193.95707	22263.5
2196.88948	22269.7
2199.82001	22255.7
2202.74867	22277.4
2205.67545	22273.1
2208.60037	22259
2211.52341	22264.6
2214.44458	22223.8
2217.36388	22223.2
2220.28132	22207.4
2223.1969	22139.5
2226.11061	22103
2229.02246	22108.2
2231.93245	22013.3
2234.84058	21971.8
2237.74686	21953.5
2240.65128	21902.9
2243.55385	21885.7
2246.45456	21872.7
2249.35343	21839.7
2252.25044	21809
2255.14561	21750.7
2258.03893	21769.4
2260.93041	21722
2263.82004	21640.8
2266.70783	21629.2
2269.59378	21529.3
2272.4779	21506.8
2275.36017	21456.8
2278.24061	21449.2
2281.11922	21401.9
2283.996	21386
2286.87094	21359.5
2289.74405	21356.7
2292.61534	21357.7
2295.4848	21314.1
2298.35243	21310.5
2301.21824	21349.7
2304.08223	21361.9
2306.94439	21395.7
2309.80474	21398.3
2312.66327	21397.7
2315.51999	21469.3
2318.37489	21445.6
2321.22797	21436.4
2324.07925	21404.5
2326.92871	21368.5
2329.77637	21400.2
2332.62222	21367.1
2335.46626	21374.3
2338.3085	21400.2
2341.14893	21386.8
2343.98756	21424.5
2346.8244	21433.6
2349.65943	21452
2352.49267	21395.7
2355.32411	21391.8
2358.15376	21379.2
2360.98161	21332.6
2363.80768	21279.8
2366.63195	21274.5
2369.45444	21204.1
2372.27514	21152
2375.09405	21125.5
2377.91118	21082.1
2380.72652	21044.4
2383.54009	20982.3
2386.35187	20978.2
2389.16188	20921.9
2391.97011	20885.2
2394.77657	20879.3
2397.58125	20839.1
2400.38416	20790.6
2403.18529	20739.3
2405.98466	20735.8
2408.78226	20660.2
2411.57809	20631.5
2414.37216	20552.5
2417.16446	20520
2419.955	20504.8
2422.74378	20480.2
2425.5308	20449.2
2428.31606	20424.3
2431.09956	20431.4
2433.88131	20403.4
2436.6613	20428.1
2439.43954	20392.3
2442.21603	20379
2444.99077	20367.4
2447.76377	20369.5
2450.53501	20353.6
2453.30451	20352.2
2456.07226	20360.3
2458.83827	20338.3
2461.60254	20323.6
2464.36507	20344
2467.12586	20341.5
2469.88492	20327.6
2472.64224	20322.7
2475.39782	20313.5
2478.15167	20352.8
2480.90379	20347.6
2483.65417	20387.8
2486.40283	20371.8
2489.14976	20387.2
2491.89497	20378.8
2494.63845	20442.5
2497.3802	20421
2500.12024	20424.6
2502.85855	20405.4
2505.59514	20402.4
2508.33002	20364.7
2511.06318	20331.4
2513.79462	20313.5
2516.52435	20282.7
2519.25237	20222
2521.97867	20243.7
2524.70327	20255
2527.42616	20198.5
2530.14734	20182.3
2532.86681	20158.1
2535.58458	20150.4
2538.30065	20172.4
2541.01501	20116.5
2543.72768	20108.5
2546.43864	20121.3
2549.14791	20090.5
2551.85548	20092.7
2554.56136	20078.3
2557.26554	20052.4
2559.96803	20023.5
2562.66883	20026.4
2565.36794	20033
2568.06536	20016.2
2570.7611	20020.2
2573.45514	19986.6
2576.14751	19971.9
2578.83819	19959.8
2581.52719	19974.9
2584.21451	20004.9
2586.90015	19956.1
2589.58411	19958.2
2592.2664	19947.2
2594.94701	19949.4
2597.62594	19931.7
2600.30321	19902.4
2602.9788	19905.3
2605.65273	19869.1
2608.32498	19888.1
2610.99557	19886.7
2613.66449	19890.3
2616.33175	19873.2
2618.99734	19874.6
2621.66128	19893.5
2624.32355	19862.5
2626.98416	19904.4
2629.64311	19902.1
2632.30041	19933.8
2634.95605	19930.4
2637.61004	19862.1
2640.26238	19841.3
2642.91306	19810.9
2645.56209	19761.1
2648.20948	19729.1
2650.85521	19695
2653.4993	19675.2
2656.14175	19681.5
2658.78255	19675.2
2661.42171	19725.8
2664.05923	19702.3
2666.6951	19691.1
2669.32934	19732
2671.96194	19729.3
2674.59291	19770.4
2677.22224	19759.9
2679.84993	19779.2
2682.476	19711.1
2685.10043	19707.9
2687.72324	19688.1
2690.34441	19668.7
2692.96396	19654.4
2695.58188	19621.6
2698.19818	19590.8
2700.81285	19655.6
2703.4259	19615.8
2706.03733	19644.4
2708.64714	19623.7
2711.25533	19620.4
2713.86191	19622.8
2716.46687	19634.4
2719.07021	19613.3
2721.67194	19633.3
2724.27206	19602.8
2726.87057	19611.5
2729.46747	19635.7
2732.06276	19637.2
2734.65644	19592.7
2737.24852	19611.6
2739.83899	19598.4
2742.42786	19656.6
2745.01513	19626
2747.60079	19622
2750.18486	19598.4
2752.76733	19613.9
2755.3482	19601.5
2757.92747	19556.4
2760.50515	19581.6
2763.08123	19594.5
2765.65573	19570.2
2768.22863	19564.2
2770.79994	19573.4
2773.36967	19578.8
2775.9378	19546.6
2778.50435	19544.9
2781.06932	19512.8
2783.6327	19500.5
2786.1945	19536.2
2788.75471	19484.6
2791.31335	19435.4
2793.87041	19424.8
2796.42589	19356
2798.97979	19373.4
2801.53212	19297.3
2804.08288	19312.7
2806.63206	19262.3
2809.17967	19228.7
2811.72571	19211.7
2814.27018	19194.6
2816.81308	19198
2819.35442	19205.6
2821.89419	19160.7
2824.43239	19150.6
2826.96904	19126.4
2829.50412	19088.4
2832.03763	19079.1
2834.56959	19093.8
2837.1	19063.4
2839.62884	19043.8
2842.15613	19071.1
2844.68186	19082.4
2847.20604	19073.1
2849.72867	19092.4
2852.24974	19067.5
2854.76927	19085.7
2857.28724	19057.8
2859.80367	19037.3
2862.31855	19004.9
2864.83189	19015
2867.34368	18980.5
2869.85393	18955
2872.36264	19007
2874.8698	18991.2
2877.37543	18940.5
2879.87952	19010.6
2882.38207	18991.4
2884.88308	18993.3
2887.38256	19004.1
2889.88051	19001.7
2892.37692	18971.4
2894.8718	19009.7
2897.36515	19018
2899.85698	18985.3
2902.34727	19040.2
2904.83604	19019.7
2907.32328	19072.7
2909.809	19077.9
2912.29319	19068.1
2914.77587	19057.3
2917.25702	19068.7
2919.73665	19064.2
2922.21476	19030.1
2924.69136	19023.6
2927.16644	18998.5
2929.64	18930.1
2932.11205	18961.9
2934.58258	18906.9
2937.05161	18895.7
2939.51912	18898.3
2941.98513	18881.5
2944.44962	18820.6
2946.91261	18780.3
2949.37409	18802.4
2951.83407	18766.2
2954.29254	18746.1
2956.74951	18716.6
2959.20498	18729
2961.65895	18675.1
2964.11142	18687.4
2966.56239	18580.2
2969.01186	18594.3
2971.45984	18586.1
2973.90632	18504.7
2976.35131	18457.8
2978.7948	18405.6
2981.23681	18384.7
2983.67732	18315.5
2986.11635	18281
2988.55388	18237.9
2990.98993	18198.7
2993.4245	18146.3
2995.85758	18140.7
2998.28917	18097.1
3000.71928	18116.7
3003.14791	18045.7
3005.57506	18044.8
3008.00073	18003.1
3010.42493	17974.6
3012.84764	17923.2
3015.26888	17931.2
3017.68865	17887.5
3020.10694	17855.8
3022.52376	17814.5
3024.9391	17791.2
3027.35298	17743.3
3029.76539	17711.7
3032.17632	17671.3
3034.5858	17694.2
3036.9938	17652.9
3039.40034	17658.6
3041.80542	17637
3044.20903	17616
3046.61118	17606.1
3049.01187	17559.2
3051.4111	17543
3053.80888	17477.6
3056.20519	17445.9
3058.60005	17407.7
3060.99345	17385
3063.3854	17321.3
3065.7759	17261.7
3068.16494	17238.3
3070.55254	17173.2
3072.93868	17169.6
3075.32338	17090.8
3077.70662	17089.7
3080.08842	17066.3
3082.46878	17044.2
3084.84769	16979.6
3087.22515	17014.5
3089.60118	16996.3
3091.97576	16978.1
3094.3489	16959.1
3096.72061	16947.8
3099.09087	16932.9
3101.4597	16901.2
3103.82709	16889.2
3106.19305	16848.6
3108.55757	16857
3110.92066	16813.8
3113.28232	16802.4
3115.64255	16753.4
3118.00134	16715.3
3120.35871	16710.6
3122.71466	16664.4
3125.06917	16631.1
3127.42226	16616.8
3129.77393	16643.4
3132.12417	16611.1
3134.47299	16625.7
3136.82039	16582
3139.16636	16576.6
3141.51092	16573.4
3143.85406	16583.4
3146.19579	16561.7
3148.53609	16559.4
3150.87499	16582.9
3153.21246	16578.2
3155.54853	16599.7
3157.88318	16562.8
3160.21642	16582.2
3162.54826	16539.4
3164.87868	16534.8
3167.2077	16527
3169.5353	16499.6
3171.86151	16471.3
3174.18631	16479.6
3176.5097	16443
3178.83169	16399.9
3181.15228	16438.4
3183.47147	16410.4
3185.78926	16397.8
3188.10565	16414
3190.42065	16422.7
3192.73424	16425.6
3195.04645	16437.2
3197.35725	16427.3
3199.66667	16404
3201.97469	16421.4
3204.28132	16422.3
3206.58656	16423
3208.8904	16415.9
3211.19287	16420.7
3213.49394	16400.9
3215.79363	16357.5
3218.09193	16343.9
3220.38884	16363.7
3222.68438	16390.9
3224.97853	16359.5
3227.2713	16334.1
3229.56269	16334.8
3231.8527	16332.9
3234.14133	16324.6
3236.42858	16270.7
3238.71446	16270.4
3240.99896	16219.2
3243.28209	16242.8
3245.56384	16206.7
3247.84423	16222.5
3250.12324	16206
3252.40088	16177.2
3254.67715	16150.7
3256.95205	16121.4
3259.22558	16149.5
3261.49775	16081.7
3263.76855	16100.2
3266.03799	16093.3
3268.30606	16039.2
3270.57277	16048.3
3272.83812	16019.5
3275.10211	16002.5
3277.36474	15989.5
3279.62601	15994.4
3281.88593	15953.9
3284.14448	15956.9
3286.40168	15943.3
3288.65753	15915.6
3290.91202	15885.2
3293.16516	15859.1
3295.41695	15855.2
3297.66738	15754.6
3299.91647	15661.1
3302.16421	15589.6
3304.4106	15518
3306.65564	15452.9
3308.89933	15354
3311.14169	15270.7
3313.38269	15157.8
3315.62236	15084.4
3317.86068	14930.3
3320.09766	14823.1
3322.3333	14658.4
3324.5676	14676.1
3326.80056	14445.7
3329.03219	14366.9
3331.26248	4.3
3333.49143	0.2
3335.71905	-0.7
