Data from AgNPs_FTO_APTES_UA_1uM_R6G_10uM_NaF_0.1M_Addition_RamanShift__17__11-23-47-174.txt Node

Date: Fri Dec 17 11:23:47 GMT 2021
User: TCL
Spectrometer: QEP01345
Trigger mode: 4
Integration Time (sec): 7.000000E0
Scans to average: 10
Electric dark correction enabled: true
Nonlinearity correction enabled: false
Boxcar width: 0
XAxis mode: Raman Shifts
Number of Pixels in Spectrum: 1044
>>>>>Begin Spectral Data<<<<<
46.04893	-0.5125
50.45542	-1.1125
54.85868	-1.4125
59.25871	0.8875
63.6555	93.9875
68.04907	98.0875
72.43941	102.2875
76.82654	108.5875
81.21044	112.6875
85.59113	116.3875
89.96862	122.4875
94.34289	125.7875
98.71396	130.4875
103.08183	133.6875
107.4465	140.0875
111.80798	144.0875
116.16626	146.5875
120.52136	148.0875
124.87327	156.4875
129.222	160.7875
133.56755	169.7875
137.90993	180.7875
142.24913	198.6875
146.58517	212.6875
150.91804	240.2875
155.24774	289.5875
159.57429	356.6875
163.89768	446.3875
168.21792	578.4875
172.53501	782.3875
176.84895	1078.2875
181.15975	1510.5875
185.46741	2098.7875
189.77193	2879.1875
194.07331	3848.4875
198.37157	4961.2875
202.6667	6130.1875
206.9587	7293.9875
211.24758	8429.3875
215.53334	9598.0875
219.81599	10797.0875
224.09553	12201.5875
228.37195	13709.6875
232.64527	15377.7875
236.91549	17099.5875
241.18261	18837.6875
245.44663	20380.9875
249.70755	21767.4875
253.96539	22918.8875
258.22014	23863.3875
262.4718	24668.4875
266.72039	25260.8875
270.96589	25550.5875
275.20832	25552.8875
279.44768	25314.7875
283.68397	24966.8875
287.91719	24683.0875
292.14735	24442.0875
296.37445	24456.2875
300.59849	24571.5875
304.81948	24796.5875
309.03742	24916.6875
313.25231	24669.1875
317.46415	24077.7875
321.67296	23240.4875
325.87872	22558.6875
330.08145	22258.3875
334.28114	22213.8875
338.47781	22411.6875
342.67145	22788.0875
346.86207	23215.0875
351.04966	23836.2875
355.23424	24507.2875
359.4158	25113.1875
363.59435	25518.4875
367.76989	25767.3875
371.94243	25909.3875
376.11196	25965.5875
380.27849	26007.4875
384.44203	26059.0875
388.60257	26181.9875
392.76012	26352.4875
396.91468	26630.1875
401.06626	27020.9875
405.21485	27361.1875
409.36047	27161.0875
413.50311	26606.0875
417.64277	26054.5875
421.77947	25795.7875
425.9132	25785.6875
430.04396	25824.5875
434.17176	25907.8875
438.2966	26166.0875
442.41849	26486.5875
446.53742	27124.0875
450.6534	27723.4875
454.76644	28259.8875
458.87653	28526.4875
462.98368	28493.3875
467.08789	28234.1875
471.18916	27885.5875
475.2875	27505.4875
479.38291	27307.2875
483.4754	27121.6875
487.56496	26942.6875
491.6516	26707.3875
495.73531	26462.9875
499.81612	26353.7875
503.89401	26452.4875
507.96899	26559.6875
512.04106	26617.8875
516.11023	26679.4875
520.1765	26675.9875
524.23987	26551.1875
528.30034	26325.4875
532.35792	26007.1875
536.41261	25668.4875
540.46441	25261.4875
544.51333	25165.4875
548.55936	25362.2875
552.60252	25823.2875
556.64279	26258.6875
560.6802	26521.9875
564.71473	26718.3875
568.7464	27075.1875
572.7752	27579.4875
576.80114	27773.6875
580.82422	27917.1875
584.84444	28201.7875
588.86181	28402.7875
592.87633	28675.3875
596.888	28963.8875
600.89682	29457.9875
604.9028	31038.7875
608.90594	34797.6875
612.90624	38641.9875
616.90371	36643.5875
620.89834	30027.0875
624.89015	27051.6875
628.87913	26645.0875
632.86528	26639.3875
636.84862	26568.7875
640.82913	26214.2875
644.80683	25506.2875
648.78172	24926.1875
652.75379	24812.9875
656.72306	25160.1875
660.68952	25734.8875
664.65319	25610.0875
668.61405	25058.2875
672.57211	24865.1875
676.52738	24903.6875
680.47986	24865.7875
684.42955	24719.9875
688.37646	24676.1875
692.32058	24806.4875
696.26192	25026.7875
700.20048	25357.1875
704.13626	25507.4875
708.06928	25437.5875
711.99952	25231.1875
715.927	25211.7875
719.85171	25234.3875
723.77365	25140.8875
727.69284	24911.7875
731.60928	24600.6875
735.52295	24493.1875
739.43388	24533.4875
743.34206	24607.5875
747.24749	24747.0875
751.15017	24860.1875
755.05012	25239.8875
758.94733	25949.2875
762.8418	27282.8875
766.73354	29576.1875
770.62254	31958.6875
774.50882	32888.2875
778.39237	31626.4875
782.27321	29088.8875
786.15132	26991.8875
790.02671	25740.6875
793.89938	25113.0875
797.76935	24878.9875
801.6366	24737.2875
805.50115	24676.3875
809.36299	24512.2875
813.22213	24281.8875
817.07857	24177.9875
820.93231	24135.2875
824.78336	24083.5875
828.63172	24050.2875
832.47738	24045.6875
836.32036	24103.1875
840.16066	24206.2875
843.99827	24280.8875
847.8332	24197.0875
851.66546	24070.3875
855.49504	24070.8875
859.32195	24042.0875
863.1462	24016.2875
866.96777	23912.0875
870.78668	23904.3875
874.60293	23921.6875
878.41652	23922.8875
882.22745	24052.0875
886.03573	24129.1875
889.84136	24161.0875
893.64433	24072.4875
897.44466	24017.1875
901.24235	23939.5875
905.0374	23866.9875
908.8298	23791.4875
912.61957	23829.0875
916.40671	23989.9875
920.19121	24254.1875
923.97308	24618.0875
927.75233	24859.5875
931.52895	24953.6875
935.30295	24692.7875
939.07433	24157.5875
942.84309	23736.8875
946.60924	23537.6875
950.37278	23458.4875
954.13371	23334.3875
957.89203	23202.5875
961.64774	23073.7875
965.40086	23050.3875
969.15137	22990.7875
972.89929	22929.4875
976.64461	22936.0875
980.38733	22967.7875
984.12747	23080.0875
987.86502	23315.7875
991.59999	23544.2875
995.33237	23987.3875
999.06217	24668.3875
1002.78939	25444.8875
1006.51404	25957.1875
1010.23611	26243.5875
1013.95561	26414.7875
1017.67255	26339.9875
1021.38692	26006.8875
1025.09872	25796.4875
1028.80796	25921.4875
1032.51465	26666.0875
1036.21877	27301.2875
1039.92035	27420.9875
1043.61937	27038.5875
1047.31584	26434.3875
1051.00976	25760.0875
1054.70114	25452.3875
1058.38998	25437.6875
1062.07627	25584.7875
1065.76003	25874.4875
1069.44126	26182.4875
1073.11995	26630.3875
1076.79611	27092.4875
1080.46974	27339.0875
1084.14085	27478.2875
1087.80943	27702.0875
1091.47549	27724.2875
1095.13903	27488.5875
1098.80005	26983.3875
1102.45857	26365.0875
1106.11456	25936.2875
1109.76805	25779.2875
1113.41903	25848.6875
1117.06751	25972.0875
1120.71348	26248.9875
1124.35696	26527.6875
1127.99793	26914.8875
1131.63641	27114.4875
1135.2724	26850.8875
1138.90589	26514.2875
1142.5369	26269.5875
1146.16542	26126.6875
1149.79145	26064.8875
1153.415	26148.8875
1157.03607	26365.8875
1160.65467	26800.9875
1164.27079	27674.8875
1167.88443	28986.3875
1171.49561	30751.5875
1175.10432	33199.4875
1178.71056	36404.5875
1182.31434	39437.3875
1185.91565	41142.5875
1189.51451	41112.2875
1193.11091	39773.3875
1196.70485	37762.6875
1200.29634	35753.1875
1203.88538	34299.9875
1207.47197	33077.4875
1211.05612	32202.1875
1214.63782	31563.8875
1218.21708	31234.8875
1221.79391	31117.4875
1225.36829	31110.8875
1228.94024	30974.6875
1232.50976	30619.4875
1236.07685	30264.9875
1239.6415	30068.9875
1243.20374	30003.8875
1246.76355	30122.3875
1250.32093	30481.5875
1253.8759	31163.7875
1257.42845	31983.6875
1260.97859	32983.5875
1264.52631	33972.0875
1268.07163	34982.8875
1271.61453	36057.2875
1275.15503	37132.0875
1278.69312	38111.6875
1282.22882	38755.1875
1285.76211	39278.5875
1289.29301	39790.3875
1292.82151	40538.0875
1296.34761	41643.6875
1299.87133	43339.9875
1303.39266	45817.2875
1306.9116	49064.5875
1310.42815	52548.1875
1313.94233	54920.9875
1317.45412	55188.3875
1320.96354	53948.9875
1324.47058	52424.1875
1327.97525	50940.4875
1331.47754	49849.9875
1334.97747	49118.5875
1338.47502	48838.9875
1341.97022	48662.3875
1345.46305	48338.0875
1348.95352	47964.8875
1352.44163	48052.3875
1355.92738	49203.6875
1359.41078	51862.8875
1362.89183	54777.3875
1366.37053	54260.9875
1369.84688	49581.2875
1373.32088	44034.6875
1376.79254	40249.5875
1380.26186	38424.6875
1383.72883	37795.0875
1387.19347	37315.2875
1390.65578	36765.3875
1394.11575	36350.4875
1397.57339	36333.7875
1401.0287	36660.1875
1404.48168	37102.4875
1407.93234	37276.5875
1411.38068	37043.7875
1414.82669	36366.1875
1418.27039	35389.4875
1421.71177	34373.9875
1425.15083	33584.1875
1428.58758	33141.3875
1432.02203	33215.0875
1435.45416	33719.1875
1438.88399	34358.9875
1442.31151	34920.5875
1445.73673	35330.6875
1449.15965	35723.5875
1452.58027	36023.1875
1455.9986	36146.0875
1459.41463	36446.0875
1462.82837	37028.6875
1466.23982	37748.6875
1469.64898	38368.5875
1473.05586	38668.4875
1476.46045	38641.7875
1479.86276	38419.7875
1483.26279	38165.5875
1486.66054	38041.0875
1490.05602	38192.4875
1493.44922	38634.8875
1496.84016	39289.1875
1500.22882	40464.7875
1503.61521	42406.4875
1506.99934	44675.9875
1510.38121	46706.7875
1513.76081	47323.2875
1517.13816	45924.2875
1520.51324	43095.0875
1523.88607	40345.1875
1527.25665	38488.2875
1530.62498	37494.0875
1533.99105	37008.0875
1537.35488	36687.6875
1540.71647	36289.8875
1544.07581	35966.1875
1547.4329	35567.2875
1550.78776	35296.6875
1554.14038	35098.6875
1557.49077	35066.1875
1560.83892	35128.5875
1564.18484	35293.8875
1567.52853	35630.5875
1570.86999	36155.4875
1574.20922	36738.2875
1577.54624	37289.9875
1580.88103	37217.4875
1584.2136	36975.7875
1587.54395	37144.6875
1590.87208	38170.6875
1594.19801	39975.3875
1597.52172	41977.3875
1600.84321	42616.4875
1604.16251	40896.6875
1607.47959	38078.7875
1610.79447	35242.4875
1614.10715	32572.3875
1617.41763	30331.5875
1620.7259	28826.2875
1624.03199	28057.2875
1627.33587	28120.4875
1630.63757	28919.1875
1633.93707	30481.5875
1637.23439	32882.2875
1640.52951	36220.4875
1643.82246	39819.0875
1647.11321	42640.9875
1650.40179	43367.3875
1653.68819	41025.3875
1656.97241	36478.9875
1660.25446	31713.9875
1663.53433	28099.6875
1666.81203	25781.2875
1670.08756	24349.0875
1673.36092	23430.1875
1676.63211	22810.3875
1679.90115	22402.6875
1683.16801	22068.7875
1686.43272	21810.2875
1689.69527	21669.0875
1692.95567	21545.4875
1696.2139	21467.2875
1699.46999	21352.4875
1702.72392	21339.1875
1705.97571	21323.1875
1709.22535	21280.4875
1712.47284	21220.0875
1715.71819	21208.7875
1718.96139	21177.4875
1722.20246	21119.3875
1725.44139	21032.1875
1728.67818	20891.3875
1731.91284	20799.3875
1735.14537	20672.1875
1738.37576	20605.4875
1741.60403	20527.6875
1744.83017	20462.0875
1748.05418	20425.7875
1751.27607	20403.8875
1754.49584	20380.0875
1757.71349	20328.5875
1760.92903	20323.3875
1764.14244	20286.0875
1767.35375	20265.8875
1770.56294	20247.7875
1773.77002	20184.9875
1776.97499	20158.8875
1780.17785	20140.5875
1783.37861	20142.5875
1786.57727	20071.5875
1789.77382	20076.8875
1792.96828	20043.2875
1796.16064	20007.6875
1799.3509	20028.6875
1802.53907	19986.5875
1805.72514	19909.1875
1808.90913	19853.1875
1812.09102	19800.3875
1815.27083	19794.2875
1818.44856	19766.2875
1821.6242	19711.9875
1824.79776	19710.3875
1827.96924	19721.1875
1831.13864	19730.4875
1834.30597	19703.3875
1837.47122	19722.1875
1840.6344	19753.0875
1843.7955	19773.4875
1846.95454	19770.0875
1850.11151	19771.9875
1853.26642	19784.3875
1856.41926	19774.3875
1859.57004	19802.2875
1862.71876	19749.3875
1865.86542	19745.1875
1869.01003	19724.0875
1872.15258	19753.3875
1875.29308	19739.3875
1878.43152	19732.3875
1881.56792	19733.4875
1884.70227	19758.4875
1887.83457	19739.2875
1890.96482	19742.4875
1894.09304	19718.6875
1897.21921	19699.1875
1900.34335	19676.9875
1903.46544	19650.8875
1906.58551	19609.2875
1909.70353	19643.7875
1912.81953	19566.5875
1915.93349	19548.0875
1919.04543	19501.1875
1922.15534	19419.1875
1925.26322	19384.2875
1928.36908	19342.1875
1931.47292	19268.5875
1934.57473	19196.8875
1937.67453	19140.5875
1940.77232	19072.0875
1943.86808	18985.2875
1946.96184	18920.6875
1950.05358	18876.4875
1953.14331	18851.8875
1956.23103	18779.4875
1959.31675	18675.4875
1962.40046	18608.1875
1965.48217	18575.8875
1968.56188	18538.2875
1971.63959	18517.3875
1974.7153	18460.7875
1977.78901	18388.0875
1980.86073	18306.6875
1983.93046	18279.2875
1986.99819	18232.3875
1990.06394	18151.5875
1993.1277	18133.0875
1996.18947	18054.5875
1999.24925	18027.6875
2002.30706	17973.6875
2005.36288	17902.0875
2008.41672	17871.0875
2011.46859	17833.1875
2014.51848	17784.0875
2017.56639	17738.2875
2020.61233	17724.4875
2023.6563	17695.4875
2026.6983	17645.8875
2029.73833	17620.1875
2032.7764	17561.9875
2035.8125	17587.4875
2038.84664	17583.8875
2041.87881	17524.2875
2044.90903	17527.8875
2047.93729	17484.6875
2050.96359	17470.8875
2053.98794	17419.4875
2057.01034	17434.5875
2060.03078	17434.5875
2063.04927	17401.8875
2066.06582	17391.2875
2069.08042	17394.6875
2072.09307	17383.1875
2075.10378	17342.3875
2078.11255	17333.2875
2081.11938	17328.1875
2084.12426	17321.2875
2087.12722	17297.4875
2090.12824	17286.6875
2093.12732	17314.1875
2096.12447	17300.4875
2099.11969	17311.6875
2102.11299	17350.6875
2105.10435	17327.9875
2108.09379	17296.3875
2111.08131	17368.1875
2114.0669	17380.2875
2117.05057	17382.2875
2120.03233	17391.9875
2123.01216	17388.3875
2125.99008	17418.0875
2128.96609	17417.7875
2131.94018	17449.1875
2134.91236	17471.3875
2137.88263	17486.5875
2140.851	17484.3875
2143.81746	17535.4875
2146.78201	17528.4875
2149.74466	17544.1875
2152.7054	17514.0875
2155.66425	17522.9875
2158.6212	17544.3875
2161.57625	17544.6875
2164.52941	17516.9875
2167.48067	17486.1875
2170.43004	17521.8875
2173.37752	17507.4875
2176.32311	17505.5875
2179.26681	17493.6875
2182.20863	17532.9875
2185.14856	17533.2875
2188.08661	17499.4875
2191.02278	17523.3875
2193.95707	17527.3875
2196.88948	17556.9875
2199.82001	17520.0875
2202.74867	17509.2875
2205.67545	17485.2875
2208.60037	17480.9875
2211.52341	17485.2875
2214.44458	17469.8875
2217.36388	17453.3875
2220.28132	17442.9875
2223.1969	17394.1875
2226.11061	17393.0875
2229.02246	17330.5875
2231.93245	17300.3875
2234.84058	17245.4875
2237.74686	17225.1875
2240.65128	17246.6875
2243.55385	17216.0875
2246.45456	17200.7875
2249.35343	17162.7875
2252.25044	17145.3875
2255.14561	17121.2875
2258.03893	17109.7875
2260.93041	17089.6875
2263.82004	17031.9875
2266.70783	17028.4875
2269.59378	16988.4875
2272.4779	16958.5875
2275.36017	16891.5875
2278.24061	16901.0875
2281.11922	16848.1875
2283.996	16848.8875
2286.87094	16838.9875
2289.74405	16817.4875
2292.61534	16780.5875
2295.4848	16763.1875
2298.35243	16752.9875
2301.21824	16760.3875
2304.08223	16787.9875
2306.94439	16765.3875
2309.80474	16791.3875
2312.66327	16815.5875
2315.51999	16784.3875
2318.37489	16777.2875
2321.22797	16771.3875
2324.07925	16758.8875
2326.92871	16741.7875
2329.77637	16738.2875
2332.62222	16752.3875
2335.46626	16716.0875
2338.3085	16712.2875
2341.14893	16739.5875
2343.98756	16731.7875
2346.8244	16750.4875
2349.65943	16737.4875
2352.49267	16729.3875
2355.32411	16696.1875
2358.15376	16711.3875
2360.98161	16674.2875
2363.80768	16669.9875
2366.63195	16658.8875
2369.45444	16579.8875
2372.27514	16602.2875
2375.09405	16594.3875
2377.91118	16545.0875
2380.72652	16502.2875
2383.54009	16470.5875
2386.35187	16457.3875
2389.16188	16402.9875
2391.97011	16375.9875
2394.77657	16359.1875
2397.58125	16334.1875
2400.38416	16311.1875
2403.18529	16253.0875
2405.98466	16279.5875
2408.78226	16262.8875
2411.57809	16195.8875
2414.37216	16212.5875
2417.16446	16167.3875
2419.955	16146.9875
2422.74378	16116.3875
2425.5308	16110.5875
2428.31606	16121.4875
2431.09956	16123.2875
2433.88131	16090.5875
2436.6613	16110.6875
2439.43954	16091.8875
2442.21603	16104.4875
2444.99077	16068.2875
2447.76377	16059.0875
2450.53501	16061.0875
2453.30451	16071.4875
2456.07226	16066.3875
2458.83827	16078.7875
2461.60254	16048.5875
2464.36507	16081.6875
2467.12586	16052.3875
2469.88492	16064.7875
2472.64224	16037.1875
2475.39782	16049.5875
2478.15167	16061.9875
2480.90379	16046.9875
2483.65417	16065.6875
2486.40283	16051.1875
2489.14976	16062.5875
2491.89497	16060.1875
2494.63845	16100.7875
2497.3802	16055.3875
2500.12024	16075.1875
2502.85855	16083.3875
2505.59514	16013.4875
2508.33002	16013.8875
2511.06318	15990.8875
2513.79462	15973.6875
2516.52435	15986.1875
2519.25237	15963.2875
2521.97867	15912.6875
2524.70327	15961.1875
2527.42616	15932.9875
2530.14734	15899.7875
2532.86681	15903.2875
2535.58458	15892.4875
2538.30065	15880.1875
2541.01501	15900.3875
2543.72768	15849.7875
2546.43864	15846.9875
2549.14791	15833.3875
2551.85548	15812.9875
2554.56136	15839.9875
2557.26554	15832.9875
2559.96803	15806.0875
2562.66883	15795.8875
2565.36794	15755.6875
2568.06536	15790.6875
2570.7611	15738.8875
2573.45514	15715.6875
2576.14751	15719.2875
2578.83819	15677.3875
2581.52719	15696.9875
2584.21451	15704.6875
2586.90015	15703.4875
2589.58411	15662.4875
2592.2664	15653.9875
2594.94701	15626.4875
2597.62594	15646.2875
2600.30321	15600.8875
2602.9788	15608.4875
2605.65273	15567.5875
2608.32498	15584.3875
2610.99557	15564.9875
2613.66449	15545.4875
2616.33175	15553.9875
2618.99734	15550.3875
2621.66128	15519.5875
2624.32355	15534.2875
2626.98416	15538.6875
2629.64311	15516.2875
2632.30041	15549.8875
2634.95605	15524.8875
2637.61004	15509.7875
2640.26238	15479.4875
2642.91306	15441.1875
2645.56209	15446.2875
2648.20948	15431.6875
2650.85521	15399.2875
2653.4993	15430.4875
2656.14175	15405.2875
2658.78255	15442.5875
2661.42171	15444.2875
2664.05923	15441.3875
2666.6951	15444.4875
2669.32934	15470.6875
2671.96194	15452.2875
2674.59291	15463.4875
2677.22224	15461.7875
2679.84993	15479.1875
2682.476	15447.3875
2685.10043	15440.6875
2687.72324	15422.4875
2690.34441	15399.6875
2692.96396	15395.9875
2695.58188	15381.2875
2698.19818	15328.6875
2700.81285	15376.3875
2703.4259	15345.1875
2706.03733	15351.2875
2708.64714	15395.8875
2711.25533	15381.2875
2713.86191	15390.7875
2716.46687	15437.4875
2719.07021	15428.1875
2721.67194	15425.5875
2724.27206	15391.9875
2726.87057	15421.4875
2729.46747	15426.9875
2732.06276	15459.8875
2734.65644	15435.5875
2737.24852	15410.9875
2739.83899	15418.2875
2742.42786	15389.3875
2745.01513	15400.1875
2747.60079	15406.5875
2750.18486	15402.3875
2752.76733	15380.7875
2755.3482	15358.5875
2757.92747	15370.6875
2760.50515	15385.5875
2763.08123	15360.4875
2765.65573	15368.4875
2768.22863	15364.4875
2770.79994	15336.6875
2773.36967	15340.4875
2775.9378	15319.3875
2778.50435	15307.1875
2781.06932	15281.0875
2783.6327	15307.6875
2786.1945	15270.6875
2788.75471	15253.3875
2791.31335	15232.1875
2793.87041	15194.1875
2796.42589	15166.7875
2798.97979	15160.0875
2801.53212	15080.6875
2804.08288	15100.6875
2806.63206	15082.9875
2809.17967	15063.1875
2811.72571	15030.2875
2814.27018	15006.7875
2816.81308	15016.7875
2819.35442	15003.3875
2821.89419	14996.4875
2824.43239	14956.9875
2826.96904	14947.0875
2829.50412	14909.4875
2832.03763	14913.8875
2834.56959	14894.6875
2837.1	14894.0875
2839.62884	14862.8875
2842.15613	14880.9875
2844.68186	14934.3875
2847.20604	14919.8875
2849.72867	14936.5875
2852.24974	14909.4875
2854.76927	14915.2875
2857.28724	14894.7875
2859.80367	14908.3875
2862.31855	14853.7875
2864.83189	14872.2875
2867.34368	14890.0875
2869.85393	14883.8875
2872.36264	14888.2875
2874.8698	14924.3875
2877.37543	14921.1875
2879.87952	14924.2875
2882.38207	14931.2875
2884.88308	14927.4875
2887.38256	14972.3875
2889.88051	14941.6875
2892.37692	14974.6875
2894.8718	14994.5875
2897.36515	14993.6875
2899.85698	15029.3875
2902.34727	15045.2875
2904.83604	15010.0875
2907.32328	15074.9875
2909.809	15071.3875
2912.29319	15100.2875
2914.77587	15093.1875
2917.25702	15066.5875
2919.73665	15054.2875
2922.21476	15071.9875
2924.69136	15039.3875
2927.16644	15026.3875
2929.64	15015.7875
2932.11205	15019.3875
2934.58258	14974.3875
2937.05161	14986.0875
2939.51912	14941.5875
2941.98513	14909.6875
2944.44962	14900.6875
2946.91261	14828.5875
2949.37409	14835.3875
2951.83407	14785.8875
2954.29254	14806.6875
2956.74951	14762.3875
2959.20498	14754.4875
2961.65895	14715.7875
2964.11142	14691.7875
2966.56239	14641.9875
2969.01186	14644.8875
2971.45984	14594.3875
2973.90632	14583.2875
2976.35131	14544.2875
2978.7948	14538.8875
2981.23681	14474.4875
2983.67732	14447.6875
2986.11635	14410.6875
2988.55388	14375.2875
2990.98993	14311.6875
2993.4245	14300.7875
2995.85758	14275.9875
2998.28917	14261.7875
3000.71928	14226.4875
3003.14791	14222.7875
3005.57506	14166.6875
3008.00073	14148.5875
3010.42493	14134.7875
3012.84764	14117.2875
3015.26888	14140.8875
3017.68865	14077.3875
3020.10694	14101.6875
3022.52376	14057.7875
3024.9391	14043.1875
3027.35298	14011.3875
3029.76539	13967.8875
3032.17632	13964.6875
3034.5858	13961.0875
3036.9938	13957.3875
3039.40034	13933.5875
3041.80542	13916.8875
3044.20903	13872.5875
3046.61118	13853.8875
3049.01187	13828.7875
3051.4111	13872.6875
3053.80888	13791.8875
3056.20519	13783.9875
3058.60005	13732.7875
3060.99345	13727.7875
3063.3854	13690.5875
3065.7759	13662.4875
3068.16494	13652.2875
3070.55254	13630.5875
3072.93868	13635.6875
3075.32338	13592.7875
3077.70662	13567.1875
3080.08842	13519.0875
3082.46878	13529.4875
3084.84769	13512.1875
3087.22515	13488.8875
3089.60118	13475.3875
3091.97576	13495.6875
3094.3489	13495.0875
3096.72061	13442.0875
3099.09087	13487.7875
3101.4597	13448.5875
3103.82709	13439.7875
3106.19305	13405.2875
3108.55757	13428.6875
3110.92066	13381.1875
3113.28232	13374.9875
3115.64255	13348.1875
3118.00134	13315.0875
3120.35871	13312.7875
3122.71466	13301.9875
3125.06917	13283.0875
3127.42226	13245.3875
3129.77393	13300.8875
3132.12417	13249.7875
3134.47299	13253.3875
3136.82039	13249.8875
3139.16636	13257.2875
3141.51092	13238.7875
3143.85406	13272.8875
3146.19579	13246.9875
3148.53609	13245.7875
3150.87499	13263.7875
3153.21246	13290.4875
3155.54853	13290.2875
3157.88318	13257.6875
3160.21642	13290.0875
3162.54826	13271.8875
3164.87868	13274.9875
3167.2077	13251.7875
3169.5353	13239.8875
3171.86151	13225.5875
3174.18631	13236.1875
3176.5097	13205.5875
3178.83169	13183.6875
3181.15228	13201.0875
3183.47147	13167.1875
3185.78926	13160.8875
3188.10565	13158.3875
3190.42065	13178.2875
3192.73424	13195.4875
3195.04645	13170.0875
3197.35725	13167.9875
3199.66667	13199.0875
3201.97469	13213.4875
3204.28132	13193.7875
3206.58656	13220.4875
3208.8904	13195.4875
3211.19287	13209.7875
3213.49394	13172.8875
3215.79363	13183.0875
3218.09193	13168.0875
3220.38884	13164.1875
3222.68438	13177.8875
3224.97853	13173.2875
3227.2713	13153.5875
3229.56269	13162.7875
3231.8527	13155.7875
3234.14133	13118.8875
3236.42858	13116.9875
3238.71446	13096.8875
3240.99896	13087.6875
3243.28209	13079.0875
3245.56384	13048.6875
3247.84423	13098.0875
3250.12324	13064.2875
3252.40088	13042.4875
3254.67715	13045.4875
3256.95205	13029.2875
3259.22558	13040.0875
3261.49775	12985.3875
3263.76855	12977.1875
3266.03799	12948.8875
3268.30606	12941.4875
3270.57277	12904.8875
3272.83812	12943.1875
3275.10211	12898.4875
3277.36474	12882.0875
3279.62601	12909.9875
3281.88593	12867.8875
3284.14448	12861.7875
3286.40168	12873.3875
3288.65753	12879.4875
3290.91202	12810.5875
3293.16516	12775.2875
3295.41695	12774.7875
3297.66738	12709.7875
3299.91647	12639.2875
3302.16421	12565.5875
3304.4106	12537.9875
3306.65564	12488.5875
3308.89933	12409.4875
3311.14169	12321.6875
3313.38269	12229.6875
3315.62236	12173.5875
3317.86068	12083.9875
3320.09766	11952.3875
3322.3333	11862.7875
3324.5676	11834.0875
3326.80056	11665.0875
3329.03219	11612.4875
3331.26248	3.5875
3333.49143	0.5875
3335.71905	-0.7125
