Data from AgNPs_FTO_APTES_UA_0uM_R6G_10uM_NaF_0.1M_Addition_RamanShift__13__10-10-17-090.txt Node

Date: Fri Dec 17 10:10:17 GMT 2021
User: TCL
Spectrometer: QEP01345
Trigger mode: 4
Integration Time (sec): 7.000000E0
Scans to average: 10
Electric dark correction enabled: true
Nonlinearity correction enabled: false
Boxcar width: 0
XAxis mode: Raman Shifts
Number of Pixels in Spectrum: 1044
>>>>>Begin Spectral Data<<<<<
46.04893	0.625
50.45542	-0.575
54.85868	-0.675
59.25871	1.025
63.6555	35.725
68.04907	35.125
72.43941	39.525
76.82654	43.125
81.21044	41.325
85.59113	45.025
89.96862	50.625
94.34289	49.725
98.71396	50.925
103.08183	52.325
107.4465	54.825
111.80798	53.625
116.16626	54.625
120.52136	53.925
124.87327	58.925
129.222	57.125
133.56755	59.525
137.90993	62.525
142.24913	66.625
146.58517	72.725
150.91804	81.125
155.24774	92.925
159.57429	115.025
163.89768	141.225
168.21792	179.225
172.53501	237.925
176.84895	324.825
181.15975	451.125
185.46741	629.925
189.77193	858.025
194.07331	1147.425
198.37157	1484.425
202.6667	1832.325
206.9587	2167.125
211.24758	2503.625
215.53334	2859.325
219.81599	3216.225
224.09553	3624.025
228.37195	4074.825
232.64527	4581.325
236.91549	5071.725
241.18261	5548.325
245.44663	5925.725
249.70755	6257.025
253.96539	6544.625
258.22014	6788.425
262.4718	6991.325
266.72039	7131.125
270.96589	7175.925
275.20832	7158.625
279.44768	7017.425
283.68397	6898.525
287.91719	6772.225
292.14735	6726.725
296.37445	6745.625
300.59849	6911.425
304.81948	7094.425
309.03742	7274.725
313.25231	7298.125
317.46415	7164.725
321.67296	6892.525
325.87872	6618.425
330.08145	6491.625
334.28114	6495.425
338.47781	6530.125
342.67145	6625.325
346.86207	6778.925
351.04966	7026.025
355.23424	7292.125
359.4158	7519.825
363.59435	7649.625
367.76989	7684.125
371.94243	7682.425
376.11196	7663.325
380.27849	7659.125
384.44203	7642.925
388.60257	7586.225
392.76012	7572.325
396.91468	7590.025
401.06626	7704.925
405.21485	7787.825
409.36047	7722.625
413.50311	7456.225
417.64277	7215.225
421.77947	7092.625
425.9132	7071.925
430.04396	7086.125
434.17176	7169.125
438.2966	7298.125
442.41849	7515.225
446.53742	7767.825
450.6534	8062.725
454.76644	8169.925
458.87653	8098.725
462.98368	7876.025
467.08789	7655.425
471.18916	7487.125
475.2875	7285.325
479.38291	7128.225
483.4754	7040.125
487.56496	6991.725
491.6516	6970.925
495.73531	6953.625
499.81612	6975.925
503.89401	7055.525
507.96899	7107.225
512.04106	7193.025
516.11023	7275.625
520.1765	7353.925
524.23987	7380.725
528.30034	7339.625
532.35792	7286.925
536.41261	7149.125
540.46441	6996.825
544.51333	6915.325
548.55936	6937.125
552.60252	7063.825
556.64279	7220.525
560.6802	7319.325
564.71473	7375.625
568.7464	7458.325
572.7752	7527.925
576.80114	7398.725
580.82422	7266.525
584.84444	7319.825
588.86181	7610.325
592.87633	8070.625
596.888	8399.625
600.89682	8327.825
604.9028	8514.725
608.90594	9763.925
612.90624	11610.425
616.90371	11415.025
620.89834	8785.625
624.89015	7396.625
628.87913	7097.925
632.86528	7075.325
636.84862	7065.825
640.82913	6988.825
644.80683	6822.025
648.78172	6671.625
652.75379	6694.525
656.72306	6834.125
660.68952	7031.625
664.65319	7031.925
668.61405	6759.025
672.57211	6652.125
676.52738	6638.825
680.47986	6634.225
684.42955	6595.325
688.37646	6572.725
692.32058	6571.525
696.26192	6592.325
700.20048	6695.325
704.13626	6769.625
708.06928	6721.325
711.99952	6670.225
715.927	6667.125
719.85171	6699.325
723.77365	6720.225
727.69284	6662.325
731.60928	6632.125
735.52295	6637.525
739.43388	6670.125
743.34206	6689.725
747.24749	6704.725
751.15017	6735.425
755.05012	6784.225
758.94733	6960.625
762.8418	7435.725
766.73354	8303.225
770.62254	9352.825
774.50882	9870.225
778.39237	9497.525
782.27321	8517.425
786.15132	7583.825
790.02671	6995.425
793.89938	6756.825
797.76935	6616.125
801.6366	6566.125
805.50115	6515.725
809.36299	6502.025
813.22213	6427.725
817.07857	6424.825
820.93231	6409.925
824.78336	6380.725
828.63172	6407.525
832.47738	6403.725
836.32036	6415.825
840.16066	6445.325
843.99827	6433.325
847.8332	6439.125
851.66546	6421.725
855.49504	6392.725
859.32195	6387.525
863.1462	6368.625
866.96777	6335.325
870.78668	6323.125
874.60293	6343.025
878.41652	6376.325
882.22745	6385.325
886.03573	6418.825
889.84136	6439.425
893.64433	6393.625
897.44466	6383.025
901.24235	6390.225
905.0374	6386.925
908.8298	6389.425
912.61957	6409.025
916.40671	6473.025
920.19121	6550.125
923.97308	6646.625
927.75233	6732.225
931.52895	6762.625
935.30295	6690.425
939.07433	6496.625
942.84309	6349.525
946.60924	6246.825
950.37278	6219.725
954.13371	6124.125
957.89203	6072.325
961.64774	6051.225
965.40086	6008.625
969.15137	5993.025
972.89929	5963.725
976.64461	5966.225
980.38733	5968.525
984.12747	5972.225
987.86502	5999.525
991.59999	6050.125
995.33237	6146.325
999.06217	6258.025
1002.78939	6428.125
1006.51404	6521.825
1010.23611	6557.325
1013.95561	6593.725
1017.67255	6593.625
1021.38692	6513.625
1025.09872	6378.425
1028.80796	6341.725
1032.51465	6406.625
1036.21877	6515.625
1039.92035	6561.525
1043.61937	6534.525
1047.31584	6465.525
1051.00976	6395.825
1054.70114	6364.425
1058.38998	6344.225
1062.07627	6319.425
1065.76003	6307.425
1069.44126	6258.125
1073.11995	6258.125
1076.79611	6330.925
1080.46974	6400.025
1084.14085	6497.225
1087.80943	6625.825
1091.47549	6675.725
1095.13903	6576.725
1098.80005	6385.525
1102.45857	6230.525
1106.11456	6161.825
1109.76805	6204.825
1113.41903	6285.725
1117.06751	6424.125
1120.71348	6608.125
1124.35696	6758.425
1127.99793	6944.425
1131.63641	6961.225
1135.2724	6723.225
1138.90589	6469.525
1142.5369	6301.325
1146.16542	6200.425
1149.79145	6128.625
1153.415	6134.125
1157.03607	6158.025
1160.65467	6219.325
1164.27079	6406.325
1167.88443	6723.025
1171.49561	7281.825
1175.10432	8092.925
1178.71056	9210.825
1182.31434	10107.025
1185.91565	10374.825
1189.51451	9997.825
1193.11091	9300.325
1196.70485	8593.625
1200.29634	8034.025
1203.88538	7619.525
1207.47197	7180.025
1211.05612	6852.525
1214.63782	6687.125
1218.21708	6720.525
1221.79391	6828.725
1225.36829	6949.325
1228.94024	6913.125
1232.50976	6723.425
1236.07685	6553.825
1239.6415	6435.325
1243.20374	6378.025
1246.76355	6396.425
1250.32093	6451.725
1253.8759	6569.925
1257.42845	6723.725
1260.97859	6929.725
1264.52631	7138.025
1268.07163	7349.225
1271.61453	7541.425
1275.15503	7715.125
1278.69312	7853.425
1282.22882	7977.825
1285.76211	8158.225
1289.29301	8451.625
1292.82151	8766.725
1296.34761	9143.225
1299.87133	9646.225
1303.39266	10346.125
1306.9116	11366.025
1310.42815	12644.825
1313.94233	13593.225
1317.45412	13506.925
1320.96354	12561.025
1324.47058	11351.325
1327.97525	10256.925
1331.47754	9525.825
1334.97747	9145.725
1338.47502	9049.325
1341.97022	9065.025
1345.46305	9216.225
1348.95352	9638.525
1352.44163	10508.625
1355.92738	11749.025
1359.41078	13474.425
1362.89183	15249.725
1366.37053	15510.525
1369.84688	13528.025
1373.32088	11015.325
1376.79254	9331.125
1380.26186	8532.525
1383.72883	8210.225
1387.19347	7984.625
1390.65578	7718.825
1394.11575	7522.125
1397.57339	7470.925
1401.0287	7547.425
1404.48168	7615.825
1407.93234	7604.625
1411.38068	7608.525
1414.82669	7525.925
1418.27039	7395.125
1421.71177	7233.025
1425.15083	7100.225
1428.58758	7007.625
1432.02203	7037.925
1435.45416	7172.025
1438.88399	7323.325
1442.31151	7360.525
1445.73673	7390.925
1449.15965	7402.925
1452.58027	7364.225
1455.9986	7197.425
1459.41463	7084.225
1462.82837	7104.025
1466.23982	7271.225
1469.64898	7443.525
1473.05586	7601.825
1476.46045	7722.125
1479.86276	7790.725
1483.26279	7885.725
1486.66054	7981.725
1490.05602	8089.025
1493.44922	8259.725
1496.84016	8534.025
1500.22882	9026.225
1503.61521	9832.125
1506.99934	10890.725
1510.38121	11956.725
1513.76081	12573.225
1517.13816	12138.825
1520.51324	10863.725
1523.88607	9523.425
1527.25665	8615.725
1530.62498	8134.425
1533.99105	7919.325
1537.35488	7728.625
1540.71647	7559.725
1544.07581	7418.325
1547.4329	7275.725
1550.78776	7191.225
1554.14038	7130.425
1557.49077	7095.725
1560.83892	7162.825
1564.18484	7279.725
1567.52853	7465.325
1570.86999	7695.025
1574.20922	7870.925
1577.54624	7894.625
1580.88103	7634.125
1584.2136	7214.525
1587.54395	6995.325
1590.87208	7136.325
1594.19801	7623.525
1597.52172	8352.425
1600.84321	8839.725
1604.16251	8678.625
1607.47959	8027.425
1610.79447	7234.625
1614.10715	6560.125
1617.41763	6040.725
1620.7259	5754.525
1624.03199	5624.125
1627.33587	5612.725
1630.63757	5739.325
1633.93707	6003.125
1637.23439	6488.225
1640.52951	7237.825
1643.82246	8333.325
1647.11321	9505.825
1650.40179	10196.125
1653.68819	9772.825
1656.97241	8432.425
1660.25446	7000.725
1663.53433	5952.125
1666.81203	5376.125
1670.08756	5045.825
1673.36092	4847.825
1676.63211	4715.925
1679.90115	4632.525
1683.16801	4576.325
1686.43272	4520.825
1689.69527	4458.725
1692.95567	4434.725
1696.2139	4417.525
1699.46999	4362.125
1702.72392	4355.625
1705.97571	4375.625
1709.22535	4365.825
1712.47284	4360.525
1715.71819	4348.225
1718.96139	4346.625
1722.20246	4331.825
1725.44139	4308.325
1728.67818	4277.825
1731.91284	4243.025
1735.14537	4230.325
1738.37576	4209.625
1741.60403	4167.825
1744.83017	4151.925
1748.05418	4142.425
1751.27607	4127.425
1754.49584	4103.925
1757.71349	4081.525
1760.92903	4069.025
1764.14244	4063.925
1767.35375	4068.925
1770.56294	4054.325
1773.77002	4037.725
1776.97499	4031.225
1780.17785	4023.225
1783.37861	4008.125
1786.57727	4001.425
1789.77382	3999.125
1792.96828	3992.425
1796.16064	3972.525
1799.3509	3976.125
1802.53907	3962.125
1805.72514	3941.825
1808.90913	3936.325
1812.09102	3916.225
1815.27083	3881.025
1818.44856	3895.125
1821.6242	3895.825
1824.79776	3877.525
1827.96924	3865.725
1831.13864	3872.425
1834.30597	3859.525
1837.47122	3837.625
1840.6344	3845.425
1843.7955	3838.025
1846.95454	3831.025
1850.11151	3820.025
1853.26642	3826.125
1856.41926	3823.025
1859.57004	3808.725
1862.71876	3815.825
1865.86542	3810.925
1869.01003	3813.425
1872.15258	3797.325
1875.29308	3804.025
1878.43152	3794.725
1881.56792	3788.425
1884.70227	3792.325
1887.83457	3786.025
1890.96482	3770.825
1894.09304	3769.525
1897.21921	3770.325
1900.34335	3760.525
1903.46544	3764.825
1906.58551	3756.225
1909.70353	3764.525
1912.81953	3744.425
1915.93349	3743.425
1919.04543	3746.425
1922.15534	3729.825
1925.26322	3726.625
1928.36908	3702.725
1931.47292	3694.125
1934.57473	3678.425
1937.67453	3659.425
1940.77232	3666.825
1943.86808	3626.925
1946.96184	3614.025
1950.05358	3602.425
1953.14331	3589.325
1956.23103	3581.625
1959.31675	3565.025
1962.40046	3553.925
1965.48217	3545.525
1968.56188	3541.225
1971.63959	3530.025
1974.7153	3519.425
1977.78901	3483.725
1980.86073	3484.125
1983.93046	3478.425
1986.99819	3465.125
1990.06394	3437.425
1993.1277	3431.125
1996.18947	3420.725
1999.24925	3423.825
2002.30706	3401.325
2005.36288	3387.625
2008.41672	3369.225
2011.46859	3363.225
2014.51848	3350.925
2017.56639	3320.925
2020.61233	3331.425
2023.6563	3319.125
2026.6983	3310.325
2029.73833	3301.225
2032.7764	3290.625
2035.8125	3281.325
2038.84664	3294.225
2041.87881	3280.325
2044.90903	3275.425
2047.93729	3256.425
2050.96359	3256.625
2053.98794	3251.525
2057.01034	3254.725
2060.03078	3235.325
2063.04927	3236.125
2066.06582	3222.925
2069.08042	3231.325
2072.09307	3212.525
2075.10378	3212.025
2078.11255	3197.225
2081.11938	3210.225
2084.12426	3207.025
2087.12722	3202.725
2090.12824	3213.425
2093.12732	3198.325
2096.12447	3207.925
2099.11969	3194.925
2102.11299	3205.125
2105.10435	3192.425
2108.09379	3187.825
2111.08131	3196.525
2114.0669	3194.425
2117.05057	3203.525
2120.03233	3209.225
2123.01216	3199.525
2125.99008	3201.525
2128.96609	3206.125
2131.94018	3194.125
2134.91236	3200.525
2137.88263	3211.925
2140.851	3187.625
2143.81746	3191.025
2146.78201	3189.625
2149.74466	3193.425
2152.7054	3199.925
2155.66425	3192.825
2158.6212	3186.625
2161.57625	3189.625
2164.52941	3183.325
2167.48067	3189.325
2170.43004	3181.925
2173.37752	3173.925
2176.32311	3180.425
2179.26681	3174.125
2182.20863	3178.125
2185.14856	3162.525
2188.08661	3159.725
2191.02278	3173.725
2193.95707	3164.025
2196.88948	3169.825
2199.82001	3150.925
2202.74867	3158.025
2205.67545	3161.825
2208.60037	3150.525
2211.52341	3133.525
2214.44458	3138.925
2217.36388	3132.225
2220.28132	3124.625
2223.1969	3105.025
2226.11061	3101.625
2229.02246	3100.925
2231.93245	3089.625
2234.84058	3071.825
2237.74686	3063.825
2240.65128	3075.025
2243.55385	3061.725
2246.45456	3053.525
2249.35343	3056.725
2252.25044	3045.425
2255.14561	3041.225
2258.03893	3031.725
2260.93041	3028.625
2263.82004	3021.425
2266.70783	3014.725
2269.59378	3004.825
2272.4779	2995.925
2275.36017	2985.625
2278.24061	2975.525
2281.11922	2989.125
2283.996	2966.925
2286.87094	2966.825
2289.74405	2956.925
2292.61534	2952.925
2295.4848	2937.425
2298.35243	2927.125
2301.21824	2931.025
2304.08223	2934.625
2306.94439	2939.925
2309.80474	2939.525
2312.66327	2920.125
2315.51999	2925.725
2318.37489	2934.025
2321.22797	2929.325
2324.07925	2917.825
2326.92871	2925.525
2329.77637	2921.325
2332.62222	2913.125
2335.46626	2899.725
2338.3085	2900.625
2341.14893	2904.725
2343.98756	2900.025
2346.8244	2908.325
2349.65943	2904.125
2352.49267	2900.325
2355.32411	2900.525
2358.15376	2894.325
2360.98161	2893.425
2363.80768	2904.625
2366.63195	2893.325
2369.45444	2883.925
2372.27514	2886.825
2375.09405	2877.725
2377.91118	2869.925
2380.72652	2867.325
2383.54009	2861.825
2386.35187	2838.425
2389.16188	2832.225
2391.97011	2812.025
2394.77657	2822.525
2397.58125	2814.425
2400.38416	2795.425
2403.18529	2784.625
2405.98466	2786.525
2408.78226	2786.925
2411.57809	2787.225
2414.37216	2766.725
2417.16446	2763.725
2419.955	2762.125
2422.74378	2754.525
2425.5308	2743.125
2428.31606	2732.925
2431.09956	2742.525
2433.88131	2736.625
2436.6613	2741.725
2439.43954	2742.325
2442.21603	2734.725
2444.99077	2733.625
2447.76377	2750.525
2450.53501	2733.425
2453.30451	2724.825
2456.07226	2736.725
2458.83827	2728.825
2461.60254	2723.425
2464.36507	2718.025
2467.12586	2716.425
2469.88492	2717.125
2472.64224	2722.025
2475.39782	2700.725
2478.15167	2715.125
2480.90379	2719.125
2483.65417	2722.525
2486.40283	2710.025
2489.14976	2727.725
2491.89497	2713.725
2494.63845	2711.125
2497.3802	2720.225
2500.12024	2717.825
2502.85855	2709.325
2505.59514	2713.625
2508.33002	2702.525
2511.06318	2688.825
2513.79462	2664.225
2516.52435	2675.025
2519.25237	2656.625
2521.97867	2646.225
2524.70327	2649.425
2527.42616	2635.325
2530.14734	2646.725
2532.86681	2624.925
2535.58458	2632.325
2538.30065	2631.725
2541.01501	2622.725
2543.72768	2612.625
2546.43864	2622.625
2549.14791	2621.825
2551.85548	2620.825
2554.56136	2612.625
2557.26554	2607.125
2559.96803	2607.725
2562.66883	2602.025
2565.36794	2603.125
2568.06536	2589.025
2570.7611	2593.025
2573.45514	2597.025
2576.14751	2574.425
2578.83819	2588.625
2581.52719	2570.325
2584.21451	2575.125
2586.90015	2581.725
2589.58411	2575.025
2592.2664	2565.225
2594.94701	2559.525
2597.62594	2551.425
2600.30321	2552.725
2602.9788	2542.725
2605.65273	2551.325
2608.32498	2541.225
2610.99557	2534.225
2613.66449	2530.625
2616.33175	2538.025
2618.99734	2529.925
2621.66128	2529.925
2624.32355	2537.825
2626.98416	2533.025
2629.64311	2529.225
2632.30041	2523.625
2634.95605	2526.625
2637.61004	2531.125
2640.26238	2512.725
2642.91306	2509.425
2645.56209	2499.425
2648.20948	2500.925
2650.85521	2504.225
2653.4993	2502.525
2656.14175	2506.925
2658.78255	2500.725
2661.42171	2499.125
2664.05923	2498.525
2666.6951	2509.025
2669.32934	2505.425
2671.96194	2501.725
2674.59291	2504.825
2677.22224	2504.125
2679.84993	2506.125
2682.476	2513.025
2685.10043	2497.225
2687.72324	2496.825
2690.34441	2495.625
2692.96396	2492.825
2695.58188	2483.125
2698.19818	2485.525
2700.81285	2499.025
2703.4259	2480.825
2706.03733	2463.125
2708.64714	2466.525
2711.25533	2484.825
2713.86191	2485.525
2716.46687	2493.325
2719.07021	2501.125
2721.67194	2508.225
2724.27206	2498.925
2726.87057	2509.525
2729.46747	2516.225
2732.06276	2524.625
2734.65644	2516.125
2737.24852	2511.225
2739.83899	2519.725
2742.42786	2517.125
2745.01513	2523.825
2747.60079	2521.025
2750.18486	2522.325
2752.76733	2525.725
2755.3482	2523.925
2757.92747	2534.425
2760.50515	2528.525
2763.08123	2527.925
2765.65573	2528.225
2768.22863	2540.125
2770.79994	2534.925
2773.36967	2547.725
2775.9378	2537.925
2778.50435	2541.725
2781.06932	2528.525
2783.6327	2536.825
2786.1945	2529.925
2788.75471	2525.525
2791.31335	2527.225
2793.87041	2533.225
2796.42589	2530.025
2798.97979	2534.825
2801.53212	2533.725
2804.08288	2522.625
2806.63206	2520.525
2809.17967	2536.725
2811.72571	2531.425
2814.27018	2529.325
2816.81308	2532.625
2819.35442	2537.025
2821.89419	2530.625
2824.43239	2534.725
2826.96904	2528.925
2829.50412	2532.525
2832.03763	2528.325
2834.56959	2545.625
2837.1	2541.925
2839.62884	2558.225
2842.15613	2578.825
2844.68186	2604.925
2847.20604	2620.725
2849.72867	2636.625
2852.24974	2654.325
2854.76927	2662.325
2857.28724	2671.725
2859.80367	2677.625
2862.31855	2683.825
2864.83189	2692.525
2867.34368	2701.425
2869.85393	2709.225
2872.36264	2718.025
2874.8698	2716.525
2877.37543	2777.525
2879.87952	2977.125
2882.38207	2756.825
2884.88308	2736.325
2887.38256	2753.425
2889.88051	2755.825
2892.37692	2758.125
2894.8718	2765.625
2897.36515	2762.025
2899.85698	2757.025
2902.34727	2763.225
2904.83604	2751.125
2907.32328	2768.025
2909.809	2763.125
2912.29319	2749.525
2914.77587	2758.225
2917.25702	2757.925
2919.73665	2752.125
2922.21476	2741.925
2924.69136	2748.825
2927.16644	2736.225
2929.64	2727.625
2932.11205	2719.325
2934.58258	2700.225
2937.05161	2684.525
2939.51912	2669.125
2941.98513	2647.025
2944.44962	2620.125
2946.91261	2585.725
2949.37409	2576.725
2951.83407	2551.125
2954.29254	2544.425
2956.74951	2535.425
2959.20498	2500.325
2961.65895	2481.625
2964.11142	2470.525
2966.56239	2438.725
2969.01186	2423.325
2971.45984	2424.125
2973.90632	2404.625
2976.35131	2385.525
2978.7948	2376.025
2981.23681	2356.425
2983.67732	2337.425
2986.11635	2326.225
2988.55388	2313.225
2990.98993	2312.825
2993.4245	2299.425
2995.85758	2291.225
2998.28917	2281.025
3000.71928	2296.725
3003.14791	2288.725
3005.57506	2289.325
3008.00073	2274.325
3010.42493	2270.325
3012.84764	2261.125
3015.26888	2252.825
3017.68865	2262.525
3020.10694	2253.625
3022.52376	2241.225
3024.9391	2236.525
3027.35298	2234.125
3029.76539	2235.525
3032.17632	2238.225
3034.5858	2235.825
3036.9938	2234.325
3039.40034	2230.425
3041.80542	2226.725
3044.20903	2222.525
3046.61118	2221.425
3049.01187	2217.025
3051.4111	2215.725
3053.80888	2212.125
3056.20519	2216.925
3058.60005	2228.625
3060.99345	2216.025
3063.3854	2205.525
3065.7759	2218.925
3068.16494	2208.625
3070.55254	2204.325
3072.93868	2204.225
3075.32338	2209.725
3077.70662	2205.225
3080.08842	2197.925
3082.46878	2193.425
3084.84769	2200.325
3087.22515	2209.725
3089.60118	2203.725
3091.97576	2210.225
3094.3489	2212.025
3096.72061	2213.025
3099.09087	2207.425
3101.4597	2215.625
3103.82709	2210.925
3106.19305	2211.525
3108.55757	2221.725
3110.92066	2215.825
3113.28232	2218.825
3115.64255	2219.325
3118.00134	2220.625
3120.35871	2224.525
3122.71466	2235.325
3125.06917	2230.325
3127.42226	2235.025
3129.77393	2250.425
3132.12417	2241.025
3134.47299	2242.425
3136.82039	2253.525
3139.16636	2259.025
3141.51092	2253.025
3143.85406	2268.725
3146.19579	2268.825
3148.53609	2273.325
3150.87499	2279.925
3153.21246	2294.525
3155.54853	2297.725
3157.88318	2293.425
3160.21642	2293.025
3162.54826	2298.625
3164.87868	2301.025
3167.2077	2309.525
3169.5353	2312.125
3171.86151	2322.225
3174.18631	2333.925
3176.5097	2329.525
3178.83169	2322.825
3181.15228	2334.025
3183.47147	2339.225
3185.78926	2348.825
3188.10565	2335.925
3190.42065	2344.925
3192.73424	2355.925
3195.04645	2362.125
3197.35725	2366.325
3199.66667	2364.725
3201.97469	2381.825
3204.28132	2382.325
3206.58656	2380.125
3208.8904	2378.225
3211.19287	2368.325
3213.49394	2390.725
3215.79363	2382.925
3218.09193	2393.025
3220.38884	2390.125
3222.68438	2373.625
3224.97853	2386.925
3227.2713	2398.325
3229.56269	2402.425
3231.8527	2395.725
3234.14133	2398.625
3236.42858	2408.125
3238.71446	2395.125
3240.99896	2398.025
3243.28209	2416.825
3245.56384	2390.825
3247.84423	2415.425
3250.12324	2402.325
3252.40088	2404.625
3254.67715	2417.025
3256.95205	2406.925
3259.22558	2419.625
3261.49775	2412.725
3263.76855	2395.525
3266.03799	2407.825
3268.30606	2409.725
3270.57277	2404.625
3272.83812	2397.525
3275.10211	2401.125
3277.36474	2398.825
3279.62601	2408.225
3281.88593	2406.025
3284.14448	2400.625
3286.40168	2397.125
3288.65753	2399.325
3290.91202	2397.425
3293.16516	2385.625
3295.41695	2390.125
3297.66738	2365.725
3299.91647	2353.525
3302.16421	2347.925
3304.4106	2330.125
3306.65564	2327.125
3308.89933	2299.425
3311.14169	2288.025
3313.38269	2275.625
3315.62236	2265.925
3317.86068	2253.325
3320.09766	2224.225
3322.3333	2225.825
3324.5676	2202.125
3326.80056	2166.325
3329.03219	2166.325
3331.26248	0.625
3333.49143	1.225
3335.71905	-0.175
