Data from AgNPs_FTO_APTES_UA_50uM_CRN_10uM_R6G_10uM_NaF_0.1M_Addition_RamanShift__3__13-16-54-859.txt Node

Date: Mon Feb 21 13:16:54 GMT 2022
User: TCL
Spectrometer: QEP01345
Trigger mode: 4
Integration Time (sec): 7.000000E0
Scans to average: 10
Electric dark correction enabled: true
Nonlinearity correction enabled: false
Boxcar width: 0
XAxis mode: Raman Shifts
Number of Pixels in Spectrum: 1044
>>>>>Begin Spectral Data<<<<<
46.04893	0.5375
50.45542	-1.1625
54.85868	0.4375
59.25871	-2.9625
63.6555	72.8375
68.04907	79.3375
72.43941	83.3375
76.82654	88.9375
81.21044	89.3375
85.59113	92.4375
89.96862	97.3375
94.34289	101.0375
98.71396	101.6375
103.08183	108.3375
107.4465	110.0375
111.80798	107.5375
116.16626	110.9375
120.52136	109.5375
124.87327	122.0375
129.222	120.3375
133.56755	127.7375
137.90993	140.6375
142.24913	151.6375
146.58517	166.8375
150.91804	191.7375
155.24774	226.2375
159.57429	284.4375
163.89768	358.3375
168.21792	485.3375
172.53501	651.6375
176.84895	906.9375
181.15975	1268.8375
185.46741	1787.5375
189.77193	2466.1375
194.07331	3283.6375
198.37157	4214.0375
202.6667	5218.0375
206.9587	6183.5375
211.24758	7145.1375
215.53334	8132.7375
219.81599	9190.0375
224.09553	10370.9375
228.37195	11695.0375
232.64527	13145.5375
236.91549	14642.4375
241.18261	16151.7375
245.44663	17462.8375
249.70755	18554.4375
253.96539	19461.5375
258.22014	20279.9375
262.4718	20939.1375
266.72039	21378.4375
270.96589	21531.4375
275.20832	21480.8375
279.44768	21271.1375
283.68397	20954.9375
287.91719	20653.0375
292.14735	20463.4375
296.37445	20481.7375
300.59849	20587.7375
304.81948	20767.4375
309.03742	20874.5375
313.25231	20876.0375
317.46415	20645.5375
321.67296	20290.3375
325.87872	20005.1375
330.08145	19927.0375
334.28114	19934.9375
338.47781	20062.5375
342.67145	20311.5375
346.86207	20671.8375
351.04966	21138.2375
355.23424	21690.5375
359.4158	22049.7375
363.59435	22316.6375
367.76989	22461.5375
371.94243	22580.2375
376.11196	22671.7375
380.27849	22782.9375
384.44203	22982.7375
388.60257	23111.1375
392.76012	23246.0375
396.91468	23417.9375
401.06626	23766.7375
405.21485	23964.1375
409.36047	23854.5375
413.50311	23454.4375
417.64277	23184.2375
421.77947	23186.1375
425.9132	23289.3375
430.04396	23409.1375
434.17176	23570.5375
438.2966	23916.0375
442.41849	24577.2375
446.53742	25583.3375
450.6534	26613.4375
454.76644	27152.7375
458.87653	27135.0375
462.98368	26745.2375
467.08789	26192.1375
471.18916	25476.6375
475.2875	24753.8375
479.38291	24168.2375
483.4754	23805.6375
487.56496	23516.4375
491.6516	23319.2375
495.73531	23208.7375
499.81612	23217.0375
503.89401	23453.5375
507.96899	23503.7375
512.04106	23413.6375
516.11023	23320.2375
520.1765	23176.7375
524.23987	23176.3375
528.30034	23185.0375
532.35792	23120.9375
536.41261	22840.4375
540.46441	22436.6375
544.51333	22230.0375
548.55936	22406.4375
552.60252	22886.0375
556.64279	23653.0375
560.6802	24156.9375
564.71473	24271.4375
568.7464	24435.8375
572.7752	24964.6375
576.80114	25469.1375
580.82422	26077.1375
584.84444	27362.8375
588.86181	29469.0375
592.87633	31887.3375
596.888	32858.3375
600.89682	31212.4375
604.9028	30099.2375
608.90594	32013.5375
612.90624	34505.3375
616.90371	32153.9375
620.89834	26585.1375
624.89015	24063.3375
628.87913	23722.0375
632.86528	23817.0375
636.84862	23711.5375
640.82913	23216.1375
644.80683	22532.5375
648.78172	22150.2375
652.75379	22108.5375
656.72306	22509.9375
660.68952	23071.8375
664.65319	22840.3375
668.61405	22335.3375
672.57211	22262.8375
676.52738	22559.0375
680.47986	22498.9375
684.42955	22227.3375
688.37646	22106.3375
692.32058	22282.5375
696.26192	22716.2375
700.20048	23100.4375
704.13626	23317.3375
708.06928	23113.8375
711.99952	22874.4375
715.927	22941.8375
719.85171	23156.9375
723.77365	23124.8375
727.69284	22746.9375
731.60928	22469.2375
735.52295	22421.3375
739.43388	22528.5375
743.34206	22662.7375
747.24749	22787.8375
751.15017	22965.4375
755.05012	23250.6375
758.94733	23906.8375
762.8418	25187.9375
766.73354	27269.2375
770.62254	29350.5375
774.50882	29923.2375
778.39237	28661.0375
782.27321	26568.7375
786.15132	24740.5375
790.02671	23572.2375
793.89938	22940.5375
797.76935	22681.6375
801.6366	22537.7375
805.50115	22427.3375
809.36299	22283.0375
813.22213	22079.0375
817.07857	21909.8375
820.93231	21832.0375
824.78336	21751.6375
828.63172	21755.5375
832.47738	21778.1375
836.32036	21791.7375
840.16066	21921.1375
843.99827	21976.1375
847.8332	21967.9375
851.66546	21866.4375
855.49504	21874.3375
859.32195	21858.1375
863.1462	21830.0375
866.96777	21773.1375
870.78668	21708.3375
874.60293	21746.4375
878.41652	21868.2375
882.22745	22015.7375
886.03573	22116.0375
889.84136	22108.0375
893.64433	21985.9375
897.44466	21909.9375
901.24235	21795.0375
905.0374	21707.3375
908.8298	21604.0375
912.61957	21592.7375
916.40671	21712.2375
920.19121	21993.0375
923.97308	22338.1375
927.75233	22554.6375
931.52895	22490.8375
935.30295	22159.2375
939.07433	21707.3375
942.84309	21439.6375
946.60924	21267.4375
950.37278	21269.1375
954.13371	21225.5375
957.89203	21176.7375
961.64774	21110.4375
965.40086	21104.2375
969.15137	21149.0375
972.89929	21099.4375
976.64461	21094.4375
980.38733	21168.3375
984.12747	21248.1375
987.86502	21457.7375
991.59999	21735.2375
995.33237	22104.7375
999.06217	22830.3375
1002.78939	23707.8375
1006.51404	24480.4375
1010.23611	24944.2375
1013.95561	25254.6375
1017.67255	25305.9375
1021.38692	24944.0375
1025.09872	24404.6375
1028.80796	24293.3375
1032.51465	24642.5375
1036.21877	25112.1375
1039.92035	25218.2375
1043.61937	25055.3375
1047.31584	24597.9375
1051.00976	23987.3375
1054.70114	23655.2375
1058.38998	23546.5375
1062.07627	23616.3375
1065.76003	23727.1375
1069.44126	23978.5375
1073.11995	24361.0375
1076.79611	24791.3375
1080.46974	25147.2375
1084.14085	25572.5375
1087.80943	25963.8375
1091.47549	26111.4375
1095.13903	25925.6375
1098.80005	25457.4375
1102.45857	24914.7375
1106.11456	24611.1375
1109.76805	24571.6375
1113.41903	24715.3375
1117.06751	24945.8375
1120.71348	25326.9375
1124.35696	25612.5375
1127.99793	25938.4375
1131.63641	26058.4375
1135.2724	25904.4375
1138.90589	25758.5375
1142.5369	25680.3375
1146.16542	25776.2375
1149.79145	25924.0375
1153.415	26123.4375
1157.03607	26392.1375
1160.65467	27120.1375
1164.27079	28377.8375
1167.88443	30004.9375
1171.49561	32191.6375
1175.10432	35018.0375
1178.71056	38695.1375
1182.31434	41920.7375
1185.91565	43182.6375
1189.51451	42338.3375
1193.11091	40468.3375
1196.70485	38409.9375
1200.29634	36459.2375
1203.88538	34895.6375
1207.47197	33811.8375
1211.05612	32952.6375
1214.63782	32239.7375
1218.21708	31998.6375
1221.79391	32044.5375
1225.36829	32251.4375
1228.94024	32084.8375
1232.50976	31260.2375
1236.07685	30383.4375
1239.6415	29782.6375
1243.20374	29694.6375
1246.76355	29800.8375
1250.32093	30172.4375
1253.8759	30841.8375
1257.42845	31830.9375
1260.97859	32961.6375
1264.52631	34235.1375
1268.07163	35527.1375
1271.61453	36810.6375
1275.15503	38035.9375
1278.69312	39086.0375
1282.22882	40342.6375
1285.76211	41726.0375
1289.29301	43405.6375
1292.82151	45462.2375
1296.34761	47935.4375
1299.87133	50955.8375
1303.39266	54548.2375
1306.9116	58413.6375
1310.42815	61652.5375
1313.94233	63391.7375
1317.45412	62605.4375
1320.96354	59982.9375
1324.47058	57189.9375
1327.97525	54695.1375
1331.47754	53070.5375
1334.97747	52129.0375
1338.47502	51420.5375
1341.97022	50664.3375
1345.46305	49970.6375
1348.95352	49985.4375
1352.44163	51292.1375
1355.92738	54191.9375
1359.41078	58503.9375
1362.89183	61937.8375
1366.37053	61287.5375
1369.84688	55655.4375
1373.32088	48357.4375
1376.79254	43510.0375
1380.26186	41642.9375
1383.72883	41306.0375
1387.19347	40962.8375
1390.65578	40255.0375
1394.11575	39823.2375
1397.57339	40102.3375
1401.0287	40690.4375
1404.48168	41105.9375
1407.93234	41175.4375
1411.38068	40774.2375
1414.82669	40103.6375
1418.27039	39113.5375
1421.71177	37847.2375
1425.15083	36693.8375
1428.58758	36302.9375
1432.02203	36827.4375
1435.45416	37868.8375
1438.88399	38802.7375
1442.31151	39306.6375
1445.73673	39399.5375
1449.15965	39325.6375
1452.58027	39033.4375
1455.9986	38570.8375
1459.41463	38459.5375
1462.82837	39086.5375
1466.23982	40204.8375
1469.64898	41265.0375
1473.05586	42101.9375
1476.46045	42609.5375
1479.86276	42800.5375
1483.26279	42716.4375
1486.66054	42824.0375
1490.05602	43259.9375
1493.44922	43828.2375
1496.84016	44152.5375
1500.22882	44505.4375
1503.61521	45327.2375
1506.99934	46589.5375
1510.38121	47551.1375
1513.76081	47461.6375
1517.13816	46000.2375
1520.51324	44010.8375
1523.88607	42370.8375
1527.25665	41591.0375
1530.62498	41473.3375
1533.99105	41203.5375
1537.35488	40649.9375
1540.71647	39673.0375
1544.07581	38640.2375
1547.4329	37616.6375
1550.78776	36757.3375
1554.14038	36174.9375
1557.49077	35809.4375
1560.83892	35735.7375
1564.18484	35808.1375
1567.52853	36068.8375
1570.86999	36485.1375
1574.20922	37150.0375
1577.54624	37552.1375
1580.88103	37482.9375
1584.2136	37559.6375
1587.54395	38800.5375
1590.87208	41392.5375
1594.19801	44942.0375
1597.52172	48468.9375
1600.84321	49686.8375
1604.16251	47479.9375
1607.47959	43019.5375
1610.79447	38265.6375
1614.10715	34229.1375
1617.41763	31318.1375
1620.7259	29600.1375
1624.03199	28875.5375
1627.33587	29113.3375
1630.63757	30363.9375
1633.93707	32722.3375
1637.23439	36725.0375
1640.52951	42578.0375
1643.82246	49543.1375
1647.11321	54767.5375
1650.40179	54798.4375
1653.68819	49296.6375
1656.97241	41263.9375
1660.25446	34302.0375
1663.53433	29599.7375
1666.81203	26780.8375
1670.08756	25151.2375
1673.36092	24128.7375
1676.63211	23468.3375
1679.90115	23014.5375
1683.16801	22658.6375
1686.43272	22389.5375
1689.69527	22160.1375
1692.95567	21989.5375
1696.2139	21785.7375
1699.46999	21596.2375
1702.72392	21532.2375
1705.97571	21528.4375
1709.22535	21572.3375
1712.47284	21639.0375
1715.71819	21637.4375
1718.96139	21589.4375
1722.20246	21542.6375
1725.44139	21412.9375
1728.67818	21266.0375
1731.91284	21160.5375
1735.14537	21020.9375
1738.37576	20964.7375
1741.60403	20876.3375
1744.83017	20809.6375
1748.05418	20713.3375
1751.27607	20633.2375
1754.49584	20578.4375
1757.71349	20502.3375
1760.92903	20439.8375
1764.14244	20437.2375
1767.35375	20436.3375
1770.56294	20403.3375
1773.77002	20370.7375
1776.97499	20394.6375
1780.17785	20380.4375
1783.37861	20393.8375
1786.57727	20422.5375
1789.77382	20361.2375
1792.96828	20357.6375
1796.16064	20289.1375
1799.3509	20277.8375
1802.53907	20281.0375
1805.72514	20233.8375
1808.90913	20207.1375
1812.09102	20185.0375
1815.27083	20121.9375
1818.44856	20125.0375
1821.6242	20108.9375
1824.79776	20087.1375
1827.96924	20105.4375
1831.13864	20094.1375
1834.30597	20142.6375
1837.47122	20162.3375
1840.6344	20149.6375
1843.7955	20174.5375
1846.95454	20132.0375
1850.11151	20151.0375
1853.26642	20115.6375
1856.41926	20107.3375
1859.57004	20080.8375
1862.71876	20041.0375
1865.86542	20036.6375
1869.01003	20087.0375
1872.15258	20046.3375
1875.29308	20010.4375
1878.43152	19997.4375
1881.56792	20004.9375
1884.70227	19997.9375
1887.83457	20028.7375
1890.96482	19983.5375
1894.09304	19922.0375
1897.21921	19931.2375
1900.34335	19944.3375
1903.46544	19924.1375
1906.58551	19878.5375
1909.70353	19878.4375
1912.81953	19832.9375
1915.93349	19791.8375
1919.04543	19743.3375
1922.15534	19726.4375
1925.26322	19657.4375
1928.36908	19610.8375
1931.47292	19529.2375
1934.57473	19502.9375
1937.67453	19459.0375
1940.77232	19373.3375
1943.86808	19386.9375
1946.96184	19312.1375
1950.05358	19280.1375
1953.14331	19246.9375
1956.23103	19180.6375
1959.31675	19152.5375
1962.40046	19082.2375
1965.48217	19085.5375
1968.56188	19018.7375
1971.63959	18943.4375
1974.7153	18898.2375
1977.78901	18892.2375
1980.86073	18823.9375
1983.93046	18735.3375
1986.99819	18699.3375
1990.06394	18665.7375
1993.1277	18606.9375
1996.18947	18566.3375
1999.24925	18473.9375
2002.30706	18401.7375
2005.36288	18372.9375
2008.41672	18343.0375
2011.46859	18311.5375
2014.51848	18264.4375
2017.56639	18237.2375
2020.61233	18188.1375
2023.6563	18194.8375
2026.6983	18148.0375
2029.73833	18167.1375
2032.7764	18088.9375
2035.8125	18054.1375
2038.84664	18036.9375
2041.87881	18012.7375
2044.90903	17980.7375
2047.93729	17987.5375
2050.96359	17988.6375
2053.98794	17923.0375
2057.01034	17930.5375
2060.03078	17901.6375
2063.04927	17919.3375
2066.06582	17939.2375
2069.08042	17885.2375
2072.09307	17876.9375
2075.10378	17874.9375
2078.11255	17879.8375
2081.11938	17883.0375
2084.12426	17890.2375
2087.12722	17861.6375
2090.12824	17867.5375
2093.12732	17911.8375
2096.12447	17908.8375
2099.11969	17888.9375
2102.11299	17879.9375
2105.10435	17891.8375
2108.09379	17923.6375
2111.08131	17904.8375
2114.0669	17907.0375
2117.05057	17969.2375
2120.03233	17954.5375
2123.01216	17971.7375
2125.99008	17980.0375
2128.96609	18009.9375
2131.94018	18061.2375
2134.91236	18066.6375
2137.88263	18104.2375
2140.851	18079.3375
2143.81746	18091.8375
2146.78201	18093.2375
2149.74466	18100.1375
2152.7054	18123.7375
2155.66425	18097.0375
2158.6212	18074.3375
2161.57625	18083.9375
2164.52941	18094.0375
2167.48067	18063.5375
2170.43004	18045.5375
2173.37752	18063.8375
2176.32311	18074.9375
2179.26681	18099.1375
2182.20863	18123.9375
2185.14856	18108.6375
2188.08661	18147.4375
2191.02278	18142.8375
2193.95707	18148.1375
2196.88948	18134.6375
2199.82001	18118.0375
2202.74867	18108.9375
2205.67545	18137.0375
2208.60037	18116.9375
2211.52341	18081.5375
2214.44458	18069.6375
2217.36388	18029.4375
2220.28132	17991.6375
2223.1969	17943.8375
2226.11061	17954.1375
2229.02246	17900.0375
2231.93245	17904.3375
2234.84058	17875.2375
2237.74686	17858.8375
2240.65128	17895.1375
2243.55385	17899.8375
2246.45456	17852.6375
2249.35343	17826.7375
2252.25044	17773.7375
2255.14561	17764.1375
2258.03893	17747.9375
2260.93041	17694.9375
2263.82004	17662.9375
2266.70783	17647.1375
2269.59378	17592.6375
2272.4779	17587.2375
2275.36017	17540.8375
2278.24061	17546.1375
2281.11922	17486.2375
2283.996	17462.2375
2286.87094	17415.8375
2289.74405	17430.7375
2292.61534	17446.1375
2295.4848	17392.2375
2298.35243	17434.2375
2301.21824	17433.2375
2304.08223	17449.0375
2306.94439	17465.7375
2309.80474	17485.2375
2312.66327	17496.2375
2315.51999	17456.2375
2318.37489	17469.8375
2321.22797	17402.5375
2324.07925	17427.6375
2326.92871	17434.8375
2329.77637	17401.3375
2332.62222	17355.9375
2335.46626	17342.9375
2338.3085	17341.8375
2341.14893	17380.0375
2343.98756	17374.1375
2346.8244	17383.1375
2349.65943	17409.0375
2352.49267	17387.5375
2355.32411	17385.7375
2358.15376	17388.7375
2360.98161	17369.3375
2363.80768	17354.8375
2366.63195	17321.7375
2369.45444	17292.1375
2372.27514	17303.9375
2375.09405	17312.0375
2377.91118	17276.8375
2380.72652	17242.1375
2383.54009	17175.8375
2386.35187	17197.0375
2389.16188	17187.8375
2391.97011	17160.4375
2394.77657	17147.5375
2397.58125	17121.0375
2400.38416	17101.9375
2403.18529	17074.3375
2405.98466	17052.3375
2408.78226	17020.3375
2411.57809	16978.7375
2414.37216	16987.9375
2417.16446	16962.3375
2419.955	16956.8375
2422.74378	16959.0375
2425.5308	16961.1375
2428.31606	16939.4375
2431.09956	16934.5375
2433.88131	16919.6375
2436.6613	16957.8375
2439.43954	16952.7375
2442.21603	16950.0375
2444.99077	16918.1375
2447.76377	16931.6375
2450.53501	16949.9375
2453.30451	16967.6375
2456.07226	16948.7375
2458.83827	16938.1375
2461.60254	16935.0375
2464.36507	16947.4375
2467.12586	16968.5375
2469.88492	16976.7375
2472.64224	16967.9375
2475.39782	16993.1375
2478.15167	17004.0375
2480.90379	16992.1375
2483.65417	17030.2375
2486.40283	17016.0375
2489.14976	17036.7375
2491.89497	17037.9375
2494.63845	17035.1375
2497.3802	17045.2375
2500.12024	17024.2375
2502.85855	17053.0375
2505.59514	17037.6375
2508.33002	17010.6375
2511.06318	16966.9375
2513.79462	16966.0375
2516.52435	16969.8375
2519.25237	16966.1375
2521.97867	16960.4375
2524.70327	16979.6375
2527.42616	16962.4375
2530.14734	16938.8375
2532.86681	16954.3375
2535.58458	16975.1375
2538.30065	16942.3375
2541.01501	16935.4375
2543.72768	16901.1375
2546.43864	16917.6375
2549.14791	16882.9375
2551.85548	16854.1375
2554.56136	16862.6375
2557.26554	16876.0375
2559.96803	16899.7375
2562.66883	16891.3375
2565.36794	16866.6375
2568.06536	16905.9375
2570.7611	16879.7375
2573.45514	16885.1375
2576.14751	16880.4375
2578.83819	16830.9375
2581.52719	16849.3375
2584.21451	16816.7375
2586.90015	16827.6375
2589.58411	16810.0375
2592.2664	16815.0375
2594.94701	16797.4375
2597.62594	16843.0375
2600.30321	16810.1375
2602.9788	16810.2375
2605.65273	16803.2375
2608.32498	16775.6375
2610.99557	16755.9375
2613.66449	16789.7375
2616.33175	16817.6375
2618.99734	16866.4375
2621.66128	16803.9375
2624.32355	16804.3375
2626.98416	16767.4375
2629.64311	16790.5375
2632.30041	16817.7375
2634.95605	16793.0375
2637.61004	16762.6375
2640.26238	16766.5375
2642.91306	16696.0375
2645.56209	16669.8375
2648.20948	16703.6375
2650.85521	16726.7375
2653.4993	16749.2375
2656.14175	16745.5375
2658.78255	16770.8375
2661.42171	16765.7375
2664.05923	16841.0375
2666.6951	16829.4375
2669.32934	16863.6375
2671.96194	16844.0375
2674.59291	16884.0375
2677.22224	16863.9375
2679.84993	16906.0375
2682.476	16836.8375
2685.10043	16815.0375
2687.72324	16812.5375
2690.34441	16814.4375
2692.96396	16788.7375
2695.58188	16827.6375
2698.19818	16831.5375
2700.81285	16836.3375
2703.4259	16780.5375
2706.03733	16761.4375
2708.64714	16764.6375
2711.25533	16817.6375
2713.86191	16827.7375
2716.46687	16879.2375
2719.07021	16853.0375
2721.67194	16894.2375
2724.27206	16898.2375
2726.87057	16945.9375
2729.46747	16955.2375
2732.06276	16965.2375
2734.65644	16986.4375
2737.24852	16965.0375
2739.83899	16930.8375
2742.42786	16977.6375
2745.01513	16962.5375
2747.60079	16979.0375
2750.18486	16914.9375
2752.76733	16907.4375
2755.3482	16893.7375
2757.92747	16900.5375
2760.50515	16867.7375
2763.08123	16947.1375
2765.65573	16878.6375
2768.22863	16907.4375
2770.79994	16868.2375
2773.36967	16913.4375
2775.9378	16893.6375
2778.50435	16929.1375
2781.06932	16932.2375
2783.6327	16951.8375
2786.1945	16938.0375
2788.75471	16931.4375
2791.31335	16886.5375
2793.87041	16895.4375
2796.42589	16832.5375
2798.97979	16820.6375
2801.53212	16783.8375
2804.08288	16788.1375
2806.63206	16758.3375
2809.17967	16739.0375
2811.72571	16675.9375
2814.27018	16658.3375
2816.81308	16628.1375
2819.35442	16623.4375
2821.89419	16617.2375
2824.43239	16652.9375
2826.96904	16612.5375
2829.50412	16647.4375
2832.03763	16574.2375
2834.56959	16606.6375
2837.1	16579.2375
2839.62884	16584.0375
2842.15613	16519.6375
2844.68186	16527.2375
2847.20604	16510.0375
2849.72867	16560.4375
2852.24974	16546.4375
2854.76927	16530.7375
2857.28724	16500.4375
2859.80367	16502.8375
2862.31855	16456.2375
2864.83189	16482.8375
2867.34368	16482.2375
2869.85393	16492.4375
2872.36264	16467.3375
2874.8698	16480.1375
2877.37543	16499.3375
2879.87952	16464.6375
2882.38207	16489.7375
2884.88308	16505.2375
2887.38256	16487.9375
2889.88051	16464.8375
2892.37692	16510.8375
2894.8718	16567.6375
2897.36515	16588.4375
2899.85698	16568.5375
2902.34727	16615.2375
2904.83604	16622.9375
2907.32328	16685.8375
2909.809	16677.2375
2912.29319	16705.2375
2914.77587	16682.1375
2917.25702	16674.7375
2919.73665	16649.3375
2922.21476	16683.8375
2924.69136	16636.9375
2927.16644	16692.2375
2929.64	16629.7375
2932.11205	16603.5375
2934.58258	16558.4375
2937.05161	16596.2375
2939.51912	16607.4375
2941.98513	16582.4375
2944.44962	16563.0375
2946.91261	16499.5375
2949.37409	16518.6375
2951.83407	16492.0375
2954.29254	16511.3375
2956.74951	16498.5375
2959.20498	16498.9375
2961.65895	16494.0375
2964.11142	16490.2375
2966.56239	16469.3375
2969.01186	16448.9375
2971.45984	16392.4375
2973.90632	16378.7375
2976.35131	16354.7375
2978.7948	16316.9375
2981.23681	16330.3375
2983.67732	16273.3375
2986.11635	16239.1375
2988.55388	16201.4375
2990.98993	16165.3375
2993.4245	16176.7375
2995.85758	16160.6375
2998.28917	16121.8375
3000.71928	16085.2375
3003.14791	16022.3375
3005.57506	16024.7375
3008.00073	16009.1375
3010.42493	15974.9375
3012.84764	15950.8375
3015.26888	15912.2375
3017.68865	15857.8375
3020.10694	15863.2375
3022.52376	15836.9375
3024.9391	15826.5375
3027.35298	15816.2375
3029.76539	15814.3375
3032.17632	15806.2375
3034.5858	15779.3375
3036.9938	15775.4375
3039.40034	15750.3375
3041.80542	15757.9375
3044.20903	15748.7375
3046.61118	15740.8375
3049.01187	15733.0375
3051.4111	15700.5375
3053.80888	15682.4375
3056.20519	15692.0375
3058.60005	15648.7375
3060.99345	15615.9375
3063.3854	15589.3375
3065.7759	15549.4375
3068.16494	15512.6375
3070.55254	15443.0375
3072.93868	15370.6375
3075.32338	15366.2375
3077.70662	15356.2375
3080.08842	15328.1375
3082.46878	15334.5375
3084.84769	15300.2375
3087.22515	15283.4375
3089.60118	15298.0375
3091.97576	15294.0375
3094.3489	15315.5375
3096.72061	15309.5375
3099.09087	15307.8375
3101.4597	15274.5375
3103.82709	15268.0375
3106.19305	15280.6375
3108.55757	15276.4375
3110.92066	15217.5375
3113.28232	15208.3375
3115.64255	15129.4375
3118.00134	15119.6375
3120.35871	15119.7375
3122.71466	15090.6375
3125.06917	15044.0375
3127.42226	15057.1375
3129.77393	15057.5375
3132.12417	15026.9375
3134.47299	15021.1375
3136.82039	15037.4375
3139.16636	15050.0375
3141.51092	15019.7375
3143.85406	15007.1375
3146.19579	15023.6375
3148.53609	15011.5375
3150.87499	14993.9375
3153.21246	14985.6375
3155.54853	15006.2375
3157.88318	15010.4375
3160.21642	15025.4375
3162.54826	15032.3375
3164.87868	15045.5375
3167.2077	15023.4375
3169.5353	15024.3375
3171.86151	15043.8375
3174.18631	15009.9375
3176.5097	14987.3375
3178.83169	14993.6375
3181.15228	14953.6375
3183.47147	14911.2375
3185.78926	14913.1375
3188.10565	14906.4375
3190.42065	14905.8375
3192.73424	14916.4375
3195.04645	14906.4375
3197.35725	14937.8375
3199.66667	14934.4375
3201.97469	14934.5375
3204.28132	14931.4375
3206.58656	14939.5375
3208.8904	14909.5375
3211.19287	14909.8375
3213.49394	14931.3375
3215.79363	14925.1375
3218.09193	14925.3375
3220.38884	14935.8375
3222.68438	14924.5375
3224.97853	14943.1375
3227.2713	14900.1375
3229.56269	14887.7375
3231.8527	14894.8375
3234.14133	14888.7375
3236.42858	14885.7375
3238.71446	14862.9375
3240.99896	14816.7375
3243.28209	14801.3375
3245.56384	14769.0375
3247.84423	14794.8375
3250.12324	14791.8375
3252.40088	14802.2375
3254.67715	14747.3375
3256.95205	14752.8375
3259.22558	14780.1375
3261.49775	14731.4375
3263.76855	14728.2375
3266.03799	14709.6375
3268.30606	14700.0375
3270.57277	14650.2375
3272.83812	14629.1375
3275.10211	14620.9375
3277.36474	14590.0375
3279.62601	14577.1375
3281.88593	14597.8375
3284.14448	14592.2375
3286.40168	14620.4375
3288.65753	14595.4375
3290.91202	14616.4375
3293.16516	14580.4375
3295.41695	14584.5375
3297.66738	14482.4375
3299.91647	14417.9375
3302.16421	14308.9375
3304.4106	14263.3375
3306.65564	14188.0375
3308.89933	14108.9375
3311.14169	14023.7375
3313.38269	13906.3375
3315.62236	13816.4375
3317.86068	13677.6375
3320.09766	13593.3375
3322.3333	13524.3375
3324.5676	13465.5375
3326.80056	13250.1375
3329.03219	13153.0375
3331.26248	2.9375
3333.49143	-1.4625
3335.71905	1.0375
