Data from AgNPs_FTO_APTES_UA_50uM_CRN_10uM_R6G_10uM_NaF_0.1M_Addition_RamanShift__29__13-47-14-900.txt Node

Date: Mon Feb 21 13:47:14 GMT 2022
User: TCL
Spectrometer: QEP01345
Trigger mode: 4
Integration Time (sec): 7.000000E0
Scans to average: 10
Electric dark correction enabled: true
Nonlinearity correction enabled: false
Boxcar width: 0
XAxis mode: Raman Shifts
Number of Pixels in Spectrum: 1044
>>>>>Begin Spectral Data<<<<<
46.04893	1.5
50.45542	-0.6
54.85868	-1.8
59.25871	-1.2
63.6555	53.9
68.04907	62.5
72.43941	60.2
76.82654	64.4
81.21044	71.1
85.59113	74.1
89.96862	75
94.34289	76.9
98.71396	75.6
103.08183	83.9
107.4465	84.2
111.80798	83
116.16626	85
120.52136	87.2
124.87327	92
129.222	93.4
133.56755	96.2
137.90993	106
142.24913	113.7
146.58517	127.5
150.91804	146.8
155.24774	171.2
159.57429	208.8
163.89768	265.5
168.21792	355.4
172.53501	481
176.84895	672.1
181.15975	937.7
185.46741	1310.5
189.77193	1821.7
194.07331	2439.4
198.37157	3156.8
202.6667	3917.9
206.9587	4689.5
211.24758	5476.8
215.53334	6314
219.81599	7269.9
224.09553	8404.3
228.37195	9642.6
232.64527	10973.9
236.91549	12257.6
241.18261	13403.3
245.44663	14234.5
249.70755	14887.8
253.96539	15399
258.22014	15776.3
262.4718	16023.2
266.72039	16061.7
270.96589	15982.8
275.20832	15715.9
279.44768	15289.5
283.68397	14941.3
287.91719	14791.1
292.14735	14951.9
296.37445	15553.3
300.59849	16661.2
304.81948	17946.3
309.03742	18995.1
313.25231	19132.8
317.46415	17955.6
321.67296	16023.1
325.87872	14403.1
330.08145	13715.8
334.28114	13734
338.47781	14108.6
342.67145	14699.5
346.86207	15661.6
351.04966	17150.1
355.23424	18739.7
359.4158	19912.9
363.59435	20380.9
367.76989	20271.7
371.94243	19913.8
376.11196	19520.5
380.27849	19172
384.44203	18705.4
388.60257	18208.1
392.76012	17914.9
396.91468	18066.5
401.06626	18627.2
405.21485	19036.9
409.36047	18432.2
413.50311	16971.5
417.64277	15554.2
421.77947	14731.5
425.9132	14331.7
430.04396	14242.1
434.17176	14330.5
438.2966	14615.3
442.41849	15111.7
446.53742	15694.6
450.6534	16206.7
454.76644	16428.1
458.87653	16343.7
462.98368	16090.3
467.08789	15628.5
471.18916	15144.8
475.2875	14572.6
479.38291	14099.7
483.4754	13794.9
487.56496	13616
491.6516	13475.4
495.73531	13475.1
499.81612	13532.5
503.89401	13805.6
507.96899	14140.4
512.04106	14543.9
516.11023	14972.2
520.1765	15273.6
524.23987	15231.5
528.30034	14868.1
532.35792	14485.3
536.41261	14040.3
540.46441	13547.1
544.51333	13297.5
548.55936	13386.8
552.60252	13851.2
556.64279	14313.9
560.6802	14584.2
564.71473	15145.4
568.7464	16250.3
572.7752	16664.7
576.80114	15644.9
580.82422	14602
584.84444	14197.6
588.86181	14101.1
592.87633	14221.3
596.888	14493.7
600.89682	15364.6
604.9028	18416.4
608.90594	26678.4
612.90624	37312.6
616.90371	34992.8
620.89834	21750.9
624.89015	15690.5
628.87913	14693.6
632.86528	15016.4
636.84862	15398.8
640.82913	14925.6
644.80683	13713.3
648.78172	12943.9
652.75379	13071.5
656.72306	14079.4
660.68952	15197.2
664.65319	14781.1
668.61405	13509.6
672.57211	12918.3
676.52738	12907.5
680.47986	12866.7
684.42955	12696.1
688.37646	12619
692.32058	12677.8
696.26192	12870.2
700.20048	13132.1
704.13626	13301.9
708.06928	13258.6
711.99952	13070.2
715.927	12989.4
719.85171	13134.9
723.77365	13155.8
727.69284	13017.7
731.60928	12841.2
735.52295	12802.9
739.43388	12867.9
743.34206	13006.5
747.24749	13076.1
751.15017	13214.4
755.05012	13649.5
758.94733	14884.4
762.8418	17809.6
766.73354	22440.1
770.62254	26658
774.50882	28776.5
778.39237	27597.5
782.27321	22815.6
786.15132	17805.9
790.02671	15006.4
793.89938	13797.9
797.76935	13286.3
801.6366	13068.1
805.50115	12946.1
809.36299	12860.6
813.22213	12796.1
817.07857	12740.2
820.93231	12698.9
824.78336	12782.1
828.63172	12934.6
832.47738	12977.7
836.32036	12892.1
840.16066	12757.8
843.99827	12670.2
847.8332	12637.1
851.66546	12591.6
855.49504	12590.2
859.32195	12563
863.1462	12471.3
866.96777	12417.6
870.78668	12398.6
874.60293	12471.7
878.41652	12536
882.22745	12729.9
886.03573	12851.5
889.84136	12811.8
893.64433	12738
897.44466	12761.3
901.24235	12771.8
905.0374	12684.3
908.8298	12495.4
912.61957	12395.7
916.40671	12441.6
920.19121	12582.4
923.97308	12827.4
927.75233	13135.2
931.52895	13460
935.30295	13195.7
939.07433	12529.6
942.84309	12075.1
946.60924	11802
950.37278	11649.3
954.13371	11623.2
957.89203	11551
961.64774	11551
965.40086	11507.7
969.15137	11440
972.89929	11434.3
976.64461	11421.4
980.38733	11423.4
984.12747	11455.8
987.86502	11546.1
991.59999	11685.9
995.33237	11924.1
999.06217	12317.6
1002.78939	12803.2
1006.51404	13263.1
1010.23611	13622.3
1013.95561	13833
1017.67255	13778.1
1021.38692	13530.6
1025.09872	13279.6
1028.80796	13165
1032.51465	13369.3
1036.21877	13682.8
1039.92035	13852.3
1043.61937	13840.6
1047.31584	13678.6
1051.00976	13463.4
1054.70114	13313.6
1058.38998	13245.7
1062.07627	13309.4
1065.76003	13391.9
1069.44126	13517.3
1073.11995	13742.5
1076.79611	14085.1
1080.46974	14610.5
1084.14085	15335.7
1087.80943	15972.6
1091.47549	16094.8
1095.13903	15575.6
1098.80005	14740.6
1102.45857	14101.4
1106.11456	13993.5
1109.76805	14224
1113.41903	14884.1
1117.06751	15940.5
1120.71348	17364.9
1124.35696	19012.8
1127.99793	19922.4
1131.63641	19077.9
1135.2724	17308.9
1138.90589	15965.1
1142.5369	15194
1146.16542	14640.5
1149.79145	14318.7
1153.415	14288.1
1157.03607	14486.2
1160.65467	14870.9
1164.27079	15643
1167.88443	16857.5
1171.49561	18800.9
1175.10432	22057.8
1178.71056	26315.2
1182.31434	29428.9
1185.91565	29994.9
1189.51451	28605.2
1193.11091	26140.8
1196.70485	23629
1200.29634	21917.7
1203.88538	20452.4
1207.47197	18655.2
1211.05612	17124.2
1214.63782	16259.8
1218.21708	15913.3
1221.79391	15897.7
1225.36829	15978.2
1228.94024	16048.3
1232.50976	16031.5
1236.07685	16088.4
1239.6415	16150.5
1243.20374	16221.9
1246.76355	16345.1
1250.32093	16546.9
1253.8759	17053.5
1257.42845	17803.2
1260.97859	18622.3
1264.52631	19452.2
1268.07163	20280.8
1271.61453	20957.9
1275.15503	21374.7
1278.69312	21689.6
1282.22882	22121.4
1285.76211	23047.6
1289.29301	24062.8
1292.82151	25032.8
1296.34761	26147.2
1299.87133	28208.2
1303.39266	31843.6
1306.9116	37269.8
1310.42815	42644.3
1313.94233	44138.8
1317.45412	40816.4
1320.96354	35787.8
1324.47058	31307.3
1327.97525	28071.9
1331.47754	26442.2
1334.97747	26090.8
1338.47502	26810.2
1341.97022	28383.8
1345.46305	30789.4
1348.95352	33718.7
1352.44163	37329.3
1355.92738	42969.7
1359.41078	51501.9
1362.89183	57341.7
1366.37053	52310.5
1369.84688	41611.1
1373.32088	33030.7
1376.79254	27905.8
1380.26186	25036.8
1383.72883	23230.4
1387.19347	21758.6
1390.65578	20465.2
1394.11575	19587.5
1397.57339	19245.3
1401.0287	19250.4
1404.48168	19481.1
1407.93234	19834.8
1411.38068	20226.8
1414.82669	20473.8
1418.27039	20308.7
1421.71177	19906.6
1425.15083	19491.6
1428.58758	19520.1
1432.02203	19824.5
1435.45416	19957.1
1438.88399	19827.5
1442.31151	19688.9
1445.73673	19757.7
1449.15965	19874.1
1452.58027	19778.7
1455.9986	19493.5
1459.41463	19435.8
1462.82837	19790.7
1466.23982	20403.7
1469.64898	20943.3
1473.05586	21250.9
1476.46045	21446.3
1479.86276	21935.6
1483.26279	22705.8
1486.66054	23741.6
1490.05602	25216.6
1493.44922	27418.4
1496.84016	30826.1
1500.22882	36008.2
1503.61521	42917.4
1506.99934	50389.7
1510.38121	55665.5
1513.76081	55323.2
1517.13816	48940.2
1520.51324	40080.9
1523.88607	32816.9
1527.25665	28395.5
1530.62498	26039.4
1533.99105	24638.8
1537.35488	23747.3
1540.71647	23269.9
1544.07581	23149.1
1547.4329	23194.9
1550.78776	23301.8
1554.14038	23430
1557.49077	23624
1560.83892	24226.2
1564.18484	25372.6
1567.52853	26725.8
1570.86999	27625.8
1574.20922	27981.8
1577.54624	27362.2
1580.88103	25097.3
1584.2136	22596.7
1587.54395	21363.9
1590.87208	21704.6
1594.19801	23284.8
1597.52172	25432
1600.84321	26235.9
1604.16251	25111.5
1607.47959	23162.1
1610.79447	21085.2
1614.10715	19087.5
1617.41763	17639.8
1620.7259	16772.8
1624.03199	16452.4
1627.33587	16653.5
1630.63757	17362.9
1633.93707	18666.9
1637.23439	20702.6
1640.52951	23799
1643.82246	28212.5
1647.11321	33089
1650.40179	35675.4
1653.68819	33268
1656.97241	27316.8
1660.25446	21569.9
1663.53433	17809.3
1666.81203	15633.8
1670.08756	14464.1
1673.36092	13733.4
1676.63211	13294.5
1679.90115	12941.8
1683.16801	12690.3
1686.43272	12530.2
1689.69527	12393.3
1692.95567	12242.9
1696.2139	12109.1
1699.46999	11990.3
1702.72392	11951.5
1705.97571	11991.4
1709.22535	12099.4
1712.47284	12144.2
1715.71819	12186.7
1718.96139	12185.7
1722.20246	12146.7
1725.44139	12027
1728.67818	11907.4
1731.91284	11768
1735.14537	11673.6
1738.37576	11585.9
1741.60403	11537.4
1744.83017	11507.8
1748.05418	11431.2
1751.27607	11370
1754.49584	11279.5
1757.71349	11213.4
1760.92903	11176.4
1764.14244	11117.8
1767.35375	11100
1770.56294	11057.4
1773.77002	11038.1
1776.97499	11023.3
1780.17785	11035.6
1783.37861	11034.9
1786.57727	11011.5
1789.77382	11005.3
1792.96828	10992.1
1796.16064	11001.4
1799.3509	10968.1
1802.53907	10971
1805.72514	10944.4
1808.90913	10907.7
1812.09102	10881.9
1815.27083	10827.8
1818.44856	10792.2
1821.6242	10784.4
1824.79776	10764
1827.96924	10784.2
1831.13864	10752.8
1834.30597	10731.7
1837.47122	10713.4
1840.6344	10724.1
1843.7955	10679.4
1846.95454	10679.6
1850.11151	10666.8
1853.26642	10663.5
1856.41926	10688.4
1859.57004	10694.2
1862.71876	10716.6
1865.86542	10754.9
1869.01003	10738.4
1872.15258	10728
1875.29308	10750.5
1878.43152	10752.5
1881.56792	10758.3
1884.70227	10778
1887.83457	10769.1
1890.96482	10799.7
1894.09304	10766
1897.21921	10804.6
1900.34335	10818.4
1903.46544	10840.8
1906.58551	10829.4
1909.70353	10809.3
1912.81953	10835.8
1915.93349	10839.5
1919.04543	10798.3
1922.15534	10795.6
1925.26322	10757
1928.36908	10690.6
1931.47292	10638.9
1934.57473	10594.2
1937.67453	10504.4
1940.77232	10497.9
1943.86808	10422.2
1946.96184	10410.7
1950.05358	10356.1
1953.14331	10322.8
1956.23103	10294.7
1959.31675	10248
1962.40046	10245.5
1965.48217	10219.7
1968.56188	10181.5
1971.63959	10183
1974.7153	10143.9
1977.78901	10121
1980.86073	10102.6
1983.93046	10033.3
1986.99819	9983.6
1990.06394	9938.1
1993.1277	9921.4
1996.18947	9868.1
1999.24925	9837.8
2002.30706	9792.4
2005.36288	9778.8
2008.41672	9757.6
2011.46859	9701.6
2014.51848	9694.6
2017.56639	9671.6
2020.61233	9650.8
2023.6563	9627.9
2026.6983	9604.1
2029.73833	9594.8
2032.7764	9559.9
2035.8125	9533.4
2038.84664	9543.4
2041.87881	9523.5
2044.90903	9480.9
2047.93729	9485.5
2050.96359	9480.5
2053.98794	9439.8
2057.01034	9449.2
2060.03078	9417.4
2063.04927	9396.2
2066.06582	9417.9
2069.08042	9389.3
2072.09307	9390
2075.10378	9385
2078.11255	9389.8
2081.11938	9389.9
2084.12426	9348.3
2087.12722	9384.6
2090.12824	9366.7
2093.12732	9358.8
2096.12447	9355
2099.11969	9341.7
2102.11299	9371.6
2105.10435	9383
2108.09379	9374.8
2111.08131	9373.4
2114.0669	9419.9
2117.05057	9406
2120.03233	9424.1
2123.01216	9447.6
2125.99008	9444.8
2128.96609	9454.6
2131.94018	9462.2
2134.91236	9430.7
2137.88263	9465.7
2140.851	9439.1
2143.81746	9436.4
2146.78201	9420.4
2149.74466	9437.9
2152.7054	9424.8
2155.66425	9396.6
2158.6212	9395.6
2161.57625	9414.8
2164.52941	9390.1
2167.48067	9363
2170.43004	9369.9
2173.37752	9380.4
2176.32311	9372.5
2179.26681	9385.5
2182.20863	9391.9
2185.14856	9400.3
2188.08661	9405.2
2191.02278	9401.9
2193.95707	9387.8
2196.88948	9370.3
2199.82001	9389.1
2202.74867	9365.9
2205.67545	9387.9
2208.60037	9356.6
2211.52341	9355.4
2214.44458	9346.2
2217.36388	9317.6
2220.28132	9286.7
2223.1969	9273.6
2226.11061	9259.3
2229.02246	9213.8
2231.93245	9207.8
2234.84058	9191.8
2237.74686	9192.8
2240.65128	9186.5
2243.55385	9155.4
2246.45456	9172.3
2249.35343	9165.7
2252.25044	9160.1
2255.14561	9184.3
2258.03893	9199.7
2260.93041	9219.9
2263.82004	9207.1
2266.70783	9175.5
2269.59378	9133.8
2272.4779	9112.2
2275.36017	9084.5
2278.24061	9089.6
2281.11922	9043.7
2283.996	9038.5
2286.87094	9018.1
2289.74405	8994.2
2292.61534	8973.1
2295.4848	8964.4
2298.35243	8953.7
2301.21824	8942.9
2304.08223	8948.3
2306.94439	8945.3
2309.80474	8966.6
2312.66327	8984
2315.51999	8965.1
2318.37489	8957.7
2321.22797	8932.8
2324.07925	8921.3
2326.92871	8920.2
2329.77637	8905.5
2332.62222	8892
2335.46626	8902
2338.3085	8907.9
2341.14893	8904.6
2343.98756	8915.1
2346.8244	8920.9
2349.65943	8919.2
2352.49267	8939.6
2355.32411	8965
2358.15376	9020.9
2360.98161	9024.3
2363.80768	9014.9
2366.63195	9041.5
2369.45444	9043.2
2372.27514	9028.8
2375.09405	9033.1
2377.91118	8991.8
2380.72652	8975.6
2383.54009	8917.8
2386.35187	8869
2389.16188	8828.1
2391.97011	8817
2394.77657	8779.9
2397.58125	8720.6
2400.38416	8719
2403.18529	8715.8
2405.98466	8696.3
2408.78226	8662.2
2411.57809	8629.1
2414.37216	8623.8
2417.16446	8618.4
2419.955	8594.1
2422.74378	8604.9
2425.5308	8606.8
2428.31606	8607.1
2431.09956	8611.6
2433.88131	8603.2
2436.6613	8625.8
2439.43954	8648.3
2442.21603	8646.2
2444.99077	8631.2
2447.76377	8652.1
2450.53501	8662
2453.30451	8671.5
2456.07226	8669.4
2458.83827	8674.9
2461.60254	8649.5
2464.36507	8639.3
2467.12586	8633.2
2469.88492	8647.6
2472.64224	8667.3
2475.39782	8652.7
2478.15167	8679.6
2480.90379	8706.4
2483.65417	8746.3
2486.40283	8780.7
2489.14976	8809.5
2491.89497	8803.9
2494.63845	8828
2497.3802	8812.5
2500.12024	8804.8
2502.85855	8780.7
2505.59514	8744.7
2508.33002	8703.2
2511.06318	8655.3
2513.79462	8623.3
2516.52435	8572.9
2519.25237	8536.4
2521.97867	8511.7
2524.70327	8510.6
2527.42616	8465.6
2530.14734	8483.7
2532.86681	8491.6
2535.58458	8503.7
2538.30065	8479.5
2541.01501	8472.8
2543.72768	8480.2
2546.43864	8465.2
2549.14791	8473.7
2551.85548	8481.5
2554.56136	8479.6
2557.26554	8457.4
2559.96803	8449.8
2562.66883	8454.1
2565.36794	8452.5
2568.06536	8449.3
2570.7611	8425.9
2573.45514	8405.5
2576.14751	8406.3
2578.83819	8388.2
2581.52719	8400.9
2584.21451	8382
2586.90015	8384.9
2589.58411	8353
2592.2664	8359.2
2594.94701	8356.8
2597.62594	8366.6
2600.30321	8343.8
2602.9788	8356
2605.65273	8330.6
2608.32498	8347.5
2610.99557	8354.9
2613.66449	8357.2
2616.33175	8379.2
2618.99734	8407.3
2621.66128	8401.8
2624.32355	8366.1
2626.98416	8355.3
2629.64311	8318.1
2632.30041	8328.1
2634.95605	8306
2637.61004	8298.4
2640.26238	8275.4
2642.91306	8263.1
2645.56209	8248.2
2648.20948	8217.7
2650.85521	8219.6
2653.4993	8234.3
2656.14175	8235.1
2658.78255	8254.3
2661.42171	8263.2
2664.05923	8276.1
2666.6951	8304.4
2669.32934	8321.3
2671.96194	8320
2674.59291	8359.5
2677.22224	8338.8
2679.84993	8333
2682.476	8326.9
2685.10043	8342.8
2687.72324	8305.6
2690.34441	8309.6
2692.96396	8328.5
2695.58188	8318.5
2698.19818	8279.4
2700.81285	8285.8
2703.4259	8276.3
2706.03733	8239.7
2708.64714	8259.9
2711.25533	8300.3
2713.86191	8299.3
2716.46687	8314.9
2719.07021	8329.2
2721.67194	8363.2
2724.27206	8348.1
2726.87057	8370.2
2729.46747	8360
2732.06276	8366
2734.65644	8341.9
2737.24852	8348.7
2739.83899	8322.9
2742.42786	8326.2
2745.01513	8280.9
2747.60079	8278.8
2750.18486	8281.1
2752.76733	8280.3
2755.3482	8225.1
2757.92747	8238.6
2760.50515	8226.6
2763.08123	8217.8
2765.65573	8224.9
2768.22863	8234.3
2770.79994	8233.9
2773.36967	8219.5
2775.9378	8215.7
2778.50435	8219.1
2781.06932	8231.6
2783.6327	8241
2786.1945	8225.8
2788.75471	8230.8
2791.31335	8222
2793.87041	8217.3
2796.42589	8212.7
2798.97979	8217.5
2801.53212	8203
2804.08288	8205.3
2806.63206	8191.3
2809.17967	8195.8
2811.72571	8207
2814.27018	8217.8
2816.81308	8222.1
2819.35442	8241.2
2821.89419	8260.5
2824.43239	8278.7
2826.96904	8268.9
2829.50412	8262.6
2832.03763	8236.2
2834.56959	8266.5
2837.1	8262.4
2839.62884	8272.4
2842.15613	8257.1
2844.68186	8296.5
2847.20604	8330
2849.72867	8326.2
2852.24974	8328.2
2854.76927	8333.1
2857.28724	8323.8
2859.80367	8339.7
2862.31855	8338.4
2864.83189	8358.9
2867.34368	8359.2
2869.85393	8376.2
2872.36264	8346.8
2874.8698	8352.8
2877.37543	8354.2
2879.87952	8345.8
2882.38207	8338.6
2884.88308	8294.1
2887.38256	8308.1
2889.88051	8306.7
2892.37692	8306.4
2894.8718	8320.1
2897.36515	8331
2899.85698	8315.3
2902.34727	8325.6
2904.83604	8329.1
2907.32328	8330.1
2909.809	8299
2912.29319	8333.7
2914.77587	8328.5
2917.25702	8306
2919.73665	8260.5
2922.21476	8272.8
2924.69136	8232
2927.16644	8238.6
2929.64	8209.6
2932.11205	8210.1
2934.58258	8156.9
2937.05161	8143.3
2939.51912	8153.5
2941.98513	8132
2944.44962	8099.5
2946.91261	8071.5
2949.37409	8100.7
2951.83407	8073.1
2954.29254	8072.5
2956.74951	8041.9
2959.20498	8038.5
2961.65895	8023.9
2964.11142	8001.8
2966.56239	7988
2969.01186	7983.4
2971.45984	7958.1
2973.90632	7940.8
2976.35131	7891.9
2978.7948	7890.4
2981.23681	7899.4
2983.67732	7880.4
2986.11635	7859.3
2988.55388	7820
2990.98993	7823
2993.4245	7804.7
2995.85758	7815
2998.28917	7783.3
3000.71928	7763.5
3003.14791	7754.9
3005.57506	7753
3008.00073	7732.7
3010.42493	7731.2
3012.84764	7699
3015.26888	7704.1
3017.68865	7676.7
3020.10694	7670.8
3022.52376	7655.2
3024.9391	7624.6
3027.35298	7599.1
3029.76539	7592.4
3032.17632	7572.3
3034.5858	7552.1
3036.9938	7553.4
3039.40034	7538
3041.80542	7504.1
3044.20903	7497.2
3046.61118	7493.7
3049.01187	7468.6
3051.4111	7468.3
3053.80888	7446.9
3056.20519	7440.3
3058.60005	7423.2
3060.99345	7393.1
3063.3854	7375.1
3065.7759	7350.5
3068.16494	7337.9
3070.55254	7291.1
3072.93868	7266.1
3075.32338	7235.8
3077.70662	7230.1
3080.08842	7210.1
3082.46878	7182.5
3084.84769	7177.2
3087.22515	7160.7
3089.60118	7159.1
3091.97576	7159.2
3094.3489	7144.2
3096.72061	7163.7
3099.09087	7164
3101.4597	7144.1
3103.82709	7139.3
3106.19305	7131.8
3108.55757	7128.4
3110.92066	7122.9
3113.28232	7116.6
3115.64255	7100.3
3118.00134	7087.2
3120.35871	7071.4
3122.71466	7069.8
3125.06917	7039.9
3127.42226	7030.1
3129.77393	7034.3
3132.12417	7038.8
3134.47299	7041.1
3136.82039	7038.4
3139.16636	7026.6
3141.51092	7027.6
3143.85406	7034.2
3146.19579	7046
3148.53609	7041.7
3150.87499	7058.8
3153.21246	7061
3155.54853	7082.6
3157.88318	7088.4
3160.21642	7087.3
3162.54826	7093.3
3164.87868	7085.1
3167.2077	7085.2
3169.5353	7065.3
3171.86151	7083.8
3174.18631	7073.6
3176.5097	7063.8
3178.83169	7049.9
3181.15228	7075.5
3183.47147	7040.8
3185.78926	7036.9
3188.10565	7060
3190.42065	7042.7
3192.73424	7050.5
3195.04645	7036.3
3197.35725	7055.6
3199.66667	7058
3201.97469	7054.8
3204.28132	7066.1
3206.58656	7090.6
3208.8904	7104.1
3211.19287	7098.6
3213.49394	7129.8
3215.79363	7115.3
3218.09193	7126.8
3220.38884	7137.7
3222.68438	7120.5
3224.97853	7116.5
3227.2713	7117
3229.56269	7116.3
3231.8527	7126.1
3234.14133	7114.5
3236.42858	7082.4
3238.71446	7076.9
3240.99896	7077.6
3243.28209	7070
3245.56384	7054.8
3247.84423	7054.4
3250.12324	7046.2
3252.40088	7043.4
3254.67715	7053.3
3256.95205	7016.4
3259.22558	7038.8
3261.49775	7017.2
3263.76855	7038.6
3266.03799	7018
3268.30606	6998.7
3270.57277	7011.6
3272.83812	6996.1
3275.10211	6992.7
3277.36474	6968.8
3279.62601	6964.9
3281.88593	6949.9
3284.14448	6977.3
3286.40168	6985.1
3288.65753	6964.5
3290.91202	6958.2
3293.16516	6953.4
3295.41695	6939.1
3297.66738	6906
3299.91647	6864.2
3302.16421	6832
3304.4106	6781.4
3306.65564	6747.5
3308.89933	6695
3311.14169	6638.3
3313.38269	6560.4
3315.62236	6533.2
3317.86068	6477.5
3320.09766	6422.5
3322.3333	6380.4
3324.5676	6350.3
3326.80056	6227.8
3329.03219	6186.5
3331.26248	2.2
3333.49143	-0.9
3335.71905	1.6
