Data from AgNPs_FTO_APTES_UA_50uM_CRN_5uM_R6G_10uM_NaF_0.1M_Addition_RamanShift__22__12-58-14-837.txt Node

Date: Mon Feb 21 12:58:14 GMT 2022
User: TCL
Spectrometer: QEP01345
Trigger mode: 4
Integration Time (sec): 7.000000E0
Scans to average: 10
Electric dark correction enabled: true
Nonlinearity correction enabled: false
Boxcar width: 0
XAxis mode: Raman Shifts
Number of Pixels in Spectrum: 1044
>>>>>Begin Spectral Data<<<<<
46.04893	0.1875
50.45542	-0.4125
54.85868	-0.6125
59.25871	-0.9125
63.6555	62.8875
68.04907	66.3875
72.43941	68.3875
76.82654	71.2875
81.21044	75.1875
85.59113	76.0875
89.96862	77.0875
94.34289	84.3875
98.71396	83.6875
103.08183	90.5875
107.4465	91.5875
111.80798	92.5875
116.16626	92.7875
120.52136	95.8875
124.87327	102.9875
129.222	103.3875
133.56755	109.0875
137.90993	119.4875
142.24913	127.2875
146.58517	145.5875
150.91804	161.8875
155.24774	197.4875
159.57429	244.2875
163.89768	316.6875
168.21792	425.5875
172.53501	574.9875
176.84895	805.9875
181.15975	1130.2875
185.46741	1577.9875
189.77193	2187.6875
194.07331	2941.8875
198.37157	3787.8875
202.6667	4684.9875
206.9587	5617.0875
211.24758	6563.3875
215.53334	7600.5875
219.81599	8787.2875
224.09553	10151.4875
228.37195	11663.7875
232.64527	13272.9875
236.91549	14796.1875
241.18261	16072.1875
245.44663	16983.0875
249.70755	17573.9875
253.96539	18100.6875
258.22014	18628.8875
262.4718	19074.3875
266.72039	19378.8875
270.96589	19373.2875
275.20832	19078.5875
279.44768	18580.9875
283.68397	18031.6875
287.91719	17709.9875
292.14735	17824.9875
296.37445	18407.5875
300.59849	19547.3875
304.81948	20865.9875
309.03742	21888.7875
313.25231	21946.2875
317.46415	20740.7875
321.67296	18675.7875
325.87872	16959.7875
330.08145	16133.6875
334.28114	16085.6875
338.47781	16442.8875
342.67145	17048.9875
346.86207	17934.0875
351.04966	19344.9875
355.23424	20949.9875
359.4158	22223.3875
363.59435	22752.9875
367.76989	22791.8875
371.94243	22544.4875
376.11196	22177.7875
380.27849	21881.1875
384.44203	21481.0875
388.60257	21044.5875
392.76012	20789.5875
396.91468	20931.1875
401.06626	21455.0875
405.21485	21835.0875
409.36047	21131.7875
413.50311	19533.9875
417.64277	18018.3875
421.77947	17112.4875
425.9132	16735.2875
430.04396	16620.9875
434.17176	16628.5875
438.2966	16896.6875
442.41849	17410.5875
446.53742	18100.1875
450.6534	18740.5875
454.76644	19055.4875
458.87653	19028.8875
462.98368	18744.3875
467.08789	18374.2875
471.18916	17880.8875
475.2875	17349.5875
479.38291	16868.3875
483.4754	16518.6875
487.56496	16210.1875
491.6516	15975.2875
495.73531	15868.8875
499.81612	15893.5875
503.89401	16190.1875
507.96899	16511.3875
512.04106	16825.7875
516.11023	17270.9875
520.1765	17557.8875
524.23987	17532.0875
528.30034	17245.3875
532.35792	16927.8875
536.41261	16486.2875
540.46441	16017.0875
544.51333	15741.2875
548.55936	15849.8875
552.60252	16274.5875
556.64279	16912.2875
560.6802	17303.1875
564.71473	17875.9875
568.7464	19059.8875
572.7752	19590.4875
576.80114	18631.7875
580.82422	17564.5875
584.84444	17135.4875
588.86181	17263.6875
592.87633	17707.9875
596.888	18155.8875
600.89682	18819.1875
604.9028	21694.2875
608.90594	30230.0875
612.90624	41265.5875
616.90371	38725.8875
620.89834	24582.2875
624.89015	18029.9875
628.87913	16868.3875
632.86528	17262.1875
636.84862	17759.2875
640.82913	17312.0875
644.80683	16006.8875
648.78172	15011.8875
652.75379	14942.2875
656.72306	15896.2875
660.68952	17102.5875
664.65319	16744.6875
668.61405	15459.1875
672.57211	14908.4875
676.52738	14981.8875
680.47986	15046.6875
684.42955	14865.3875
688.37646	14738.8875
692.32058	14791.8875
696.26192	14886.8875
700.20048	15071.1875
704.13626	15134.0875
708.06928	14943.0875
711.99952	14719.1875
715.927	14667.5875
719.85171	14796.2875
723.77365	14916.4875
727.69284	14750.7875
731.60928	14530.8875
735.52295	14488.6875
739.43388	14550.1875
743.34206	14706.3875
747.24749	14778.4875
751.15017	14829.3875
755.05012	15151.5875
758.94733	16363.4875
762.8418	19398.0875
766.73354	24573.8875
770.62254	29605.2875
774.50882	31848.9875
778.39237	30031.9875
782.27321	24893.3875
786.15132	19762.9875
790.02671	16723.4875
793.89938	15350.7875
797.76935	14788.6875
801.6366	14540.3875
805.50115	14376.3875
809.36299	14249.1875
813.22213	14125.3875
817.07857	14059.0875
820.93231	14072.3875
824.78336	14060.7875
828.63172	14145.4875
832.47738	14214.3875
836.32036	14128.4875
840.16066	14012.3875
843.99827	13912.5875
847.8332	13865.2875
851.66546	13814.7875
855.49504	13794.1875
859.32195	13790.1875
863.1462	13727.5875
866.96777	13690.5875
870.78668	13660.4875
874.60293	13657.8875
878.41652	13720.1875
882.22745	13874.8875
886.03573	13982.0875
889.84136	13989.7875
893.64433	13928.2875
897.44466	13870.3875
901.24235	13844.4875
905.0374	13706.0875
908.8298	13469.1875
912.61957	13323.1875
916.40671	13372.8875
920.19121	13512.2875
923.97308	13755.8875
927.75233	14077.3875
931.52895	14485.3875
935.30295	14283.7875
939.07433	13610.4875
942.84309	13072.2875
946.60924	12784.5875
950.37278	12600.8875
954.13371	12545.3875
957.89203	12471.2875
961.64774	12394.6875
965.40086	12351.4875
969.15137	12291.0875
972.89929	12257.7875
976.64461	12214.9875
980.38733	12235.3875
984.12747	12266.2875
987.86502	12360.7875
991.59999	12546.6875
995.33237	12841.2875
999.06217	13361.7875
1002.78939	14020.4875
1006.51404	14612.1875
1010.23611	15029.8875
1013.95561	15176.8875
1017.67255	15120.0875
1021.38692	14848.8875
1025.09872	14499.1875
1028.80796	14419.2875
1032.51465	14717.9875
1036.21877	15102.0875
1039.92035	15227.2875
1043.61937	15194.9875
1047.31584	14890.5875
1051.00976	14546.9875
1054.70114	14278.5875
1058.38998	14148.6875
1062.07627	14130.7875
1065.76003	14146.0875
1069.44126	14194.8875
1073.11995	14454.0875
1076.79611	14843.4875
1080.46974	15413.1875
1084.14085	16227.3875
1087.80943	16983.9875
1091.47549	17239.7875
1095.13903	16771.8875
1098.80005	15927.3875
1102.45857	15262.8875
1106.11456	15108.4875
1109.76805	15398.4875
1113.41903	16046.6875
1117.06751	17082.0875
1120.71348	18427.7875
1124.35696	19887.3875
1127.99793	21011.5875
1131.63641	20535.0875
1135.2724	18976.9875
1138.90589	17525.7875
1142.5369	16634.9875
1146.16542	16049.9875
1149.79145	15696.8875
1153.415	15618.2875
1157.03607	15766.9875
1160.65467	16234.5875
1164.27079	17113.1875
1167.88443	18600.5875
1171.49561	20830.9875
1175.10432	24421.9875
1178.71056	29352.1875
1182.31434	33571.8875
1185.91565	34693.6875
1189.51451	32938.5875
1193.11091	29946.3875
1196.70485	27028.4875
1200.29634	24924.2875
1203.88538	23242.1875
1207.47197	21239.1875
1211.05612	19516.2875
1214.63782	18461.3875
1218.21708	18154.4875
1221.79391	18202.0875
1225.36829	18375.4875
1228.94024	18185.8875
1232.50976	17844.8875
1236.07685	17547.3875
1239.6415	17394.2875
1243.20374	17400.3875
1246.76355	17560.8875
1250.32093	17856.0875
1253.8759	18433.5875
1257.42845	19276.5875
1260.97859	20311.9875
1264.52631	21455.8875
1268.07163	22610.2875
1271.61453	23684.2875
1275.15503	24399.0875
1278.69312	24929.0875
1282.22882	25421.1875
1285.76211	26327.2875
1289.29301	27572.9875
1292.82151	28993.3875
1296.34761	30637.3875
1299.87133	33203.3875
1303.39266	37441.2875
1306.9116	43718.6875
1310.42815	50089.9875
1313.94233	52310.5875
1317.45412	49119.3875
1320.96354	43562.2875
1324.47058	38386.7875
1327.97525	34400.2875
1331.47754	32010.5875
1334.97747	31043.8875
1338.47502	31234.8875
1341.97022	32363.9875
1345.46305	34460.4875
1348.95352	37486.1875
1352.44163	41411.0875
1355.92738	47282.8875
1359.41078	56513.4875
1362.89183	64891.8875
1366.37053	61573.5875
1369.84688	48727.6875
1373.32088	37724.5875
1376.79254	31550.3875
1380.26186	28282.2875
1383.72883	26332.1875
1387.19347	24881.1875
1390.65578	23764.5875
1394.11575	23141.0875
1397.57339	22977.4875
1401.0287	23141.6875
1404.48168	23325.4875
1407.93234	23338.1875
1411.38068	23281.2875
1414.82669	23053.5875
1418.27039	22719.8875
1421.71177	22120.4875
1425.15083	21414.8875
1428.58758	21221.5875
1432.02203	21601.4875
1435.45416	22114.3875
1438.88399	22288.4875
1442.31151	22270.9875
1445.73673	22456.4875
1449.15965	22739.9875
1452.58027	22799.9875
1455.9986	22715.5875
1459.41463	22777.6875
1462.82837	23172.0875
1466.23982	23936.7875
1469.64898	24537.5875
1473.05586	24797.2875
1476.46045	24835.7875
1479.86276	24984.9875
1483.26279	25443.1875
1486.66054	26222.5875
1490.05602	27445.1875
1493.44922	29321.9875
1496.84016	32227.4875
1500.22882	37132.5875
1503.61521	44420.2875
1506.99934	52919.0875
1510.38121	59380.5875
1513.76081	59759.9875
1517.13816	53305.4875
1520.51324	43821.9875
1523.88607	35814.7875
1527.25665	30881.8875
1530.62498	28202.4875
1533.99105	26604.2875
1537.35488	25587.8875
1540.71647	24824.5875
1544.07581	24380.0875
1547.4329	24243.6875
1550.78776	24341.9875
1554.14038	24573.4875
1557.49077	24968.6875
1560.83892	25679.3875
1564.18484	26861.4875
1567.52853	28318.8875
1570.86999	29483.7875
1574.20922	30065.4875
1577.54624	29616.9875
1580.88103	27477.2875
1584.2136	24873.6875
1587.54395	23637.2875
1590.87208	24107.9875
1594.19801	26076.5875
1597.52172	28451.1875
1600.84321	29233.0875
1604.16251	27661.7875
1607.47959	25117.4875
1610.79447	22546.9875
1614.10715	20249.3875
1617.41763	18397.3875
1620.7259	17315.2875
1624.03199	16871.2875
1627.33587	17068.5875
1630.63757	17883.3875
1633.93707	19505.4875
1637.23439	22063.9875
1640.52951	25983.6875
1643.82246	31526.3875
1647.11321	37761.8875
1650.40179	41485.7875
1653.68819	38998.5875
1656.97241	31671.9875
1660.25446	24264.7875
1663.53433	19279.1875
1666.81203	16466.7875
1670.08756	14883.9875
1673.36092	13940.0875
1676.63211	13338.3875
1679.90115	12918.6875
1683.16801	12577.9875
1686.43272	12365.8875
1689.69527	12145.2875
1692.95567	12005.8875
1696.2139	11809.1875
1699.46999	11644.2875
1702.72392	11574.8875
1705.97571	11619.4875
1709.22535	11690.5875
1712.47284	11702.2875
1715.71819	11677.1875
1718.96139	11634.1875
1722.20246	11537.4875
1725.44139	11427.4875
1728.67818	11279.4875
1731.91284	11153.4875
1735.14537	11065.9875
1738.37576	10963.9875
1741.60403	10910.8875
1744.83017	10847.6875
1748.05418	10814.8875
1751.27607	10740.8875
1754.49584	10625.7875
1757.71349	10560.0875
1760.92903	10484.9875
1764.14244	10462.1875
1767.35375	10398.4875
1770.56294	10339.0875
1773.77002	10302.1875
1776.97499	10299.8875
1780.17785	10302.2875
1783.37861	10300.3875
1786.57727	10280.3875
1789.77382	10248.7875
1792.96828	10225.8875
1796.16064	10220.9875
1799.3509	10196.9875
1802.53907	10199.1875
1805.72514	10128.8875
1808.90913	10111.8875
1812.09102	10067.4875
1815.27083	10033.4875
1818.44856	10012.8875
1821.6242	9973.8875
1824.79776	9956.9875
1827.96924	9930.5875
1831.13864	9938.1875
1834.30597	9914.8875
1837.47122	9893.2875
1840.6344	9874.9875
1843.7955	9884.0875
1846.95454	9864.2875
1850.11151	9850.5875
1853.26642	9846.2875
1856.41926	9853.4875
1859.57004	9850.6875
1862.71876	9863.0875
1865.86542	9834.1875
1869.01003	9862.6875
1872.15258	9847.8875
1875.29308	9868.6875
1878.43152	9862.1875
1881.56792	9867.8875
1884.70227	9876.1875
1887.83457	9887.2875
1890.96482	9871.0875
1894.09304	9866.8875
1897.21921	9834.6875
1900.34335	9859.1875
1903.46544	9890.9875
1906.58551	9845.3875
1909.70353	9850.3875
1912.81953	9854.1875
1915.93349	9811.3875
1919.04543	9796.2875
1922.15534	9737.4875
1925.26322	9701.1875
1928.36908	9647.9875
1931.47292	9564.2875
1934.57473	9530.9875
1937.67453	9501.8875
1940.77232	9440.2875
1943.86808	9439.2875
1946.96184	9391.0875
1950.05358	9356.3875
1953.14331	9299.9875
1956.23103	9285.6875
1959.31675	9266.6875
1962.40046	9221.2875
1965.48217	9244.1875
1968.56188	9226.0875
1971.63959	9225.5875
1974.7153	9188.6875
1977.78901	9123.5875
1980.86073	9105.9875
1983.93046	9042.2875
1986.99819	8999.9875
1990.06394	8963.9875
1993.1277	8930.0875
1996.18947	8876.3875
1999.24925	8851.9875
2002.30706	8841.0875
2005.36288	8781.4875
2008.41672	8774.9875
2011.46859	8725.8875
2014.51848	8726.4875
2017.56639	8693.1875
2020.61233	8670.7875
2023.6563	8652.8875
2026.6983	8626.7875
2029.73833	8616.6875
2032.7764	8607.5875
2035.8125	8579.2875
2038.84664	8565.4875
2041.87881	8546.9875
2044.90903	8541.6875
2047.93729	8539.8875
2050.96359	8513.6875
2053.98794	8486.0875
2057.01034	8479.2875
2060.03078	8476.2875
2063.04927	8459.9875
2066.06582	8452.6875
2069.08042	8437.5875
2072.09307	8422.7875
2075.10378	8424.9875
2078.11255	8401.9875
2081.11938	8401.5875
2084.12426	8390.7875
2087.12722	8381.0875
2090.12824	8390.1875
2093.12732	8380.7875
2096.12447	8390.4875
2099.11969	8389.5875
2102.11299	8408.7875
2105.10435	8398.6875
2108.09379	8387.1875
2111.08131	8395.4875
2114.0669	8399.7875
2117.05057	8432.2875
2120.03233	8430.1875
2123.01216	8434.9875
2125.99008	8456.8875
2128.96609	8457.2875
2131.94018	8453.8875
2134.91236	8433.0875
2137.88263	8452.2875
2140.851	8417.4875
2143.81746	8419.7875
2146.78201	8414.3875
2149.74466	8387.5875
2152.7054	8376.0875
2155.66425	8366.9875
2158.6212	8370.5875
2161.57625	8348.6875
2164.52941	8356.7875
2167.48067	8321.4875
2170.43004	8326.9875
2173.37752	8344.7875
2176.32311	8360.6875
2179.26681	8361.8875
2182.20863	8363.6875
2185.14856	8365.0875
2188.08661	8379.7875
2191.02278	8354.3875
2193.95707	8340.1875
2196.88948	8323.2875
2199.82001	8308.9875
2202.74867	8315.5875
2205.67545	8326.9875
2208.60037	8290.0875
2211.52341	8305.7875
2214.44458	8302.1875
2217.36388	8304.7875
2220.28132	8281.6875
2223.1969	8241.0875
2226.11061	8236.2875
2229.02246	8205.1875
2231.93245	8202.4875
2234.84058	8210.6875
2237.74686	8182.0875
2240.65128	8151.5875
2243.55385	8145.3875
2246.45456	8172.6875
2249.35343	8168.4875
2252.25044	8140.5875
2255.14561	8137.4875
2258.03893	8167.2875
2260.93041	8148.3875
2263.82004	8155.4875
2266.70783	8150.8875
2269.59378	8116.9875
2272.4779	8118.3875
2275.36017	8083.3875
2278.24061	8046.2875
2281.11922	8052.8875
2283.996	8035.2875
2286.87094	8000.5875
2289.74405	7964.7875
2292.61534	7979.0875
2295.4848	7951.3875
2298.35243	7958.7875
2301.21824	7944.8875
2304.08223	7934.6875
2306.94439	7926.1875
2309.80474	7944.0875
2312.66327	7969.4875
2315.51999	7948.8875
2318.37489	7956.6875
2321.22797	7956.3875
2324.07925	7939.1875
2326.92871	7928.6875
2329.77637	7918.3875
2332.62222	7907.6875
2335.46626	7949.0875
2338.3085	7935.5875
2341.14893	7934.3875
2343.98756	7953.6875
2346.8244	7969.4875
2349.65943	8013.2875
2352.49267	8035.9875
2355.32411	8039.2875
2358.15376	8065.9875
2360.98161	8062.2875
2363.80768	8071.5875
2366.63195	8095.4875
2369.45444	8092.9875
2372.27514	8101.0875
2375.09405	8061.0875
2377.91118	8028.3875
2380.72652	8003.5875
2383.54009	7963.2875
2386.35187	7896.8875
2389.16188	7857.4875
2391.97011	7868.0875
2394.77657	7820.0875
2397.58125	7812.5875
2400.38416	7776.0875
2403.18529	7760.8875
2405.98466	7739.5875
2408.78226	7721.9875
2411.57809	7692.7875
2414.37216	7676.0875
2417.16446	7678.2875
2419.955	7685.2875
2422.74378	7689.5875
2425.5308	7665.9875
2428.31606	7665.0875
2431.09956	7648.7875
2433.88131	7684.6875
2436.6613	7673.7875
2439.43954	7698.8875
2442.21603	7691.3875
2444.99077	7693.9875
2447.76377	7705.7875
2450.53501	7722.4875
2453.30451	7729.3875
2456.07226	7721.1875
2458.83827	7719.5875
2461.60254	7721.5875
2464.36507	7722.3875
2467.12586	7744.4875
2469.88492	7726.6875
2472.64224	7748.6875
2475.39782	7741.0875
2478.15167	7759.1875
2480.90379	7789.5875
2483.65417	7828.8875
2486.40283	7877.7875
2489.14976	7917.0875
2491.89497	7897.5875
2494.63845	7905.8875
2497.3802	7884.6875
2500.12024	7873.9875
2502.85855	7846.8875
2505.59514	7804.2875
2508.33002	7769.1875
2511.06318	7747.4875
2513.79462	7705.2875
2516.52435	7676.8875
2519.25237	7635.3875
2521.97867	7617.4875
2524.70327	7568.3875
2527.42616	7595.1875
2530.14734	7566.0875
2532.86681	7567.2875
2535.58458	7564.5875
2538.30065	7596.8875
2541.01501	7572.0875
2543.72768	7578.8875
2546.43864	7587.2875
2549.14791	7582.7875
2551.85548	7595.7875
2554.56136	7560.8875
2557.26554	7591.4875
2559.96803	7586.7875
2562.66883	7594.2875
2565.36794	7585.1875
2568.06536	7584.8875
2570.7611	7571.9875
2573.45514	7554.5875
2576.14751	7556.0875
2578.83819	7539.7875
2581.52719	7514.6875
2584.21451	7514.3875
2586.90015	7515.7875
2589.58411	7514.4875
2592.2664	7520.0875
2594.94701	7497.2875
2597.62594	7539.4875
2600.30321	7529.0875
2602.9788	7513.9875
2605.65273	7514.0875
2608.32498	7524.5875
2610.99557	7511.5875
2613.66449	7537.9875
2616.33175	7555.4875
2618.99734	7568.2875
2621.66128	7574.2875
2624.32355	7544.4875
2626.98416	7547.4875
2629.64311	7542.8875
2632.30041	7533.5875
2634.95605	7495.3875
2637.61004	7500.0875
2640.26238	7461.4875
2642.91306	7469.5875
2645.56209	7450.3875
2648.20948	7433.3875
2650.85521	7433.7875
2653.4993	7432.4875
2656.14175	7438.9875
2658.78255	7493.0875
2661.42171	7492.8875
2664.05923	7513.9875
2666.6951	7538.5875
2669.32934	7541.4875
2671.96194	7543.1875
2674.59291	7542.4875
2677.22224	7560.1875
2679.84993	7541.9875
2682.476	7514.4875
2685.10043	7531.7875
2687.72324	7520.4875
2690.34441	7509.6875
2692.96396	7477.8875
2695.58188	7491.2875
2698.19818	7491.5875
2700.81285	7462.8875
2703.4259	7447.2875
2706.03733	7373.3875
2708.64714	7426.6875
2711.25533	7450.9875
2713.86191	7470.0875
2716.46687	7510.4875
2719.07021	7511.1875
2721.67194	7501.5875
2724.27206	7522.1875
2726.87057	7522.5875
2729.46747	7542.2875
2732.06276	7518.8875
2734.65644	7528.2875
2737.24852	7504.4875
2739.83899	7477.8875
2742.42786	7471.2875
2745.01513	7480.7875
2747.60079	7463.5875
2750.18486	7460.4875
2752.76733	7423.5875
2755.3482	7423.0875
2757.92747	7416.9875
2760.50515	7410.1875
2763.08123	7434.9875
2765.65573	7415.3875
2768.22863	7398.7875
2770.79994	7413.8875
2773.36967	7403.3875
2775.9378	7410.2875
2778.50435	7399.4875
2781.06932	7414.6875
2783.6327	7409.5875
2786.1945	7412.5875
2788.75471	7433.1875
2791.31335	7425.1875
2793.87041	7423.8875
2796.42589	7413.2875
2798.97979	7405.7875
2801.53212	7407.1875
2804.08288	7408.2875
2806.63206	7429.2875
2809.17967	7415.3875
2811.72571	7401.4875
2814.27018	7423.5875
2816.81308	7421.8875
2819.35442	7443.8875
2821.89419	7443.5875
2824.43239	7491.0875
2826.96904	7463.5875
2829.50412	7462.8875
2832.03763	7428.1875
2834.56959	7449.8875
2837.1	7445.6875
2839.62884	7437.6875
2842.15613	7412.0875
2844.68186	7410.2875
2847.20604	7439.8875
2849.72867	7463.1875
2852.24974	7477.5875
2854.76927	7459.2875
2857.28724	7447.2875
2859.80367	7502.7875
2862.31855	7523.1875
2864.83189	7537.9875
2867.34368	7543.4875
2869.85393	7580.6875
2872.36264	7587.7875
2874.8698	7602.5875
2877.37543	7610.0875
2879.87952	7604.4875
2882.38207	7606.6875
2884.88308	7577.7875
2887.38256	7602.9875
2889.88051	7583.3875
2892.37692	7593.3875
2894.8718	7589.0875
2897.36515	7586.4875
2899.85698	7580.6875
2902.34727	7601.0875
2904.83604	7586.9875
2907.32328	7621.3875
2909.809	7619.6875
2912.29319	7608.6875
2914.77587	7611.4875
2917.25702	7590.9875
2919.73665	7574.1875
2922.21476	7583.5875
2924.69136	7552.9875
2927.16644	7545.7875
2929.64	7497.1875
2932.11205	7506.0875
2934.58258	7444.6875
2937.05161	7459.3875
2939.51912	7449.7875
2941.98513	7434.3875
2944.44962	7393.2875
2946.91261	7390.4875
2949.37409	7399.8875
2951.83407	7388.2875
2954.29254	7390.4875
2956.74951	7384.5875
2959.20498	7354.4875
2961.65895	7319.8875
2964.11142	7302.2875
2966.56239	7300.0875
2969.01186	7289.4875
2971.45984	7240.8875
2973.90632	7231.7875
2976.35131	7206.4875
2978.7948	7157.4875
2981.23681	7170.7875
2983.67732	7143.4875
2986.11635	7122.3875
2988.55388	7094.0875
2990.98993	7107.1875
2993.4245	7103.0875
2995.85758	7081.0875
2998.28917	7077.0875
3000.71928	7078.8875
3003.14791	7070.5875
3005.57506	7059.5875
3008.00073	7037.8875
3010.42493	7033.7875
3012.84764	7027.4875
3015.26888	7013.3875
3017.68865	7002.9875
3020.10694	6996.0875
3022.52376	6973.9875
3024.9391	6948.5875
3027.35298	6958.5875
3029.76539	6948.3875
3032.17632	6944.3875
3034.5858	6904.2875
3036.9938	6895.0875
3039.40034	6860.4875
3041.80542	6854.0875
3044.20903	6827.7875
3046.61118	6833.0875
3049.01187	6817.1875
3051.4111	6829.3875
3053.80888	6821.6875
3056.20519	6781.5875
3058.60005	6760.2875
3060.99345	6770.6875
3063.3854	6742.3875
3065.7759	6717.3875
3068.16494	6700.0875
3070.55254	6659.3875
3072.93868	6635.6875
3075.32338	6626.5875
3077.70662	6592.3875
3080.08842	6583.8875
3082.46878	6582.0875
3084.84769	6561.3875
3087.22515	6558.7875
3089.60118	6554.1875
3091.97576	6542.6875
3094.3489	6542.0875
3096.72061	6549.6875
3099.09087	6559.4875
3101.4597	6547.8875
3103.82709	6542.6875
3106.19305	6524.9875
3108.55757	6511.8875
3110.92066	6505.5875
3113.28232	6508.4875
3115.64255	6478.3875
3118.00134	6468.1875
3120.35871	6472.8875
3122.71466	6449.8875
3125.06917	6446.4875
3127.42226	6461.8875
3129.77393	6478.6875
3132.12417	6465.6875
3134.47299	6448.0875
3136.82039	6418.5875
3139.16636	6452.3875
3141.51092	6433.3875
3143.85406	6456.6875
3146.19579	6440.3875
3148.53609	6451.5875
3150.87499	6447.6875
3153.21246	6461.8875
3155.54853	6474.8875
3157.88318	6474.5875
3160.21642	6481.9875
3162.54826	6491.0875
3164.87868	6476.0875
3167.2077	6493.6875
3169.5353	6474.0875
3171.86151	6474.8875
3174.18631	6490.6875
3176.5097	6470.7875
3178.83169	6462.9875
3181.15228	6449.8875
3183.47147	6449.7875
3185.78926	6455.9875
3188.10565	6450.4875
3190.42065	6472.4875
3192.73424	6475.9875
3195.04645	6488.2875
3197.35725	6464.4875
3199.66667	6477.4875
3201.97469	6494.1875
3204.28132	6482.1875
3206.58656	6523.8875
3208.8904	6523.2875
3211.19287	6539.2875
3213.49394	6540.4875
3215.79363	6551.5875
3218.09193	6553.0875
3220.38884	6581.7875
3222.68438	6553.5875
3224.97853	6580.7875
3227.2713	6581.6875
3229.56269	6584.7875
3231.8527	6594.7875
3234.14133	6588.6875
3236.42858	6568.0875
3238.71446	6580.5875
3240.99896	6550.9875
3243.28209	6549.6875
3245.56384	6530.3875
3247.84423	6554.0875
3250.12324	6563.7875
3252.40088	6547.2875
3254.67715	6573.6875
3256.95205	6557.9875
3259.22558	6566.1875
3261.49775	6561.2875
3263.76855	6576.5875
3266.03799	6561.4875
3268.30606	6583.9875
3270.57277	6552.7875
3272.83812	6542.2875
3275.10211	6552.0875
3277.36474	6547.8875
3279.62601	6557.1875
3281.88593	6564.6875
3284.14448	6567.3875
3286.40168	6578.4875
3288.65753	6559.4875
3290.91202	6559.7875
3293.16516	6546.5875
3295.41695	6558.0875
3297.66738	6528.7875
3299.91647	6500.0875
3302.16421	6464.8875
3304.4106	6421.2875
3306.65564	6382.8875
3308.89933	6314.9875
3311.14169	6282.7875
3313.38269	6225.1875
3315.62236	6178.0875
3317.86068	6136.4875
3320.09766	6081.5875
3322.3333	6034.9875
3324.5676	5994.1875
3326.80056	5882.0875
3329.03219	5843.8875
3331.26248	2.4875
3333.49143	-1.1125
3335.71905	0.0875
