Data from AgNPs_FTO_APTES_UA_50uM_CRN_1000uM_R6G_10uM_NaF_0.1M_Addition_RamanShift__20__17-49-33-600.txt Node

Date: Mon Feb 21 17:49:33 GMT 2022
User: TCL
Spectrometer: QEP01345
Trigger mode: 4
Integration Time (sec): 7.000000E0
Scans to average: 10
Electric dark correction enabled: true
Nonlinearity correction enabled: false
Boxcar width: 0
XAxis mode: Raman Shifts
Number of Pixels in Spectrum: 1044
>>>>>Begin Spectral Data<<<<<
46.04893	-0
50.45542	-1.1
54.85868	-1.3
59.25871	-1.4
63.6555	58
68.04907	60.7
72.43941	63.8
76.82654	65.1
81.21044	69.2
85.59113	69.3
89.96862	75.9
94.34289	73.5
98.71396	77.9
103.08183	81.2
107.4465	79.4
111.80798	87.9
116.16626	86.2
120.52136	92.3
124.87327	90.9
129.222	98.9
133.56755	104.2
137.90993	105.3
142.24913	117.5
146.58517	132
150.91804	148.8
155.24774	177.6
159.57429	216.5
163.89768	285.7
168.21792	373.8
172.53501	511.6
176.84895	718
181.15975	1012
185.46741	1425.6
189.77193	1967.7
194.07331	2638.7
198.37157	3410.7
202.6667	4224.9
206.9587	5046.3
211.24758	5845
215.53334	6667.3
219.81599	7520.7
224.09553	8460.1
228.37195	9561.3
232.64527	10727.1
236.91549	11940.3
241.18261	13113.1
245.44663	14178.8
249.70755	15118
253.96539	15913.2
258.22014	16574.5
262.4718	17181.2
266.72039	17561.8
270.96589	17722.4
275.20832	17703.1
279.44768	17465.5
283.68397	17194.1
287.91719	16960.4
292.14735	16814.9
296.37445	16870
300.59849	17051.2
304.81948	17245.2
309.03742	17356.2
313.25231	17261.6
317.46415	16894.9
321.67296	16374
325.87872	15928.3
330.08145	15750.4
334.28114	15798.3
338.47781	15910.9
342.67145	16139.6
346.86207	16500.6
351.04966	16936.3
355.23424	17425.1
359.4158	17846.2
363.59435	18152.1
367.76989	18339.1
371.94243	18451.5
376.11196	18506.1
380.27849	18597.5
384.44203	18599.7
388.60257	18615.5
392.76012	18646
396.91468	18706.1
401.06626	18967.8
405.21485	19121.4
409.36047	18988.3
413.50311	18599.1
417.64277	18253.5
421.77947	18015.2
425.9132	18016.6
430.04396	18098
434.17176	18243.8
438.2966	18504
442.41849	18871
446.53742	19415.9
450.6534	19928.3
454.76644	20303
458.87653	20343.5
462.98368	20120.3
467.08789	19809.2
471.18916	19502.6
475.2875	19158
479.38291	18917.2
483.4754	18778.6
487.56496	18570.4
491.6516	18392.3
495.73531	18240.4
499.81612	18217.1
503.89401	18280
507.96899	18388.3
512.04106	18499.1
516.11023	18553.1
520.1765	18585.5
524.23987	18549.9
528.30034	18492.6
532.35792	18370.9
536.41261	18258.7
540.46441	18067.3
544.51333	17948.1
548.55936	17982.3
552.60252	18217.7
556.64279	18543.8
560.6802	18782.2
564.71473	18887
568.7464	19179.2
572.7752	19466.2
576.80114	19388.3
580.82422	19223.3
584.84444	19310.4
588.86181	19722.6
592.87633	20310
596.888	20595.6
600.89682	20431
604.9028	20930.9
608.90594	23269
612.90624	26260.6
616.90371	25215.8
620.89834	20762.5
624.89015	18624.5
628.87913	18236
632.86528	18350.4
636.84862	18481.8
640.82913	18344.4
644.80683	17965.9
648.78172	17576.7
652.75379	17568.4
656.72306	17820.8
660.68952	18156.9
664.65319	18123.3
668.61405	17753.1
672.57211	17738.5
676.52738	17821.1
680.47986	17883.1
684.42955	17771.3
688.37646	17628.1
692.32058	17554.9
696.26192	17592.5
700.20048	17701.5
704.13626	17769.4
708.06928	17679.2
711.99952	17583.8
715.927	17530.9
719.85171	17530.1
723.77365	17579.6
727.69284	17483.6
731.60928	17411.6
735.52295	17415.4
739.43388	17439.6
743.34206	17476.1
747.24749	17503.8
751.15017	17495.5
755.05012	17659.1
758.94733	18040.1
762.8418	18903
766.73354	20485
770.62254	22168.7
774.50882	22939.3
778.39237	22266.6
782.27321	20436.4
786.15132	18737
790.02671	17754
793.89938	17264
797.76935	17063.5
801.6366	17001.7
805.50115	16945.4
809.36299	16881
813.22213	16808.6
817.07857	16756.5
820.93231	16719.3
824.78336	16627.8
828.63172	16632.2
832.47738	16590.2
836.32036	16538.4
840.16066	16526.4
843.99827	16517.1
847.8332	16490.8
851.66546	16495.8
855.49504	16530.7
859.32195	16548.7
863.1462	16578.8
866.96777	16569.1
870.78668	16554.7
874.60293	16536.6
878.41652	16525.7
882.22745	16543.8
886.03573	16578.8
889.84136	16575.2
893.64433	16475.6
897.44466	16407.4
901.24235	16275.6
905.0374	16171.3
908.8298	16105.4
912.61957	16021.9
916.40671	16090.9
920.19121	16208.1
923.97308	16278.9
927.75233	16350.2
931.52895	16359.8
935.30295	16258.5
939.07433	16010.2
942.84309	15761.5
946.60924	15651.7
950.37278	15590.3
954.13371	15480.1
957.89203	15445.2
961.64774	15367.4
965.40086	15344
969.15137	15261.9
972.89929	15201.7
976.64461	15123.2
980.38733	15125.5
984.12747	15115.8
987.86502	15198.7
991.59999	15287
995.33237	15428.1
999.06217	15693.3
1002.78939	15983.3
1006.51404	16202.9
1010.23611	16386.3
1013.95561	16522.2
1017.67255	16566.9
1021.38692	16378.1
1025.09872	16145
1028.80796	16023.3
1032.51465	16081.3
1036.21877	16206.6
1039.92035	16238.5
1043.61937	16201.5
1047.31584	16135.4
1051.00976	16022.7
1054.70114	15925.2
1058.38998	15866.8
1062.07627	15896.1
1065.76003	15910.7
1069.44126	15917.7
1073.11995	16008
1076.79611	16105.4
1080.46974	16209.6
1084.14085	16353.2
1087.80943	16558.5
1091.47549	16716.7
1095.13903	16611.6
1098.80005	16380.6
1102.45857	16151.9
1106.11456	16056.9
1109.76805	16106
1113.41903	16322.8
1117.06751	16617.5
1120.71348	16954
1124.35696	17293.7
1127.99793	17631.5
1131.63641	17713.9
1135.2724	17429.5
1138.90589	17055.7
1142.5369	16778.4
1146.16542	16568.4
1149.79145	16475.5
1153.415	16453.7
1157.03607	16584
1160.65467	16861.1
1164.27079	17335.9
1167.88443	18028.8
1171.49561	18979.7
1175.10432	20376.9
1178.71056	22190.7
1182.31434	23813.2
1185.91565	24408.1
1189.51451	24058.8
1193.11091	23032.1
1196.70485	21948.1
1200.29634	21056.9
1203.88538	20324.6
1207.47197	19579.9
1211.05612	18902
1214.63782	18536.7
1218.21708	18393
1221.79391	18429.4
1225.36829	18387
1228.94024	18239.7
1232.50976	17882.5
1236.07685	17675.3
1239.6415	17563.2
1243.20374	17578.3
1246.76355	17677.9
1250.32093	17823.1
1253.8759	18081.3
1257.42845	18426.5
1260.97859	18809.1
1264.52631	19140.8
1268.07163	19569.1
1271.61453	20006.9
1275.15503	20399.8
1278.69312	20755.6
1282.22882	20985.2
1285.76211	21392.2
1289.29301	21934.6
1292.82151	22636.7
1296.34761	23554.1
1299.87133	24703.4
1303.39266	26250
1306.9116	28266.7
1310.42815	30369.1
1313.94233	31657.9
1317.45412	31371.7
1320.96354	30000.2
1324.47058	28476.2
1327.97525	27113.2
1331.47754	26218.9
1334.97747	25833.4
1338.47502	25903
1341.97022	26228.3
1345.46305	26597.6
1348.95352	27151
1352.44163	28102.4
1355.92738	29674.3
1359.41078	32028.5
1362.89183	34216.8
1366.37053	33635.9
1369.84688	29768
1373.32088	25559.6
1376.79254	22920.9
1380.26186	21701.2
1383.72883	21259.8
1387.19347	20984.8
1390.65578	20661.2
1394.11575	20458.2
1397.57339	20541.9
1401.0287	20830.4
1404.48168	21183.3
1407.93234	21426.7
1411.38068	21381.6
1414.82669	21175.7
1418.27039	20700.5
1421.71177	20049.8
1425.15083	19477.5
1428.58758	19099
1432.02203	19137.4
1435.45416	19417.8
1438.88399	19718.5
1442.31151	19974
1445.73673	20156.4
1449.15965	20326.8
1452.58027	20452.7
1455.9986	20351.9
1459.41463	20401.8
1462.82837	20574
1466.23982	20945.6
1469.64898	21321.2
1473.05586	21621.3
1476.46045	21714.8
1479.86276	21749.6
1483.26279	21654.2
1486.66054	21691.8
1490.05602	21780.9
1493.44922	22046.2
1496.84016	22415.8
1500.22882	23270.7
1503.61521	24727.6
1506.99934	26595.9
1510.38121	28311.7
1513.76081	28706.1
1517.13816	27365.1
1520.51324	25121.1
1523.88607	23024.6
1527.25665	21740.7
1530.62498	21170.7
1533.99105	20881.6
1537.35488	20708.5
1540.71647	20510.5
1544.07581	20367.9
1547.4329	20142.7
1550.78776	19958.4
1554.14038	19818
1557.49077	19856.8
1560.83892	19923.6
1564.18484	20040.5
1567.52853	20294.3
1570.86999	20520.4
1574.20922	20791.5
1577.54624	20846.6
1580.88103	20391.2
1584.2136	19850
1587.54395	19702.9
1590.87208	20168.7
1594.19801	21282.6
1597.52172	22711.7
1600.84321	23525.9
1604.16251	23141.3
1607.47959	21815.5
1610.79447	20192
1614.10715	18604.2
1617.41763	17299.9
1620.7259	16475.9
1624.03199	16025.4
1627.33587	15953.1
1630.63757	16262.4
1633.93707	16985.3
1637.23439	18251.6
1640.52951	20111.7
1643.82246	22507.3
1647.11321	24728.7
1650.40179	25720
1653.68819	24468
1656.97241	21542.8
1660.25446	18565.6
1663.53433	16481.2
1666.81203	15181.8
1670.08756	14410.7
1673.36092	13909.7
1676.63211	13560.6
1679.90115	13341.4
1683.16801	13183.9
1686.43272	13013.9
1689.69527	12895.8
1692.95567	12804.2
1696.2139	12724
1699.46999	12613.4
1702.72392	12563.5
1705.97571	12541.2
1709.22535	12527.4
1712.47284	12511.5
1715.71819	12491.1
1718.96139	12423.3
1722.20246	12405.4
1725.44139	12341.4
1728.67818	12273.2
1731.91284	12204.8
1735.14537	12148.8
1738.37576	12089.2
1741.60403	12040.6
1744.83017	12017.5
1748.05418	12017.5
1751.27607	11986.1
1754.49584	11980.4
1757.71349	11931.6
1760.92903	11910.7
1764.14244	11870.7
1767.35375	11841.3
1770.56294	11776.5
1773.77002	11753.1
1776.97499	11709.4
1780.17785	11664.7
1783.37861	11633.4
1786.57727	11594.1
1789.77382	11564.3
1792.96828	11546
1796.16064	11510.1
1799.3509	11479.1
1802.53907	11438.7
1805.72514	11411.3
1808.90913	11392.5
1812.09102	11361.4
1815.27083	11330.9
1818.44856	11292.9
1821.6242	11276.2
1824.79776	11247.8
1827.96924	11244.6
1831.13864	11197.7
1834.30597	11237.5
1837.47122	11203.1
1840.6344	11140.3
1843.7955	11152.7
1846.95454	11135.1
1850.11151	11114.6
1853.26642	11104.8
1856.41926	11078.4
1859.57004	11077.9
1862.71876	11078
1865.86542	11041
1869.01003	11052.2
1872.15258	11053.2
1875.29308	11070.2
1878.43152	11054.9
1881.56792	11010.7
1884.70227	11036.7
1887.83457	10999
1890.96482	11028.8
1894.09304	10979.4
1897.21921	10958.4
1900.34335	10954.1
1903.46544	10958.7
1906.58551	10944.7
1909.70353	10929.3
1912.81953	10897.1
1915.93349	10886.6
1919.04543	10841.9
1922.15534	10790.1
1925.26322	10781.3
1928.36908	10748.2
1931.47292	10725.4
1934.57473	10704.7
1937.67453	10699.9
1940.77232	10647
1943.86808	10600
1946.96184	10581.7
1950.05358	10532.1
1953.14331	10508.8
1956.23103	10490.9
1959.31675	10471.5
1962.40046	10440.2
1965.48217	10385.1
1968.56188	10371.9
1971.63959	10327.3
1974.7153	10289
1977.78901	10253.1
1980.86073	10220.7
1983.93046	10206.1
1986.99819	10154.7
1990.06394	10126.5
1993.1277	10115.5
1996.18947	10063.3
1999.24925	10045.3
2002.30706	10016.9
2005.36288	9967.8
2008.41672	9936.6
2011.46859	9895.9
2014.51848	9874.2
2017.56639	9858.8
2020.61233	9809.4
2023.6563	9797
2026.6983	9747.3
2029.73833	9721.3
2032.7764	9700.4
2035.8125	9677.1
2038.84664	9678.6
2041.87881	9638.7
2044.90903	9624.5
2047.93729	9611.3
2050.96359	9604.7
2053.98794	9589.1
2057.01034	9573.2
2060.03078	9563.7
2063.04927	9550.7
2066.06582	9556.4
2069.08042	9510.4
2072.09307	9504.9
2075.10378	9478
2078.11255	9467.4
2081.11938	9479.2
2084.12426	9456.3
2087.12722	9472.3
2090.12824	9443.5
2093.12732	9444.2
2096.12447	9476.7
2099.11969	9443.4
2102.11299	9445
2105.10435	9446.5
2108.09379	9436.1
2111.08131	9452
2114.0669	9442.2
2117.05057	9442.4
2120.03233	9437.2
2123.01216	9432.3
2125.99008	9468.5
2128.96609	9477.4
2131.94018	9472.5
2134.91236	9468.3
2137.88263	9429.8
2140.851	9472.4
2143.81746	9474.7
2146.78201	9473.7
2149.74466	9468.3
2152.7054	9471.8
2155.66425	9473.7
2158.6212	9440.8
2161.57625	9433.5
2164.52941	9429
2167.48067	9428.3
2170.43004	9403.3
2173.37752	9434.7
2176.32311	9414.7
2179.26681	9427.2
2182.20863	9380.1
2185.14856	9419
2188.08661	9401.1
2191.02278	9392.7
2193.95707	9393.2
2196.88948	9399.5
2199.82001	9389.3
2202.74867	9364.5
2205.67545	9340
2208.60037	9333.9
2211.52341	9330.5
2214.44458	9297.6
2217.36388	9272.2
2220.28132	9270
2223.1969	9234.7
2226.11061	9219
2229.02246	9185.8
2231.93245	9201.7
2234.84058	9184.1
2237.74686	9150.4
2240.65128	9141.9
2243.55385	9124.1
2246.45456	9087.6
2249.35343	9087.1
2252.25044	9048.8
2255.14561	9057.4
2258.03893	9060.8
2260.93041	9034.3
2263.82004	9009.2
2266.70783	9014.3
2269.59378	8966.2
2272.4779	8959
2275.36017	8920.3
2278.24061	8904.9
2281.11922	8865.1
2283.996	8861.3
2286.87094	8844.7
2289.74405	8835.9
2292.61534	8820.6
2295.4848	8803.3
2298.35243	8815.6
2301.21824	8792.5
2304.08223	8772.5
2306.94439	8776.2
2309.80474	8777.1
2312.66327	8757.3
2315.51999	8743.6
2318.37489	8744.1
2321.22797	8732.6
2324.07925	8711.6
2326.92871	8692.7
2329.77637	8702
2332.62222	8697.7
2335.46626	8689.4
2338.3085	8665
2341.14893	8655.5
2343.98756	8643.2
2346.8244	8649.6
2349.65943	8628.3
2352.49267	8620.1
2355.32411	8619.4
2358.15376	8609.2
2360.98161	8639.2
2363.80768	8614
2366.63195	8610.7
2369.45444	8608.5
2372.27514	8598.6
2375.09405	8582.3
2377.91118	8559.8
2380.72652	8532.2
2383.54009	8519.9
2386.35187	8470
2389.16188	8440.7
2391.97011	8427.1
2394.77657	8419.7
2397.58125	8404.7
2400.38416	8377.4
2403.18529	8353.9
2405.98466	8337.4
2408.78226	8324.1
2411.57809	8297.7
2414.37216	8279.2
2417.16446	8303.8
2419.955	8278.8
2422.74378	8281.9
2425.5308	8268.3
2428.31606	8242.2
2431.09956	8237.3
2433.88131	8220.1
2436.6613	8240.6
2439.43954	8214.5
2442.21603	8207.7
2444.99077	8193.3
2447.76377	8218.6
2450.53501	8195.2
2453.30451	8206.8
2456.07226	8191.8
2458.83827	8189.7
2461.60254	8173.6
2464.36507	8174.7
2467.12586	8174.3
2469.88492	8156.1
2472.64224	8147.5
2475.39782	8152.2
2478.15167	8174.7
2480.90379	8164.6
2483.65417	8153.9
2486.40283	8159.1
2489.14976	8170.1
2491.89497	8174.2
2494.63845	8176.8
2497.3802	8164.3
2500.12024	8159.2
2502.85855	8125.3
2505.59514	8135.8
2508.33002	8091.1
2511.06318	8073.6
2513.79462	8063.8
2516.52435	8043.4
2519.25237	8031.8
2521.97867	8020.3
2524.70327	8005.4
2527.42616	7979.8
2530.14734	7983
2532.86681	7980.8
2535.58458	7977.2
2538.30065	7971.8
2541.01501	7980
2543.72768	7941.3
2546.43864	7936.9
2549.14791	7940.1
2551.85548	7919.3
2554.56136	7884.9
2557.26554	7887.8
2559.96803	7882.2
2562.66883	7864.6
2565.36794	7844.5
2568.06536	7842.1
2570.7611	7822.2
2573.45514	7808.1
2576.14751	7812.2
2578.83819	7784
2581.52719	7796.2
2584.21451	7766.6
2586.90015	7757.9
2589.58411	7737.9
2592.2664	7754
2594.94701	7709.7
2597.62594	7728.5
2600.30321	7706.5
2602.9788	7696.3
2605.65273	7677.6
2608.32498	7719.8
2610.99557	7667.8
2613.66449	7695.8
2616.33175	7677.4
2618.99734	7667.6
2621.66128	7676.5
2624.32355	7647.4
2626.98416	7651.5
2629.64311	7628.1
2632.30041	7617.5
2634.95605	7619.5
2637.61004	7614.5
2640.26238	7599.8
2642.91306	7602
2645.56209	7599.8
2648.20948	7593.7
2650.85521	7569.5
2653.4993	7559
2656.14175	7556.3
2658.78255	7568.8
2661.42171	7570.5
2664.05923	7594.8
2666.6951	7578.2
2669.32934	7583
2671.96194	7577.4
2674.59291	7579.2
2677.22224	7579.3
2679.84993	7575.1
2682.476	7555.2
2685.10043	7563.7
2687.72324	7550.2
2690.34441	7551.3
2692.96396	7543.2
2695.58188	7562.3
2698.19818	7543.8
2700.81285	7565.2
2703.4259	7515.7
2706.03733	7528.6
2708.64714	7523.2
2711.25533	7562.5
2713.86191	7526.2
2716.46687	7536.7
2719.07021	7532.3
2721.67194	7550.6
2724.27206	7536.4
2726.87057	7548.4
2729.46747	7530.1
2732.06276	7547.6
2734.65644	7534.8
2737.24852	7554.3
2739.83899	7526.1
2742.42786	7526.4
2745.01513	7498.3
2747.60079	7507.5
2750.18486	7486.7
2752.76733	7484.6
2755.3482	7459.1
2757.92747	7458.9
2760.50515	7450.4
2763.08123	7461.4
2765.65573	7448
2768.22863	7439.3
2770.79994	7424.2
2773.36967	7407.2
2775.9378	7419.1
2778.50435	7429.2
2781.06932	7423
2783.6327	7412.2
2786.1945	7415.9
2788.75471	7410.2
2791.31335	7396.4
2793.87041	7385
2796.42589	7354.8
2798.97979	7335.1
2801.53212	7312.9
2804.08288	7321.7
2806.63206	7314.5
2809.17967	7302.8
2811.72571	7278.7
2814.27018	7297.3
2816.81308	7268
2819.35442	7256.8
2821.89419	7250.1
2824.43239	7270.3
2826.96904	7260.5
2829.50412	7251.4
2832.03763	7257.1
2834.56959	7261.6
2837.1	7231.5
2839.62884	7223.4
2842.15613	7242
2844.68186	7242.3
2847.20604	7259.1
2849.72867	7274.1
2852.24974	7254.5
2854.76927	7259.5
2857.28724	7237.9
2859.80367	7238.9
2862.31855	7261.8
2864.83189	7232.7
2867.34368	7226.4
2869.85393	7221.7
2872.36264	7217.3
2874.8698	7201.4
2877.37543	7194
2879.87952	7221.5
2882.38207	7193.8
2884.88308	7213.4
2887.38256	7223.3
2889.88051	7221.9
2892.37692	7234.9
2894.8718	7215.4
2897.36515	7227.6
2899.85698	7221.1
2902.34727	7239.8
2904.83604	7296.8
2907.32328	7298.2
2909.809	7264.9
2912.29319	7288.6
2914.77587	7291.9
2917.25702	7305.5
2919.73665	7298.1
2922.21476	7311.7
2924.69136	7298.6
2927.16644	7292.1
2929.64	7292.7
2932.11205	7292.7
2934.58258	7255.3
2937.05161	7253.3
2939.51912	7255.5
2941.98513	7243.7
2944.44962	7219.2
2946.91261	7173.9
2949.37409	7195.1
2951.83407	7197.8
2954.29254	7169.6
2956.74951	7166.5
2959.20498	7183.7
2961.65895	7145.2
2964.11142	7124
2966.56239	7096.4
2969.01186	7078.2
2971.45984	7066.8
2973.90632	7039.3
2976.35131	7026.5
2978.7948	6993.1
2981.23681	6981.7
2983.67732	6974.2
2986.11635	6952.1
2988.55388	6939.3
2990.98993	6920.3
2993.4245	6904.5
2995.85758	6885.7
2998.28917	6861.8
3000.71928	6859.5
3003.14791	6837.3
3005.57506	6842.2
3008.00073	6816.9
3010.42493	6814.5
3012.84764	6811.2
3015.26888	6799.7
3017.68865	6766.1
3020.10694	6782.3
3022.52376	6744.1
3024.9391	6735.8
3027.35298	6704.9
3029.76539	6716.5
3032.17632	6712
3034.5858	6668.5
3036.9938	6660.8
3039.40034	6656.1
3041.80542	6667.6
3044.20903	6643.2
3046.61118	6646.3
3049.01187	6610.9
3051.4111	6622
3053.80888	6613.8
3056.20519	6610.2
3058.60005	6596.5
3060.99345	6561.3
3063.3854	6577.2
3065.7759	6541.6
3068.16494	6512.9
3070.55254	6495.3
3072.93868	6485
3075.32338	6458.8
3077.70662	6437
3080.08842	6447
3082.46878	6434.7
3084.84769	6436
3087.22515	6419.6
3089.60118	6435.6
3091.97576	6413.7
3094.3489	6431.6
3096.72061	6438.3
3099.09087	6406.8
3101.4597	6422.2
3103.82709	6417.2
3106.19305	6415.7
3108.55757	6425.2
3110.92066	6385.2
3113.28232	6384.9
3115.64255	6356.7
3118.00134	6355.2
3120.35871	6362.7
3122.71466	6332.2
3125.06917	6323.7
3127.42226	6295.7
3129.77393	6299
3132.12417	6314.4
3134.47299	6326.7
3136.82039	6329
3139.16636	6309
3141.51092	6308.1
3143.85406	6334.6
3146.19579	6327.9
3148.53609	6308.5
3150.87499	6335.1
3153.21246	6320.2
3155.54853	6313.9
3157.88318	6321.8
3160.21642	6351
3162.54826	6341.2
3164.87868	6341.1
3167.2077	6346.9
3169.5353	6339.7
3171.86151	6345
3174.18631	6321
3176.5097	6353.8
3178.83169	6314.1
3181.15228	6323.7
3183.47147	6299
3185.78926	6302.8
3188.10565	6296.9
3190.42065	6306.6
3192.73424	6283
3195.04645	6285.6
3197.35725	6314.8
3199.66667	6304.8
3201.97469	6320.9
3204.28132	6331.7
3206.58656	6334.1
3208.8904	6328.4
3211.19287	6306.4
3213.49394	6321.2
3215.79363	6328.6
3218.09193	6325.8
3220.38884	6329.6
3222.68438	6345.4
3224.97853	6345.9
3227.2713	6325.4
3229.56269	6328.5
3231.8527	6338.1
3234.14133	6318.3
3236.42858	6288.7
3238.71446	6282.9
3240.99896	6288.1
3243.28209	6269.5
3245.56384	6274.3
3247.84423	6241.8
3250.12324	6260
3252.40088	6255.7
3254.67715	6244.4
3256.95205	6235.7
3259.22558	6230.7
3261.49775	6228.4
3263.76855	6241.4
3266.03799	6229.9
3268.30606	6228.6
3270.57277	6206.8
3272.83812	6193
3275.10211	6187.2
3277.36474	6170.3
3279.62601	6166
3281.88593	6158.7
3284.14448	6167.7
3286.40168	6171.9
3288.65753	6144.4
3290.91202	6157.6
3293.16516	6148.5
3295.41695	6133
3297.66738	6098.7
3299.91647	6078.7
3302.16421	6048.3
3304.4106	6026
3306.65564	5991.3
3308.89933	5924.5
3311.14169	5907.8
3313.38269	5857.4
3315.62236	5828.1
3317.86068	5777.5
3320.09766	5719.2
3322.3333	5697.8
3324.5676	5665.3
3326.80056	5595.7
3329.03219	5540.6
3331.26248	3.6
3333.49143	-0.4
3335.71905	0.3
