Data from AgNPs_FTO_APTES_UA_50uM_CRN_500uM_R6G_10uM_NaF_0.1M_Addition_RamanShift__11__16-54-43-530.txt Node

Date: Mon Feb 21 16:54:43 GMT 2022
User: TCL
Spectrometer: QEP01345
Trigger mode: 4
Integration Time (sec): 7.000000E0
Scans to average: 10
Electric dark correction enabled: true
Nonlinearity correction enabled: false
Boxcar width: 0
XAxis mode: Raman Shifts
Number of Pixels in Spectrum: 1044
>>>>>Begin Spectral Data<<<<<
46.04893	-1.4125
50.45542	-0.0125
54.85868	0.4875
59.25871	-1.6125
63.6555	40.6875
68.04907	46.9875
72.43941	50.2875
76.82654	49.2875
81.21044	54.1875
85.59113	54.8875
89.96862	56.5875
94.34289	60.8875
98.71396	59.5875
103.08183	65.7875
107.4465	64.4875
111.80798	66.5875
116.16626	68.1875
120.52136	68.4875
124.87327	74.5875
129.222	71.4875
133.56755	77.9875
137.90993	79.2875
142.24913	83.6875
146.58517	90.7875
150.91804	100.3875
155.24774	114.0875
159.57429	140.0875
163.89768	176.8875
168.21792	229.1875
172.53501	306.7875
176.84895	427.1875
181.15975	591.4875
185.46741	828.9875
189.77193	1139.9875
194.07331	1534.5875
198.37157	1973.8875
202.6667	2444.9875
206.9587	2920.7875
211.24758	3372.0875
215.53334	3837.9875
219.81599	4320.0875
224.09553	4844.3875
228.37195	5460.5875
232.64527	6084.6875
236.91549	6779.3875
241.18261	7472.8875
245.44663	8084.7875
249.70755	8628.2875
253.96539	9115.4875
258.22014	9492.8875
262.4718	9800.1875
266.72039	10018.0875
270.96589	10122.9875
275.20832	10119.9875
279.44768	10013.2875
283.68397	9862.5875
287.91719	9735.5875
292.14735	9664.2875
296.37445	9639.0875
300.59849	9670.2875
304.81948	9776.8875
309.03742	9788.9875
313.25231	9731.7875
317.46415	9612.0875
321.67296	9389.8875
325.87872	9207.9875
330.08145	9116.0875
334.28114	9116.7875
338.47781	9173.0875
342.67145	9289.9875
346.86207	9445.2875
351.04966	9629.0875
355.23424	9830.1875
359.4158	10010.7875
363.59435	10124.5875
367.76989	10212.1875
371.94243	10261.5875
376.11196	10309.8875
380.27849	10358.7875
384.44203	10398.0875
388.60257	10452.3875
392.76012	10510.1875
396.91468	10622.6875
401.06626	10720.8875
405.21485	10824.2875
409.36047	10791.7875
413.50311	10596.7875
417.64277	10424.2875
421.77947	10362.9875
425.9132	10347.1875
430.04396	10369.8875
434.17176	10446.2875
438.2966	10525.1875
442.41849	10626.9875
446.53742	10818.0875
450.6534	10989.1875
454.76644	11082.3875
458.87653	11168.0875
462.98368	11147.6875
467.08789	11114.9875
471.18916	11032.3875
475.2875	10912.6875
479.38291	10790.5875
483.4754	10750.7875
487.56496	10688.0875
491.6516	10607.1875
495.73531	10558.2875
499.81612	10568.8875
503.89401	10602.1875
507.96899	10672.0875
512.04106	10700.7875
516.11023	10730.0875
520.1765	10746.0875
524.23987	10718.0875
528.30034	10655.7875
532.35792	10604.5875
536.41261	10557.5875
540.46441	10480.7875
544.51333	10469.5875
548.55936	10518.5875
552.60252	10629.9875
556.64279	10789.2875
560.6802	10833.5875
564.71473	10855.7875
568.7464	10935.4875
572.7752	11076.0875
576.80114	11148.8875
580.82422	11197.3875
584.84444	11293.3875
588.86181	11434.8875
592.87633	11568.0875
596.888	11661.8875
600.89682	11709.9875
604.9028	12013.7875
608.90594	13056.6875
612.90624	14337.8875
616.90371	13800.1875
620.89834	11797.8875
624.89015	10877.3875
628.87913	10693.0875
632.86528	10814.0875
636.84862	10886.7875
640.82913	10882.4875
644.80683	10685.3875
648.78172	10518.4875
652.75379	10488.2875
656.72306	10633.2875
660.68952	10765.4875
664.65319	10742.9875
668.61405	10579.9875
672.57211	10528.4875
676.52738	10611.4875
680.47986	10643.4875
684.42955	10625.3875
688.37646	10535.6875
692.32058	10534.2875
696.26192	10524.6875
700.20048	10614.8875
704.13626	10645.4875
708.06928	10630.7875
711.99952	10604.6875
715.927	10567.2875
719.85171	10586.7875
723.77365	10614.7875
727.69284	10536.9875
731.60928	10474.3875
735.52295	10436.5875
739.43388	10455.2875
743.34206	10469.8875
747.24749	10497.4875
751.15017	10543.9875
755.05012	10611.1875
758.94733	10817.8875
762.8418	11274.8875
766.73354	11998.0875
770.62254	12793.9875
774.50882	13134.0875
778.39237	12747.7875
782.27321	11933.7875
786.15132	11199.2875
790.02671	10742.8875
793.89938	10530.6875
797.76935	10403.6875
801.6366	10389.3875
805.50115	10314.7875
809.36299	10302.4875
813.22213	10266.4875
817.07857	10248.5875
820.93231	10203.9875
824.78336	10197.2875
828.63172	10170.2875
832.47738	10199.9875
836.32036	10167.9875
840.16066	10165.2875
843.99827	10121.1875
847.8332	10152.1875
851.66546	10172.8875
855.49504	10164.9875
859.32195	10158.5875
863.1462	10159.3875
866.96777	10143.3875
870.78668	10147.1875
874.60293	10159.0875
878.41652	10164.1875
882.22745	10217.7875
886.03573	10240.1875
889.84136	10229.6875
893.64433	10231.1875
897.44466	10189.2875
901.24235	10140.4875
905.0374	10133.3875
908.8298	10104.7875
912.61957	10019.1875
916.40671	10101.4875
920.19121	10142.7875
923.97308	10166.9875
927.75233	10194.4875
931.52895	10178.8875
935.30295	10093.3875
939.07433	9986.2875
942.84309	9880.7875
946.60924	9812.7875
950.37278	9778.0875
954.13371	9744.5875
957.89203	9700.5875
961.64774	9695.6875
965.40086	9660.5875
969.15137	9649.7875
972.89929	9663.7875
976.64461	9621.4875
980.38733	9603.0875
984.12747	9602.8875
987.86502	9634.4875
991.59999	9644.0875
995.33237	9657.0875
999.06217	9732.8875
1002.78939	9809.8875
1006.51404	9930.9875
1010.23611	10046.9875
1013.95561	10115.9875
1017.67255	10163.8875
1021.38692	10100.4875
1025.09872	10037.4875
1028.80796	9947.6875
1032.51465	9903.8875
1036.21877	9893.8875
1039.92035	9919.9875
1043.61937	9948.0875
1047.31584	10010.7875
1051.00976	10041.8875
1054.70114	10041.4875
1058.38998	10040.8875
1062.07627	10115.2875
1065.76003	10135.9875
1069.44126	10209.3875
1073.11995	10262.1875
1076.79611	10340.6875
1080.46974	10378.9875
1084.14085	10479.1875
1087.80943	10529.0875
1091.47549	10614.9875
1095.13903	10574.8875
1098.80005	10516.5875
1102.45857	10369.7875
1106.11456	10260.5875
1109.76805	10216.9875
1113.41903	10279.6875
1117.06751	10363.1875
1120.71348	10503.0875
1124.35696	10653.6875
1127.99793	10858.2875
1131.63641	10936.9875
1135.2724	10793.3875
1138.90589	10635.8875
1142.5369	10519.6875
1146.16542	10439.3875
1149.79145	10420.9875
1153.415	10396.3875
1157.03607	10425.7875
1160.65467	10538.2875
1164.27079	10743.6875
1167.88443	11044.9875
1171.49561	11468.1875
1175.10432	12064.0875
1178.71056	12857.2875
1182.31434	13556.5875
1185.91565	13912.1875
1189.51451	13912.2875
1193.11091	13681.6875
1196.70485	13305.6875
1200.29634	12858.2875
1203.88538	12482.4875
1207.47197	12052.7875
1211.05612	11689.1875
1214.63782	11414.6875
1218.21708	11249.9875
1221.79391	11159.5875
1225.36829	11086.3875
1228.94024	11072.5875
1232.50976	11064.4875
1236.07685	11035.6875
1239.6415	11004.0875
1243.20374	10993.0875
1246.76355	11048.0875
1250.32093	11099.7875
1253.8759	11214.7875
1257.42845	11358.5875
1260.97859	11516.2875
1264.52631	11732.3875
1268.07163	11892.9875
1271.61453	12096.3875
1275.15503	12201.3875
1278.69312	12290.9875
1282.22882	12396.1875
1285.76211	12583.3875
1289.29301	12833.0875
1292.82151	13128.8875
1296.34761	13489.0875
1299.87133	13939.6875
1303.39266	14492.9875
1306.9116	15195.5875
1310.42815	15928.3875
1313.94233	16390.5875
1317.45412	16256.3875
1320.96354	15830.9875
1324.47058	15308.3875
1327.97525	14847.8875
1331.47754	14503.6875
1334.97747	14302.9875
1338.47502	14352.5875
1341.97022	14510.7875
1345.46305	14843.2875
1348.95352	15354.7875
1352.44163	15881.5875
1355.92738	16476.6875
1359.41078	17315.3875
1362.89183	18217.5875
1366.37053	18015.2875
1369.84688	16446.0875
1373.32088	14657.4875
1376.79254	13384.1875
1380.26186	12796.6875
1383.72883	12496.5875
1387.19347	12308.6875
1390.65578	12070.5875
1394.11575	11906.2875
1397.57339	11794.4875
1401.0287	11707.5875
1404.48168	11700.5875
1407.93234	11642.6875
1411.38068	11580.3875
1414.82669	11495.6875
1418.27039	11363.9875
1421.71177	11209.3875
1425.15083	11027.7875
1428.58758	10889.3875
1432.02203	10845.1875
1435.45416	10926.1875
1438.88399	10979.8875
1442.31151	11045.1875
1445.73673	11086.4875
1449.15965	11148.0875
1452.58027	11162.6875
1455.9986	11185.3875
1459.41463	11251.9875
1462.82837	11394.2875
1466.23982	11516.8875
1469.64898	11660.1875
1473.05586	11795.0875
1476.46045	11914.4875
1479.86276	11983.1875
1483.26279	12058.4875
1486.66054	12159.0875
1490.05602	12266.9875
1493.44922	12571.1875
1496.84016	13027.4875
1500.22882	13766.0875
1503.61521	14681.3875
1506.99934	15663.9875
1510.38121	16379.2875
1513.76081	16470.9875
1517.13816	15810.1875
1520.51324	14727.5875
1523.88607	13781.9875
1527.25665	13183.9875
1530.62498	12892.0875
1533.99105	12689.8875
1537.35488	12507.1875
1540.71647	12315.0875
1544.07581	12163.0875
1547.4329	11982.0875
1550.78776	11852.7875
1554.14038	11776.5875
1557.49077	11775.4875
1560.83892	11816.5875
1564.18484	11934.3875
1567.52853	12068.4875
1570.86999	12206.4875
1574.20922	12373.6875
1577.54624	12406.2875
1580.88103	12166.0875
1584.2136	11818.1875
1587.54395	11635.4875
1590.87208	11664.5875
1594.19801	11951.1875
1597.52172	12393.9875
1600.84321	12612.9875
1604.16251	12461.2875
1607.47959	12077.2875
1610.79447	11647.3875
1614.10715	11127.7875
1617.41763	10640.8875
1620.7259	10260.5875
1624.03199	10006.7875
1627.33587	9915.6875
1630.63757	9980.3875
1633.93707	10215.2875
1637.23439	10634.7875
1640.52951	11359.1875
1643.82246	12332.2875
1647.11321	13350.4875
1650.40179	13945.8875
1653.68819	13619.7875
1656.97241	12553.0875
1660.25446	11289.9875
1663.53433	10307.1875
1666.81203	9670.8875
1670.08756	9278.1875
1673.36092	9027.3875
1676.63211	8878.0875
1679.90115	8745.8875
1683.16801	8680.5875
1686.43272	8566.2875
1689.69527	8474.0875
1692.95567	8419.0875
1696.2139	8351.6875
1699.46999	8309.7875
1702.72392	8294.1875
1705.97571	8272.3875
1709.22535	8247.3875
1712.47284	8230.7875
1715.71819	8207.5875
1718.96139	8209.8875
1722.20246	8160.8875
1725.44139	8147.5875
1728.67818	8104.4875
1731.91284	8069.5875
1735.14537	8026.6875
1738.37576	7986.1875
1741.60403	7962.0875
1744.83017	7950.7875
1748.05418	7941.5875
1751.27607	7940.3875
1754.49584	7934.5875
1757.71349	7925.0875
1760.92903	7906.7875
1764.14244	7894.7875
1767.35375	7859.0875
1770.56294	7843.8875
1773.77002	7827.5875
1776.97499	7785.3875
1780.17785	7783.2875
1783.37861	7746.6875
1786.57727	7749.1875
1789.77382	7703.8875
1792.96828	7696.3875
1796.16064	7674.6875
1799.3509	7655.9875
1802.53907	7621.7875
1805.72514	7608.8875
1808.90913	7591.3875
1812.09102	7548.7875
1815.27083	7526.6875
1818.44856	7514.4875
1821.6242	7513.6875
1824.79776	7514.0875
1827.96924	7486.3875
1831.13864	7487.3875
1834.30597	7459.1875
1837.47122	7467.8875
1840.6344	7428.8875
1843.7955	7427.0875
1846.95454	7430.2875
1850.11151	7422.7875
1853.26642	7410.6875
1856.41926	7387.4875
1859.57004	7381.8875
1862.71876	7377.3875
1865.86542	7366.1875
1869.01003	7346.9875
1872.15258	7321.3875
1875.29308	7338.7875
1878.43152	7335.0875
1881.56792	7321.2875
1884.70227	7303.1875
1887.83457	7290.4875
1890.96482	7289.3875
1894.09304	7275.7875
1897.21921	7249.8875
1900.34335	7246.1875
1903.46544	7238.5875
1906.58551	7254.8875
1909.70353	7229.4875
1912.81953	7208.7875
1915.93349	7189.3875
1919.04543	7177.7875
1922.15534	7167.6875
1925.26322	7124.7875
1928.36908	7104.0875
1931.47292	7111.8875
1934.57473	7071.4875
1937.67453	7070.3875
1940.77232	7070.7875
1943.86808	7051.9875
1946.96184	7025.1875
1950.05358	7002.7875
1953.14331	6981.4875
1956.23103	6959.6875
1959.31675	6940.5875
1962.40046	6919.9875
1965.48217	6883.5875
1968.56188	6858.9875
1971.63959	6860.4875
1974.7153	6833.5875
1977.78901	6798.4875
1980.86073	6774.1875
1983.93046	6758.9875
1986.99819	6754.3875
1990.06394	6711.5875
1993.1277	6686.7875
1996.18947	6678.5875
1999.24925	6644.7875
2002.30706	6617.0875
2005.36288	6587.0875
2008.41672	6572.9875
2011.46859	6557.2875
2014.51848	6547.0875
2017.56639	6530.1875
2020.61233	6511.3875
2023.6563	6496.3875
2026.6983	6477.2875
2029.73833	6435.9875
2032.7764	6439.2875
2035.8125	6403.9875
2038.84664	6388.8875
2041.87881	6379.0875
2044.90903	6367.3875
2047.93729	6337.3875
2050.96359	6320.4875
2053.98794	6323.6875
2057.01034	6324.6875
2060.03078	6314.3875
2063.04927	6335.2875
2066.06582	6304.3875
2069.08042	6282.0875
2072.09307	6277.3875
2075.10378	6272.3875
2078.11255	6266.3875
2081.11938	6279.5875
2084.12426	6266.5875
2087.12722	6255.2875
2090.12824	6247.0875
2093.12732	6247.2875
2096.12447	6266.5875
2099.11969	6252.5875
2102.11299	6254.5875
2105.10435	6262.2875
2108.09379	6259.3875
2111.08131	6261.2875
2114.0669	6253.4875
2117.05057	6258.0875
2120.03233	6254.1875
2123.01216	6253.2875
2125.99008	6275.7875
2128.96609	6260.2875
2131.94018	6266.3875
2134.91236	6272.3875
2137.88263	6283.1875
2140.851	6282.2875
2143.81746	6270.6875
2146.78201	6278.4875
2149.74466	6263.7875
2152.7054	6277.7875
2155.66425	6267.0875
2158.6212	6260.2875
2161.57625	6255.0875
2164.52941	6242.4875
2167.48067	6231.8875
2170.43004	6245.8875
2173.37752	6228.8875
2176.32311	6227.5875
2179.26681	6226.5875
2182.20863	6213.9875
2185.14856	6217.1875
2188.08661	6210.7875
2191.02278	6228.3875
2193.95707	6211.7875
2196.88948	6201.7875
2199.82001	6191.4875
2202.74867	6162.9875
2205.67545	6162.6875
2208.60037	6155.5875
2211.52341	6134.2875
2214.44458	6139.2875
2217.36388	6106.4875
2220.28132	6127.4875
2223.1969	6097.4875
2226.11061	6086.7875
2229.02246	6043.1875
2231.93245	6056.6875
2234.84058	6044.5875
2237.74686	6026.7875
2240.65128	6022.5875
2243.55385	6018.7875
2246.45456	6016.3875
2249.35343	5988.7875
2252.25044	5990.1875
2255.14561	5968.8875
2258.03893	5977.5875
2260.93041	5940.8875
2263.82004	5947.7875
2266.70783	5934.1875
2269.59378	5900.0875
2272.4779	5885.2875
2275.36017	5896.2875
2278.24061	5863.0875
2281.11922	5846.2875
2283.996	5832.7875
2286.87094	5822.9875
2289.74405	5826.0875
2292.61534	5828.0875
2295.4848	5804.0875
2298.35243	5799.3875
2301.21824	5782.0875
2304.08223	5767.6875
2306.94439	5771.6875
2309.80474	5769.8875
2312.66327	5760.5875
2315.51999	5749.7875
2318.37489	5737.4875
2321.22797	5727.6875
2324.07925	5716.3875
2326.92871	5714.4875
2329.77637	5696.5875
2332.62222	5695.0875
2335.46626	5691.2875
2338.3085	5678.0875
2341.14893	5652.5875
2343.98756	5658.3875
2346.8244	5642.9875
2349.65943	5646.0875
2352.49267	5636.8875
2355.32411	5637.5875
2358.15376	5632.2875
2360.98161	5646.5875
2363.80768	5619.1875
2366.63195	5621.1875
2369.45444	5624.8875
2372.27514	5625.5875
2375.09405	5616.8875
2377.91118	5597.5875
2380.72652	5582.0875
2383.54009	5563.0875
2386.35187	5556.0875
2389.16188	5510.3875
2391.97011	5522.4875
2394.77657	5503.6875
2397.58125	5490.0875
2400.38416	5475.8875
2403.18529	5452.6875
2405.98466	5462.2875
2408.78226	5458.4875
2411.57809	5445.4875
2414.37216	5430.6875
2417.16446	5437.1875
2419.955	5432.1875
2422.74378	5422.9875
2425.5308	5407.1875
2428.31606	5425.1875
2431.09956	5415.6875
2433.88131	5395.3875
2436.6613	5380.1875
2439.43954	5362.6875
2442.21603	5367.6875
2444.99077	5383.2875
2447.76377	5370.2875
2450.53501	5357.8875
2453.30451	5345.5875
2456.07226	5340.7875
2458.83827	5335.4875
2461.60254	5333.1875
2464.36507	5333.6875
2467.12586	5310.2875
2469.88492	5295.9875
2472.64224	5307.2875
2475.39782	5308.0875
2478.15167	5326.4875
2480.90379	5300.6875
2483.65417	5303.0875
2486.40283	5293.7875
2489.14976	5303.9875
2491.89497	5303.1875
2494.63845	5316.2875
2497.3802	5285.6875
2500.12024	5274.0875
2502.85855	5281.2875
2505.59514	5265.8875
2508.33002	5259.5875
2511.06318	5247.4875
2513.79462	5231.6875
2516.52435	5213.6875
2519.25237	5213.5875
2521.97867	5209.6875
2524.70327	5185.1875
2527.42616	5183.6875
2530.14734	5193.4875
2532.86681	5164.6875
2535.58458	5152.6875
2538.30065	5155.9875
2541.01501	5154.8875
2543.72768	5150.8875
2546.43864	5125.2875
2549.14791	5104.7875
2551.85548	5107.2875
2554.56136	5099.4875
2557.26554	5098.8875
2559.96803	5076.5875
2562.66883	5083.2875
2565.36794	5066.4875
2568.06536	5036.6875
2570.7611	5049.4875
2573.45514	5018.0875
2576.14751	5025.2875
2578.83819	5025.4875
2581.52719	5001.5875
2584.21451	4989.6875
2586.90015	4991.7875
2589.58411	4974.4875
2592.2664	4970.2875
2594.94701	4951.6875
2597.62594	4947.2875
2600.30321	4922.3875
2602.9788	4927.1875
2605.65273	4909.9875
2608.32498	4914.3875
2610.99557	4899.3875
2613.66449	4894.4875
2616.33175	4892.5875
2618.99734	4883.4875
2621.66128	4885.7875
2624.32355	4865.3875
2626.98416	4841.1875
2629.64311	4844.4875
2632.30041	4853.4875
2634.95605	4825.9875
2637.61004	4828.2875
2640.26238	4824.0875
2642.91306	4819.9875
2645.56209	4829.7875
2648.20948	4806.4875
2650.85521	4790.5875
2653.4993	4777.0875
2656.14175	4807.7875
2658.78255	4811.0875
2661.42171	4793.9875
2664.05923	4803.7875
2666.6951	4786.6875
2669.32934	4807.6875
2671.96194	4797.2875
2674.59291	4786.4875
2677.22224	4790.8875
2679.84993	4794.5875
2682.476	4802.1875
2685.10043	4784.9875
2687.72324	4786.9875
2690.34441	4783.9875
2692.96396	4772.7875
2695.58188	4784.1875
2698.19818	4775.2875
2700.81285	4788.2875
2703.4259	4758.5875
2706.03733	4769.0875
2708.64714	4772.7875
2711.25533	4785.6875
2713.86191	4770.4875
2716.46687	4769.5875
2719.07021	4775.6875
2721.67194	4771.3875
2724.27206	4765.4875
2726.87057	4763.9875
2729.46747	4771.8875
2732.06276	4772.7875
2734.65644	4759.0875
2737.24852	4766.4875
2739.83899	4743.8875
2742.42786	4742.8875
2745.01513	4731.8875
2747.60079	4733.9875
2750.18486	4711.1875
2752.76733	4701.3875
2755.3482	4693.4875
2757.92747	4696.3875
2760.50515	4693.9875
2763.08123	4683.2875
2765.65573	4676.3875
2768.22863	4685.8875
2770.79994	4658.0875
2773.36967	4650.8875
2775.9378	4660.6875
2778.50435	4656.7875
2781.06932	4638.4875
2783.6327	4639.9875
2786.1945	4638.1875
2788.75471	4631.5875
2791.31335	4597.0875
2793.87041	4598.8875
2796.42589	4604.9875
2798.97979	4585.7875
2801.53212	4572.2875
2804.08288	4571.7875
2806.63206	4536.2875
2809.17967	4537.1875
2811.72571	4530.9875
2814.27018	4526.2875
2816.81308	4522.7875
2819.35442	4512.9875
2821.89419	4512.0875
2824.43239	4510.9875
2826.96904	4504.4875
2829.50412	4503.7875
2832.03763	4496.2875
2834.56959	4493.3875
2837.1	4485.3875
2839.62884	4497.5875
2842.15613	4503.4875
2844.68186	4523.3875
2847.20604	4536.0875
2849.72867	4532.1875
2852.24974	4536.9875
2854.76927	4528.7875
2857.28724	4520.1875
2859.80367	4511.0875
2862.31855	4508.5875
2864.83189	4499.0875
2867.34368	4495.3875
2869.85393	4479.5875
2872.36264	4489.5875
2874.8698	4469.2875
2877.37543	4467.7875
2879.87952	4479.5875
2882.38207	4452.8875
2884.88308	4459.6875
2887.38256	4468.2875
2889.88051	4476.8875
2892.37692	4484.9875
2894.8718	4462.9875
2897.36515	4459.5875
2899.85698	4466.4875
2902.34727	4481.7875
2904.83604	4480.9875
2907.32328	4478.9875
2909.809	4488.7875
2912.29319	4476.9875
2914.77587	4496.4875
2917.25702	4496.4875
2919.73665	4512.4875
2922.21476	4502.7875
2924.69136	4511.9875
2927.16644	4505.7875
2929.64	4491.1875
2932.11205	4482.4875
2934.58258	4475.7875
2937.05161	4480.6875
2939.51912	4480.1875
2941.98513	4472.0875
2944.44962	4443.6875
2946.91261	4412.8875
2949.37409	4437.3875
2951.83407	4436.5875
2954.29254	4410.8875
2956.74951	4420.6875
2959.20498	4396.0875
2961.65895	4380.6875
2964.11142	4384.3875
2966.56239	4378.9875
2969.01186	4359.2875
2971.45984	4351.5875
2973.90632	4352.5875
2976.35131	4335.2875
2978.7948	4325.0875
2981.23681	4303.2875
2983.67732	4295.7875
2986.11635	4289.7875
2988.55388	4271.5875
2990.98993	4270.0875
2993.4245	4244.7875
2995.85758	4240.9875
2998.28917	4244.8875
3000.71928	4236.3875
3003.14791	4237.7875
3005.57506	4212.8875
3008.00073	4214.0875
3010.42493	4193.0875
3012.84764	4180.7875
3015.26888	4191.9875
3017.68865	4182.0875
3020.10694	4176.6875
3022.52376	4175.5875
3024.9391	4165.4875
3027.35298	4140.8875
3029.76539	4139.8875
3032.17632	4142.2875
3034.5858	4132.9875
3036.9938	4122.6875
3039.40034	4112.8875
3041.80542	4128.0875
3044.20903	4102.1875
3046.61118	4113.6875
3049.01187	4102.5875
3051.4111	4099.8875
3053.80888	4087.9875
3056.20519	4086.4875
3058.60005	4084.5875
3060.99345	4092.9875
3063.3854	4079.9875
3065.7759	4062.7875
3068.16494	4052.8875
3070.55254	4042.5875
3072.93868	4038.1875
3075.32338	4032.8875
3077.70662	4021.8875
3080.08842	4008.8875
3082.46878	4006.4875
3084.84769	4013.0875
3087.22515	4000.8875
3089.60118	3998.2875
3091.97576	4013.7875
3094.3489	4019.5875
3096.72061	4022.6875
3099.09087	4010.9875
3101.4597	3998.7875
3103.82709	4007.9875
3106.19305	4006.7875
3108.55757	4023.5875
3110.92066	3986.2875
3113.28232	3987.4875
3115.64255	3987.5875
3118.00134	3981.4875
3120.35871	3984.5875
3122.71466	3953.6875
3125.06917	3966.2875
3127.42226	3953.8875
3129.77393	3955.1875
3132.12417	3968.3875
3134.47299	3975.1875
3136.82039	3968.5875
3139.16636	3956.6875
3141.51092	3966.4875
3143.85406	3979.1875
3146.19579	3980.7875
3148.53609	3994.8875
3150.87499	3993.5875
3153.21246	3996.6875
3155.54853	3995.8875
3157.88318	4000.2875
3160.21642	3997.8875
3162.54826	4004.1875
3164.87868	4004.3875
3167.2077	4012.1875
3169.5353	4012.0875
3171.86151	4018.2875
3174.18631	4005.9875
3176.5097	3993.9875
3178.83169	4002.0875
3181.15228	4006.5875
3183.47147	4003.9875
3185.78926	3995.3875
3188.10565	3994.9875
3190.42065	3994.0875
3192.73424	3987.7875
3195.04645	3992.0875
3197.35725	3997.4875
3199.66667	4007.5875
3201.97469	4016.0875
3204.28132	4011.9875
3206.58656	4001.6875
3208.8904	4020.8875
3211.19287	4006.2875
3213.49394	4013.8875
3215.79363	4013.7875
3218.09193	4024.1875
3220.38884	4008.5875
3222.68438	4003.2875
3224.97853	4012.0875
3227.2713	4005.7875
3229.56269	4007.5875
3231.8527	4006.2875
3234.14133	4004.0875
3236.42858	3966.0875
3238.71446	3973.2875
3240.99896	3976.1875
3243.28209	3977.2875
3245.56384	3964.2875
3247.84423	3963.2875
3250.12324	3967.8875
3252.40088	3958.3875
3254.67715	3955.9875
3256.95205	3947.1875
3259.22558	3952.2875
3261.49775	3934.2875
3263.76855	3947.7875
3266.03799	3938.3875
3268.30606	3938.7875
3270.57277	3923.3875
3272.83812	3921.7875
3275.10211	3912.6875
3277.36474	3904.0875
3279.62601	3894.1875
3281.88593	3893.9875
3284.14448	3900.8875
3286.40168	3889.8875
3288.65753	3879.5875
3290.91202	3881.6875
3293.16516	3887.3875
3295.41695	3869.9875
3297.66738	3852.4875
3299.91647	3833.3875
3302.16421	3809.7875
3304.4106	3795.1875
3306.65564	3777.7875
3308.89933	3768.2875
3311.14169	3733.6875
3313.38269	3713.5875
3315.62236	3675.7875
3317.86068	3651.7875
3320.09766	3625.6875
3322.3333	3610.5875
3324.5676	3591.1875
3326.80056	3530.9875
3329.03219	3508.5875
3331.26248	1.4875
3333.49143	-0.0125
3335.71905	-0.3125
