Data from AgNPs_FTO_APTES_UA_50uM_CRN_50uM_R6G_10uM_NaF_0.1M_Addition_RamanShift__6__14-39-44-966.txt Node

Date: Mon Feb 21 14:39:44 GMT 2022
User: TCL
Spectrometer: QEP01345
Trigger mode: 4
Integration Time (sec): 7.000000E0
Scans to average: 10
Electric dark correction enabled: true
Nonlinearity correction enabled: false
Boxcar width: 0
XAxis mode: Raman Shifts
Number of Pixels in Spectrum: 1044
>>>>>Begin Spectral Data<<<<<
46.04893	-0.3625
50.45542	0.2375
54.85868	-1.0625
59.25871	-1.4625
63.6555	66.2375
68.04907	72.1375
72.43941	73.2375
76.82654	78.8375
81.21044	80.5375
85.59113	85.9375
89.96862	85.5375
94.34289	88.3375
98.71396	94.9375
103.08183	97.6375
107.4465	99.4375
111.80798	100.5375
116.16626	100.3375
120.52136	99.4375
124.87327	113.5375
129.222	107.9375
133.56755	115.7375
137.90993	124.9375
142.24913	131.5375
146.58517	145.8375
150.91804	172.6375
155.24774	201.9375
159.57429	246.2375
163.89768	315.2375
168.21792	408.7375
172.53501	563.1375
176.84895	774.4375
181.15975	1079.3375
185.46741	1519.5375
189.77193	2082.9375
194.07331	2782.7375
198.37157	3593.8375
202.6667	4421.7375
206.9587	5263.4375
211.24758	6093.2375
215.53334	6906.8375
219.81599	7781.5375
224.09553	8751.4375
228.37195	9858.6375
232.64527	11031.0375
236.91549	12237.7375
241.18261	13480.4375
245.44663	14557.3375
249.70755	15539.1375
253.96539	16395.7375
258.22014	17088.4375
262.4718	17647.2375
266.72039	18050.4375
270.96589	18241.7375
275.20832	18183.5375
279.44768	18047.4375
283.68397	17792.7375
287.91719	17594.0375
292.14735	17430.4375
296.37445	17405.5375
300.59849	17457.6375
304.81948	17530.8375
309.03742	17579.0375
313.25231	17564.2375
317.46415	17374.9375
321.67296	17072.8375
325.87872	16815.0375
330.08145	16737.9375
334.28114	16750.1375
338.47781	16854.8375
342.67145	17059.8375
346.86207	17329.2375
351.04966	17669.3375
355.23424	18032.3375
359.4158	18370.8375
363.59435	18579.9375
367.76989	18724.3375
371.94243	18803.1375
376.11196	18881.3375
380.27849	18980.0375
384.44203	19017.4375
388.60257	19174.2375
392.76012	19357.6375
396.91468	19551.2375
401.06626	19846.6375
405.21485	20036.2375
409.36047	19973.5375
413.50311	19627.9375
417.64277	19494.3375
421.77947	19532.0375
425.9132	19569.0375
430.04396	19651.7375
434.17176	19776.8375
438.2966	19910.0375
442.41849	20285.1375
446.53742	20943.8375
450.6534	21537.1375
454.76644	21929.5375
458.87653	21984.2375
462.98368	21788.7375
467.08789	21472.3375
471.18916	21066.6375
475.2875	20687.7375
479.38291	20322.4375
483.4754	20124.2375
487.56496	19932.2375
491.6516	19707.8375
495.73531	19604.7375
499.81612	19568.4375
503.89401	19741.0375
507.96899	19782.0375
512.04106	19785.5375
516.11023	19660.9375
520.1765	19517.1375
524.23987	19449.2375
528.30034	19386.1375
532.35792	19276.2375
536.41261	19108.3375
540.46441	18883.9375
544.51333	18801.4375
548.55936	18878.4375
552.60252	19240.4375
556.64279	19682.9375
560.6802	20031.5375
564.71473	20150.5375
568.7464	20361.1375
572.7752	20854.7375
576.80114	21409.1375
580.82422	22048.2375
584.84444	22969.2375
588.86181	24422.0375
592.87633	25965.3375
596.888	26338.1375
600.89682	25132.4375
604.9028	24331.1375
608.90594	25482.6375
612.90624	27062.1375
616.90371	25324.2375
620.89834	21523.5375
624.89015	19859.6375
628.87913	19675.4375
632.86528	19827.2375
636.84862	19848.3375
640.82913	19505.3375
644.80683	18999.1375
648.78172	18683.6375
652.75379	18680.9375
656.72306	18951.8375
660.68952	19266.1375
664.65319	19107.6375
668.61405	18823.3375
672.57211	18813.7375
676.52738	18974.9375
680.47986	18944.6375
684.42955	18781.8375
688.37646	18653.5375
692.32058	18734.1375
696.26192	19025.9375
700.20048	19309.7375
704.13626	19446.8375
708.06928	19387.3375
711.99952	19309.4375
715.927	19291.3375
719.85171	19412.5375
723.77365	19321.4375
727.69284	19051.7375
731.60928	18793.1375
735.52295	18744.1375
739.43388	18758.9375
743.34206	18899.4375
747.24749	19003.6375
751.15017	19112.9375
755.05012	19417.4375
758.94733	19880.2375
762.8418	20782.2375
766.73354	22228.5375
770.62254	23561.1375
774.50882	23897.4375
778.39237	22983.2375
782.27321	21492.2375
786.15132	20305.7375
790.02671	19524.9375
793.89938	19044.1375
797.76935	18870.7375
801.6366	18772.6375
805.50115	18704.9375
809.36299	18635.4375
813.22213	18480.6375
817.07857	18367.3375
820.93231	18296.5375
824.78336	18211.8375
828.63172	18185.9375
832.47738	18135.8375
836.32036	18141.9375
840.16066	18216.3375
843.99827	18265.6375
847.8332	18198.5375
851.66546	18191.8375
855.49504	18227.6375
859.32195	18256.3375
863.1462	18178.7375
866.96777	18135.0375
870.78668	18109.8375
874.60293	18160.7375
878.41652	18187.4375
882.22745	18291.3375
886.03573	18383.7375
889.84136	18383.2375
893.64433	18277.9375
897.44466	18223.2375
901.24235	18149.1375
905.0374	18081.3375
908.8298	18030.2375
912.61957	18028.5375
916.40671	18125.3375
920.19121	18319.6375
923.97308	18581.6375
927.75233	18691.1375
931.52895	18630.9375
935.30295	18365.1375
939.07433	18010.1375
942.84309	17783.7375
946.60924	17644.2375
950.37278	17611.1375
954.13371	17640.1375
957.89203	17629.7375
961.64774	17576.1375
965.40086	17665.8375
969.15137	17608.3375
972.89929	17586.7375
976.64461	17552.3375
980.38733	17583.8375
984.12747	17627.2375
987.86502	17747.2375
991.59999	17842.3375
995.33237	18085.8375
999.06217	18513.6375
1002.78939	18947.0375
1006.51404	19361.4375
1010.23611	19753.9375
1013.95561	19971.7375
1017.67255	20059.8375
1021.38692	19784.1375
1025.09872	19432.9375
1028.80796	19280.2375
1032.51465	19388.8375
1036.21877	19589.7375
1039.92035	19686.5375
1043.61937	19620.0375
1047.31584	19466.8375
1051.00976	19263.2375
1054.70114	19184.9375
1058.38998	19175.2375
1062.07627	19282.7375
1065.76003	19463.3375
1069.44126	19700.8375
1073.11995	20044.0375
1076.79611	20337.9375
1080.46974	20505.9375
1084.14085	20767.1375
1087.80943	20966.2375
1091.47549	21131.8375
1095.13903	21104.0375
1098.80005	20752.7375
1102.45857	20295.1375
1106.11456	19965.1375
1109.76805	19878.7375
1113.41903	19873.9375
1117.06751	19972.9375
1120.71348	20227.7375
1124.35696	20482.0375
1127.99793	20723.6375
1131.63641	20871.6375
1135.2724	20826.8375
1138.90589	20752.3375
1142.5369	20768.3375
1146.16542	20814.3375
1149.79145	20968.2375
1153.415	21106.2375
1157.03607	21350.9375
1160.65467	21882.3375
1164.27079	22744.4375
1167.88443	23828.1375
1171.49561	25168.2375
1175.10432	26842.0375
1178.71056	29000.7375
1182.31434	30944.2375
1185.91565	31865.4375
1189.51451	31535.2375
1193.11091	30609.8375
1196.70485	29466.8375
1200.29634	28352.1375
1203.88538	27475.8375
1207.47197	26884.1375
1211.05612	26321.1375
1214.63782	25754.9375
1218.21708	25240.2375
1221.79391	24943.7375
1225.36829	24816.2375
1228.94024	24653.3375
1232.50976	24328.7375
1236.07685	23842.3375
1239.6415	23452.5375
1243.20374	23388.3375
1246.76355	23501.0375
1250.32093	23803.0375
1253.8759	24258.9375
1257.42845	24880.2375
1260.97859	25681.1375
1264.52631	26491.1375
1268.07163	27290.0375
1271.61453	28169.2375
1275.15503	28888.1375
1278.69312	29683.9375
1282.22882	30514.6375
1285.76211	31658.7375
1289.29301	32883.6375
1292.82151	34343.8375
1296.34761	36029.7375
1299.87133	38079.4375
1303.39266	40270.8375
1306.9116	42407.4375
1310.42815	44119.7375
1313.94233	44935.6375
1317.45412	44443.3375
1320.96354	43060.1375
1324.47058	41707.9375
1327.97525	40577.2375
1331.47754	39810.2375
1334.97747	39256.2375
1338.47502	38756.1375
1341.97022	38302.8375
1345.46305	37925.9375
1348.95352	37851.0375
1352.44163	38308.5375
1355.92738	39889.2375
1359.41078	42203.5375
1362.89183	44179.0375
1366.37053	43903.8375
1369.84688	40535.5375
1373.32088	35933.3375
1376.79254	32660.3375
1380.26186	31300.0375
1383.72883	31070.2375
1387.19347	30835.4375
1390.65578	30287.8375
1394.11575	30135.6375
1397.57339	30338.8375
1401.0287	30735.3375
1404.48168	31132.3375
1407.93234	31080.7375
1411.38068	30722.1375
1414.82669	29990.3375
1418.27039	29125.5375
1421.71177	28216.6375
1425.15083	27371.8375
1428.58758	27073.2375
1432.02203	27364.3375
1435.45416	28020.4375
1438.88399	28701.9375
1442.31151	29108.7375
1445.73673	29276.2375
1449.15965	29416.5375
1452.58027	29289.6375
1455.9986	29119.2375
1459.41463	29177.0375
1462.82837	29579.0375
1466.23982	30246.0375
1469.64898	30972.2375
1473.05586	31414.2375
1476.46045	31724.5375
1479.86276	31783.7375
1483.26279	31659.8375
1486.66054	31695.0375
1490.05602	31985.1375
1493.44922	32460.8375
1496.84016	32906.8375
1500.22882	33403.5375
1503.61521	34044.2375
1506.99934	34848.9375
1510.38121	35463.8375
1513.76081	35339.6375
1517.13816	34533.4375
1520.51324	33338.3375
1523.88607	32432.4375
1527.25665	32125.3375
1530.62498	31962.7375
1533.99105	31715.5375
1537.35488	31181.8375
1540.71647	30439.2375
1544.07581	29605.9375
1547.4329	28843.2375
1550.78776	28235.4375
1554.14038	27856.4375
1557.49077	27633.2375
1560.83892	27572.8375
1564.18484	27548.7375
1567.52853	27722.0375
1570.86999	28008.7375
1574.20922	28473.9375
1577.54624	28811.5375
1580.88103	28780.2375
1584.2136	28921.5375
1587.54395	29751.4375
1590.87208	31362.7375
1594.19801	33524.7375
1597.52172	35460.4375
1600.84321	36034.1375
1604.16251	34501.2375
1607.47959	31694.7375
1610.79447	28734.6375
1614.10715	26172.3375
1617.41763	24236.1375
1620.7259	23042.7375
1624.03199	22461.8375
1627.33587	22581.9375
1630.63757	23343.8375
1633.93707	24850.0375
1637.23439	27492.2375
1640.52951	31371.3375
1643.82246	36074.4375
1647.11321	39657.3375
1650.40179	40044.3375
1653.68819	36621.6375
1656.97241	31289.8375
1660.25446	26494.6375
1663.53433	23119.4375
1666.81203	21107.6375
1670.08756	19912.2375
1673.36092	19151.6375
1676.63211	18675.2375
1679.90115	18354.7375
1683.16801	18087.1375
1686.43272	17884.7375
1689.69527	17703.3375
1692.95567	17510.2375
1696.2139	17332.2375
1699.46999	17174.1375
1702.72392	17078.1375
1705.97571	17127.7375
1709.22535	17189.3375
1712.47284	17211.4375
1715.71819	17248.8375
1718.96139	17215.8375
1722.20246	17133.9375
1725.44139	17091.3375
1728.67818	17003.3375
1731.91284	16904.6375
1735.14537	16787.4375
1738.37576	16743.0375
1741.60403	16710.6375
1744.83017	16606.4375
1748.05418	16576.8375
1751.27607	16536.6375
1754.49584	16453.3375
1757.71349	16420.3375
1760.92903	16354.8375
1764.14244	16360.7375
1767.35375	16324.3375
1770.56294	16272.0375
1773.77002	16259.7375
1776.97499	16279.4375
1780.17785	16271.0375
1783.37861	16329.3375
1786.57727	16287.8375
1789.77382	16278.2375
1792.96828	16233.1375
1796.16064	16234.3375
1799.3509	16211.3375
1802.53907	16166.3375
1805.72514	16153.4375
1808.90913	16116.4375
1812.09102	16115.4375
1815.27083	16055.7375
1818.44856	16080.7375
1821.6242	16069.4375
1824.79776	16036.2375
1827.96924	16066.9375
1831.13864	16034.9375
1834.30597	16001.4375
1837.47122	16008.4375
1840.6344	16023.2375
1843.7955	16036.1375
1846.95454	16024.2375
1850.11151	16004.2375
1853.26642	15988.0375
1856.41926	15978.6375
1859.57004	15967.0375
1862.71876	15943.0375
1865.86542	15918.9375
1869.01003	15937.6375
1872.15258	15911.4375
1875.29308	15904.2375
1878.43152	15889.3375
1881.56792	15895.3375
1884.70227	15856.2375
1887.83457	15856.8375
1890.96482	15826.5375
1894.09304	15793.4375
1897.21921	15808.0375
1900.34335	15790.8375
1903.46544	15764.6375
1906.58551	15758.5375
1909.70353	15727.4375
1912.81953	15717.0375
1915.93349	15669.9375
1919.04543	15659.4375
1922.15534	15648.5375
1925.26322	15592.4375
1928.36908	15554.1375
1931.47292	15518.6375
1934.57473	15479.1375
1937.67453	15457.8375
1940.77232	15418.5375
1943.86808	15375.5375
1946.96184	15348.7375
1950.05358	15297.3375
1953.14331	15290.8375
1956.23103	15232.2375
1959.31675	15204.6375
1962.40046	15168.4375
1965.48217	15126.1375
1968.56188	15090.5375
1971.63959	15051.1375
1974.7153	14993.6375
1977.78901	14970.9375
1980.86073	14909.1375
1983.93046	14861.4375
1986.99819	14807.6375
1990.06394	14813.2375
1993.1277	14752.8375
1996.18947	14749.9375
1999.24925	14688.8375
2002.30706	14620.7375
2005.36288	14576.7375
2008.41672	14541.8375
2011.46859	14507.4375
2014.51848	14459.6375
2017.56639	14443.9375
2020.61233	14414.3375
2023.6563	14398.7375
2026.6983	14359.0375
2029.73833	14329.2375
2032.7764	14312.4375
2035.8125	14273.4375
2038.84664	14256.2375
2041.87881	14261.0375
2044.90903	14225.5375
2047.93729	14211.0375
2050.96359	14204.2375
2053.98794	14200.9375
2057.01034	14188.2375
2060.03078	14173.1375
2063.04927	14151.1375
2066.06582	14135.3375
2069.08042	14104.8375
2072.09307	14134.9375
2075.10378	14092.9375
2078.11255	14118.9375
2081.11938	14123.4375
2084.12426	14110.1375
2087.12722	14099.4375
2090.12824	14097.4375
2093.12732	14092.8375
2096.12447	14096.8375
2099.11969	14112.5375
2102.11299	14129.5375
2105.10435	14132.9375
2108.09379	14142.0375
2111.08131	14132.9375
2114.0669	14133.8375
2117.05057	14152.9375
2120.03233	14161.8375
2123.01216	14212.4375
2125.99008	14207.6375
2128.96609	14242.0375
2131.94018	14231.5375
2134.91236	14238.8375
2137.88263	14212.7375
2140.851	14293.3375
2143.81746	14269.8375
2146.78201	14260.8375
2149.74466	14292.7375
2152.7054	14260.1375
2155.66425	14271.7375
2158.6212	14242.7375
2161.57625	14250.2375
2164.52941	14267.3375
2167.48067	14248.4375
2170.43004	14256.2375
2173.37752	14279.4375
2176.32311	14273.2375
2179.26681	14259.7375
2182.20863	14259.8375
2185.14856	14259.1375
2188.08661	14298.3375
2191.02278	14310.1375
2193.95707	14272.2375
2196.88948	14252.3375
2199.82001	14255.5375
2202.74867	14276.2375
2205.67545	14270.0375
2208.60037	14204.3375
2211.52341	14193.6375
2214.44458	14206.3375
2217.36388	14138.4375
2220.28132	14131.8375
2223.1969	14125.8375
2226.11061	14117.3375
2229.02246	14092.3375
2231.93245	14097.0375
2234.84058	14076.4375
2237.74686	14051.6375
2240.65128	14065.2375
2243.55385	14061.6375
2246.45456	14015.2375
2249.35343	14018.8375
2252.25044	13970.8375
2255.14561	13936.7375
2258.03893	13938.7375
2260.93041	13914.4375
2263.82004	13884.6375
2266.70783	13860.6375
2269.59378	13804.6375
2272.4779	13785.3375
2275.36017	13755.5375
2278.24061	13738.5375
2281.11922	13736.1375
2283.996	13693.1375
2286.87094	13689.2375
2289.74405	13662.2375
2292.61534	13667.9375
2295.4848	13655.9375
2298.35243	13686.2375
2301.21824	13656.8375
2304.08223	13661.8375
2306.94439	13663.3375
2309.80474	13652.1375
2312.66327	13657.6375
2315.51999	13664.5375
2318.37489	13663.9375
2321.22797	13614.4375
2324.07925	13622.1375
2326.92871	13626.6375
2329.77637	13620.0375
2332.62222	13597.6375
2335.46626	13565.6375
2338.3085	13553.7375
2341.14893	13558.4375
2343.98756	13550.7375
2346.8244	13536.8375
2349.65943	13574.2375
2352.49267	13556.0375
2355.32411	13543.7375
2358.15376	13531.0375
2360.98161	13531.4375
2363.80768	13534.3375
2366.63195	13514.7375
2369.45444	13497.7375
2372.27514	13507.7375
2375.09405	13462.4375
2377.91118	13434.0375
2380.72652	13460.7375
2383.54009	13416.4375
2386.35187	13411.6375
2389.16188	13342.5375
2391.97011	13332.5375
2394.77657	13332.0375
2397.58125	13327.5375
2400.38416	13317.0375
2403.18529	13301.7375
2405.98466	13256.7375
2408.78226	13270.6375
2411.57809	13218.4375
2414.37216	13220.2375
2417.16446	13235.3375
2419.955	13198.5375
2422.74378	13221.9375
2425.5308	13198.1375
2428.31606	13198.1375
2431.09956	13182.3375
2433.88131	13180.6375
2436.6613	13193.0375
2439.43954	13186.4375
2442.21603	13173.2375
2444.99077	13176.5375
2447.76377	13195.1375
2450.53501	13204.1375
2453.30451	13190.1375
2456.07226	13178.4375
2458.83827	13150.6375
2461.60254	13149.7375
2464.36507	13181.0375
2467.12586	13185.7375
2469.88492	13181.1375
2472.64224	13174.9375
2475.39782	13171.4375
2478.15167	13173.4375
2480.90379	13189.9375
2483.65417	13177.9375
2486.40283	13189.9375
2489.14976	13213.2375
2491.89497	13169.2375
2494.63845	13174.9375
2497.3802	13185.9375
2500.12024	13187.7375
2502.85855	13177.6375
2505.59514	13146.5375
2508.33002	13145.2375
2511.06318	13119.0375
2513.79462	13129.7375
2516.52435	13133.9375
2519.25237	13122.4375
2521.97867	13075.1375
2524.70327	13097.3375
2527.42616	13098.3375
2530.14734	13088.6375
2532.86681	13083.8375
2535.58458	13087.8375
2538.30065	13075.6375
2541.01501	13076.6375
2543.72768	13047.4375
2546.43864	13066.4375
2549.14791	13021.0375
2551.85548	13030.2375
2554.56136	13014.3375
2557.26554	13018.1375
2559.96803	12996.6375
2562.66883	12992.7375
2565.36794	12984.8375
2568.06536	12985.1375
2570.7611	12942.0375
2573.45514	12963.2375
2576.14751	12985.8375
2578.83819	12932.3375
2581.52719	12930.2375
2584.21451	12886.0375
2586.90015	12919.8375
2589.58411	12888.8375
2592.2664	12879.2375
2594.94701	12851.2375
2597.62594	12876.2375
2600.30321	12858.8375
2602.9788	12878.3375
2605.65273	12863.8375
2608.32498	12910.1375
2610.99557	12855.6375
2613.66449	12889.6375
2616.33175	12869.2375
2618.99734	12882.4375
2621.66128	12872.6375
2624.32355	12892.4375
2626.98416	12863.2375
2629.64311	12837.3375
2632.30041	12811.9375
2634.95605	12779.0375
2637.61004	12765.2375
2640.26238	12769.9375
2642.91306	12802.3375
2645.56209	12774.2375
2648.20948	12763.8375
2650.85521	12783.4375
2653.4993	12764.0375
2656.14175	12777.0375
2658.78255	12756.0375
2661.42171	12796.5375
2664.05923	12814.9375
2666.6951	12870.1375
2669.32934	12849.1375
2671.96194	12870.4375
2674.59291	12845.5375
2677.22224	12837.2375
2679.84993	12840.9375
2682.476	12810.5375
2685.10043	12844.6375
2687.72324	12805.3375
2690.34441	12821.8375
2692.96396	12805.7375
2695.58188	12829.4375
2698.19818	12819.9375
2700.81285	12802.3375
2703.4259	12778.7375
2706.03733	12754.7375
2708.64714	12766.1375
2711.25533	12808.9375
2713.86191	12824.8375
2716.46687	12868.0375
2719.07021	12892.7375
2721.67194	12902.7375
2724.27206	12904.0375
2726.87057	12892.6375
2729.46747	12913.6375
2732.06276	12951.2375
2734.65644	12927.7375
2737.24852	12927.1375
2739.83899	12882.8375
2742.42786	12918.0375
2745.01513	12906.0375
2747.60079	12899.4375
2750.18486	12890.9375
2752.76733	12883.0375
2755.3482	12908.4375
2757.92747	12880.1375
2760.50515	12880.7375
2763.08123	12881.8375
2765.65573	12853.5375
2768.22863	12882.3375
2770.79994	12826.7375
2773.36967	12830.1375
2775.9378	12818.3375
2778.50435	12824.9375
2781.06932	12819.1375
2783.6327	12872.3375
2786.1945	12831.5375
2788.75471	12831.3375
2791.31335	12806.7375
2793.87041	12780.1375
2796.42589	12753.8375
2798.97979	12734.9375
2801.53212	12726.6375
2804.08288	12699.7375
2806.63206	12683.4375
2809.17967	12678.3375
2811.72571	12644.7375
2814.27018	12609.0375
2816.81308	12612.0375
2819.35442	12593.0375
2821.89419	12588.3375
2824.43239	12604.8375
2826.96904	12573.4375
2829.50412	12582.7375
2832.03763	12565.2375
2834.56959	12555.1375
2837.1	12565.6375
2839.62884	12534.8375
2842.15613	12532.5375
2844.68186	12522.2375
2847.20604	12541.6375
2849.72867	12531.4375
2852.24974	12513.4375
2854.76927	12518.7375
2857.28724	12484.4375
2859.80367	12482.3375
2862.31855	12465.8375
2864.83189	12442.1375
2867.34368	12450.5375
2869.85393	12451.7375
2872.36264	12454.1375
2874.8698	12446.1375
2877.37543	12440.4375
2879.87952	12431.3375
2882.38207	12418.9375
2884.88308	12423.9375
2887.38256	12457.4375
2889.88051	12457.4375
2892.37692	12472.4375
2894.8718	12485.3375
2897.36515	12522.9375
2899.85698	12478.0375
2902.34727	12535.3375
2904.83604	12522.9375
2907.32328	12546.3375
2909.809	12546.1375
2912.29319	12563.6375
2914.77587	12564.7375
2917.25702	12567.6375
2919.73665	12533.1375
2922.21476	12557.2375
2924.69136	12528.3375
2927.16644	12550.6375
2929.64	12548.5375
2932.11205	12510.8375
2934.58258	12492.4375
2937.05161	12513.8375
2939.51912	12512.2375
2941.98513	12518.1375
2944.44962	12483.6375
2946.91261	12434.6375
2949.37409	12459.9375
2951.83407	12453.9375
2954.29254	12478.8375
2956.74951	12464.4375
2959.20498	12420.0375
2961.65895	12414.5375
2964.11142	12417.7375
2966.56239	12382.3375
2969.01186	12392.2375
2971.45984	12382.8375
2973.90632	12355.7375
2976.35131	12302.4375
2978.7948	12304.5375
2981.23681	12276.9375
2983.67732	12255.3375
2986.11635	12244.3375
2988.55388	12211.6375
2990.98993	12182.7375
2993.4245	12160.6375
2995.85758	12125.7375
2998.28917	12115.9375
3000.71928	12102.8375
3003.14791	12081.6375
3005.57506	12073.1375
3008.00073	12009.5375
3010.42493	12037.3375
3012.84764	12017.9375
3015.26888	11982.5375
3017.68865	11975.2375
3020.10694	11970.0375
3022.52376	11936.4375
3024.9391	11913.2375
3027.35298	11894.3375
3029.76539	11895.7375
3032.17632	11873.9375
3034.5858	11904.9375
3036.9938	11886.2375
3039.40034	11884.4375
3041.80542	11866.6375
3044.20903	11825.6375
3046.61118	11851.9375
3049.01187	11819.6375
3051.4111	11794.8375
3053.80888	11785.1375
3056.20519	11763.9375
3058.60005	11744.9375
3060.99345	11729.4375
3063.3854	11681.0375
3065.7759	11683.6375
3068.16494	11642.3375
3070.55254	11628.6375
3072.93868	11585.6375
3075.32338	11547.3375
3077.70662	11522.2375
3080.08842	11496.2375
3082.46878	11475.5375
3084.84769	11447.4375
3087.22515	11485.2375
3089.60118	11469.4375
3091.97576	11479.2375
3094.3489	11457.7375
3096.72061	11457.9375
3099.09087	11434.5375
3101.4597	11445.5375
3103.82709	11458.9375
3106.19305	11453.9375
3108.55757	11454.7375
3110.92066	11414.1375
3113.28232	11394.8375
3115.64255	11332.5375
3118.00134	11372.8375
3120.35871	11354.3375
3122.71466	11334.9375
3125.06917	11316.7375
3127.42226	11305.6375
3129.77393	11310.3375
3132.12417	11281.9375
3134.47299	11263.6375
3136.82039	11255.1375
3139.16636	11268.4375
3141.51092	11242.8375
3143.85406	11266.6375
3146.19579	11251.6375
3148.53609	11256.0375
3150.87499	11257.5375
3153.21246	11264.9375
3155.54853	11276.9375
3157.88318	11276.4375
3160.21642	11277.6375
3162.54826	11264.1375
3164.87868	11258.4375
3167.2077	11264.8375
3169.5353	11305.5375
3171.86151	11307.1375
3174.18631	11287.8375
3176.5097	11271.7375
3178.83169	11267.4375
3181.15228	11240.4375
3183.47147	11210.3375
3185.78926	11241.0375
3188.10565	11232.9375
3190.42065	11246.8375
3192.73424	11212.0375
3195.04645	11213.4375
3197.35725	11201.0375
3199.66667	11172.7375
3201.97469	11183.4375
3204.28132	11144.9375
3206.58656	11152.9375
3208.8904	11153.5375
3211.19287	11166.2375
3213.49394	11159.3375
3215.79363	11185.4375
3218.09193	11214.9375
3220.38884	11185.9375
3222.68438	11158.8375
3224.97853	11132.2375
3227.2713	11159.5375
3229.56269	11145.4375
3231.8527	11156.0375
3234.14133	11137.7375
3236.42858	11088.9375
3238.71446	11127.1375
3240.99896	11100.9375
3243.28209	11039.9375
3245.56384	11059.9375
3247.84423	11063.0375
3250.12324	11055.7375
3252.40088	11061.6375
3254.67715	11034.4375
3256.95205	11023.8375
3259.22558	11042.6375
3261.49775	11000.8375
3263.76855	11008.2375
3266.03799	10977.3375
3268.30606	10960.0375
3270.57277	10953.6375
3272.83812	10958.5375
3275.10211	10933.9375
3277.36474	10906.2375
3279.62601	10908.2375
3281.88593	10882.5375
3284.14448	10884.0375
3286.40168	10903.1375
3288.65753	10911.2375
3290.91202	10887.8375
3293.16516	10877.8375
3295.41695	10860.3375
3297.66738	10793.2375
3299.91647	10743.3375
3302.16421	10689.8375
3304.4106	10615.3375
3306.65564	10567.9375
3308.89933	10503.5375
3311.14169	10417.1375
3313.38269	10312.2375
3315.62236	10267.8375
3317.86068	10170.5375
3320.09766	10106.6375
3322.3333	10024.6375
3324.5676	9986.0375
3326.80056	9808.3375
3329.03219	9778.7375
3331.26248	3.9375
3333.49143	-0.4625
3335.71905	-0.5625
