Data from AgNPs_FTO_APTES_UA_50uM_CRN_100uM_R6G_10uM_NaF_0.1M_Addition_RamanShift__12__15-29-55-030.txt Node

Date: Mon Feb 21 15:29:55 GMT 2022
User: TCL
Spectrometer: QEP01345
Trigger mode: 4
Integration Time (sec): 7.000000E0
Scans to average: 10
Electric dark correction enabled: true
Nonlinearity correction enabled: false
Boxcar width: 0
XAxis mode: Raman Shifts
Number of Pixels in Spectrum: 1044
>>>>>Begin Spectral Data<<<<<
46.04893	0.4375
50.45542	-0.4625
54.85868	-0.9625
59.25871	-0.8625
63.6555	41.8375
68.04907	47.4375
72.43941	48.8375
76.82654	54.3375
81.21044	56.0375
85.59113	58.6375
89.96862	57.7375
94.34289	66.7375
98.71396	65.2375
103.08183	67.9375
107.4465	70.1375
111.80798	67.8375
116.16626	68.0375
120.52136	68.5375
124.87327	74.1375
129.222	71.5375
133.56755	75.2375
137.90993	80.2375
142.24913	85.3375
146.58517	90.6375
150.91804	100.9375
155.24774	116.6375
159.57429	141.6375
163.89768	174.4375
168.21792	231.1375
172.53501	307.6375
176.84895	425.5375
181.15975	595.9375
185.46741	833.4375
189.77193	1139.8375
194.07331	1526.5375
198.37157	1970.3375
202.6667	2443.4375
206.9587	2902.3375
211.24758	3362.8375
215.53334	3806.2375
219.81599	4271.3375
224.09553	4777.1375
228.37195	5366.6375
232.64527	6003.0375
236.91549	6675.5375
241.18261	7357.6375
245.44663	7995.4375
249.70755	8580.4375
253.96539	9109.6375
258.22014	9517.6375
262.4718	9845.7375
266.72039	10055.2375
270.96589	10186.6375
275.20832	10175.5375
279.44768	10113.8375
283.68397	9956.3375
287.91719	9830.2375
292.14735	9725.3375
296.37445	9669.7375
300.59849	9693.0375
304.81948	9684.3375
309.03742	9666.6375
313.25231	9614.1375
317.46415	9493.5375
321.67296	9312.4375
325.87872	9199.2375
330.08145	9118.8375
334.28114	9160.6375
338.47781	9226.1375
342.67145	9337.9375
346.86207	9484.4375
351.04966	9641.9375
355.23424	9829.6375
359.4158	9966.0375
363.59435	10092.6375
367.76989	10205.5375
371.94243	10283.0375
376.11196	10369.0375
380.27849	10421.6375
384.44203	10450.6375
388.60257	10530.1375
392.76012	10596.4375
396.91468	10687.6375
401.06626	10833.0375
405.21485	10913.6375
409.36047	10886.9375
413.50311	10767.0375
417.64277	10622.3375
421.77947	10566.4375
425.9132	10520.3375
430.04396	10557.8375
434.17176	10605.0375
438.2966	10695.0375
442.41849	10840.8375
446.53742	10986.8375
450.6534	11144.7375
454.76644	11260.6375
458.87653	11325.5375
462.98368	11340.4375
467.08789	11339.9375
471.18916	11297.1375
475.2875	11191.6375
479.38291	11103.2375
483.4754	11040.8375
487.56496	10938.4375
491.6516	10915.2375
495.73531	10891.7375
499.81612	10945.1375
503.89401	11013.2375
507.96899	11053.4375
512.04106	11084.0375
516.11023	11116.3375
520.1765	11087.9375
524.23987	11058.4375
528.30034	11020.1375
532.35792	10963.8375
536.41261	10944.3375
540.46441	10850.5375
544.51333	10850.5375
548.55936	10888.7375
552.60252	11007.5375
556.64279	11136.7375
560.6802	11195.7375
564.71473	11195.2375
568.7464	11246.6375
572.7752	11359.0375
576.80114	11443.5375
580.82422	11533.4375
584.84444	11662.9375
588.86181	11764.9375
592.87633	11821.0375
596.888	11886.9375
600.89682	11961.3375
604.9028	12281.3375
608.90594	13168.6375
612.90624	14159.5375
616.90371	13682.1375
620.89834	12075.4375
624.89015	11309.5375
628.87913	11172.7375
632.86528	11235.7375
636.84862	11344.9375
640.82913	11322.8375
644.80683	11157.3375
648.78172	11029.8375
652.75379	11024.9375
656.72306	11138.5375
660.68952	11260.9375
664.65319	11278.3375
668.61405	11177.5375
672.57211	11191.9375
676.52738	11220.9375
680.47986	11269.4375
684.42955	11232.1375
688.37646	11191.8375
692.32058	11193.5375
696.26192	11211.7375
700.20048	11267.0375
704.13626	11296.0375
708.06928	11267.8375
711.99952	11201.9375
715.927	11158.0375
719.85171	11172.0375
723.77365	11183.1375
727.69284	11137.9375
731.60928	11084.5375
735.52295	11032.5375
739.43388	11028.7375
743.34206	11094.8375
747.24749	11102.7375
751.15017	11140.3375
755.05012	11234.3375
758.94733	11410.7375
762.8418	11745.2375
766.73354	12332.0375
770.62254	12982.0375
774.50882	13298.4375
778.39237	13007.5375
782.27321	12321.9375
786.15132	11755.1375
790.02671	11383.5375
793.89938	11183.6375
797.76935	11073.0375
801.6366	11046.0375
805.50115	11000.1375
809.36299	10956.3375
813.22213	10898.2375
817.07857	10896.8375
820.93231	10845.1375
824.78336	10858.2375
828.63172	10849.0375
832.47738	10854.4375
836.32036	10844.9375
840.16066	10834.0375
843.99827	10806.5375
847.8332	10824.0375
851.66546	10846.2375
855.49504	10839.7375
859.32195	10850.0375
863.1462	10853.4375
866.96777	10849.1375
870.78668	10862.7375
874.60293	10880.1375
878.41652	10904.9375
882.22745	10928.2375
886.03573	10955.7375
889.84136	10954.0375
893.64433	10933.8375
897.44466	10919.3375
901.24235	10904.5375
905.0374	10909.5375
908.8298	10871.4375
912.61957	10857.2375
916.40671	10888.9375
920.19121	10917.7375
923.97308	10941.8375
927.75233	10959.4375
931.52895	10944.6375
935.30295	10898.2375
939.07433	10799.2375
942.84309	10702.5375
946.60924	10644.3375
950.37278	10588.1375
954.13371	10557.1375
957.89203	10545.0375
961.64774	10536.5375
965.40086	10544.7375
969.15137	10521.2375
972.89929	10507.0375
976.64461	10459.3375
980.38733	10472.9375
984.12747	10468.3375
987.86502	10495.4375
991.59999	10527.8375
995.33237	10576.9375
999.06217	10617.8375
1002.78939	10707.9375
1006.51404	10819.2375
1010.23611	10895.2375
1013.95561	10970.3375
1017.67255	11016.6375
1021.38692	10971.4375
1025.09872	10923.6375
1028.80796	10845.1375
1032.51465	10815.2375
1036.21877	10809.6375
1039.92035	10837.8375
1043.61937	10856.9375
1047.31584	10884.1375
1051.00976	10955.4375
1054.70114	10967.8375
1058.38998	10993.5375
1062.07627	11046.0375
1065.76003	11101.3375
1069.44126	11173.5375
1073.11995	11264.8375
1076.79611	11385.4375
1080.46974	11428.8375
1084.14085	11487.3375
1087.80943	11532.0375
1091.47549	11570.1375
1095.13903	11564.6375
1098.80005	11518.5375
1102.45857	11393.7375
1106.11456	11295.4375
1109.76805	11220.2375
1113.41903	11241.4375
1117.06751	11264.7375
1120.71348	11372.2375
1124.35696	11463.7375
1127.99793	11607.7375
1131.63641	11654.2375
1135.2724	11574.8375
1138.90589	11454.0375
1142.5369	11394.9375
1146.16542	11342.2375
1149.79145	11354.1375
1153.415	11325.6375
1157.03607	11346.7375
1160.65467	11478.5375
1164.27079	11648.9375
1167.88443	11939.7375
1171.49561	12271.3375
1175.10432	12763.2375
1178.71056	13396.5375
1182.31434	14036.1375
1185.91565	14430.8375
1189.51451	14518.0375
1193.11091	14401.2375
1196.70485	14097.5375
1200.29634	13693.4375
1203.88538	13346.8375
1207.47197	12947.4375
1211.05612	12594.5375
1214.63782	12335.6375
1218.21708	12173.1375
1221.79391	12066.3375
1225.36829	11999.5375
1228.94024	11972.0375
1232.50976	11965.0375
1236.07685	11972.9375
1239.6415	11966.8375
1243.20374	11995.9375
1246.76355	12017.6375
1250.32093	12048.9375
1253.8759	12157.5375
1257.42845	12290.5375
1260.97859	12460.1375
1264.52631	12649.1375
1268.07163	12828.2375
1271.61453	13022.9375
1275.15503	13146.9375
1278.69312	13256.6375
1282.22882	13360.0375
1285.76211	13489.5375
1289.29301	13640.7375
1292.82151	13877.0375
1296.34761	14159.2375
1299.87133	14494.2375
1303.39266	14898.1375
1306.9116	15437.5375
1310.42815	15961.0375
1313.94233	16233.0375
1317.45412	16213.6375
1320.96354	15958.7375
1324.47058	15668.2375
1327.97525	15367.6375
1331.47754	15227.3375
1334.97747	15218.9375
1338.47502	15311.1375
1341.97022	15612.3375
1345.46305	15879.9375
1348.95352	16227.2375
1352.44163	16555.8375
1355.92738	16941.8375
1359.41078	17403.9375
1362.89183	17886.4375
1366.37053	17639.1375
1369.84688	16524.4375
1373.32088	15167.9375
1376.79254	14150.2375
1380.26186	13569.7375
1383.72883	13248.5375
1387.19347	13056.4375
1390.65578	12799.4375
1394.11575	12625.1375
1397.57339	12501.7375
1401.0287	12478.1375
1404.48168	12462.2375
1407.93234	12492.4375
1411.38068	12524.3375
1414.82669	12439.2375
1418.27039	12318.5375
1421.71177	12161.5375
1425.15083	12002.2375
1428.58758	11881.1375
1432.02203	11835.4375
1435.45416	11873.0375
1438.88399	11942.6375
1442.31151	11981.1375
1445.73673	12019.6375
1449.15965	12053.7375
1452.58027	12161.5375
1455.9986	12187.3375
1459.41463	12268.6375
1462.82837	12392.5375
1466.23982	12550.9375
1469.64898	12759.0375
1473.05586	12933.9375
1476.46045	13054.6375
1479.86276	13159.0375
1483.26279	13261.8375
1486.66054	13285.7375
1490.05602	13464.1375
1493.44922	13706.1375
1496.84016	14121.6375
1500.22882	14722.6375
1503.61521	15470.9375
1506.99934	16198.5375
1510.38121	16709.1375
1513.76081	16625.9375
1517.13816	16014.8375
1520.51324	15214.3375
1523.88607	14501.4375
1527.25665	13994.5375
1530.62498	13758.7375
1533.99105	13547.2375
1537.35488	13423.0375
1540.71647	13254.1375
1544.07581	13136.6375
1547.4329	12970.1375
1550.78776	12874.1375
1554.14038	12825.2375
1557.49077	12841.7375
1560.83892	12861.6375
1564.18484	12983.3375
1567.52853	13099.0375
1570.86999	13258.6375
1574.20922	13305.9375
1577.54624	13300.3375
1580.88103	13099.6375
1584.2136	12801.5375
1587.54395	12644.3375
1590.87208	12697.8375
1594.19801	12940.5375
1597.52172	13314.6375
1600.84321	13527.3375
1604.16251	13405.9375
1607.47959	13102.4375
1610.79447	12711.5375
1614.10715	12252.7375
1617.41763	11794.0375
1620.7259	11445.7375
1624.03199	11206.1375
1627.33587	11053.2375
1630.63757	11100.7375
1633.93707	11282.2375
1637.23439	11643.8375
1640.52951	12221.1375
1643.82246	12988.5375
1647.11321	13781.4375
1650.40179	14235.1375
1653.68819	13982.1375
1656.97241	13124.3375
1660.25446	12081.8375
1663.53433	11207.9375
1666.81203	10633.7375
1670.08756	10274.5375
1673.36092	10068.4375
1676.63211	9907.3375
1679.90115	9802.7375
1683.16801	9715.8375
1686.43272	9653.6375
1689.69527	9555.6375
1692.95567	9486.3375
1696.2139	9361.1375
1699.46999	9237.5375
1702.72392	9206.8375
1705.97571	9259.6375
1709.22535	9350.9375
1712.47284	9413.6375
1715.71819	9457.3375
1718.96139	9428.5375
1722.20246	9406.4375
1725.44139	9397.9375
1728.67818	9375.4375
1731.91284	9320.5375
1735.14537	9271.4375
1738.37576	9233.0375
1741.60403	9221.3375
1744.83017	9198.5375
1748.05418	9171.1375
1751.27607	9126.7375
1754.49584	9073.6375
1757.71349	9042.5375
1760.92903	8980.4375
1764.14244	9005.9375
1767.35375	8993.0375
1770.56294	8942.6375
1773.77002	8932.0375
1776.97499	8947.6375
1780.17785	9003.2375
1783.37861	9005.3375
1786.57727	9015.0375
1789.77382	8987.3375
1792.96828	8985.3375
1796.16064	8946.9375
1799.3509	8917.9375
1802.53907	8929.0375
1805.72514	8894.8375
1808.90913	8890.9375
1812.09102	8859.5375
1815.27083	8851.5375
1818.44856	8839.4375
1821.6242	8817.5375
1824.79776	8805.4375
1827.96924	8795.4375
1831.13864	8783.0375
1834.30597	8788.3375
1837.47122	8766.3375
1840.6344	8757.3375
1843.7955	8773.4375
1846.95454	8755.7375
1850.11151	8736.9375
1853.26642	8732.3375
1856.41926	8726.1375
1859.57004	8716.3375
1862.71876	8688.0375
1865.86542	8688.2375
1869.01003	8683.1375
1872.15258	8682.5375
1875.29308	8665.4375
1878.43152	8648.8375
1881.56792	8642.9375
1884.70227	8614.0375
1887.83457	8614.0375
1890.96482	8590.8375
1894.09304	8590.3375
1897.21921	8572.3375
1900.34335	8562.6375
1903.46544	8541.7375
1906.58551	8538.4375
1909.70353	8508.9375
1912.81953	8528.0375
1915.93349	8494.4375
1919.04543	8491.7375
1922.15534	8498.2375
1925.26322	8459.8375
1928.36908	8447.3375
1931.47292	8424.5375
1934.57473	8405.0375
1937.67453	8380.7375
1940.77232	8368.3375
1943.86808	8361.4375
1946.96184	8297.6375
1950.05358	8288.1375
1953.14331	8264.7375
1956.23103	8234.2375
1959.31675	8231.6375
1962.40046	8195.8375
1965.48217	8186.9375
1968.56188	8167.4375
1971.63959	8145.0375
1974.7153	8117.9375
1977.78901	8094.0375
1980.86073	8053.9375
1983.93046	8044.1375
1986.99819	8011.3375
1990.06394	7986.1375
1993.1277	7969.3375
1996.18947	7938.0375
1999.24925	7920.2375
2002.30706	7880.4375
2005.36288	7856.3375
2008.41672	7851.8375
2011.46859	7819.6375
2014.51848	7808.8375
2017.56639	7783.0375
2020.61233	7739.9375
2023.6563	7738.9375
2026.6983	7713.7375
2029.73833	7682.1375
2032.7764	7662.4375
2035.8125	7640.1375
2038.84664	7616.8375
2041.87881	7610.2375
2044.90903	7616.3375
2047.93729	7575.2375
2050.96359	7586.7375
2053.98794	7565.9375
2057.01034	7574.6375
2060.03078	7568.7375
2063.04927	7571.4375
2066.06582	7533.9375
2069.08042	7538.4375
2072.09307	7540.7375
2075.10378	7513.1375
2078.11255	7525.1375
2081.11938	7513.8375
2084.12426	7507.2375
2087.12722	7523.6375
2090.12824	7496.7375
2093.12732	7495.0375
2096.12447	7521.8375
2099.11969	7512.7375
2102.11299	7498.2375
2105.10435	7501.7375
2108.09379	7502.7375
2111.08131	7504.4375
2114.0669	7517.6375
2117.05057	7495.6375
2120.03233	7528.0375
2123.01216	7538.6375
2125.99008	7545.7375
2128.96609	7539.3375
2131.94018	7555.0375
2134.91236	7544.9375
2137.88263	7536.9375
2140.851	7545.9375
2143.81746	7565.7375
2146.78201	7562.1375
2149.74466	7574.0375
2152.7054	7569.3375
2155.66425	7568.9375
2158.6212	7574.0375
2161.57625	7549.2375
2164.52941	7533.8375
2167.48067	7545.9375
2170.43004	7546.8375
2173.37752	7528.6375
2176.32311	7526.9375
2179.26681	7530.5375
2182.20863	7522.5375
2185.14856	7525.5375
2188.08661	7522.9375
2191.02278	7515.4375
2193.95707	7525.8375
2196.88948	7511.4375
2199.82001	7504.4375
2202.74867	7510.1375
2205.67545	7489.1375
2208.60037	7470.4375
2211.52341	7459.3375
2214.44458	7455.1375
2217.36388	7432.2375
2220.28132	7387.6375
2223.1969	7393.9375
2226.11061	7382.1375
2229.02246	7352.2375
2231.93245	7357.4375
2234.84058	7328.5375
2237.74686	7322.3375
2240.65128	7337.0375
2243.55385	7325.1375
2246.45456	7315.9375
2249.35343	7292.4375
2252.25044	7278.9375
2255.14561	7284.1375
2258.03893	7276.9375
2260.93041	7242.5375
2263.82004	7221.8375
2266.70783	7213.3375
2269.59378	7187.2375
2272.4779	7188.6375
2275.36017	7155.5375
2278.24061	7142.3375
2281.11922	7139.6375
2283.996	7117.6375
2286.87094	7112.3375
2289.74405	7100.7375
2292.61534	7097.0375
2295.4848	7076.7375
2298.35243	7057.4375
2301.21824	7084.4375
2304.08223	7070.6375
2306.94439	7041.1375
2309.80474	7050.3375
2312.66327	7045.3375
2315.51999	7028.0375
2318.37489	7016.1375
2321.22797	7007.2375
2324.07925	7013.5375
2326.92871	7013.5375
2329.77637	7002.6375
2332.62222	6966.4375
2335.46626	6956.7375
2338.3085	6945.1375
2341.14893	6919.4375
2343.98756	6918.1375
2346.8244	6920.7375
2349.65943	6919.6375
2352.49267	6925.3375
2355.32411	6914.9375
2358.15376	6917.8375
2360.98161	6909.7375
2363.80768	6926.4375
2366.63195	6882.4375
2369.45444	6862.9375
2372.27514	6869.2375
2375.09405	6869.1375
2377.91118	6854.3375
2380.72652	6853.8375
2383.54009	6839.3375
2386.35187	6814.4375
2389.16188	6787.9375
2391.97011	6791.6375
2394.77657	6770.1375
2397.58125	6747.6375
2400.38416	6736.0375
2403.18529	6745.3375
2405.98466	6719.4375
2408.78226	6714.7375
2411.57809	6679.3375
2414.37216	6686.8375
2417.16446	6669.8375
2419.955	6685.3375
2422.74378	6680.5375
2425.5308	6674.6375
2428.31606	6668.4375
2431.09956	6658.5375
2433.88131	6635.5375
2436.6613	6645.7375
2439.43954	6629.2375
2442.21603	6644.8375
2444.99077	6621.1375
2447.76377	6634.0375
2450.53501	6632.8375
2453.30451	6622.7375
2456.07226	6596.2375
2458.83827	6584.3375
2461.60254	6604.6375
2464.36507	6590.0375
2467.12586	6580.3375
2469.88492	6578.5375
2472.64224	6567.7375
2475.39782	6567.1375
2478.15167	6556.4375
2480.90379	6558.7375
2483.65417	6541.4375
2486.40283	6540.9375
2489.14976	6559.4375
2491.89497	6540.2375
2494.63845	6527.0375
2497.3802	6513.9375
2500.12024	6532.3375
2502.85855	6508.8375
2505.59514	6502.5375
2508.33002	6498.9375
2511.06318	6501.9375
2513.79462	6476.4375
2516.52435	6474.9375
2519.25237	6449.7375
2521.97867	6457.5375
2524.70327	6431.1375
2527.42616	6444.0375
2530.14734	6428.0375
2532.86681	6426.0375
2535.58458	6429.8375
2538.30065	6429.0375
2541.01501	6419.1375
2543.72768	6392.4375
2546.43864	6391.3375
2549.14791	6381.0375
2551.85548	6368.2375
2554.56136	6350.7375
2557.26554	6325.8375
2559.96803	6325.0375
2562.66883	6321.9375
2565.36794	6304.0375
2568.06536	6293.9375
2570.7611	6293.3375
2573.45514	6282.7375
2576.14751	6276.7375
2578.83819	6262.2375
2581.52719	6246.8375
2584.21451	6223.2375
2586.90015	6209.2375
2589.58411	6201.7375
2592.2664	6183.7375
2594.94701	6163.0375
2597.62594	6159.0375
2600.30321	6168.0375
2602.9788	6169.0375
2605.65273	6144.7375
2608.32498	6151.3375
2610.99557	6148.4375
2613.66449	6157.3375
2616.33175	6125.5375
2618.99734	6144.9375
2621.66128	6127.3375
2624.32355	6116.0375
2626.98416	6100.3375
2629.64311	6073.2375
2632.30041	6065.2375
2634.95605	6058.9375
2637.61004	6052.3375
2640.26238	6033.5375
2642.91306	6043.7375
2645.56209	6041.5375
2648.20948	6038.3375
2650.85521	6024.8375
2653.4993	6014.7375
2656.14175	6011.1375
2658.78255	6016.2375
2661.42171	6007.5375
2664.05923	6028.7375
2666.6951	6020.9375
2669.32934	6035.7375
2671.96194	6028.7375
2674.59291	6027.5375
2677.22224	6044.3375
2679.84993	6010.1375
2682.476	6002.9375
2685.10043	6006.6375
2687.72324	6013.9375
2690.34441	6007.3375
2692.96396	6018.0375
2695.58188	5994.9375
2698.19818	6001.4375
2700.81285	5990.8375
2703.4259	5967.0375
2706.03733	5904.5375
2708.64714	5946.0375
2711.25533	5957.6375
2713.86191	5984.4375
2716.46687	5986.6375
2719.07021	5983.3375
2721.67194	6006.4375
2724.27206	5991.6375
2726.87057	6001.0375
2729.46747	6005.5375
2732.06276	6001.8375
2734.65644	5984.2375
2737.24852	5996.0375
2739.83899	5987.9375
2742.42786	5986.8375
2745.01513	5972.9375
2747.60079	5964.1375
2750.18486	5958.9375
2752.76733	5965.6375
2755.3482	5940.5375
2757.92747	5941.1375
2760.50515	5932.3375
2763.08123	5928.7375
2765.65573	5912.5375
2768.22863	5900.3375
2770.79994	5871.4375
2773.36967	5880.8375
2775.9378	5868.2375
2778.50435	5859.4375
2781.06932	5862.2375
2783.6327	5845.7375
2786.1945	5850.8375
2788.75471	5840.5375
2791.31335	5837.6375
2793.87041	5825.9375
2796.42589	5812.8375
2798.97979	5796.1375
2801.53212	5792.7375
2804.08288	5773.4375
2806.63206	5764.7375
2809.17967	5742.0375
2811.72571	5726.2375
2814.27018	5710.6375
2816.81308	5700.2375
2819.35442	5719.0375
2821.89419	5714.4375
2824.43239	5695.4375
2826.96904	5678.6375
2829.50412	5690.3375
2832.03763	5671.6375
2834.56959	5668.9375
2837.1	5665.3375
2839.62884	5678.8375
2842.15613	5656.9375
2844.68186	5679.6375
2847.20604	5673.0375
2849.72867	5679.6375
2852.24974	5671.6375
2854.76927	5641.9375
2857.28724	5626.4375
2859.80367	5652.6375
2862.31855	5632.0375
2864.83189	5618.3375
2867.34368	5617.5375
2869.85393	5618.6375
2872.36264	5628.4375
2874.8698	5623.9375
2877.37543	5625.1375
2879.87952	5610.7375
2882.38207	5626.6375
2884.88308	5608.0375
2887.38256	5602.8375
2889.88051	5602.6375
2892.37692	5611.2375
2894.8718	5593.2375
2897.36515	5603.2375
2899.85698	5587.0375
2902.34727	5619.5375
2904.83604	5604.4375
2907.32328	5624.5375
2909.809	5610.5375
2912.29319	5625.3375
2914.77587	5618.6375
2917.25702	5632.3375
2919.73665	5634.8375
2922.21476	5624.9375
2924.69136	5619.9375
2927.16644	5624.0375
2929.64	5603.3375
2932.11205	5597.2375
2934.58258	5592.0375
2937.05161	5598.7375
2939.51912	5593.9375
2941.98513	5581.5375
2944.44962	5584.4375
2946.91261	5576.3375
2949.37409	5573.6375
2951.83407	5579.0375
2954.29254	5567.2375
2956.74951	5561.2375
2959.20498	5542.9375
2961.65895	5550.8375
2964.11142	5524.5375
2966.56239	5507.0375
2969.01186	5510.5375
2971.45984	5490.1375
2973.90632	5477.9375
2976.35131	5463.0375
2978.7948	5469.8375
2981.23681	5449.1375
2983.67732	5452.9375
2986.11635	5437.8375
2988.55388	5409.8375
2990.98993	5421.9375
2993.4245	5416.8375
2995.85758	5400.3375
2998.28917	5383.5375
3000.71928	5369.8375
3003.14791	5378.5375
3005.57506	5373.3375
3008.00073	5344.2375
3010.42493	5350.5375
3012.84764	5342.8375
3015.26888	5350.9375
3017.68865	5341.6375
3020.10694	5332.9375
3022.52376	5305.1375
3024.9391	5315.3375
3027.35298	5303.1375
3029.76539	5278.2375
3032.17632	5296.5375
3034.5858	5281.0375
3036.9938	5274.3375
3039.40034	5277.1375
3041.80542	5247.5375
3044.20903	5243.6375
3046.61118	5246.8375
3049.01187	5235.2375
3051.4111	5244.9375
3053.80888	5223.4375
3056.20519	5204.6375
3058.60005	5209.7375
3060.99345	5208.8375
3063.3854	5203.4375
3065.7759	5186.4375
3068.16494	5176.5375
3070.55254	5161.7375
3072.93868	5151.5375
3075.32338	5134.2375
3077.70662	5133.3375
3080.08842	5112.9375
3082.46878	5123.0375
3084.84769	5109.3375
3087.22515	5110.1375
3089.60118	5116.5375
3091.97576	5123.0375
3094.3489	5133.7375
3096.72061	5116.6375
3099.09087	5119.6375
3101.4597	5124.7375
3103.82709	5118.2375
3106.19305	5115.1375
3108.55757	5125.3375
3110.92066	5128.4375
3113.28232	5127.9375
3115.64255	5089.9375
3118.00134	5084.9375
3120.35871	5098.3375
3122.71466	5064.1375
3125.06917	5084.8375
3127.42226	5070.7375
3129.77393	5073.4375
3132.12417	5075.0375
3134.47299	5074.2375
3136.82039	5045.1375
3139.16636	5056.7375
3141.51092	5067.6375
3143.85406	5077.0375
3146.19579	5078.5375
3148.53609	5068.4375
3150.87499	5087.7375
3153.21246	5066.2375
3155.54853	5105.4375
3157.88318	5086.0375
3160.21642	5103.9375
3162.54826	5108.9375
3164.87868	5109.7375
3167.2077	5100.0375
3169.5353	5104.9375
3171.86151	5109.6375
3174.18631	5121.9375
3176.5097	5099.7375
3178.83169	5111.3375
3181.15228	5113.8375
3183.47147	5082.6375
3185.78926	5098.6375
3188.10565	5097.3375
3190.42065	5096.2375
3192.73424	5084.0375
3195.04645	5093.9375
3197.35725	5071.5375
3199.66667	5091.3375
3201.97469	5089.6375
3204.28132	5070.2375
3206.58656	5087.2375
3208.8904	5085.0375
3211.19287	5093.4375
3213.49394	5091.0375
3215.79363	5089.6375
3218.09193	5109.2375
3220.38884	5104.3375
3222.68438	5065.7375
3224.97853	5069.8375
3227.2713	5074.9375
3229.56269	5079.3375
3231.8527	5066.3375
3234.14133	5063.7375
3236.42858	5067.0375
3238.71446	5066.7375
3240.99896	5038.0375
3243.28209	5040.5375
3245.56384	5023.4375
3247.84423	5030.1375
3250.12324	5023.5375
3252.40088	5043.6375
3254.67715	5043.4375
3256.95205	5022.4375
3259.22558	5022.8375
3261.49775	5020.3375
3263.76855	5018.7375
3266.03799	5023.8375
3268.30606	5001.5375
3270.57277	5000.1375
3272.83812	4995.4375
3275.10211	4975.5375
3277.36474	4973.2375
3279.62601	4969.8375
3281.88593	4981.8375
3284.14448	4951.4375
3286.40168	4970.9375
3288.65753	4960.9375
3290.91202	4950.8375
3293.16516	4933.3375
3295.41695	4929.3375
3297.66738	4895.7375
3299.91647	4882.3375
3302.16421	4844.4375
3304.4106	4829.0375
3306.65564	4789.1375
3308.89933	4784.6375
3311.14169	4716.5375
3313.38269	4683.8375
3315.62236	4643.7375
3317.86068	4622.5375
3320.09766	4582.1375
3322.3333	4552.3375
3324.5676	4547.2375
3326.80056	4448.2375
3329.03219	4440.0375
3331.26248	1.2375
3333.49143	-0.2625
3335.71905	0.5375
