Data from AgNPs_FTO_APTES_UA_50uM_CRN_20uM_R6G_10uM_NaF_0.1M_Addition_RamanShift__0__13-54-14-908.txt Node

Date: Mon Feb 21 13:54:14 GMT 2022
User: TCL
Spectrometer: QEP01345
Trigger mode: 4
Integration Time (sec): 7.000000E0
Scans to average: 10
Electric dark correction enabled: true
Nonlinearity correction enabled: false
Boxcar width: 0
XAxis mode: Raman Shifts
Number of Pixels in Spectrum: 1044
>>>>>Begin Spectral Data<<<<<
46.04893	0.5
50.45542	-0.7
54.85868	-0.7
59.25871	-1.7
63.6555	58.7
68.04907	66.5
72.43941	66.9
76.82654	76.1
81.21044	74.8
85.59113	79
89.96862	78.7
94.34289	84.9
98.71396	85.6
103.08183	92.8
107.4465	92.1
111.80798	91.5
116.16626	94.4
120.52136	93.6
124.87327	103.7
129.222	104.3
133.56755	105.4
137.90993	116.3
142.24913	121.8
146.58517	136.8
150.91804	151.6
155.24774	178
159.57429	216.9
163.89768	277.5
168.21792	368.8
172.53501	491.9
176.84895	687.4
181.15975	955.9
185.46741	1330.5
189.77193	1837.6
194.07331	2455.9
198.37157	3173
202.6667	3905.2
206.9587	4625.3
211.24758	5383.5
215.53334	6132
219.81599	6938.2
224.09553	7855.1
228.37195	8840.3
232.64527	9949
236.91549	11073.2
241.18261	12183.4
245.44663	13137.5
249.70755	13923.7
253.96539	14611.3
258.22014	15226.1
262.4718	15710.8
266.72039	16076.5
270.96589	16220
275.20832	16177.6
279.44768	15960.7
283.68397	15671.8
287.91719	15404.2
292.14735	15291.5
296.37445	15363
300.59849	15605
304.81948	15890.3
309.03742	16129.7
313.25231	16167.2
317.46415	15836.8
321.67296	15291.6
325.87872	14872.2
330.08145	14731.6
334.28114	14779.1
338.47781	14897.8
342.67145	15127.5
346.86207	15461.3
351.04966	15886.6
355.23424	16398.2
359.4158	16813.4
363.59435	17068.9
367.76989	17229
371.94243	17302.8
376.11196	17361.6
380.27849	17417.8
384.44203	17450.2
388.60257	17453.2
392.76012	17477.6
396.91468	17617.4
401.06626	17921.5
405.21485	18091.8
409.36047	17950.3
413.50311	17523.5
417.64277	17144.8
421.77947	16933.9
425.9132	16851
430.04396	16879
434.17176	17005.8
438.2966	17264.4
442.41849	17710.1
446.53742	18393.9
450.6534	19028
454.76644	19401.5
458.87653	19379.4
462.98368	19141.4
467.08789	18754.9
471.18916	18328.7
475.2875	17862.2
479.38291	17466.5
483.4754	17222.1
487.56496	17034.7
491.6516	16827.2
495.73531	16780.4
499.81612	16789.8
503.89401	16909
507.96899	16956.7
512.04106	16974.9
516.11023	17014.7
520.1765	17075.6
524.23987	17109.9
528.30034	17140.7
532.35792	17060.4
536.41261	16785.7
540.46441	16486.6
544.51333	16333
548.55936	16398.5
552.60252	16705
556.64279	17092
560.6802	17354.6
564.71473	17443.1
568.7464	17666.1
572.7752	17963.9
576.80114	18022.5
580.82422	18106.8
584.84444	18608
588.86181	19558.6
592.87633	20747.2
596.888	21361.2
600.89682	21019.8
604.9028	21265.4
608.90594	23884
612.90624	27201
616.90371	25670.5
620.89834	20310.4
624.89015	17979.1
628.87913	17566.7
632.86528	17683
636.84862	17640.2
640.82913	17298.3
644.80683	16716.5
648.78172	16340.5
652.75379	16349.7
656.72306	16759
660.68952	17232.6
664.65319	17103.6
668.61405	16625.8
672.57211	16490
676.52738	16567.6
680.47986	16549.2
684.42955	16350.2
688.37646	16250.8
692.32058	16382.6
696.26192	16608.6
700.20048	16864.8
704.13626	16939.4
708.06928	16834.5
711.99952	16646.7
715.927	16710.9
719.85171	16892.8
723.77365	16859.6
727.69284	16656.1
731.60928	16442.3
735.52295	16436.4
739.43388	16473.4
743.34206	16583.1
747.24749	16630.4
751.15017	16706.4
755.05012	16887.8
758.94733	17312.2
762.8418	18402.8
766.73354	20198.1
770.62254	22046
774.50882	22896.9
778.39237	22141.2
782.27321	20275.2
786.15132	18515.5
790.02671	17396.6
793.89938	16867.1
797.76935	16635.2
801.6366	16556.9
805.50115	16491.8
809.36299	16441.7
813.22213	16313.5
817.07857	16232.5
820.93231	16197.1
824.78336	16189.3
828.63172	16219.8
832.47738	16236.9
836.32036	16339.3
840.16066	16390
843.99827	16436.5
847.8332	16353.4
851.66546	16298.4
855.49504	16297.2
859.32195	16276.5
863.1462	16241.3
866.96777	16178.7
870.78668	16162
874.60293	16200.6
878.41652	16239.3
882.22745	16297.9
886.03573	16421.6
889.84136	16422.8
893.64433	16307.6
897.44466	16203.8
901.24235	16168.3
905.0374	16144.6
908.8298	16053.8
912.61957	16038.5
916.40671	16112.2
920.19121	16247.7
923.97308	16462.1
927.75233	16663.7
931.52895	16745.8
935.30295	16608.7
939.07433	16310
942.84309	16019.8
946.60924	15909.5
950.37278	15838.1
954.13371	15798.6
957.89203	15699.2
961.64774	15664
965.40086	15621
969.15137	15638.9
972.89929	15626.1
976.64461	15667.4
980.38733	15763.7
984.12747	15850
987.86502	16003.4
991.59999	16238.4
995.33237	16574.6
999.06217	17044.5
1002.78939	17599.7
1006.51404	17938.7
1010.23611	18201.6
1013.95561	18323
1017.67255	18301.4
1021.38692	18080.4
1025.09872	17827.3
1028.80796	17902.6
1032.51465	18381.5
1036.21877	18865.9
1039.92035	18980.4
1043.61937	18799.4
1047.31584	18335.2
1051.00976	17838.6
1054.70114	17569.2
1058.38998	17444.1
1062.07627	17470.2
1065.76003	17479.9
1069.44126	17584.7
1073.11995	17823.1
1076.79611	18184.6
1080.46974	18435.6
1084.14085	18752.2
1087.80943	18993.9
1091.47549	19102.2
1095.13903	18962.8
1098.80005	18552.6
1102.45857	18215.8
1106.11456	18047.9
1109.76805	18081.2
1113.41903	18220.6
1117.06751	18418.6
1120.71348	18740.9
1124.35696	19086.5
1127.99793	19398.1
1131.63641	19486.8
1135.2724	19189.6
1138.90589	18855.9
1142.5369	18595.9
1146.16542	18497.8
1149.79145	18477.3
1153.415	18478.5
1157.03607	18600.1
1160.65467	18953.3
1164.27079	19600.5
1167.88443	20553.3
1171.49561	21890.4
1175.10432	23825.8
1178.71056	26383.3
1182.31434	28644.6
1185.91565	29572.8
1189.51451	29003.3
1193.11091	27552.1
1196.70485	25974.9
1200.29634	24634.6
1203.88538	23681.9
1207.47197	22793
1211.05612	22065.8
1214.63782	21620.8
1218.21708	21491.2
1221.79391	21606.8
1225.36829	21764.6
1228.94024	21631.1
1232.50976	21193.7
1236.07685	20764.1
1239.6415	20548.9
1243.20374	20561.7
1246.76355	20724.3
1250.32093	20994.1
1253.8759	21446.6
1257.42845	22068.8
1260.97859	22780.9
1264.52631	23522.3
1268.07163	24304
1271.61453	25008.9
1275.15503	25699.2
1278.69312	26230.3
1282.22882	26798.5
1285.76211	27529.4
1289.29301	28403.8
1292.82151	29447.3
1296.34761	30704.1
1299.87133	32451.3
1303.39266	34710.4
1306.9116	37502.9
1310.42815	40292.6
1313.94233	41690.7
1317.45412	40880.6
1320.96354	38682.9
1324.47058	36246.7
1327.97525	34047.9
1331.47754	32661
1334.97747	31931.4
1338.47502	31607.1
1341.97022	31382.1
1345.46305	31292.8
1348.95352	31966.5
1352.44163	33529
1355.92738	36238.8
1359.41078	40005.3
1362.89183	43378.8
1366.37053	43006.7
1369.84688	38355.9
1373.32088	32726.1
1376.79254	29136.6
1380.26186	27610.8
1383.72883	27065.9
1387.19347	26479.2
1390.65578	25629.2
1394.11575	25134.9
1397.57339	25117.8
1401.0287	25265.6
1404.48168	25513.2
1407.93234	25624.4
1411.38068	25493.6
1414.82669	25246.8
1418.27039	24821.6
1421.71177	24268.4
1425.15083	23748.1
1428.58758	23564
1432.02203	23840.9
1435.45416	24401.5
1438.88399	24852.6
1442.31151	25058
1445.73673	25129.9
1449.15965	25141.2
1452.58027	24980.5
1455.9986	24650.4
1459.41463	24489.8
1462.82837	24818.2
1466.23982	25413.4
1469.64898	26084.1
1473.05586	26635.7
1476.46045	26934.4
1479.86276	27216.1
1483.26279	27428.3
1486.66054	27644.4
1490.05602	28086.7
1493.44922	28645.6
1496.84016	29219.2
1500.22882	30184.5
1503.61521	31705.2
1506.99934	33656.5
1510.38121	35364.4
1513.76081	35719.8
1517.13816	34257.6
1520.51324	31693.5
1523.88607	29373.4
1527.25665	27942.6
1530.62498	27213.9
1533.99105	26756.5
1537.35488	26254.9
1540.71647	25728.6
1544.07581	25232.4
1547.4329	24760.9
1550.78776	24460.3
1554.14038	24231.5
1557.49077	24153.1
1560.83892	24150.7
1564.18484	24354.8
1567.52853	24701.6
1570.86999	25147.8
1574.20922	25591.5
1577.54624	25722.2
1580.88103	25282.7
1584.2136	24810.3
1587.54395	25106.1
1590.87208	26365
1594.19801	28402.9
1597.52172	30557.1
1600.84321	31388.8
1604.16251	30134.2
1607.47959	27629.3
1610.79447	24942.6
1614.10715	22628.3
1617.41763	21010.2
1620.7259	20105
1624.03199	19753
1627.33587	19961
1630.63757	20529.6
1633.93707	21737.2
1637.23439	23697
1640.52951	26708.4
1643.82246	30530.2
1647.11321	33932.7
1650.40179	34794.1
1653.68819	32215.5
1656.97241	27562.5
1660.25446	23268.8
1663.53433	20370.9
1666.81203	18701
1670.08756	17717.7
1673.36092	17145.8
1676.63211	16781.7
1679.90115	16520.1
1683.16801	16301.7
1686.43272	16145.7
1689.69527	15980
1692.95567	15846.3
1696.2139	15715.1
1699.46999	15587.7
1702.72392	15531.7
1705.97571	15551.3
1709.22535	15612.8
1712.47284	15673.2
1715.71819	15689.7
1718.96139	15651
1722.20246	15639.6
1725.44139	15590.2
1728.67818	15514.2
1731.91284	15444.5
1735.14537	15374.8
1738.37576	15328.6
1741.60403	15246.3
1744.83017	15205.8
1748.05418	15186.8
1751.27607	15082.2
1754.49584	15022
1757.71349	14964.7
1760.92903	14923.7
1764.14244	14896
1767.35375	14902.6
1770.56294	14866.4
1773.77002	14888.6
1776.97499	14879.3
1780.17785	14923
1783.37861	14928.8
1786.57727	14934.8
1789.77382	14911.8
1792.96828	14938.9
1796.16064	14903.7
1799.3509	14887.9
1802.53907	14863.5
1805.72514	14820.8
1808.90913	14821.2
1812.09102	14761.6
1815.27083	14741.2
1818.44856	14744.2
1821.6242	14701.1
1824.79776	14662.9
1827.96924	14679.8
1831.13864	14683.2
1834.30597	14678.6
1837.47122	14658.8
1840.6344	14657.6
1843.7955	14637.1
1846.95454	14644.6
1850.11151	14595.6
1853.26642	14616.8
1856.41926	14613.3
1859.57004	14615
1862.71876	14607.3
1865.86542	14600
1869.01003	14580.8
1872.15258	14549
1875.29308	14570
1878.43152	14563.8
1881.56792	14558.1
1884.70227	14574.6
1887.83457	14549.8
1890.96482	14540.7
1894.09304	14542.1
1897.21921	14519.9
1900.34335	14537.8
1903.46544	14525.7
1906.58551	14512.8
1909.70353	14502.8
1912.81953	14508.8
1915.93349	14471.2
1919.04543	14476.4
1922.15534	14417.3
1925.26322	14399.5
1928.36908	14339.6
1931.47292	14343.7
1934.57473	14282.1
1937.67453	14286.8
1940.77232	14244.2
1943.86808	14197.9
1946.96184	14181.9
1950.05358	14135.4
1953.14331	14122.4
1956.23103	14084.7
1959.31675	14019.2
1962.40046	13996.5
1965.48217	13956.4
1968.56188	13943.6
1971.63959	13899.5
1974.7153	13879.1
1977.78901	13829.3
1980.86073	13807.7
1983.93046	13769
1986.99819	13700
1990.06394	13677.7
1993.1277	13633
1996.18947	13592.3
1999.24925	13554.7
2002.30706	13519.4
2005.36288	13478
2008.41672	13477.4
2011.46859	13434.3
2014.51848	13423.4
2017.56639	13371.9
2020.61233	13336.6
2023.6563	13316
2026.6983	13281.4
2029.73833	13276.7
2032.7764	13295.4
2035.8125	13213.3
2038.84664	13223.6
2041.87881	13218.4
2044.90903	13190.7
2047.93729	13171.8
2050.96359	13181.4
2053.98794	13189.1
2057.01034	13186.6
2060.03078	13170.1
2063.04927	13195.7
2066.06582	13159.6
2069.08042	13152.4
2072.09307	13141.3
2075.10378	13118.2
2078.11255	13104.6
2081.11938	13097.9
2084.12426	13130.1
2087.12722	13117.6
2090.12824	13084
2093.12732	13089
2096.12447	13110.3
2099.11969	13118.2
2102.11299	13139.9
2105.10435	13130.3
2108.09379	13135.2
2111.08131	13126.3
2114.0669	13119.8
2117.05057	13136.7
2120.03233	13159.1
2123.01216	13171.9
2125.99008	13172.4
2128.96609	13208
2131.94018	13248.2
2134.91236	13252.8
2137.88263	13280.1
2140.851	13262
2143.81746	13251.8
2146.78201	13277.3
2149.74466	13295.6
2152.7054	13275.9
2155.66425	13270
2158.6212	13275.1
2161.57625	13281.3
2164.52941	13276.7
2167.48067	13247
2170.43004	13272.2
2173.37752	13251.2
2176.32311	13253.1
2179.26681	13264.8
2182.20863	13283.4
2185.14856	13268.9
2188.08661	13305.5
2191.02278	13322
2193.95707	13300.4
2196.88948	13297.9
2199.82001	13279.1
2202.74867	13297.1
2205.67545	13319.5
2208.60037	13335
2211.52341	13295.5
2214.44458	13256.6
2217.36388	13229.3
2220.28132	13216.7
2223.1969	13155
2226.11061	13176.5
2229.02246	13158.5
2231.93245	13155.7
2234.84058	13135.4
2237.74686	13149.8
2240.65128	13157
2243.55385	13122.3
2246.45456	13130
2249.35343	13080
2252.25044	13078.3
2255.14561	13048.3
2258.03893	13039.3
2260.93041	12976.3
2263.82004	12964.3
2266.70783	12952
2269.59378	12943.7
2272.4779	12932.5
2275.36017	12902.1
2278.24061	12872.9
2281.11922	12863.9
2283.996	12832.8
2286.87094	12800.7
2289.74405	12795.4
2292.61534	12836
2295.4848	12793.3
2298.35243	12796.9
2301.21824	12832.9
2304.08223	12798.8
2306.94439	12816.9
2309.80474	12820.8
2312.66327	12838.1
2315.51999	12794.8
2318.37489	12834
2321.22797	12805.7
2324.07925	12794.9
2326.92871	12773.7
2329.77637	12798
2332.62222	12777.1
2335.46626	12751.7
2338.3085	12742.6
2341.14893	12747.1
2343.98756	12768.6
2346.8244	12731.8
2349.65943	12740.5
2352.49267	12742.7
2355.32411	12717.7
2358.15376	12726.1
2360.98161	12734.8
2363.80768	12701.6
2366.63195	12675.7
2369.45444	12666.2
2372.27514	12701.5
2375.09405	12669.2
2377.91118	12675.7
2380.72652	12629
2383.54009	12638.4
2386.35187	12606.5
2389.16188	12581.4
2391.97011	12547
2394.77657	12515.5
2397.58125	12495.1
2400.38416	12483.4
2403.18529	12483.9
2405.98466	12468.8
2408.78226	12445.1
2411.57809	12422.5
2414.37216	12416.4
2417.16446	12388.3
2419.955	12401.8
2422.74378	12384.3
2425.5308	12382.2
2428.31606	12378
2431.09956	12363.8
2433.88131	12370.5
2436.6613	12364.5
2439.43954	12366.9
2442.21603	12365.3
2444.99077	12353.2
2447.76377	12383.5
2450.53501	12359.6
2453.30451	12380.6
2456.07226	12397.8
2458.83827	12392.1
2461.60254	12391.6
2464.36507	12386
2467.12586	12378.5
2469.88492	12351.3
2472.64224	12360.9
2475.39782	12359.8
2478.15167	12348.1
2480.90379	12394.8
2483.65417	12422
2486.40283	12445.9
2489.14976	12478.1
2491.89497	12454.3
2494.63845	12428.4
2497.3802	12431.3
2500.12024	12413.5
2502.85855	12422.7
2505.59514	12412.6
2508.33002	12390.3
2511.06318	12388.4
2513.79462	12360.1
2516.52435	12373
2519.25237	12346.7
2521.97867	12316
2524.70327	12324.9
2527.42616	12291.8
2530.14734	12332.3
2532.86681	12305.7
2535.58458	12312.7
2538.30065	12304.6
2541.01501	12304.7
2543.72768	12272.2
2546.43864	12288.5
2549.14791	12257.8
2551.85548	12252.3
2554.56136	12232.6
2557.26554	12248.8
2559.96803	12255.4
2562.66883	12215
2565.36794	12214.2
2568.06536	12186.7
2570.7611	12205.8
2573.45514	12190
2576.14751	12201.4
2578.83819	12179.4
2581.52719	12205.7
2584.21451	12157.2
2586.90015	12157.6
2589.58411	12132.5
2592.2664	12131
2594.94701	12092.7
2597.62594	12122.5
2600.30321	12108
2602.9788	12099.7
2605.65273	12115
2608.32498	12092.5
2610.99557	12086.3
2613.66449	12103.9
2616.33175	12092
2618.99734	12101.4
2621.66128	12074.9
2624.32355	12055.9
2626.98416	12075.8
2629.64311	12047.2
2632.30041	12058.3
2634.95605	12012
2637.61004	12011.6
2640.26238	11987.8
2642.91306	11970.8
2645.56209	11983.6
2648.20948	11974.5
2650.85521	11957.2
2653.4993	11998.9
2656.14175	12012.9
2658.78255	12000.6
2661.42171	12025.4
2664.05923	12026.4
2666.6951	12054.9
2669.32934	12090.6
2671.96194	12066.5
2674.59291	12043.4
2677.22224	12040
2679.84993	12048.7
2682.476	12050.7
2685.10043	12067.2
2687.72324	12014.3
2690.34441	12004.1
2692.96396	12016.3
2695.58188	11993.4
2698.19818	12001.2
2700.81285	12006.9
2703.4259	12009.4
2706.03733	11961.5
2708.64714	11983.6
2711.25533	11993.2
2713.86191	12035.2
2716.46687	12082
2719.07021	12091.1
2721.67194	12102.6
2724.27206	12099.8
2726.87057	12119.4
2729.46747	12117.3
2732.06276	12119.8
2734.65644	12148.8
2737.24852	12122
2739.83899	12104
2742.42786	12104.9
2745.01513	12085.4
2747.60079	12080.3
2750.18486	12032.4
2752.76733	12044.3
2755.3482	12049.2
2757.92747	12038
2760.50515	12037.9
2763.08123	12051.7
2765.65573	12058
2768.22863	12042.1
2770.79994	12043.4
2773.36967	12041.7
2775.9378	12022.9
2778.50435	12027.8
2781.06932	12016.7
2783.6327	12018.9
2786.1945	11988.8
2788.75471	12020.9
2791.31335	11978.3
2793.87041	11976
2796.42589	11940.4
2798.97979	11952.6
2801.53212	11916.6
2804.08288	11915.3
2806.63206	11895.3
2809.17967	11872.1
2811.72571	11826.7
2814.27018	11837.9
2816.81308	11834.4
2819.35442	11834.7
2821.89419	11792.8
2824.43239	11824.6
2826.96904	11811.8
2829.50412	11807.3
2832.03763	11792.1
2834.56959	11783.2
2837.1	11789.5
2839.62884	11784.7
2842.15613	11774.8
2844.68186	11799.6
2847.20604	11788.3
2849.72867	11807
2852.24974	11786.3
2854.76927	11803.1
2857.28724	11764.5
2859.80367	11787.1
2862.31855	11759.7
2864.83189	11771.5
2867.34368	11752.1
2869.85393	11791.1
2872.36264	11767.5
2874.8698	11759.7
2877.37543	11759.9
2879.87952	11772
2882.38207	11770.5
2884.88308	11742.7
2887.38256	11779.3
2889.88051	11772.1
2892.37692	11780.3
2894.8718	11794.1
2897.36515	11818.7
2899.85698	11835.7
2902.34727	11871.7
2904.83604	11857.1
2907.32328	11858.6
2909.809	11878.9
2912.29319	11871.7
2914.77587	11904.9
2917.25702	11892.1
2919.73665	11881.8
2922.21476	11887.3
2924.69136	11854.1
2927.16644	11857.9
2929.64	11833.6
2932.11205	11849.1
2934.58258	11772.3
2937.05161	11783.4
2939.51912	11803.2
2941.98513	11759.2
2944.44962	11738.2
2946.91261	11737.6
2949.37409	11767
2951.83407	11752.2
2954.29254	11732.3
2956.74951	11727.2
2959.20498	11694.2
2961.65895	11683.4
2964.11142	11665.9
2966.56239	11673.8
2969.01186	11686
2971.45984	11653
2973.90632	11640.4
2976.35131	11585.7
2978.7948	11560.6
2981.23681	11541.3
2983.67732	11568.9
2986.11635	11539.9
2988.55388	11485.3
2990.98993	11487.4
2993.4245	11472
2995.85758	11456.3
2998.28917	11430.3
3000.71928	11373.3
3003.14791	11382.6
3005.57506	11396.7
3008.00073	11346.7
3010.42493	11397.8
3012.84764	11358.9
3015.26888	11343.2
3017.68865	11290.1
3020.10694	11280.2
3022.52376	11276.2
3024.9391	11262.5
3027.35298	11253.6
3029.76539	11251.2
3032.17632	11222.1
3034.5858	11208
3036.9938	11215.6
3039.40034	11201.6
3041.80542	11174.9
3044.20903	11146.2
3046.61118	11154.3
3049.01187	11122.2
3051.4111	11126
3053.80888	11130.6
3056.20519	11129.7
3058.60005	11086.7
3060.99345	11076.6
3063.3854	11064.2
3065.7759	11035.5
3068.16494	11028.5
3070.55254	10989.2
3072.93868	10966.4
3075.32338	10925.2
3077.70662	10922.7
3080.08842	10897
3082.46878	10888.1
3084.84769	10881.3
3087.22515	10904.8
3089.60118	10906
3091.97576	10871.6
3094.3489	10879.9
3096.72061	10877.5
3099.09087	10873.4
3101.4597	10895.5
3103.82709	10881.9
3106.19305	10884.1
3108.55757	10907.9
3110.92066	10852
3113.28232	10847.8
3115.64255	10812.4
3118.00134	10795.7
3120.35871	10799.3
3122.71466	10775.5
3125.06917	10760.8
3127.42226	10741.9
3129.77393	10763.9
3132.12417	10739.8
3134.47299	10750.9
3136.82039	10747.2
3139.16636	10750.8
3141.51092	10739.2
3143.85406	10734.5
3146.19579	10733.3
3148.53609	10732.6
3150.87499	10778.6
3153.21246	10743
3155.54853	10787.5
3157.88318	10755.2
3160.21642	10755
3162.54826	10774.7
3164.87868	10760.7
3167.2077	10760.5
3169.5353	10759.9
3171.86151	10746.3
3174.18631	10756.8
3176.5097	10735.4
3178.83169	10727.2
3181.15228	10725.1
3183.47147	10686.6
3185.78926	10710.4
3188.10565	10690.7
3190.42065	10703.1
3192.73424	10690.2
3195.04645	10674.5
3197.35725	10690.4
3199.66667	10675
3201.97469	10699.8
3204.28132	10684.1
3206.58656	10703.7
3208.8904	10731.3
3211.19287	10699.8
3213.49394	10694.4
3215.79363	10722.9
3218.09193	10709.7
3220.38884	10716.9
3222.68438	10705.9
3224.97853	10704.4
3227.2713	10708.8
3229.56269	10707.7
3231.8527	10702.4
3234.14133	10691.4
3236.42858	10664.8
3238.71446	10658.8
3240.99896	10617.3
3243.28209	10655.5
3245.56384	10607.8
3247.84423	10612.5
3250.12324	10583.7
3252.40088	10611.2
3254.67715	10598.3
3256.95205	10558.9
3259.22558	10584.2
3261.49775	10575.2
3263.76855	10580.5
3266.03799	10567.5
3268.30606	10579.8
3270.57277	10578.6
3272.83812	10550.1
3275.10211	10530.8
3277.36474	10539
3279.62601	10507.2
3281.88593	10459.7
3284.14448	10485.6
3286.40168	10488.7
3288.65753	10498.9
3290.91202	10489.8
3293.16516	10446.8
3295.41695	10447.4
3297.66738	10427
3299.91647	10374.1
3302.16421	10325.9
3304.4106	10286.9
3306.65564	10227.6
3308.89933	10173
3311.14169	10096.1
3313.38269	9985.7
3315.62236	9937.8
3317.86068	9869.7
3320.09766	9792.3
3322.3333	9718.3
3324.5676	9721.1
3326.80056	9569.6
3329.03219	9499.5
3331.26248	3.9
3333.49143	-1.4
3335.71905	-1
