Data from AgNPs_FTO_APTES_UA_50uM_CRN_50uM_R6G_10uM_NaF_0.1M_Addition_RamanShift__32__15-10-05-004.txt Node

Date: Mon Feb 21 15:10:05 GMT 2022
User: TCL
Spectrometer: QEP01345
Trigger mode: 4
Integration Time (sec): 7.000000E0
Scans to average: 10
Electric dark correction enabled: true
Nonlinearity correction enabled: false
Boxcar width: 0
XAxis mode: Raman Shifts
Number of Pixels in Spectrum: 1044
>>>>>Begin Spectral Data<<<<<
46.04893	-0.1125
50.45542	-0.2125
54.85868	0.3875
59.25871	-1.9125
63.6555	45.3875
68.04907	50.1875
72.43941	50.4875
76.82654	55.1875
81.21044	58.0875
85.59113	62.2875
89.96862	61.5875
94.34289	66.6875
98.71396	64.3875
103.08183	71.1875
107.4465	72.6875
111.80798	69.8875
116.16626	71.4875
120.52136	69.5875
124.87327	76.8875
129.222	71.6875
133.56755	75.8875
137.90993	82.2875
142.24913	84.8875
146.58517	90.8875
150.91804	100.7875
155.24774	115.7875
159.57429	141.7875
163.89768	171.4875
168.21792	227.5875
172.53501	294.0875
176.84895	405.9875
181.15975	566.3875
185.46741	770.5875
189.77193	1062.9875
194.07331	1425.2875
198.37157	1831.4875
202.6667	2258.3875
206.9587	2695.4875
211.24758	3136.2875
215.53334	3618.5875
219.81599	4171.5875
224.09553	4842.7875
228.37195	5574.8875
232.64527	6349.0875
236.91549	7125.1875
241.18261	7775.6875
245.44663	8285.9875
249.70755	8592.7875
253.96539	8833.7875
258.22014	8986.4875
262.4718	9105.2875
266.72039	9196.7875
270.96589	9228.5875
275.20832	9105.5875
279.44768	8872.0875
283.68397	8644.7875
287.91719	8511.6875
292.14735	8601.8875
296.37445	9042.7875
300.59849	9774.1875
304.81948	10676.6875
309.03742	11346.0875
313.25231	11386.2875
317.46415	10560.5875
321.67296	9209.2875
325.87872	8133.3875
330.08145	7629.0875
334.28114	7609.2875
338.47781	7837.1875
342.67145	8211.9875
346.86207	8864.8875
351.04966	9816.9875
355.23424	10894.2875
359.4158	11686.1875
363.59435	12022.3875
367.76989	12027.4875
371.94243	11918.3875
376.11196	11749.6875
380.27849	11568.8875
384.44203	11286.0875
388.60257	10861.8875
392.76012	10624.3875
396.91468	10613.0875
401.06626	10996.8875
405.21485	11280.4875
409.36047	10802.0875
413.50311	9720.5875
417.64277	8671.2875
421.77947	8020.5875
425.9132	7742.2875
430.04396	7615.2875
434.17176	7635.8875
438.2966	7801.8875
442.41849	8091.1875
446.53742	8429.2875
450.6534	8720.3875
454.76644	8837.3875
458.87653	8816.0875
462.98368	8665.1875
467.08789	8421.6875
471.18916	8123.0875
475.2875	7768.6875
479.38291	7504.7875
483.4754	7321.1875
487.56496	7221.0875
491.6516	7124.3875
495.73531	7135.6875
499.81612	7221.3875
503.89401	7435.7875
507.96899	7683.4875
512.04106	8016.9875
516.11023	8403.5875
520.1765	8671.7875
524.23987	8633.0875
528.30034	8309.5875
532.35792	7936.9875
536.41261	7608.0875
540.46441	7249.2875
544.51333	7044.6875
548.55936	7052.4875
552.60252	7308.7875
556.64279	7617.3875
560.6802	7785.1875
564.71473	8071.8875
568.7464	8760.0875
572.7752	9100.7875
576.80114	8438.8875
580.82422	7637.4875
584.84444	7307.0875
588.86181	7178.6875
592.87633	7187.4875
596.888	7336.4875
600.89682	7910.1875
604.9028	9877.5875
608.90594	15399.1875
612.90624	23040.7875
616.90371	21987.6875
620.89834	12742.1875
624.89015	8425.3875
628.87913	7589.2875
632.86528	7744.3875
636.84862	8103.0875
640.82913	7925.9875
644.80683	7258.9875
648.78172	6789.0875
652.75379	6844.1875
656.72306	7491.5875
660.68952	8266.7875
664.65319	8026.5875
668.61405	7127.6875
672.57211	6698.0875
676.52738	6661.0875
680.47986	6696.9875
684.42955	6576.5875
688.37646	6471.6875
692.32058	6472.2875
696.26192	6548.0875
700.20048	6701.1875
704.13626	6804.7875
708.06928	6757.1875
711.99952	6675.6875
715.927	6653.8875
719.85171	6757.3875
723.77365	6819.0875
727.69284	6751.1875
731.60928	6658.8875
735.52295	6636.9875
739.43388	6694.2875
743.34206	6721.5875
747.24749	6747.1875
751.15017	6792.2875
755.05012	6995.5875
758.94733	7666.2875
762.8418	9343.2875
766.73354	12252.5875
770.62254	15370.0875
774.50882	17323.4875
778.39237	16707.7875
782.27321	13399.6875
786.15132	9988.6875
790.02671	8076.5875
793.89938	7272.6875
797.76935	6957.2875
801.6366	6808.9875
805.50115	6735.5875
809.36299	6696.9875
813.22213	6669.8875
817.07857	6624.8875
820.93231	6606.9875
824.78336	6621.7875
828.63172	6692.7875
832.47738	6718.8875
836.32036	6643.5875
840.16066	6552.2875
843.99827	6486.8875
847.8332	6458.7875
851.66546	6477.5875
855.49504	6479.3875
859.32195	6461.0875
863.1462	6408.9875
866.96777	6373.5875
870.78668	6366.8875
874.60293	6425.3875
878.41652	6473.9875
882.22745	6584.5875
886.03573	6659.8875
889.84136	6613.6875
893.64433	6555.7875
897.44466	6538.2875
901.24235	6545.4875
905.0374	6510.8875
908.8298	6428.7875
912.61957	6343.3875
916.40671	6346.2875
920.19121	6386.2875
923.97308	6484.7875
927.75233	6682.0875
931.52895	6922.1875
935.30295	6819.8875
939.07433	6472.1875
942.84309	6119.0875
946.60924	5927.9875
950.37278	5831.0875
954.13371	5779.1875
957.89203	5766.6875
961.64774	5752.8875
965.40086	5733.2875
969.15137	5729.7875
972.89929	5703.5875
976.64461	5688.4875
980.38733	5689.7875
984.12747	5714.1875
987.86502	5742.4875
991.59999	5793.1875
995.33237	5847.6875
999.06217	5994.7875
1002.78939	6187.7875
1006.51404	6392.7875
1010.23611	6637.8875
1013.95561	6781.3875
1017.67255	6776.9875
1021.38692	6622.7875
1025.09872	6474.7875
1028.80796	6351.8875
1032.51465	6348.8875
1036.21877	6454.9875
1039.92035	6562.5875
1043.61937	6623.8875
1047.31584	6648.3875
1051.00976	6603.3875
1054.70114	6547.5875
1058.38998	6489.8875
1062.07627	6499.7875
1065.76003	6520.7875
1069.44126	6559.8875
1073.11995	6632.5875
1076.79611	6853.8875
1080.46974	7169.2875
1084.14085	7641.8875
1087.80943	8101.9875
1091.47549	8253.7875
1095.13903	7922.7875
1098.80005	7378.3875
1102.45857	7014.6875
1106.11456	6954.0875
1109.76805	7138.2875
1113.41903	7551.4875
1117.06751	8226.9875
1120.71348	9032.8875
1124.35696	9931.7875
1127.99793	10565.0875
1131.63641	10229.3875
1135.2724	9190.8875
1138.90589	8270.0875
1142.5369	7713.3875
1146.16542	7360.1875
1149.79145	7141.2875
1153.415	7063.1875
1157.03607	7144.6875
1160.65467	7402.1875
1164.27079	7809.7875
1167.88443	8500.7875
1171.49561	9667.9875
1175.10432	11792.2875
1178.71056	14548.2875
1182.31434	16582.3875
1185.91565	16803.3875
1189.51451	15699.2875
1193.11091	13952.1875
1196.70485	12166.3875
1200.29634	11022.8875
1203.88538	10274.8875
1207.47197	9230.9875
1211.05612	8297.9875
1214.63782	7739.0875
1218.21708	7513.6875
1221.79391	7433.5875
1225.36829	7479.5875
1228.94024	7480.8875
1232.50976	7510.1875
1236.07685	7552.4875
1239.6415	7626.1875
1243.20374	7703.8875
1246.76355	7810.3875
1250.32093	7938.2875
1253.8759	8151.8875
1257.42845	8492.7875
1260.97859	8948.3875
1264.52631	9438.1875
1268.07163	9931.7875
1271.61453	10357.2875
1275.15503	10601.0875
1278.69312	10598.4875
1282.22882	10585.7875
1285.76211	10912.4875
1289.29301	11502.1875
1292.82151	12074.8875
1296.34761	12674.2875
1299.87133	13748.3875
1303.39266	15790.3875
1306.9116	19010.4875
1310.42815	22364.2875
1313.94233	23714.5875
1317.45412	22021.9875
1320.96354	18994.4875
1324.47058	16033.5875
1327.97525	13681.9875
1331.47754	12381.4875
1334.97747	11929.0875
1338.47502	12145.6875
1341.97022	12958.6875
1345.46305	14454.6875
1348.95352	16614.0875
1352.44163	19344.4875
1355.92738	23206.6875
1359.41078	28750.4875
1362.89183	33210.9875
1366.37053	31087.8875
1369.84688	24391.2875
1373.32088	18403.1875
1376.79254	14632.7875
1380.26186	12573.1875
1383.72883	11437.1875
1387.19347	10563.4875
1390.65578	9746.4875
1394.11575	9068.4875
1397.57339	8737.4875
1401.0287	8627.8875
1404.48168	8631.4875
1407.93234	8727.0875
1411.38068	8900.3875
1414.82669	9068.6875
1418.27039	9135.2875
1421.71177	9083.2875
1425.15083	8947.0875
1428.58758	8876.5875
1432.02203	9010.8875
1435.45416	9120.7875
1438.88399	9111.6875
1442.31151	9100.2875
1445.73673	9121.1875
1449.15965	9193.9875
1452.58027	9147.0875
1455.9986	8995.7875
1459.41463	8914.1875
1462.82837	9064.1875
1466.23982	9373.7875
1469.64898	9670.7875
1473.05586	9879.6875
1476.46045	10034.3875
1479.86276	10344.8875
1483.26279	10809.0875
1486.66054	11393.1875
1490.05602	12214.7875
1493.44922	13452.1875
1496.84016	15484.7875
1500.22882	18691.3875
1503.61521	23058.1875
1506.99934	27809.4875
1510.38121	31728.1875
1513.76081	32682.8875
1517.13816	29374.3875
1520.51324	23595.1875
1523.88607	18334.9875
1527.25665	15012.0875
1530.62498	13132.8875
1533.99105	12056.5875
1537.35488	11379.5875
1540.71647	11064.5875
1544.07581	11038.6875
1547.4329	11158.8875
1550.78776	11304.8875
1554.14038	11429.0875
1557.49077	11674.1875
1560.83892	12107.6875
1564.18484	12799.7875
1567.52853	13685.9875
1570.86999	14477.7875
1574.20922	14888.3875
1577.54624	14607.8875
1580.88103	13238.3875
1584.2136	11417.6875
1587.54395	10275.6875
1590.87208	10091.5875
1594.19801	10746.3875
1597.52172	11852.7875
1600.84321	12322.9875
1604.16251	11733.5875
1607.47959	10839.4875
1610.79447	9916.0875
1614.10715	8943.6875
1617.41763	8217.0875
1620.7259	7762.8875
1624.03199	7593.2875
1627.33587	7621.9875
1630.63757	7874.0875
1633.93707	8387.4875
1637.23439	9276.2875
1640.52951	10735.8875
1643.82246	13040.1875
1647.11321	16132.0875
1650.40179	18617.2875
1653.68819	18132.0875
1656.97241	14825.4875
1660.25446	11331.8875
1663.53433	8947.6875
1666.81203	7628.8875
1670.08756	6915.2875
1673.36092	6512.6875
1676.63211	6253.2875
1679.90115	6076.9875
1683.16801	5925.0875
1686.43272	5830.4875
1689.69527	5732.2875
1692.95567	5641.3875
1696.2139	5512.3875
1699.46999	5421.3875
1702.72392	5392.2875
1705.97571	5447.5875
1709.22535	5528.1875
1712.47284	5603.6875
1715.71819	5644.0875
1718.96139	5660.6875
1722.20246	5621.1875
1725.44139	5610.1875
1728.67818	5556.2875
1731.91284	5455.0875
1735.14537	5408.8875
1738.37576	5339.3875
1741.60403	5303.7875
1744.83017	5275.8875
1748.05418	5232.7875
1751.27607	5195.0875
1754.49584	5135.7875
1757.71349	5064.4875
1760.92903	5009.5875
1764.14244	5007.7875
1767.35375	4992.6875
1770.56294	4962.9875
1773.77002	4934.4875
1776.97499	4956.4875
1780.17785	4973.6875
1783.37861	4996.4875
1786.57727	5003.9875
1789.77382	4985.2875
1792.96828	4983.9875
1796.16064	4987.2875
1799.3509	4970.2875
1802.53907	4971.7875
1805.72514	4950.7875
1808.90913	4916.5875
1812.09102	4905.1875
1815.27083	4879.0875
1818.44856	4871.1875
1821.6242	4844.1875
1824.79776	4839.8875
1827.96924	4837.4875
1831.13864	4821.0875
1834.30597	4815.5875
1837.47122	4819.9875
1840.6344	4794.6875
1843.7955	4781.0875
1846.95454	4787.6875
1850.11151	4789.7875
1853.26642	4781.2875
1856.41926	4783.0875
1859.57004	4783.1875
1862.71876	4770.0875
1865.86542	4775.3875
1869.01003	4784.1875
1872.15258	4765.9875
1875.29308	4762.3875
1878.43152	4773.7875
1881.56792	4756.0875
1884.70227	4773.4875
1887.83457	4776.9875
1890.96482	4761.2875
1894.09304	4769.0875
1897.21921	4744.9875
1900.34335	4749.6875
1903.46544	4759.8875
1906.58551	4752.3875
1909.70353	4747.2875
1912.81953	4759.9875
1915.93349	4758.8875
1919.04543	4747.4875
1922.15534	4737.7875
1925.26322	4716.1875
1928.36908	4714.8875
1931.47292	4679.9875
1934.57473	4668.2875
1937.67453	4636.0875
1940.77232	4632.1875
1943.86808	4592.5875
1946.96184	4593.0875
1950.05358	4571.6875
1953.14331	4547.4875
1956.23103	4546.0875
1959.31675	4535.9875
1962.40046	4520.4875
1965.48217	4514.5875
1968.56188	4525.2875
1971.63959	4501.8875
1974.7153	4510.3875
1977.78901	4494.7875
1980.86073	4465.2875
1983.93046	4416.0875
1986.99819	4414.4875
1990.06394	4392.1875
1993.1277	4380.5875
1996.18947	4357.7875
1999.24925	4354.1875
2002.30706	4331.0875
2005.36288	4297.2875
2008.41672	4298.8875
2011.46859	4269.0875
2014.51848	4258.6875
2017.56639	4263.0875
2020.61233	4245.2875
2023.6563	4226.7875
2026.6983	4202.2875
2029.73833	4189.5875
2032.7764	4177.3875
2035.8125	4179.0875
2038.84664	4191.8875
2041.87881	4174.5875
2044.90903	4167.1875
2047.93729	4156.7875
2050.96359	4145.2875
2053.98794	4146.6875
2057.01034	4139.2875
2060.03078	4133.9875
2063.04927	4123.9875
2066.06582	4114.2875
2069.08042	4088.2875
2072.09307	4095.9875
2075.10378	4088.3875
2078.11255	4090.8875
2081.11938	4076.8875
2084.12426	4081.5875
2087.12722	4086.0875
2090.12824	4077.1875
2093.12732	4090.6875
2096.12447	4093.0875
2099.11969	4081.4875
2102.11299	4064.6875
2105.10435	4062.6875
2108.09379	4073.7875
2111.08131	4089.7875
2114.0669	4083.5875
2117.05057	4088.2875
2120.03233	4104.4875
2123.01216	4104.7875
2125.99008	4108.2875
2128.96609	4125.3875
2131.94018	4134.0875
2134.91236	4122.3875
2137.88263	4115.2875
2140.851	4120.8875
2143.81746	4121.7875
2146.78201	4113.8875
2149.74466	4106.1875
2152.7054	4096.6875
2155.66425	4082.4875
2158.6212	4078.4875
2161.57625	4062.1875
2164.52941	4066.5875
2167.48067	4045.6875
2170.43004	4066.9875
2173.37752	4060.6875
2176.32311	4070.9875
2179.26681	4064.9875
2182.20863	4063.6875
2185.14856	4071.6875
2188.08661	4073.5875
2191.02278	4055.4875
2193.95707	4048.9875
2196.88948	4035.7875
2199.82001	4040.4875
2202.74867	4037.9875
2205.67545	4038.5875
2208.60037	4032.0875
2211.52341	4028.9875
2214.44458	4018.7875
2217.36388	4005.7875
2220.28132	4008.4875
2223.1969	3980.1875
2226.11061	3992.4875
2229.02246	3963.0875
2231.93245	3970.4875
2234.84058	3946.8875
2237.74686	3940.1875
2240.65128	3941.9875
2243.55385	3942.2875
2246.45456	3946.1875
2249.35343	3954.0875
2252.25044	3946.2875
2255.14561	3950.6875
2258.03893	3948.3875
2260.93041	3937.6875
2263.82004	3953.1875
2266.70783	3943.5875
2269.59378	3925.8875
2272.4779	3925.0875
2275.36017	3922.6875
2278.24061	3920.3875
2281.11922	3902.6875
2283.996	3873.1875
2286.87094	3880.9875
2289.74405	3864.3875
2292.61534	3850.8875
2295.4848	3836.3875
2298.35243	3821.8875
2301.21824	3838.2875
2304.08223	3823.5875
2306.94439	3818.4875
2309.80474	3822.4875
2312.66327	3819.1875
2315.51999	3817.9875
2318.37489	3808.6875
2321.22797	3810.1875
2324.07925	3815.1875
2326.92871	3816.4875
2329.77637	3798.1875
2332.62222	3793.9875
2335.46626	3778.6875
2338.3085	3776.6875
2341.14893	3799.9875
2343.98756	3800.9875
2346.8244	3789.5875
2349.65943	3814.6875
2352.49267	3824.4875
2355.32411	3843.1875
2358.15376	3852.0875
2360.98161	3873.4875
2363.80768	3886.2875
2366.63195	3893.2875
2369.45444	3902.8875
2372.27514	3915.5875
2375.09405	3906.0875
2377.91118	3891.7875
2380.72652	3855.8875
2383.54009	3830.8875
2386.35187	3799.1875
2389.16188	3767.8875
2391.97011	3758.0875
2394.77657	3713.2875
2397.58125	3714.9875
2400.38416	3697.5875
2403.18529	3684.3875
2405.98466	3692.4875
2408.78226	3660.1875
2411.57809	3657.6875
2414.37216	3644.5875
2417.16446	3633.8875
2419.955	3635.6875
2422.74378	3646.4875
2425.5308	3649.4875
2428.31606	3646.2875
2431.09956	3635.9875
2433.88131	3657.9875
2436.6613	3663.2875
2439.43954	3662.1875
2442.21603	3665.1875
2444.99077	3665.6875
2447.76377	3682.3875
2450.53501	3689.0875
2453.30451	3693.6875
2456.07226	3701.6875
2458.83827	3684.0875
2461.60254	3677.6875
2464.36507	3669.0875
2467.12586	3679.6875
2469.88492	3687.0875
2472.64224	3679.2875
2475.39782	3685.6875
2478.15167	3697.5875
2480.90379	3713.0875
2483.65417	3734.1875
2486.40283	3751.5875
2489.14976	3785.1875
2491.89497	3793.9875
2494.63845	3790.1875
2497.3802	3762.4875
2500.12024	3763.1875
2502.85855	3754.9875
2505.59514	3739.3875
2508.33002	3693.7875
2511.06318	3670.5875
2513.79462	3642.9875
2516.52435	3624.3875
2519.25237	3588.9875
2521.97867	3566.5875
2524.70327	3547.1875
2527.42616	3533.1875
2530.14734	3525.0875
2532.86681	3532.2875
2535.58458	3540.2875
2538.30065	3530.2875
2541.01501	3548.2875
2543.72768	3556.2875
2546.43864	3546.1875
2549.14791	3555.5875
2551.85548	3559.8875
2554.56136	3548.7875
2557.26554	3552.5875
2559.96803	3550.8875
2562.66883	3537.8875
2565.36794	3539.9875
2568.06536	3536.4875
2570.7611	3524.1875
2573.45514	3523.7875
2576.14751	3510.6875
2578.83819	3498.9875
2581.52719	3489.8875
2584.21451	3480.6875
2586.90015	3470.8875
2589.58411	3469.5875
2592.2664	3460.3875
2594.94701	3454.3875
2597.62594	3460.7875
2600.30321	3456.7875
2602.9788	3447.6875
2605.65273	3456.4875
2608.32498	3462.5875
2610.99557	3446.9875
2613.66449	3460.0875
2616.33175	3464.9875
2618.99734	3457.0875
2621.66128	3470.0875
2624.32355	3453.8875
2626.98416	3441.2875
2629.64311	3433.8875
2632.30041	3433.1875
2634.95605	3411.4875
2637.61004	3401.4875
2640.26238	3396.3875
2642.91306	3379.5875
2645.56209	3389.0875
2648.20948	3360.4875
2650.85521	3376.0875
2653.4993	3367.8875
2656.14175	3377.7875
2658.78255	3390.6875
2661.42171	3379.5875
2664.05923	3402.6875
2666.6951	3411.0875
2669.32934	3425.2875
2671.96194	3414.3875
2674.59291	3425.1875
2677.22224	3442.9875
2679.84993	3451.2875
2682.476	3432.5875
2685.10043	3430.5875
2687.72324	3429.0875
2690.34441	3425.0875
2692.96396	3431.2875
2695.58188	3424.8875
2698.19818	3412.7875
2700.81285	3407.8875
2703.4259	3400.2875
2706.03733	3348.9875
2708.64714	3360.3875
2711.25533	3402.9875
2713.86191	3420.9875
2716.46687	3434.9875
2719.07021	3444.9875
2721.67194	3451.7875
2724.27206	3443.9875
2726.87057	3461.3875
2729.46747	3438.0875
2732.06276	3447.9875
2734.65644	3425.5875
2737.24852	3423.1875
2739.83899	3404.5875
2742.42786	3397.1875
2745.01513	3398.1875
2747.60079	3389.8875
2750.18486	3383.0875
2752.76733	3368.1875
2755.3482	3376.7875
2757.92747	3366.7875
2760.50515	3371.4875
2763.08123	3371.9875
2765.65573	3353.6875
2768.22863	3343.8875
2770.79994	3344.2875
2773.36967	3330.7875
2775.9378	3337.6875
2778.50435	3317.7875
2781.06932	3343.0875
2783.6327	3343.2875
2786.1945	3344.8875
2788.75471	3353.3875
2791.31335	3339.9875
2793.87041	3340.2875
2796.42589	3345.8875
2798.97979	3349.5875
2801.53212	3351.9875
2804.08288	3351.3875
2806.63206	3339.9875
2809.17967	3339.3875
2811.72571	3365.7875
2814.27018	3363.0875
2816.81308	3385.7875
2819.35442	3389.2875
2821.89419	3418.1875
2824.43239	3420.1875
2826.96904	3427.2875
2829.50412	3423.7875
2832.03763	3430.6875
2834.56959	3426.9875
2837.1	3442.7875
2839.62884	3453.0875
2842.15613	3464.7875
2844.68186	3507.3875
2847.20604	3526.2875
2849.72867	3569.1875
2852.24974	3587.4875
2854.76927	3590.8875
2857.28724	3559.9875
2859.80367	3566.9875
2862.31855	3571.7875
2864.83189	3572.4875
2867.34368	3574.2875
2869.85393	3589.3875
2872.36264	3596.2875
2874.8698	3585.6875
2877.37543	3585.1875
2879.87952	3569.5875
2882.38207	3578.9875
2884.88308	3550.9875
2887.38256	3537.4875
2889.88051	3535.3875
2892.37692	3546.0875
2894.8718	3522.3875
2897.36515	3536.8875
2899.85698	3541.9875
2902.34727	3542.6875
2904.83604	3555.4875
2907.32328	3549.0875
2909.809	3545.3875
2912.29319	3539.5875
2914.77587	3549.6875
2917.25702	3550.3875
2919.73665	3526.6875
2922.21476	3535.5875
2924.69136	3527.0875
2927.16644	3522.0875
2929.64	3508.6875
2932.11205	3497.7875
2934.58258	3463.9875
2937.05161	3486.5875
2939.51912	3456.7875
2941.98513	3450.6875
2944.44962	3405.2875
2946.91261	3387.4875
2949.37409	3380.6875
2951.83407	3363.6875
2954.29254	3362.0875
2956.74951	3353.3875
2959.20498	3327.9875
2961.65895	3318.7875
2964.11142	3324.4875
2966.56239	3307.6875
2969.01186	3300.1875
2971.45984	3291.9875
2973.90632	3278.2875
2976.35131	3269.5875
2978.7948	3260.7875
2981.23681	3252.6875
2983.67732	3242.9875
2986.11635	3223.8875
2988.55388	3224.0875
2990.98993	3223.2875
2993.4245	3192.9875
2995.85758	3198.4875
2998.28917	3188.1875
3000.71928	3196.6875
3003.14791	3197.9875
3005.57506	3190.2875
3008.00073	3192.5875
3010.42493	3184.1875
3012.84764	3192.2875
3015.26888	3173.6875
3017.68865	3168.5875
3020.10694	3171.2875
3022.52376	3155.7875
3024.9391	3156.2875
3027.35298	3147.9875
3029.76539	3148.4875
3032.17632	3139.2875
3034.5858	3127.1875
3036.9938	3126.9875
3039.40034	3118.2875
3041.80542	3098.8875
3044.20903	3096.8875
3046.61118	3099.9875
3049.01187	3089.3875
3051.4111	3087.6875
3053.80888	3084.8875
3056.20519	3073.3875
3058.60005	3066.7875
3060.99345	3062.2875
3063.3854	3063.3875
3065.7759	3049.5875
3068.16494	3048.5875
3070.55254	3041.3875
3072.93868	3025.0875
3075.32338	3021.7875
3077.70662	3018.3875
3080.08842	2995.4875
3082.46878	2999.7875
3084.84769	2988.6875
3087.22515	2987.8875
3089.60118	2979.9875
3091.97576	2972.4875
3094.3489	2970.9875
3096.72061	2970.2875
3099.09087	2971.6875
3101.4597	2969.0875
3103.82709	2970.5875
3106.19305	2975.8875
3108.55757	2959.9875
3110.92066	2953.3875
3113.28232	2960.0875
3115.64255	2955.8875
3118.00134	2951.4875
3120.35871	2957.8875
3122.71466	2955.7875
3125.06917	2956.5875
3127.42226	2945.3875
3129.77393	2960.0875
3132.12417	2953.8875
3134.47299	2961.9875
3136.82039	2958.0875
3139.16636	2955.2875
3141.51092	2967.0875
3143.85406	2962.4875
3146.19579	2981.5875
3148.53609	2986.1875
3150.87499	3003.2875
3153.21246	2993.8875
3155.54853	3009.7875
3157.88318	3009.8875
3160.21642	3009.7875
3162.54826	3010.6875
3164.87868	3016.0875
3167.2077	3032.3875
3169.5353	3030.1875
3171.86151	3017.2875
3174.18631	3036.3875
3176.5097	3033.2875
3178.83169	3021.3875
3181.15228	3024.7875
3183.47147	3028.0875
3185.78926	3035.8875
3188.10565	3031.8875
3190.42065	3040.3875
3192.73424	3044.8875
3195.04645	3046.8875
3197.35725	3052.4875
3199.66667	3054.9875
3201.97469	3066.2875
3204.28132	3053.1875
3206.58656	3065.0875
3208.8904	3064.1875
3211.19287	3080.8875
3213.49394	3096.6875
3215.79363	3091.4875
3218.09193	3102.5875
3220.38884	3096.7875
3222.68438	3072.3875
3224.97853	3097.6875
3227.2713	3103.2875
3229.56269	3098.3875
3231.8527	3087.4875
3234.14133	3086.1875
3236.42858	3094.0875
3238.71446	3092.1875
3240.99896	3066.4875
3243.28209	3082.2875
3245.56384	3060.8875
3247.84423	3068.0875
3250.12324	3075.5875
3252.40088	3083.9875
3254.67715	3070.0875
3256.95205	3066.0875
3259.22558	3073.1875
3261.49775	3054.2875
3263.76855	3067.9875
3266.03799	3071.5875
3268.30606	3058.2875
3270.57277	3065.4875
3272.83812	3065.6875
3275.10211	3040.8875
3277.36474	3051.5875
3279.62601	3048.9875
3281.88593	3047.2875
3284.14448	3043.8875
3286.40168	3046.4875
3288.65753	3047.5875
3290.91202	3060.2875
3293.16516	3049.9875
3295.41695	3048.0875
3297.66738	3026.7875
3299.91647	3015.0875
3302.16421	2993.5875
3304.4106	2981.1875
3306.65564	2956.5875
3308.89933	2932.0875
3311.14169	2911.7875
3313.38269	2877.1875
3315.62236	2856.8875
3317.86068	2826.4875
3320.09766	2804.4875
3322.3333	2782.6875
3324.5676	2773.2875
3326.80056	2703.9875
3329.03219	2707.3875
3331.26248	0.8875
3333.49143	-0.3125
3335.71905	1.2875
