Data from AgNPs_FTO_APTES_UA_50uM_CRN_1000uM_R6G_10uM_NaF_0.1M_Addition_RamanShift__1__17-23-53-567.txt Node

Date: Mon Feb 21 17:23:53 GMT 2022
User: TCL
Spectrometer: QEP01345
Trigger mode: 4
Integration Time (sec): 7.000000E0
Scans to average: 10
Electric dark correction enabled: true
Nonlinearity correction enabled: false
Boxcar width: 0
XAxis mode: Raman Shifts
Number of Pixels in Spectrum: 1044
>>>>>Begin Spectral Data<<<<<
46.04893	-1.5
50.45542	-0.7
54.85868	0.2
59.25871	-1.3
63.6555	52.6
68.04907	58.1
72.43941	62.5
76.82654	64.6
81.21044	66
85.59113	69.7
89.96862	72.8
94.34289	71.8
98.71396	74.3
103.08183	82.7
107.4465	82.2
111.80798	83.4
116.16626	86.6
120.52136	86.8
124.87327	90.1
129.222	95.6
133.56755	95.7
137.90993	102.1
142.24913	105.7
146.58517	118
150.91804	131
155.24774	148.5
159.57429	179.1
163.89768	226.2
168.21792	294.4
172.53501	397.1
176.84895	559.6
181.15975	770.8
185.46741	1086.7
189.77193	1499.8
194.07331	2005.7
198.37157	2578.2
202.6667	3218.6
206.9587	3833.8
211.24758	4443.6
215.53334	5089.9
219.81599	5734.6
224.09553	6487.8
228.37195	7308.2
232.64527	8193.5
236.91549	9126.4
241.18261	10016.8
245.44663	10765.4
249.70755	11435.6
253.96539	11970.6
258.22014	12424.4
262.4718	12838.9
266.72039	13095.8
270.96589	13224.2
275.20832	13175.4
279.44768	13008
283.68397	12775.2
287.91719	12589.5
292.14735	12506.3
296.37445	12538.6
300.59849	12708.7
304.81948	12953.6
309.03742	13141.2
313.25231	13169.5
317.46415	12985.6
321.67296	12586.1
325.87872	12218.1
330.08145	12031.9
334.28114	11998.6
338.47781	12085.4
342.67145	12290.8
346.86207	12570.8
351.04966	12942.8
355.23424	13352.5
359.4158	13667.9
363.59435	13849.4
367.76989	13944.5
371.94243	13974.3
376.11196	14005.3
380.27849	14019.2
384.44203	14039.2
388.60257	14060.5
392.76012	14090.7
396.91468	14231.5
401.06626	14396.3
405.21485	14524.4
409.36047	14444.4
413.50311	14075.8
417.64277	13718.3
421.77947	13507.4
425.9132	13485.4
430.04396	13478.8
434.17176	13583.3
438.2966	13759.8
442.41849	13994.6
446.53742	14371
450.6534	14705.9
454.76644	14904.2
458.87653	14912.4
462.98368	14804.6
467.08789	14665.8
471.18916	14485.3
475.2875	14279.6
479.38291	14084.8
483.4754	13947.6
487.56496	13836.2
491.6516	13714.7
495.73531	13652.4
499.81612	13680.5
503.89401	13770.9
507.96899	13838.8
512.04106	13899.3
516.11023	13984
520.1765	14048.4
524.23987	14061.5
528.30034	14036.8
532.35792	13969.4
536.41261	13858.8
540.46441	13669.4
544.51333	13577.5
548.55936	13623.4
552.60252	13786.3
556.64279	14064.8
560.6802	14227.1
564.71473	14312.5
568.7464	14528.4
572.7752	14662.3
576.80114	14573.4
580.82422	14445.2
584.84444	14516.7
588.86181	14828.6
592.87633	15320.5
596.888	15612
600.89682	15627.5
604.9028	16102.9
608.90594	18151.5
612.90624	20880.4
616.90371	20185.6
620.89834	16391.6
624.89015	14523.1
628.87913	14185.5
632.86528	14311.2
636.84862	14502.8
640.82913	14382.8
644.80683	14035.5
648.78172	13745.6
652.75379	13698.1
656.72306	13906.5
660.68952	14245.4
664.65319	14149.9
668.61405	13781.9
672.57211	13674.5
676.52738	13767.1
680.47986	13806.7
684.42955	13734.9
688.37646	13611.8
692.32058	13594.9
696.26192	13716.6
700.20048	13799.6
704.13626	13868.7
708.06928	13826.8
711.99952	13772.7
715.927	13754.7
719.85171	13815.5
723.77365	13863.3
727.69284	13765.3
731.60928	13669.2
735.52295	13657.5
739.43388	13673.8
743.34206	13700.6
747.24749	13750.4
751.15017	13764.9
755.05012	13876.5
758.94733	14202.3
762.8418	14973.4
766.73354	16297.7
770.62254	17706.3
774.50882	18369.1
778.39237	17828
782.27321	16443.4
786.15132	15088.2
790.02671	14227.2
793.89938	13855
797.76935	13685.7
801.6366	13595.1
805.50115	13553.7
809.36299	13513.4
813.22213	13461.5
817.07857	13466.8
820.93231	13442.4
824.78336	13409.8
828.63172	13433.3
832.47738	13394.8
836.32036	13427.2
840.16066	13424.5
843.99827	13414.6
847.8332	13389
851.66546	13392.2
855.49504	13395.4
859.32195	13398.7
863.1462	13395.2
866.96777	13399.2
870.78668	13395.5
874.60293	13375.7
878.41652	13414.8
882.22745	13488.7
886.03573	13563.4
889.84136	13552.4
893.64433	13495.1
897.44466	13442.4
901.24235	13369.6
905.0374	13313
908.8298	13225.1
912.61957	13186.3
916.40671	13250.8
920.19121	13335.7
923.97308	13433.7
927.75233	13531.8
931.52895	13591.3
935.30295	13493.2
939.07433	13291.7
942.84309	13092.9
946.60924	12973
950.37278	12909.2
954.13371	12863.3
957.89203	12831.8
961.64774	12799
965.40086	12786.3
969.15137	12713.5
972.89929	12736.6
976.64461	12729.4
980.38733	12748.8
984.12747	12765.7
987.86502	12871.2
991.59999	12927.1
995.33237	13084.8
999.06217	13237.8
1002.78939	13447.9
1006.51404	13621.5
1010.23611	13794.6
1013.95561	13862.6
1017.67255	13877.3
1021.38692	13762.6
1025.09872	13665.4
1028.80796	13590.5
1032.51465	13680.4
1036.21877	13788.4
1039.92035	13852.8
1043.61937	13875.4
1047.31584	13791.7
1051.00976	13697.3
1054.70114	13588.1
1058.38998	13569.4
1062.07627	13576.4
1065.76003	13607.7
1069.44126	13671.1
1073.11995	13808.9
1076.79611	13947.6
1080.46974	14061.2
1084.14085	14248.5
1087.80943	14380.1
1091.47549	14482.1
1095.13903	14407.3
1098.80005	14211.3
1102.45857	13993.8
1106.11456	13870.8
1109.76805	13864.2
1113.41903	13990.8
1117.06751	14221.1
1120.71348	14531.4
1124.35696	14876.9
1127.99793	15229.7
1131.63641	15317.8
1135.2724	15017.9
1138.90589	14699.2
1142.5369	14454.1
1146.16542	14308.3
1149.79145	14206.7
1153.415	14194.9
1157.03607	14231.3
1160.65467	14378.4
1164.27079	14726.2
1167.88443	15203.2
1171.49561	15950.9
1175.10432	17053
1178.71056	18521.9
1182.31434	19749.1
1185.91565	20279.9
1189.51451	20049.4
1193.11091	19287.6
1196.70485	18515.3
1200.29634	17801.3
1203.88538	17174.6
1207.47197	16542.8
1211.05612	15976.6
1214.63782	15619.7
1218.21708	15487.1
1221.79391	15491.9
1225.36829	15489.1
1228.94024	15486.5
1232.50976	15365.4
1236.07685	15208.2
1239.6415	15162.8
1243.20374	15155.5
1246.76355	15223.1
1250.32093	15355.1
1253.8759	15549.2
1257.42845	15813.2
1260.97859	16130.3
1264.52631	16443.5
1268.07163	16813.2
1271.61453	17103.2
1275.15503	17374.4
1278.69312	17593.5
1282.22882	17757.2
1285.76211	18035.4
1289.29301	18546.9
1292.82151	19070.9
1296.34761	19748.2
1299.87133	20611.5
1303.39266	21724.3
1306.9116	23253.2
1310.42815	24863.5
1313.94233	25817.5
1317.45412	25425.5
1320.96354	24188.6
1324.47058	22767.9
1327.97525	21519.3
1331.47754	20602.7
1334.97747	20168.5
1338.47502	20034.5
1341.97022	20213.6
1345.46305	20691.5
1348.95352	21529.2
1352.44163	22667.5
1355.92738	24250
1359.41078	26545
1362.89183	28614.2
1366.37053	28181.9
1369.84688	24975.2
1373.32088	21498.1
1376.79254	19320.9
1380.26186	18419.8
1383.72883	17948.7
1387.19347	17580.2
1390.65578	17142.6
1394.11575	16831.5
1397.57339	16665.6
1401.0287	16719
1404.48168	16676.6
1407.93234	16615.5
1411.38068	16525.6
1414.82669	16408.4
1418.27039	16218.3
1421.71177	16075.4
1425.15083	15794.4
1428.58758	15668.4
1432.02203	15726.6
1435.45416	15871.3
1438.88399	15999.6
1442.31151	16048
1445.73673	16070.5
1449.15965	16068.8
1452.58027	16105.9
1455.9986	16003.2
1459.41463	15981
1462.82837	16087.4
1466.23982	16322.3
1469.64898	16562.2
1473.05586	16782.8
1476.46045	16916.9
1479.86276	17036.8
1483.26279	17169.8
1486.66054	17322.4
1490.05602	17626.1
1493.44922	18105.1
1496.84016	18831.2
1500.22882	20023.2
1503.61521	21644.8
1506.99934	23452.1
1510.38121	24998
1513.76081	25391.3
1517.13816	24258
1520.51324	22154.7
1523.88607	20156.4
1527.25665	18928.8
1530.62498	18331
1533.99105	17963.5
1537.35488	17692.1
1540.71647	17374.4
1544.07581	17111.8
1547.4329	16951.7
1550.78776	16747
1554.14038	16677.8
1557.49077	16692.5
1560.83892	16751.1
1564.18484	16989.8
1567.52853	17340.5
1570.86999	17681.6
1574.20922	17994.7
1577.54624	18043.2
1580.88103	17577
1584.2136	16972.7
1587.54395	16706.9
1590.87208	16889.4
1594.19801	17517.1
1597.52172	18362.8
1600.84321	18808.5
1604.16251	18441.6
1607.47959	17619.4
1610.79447	16680.6
1614.10715	15706.4
1617.41763	14922.7
1620.7259	14420.4
1624.03199	14150.4
1627.33587	14118.4
1630.63757	14287.2
1633.93707	14793.2
1637.23439	15599.2
1640.52951	16918.6
1643.82246	18722.1
1647.11321	20637.7
1650.40179	21636.1
1653.68819	20866.7
1656.97241	18689.5
1660.25446	16340.7
1663.53433	14691.1
1666.81203	13741.5
1670.08756	13136
1673.36092	12812
1676.63211	12564.5
1679.90115	12401.9
1683.16801	12254.8
1686.43272	12092.4
1689.69527	12043.3
1692.95567	11887.3
1696.2139	11862.7
1699.46999	11772.8
1702.72392	11715.4
1705.97571	11711.5
1709.22535	11714
1712.47284	11687.6
1715.71819	11701.1
1718.96139	11661.7
1722.20246	11651.6
1725.44139	11565.2
1728.67818	11564.6
1731.91284	11474.7
1735.14537	11419.5
1738.37576	11375.9
1741.60403	11351.3
1744.83017	11332.5
1748.05418	11303.8
1751.27607	11281.8
1754.49584	11262.5
1757.71349	11238.3
1760.92903	11237.2
1764.14244	11234.7
1767.35375	11188.6
1770.56294	11186
1773.77002	11134.6
1776.97499	11163.9
1780.17785	11076.7
1783.37861	11057.5
1786.57727	11051.3
1789.77382	11034.7
1792.96828	11028.6
1796.16064	11001.9
1799.3509	10979.4
1802.53907	10977
1805.72514	10923.4
1808.90913	10924.5
1812.09102	10898
1815.27083	10843.4
1818.44856	10841.5
1821.6242	10822.6
1824.79776	10798.9
1827.96924	10805.8
1831.13864	10787.6
1834.30597	10774.5
1837.47122	10769.6
1840.6344	10744
1843.7955	10735
1846.95454	10724.2
1850.11151	10722.4
1853.26642	10699.7
1856.41926	10690.4
1859.57004	10707.6
1862.71876	10677.2
1865.86542	10672.8
1869.01003	10670.5
1872.15258	10662
1875.29308	10641.2
1878.43152	10654.9
1881.56792	10641.6
1884.70227	10628.3
1887.83457	10636.3
1890.96482	10635.7
1894.09304	10600.6
1897.21921	10585.3
1900.34335	10573.7
1903.46544	10567.7
1906.58551	10563.3
1909.70353	10534.5
1912.81953	10542.3
1915.93349	10518.1
1919.04543	10475.8
1922.15534	10467.3
1925.26322	10447.7
1928.36908	10445.2
1931.47292	10407.6
1934.57473	10363
1937.67453	10378.8
1940.77232	10359.5
1943.86808	10348.6
1946.96184	10294.1
1950.05358	10266
1953.14331	10249.3
1956.23103	10219.5
1959.31675	10208.2
1962.40046	10162.7
1965.48217	10137.2
1968.56188	10101.6
1971.63959	10080.2
1974.7153	10045.6
1977.78901	10015.7
1980.86073	9986.1
1983.93046	9975.8
1986.99819	9959.9
1990.06394	9920.5
1993.1277	9880.1
1996.18947	9857.6
1999.24925	9831.2
2002.30706	9795.8
2005.36288	9770.7
2008.41672	9733.6
2011.46859	9704
2014.51848	9691.4
2017.56639	9643.7
2020.61233	9628.5
2023.6563	9613.8
2026.6983	9589.3
2029.73833	9552.1
2032.7764	9556.1
2035.8125	9536
2038.84664	9505.1
2041.87881	9506.5
2044.90903	9468
2047.93729	9455
2050.96359	9441.7
2053.98794	9459.1
2057.01034	9454.5
2060.03078	9414.1
2063.04927	9400.7
2066.06582	9407.4
2069.08042	9369.6
2072.09307	9398
2075.10378	9381
2078.11255	9365.4
2081.11938	9381.6
2084.12426	9384.2
2087.12722	9370.9
2090.12824	9352.8
2093.12732	9364
2096.12447	9362.8
2099.11969	9374.7
2102.11299	9373.2
2105.10435	9374.2
2108.09379	9366
2111.08131	9372.4
2114.0669	9383.3
2117.05057	9400.7
2120.03233	9382.9
2123.01216	9404.6
2125.99008	9412
2128.96609	9420.6
2131.94018	9470.2
2134.91236	9443.5
2137.88263	9431.7
2140.851	9445.9
2143.81746	9462
2146.78201	9447.9
2149.74466	9456.3
2152.7054	9460.9
2155.66425	9438.8
2158.6212	9430.3
2161.57625	9446.6
2164.52941	9422.3
2167.48067	9405.9
2170.43004	9422
2173.37752	9419.3
2176.32311	9407.1
2179.26681	9408.4
2182.20863	9431.1
2185.14856	9436.8
2188.08661	9411.4
2191.02278	9431.2
2193.95707	9436.1
2196.88948	9431.6
2199.82001	9441.5
2202.74867	9422.1
2205.67545	9402.7
2208.60037	9374
2211.52341	9363.5
2214.44458	9344
2217.36388	9330.6
2220.28132	9306.9
2223.1969	9272.6
2226.11061	9292.6
2229.02246	9281.6
2231.93245	9258.5
2234.84058	9226.7
2237.74686	9228.6
2240.65128	9207.9
2243.55385	9200.4
2246.45456	9180.6
2249.35343	9179.8
2252.25044	9159.8
2255.14561	9136
2258.03893	9139.6
2260.93041	9145.2
2263.82004	9111.2
2266.70783	9120.6
2269.59378	9077.9
2272.4779	9069.8
2275.36017	9053.3
2278.24061	9032.1
2281.11922	9012.9
2283.996	8994.1
2286.87094	8968.2
2289.74405	8963.7
2292.61534	8945.3
2295.4848	8948.6
2298.35243	8963.7
2301.21824	8946.1
2304.08223	8921.2
2306.94439	8943.9
2309.80474	8920.4
2312.66327	8914.7
2315.51999	8897.4
2318.37489	8914.7
2321.22797	8881.8
2324.07925	8863.1
2326.92871	8880.7
2329.77637	8849.6
2332.62222	8835.6
2335.46626	8837.7
2338.3085	8818.4
2341.14893	8815.6
2343.98756	8805.4
2346.8244	8805.2
2349.65943	8801.8
2352.49267	8771.4
2355.32411	8805.7
2358.15376	8787.9
2360.98161	8788.3
2363.80768	8794.8
2366.63195	8762.4
2369.45444	8771.2
2372.27514	8771.1
2375.09405	8768.9
2377.91118	8730.5
2380.72652	8713.4
2383.54009	8716.7
2386.35187	8683.1
2389.16188	8676.2
2391.97011	8658.6
2394.77657	8633
2397.58125	8619.8
2400.38416	8590.3
2403.18529	8563.8
2405.98466	8548.5
2408.78226	8556.5
2411.57809	8536.4
2414.37216	8515
2417.16446	8529.3
2419.955	8533.9
2422.74378	8515.4
2425.5308	8515.5
2428.31606	8499.3
2431.09956	8488.3
2433.88131	8472.9
2436.6613	8482.7
2439.43954	8476.6
2442.21603	8474.2
2444.99077	8468.7
2447.76377	8471.1
2450.53501	8461.3
2453.30451	8444.8
2456.07226	8450
2458.83827	8439.8
2461.60254	8451.2
2464.36507	8439
2467.12586	8430.7
2469.88492	8405.6
2472.64224	8418.3
2475.39782	8419.5
2478.15167	8419.9
2480.90379	8420.4
2483.65417	8428.1
2486.40283	8427.5
2489.14976	8440.6
2491.89497	8446.1
2494.63845	8438.9
2497.3802	8412.7
2500.12024	8437.6
2502.85855	8403.7
2505.59514	8397.1
2508.33002	8370.5
2511.06318	8361.5
2513.79462	8332.3
2516.52435	8351.4
2519.25237	8305.7
2521.97867	8284.4
2524.70327	8304.2
2527.42616	8273.4
2530.14734	8260.9
2532.86681	8260.2
2535.58458	8249.8
2538.30065	8269.9
2541.01501	8245.8
2543.72768	8246.6
2546.43864	8221.3
2549.14791	8205.5
2551.85548	8219
2554.56136	8195.9
2557.26554	8186.5
2559.96803	8168.1
2562.66883	8152.8
2565.36794	8148.8
2568.06536	8151
2570.7611	8111.4
2573.45514	8126.7
2576.14751	8116.9
2578.83819	8087.4
2581.52719	8097.5
2584.21451	8084.5
2586.90015	8076.9
2589.58411	8051.2
2592.2664	8038
2594.94701	8018.5
2597.62594	8000.4
2600.30321	7986.8
2602.9788	7974.4
2605.65273	7981.9
2608.32498	7973.9
2610.99557	7967.2
2613.66449	7976.6
2616.33175	7946.5
2618.99734	7935.4
2621.66128	7932.9
2624.32355	7929.4
2626.98416	7898.4
2629.64311	7910.4
2632.30041	7908.6
2634.95605	7868.1
2637.61004	7863
2640.26238	7869.9
2642.91306	7866.7
2645.56209	7859.8
2648.20948	7870.3
2650.85521	7846.2
2653.4993	7838.1
2656.14175	7839.6
2658.78255	7835
2661.42171	7832.2
2664.05923	7861.6
2666.6951	7842.5
2669.32934	7860.7
2671.96194	7834.6
2674.59291	7848.8
2677.22224	7826.4
2679.84993	7838.9
2682.476	7846.8
2685.10043	7844.7
2687.72324	7806.3
2690.34441	7819.6
2692.96396	7820.2
2695.58188	7836.6
2698.19818	7830.4
2700.81285	7833.1
2703.4259	7817.5
2706.03733	7830.1
2708.64714	7825.2
2711.25533	7840.2
2713.86191	7833.2
2716.46687	7854.7
2719.07021	7840
2721.67194	7849.6
2724.27206	7830.1
2726.87057	7846.5
2729.46747	7841.6
2732.06276	7858.3
2734.65644	7844.5
2737.24852	7860
2739.83899	7817.9
2742.42786	7833.8
2745.01513	7794.4
2747.60079	7797.5
2750.18486	7782
2752.76733	7785.3
2755.3482	7762.6
2757.92747	7766.4
2760.50515	7728.7
2763.08123	7718
2765.65573	7738
2768.22863	7710
2770.79994	7701.6
2773.36967	7705.2
2775.9378	7702.3
2778.50435	7710.7
2781.06932	7686.8
2783.6327	7680.2
2786.1945	7686.3
2788.75471	7686.2
2791.31335	7642.2
2793.87041	7655
2796.42589	7620.8
2798.97979	7624.5
2801.53212	7587.1
2804.08288	7586.2
2806.63206	7589.9
2809.17967	7579.4
2811.72571	7548.9
2814.27018	7546.9
2816.81308	7526.4
2819.35442	7533.8
2821.89419	7512
2824.43239	7511
2826.96904	7530
2829.50412	7519.1
2832.03763	7493.5
2834.56959	7513.9
2837.1	7497
2839.62884	7498.8
2842.15613	7504.7
2844.68186	7537
2847.20604	7562.8
2849.72867	7579.7
2852.24974	7583.1
2854.76927	7567.8
2857.28724	7535.4
2859.80367	7561.3
2862.31855	7555.6
2864.83189	7526.6
2867.34368	7539.6
2869.85393	7533.4
2872.36264	7510
2874.8698	7527.1
2877.37543	7502
2879.87952	7505.5
2882.38207	7506.9
2884.88308	7502.4
2887.38256	7530.8
2889.88051	7507.4
2892.37692	7528.4
2894.8718	7523.8
2897.36515	7510
2899.85698	7522.3
2902.34727	7548.4
2904.83604	7568.4
2907.32328	7579.4
2909.809	7561.4
2912.29319	7585.7
2914.77587	7570.5
2917.25702	7596.2
2919.73665	7586.8
2922.21476	7580.8
2924.69136	7612.6
2927.16644	7595.9
2929.64	7567.8
2932.11205	7555.2
2934.58258	7549.2
2937.05161	7560.3
2939.51912	7529.2
2941.98513	7542.9
2944.44962	7512.6
2946.91261	7475.3
2949.37409	7479.2
2951.83407	7451
2954.29254	7448.6
2956.74951	7441.3
2959.20498	7437.3
2961.65895	7416.7
2964.11142	7408.4
2966.56239	7401.6
2969.01186	7390.1
2971.45984	7353.7
2973.90632	7338.1
2976.35131	7336.1
2978.7948	7330.1
2981.23681	7312.3
2983.67732	7286.8
2986.11635	7283
2988.55388	7268.8
2990.98993	7244.6
2993.4245	7240.5
2995.85758	7222.8
2998.28917	7210
3000.71928	7198.5
3003.14791	7177.7
3005.57506	7183.6
3008.00073	7170.6
3010.42493	7150.7
3012.84764	7154.5
3015.26888	7133.9
3017.68865	7114.9
3020.10694	7117.6
3022.52376	7093.4
3024.9391	7098.7
3027.35298	7086.9
3029.76539	7069.3
3032.17632	7055.3
3034.5858	7049.4
3036.9938	7042.7
3039.40034	7017.5
3041.80542	7011.8
3044.20903	7004.9
3046.61118	7007.4
3049.01187	6994.5
3051.4111	7001.4
3053.80888	6996.1
3056.20519	6975.2
3058.60005	6972.4
3060.99345	6951.7
3063.3854	6935.4
3065.7759	6928.1
3068.16494	6926
3070.55254	6889
3072.93868	6890.7
3075.32338	6864
3077.70662	6841.1
3080.08842	6831.6
3082.46878	6821.2
3084.84769	6831.5
3087.22515	6831.6
3089.60118	6833.8
3091.97576	6828.6
3094.3489	6841.4
3096.72061	6865.2
3099.09087	6841.6
3101.4597	6819.8
3103.82709	6818.6
3106.19305	6831.5
3108.55757	6836
3110.92066	6806.5
3113.28232	6793.7
3115.64255	6798.7
3118.00134	6767.2
3120.35871	6782.7
3122.71466	6770.7
3125.06917	6755.4
3127.42226	6738.2
3129.77393	6748.1
3132.12417	6770.2
3134.47299	6758.5
3136.82039	6761.2
3139.16636	6764.7
3141.51092	6755.8
3143.85406	6742.2
3146.19579	6768.4
3148.53609	6741.6
3150.87499	6794.6
3153.21246	6785.1
3155.54853	6798.7
3157.88318	6786.2
3160.21642	6794.6
3162.54826	6793.9
3164.87868	6812.7
3167.2077	6780.5
3169.5353	6801.4
3171.86151	6795.1
3174.18631	6796.2
3176.5097	6782.2
3178.83169	6775.3
3181.15228	6773.6
3183.47147	6753.9
3185.78926	6756.4
3188.10565	6752
3190.42065	6729.4
3192.73424	6743.3
3195.04645	6737.3
3197.35725	6747.3
3199.66667	6767.8
3201.97469	6790.4
3204.28132	6782.8
3206.58656	6779.8
3208.8904	6770
3211.19287	6783.1
3213.49394	6768.4
3215.79363	6780.2
3218.09193	6777.7
3220.38884	6773.4
3222.68438	6802.9
3224.97853	6789.1
3227.2713	6790.5
3229.56269	6783.6
3231.8527	6784.9
3234.14133	6742.2
3236.42858	6738.8
3238.71446	6731.4
3240.99896	6734.4
3243.28209	6724.8
3245.56384	6712.9
3247.84423	6690.4
3250.12324	6695.6
3252.40088	6687.4
3254.67715	6672.5
3256.95205	6672.9
3259.22558	6691.1
3261.49775	6674.5
3263.76855	6698.6
3266.03799	6676.1
3268.30606	6664.6
3270.57277	6668.2
3272.83812	6649
3275.10211	6644.6
3277.36474	6645
3279.62601	6618.7
3281.88593	6604.9
3284.14448	6621
3286.40168	6628.4
3288.65753	6618.6
3290.91202	6607.2
3293.16516	6589.8
3295.41695	6579.6
3297.66738	6552.2
3299.91647	6543.1
3302.16421	6495.7
3304.4106	6471.4
3306.65564	6444.7
3308.89933	6389.3
3311.14169	6361.7
3313.38269	6300
3315.62236	6270.2
3317.86068	6226
3320.09766	6193
3322.3333	6148.1
3324.5676	6126.8
3326.80056	6014.2
3329.03219	5986.3
3331.26248	3.7
3333.49143	0.5
3335.71905	-0.9
