Data from AgNPs_FTO_APTES_UA_50uM_CRN_20uM_R6G_10uM_NaF_0.1M_Addition_RamanShift__6__14-01-14-917.txt Node

Date: Mon Feb 21 14:01:14 GMT 2022
User: TCL
Spectrometer: QEP01345
Trigger mode: 4
Integration Time (sec): 7.000000E0
Scans to average: 10
Electric dark correction enabled: true
Nonlinearity correction enabled: false
Boxcar width: 0
XAxis mode: Raman Shifts
Number of Pixels in Spectrum: 1044
>>>>>Begin Spectral Data<<<<<
46.04893	1.8
50.45542	-0.8
54.85868	-1.3
59.25871	-1.9
63.6555	49.9
68.04907	57.8
72.43941	58.3
76.82654	61.5
81.21044	64.3
85.59113	66.9
89.96862	70.9
94.34289	72.4
98.71396	73.9
103.08183	79.8
107.4465	79.5
111.80798	81.3
116.16626	77.9
120.52136	79.5
124.87327	87.4
129.222	83.3
133.56755	91.2
137.90993	100.8
142.24913	101.9
146.58517	108.9
150.91804	131.5
155.24774	148.3
159.57429	177.8
163.89768	228.1
168.21792	296.3
172.53501	396.4
176.84895	546.3
181.15975	761.2
185.46741	1073.2
189.77193	1479.5
194.07331	1963
198.37157	2528.1
202.6667	3143.2
206.9587	3723
211.24758	4323.5
215.53334	4915.1
219.81599	5534.4
224.09553	6236.6
228.37195	7009.1
232.64527	7872.6
236.91549	8757.6
241.18261	9603.2
245.44663	10406.7
249.70755	11085.9
253.96539	11665.3
258.22014	12123.1
262.4718	12490.5
266.72039	12728.7
270.96589	12864.4
275.20832	12810.3
279.44768	12651.9
283.68397	12432.3
287.91719	12234.1
292.14735	12128.6
296.37445	12083.2
300.59849	12165.8
304.81948	12293
309.03742	12387.9
313.25231	12358.4
317.46415	12198
321.67296	11920.4
325.87872	11685.9
330.08145	11601.2
334.28114	11605.3
338.47781	11706.9
342.67145	11830.1
346.86207	12061.8
351.04966	12335.7
355.23424	12650.9
359.4158	12901
363.59435	13093.9
367.76989	13188.1
371.94243	13244.5
376.11196	13268.7
380.27849	13310.7
384.44203	13325.2
388.60257	13392.5
392.76012	13479.9
396.91468	13628.8
401.06626	13812.6
405.21485	13967.6
409.36047	13844.9
413.50311	13611.1
417.64277	13369
421.77947	13296.3
425.9132	13279.1
430.04396	13288.6
434.17176	13358.8
438.2966	13488.2
442.41849	13728.7
446.53742	14100.5
450.6534	14430.7
454.76644	14677.2
458.87653	14675.8
462.98368	14562.7
467.08789	14411.7
471.18916	14176.2
475.2875	13903.7
479.38291	13663.3
483.4754	13473.2
487.56496	13381.1
491.6516	13287.7
495.73531	13260.1
499.81612	13296.7
503.89401	13419.9
507.96899	13486.4
512.04106	13494.2
516.11023	13480.8
520.1765	13424
524.23987	13400.3
528.30034	13374.2
532.35792	13321.5
536.41261	13169.3
540.46441	12989.5
544.51333	12895.8
548.55936	12962.2
552.60252	13133.2
556.64279	13413.6
560.6802	13590.2
564.71473	13623.4
568.7464	13687
572.7752	13967.1
576.80114	14191.1
580.82422	14505.8
584.84444	15046.6
588.86181	15889.9
592.87633	16832.6
596.888	17140.7
600.89682	16554.3
604.9028	16294.3
608.90594	17643.2
612.90624	19458.7
616.90371	18363.3
620.89834	15137.2
624.89015	13673
628.87913	13494.8
632.86528	13616.8
636.84862	13698.8
640.82913	13516.9
644.80683	13137.7
648.78172	12895
652.75379	12880.4
656.72306	13097.4
660.68952	13408.3
664.65319	13326.7
668.61405	13044.2
672.57211	13003.2
676.52738	13075.2
680.47986	13141.6
684.42955	12991.4
688.37646	12899.6
692.32058	12948.2
696.26192	13108.6
700.20048	13257.6
704.13626	13330.8
708.06928	13294.6
711.99952	13211.1
715.927	13212.9
719.85171	13294.8
723.77365	13228.7
727.69284	13084.8
731.60928	12910.7
735.52295	12890.6
739.43388	12943.8
743.34206	12977.8
747.24749	13046
751.15017	13142.8
755.05012	13267.4
758.94733	13606.2
762.8418	14271.4
766.73354	15472
770.62254	16609.3
774.50882	17029.5
778.39237	16449.4
782.27321	15312
786.15132	14280.1
790.02671	13590.7
793.89938	13237.4
797.76935	13045.7
801.6366	12938.5
805.50115	12882.4
809.36299	12820.3
813.22213	12743.1
817.07857	12657.3
820.93231	12634.9
824.78336	12576.2
828.63172	12581.9
832.47738	12566.6
836.32036	12593.2
840.16066	12586.9
843.99827	12588.2
847.8332	12567.9
851.66546	12550.9
855.49504	12558.6
859.32195	12598.6
863.1462	12585.3
866.96777	12521.7
870.78668	12547.2
874.60293	12559.1
878.41652	12592.7
882.22745	12668.8
886.03573	12721.4
889.84136	12720.8
893.64433	12678.4
897.44466	12651.1
901.24235	12611.5
905.0374	12564.6
908.8298	12485.6
912.61957	12462.9
916.40671	12498.6
920.19121	12612.1
923.97308	12739
927.75233	12865.8
931.52895	12869.6
935.30295	12721.9
939.07433	12489.5
942.84309	12282.6
946.60924	12215.8
950.37278	12164.4
954.13371	12169.3
957.89203	12130.5
961.64774	12150
965.40086	12137.3
969.15137	12135.5
972.89929	12120.6
976.64461	12124.2
980.38733	12137.7
984.12747	12168.2
987.86502	12216
991.59999	12310.7
995.33237	12441
999.06217	12673.1
1002.78939	12920.4
1006.51404	13195
1010.23611	13448.7
1013.95561	13629.7
1017.67255	13640.2
1021.38692	13520.9
1025.09872	13268.6
1028.80796	13143.9
1032.51465	13149.3
1036.21877	13253.3
1039.92035	13298.9
1043.61937	13298.7
1047.31584	13282.7
1051.00976	13185.2
1054.70114	13136.5
1058.38998	13118.7
1062.07627	13193.1
1065.76003	13288.5
1069.44126	13444.5
1073.11995	13708.7
1076.79611	13959
1080.46974	14127.3
1084.14085	14262.1
1087.80943	14424.9
1091.47549	14531.3
1095.13903	14515.1
1098.80005	14255.9
1102.45857	13926.3
1106.11456	13703.2
1109.76805	13644.1
1113.41903	13661.2
1117.06751	13785.2
1120.71348	13962.6
1124.35696	14207.1
1127.99793	14434.8
1131.63641	14539.3
1135.2724	14434
1138.90589	14249.4
1142.5369	14174.4
1146.16542	14164.3
1149.79145	14184.9
1153.415	14185.4
1157.03607	14286.2
1160.65467	14577.1
1164.27079	15049.9
1167.88443	15708
1171.49561	16586.5
1175.10432	17766.1
1178.71056	19326.4
1182.31434	20676.7
1185.91565	21264.4
1189.51451	21017.3
1193.11091	20355.5
1196.70485	19464.6
1200.29634	18672.7
1203.88538	17986
1207.47197	17452.8
1211.05612	16926.5
1214.63782	16617.8
1218.21708	16312
1221.79391	16154.4
1225.36829	16145
1228.94024	16135.5
1232.50976	15997.6
1236.07685	15745.8
1239.6415	15563.9
1243.20374	15504.7
1246.76355	15625.4
1250.32093	15741.8
1253.8759	15990.4
1257.42845	16395.3
1260.97859	16880.6
1264.52631	17429
1268.07163	18009.3
1271.61453	18497.8
1275.15503	18965.2
1278.69312	19372.7
1282.22882	19814.7
1285.76211	20454.9
1289.29301	21163.2
1292.82151	21940.1
1296.34761	22859.8
1299.87133	23933.2
1303.39266	25298.6
1306.9116	26677.9
1310.42815	27944.9
1313.94233	28650.8
1317.45412	28241.3
1320.96354	27182.3
1324.47058	26019.7
1327.97525	24991.7
1331.47754	24370
1334.97747	23929.2
1338.47502	23686.7
1341.97022	23593.9
1345.46305	23619.3
1348.95352	23970
1352.44163	24765.9
1355.92738	26159
1359.41078	28101.6
1362.89183	29854.9
1366.37053	29727
1369.84688	27134.2
1373.32088	23732.5
1376.79254	21320.6
1380.26186	20202.6
1383.72883	19815.4
1387.19347	19418.5
1390.65578	18946
1394.11575	18656.1
1397.57339	18612
1401.0287	18738.9
1404.48168	18844.4
1407.93234	18848.3
1411.38068	18710.7
1414.82669	18426.1
1418.27039	18084.2
1421.71177	17787.1
1425.15083	17457.5
1428.58758	17325.4
1432.02203	17482.7
1435.45416	17813.4
1438.88399	18092.5
1442.31151	18248
1445.73673	18252
1449.15965	18302.7
1452.58027	18271.7
1455.9986	18174.8
1459.41463	18155.6
1462.82837	18416.2
1466.23982	18834.7
1469.64898	19303.3
1473.05586	19630.4
1476.46045	19833.7
1479.86276	19977.9
1483.26279	20029.2
1486.66054	20171.1
1490.05602	20551.8
1493.44922	21033
1496.84016	21655.6
1500.22882	22414.1
1503.61521	23438.4
1506.99934	24515.7
1510.38121	25306.9
1513.76081	25347
1517.13816	24421.1
1520.51324	23018.8
1523.88607	21755.5
1527.25665	20994.4
1530.62498	20598.9
1533.99105	20191.2
1537.35488	19743.8
1540.71647	19272
1544.07581	18792.1
1547.4329	18432.8
1550.78776	18131.4
1554.14038	17966.3
1557.49077	17925.6
1560.83892	17984.1
1564.18484	18109.4
1567.52853	18325.8
1570.86999	18619.6
1574.20922	18925.2
1577.54624	19059.2
1580.88103	18770.1
1584.2136	18505.5
1587.54395	18706.8
1590.87208	19439.7
1594.19801	20568.4
1597.52172	21740.1
1600.84321	22137.5
1604.16251	21331.9
1607.47959	19811.4
1610.79447	18191.6
1614.10715	16768.6
1617.41763	15719.5
1620.7259	15044.4
1624.03199	14706.7
1627.33587	14756.6
1630.63757	15141
1633.93707	15984.2
1637.23439	17452.3
1640.52951	19698.6
1643.82246	22443.3
1647.11321	24752
1650.40179	25309.7
1653.68819	23487.1
1656.97241	20338.2
1660.25446	17348.9
1663.53433	15242.4
1666.81203	13985
1670.08756	13261.6
1673.36092	12856.9
1676.63211	12605
1679.90115	12421
1683.16801	12252
1686.43272	12135
1689.69527	12009.6
1692.95567	11861.6
1696.2139	11703.6
1699.46999	11545.6
1702.72392	11529.6
1705.97571	11613.1
1709.22535	11638.2
1712.47284	11712.3
1715.71819	11713.4
1718.96139	11687.8
1722.20246	11674.4
1725.44139	11654.5
1728.67818	11574.1
1731.91284	11520
1735.14537	11454.2
1738.37576	11420.8
1741.60403	11364.3
1744.83017	11315.8
1748.05418	11294.6
1751.27607	11249.3
1754.49584	11196.4
1757.71349	11139.4
1760.92903	11101.9
1764.14244	11088.8
1767.35375	11057.8
1770.56294	11056.8
1773.77002	11008.9
1776.97499	11052.9
1780.17785	11060.2
1783.37861	11079.1
1786.57727	11086.4
1789.77382	11079.5
1792.96828	11082.1
1796.16064	11057.6
1799.3509	11028.4
1802.53907	11021.7
1805.72514	10993.6
1808.90913	10980.5
1812.09102	10957.7
1815.27083	10961.8
1818.44856	10927.7
1821.6242	10933
1824.79776	10923
1827.96924	10931.2
1831.13864	10895.5
1834.30597	10925.8
1837.47122	10907.4
1840.6344	10914.7
1843.7955	10915
1846.95454	10890.9
1850.11151	10891.6
1853.26642	10890.6
1856.41926	10884.8
1859.57004	10892.3
1862.71876	10853.2
1865.86542	10856.5
1869.01003	10855.6
1872.15258	10836.4
1875.29308	10810.4
1878.43152	10806.7
1881.56792	10775.5
1884.70227	10787.2
1887.83457	10795.8
1890.96482	10774.7
1894.09304	10750.8
1897.21921	10765
1900.34335	10756.9
1903.46544	10713.4
1906.58551	10704.2
1909.70353	10702.4
1912.81953	10689.4
1915.93349	10687.7
1919.04543	10638.9
1922.15534	10629.3
1925.26322	10591.5
1928.36908	10562.7
1931.47292	10573.9
1934.57473	10528.1
1937.67453	10519
1940.77232	10513.8
1943.86808	10468
1946.96184	10442.7
1950.05358	10401.5
1953.14331	10391.1
1956.23103	10373.7
1959.31675	10341.3
1962.40046	10328.8
1965.48217	10291.1
1968.56188	10243.5
1971.63959	10233.7
1974.7153	10201.5
1977.78901	10186.1
1980.86073	10141.6
1983.93046	10112.3
1986.99819	10070.8
1990.06394	10061.8
1993.1277	10047.8
1996.18947	10000.4
1999.24925	9970.5
2002.30706	9946.8
2005.36288	9889.9
2008.41672	9876.9
2011.46859	9856.1
2014.51848	9855.1
2017.56639	9854.7
2020.61233	9809.6
2023.6563	9777.3
2026.6983	9773.7
2029.73833	9748.8
2032.7764	9708
2035.8125	9660.4
2038.84664	9686.2
2041.87881	9690.7
2044.90903	9681.5
2047.93729	9650.4
2050.96359	9633.4
2053.98794	9638
2057.01034	9642.7
2060.03078	9631.9
2063.04927	9608.4
2066.06582	9606.1
2069.08042	9586.9
2072.09307	9599.2
2075.10378	9564.5
2078.11255	9588.1
2081.11938	9573.1
2084.12426	9568.6
2087.12722	9595.7
2090.12824	9573.3
2093.12732	9581.1
2096.12447	9582.8
2099.11969	9579.2
2102.11299	9613.3
2105.10435	9619.2
2108.09379	9628.7
2111.08131	9604.5
2114.0669	9620.5
2117.05057	9616
2120.03233	9621.8
2123.01216	9662.2
2125.99008	9655.4
2128.96609	9682.9
2131.94018	9681.2
2134.91236	9683.9
2137.88263	9688.2
2140.851	9689.3
2143.81746	9714.5
2146.78201	9712
2149.74466	9719.5
2152.7054	9706.2
2155.66425	9708.5
2158.6212	9686.1
2161.57625	9677.4
2164.52941	9693.6
2167.48067	9703
2170.43004	9684.9
2173.37752	9668.3
2176.32311	9685.9
2179.26681	9684
2182.20863	9700
2185.14856	9693.1
2188.08661	9695.9
2191.02278	9693.8
2193.95707	9692.6
2196.88948	9675.4
2199.82001	9690.7
2202.74867	9687.8
2205.67545	9677.9
2208.60037	9674.6
2211.52341	9636.5
2214.44458	9620.6
2217.36388	9609.4
2220.28132	9606
2223.1969	9584.4
2226.11061	9595.2
2229.02246	9547
2231.93245	9551.6
2234.84058	9534.6
2237.74686	9524.8
2240.65128	9530
2243.55385	9542.6
2246.45456	9520.9
2249.35343	9491.6
2252.25044	9495.3
2255.14561	9512.1
2258.03893	9484.6
2260.93041	9437.8
2263.82004	9445.6
2266.70783	9408.1
2269.59378	9386.3
2272.4779	9388.7
2275.36017	9351.3
2278.24061	9318
2281.11922	9312.7
2283.996	9314.4
2286.87094	9308.9
2289.74405	9288.7
2292.61534	9295.3
2295.4848	9274.7
2298.35243	9260.4
2301.21824	9271.9
2304.08223	9283.5
2306.94439	9275.9
2309.80474	9265
2312.66327	9271.9
2315.51999	9261.8
2318.37489	9257.1
2321.22797	9245.3
2324.07925	9219.8
2326.92871	9225.7
2329.77637	9216.3
2332.62222	9210.7
2335.46626	9167.6
2338.3085	9175.7
2341.14893	9175
2343.98756	9180.9
2346.8244	9172.2
2349.65943	9188.4
2352.49267	9185.9
2355.32411	9187
2358.15376	9182.9
2360.98161	9157.9
2363.80768	9167.1
2366.63195	9180.2
2369.45444	9147.4
2372.27514	9143.9
2375.09405	9162.5
2377.91118	9144.1
2380.72652	9130.1
2383.54009	9108.8
2386.35187	9087.9
2389.16188	9077.5
2391.97011	9040.2
2394.77657	9018.7
2397.58125	9035.3
2400.38416	9031.3
2403.18529	9002.8
2405.98466	9012
2408.78226	8946.3
2411.57809	8980.8
2414.37216	8963.2
2417.16446	8967.3
2419.955	8957.7
2422.74378	8959.9
2425.5308	8927
2428.31606	8945.5
2431.09956	8954.1
2433.88131	8928.2
2436.6613	8915.8
2439.43954	8915.3
2442.21603	8926.6
2444.99077	8920.4
2447.76377	8940.2
2450.53501	8953.6
2453.30451	8939.9
2456.07226	8917.4
2458.83827	8906.5
2461.60254	8928
2464.36507	8911.1
2467.12586	8919.8
2469.88492	8913.8
2472.64224	8914.8
2475.39782	8912.1
2478.15167	8898.5
2480.90379	8923.1
2483.65417	8902.8
2486.40283	8922.5
2489.14976	8923.1
2491.89497	8925.9
2494.63845	8929.5
2497.3802	8927.1
2500.12024	8912.8
2502.85855	8914.3
2505.59514	8927.4
2508.33002	8875.3
2511.06318	8887.3
2513.79462	8874
2516.52435	8873.2
2519.25237	8855.8
2521.97867	8839
2524.70327	8843.7
2527.42616	8826.2
2530.14734	8835.5
2532.86681	8819.2
2535.58458	8832.2
2538.30065	8830
2541.01501	8823.7
2543.72768	8820.1
2546.43864	8787.8
2549.14791	8768.2
2551.85548	8765.1
2554.56136	8770.3
2557.26554	8768.2
2559.96803	8779.7
2562.66883	8759.8
2565.36794	8759.6
2568.06536	8778
2570.7611	8754.2
2573.45514	8715.4
2576.14751	8710
2578.83819	8721.8
2581.52719	8696.7
2584.21451	8695.1
2586.90015	8693.7
2589.58411	8638.7
2592.2664	8659.7
2594.94701	8647.7
2597.62594	8657.3
2600.30321	8646.5
2602.9788	8669
2605.65273	8655.2
2608.32498	8651.3
2610.99557	8610.5
2613.66449	8618.3
2616.33175	8615.2
2618.99734	8638.2
2621.66128	8629.1
2624.32355	8622.7
2626.98416	8604.9
2629.64311	8580.5
2632.30041	8566.4
2634.95605	8571.7
2637.61004	8565.8
2640.26238	8555.9
2642.91306	8534.8
2645.56209	8528.5
2648.20948	8538.5
2650.85521	8521.2
2653.4993	8534.6
2656.14175	8541
2658.78255	8548.8
2661.42171	8552.5
2664.05923	8581.2
2666.6951	8596
2669.32934	8600.9
2671.96194	8601.2
2674.59291	8579.8
2677.22224	8582.4
2679.84993	8587.3
2682.476	8562
2685.10043	8568.9
2687.72324	8564.7
2690.34441	8593
2692.96396	8594.2
2695.58188	8595.6
2698.19818	8571.7
2700.81285	8564.1
2703.4259	8513.8
2706.03733	8480.1
2708.64714	8501.8
2711.25533	8558.9
2713.86191	8583.8
2716.46687	8595.5
2719.07021	8607.9
2721.67194	8604.7
2724.27206	8620.2
2726.87057	8618.2
2729.46747	8639.1
2732.06276	8610.3
2734.65644	8638.4
2737.24852	8633.8
2739.83899	8638
2742.42786	8640.9
2745.01513	8630.7
2747.60079	8620
2750.18486	8598.6
2752.76733	8623.5
2755.3482	8575.6
2757.92747	8606.4
2760.50515	8567.2
2763.08123	8586.6
2765.65573	8563.2
2768.22863	8564.5
2770.79994	8541.1
2773.36967	8525.1
2775.9378	8505.2
2778.50435	8505.8
2781.06932	8509.9
2783.6327	8530.3
2786.1945	8534.9
2788.75471	8517.8
2791.31335	8499.7
2793.87041	8484.5
2796.42589	8486.5
2798.97979	8473.3
2801.53212	8464
2804.08288	8438.1
2806.63206	8433
2809.17967	8410.8
2811.72571	8404.5
2814.27018	8408.9
2816.81308	8376.1
2819.35442	8372.9
2821.89419	8387.7
2824.43239	8378.5
2826.96904	8374.1
2829.50412	8370.1
2832.03763	8356.1
2834.56959	8378.5
2837.1	8348.5
2839.62884	8365.1
2842.15613	8332.1
2844.68186	8356.8
2847.20604	8347.9
2849.72867	8365.3
2852.24974	8366.5
2854.76927	8342.7
2857.28724	8332.8
2859.80367	8325.4
2862.31855	8309.5
2864.83189	8312.9
2867.34368	8293.2
2869.85393	8338.7
2872.36264	8323
2874.8698	8328.5
2877.37543	8293
2879.87952	8326.5
2882.38207	8344.7
2884.88308	8345.7
2887.38256	8350.2
2889.88051	8337.5
2892.37692	8339.9
2894.8718	8333.8
2897.36515	8372.1
2899.85698	8355
2902.34727	8378.5
2904.83604	8375.4
2907.32328	8395.1
2909.809	8381.5
2912.29319	8395.9
2914.77587	8408.1
2917.25702	8397.4
2919.73665	8416.3
2922.21476	8392.4
2924.69136	8383.8
2927.16644	8394.2
2929.64	8381
2932.11205	8371.8
2934.58258	8367
2937.05161	8354.1
2939.51912	8360.8
2941.98513	8369.6
2944.44962	8338.7
2946.91261	8312.5
2949.37409	8334.7
2951.83407	8334.8
2954.29254	8314.7
2956.74951	8298.7
2959.20498	8286
2961.65895	8254.9
2964.11142	8279.1
2966.56239	8246.1
2969.01186	8257.5
2971.45984	8236.3
2973.90632	8222.9
2976.35131	8214.6
2978.7948	8207.1
2981.23681	8199.9
2983.67732	8182.1
2986.11635	8137.6
2988.55388	8109.4
2990.98993	8131.7
2993.4245	8101.4
2995.85758	8104.4
2998.28917	8076.4
3000.71928	8084.6
3003.14791	8044.2
3005.57506	8063.4
3008.00073	8019.1
3010.42493	8007.7
3012.84764	8028.8
3015.26888	8018.9
3017.68865	8007.4
3020.10694	7979.7
3022.52376	7982.8
3024.9391	7953.8
3027.35298	7944.6
3029.76539	7958.3
3032.17632	7938.3
3034.5858	7897.2
3036.9938	7928.4
3039.40034	7904.1
3041.80542	7884.1
3044.20903	7890.1
3046.61118	7901.2
3049.01187	7884.8
3051.4111	7901.8
3053.80888	7874.8
3056.20519	7867.4
3058.60005	7831.8
3060.99345	7859.6
3063.3854	7818.2
3065.7759	7816.7
3068.16494	7799.3
3070.55254	7786.7
3072.93868	7754.5
3075.32338	7731.4
3077.70662	7733.2
3080.08842	7728.6
3082.46878	7705.1
3084.84769	7718.8
3087.22515	7717.6
3089.60118	7695.9
3091.97576	7703
3094.3489	7717.1
3096.72061	7699.9
3099.09087	7698.8
3101.4597	7696.6
3103.82709	7701.6
3106.19305	7697.7
3108.55757	7662.9
3110.92066	7678.9
3113.28232	7661.5
3115.64255	7647.7
3118.00134	7650.7
3120.35871	7649
3122.71466	7649.9
3125.06917	7633.5
3127.42226	7607.6
3129.77393	7625.9
3132.12417	7606.8
3134.47299	7607.7
3136.82039	7587.4
3139.16636	7587.7
3141.51092	7604.2
3143.85406	7612.2
3146.19579	7598.6
3148.53609	7606.6
3150.87499	7601.6
3153.21246	7616.7
3155.54853	7646.8
3157.88318	7628.3
3160.21642	7645.5
3162.54826	7642.1
3164.87868	7645.8
3167.2077	7630.8
3169.5353	7673.8
3171.86151	7656.6
3174.18631	7656.3
3176.5097	7656.8
3178.83169	7635
3181.15228	7628.6
3183.47147	7612.4
3185.78926	7637.5
3188.10565	7610.9
3190.42065	7645
3192.73424	7641.7
3195.04645	7600.3
3197.35725	7614
3199.66667	7607.9
3201.97469	7623.3
3204.28132	7589
3206.58656	7615.1
3208.8904	7599.4
3211.19287	7610.3
3213.49394	7636.9
3215.79363	7623.4
3218.09193	7644.2
3220.38884	7608.6
3222.68438	7593.5
3224.97853	7600.1
3227.2713	7607.9
3229.56269	7592.5
3231.8527	7603.9
3234.14133	7586.6
3236.42858	7561.7
3238.71446	7563.1
3240.99896	7563.1
3243.28209	7542.6
3245.56384	7549.4
3247.84423	7546.9
3250.12324	7546.9
3252.40088	7546.9
3254.67715	7549.8
3256.95205	7552
3259.22558	7529
3261.49775	7522.6
3263.76855	7510.2
3266.03799	7498
3268.30606	7472.6
3270.57277	7488.9
3272.83812	7482.7
3275.10211	7477.9
3277.36474	7455.8
3279.62601	7456.4
3281.88593	7443.9
3284.14448	7446.7
3286.40168	7449.9
3288.65753	7461.2
3290.91202	7458.4
3293.16516	7435.2
3295.41695	7434.6
3297.66738	7396.7
3299.91647	7343.2
3302.16421	7317.1
3304.4106	7290.1
3306.65564	7217.5
3308.89933	7193.5
3311.14169	7138.3
3313.38269	7065.2
3315.62236	7030.3
3317.86068	6985.7
3320.09766	6918.3
3322.3333	6883
3324.5676	6854.1
3326.80056	6743.5
3329.03219	6700.6
3331.26248	2.7
3333.49143	-0.9
3335.71905	-0
