Data from AgNPs_FTO_APTES_UA_50uM_CRN_1000uM_R6G_10uM_NaF_0.1M_Addition_RamanShift__8__17-35-33-582.txt Node

Date: Mon Feb 21 17:35:33 GMT 2022
User: TCL
Spectrometer: QEP01345
Trigger mode: 4
Integration Time (sec): 7.000000E0
Scans to average: 10
Electric dark correction enabled: true
Nonlinearity correction enabled: false
Boxcar width: 0
XAxis mode: Raman Shifts
Number of Pixels in Spectrum: 1044
>>>>>Begin Spectral Data<<<<<
46.04893	-0.7625
50.45542	1.1375
54.85868	0.2375
59.25871	-2.4625
63.6555	44.6375
68.04907	46.1375
72.43941	49.3375
76.82654	52.0375
81.21044	53.3375
85.59113	56.2375
89.96862	61.0375
94.34289	61.7375
98.71396	60.5375
103.08183	62.8375
107.4465	67.6375
111.80798	69.3375
116.16626	69.0375
120.52136	69.6375
124.87327	70.0375
129.222	73.8375
133.56755	79.1375
137.90993	78.0375
142.24913	84.6375
146.58517	93.0375
150.91804	102.7375
155.24774	122.0375
159.57429	141.2375
163.89768	174.9375
168.21792	230.6375
172.53501	312.1375
176.84895	428.0375
181.15975	604.9375
185.46741	845.2375
189.77193	1162.9375
194.07331	1567.1375
198.37157	2032.8375
202.6667	2508.6375
206.9587	2993.3375
211.24758	3475.7375
215.53334	3946.2375
219.81599	4436.6375
224.09553	4990.1375
228.37195	5593.1375
232.64527	6244.5375
236.91549	6952.1375
241.18261	7642.9375
245.44663	8298.2375
249.70755	8876.3375
253.96539	9341.3375
258.22014	9718.2375
262.4718	10049.4375
266.72039	10217.5375
270.96589	10326.7375
275.20832	10290.6375
279.44768	10182.0375
283.68397	10005.0375
287.91719	9863.4375
292.14735	9778.1375
296.37445	9721.9375
300.59849	9720.5375
304.81948	9754.8375
309.03742	9761.4375
313.25231	9734.6375
317.46415	9618.8375
321.67296	9458.5375
325.87872	9291.2375
330.08145	9210.4375
334.28114	9194.3375
338.47781	9238.7375
342.67145	9316.9375
346.86207	9475.3375
351.04966	9646.1375
355.23424	9804.9375
359.4158	9981.4375
363.59435	10085.7375
367.76989	10176.6375
371.94243	10223.8375
376.11196	10293.5375
380.27849	10322.4375
384.44203	10381.5375
388.60257	10436.5375
392.76012	10527.7375
396.91468	10622.0375
401.06626	10752.9375
405.21485	10837.4375
409.36047	10796.4375
413.50311	10656.6375
417.64277	10498.0375
421.77947	10442.5375
425.9132	10428.7375
430.04396	10496.9375
434.17176	10558.0375
438.2966	10618.0375
442.41849	10758.6375
446.53742	10907.6375
450.6534	11120.3375
454.76644	11230.3375
458.87653	11298.6375
462.98368	11286.0375
467.08789	11245.5375
471.18916	11161.5375
475.2875	11063.3375
479.38291	10947.9375
483.4754	10873.1375
487.56496	10806.3375
491.6516	10742.5375
495.73531	10718.5375
499.81612	10675.9375
503.89401	10730.2375
507.96899	10781.3375
512.04106	10814.5375
516.11023	10825.8375
520.1765	10843.6375
524.23987	10804.6375
528.30034	10759.7375
532.35792	10688.5375
536.41261	10626.6375
540.46441	10589.3375
544.51333	10544.4375
548.55936	10591.0375
552.60252	10722.4375
556.64279	10878.0375
560.6802	10961.4375
564.71473	10985.5375
568.7464	11065.5375
572.7752	11167.5375
576.80114	11276.8375
580.82422	11365.5375
584.84444	11482.1375
588.86181	11645.5375
592.87633	11812.0375
596.888	11926.7375
600.89682	11908.9375
604.9028	12138.1375
608.90594	12974.8375
612.90624	14051.9375
616.90371	13605.6375
620.89834	11829.7375
624.89015	10965.6375
628.87913	10820.9375
632.86528	10907.1375
636.84862	11046.6375
640.82913	10959.6375
644.80683	10771.4375
648.78172	10664.9375
652.75379	10624.8375
656.72306	10756.7375
660.68952	10876.2375
664.65319	10845.5375
668.61405	10735.1375
672.57211	10739.5375
676.52738	10818.7375
680.47986	10898.3375
684.42955	10863.9375
688.37646	10791.6375
692.32058	10765.1375
696.26192	10783.0375
700.20048	10813.7375
704.13626	10817.3375
708.06928	10800.0375
711.99952	10754.9375
715.927	10706.6375
719.85171	10706.1375
723.77365	10701.4375
727.69284	10637.1375
731.60928	10607.2375
735.52295	10574.4375
739.43388	10583.2375
743.34206	10599.1375
747.24749	10626.6375
751.15017	10660.7375
755.05012	10766.6375
758.94733	10960.1375
762.8418	11364.5375
766.73354	12011.8375
770.62254	12702.5375
774.50882	13009.5375
778.39237	12676.5375
782.27321	11926.5375
786.15132	11253.6375
790.02671	10829.5375
793.89938	10629.4375
797.76935	10527.6375
801.6366	10450.7375
805.50115	10423.4375
809.36299	10380.1375
813.22213	10345.9375
817.07857	10323.8375
820.93231	10323.9375
824.78336	10296.2375
828.63172	10277.1375
832.47738	10241.7375
836.32036	10212.2375
840.16066	10183.5375
843.99827	10197.4375
847.8332	10193.3375
851.66546	10237.2375
855.49504	10219.7375
859.32195	10257.0375
863.1462	10246.8375
866.96777	10242.0375
870.78668	10208.8375
874.60293	10244.9375
878.41652	10242.5375
882.22745	10271.4375
886.03573	10311.4375
889.84136	10326.0375
893.64433	10315.2375
897.44466	10259.5375
901.24235	10249.0375
905.0374	10241.6375
908.8298	10209.8375
912.61957	10130.7375
916.40671	10171.1375
920.19121	10246.5375
923.97308	10261.1375
927.75233	10304.7375
931.52895	10264.2375
935.30295	10166.7375
939.07433	10056.8375
942.84309	9941.4375
946.60924	9864.5375
950.37278	9830.1375
954.13371	9805.1375
957.89203	9788.2375
961.64774	9794.5375
965.40086	9756.7375
969.15137	9714.3375
972.89929	9710.8375
976.64461	9677.3375
980.38733	9635.6375
984.12747	9650.7375
987.86502	9668.6375
991.59999	9683.0375
995.33237	9706.8375
999.06217	9772.5375
1002.78939	9853.8375
1006.51404	9954.9375
1010.23611	10071.4375
1013.95561	10150.9375
1017.67255	10201.6375
1021.38692	10165.4375
1025.09872	10078.7375
1028.80796	9988.5375
1032.51465	9928.1375
1036.21877	9908.7375
1039.92035	9951.9375
1043.61937	9972.5375
1047.31584	10013.9375
1051.00976	10045.8375
1054.70114	10067.9375
1058.38998	10088.6375
1062.07627	10115.7375
1065.76003	10173.1375
1069.44126	10225.2375
1073.11995	10283.8375
1076.79611	10375.5375
1080.46974	10425.0375
1084.14085	10460.9375
1087.80943	10508.9375
1091.47549	10571.0375
1095.13903	10560.8375
1098.80005	10472.2375
1102.45857	10388.3375
1106.11456	10253.3375
1109.76805	10203.9375
1113.41903	10259.1375
1117.06751	10351.1375
1120.71348	10482.2375
1124.35696	10620.9375
1127.99793	10767.7375
1131.63641	10876.5375
1135.2724	10781.4375
1138.90589	10655.6375
1142.5369	10540.9375
1146.16542	10489.3375
1149.79145	10470.3375
1153.415	10494.6375
1157.03607	10530.4375
1160.65467	10640.3375
1164.27079	10850.9375
1167.88443	11123.5375
1171.49561	11546.6375
1175.10432	12076.8375
1178.71056	12742.1375
1182.31434	13409.6375
1185.91565	13765.2375
1189.51451	13862.6375
1193.11091	13688.5375
1196.70485	13351.4375
1200.29634	12953.8375
1203.88538	12562.4375
1207.47197	12174.6375
1211.05612	11790.4375
1214.63782	11559.9375
1218.21708	11422.6375
1221.79391	11289.1375
1225.36829	11228.9375
1228.94024	11235.6375
1232.50976	11196.1375
1236.07685	11182.4375
1239.6415	11141.8375
1243.20374	11137.7375
1246.76355	11151.6375
1250.32093	11192.2375
1253.8759	11274.9375
1257.42845	11424.6375
1260.97859	11616.2375
1264.52631	11789.0375
1268.07163	11941.0375
1271.61453	12129.3375
1275.15503	12246.3375
1278.69312	12379.2375
1282.22882	12484.2375
1285.76211	12672.7375
1289.29301	12918.7375
1292.82151	13189.1375
1296.34761	13604.9375
1299.87133	14026.9375
1303.39266	14545.2375
1306.9116	15174.0375
1310.42815	15809.2375
1313.94233	16162.7375
1317.45412	16118.5375
1320.96354	15776.4375
1324.47058	15350.7375
1327.97525	14941.3375
1331.47754	14634.7375
1334.97747	14503.8375
1338.47502	14504.9375
1341.97022	14690.7375
1345.46305	14980.0375
1348.95352	15355.5375
1352.44163	15772.7375
1355.92738	16361.8375
1359.41078	17065.8375
1362.89183	17751.7375
1366.37053	17635.0375
1369.84688	16280.0375
1373.32088	14631.5375
1376.79254	13490.9375
1380.26186	12925.5375
1383.72883	12677.9375
1387.19347	12478.4375
1390.65578	12247.6375
1394.11575	12108.9375
1397.57339	12002.7375
1401.0287	11981.5375
1404.48168	11965.0375
1407.93234	11939.9375
1411.38068	11846.5375
1414.82669	11752.0375
1418.27039	11598.0375
1421.71177	11383.8375
1425.15083	11205.2375
1428.58758	11028.3375
1432.02203	11024.2375
1435.45416	11022.6375
1438.88399	11085.9375
1442.31151	11152.1375
1445.73673	11214.8375
1449.15965	11276.6375
1452.58027	11287.4375
1455.9986	11317.4375
1459.41463	11365.8375
1462.82837	11491.1375
1466.23982	11615.2375
1469.64898	11760.3375
1473.05586	11918.7375
1476.46045	11997.9375
1479.86276	12068.5375
1483.26279	12120.5375
1486.66054	12172.3375
1490.05602	12332.5375
1493.44922	12580.3375
1496.84016	12960.9375
1500.22882	13551.3375
1503.61521	14311.0375
1506.99934	15111.4375
1510.38121	15690.9375
1513.76081	15763.4375
1517.13816	15238.8375
1520.51324	14423.2375
1523.88607	13658.2375
1527.25665	13169.2375
1530.62498	12911.8375
1533.99105	12798.6375
1537.35488	12633.2375
1540.71647	12439.6375
1544.07581	12281.3375
1547.4329	12123.7375
1550.78776	11939.1375
1554.14038	11820.9375
1557.49077	11833.8375
1560.83892	11827.8375
1564.18484	11906.6375
1567.52853	12023.3375
1570.86999	12170.7375
1574.20922	12315.5375
1577.54624	12367.7375
1580.88103	12172.9375
1584.2136	11900.9375
1587.54395	11721.8375
1590.87208	11808.2375
1594.19801	12097.0375
1597.52172	12509.9375
1600.84321	12767.5375
1604.16251	12610.6375
1607.47959	12252.7375
1610.79447	11757.3375
1614.10715	11263.4375
1617.41763	10753.7375
1620.7259	10336.3375
1624.03199	10101.6375
1627.33587	10005.4375
1630.63757	10033.6375
1633.93707	10252.0375
1637.23439	10657.5375
1640.52951	11317.8375
1643.82246	12245.8375
1647.11321	13221.2375
1650.40179	13796.6375
1653.68819	13549.3375
1656.97241	12553.3375
1660.25446	11372.4375
1663.53433	10412.5375
1666.81203	9788.8375
1670.08756	9375.2375
1673.36092	9092.4375
1676.63211	8940.8375
1679.90115	8806.5375
1683.16801	8653.1375
1686.43272	8573.0375
1689.69527	8502.5375
1692.95567	8422.8375
1696.2139	8367.0375
1699.46999	8324.2375
1702.72392	8273.0375
1705.97571	8284.2375
1709.22535	8266.6375
1712.47284	8236.0375
1715.71819	8214.6375
1718.96139	8205.1375
1722.20246	8188.3375
1725.44139	8139.7375
1728.67818	8110.6375
1731.91284	8069.8375
1735.14537	8022.5375
1738.37576	7995.7375
1741.60403	7948.3375
1744.83017	7931.9375
1748.05418	7931.9375
1751.27607	7918.1375
1754.49584	7915.0375
1757.71349	7916.0375
1760.92903	7896.0375
1764.14244	7897.7375
1767.35375	7884.4375
1770.56294	7820.1375
1773.77002	7802.9375
1776.97499	7765.4375
1780.17785	7747.4375
1783.37861	7720.6375
1786.57727	7702.0375
1789.77382	7675.1375
1792.96828	7663.4375
1796.16064	7611.4375
1799.3509	7588.6375
1802.53907	7581.8375
1805.72514	7562.5375
1808.90913	7542.1375
1812.09102	7509.9375
1815.27083	7495.2375
1818.44856	7466.0375
1821.6242	7464.9375
1824.79776	7444.9375
1827.96924	7436.6375
1831.13864	7408.3375
1834.30597	7399.6375
1837.47122	7412.5375
1840.6344	7385.8375
1843.7955	7351.4375
1846.95454	7360.2375
1850.11151	7338.5375
1853.26642	7330.1375
1856.41926	7331.4375
1859.57004	7319.1375
1862.71876	7319.3375
1865.86542	7317.7375
1869.01003	7286.3375
1872.15258	7266.4375
1875.29308	7268.5375
1878.43152	7249.0375
1881.56792	7266.2375
1884.70227	7244.6375
1887.83457	7230.6375
1890.96482	7231.9375
1894.09304	7218.0375
1897.21921	7174.9375
1900.34335	7181.1375
1903.46544	7176.8375
1906.58551	7163.8375
1909.70353	7171.0375
1912.81953	7136.6375
1915.93349	7128.0375
1919.04543	7093.7375
1922.15534	7091.1375
1925.26322	7066.6375
1928.36908	7062.3375
1931.47292	7015.3375
1934.57473	6994.2375
1937.67453	6990.4375
1940.77232	6986.1375
1943.86808	6976.5375
1946.96184	6941.5375
1950.05358	6911.3375
1953.14331	6883.9375
1956.23103	6876.9375
1959.31675	6852.0375
1962.40046	6837.3375
1965.48217	6798.7375
1968.56188	6796.9375
1971.63959	6747.4375
1974.7153	6724.6375
1977.78901	6725.4375
1980.86073	6686.2375
1983.93046	6672.2375
1986.99819	6657.1375
1990.06394	6636.4375
1993.1277	6613.2375
1996.18947	6597.2375
1999.24925	6582.1375
2002.30706	6558.4375
2005.36288	6524.1375
2008.41672	6501.1375
2011.46859	6485.1375
2014.51848	6453.5375
2017.56639	6439.9375
2020.61233	6432.0375
2023.6563	6420.2375
2026.6983	6374.0375
2029.73833	6344.9375
2032.7764	6330.2375
2035.8125	6327.0375
2038.84664	6288.8375
2041.87881	6296.2375
2044.90903	6264.1375
2047.93729	6277.3375
2050.96359	6233.2375
2053.98794	6234.3375
2057.01034	6230.4375
2060.03078	6225.3375
2063.04927	6219.4375
2066.06582	6202.7375
2069.08042	6214.3375
2072.09307	6215.3375
2075.10378	6171.2375
2078.11255	6182.3375
2081.11938	6200.4375
2084.12426	6167.0375
2087.12722	6179.3375
2090.12824	6178.7375
2093.12732	6170.5375
2096.12447	6163.1375
2099.11969	6155.6375
2102.11299	6150.6375
2105.10435	6152.8375
2108.09379	6127.6375
2111.08131	6153.2375
2114.0669	6163.4375
2117.05057	6149.4375
2120.03233	6160.9375
2123.01216	6153.2375
2125.99008	6165.4375
2128.96609	6167.2375
2131.94018	6171.8375
2134.91236	6169.7375
2137.88263	6162.5375
2140.851	6156.2375
2143.81746	6183.6375
2146.78201	6168.4375
2149.74466	6158.6375
2152.7054	6173.9375
2155.66425	6148.7375
2158.6212	6141.2375
2161.57625	6134.3375
2164.52941	6126.0375
2167.48067	6122.4375
2170.43004	6127.0375
2173.37752	6119.4375
2176.32311	6121.7375
2179.26681	6116.5375
2182.20863	6105.4375
2185.14856	6106.0375
2188.08661	6096.0375
2191.02278	6104.7375
2193.95707	6094.5375
2196.88948	6089.3375
2199.82001	6103.2375
2202.74867	6068.0375
2205.67545	6047.9375
2208.60037	6049.9375
2211.52341	6035.3375
2214.44458	6033.0375
2217.36388	6012.7375
2220.28132	5986.5375
2223.1969	5968.3375
2226.11061	5964.0375
2229.02246	5972.8375
2231.93245	5933.4375
2234.84058	5927.0375
2237.74686	5916.5375
2240.65128	5917.7375
2243.55385	5880.9375
2246.45456	5877.6375
2249.35343	5873.7375
2252.25044	5859.6375
2255.14561	5861.9375
2258.03893	5857.2375
2260.93041	5833.3375
2263.82004	5818.1375
2266.70783	5808.8375
2269.59378	5789.1375
2272.4779	5788.8375
2275.36017	5761.7375
2278.24061	5763.0375
2281.11922	5742.4375
2283.996	5719.1375
2286.87094	5705.2375
2289.74405	5712.9375
2292.61534	5679.9375
2295.4848	5662.5375
2298.35243	5676.6375
2301.21824	5656.8375
2304.08223	5639.7375
2306.94439	5643.2375
2309.80474	5641.6375
2312.66327	5618.1375
2315.51999	5617.0375
2318.37489	5601.6375
2321.22797	5605.9375
2324.07925	5579.6375
2326.92871	5589.3375
2329.77637	5580.2375
2332.62222	5551.2375
2335.46626	5544.5375
2338.3085	5545.7375
2341.14893	5522.8375
2343.98756	5514.7375
2346.8244	5491.4375
2349.65943	5489.6375
2352.49267	5486.5375
2355.32411	5496.8375
2358.15376	5487.7375
2360.98161	5468.3375
2363.80768	5487.0375
2366.63195	5488.4375
2369.45444	5470.9375
2372.27514	5461.3375
2375.09405	5472.6375
2377.91118	5443.9375
2380.72652	5447.6375
2383.54009	5427.6375
2386.35187	5398.4375
2389.16188	5389.6375
2391.97011	5386.0375
2394.77657	5365.5375
2397.58125	5352.9375
2400.38416	5343.7375
2403.18529	5326.6375
2405.98466	5304.3375
2408.78226	5321.3375
2411.57809	5300.1375
2414.37216	5291.1375
2417.16446	5286.7375
2419.955	5282.5375
2422.74378	5285.5375
2425.5308	5263.6375
2428.31606	5261.0375
2431.09956	5247.0375
2433.88131	5248.9375
2436.6613	5242.2375
2439.43954	5237.3375
2442.21603	5225.9375
2444.99077	5218.1375
2447.76377	5211.2375
2450.53501	5204.6375
2453.30451	5210.6375
2456.07226	5190.5375
2458.83827	5180.7375
2461.60254	5191.6375
2464.36507	5177.2375
2467.12586	5164.2375
2469.88492	5145.6375
2472.64224	5143.4375
2475.39782	5151.9375
2478.15167	5153.9375
2480.90379	5150.9375
2483.65417	5142.7375
2486.40283	5125.9375
2489.14976	5144.0375
2491.89497	5130.5375
2494.63845	5140.3375
2497.3802	5116.0375
2500.12024	5117.7375
2502.85855	5107.2375
2505.59514	5094.7375
2508.33002	5100.1375
2511.06318	5082.4375
2513.79462	5076.4375
2516.52435	5074.9375
2519.25237	5049.2375
2521.97867	5050.7375
2524.70327	5045.0375
2527.42616	5013.7375
2530.14734	5019.0375
2532.86681	5025.9375
2535.58458	4996.2375
2538.30065	5005.5375
2541.01501	4987.7375
2543.72768	4973.9375
2546.43864	4962.0375
2549.14791	4960.2375
2551.85548	4953.4375
2554.56136	4916.6375
2557.26554	4925.1375
2559.96803	4917.6375
2562.66883	4900.6375
2565.36794	4911.5375
2568.06536	4903.2375
2570.7611	4883.7375
2573.45514	4861.5375
2576.14751	4863.6375
2578.83819	4854.2375
2581.52719	4837.6375
2584.21451	4825.9375
2586.90015	4829.4375
2589.58411	4819.2375
2592.2664	4809.3375
2594.94701	4790.0375
2597.62594	4781.3375
2600.30321	4776.5375
2602.9788	4761.9375
2605.65273	4739.9375
2608.32498	4752.8375
2610.99557	4744.0375
2613.66449	4741.8375
2616.33175	4749.0375
2618.99734	4729.4375
2621.66128	4724.5375
2624.32355	4713.6375
2626.98416	4704.3375
2629.64311	4705.6375
2632.30041	4683.6375
2634.95605	4679.1375
2637.61004	4650.3375
2640.26238	4659.6375
2642.91306	4662.8375
2645.56209	4661.9375
2648.20948	4660.8375
2650.85521	4655.4375
2653.4993	4640.2375
2656.14175	4627.9375
2658.78255	4627.5375
2661.42171	4650.6375
2664.05923	4646.3375
2666.6951	4631.3375
2669.32934	4641.0375
2671.96194	4634.8375
2674.59291	4622.2375
2677.22224	4615.7375
2679.84993	4615.6375
2682.476	4623.2375
2685.10043	4619.7375
2687.72324	4617.1375
2690.34441	4612.5375
2692.96396	4601.8375
2695.58188	4604.6375
2698.19818	4622.1375
2700.81285	4609.8375
2703.4259	4600.3375
2706.03733	4591.8375
2708.64714	4590.9375
2711.25533	4593.6375
2713.86191	4595.2375
2716.46687	4598.4375
2719.07021	4605.0375
2721.67194	4609.9375
2724.27206	4595.8375
2726.87057	4604.1375
2729.46747	4602.6375
2732.06276	4587.3375
2734.65644	4594.8375
2737.24852	4576.6375
2739.83899	4587.1375
2742.42786	4570.0375
2745.01513	4573.6375
2747.60079	4556.2375
2750.18486	4551.5375
2752.76733	4547.3375
2755.3482	4525.6375
2757.92747	4518.5375
2760.50515	4514.1375
2763.08123	4496.3375
2765.65573	4503.4375
2768.22863	4488.2375
2770.79994	4489.8375
2773.36967	4480.9375
2775.9378	4470.8375
2778.50435	4493.7375
2781.06932	4470.8375
2783.6327	4466.7375
2786.1945	4458.8375
2788.75471	4450.3375
2791.31335	4443.7375
2793.87041	4432.2375
2796.42589	4407.1375
2798.97979	4411.9375
2801.53212	4380.7375
2804.08288	4404.9375
2806.63206	4383.0375
2809.17967	4376.0375
2811.72571	4362.3375
2814.27018	4374.7375
2816.81308	4343.6375
2819.35442	4336.3375
2821.89419	4332.2375
2824.43239	4333.8375
2826.96904	4342.2375
2829.50412	4329.8375
2832.03763	4324.8375
2834.56959	4333.3375
2837.1	4318.2375
2839.62884	4326.1375
2842.15613	4343.9375
2844.68186	4346.8375
2847.20604	4361.7375
2849.72867	4386.2375
2852.24974	4370.6375
2854.76927	4367.7375
2857.28724	4343.2375
2859.80367	4341.0375
2862.31855	4358.6375
2864.83189	4340.5375
2867.34368	4317.6375
2869.85393	4319.7375
2872.36264	4328.7375
2874.8698	4311.8375
2877.37543	4317.9375
2879.87952	4309.2375
2882.38207	4309.0375
2884.88308	4304.2375
2887.38256	4303.1375
2889.88051	4302.9375
2892.37692	4290.4375
2894.8718	4308.9375
2897.36515	4283.5375
2899.85698	4306.1375
2902.34727	4306.5375
2904.83604	4307.7375
2907.32328	4318.9375
2909.809	4326.0375
2912.29319	4327.9375
2914.77587	4331.1375
2917.25702	4329.6375
2919.73665	4323.6375
2922.21476	4341.2375
2924.69136	4353.8375
2927.16644	4341.8375
2929.64	4330.1375
2932.11205	4328.7375
2934.58258	4320.5375
2937.05161	4323.7375
2939.51912	4346.9375
2941.98513	4339.9375
2944.44962	4295.6375
2946.91261	4271.6375
2949.37409	4287.3375
2951.83407	4260.0375
2954.29254	4272.4375
2956.74951	4263.0375
2959.20498	4249.1375
2961.65895	4235.8375
2964.11142	4225.0375
2966.56239	4213.0375
2969.01186	4193.9375
2971.45984	4200.3375
2973.90632	4191.0375
2976.35131	4159.0375
2978.7948	4165.5375
2981.23681	4144.3375
2983.67732	4130.6375
2986.11635	4117.7375
2988.55388	4119.8375
2990.98993	4098.4375
2993.4245	4070.1375
2995.85758	4092.9375
2998.28917	4070.2375
3000.71928	4047.4375
3003.14791	4060.2375
3005.57506	4047.8375
3008.00073	4037.0375
3010.42493	4022.4375
3012.84764	4027.5375
3015.26888	4029.8375
3017.68865	4005.7375
3020.10694	4006.0375
3022.52376	3991.3375
3024.9391	3975.3375
3027.35298	3983.3375
3029.76539	3971.8375
3032.17632	3969.0375
3034.5858	3955.9375
3036.9938	3954.4375
3039.40034	3947.7375
3041.80542	3946.7375
3044.20903	3929.9375
3046.61118	3933.1375
3049.01187	3932.9375
3051.4111	3924.6375
3053.80888	3925.0375
3056.20519	3925.8375
3058.60005	3905.4375
3060.99345	3902.8375
3063.3854	3897.8375
3065.7759	3884.8375
3068.16494	3882.3375
3070.55254	3883.0375
3072.93868	3870.6375
3075.32338	3860.0375
3077.70662	3836.0375
3080.08842	3836.9375
3082.46878	3826.0375
3084.84769	3833.7375
3087.22515	3827.3375
3089.60118	3834.5375
3091.97576	3825.9375
3094.3489	3835.2375
3096.72061	3825.5375
3099.09087	3829.0375
3101.4597	3834.5375
3103.82709	3840.6375
3106.19305	3835.8375
3108.55757	3838.3375
3110.92066	3816.8375
3113.28232	3821.4375
3115.64255	3822.4375
3118.00134	3812.6375
3120.35871	3816.6375
3122.71466	3801.3375
3125.06917	3807.5375
3127.42226	3796.1375
3129.77393	3786.5375
3132.12417	3801.3375
3134.47299	3807.2375
3136.82039	3808.3375
3139.16636	3803.4375
3141.51092	3806.2375
3143.85406	3795.1375
3146.19579	3808.6375
3148.53609	3819.3375
3150.87499	3812.7375
3153.21246	3826.2375
3155.54853	3834.6375
3157.88318	3825.2375
3160.21642	3839.3375
3162.54826	3835.5375
3164.87868	3848.7375
3167.2077	3846.8375
3169.5353	3838.5375
3171.86151	3846.1375
3174.18631	3842.3375
3176.5097	3833.5375
3178.83169	3839.0375
3181.15228	3829.4375
3183.47147	3816.0375
3185.78926	3829.6375
3188.10565	3834.3375
3190.42065	3809.9375
3192.73424	3828.0375
3195.04645	3820.2375
3197.35725	3841.2375
3199.66667	3829.0375
3201.97469	3847.8375
3204.28132	3832.9375
3206.58656	3846.0375
3208.8904	3856.4375
3211.19287	3840.5375
3213.49394	3841.5375
3215.79363	3836.3375
3218.09193	3844.5375
3220.38884	3855.3375
3222.68438	3855.3375
3224.97853	3859.9375
3227.2713	3845.2375
3229.56269	3841.8375
3231.8527	3858.7375
3234.14133	3845.9375
3236.42858	3821.0375
3238.71446	3816.0375
3240.99896	3813.4375
3243.28209	3819.9375
3245.56384	3798.6375
3247.84423	3798.7375
3250.12324	3789.2375
3252.40088	3796.6375
3254.67715	3784.5375
3256.95205	3793.1375
3259.22558	3777.3375
3261.49775	3783.5375
3263.76855	3764.9375
3266.03799	3764.2375
3268.30606	3755.1375
3270.57277	3753.2375
3272.83812	3755.0375
3275.10211	3754.4375
3277.36474	3737.4375
3279.62601	3737.1375
3281.88593	3735.6375
3284.14448	3723.0375
3286.40168	3740.7375
3288.65753	3712.2375
3290.91202	3726.4375
3293.16516	3712.1375
3295.41695	3699.4375
3297.66738	3694.5375
3299.91647	3675.5375
3302.16421	3660.7375
3304.4106	3632.3375
3306.65564	3613.4375
3308.89933	3600.2375
3311.14169	3574.5375
3313.38269	3547.6375
3315.62236	3515.2375
3317.86068	3493.6375
3320.09766	3472.9375
3322.3333	3444.3375
3324.5676	3434.7375
3326.80056	3376.7375
3329.03219	3367.6375
3331.26248	1.8375
3333.49143	-0.5625
3335.71905	-1.4625
