Data from AgNPs_FTO_APTES_UA_50uM_CRN_20uM_R6G_10uM_NaF_0.1M_Addition_RamanShift__17__14-14-04-933.txt Node

Date: Mon Feb 21 14:14:04 GMT 2022
User: TCL
Spectrometer: QEP01345
Trigger mode: 4
Integration Time (sec): 7.000000E0
Scans to average: 10
Electric dark correction enabled: true
Nonlinearity correction enabled: false
Boxcar width: 0
XAxis mode: Raman Shifts
Number of Pixels in Spectrum: 1044
>>>>>Begin Spectral Data<<<<<
46.04893	0.4
50.45542	-0.4
54.85868	-1.1
59.25871	-1.4
63.6555	49.6
68.04907	62.8
72.43941	57.1
76.82654	64.5
81.21044	69.3
85.59113	68.3
89.96862	76.2
94.34289	97
98.71396	83.2
103.08183	82.1
107.4465	81.1
111.80798	81.7
116.16626	80.9
120.52136	84.2
124.87327	93.7
129.222	88.9
133.56755	94.2
137.90993	103
142.24913	111.3
146.58517	119.5
150.91804	139.9
155.24774	162.6
159.57429	196.8
163.89768	248.9
168.21792	330.4
172.53501	440.6
176.84895	617.9
181.15975	858.1
185.46741	1202.7
189.77193	1660.4
194.07331	2210.3
198.37157	2861.3
202.6667	3525.1
206.9587	4202.8
211.24758	4863.9
215.53334	5558.1
219.81599	6283.3
224.09553	7147.3
228.37195	8075.5
232.64527	9092.6
236.91549	10124.6
241.18261	11102.2
245.44663	11970.5
249.70755	12641.8
253.96539	13240.4
258.22014	13702.5
262.4718	14100.9
266.72039	14366.2
270.96589	14471.6
275.20832	14461.5
279.44768	14207.6
283.68397	13982.7
287.91719	13859
292.14735	13797.6
296.37445	13907.1
300.59849	14203.6
304.81948	14515.7
309.03742	14711.4
313.25231	14624.3
317.46415	14174.9
321.67296	13483.1
325.87872	12903.4
330.08145	12574.5
334.28114	12562.5
338.47781	12661.2
342.67145	12907.6
346.86207	13248.4
351.04966	13720.4
355.23424	14237.5
359.4158	14697.2
363.59435	14924.3
367.76989	15062.7
371.94243	15060.3
376.11196	15054.2
380.27849	15074.4
384.44203	15052.7
388.60257	15059.1
392.76012	15066.4
396.91468	15190.4
401.06626	15459.2
405.21485	15601.7
409.36047	15400.4
413.50311	14887.6
417.64277	14405.8
421.77947	14141.6
425.9132	14074.7
430.04396	14070.7
434.17176	14094.6
438.2966	14251.6
442.41849	14572.2
446.53742	15015
450.6534	15463.5
454.76644	15782
458.87653	15811.4
462.98368	15737.3
467.08789	15493.7
471.18916	15220.6
475.2875	14954.7
479.38291	14732.3
483.4754	14572.6
487.56496	14371.1
491.6516	14198.4
495.73531	14112.5
499.81612	14076.8
503.89401	14235.4
507.96899	14309.6
512.04106	14380.9
516.11023	14387
520.1765	14397.1
524.23987	14338.3
528.30034	14233.1
532.35792	14145.4
536.41261	14012.3
540.46441	13754.3
544.51333	13610.5
548.55936	13649.8
552.60252	13924.1
556.64279	14268.4
560.6802	14471.2
564.71473	14607.6
568.7464	14952.1
572.7752	15354.4
576.80114	15442.3
580.82422	15426.6
584.84444	15556.4
588.86181	15851.9
592.87633	16189.1
596.888	16349.9
600.89682	16344.4
604.9028	17240.3
608.90594	20278.4
612.90624	23829.1
616.90371	22231.8
620.89834	16847.8
624.89015	14425
628.87913	14106.5
632.86528	14233.2
636.84862	14338.2
640.82913	14126.3
644.80683	13554.3
648.78172	13098.6
652.75379	13030.9
656.72306	13348.2
660.68952	13810.5
664.65319	13690.7
668.61405	13229.1
672.57211	13155.2
676.52738	13230.3
680.47986	13274.6
684.42955	13151.3
688.37646	12995.8
692.32058	12971.9
696.26192	13047.5
700.20048	13174.8
704.13626	13241.8
708.06928	13161.5
711.99952	13042
715.927	13001.4
719.85171	13073.4
723.77365	13070.3
727.69284	12960.6
731.60928	12833.9
735.52295	12821.2
739.43388	12872.4
743.34206	12935.3
747.24749	12969.4
751.15017	13023.8
755.05012	13186.1
758.94733	13723.9
762.8418	14890.5
766.73354	16895.5
770.62254	19042.3
774.50882	19865.5
778.39237	18944.5
782.27321	16825
786.15132	14899
790.02671	13694.5
793.89938	13076.3
797.76935	12847.4
801.6366	12727.2
805.50115	12684
809.36299	12540.2
813.22213	12421.1
817.07857	12309
820.93231	12248.7
824.78336	12226.5
828.63172	12207.3
832.47738	12183.8
836.32036	12180.2
840.16066	12211.6
843.99827	12231.8
847.8332	12166.2
851.66546	12129.2
855.49504	12107.1
859.32195	12149.6
863.1462	12140.9
866.96777	12119.3
870.78668	12098.1
874.60293	12106.2
878.41652	12134.7
882.22745	12193.9
886.03573	12273.2
889.84136	12251.9
893.64433	12201
897.44466	12167.7
901.24235	12089.5
905.0374	11989.5
908.8298	11856.8
912.61957	11795.2
916.40671	11856.8
920.19121	12008.2
923.97308	12206
927.75233	12346.9
931.52895	12369.7
935.30295	12247.9
939.07433	11933.2
942.84309	11629.3
946.60924	11497.6
950.37278	11431.2
954.13371	11390.2
957.89203	11313.8
961.64774	11263.5
965.40086	11238.4
969.15137	11179
972.89929	11142.2
976.64461	11108.7
980.38733	11094.7
984.12747	11142.2
987.86502	11225.2
991.59999	11349.4
995.33237	11614.5
999.06217	11999.9
1002.78939	12449.5
1006.51404	12745.1
1010.23611	12960
1013.95561	13102.9
1017.67255	13129.7
1021.38692	12971.8
1025.09872	12731.2
1028.80796	12703.2
1032.51465	12953.1
1036.21877	13244.5
1039.92035	13322.9
1043.61937	13178.7
1047.31584	12962.1
1051.00976	12685.7
1054.70114	12550.3
1058.38998	12524.8
1062.07627	12541.3
1065.76003	12565.4
1069.44126	12663.9
1073.11995	12878
1076.79611	13074
1080.46974	13268.4
1084.14085	13523.4
1087.80943	13793.6
1091.47549	13931.6
1095.13903	13876
1098.80005	13529.1
1102.45857	13183.6
1106.11456	12946.7
1109.76805	12940.2
1113.41903	13129.3
1117.06751	13402.2
1120.71348	13799.1
1124.35696	14223.9
1127.99793	14635.2
1131.63641	14749.3
1135.2724	14441.1
1138.90589	14056.7
1142.5369	13781.1
1146.16542	13592.1
1149.79145	13489
1153.415	13461.6
1157.03607	13626.3
1160.65467	14010.4
1164.27079	14670.2
1167.88443	15635.2
1171.49561	16940.7
1175.10432	18843.6
1178.71056	21261.7
1182.31434	23411.6
1185.91565	24384.2
1189.51451	23966.2
1193.11091	22802.1
1196.70485	21244.3
1200.29634	19849.6
1203.88538	18722.9
1207.47197	17650.8
1211.05612	16764.5
1214.63782	16218.5
1218.21708	16071.7
1221.79391	16141.2
1225.36829	16298.3
1228.94024	16208.7
1232.50976	15847.9
1236.07685	15503.5
1239.6415	15313.6
1243.20374	15197.8
1246.76355	15310.3
1250.32093	15493.3
1253.8759	15882.7
1257.42845	16436.5
1260.97859	17048.7
1264.52631	17750.8
1268.07163	18502
1271.61453	19241.1
1275.15503	19902.6
1278.69312	20487.3
1282.22882	20959.4
1285.76211	21540.2
1289.29301	22233.2
1292.82151	23009.7
1296.34761	24131.6
1299.87133	25639.2
1303.39266	27658.9
1306.9116	30291.5
1310.42815	32999.8
1313.94233	34534.2
1317.45412	34006.9
1320.96354	32268.1
1324.47058	30353.1
1327.97525	28703.1
1331.47754	27561.4
1334.97747	26902.6
1338.47502	26659.2
1341.97022	26774
1345.46305	27135.6
1348.95352	27810.2
1352.44163	28882.8
1355.92738	30793.2
1359.41078	33654
1362.89183	36362.8
1366.37053	35513.5
1369.84688	30937.8
1373.32088	26143.2
1376.79254	23013.1
1380.26186	21447.7
1383.72883	20740.1
1387.19347	20241.6
1390.65578	19759.5
1394.11575	19547.6
1397.57339	19589.1
1401.0287	19845.4
1404.48168	20041.9
1407.93234	20072.2
1411.38068	19844.3
1414.82669	19422.1
1418.27039	18838.3
1421.71177	18289.2
1425.15083	17775.3
1428.58758	17475.6
1432.02203	17664.6
1435.45416	18020.3
1438.88399	18437.1
1442.31151	18694.6
1445.73673	18928.4
1449.15965	19169.6
1452.58027	19329.6
1455.9986	19458.6
1459.41463	19627.3
1462.82837	19966
1466.23982	20470.1
1469.64898	20826.3
1473.05586	21021
1476.46045	21051.7
1479.86276	21025.7
1483.26279	20945.7
1486.66054	21088.7
1490.05602	21420.1
1493.44922	22011.3
1496.84016	22949.9
1500.22882	24475
1503.61521	26693.4
1506.99934	29277.4
1510.38121	31270.5
1513.76081	31632.6
1517.13816	29733.3
1520.51324	26793
1523.88607	24133.5
1527.25665	22436.5
1530.62498	21516.6
1533.99105	20948.2
1537.35488	20528.9
1540.71647	20128.1
1544.07581	19746
1547.4329	19376.9
1550.78776	19131.9
1554.14038	19022.5
1557.49077	19074
1560.83892	19305.2
1564.18484	19594.4
1567.52853	19982.6
1570.86999	20437.7
1574.20922	20771.4
1577.54624	20718.8
1580.88103	20152.6
1584.2136	19391.2
1587.54395	19258.8
1590.87208	19923.1
1594.19801	21297.1
1597.52172	22903.7
1600.84321	23497
1604.16251	22504.6
1607.47959	20684.9
1610.79447	18831.9
1614.10715	17079.4
1617.41763	15679.8
1620.7259	14715.2
1624.03199	14251.5
1627.33587	14273.1
1630.63757	14779.8
1633.93707	15842.8
1637.23439	17586.6
1640.52951	20130.4
1643.82246	23250.2
1647.11321	26056
1650.40179	27161.6
1653.68819	25446.4
1656.97241	21589.2
1660.25446	17713.7
1663.53433	14911.5
1666.81203	13234.8
1670.08756	12238.9
1673.36092	11696.8
1676.63211	11286.6
1679.90115	11022.3
1683.16801	10809.7
1686.43272	10671.5
1689.69527	10530.1
1692.95567	10383.7
1696.2139	10225.1
1699.46999	10102.1
1702.72392	10022.6
1705.97571	10063.9
1709.22535	10105.8
1712.47284	10140.2
1715.71819	10145.3
1718.96139	10122.8
1722.20246	10072.3
1725.44139	10022.2
1728.67818	9940
1731.91284	9888.9
1735.14537	9818.8
1738.37576	9755.7
1741.60403	9697.1
1744.83017	9652.3
1748.05418	9614.9
1751.27607	9603.4
1754.49584	9516
1757.71349	9460.7
1760.92903	9402.4
1764.14244	9388.5
1767.35375	9353.6
1770.56294	9308.7
1773.77002	9287.4
1776.97499	9310.3
1780.17785	9321.7
1783.37861	9325.4
1786.57727	9350.6
1789.77382	9317.5
1792.96828	9292.3
1796.16064	9281.5
1799.3509	9276.8
1802.53907	9243.1
1805.72514	9224.1
1808.90913	9187
1812.09102	9165.8
1815.27083	9152.7
1818.44856	9151
1821.6242	9120.4
1824.79776	9110.5
1827.96924	9104.6
1831.13864	9082
1834.30597	9067.1
1837.47122	9097.3
1840.6344	9071.9
1843.7955	9072.8
1846.95454	9075.2
1850.11151	9083.5
1853.26642	9044.7
1856.41926	9065.9
1859.57004	9003.3
1862.71876	9028.1
1865.86542	9020.7
1869.01003	9022.9
1872.15258	9019.9
1875.29308	9023.8
1878.43152	9019
1881.56792	9009.7
1884.70227	8995.5
1887.83457	8970.9
1890.96482	8990
1894.09304	8972.6
1897.21921	8952.6
1900.34335	8950.8
1903.46544	8923.6
1906.58551	8924.7
1909.70353	8901.7
1912.81953	8907.3
1915.93349	8859.8
1919.04543	8857.5
1922.15534	8831.5
1925.26322	8801.2
1928.36908	8762.2
1931.47292	8716.3
1934.57473	8693.5
1937.67453	8684.1
1940.77232	8643.3
1943.86808	8622.8
1946.96184	8598.7
1950.05358	8568
1953.14331	8554
1956.23103	8504.7
1959.31675	8508.6
1962.40046	8483
1965.48217	8461.4
1968.56188	8451.4
1971.63959	8420.5
1974.7153	8400.4
1977.78901	8375.8
1980.86073	8329
1983.93046	8326.4
1986.99819	8281.3
1990.06394	8262.4
1993.1277	8232.9
1996.18947	8203.9
1999.24925	8174.6
2002.30706	8150
2005.36288	8097.3
2008.41672	8081.7
2011.46859	8065.2
2014.51848	8030.5
2017.56639	8026.8
2020.61233	8001.3
2023.6563	7991.5
2026.6983	7965.6
2029.73833	7928.5
2032.7764	7923.3
2035.8125	7904.6
2038.84664	7906.7
2041.87881	7913.4
2044.90903	7869.1
2047.93729	7874.5
2050.96359	7867.6
2053.98794	7870.6
2057.01034	7851.8
2060.03078	7844.7
2063.04927	7838.9
2066.06582	7821.9
2069.08042	7810
2072.09307	7787.1
2075.10378	7778.1
2078.11255	7777.3
2081.11938	7790.9
2084.12426	7781.5
2087.12722	7763.7
2090.12824	7766.4
2093.12732	7764.6
2096.12447	7757.8
2099.11969	7771.8
2102.11299	7779.5
2105.10435	7764.7
2108.09379	7777.6
2111.08131	7787.4
2114.0669	7769.3
2117.05057	7803
2120.03233	7788.7
2123.01216	7821.7
2125.99008	7805.5
2128.96609	7817
2131.94018	7819.4
2134.91236	7825.9
2137.88263	7803.8
2140.851	7809.4
2143.81746	7831.8
2146.78201	7824.1
2149.74466	7817.7
2152.7054	7820.1
2155.66425	7822.1
2158.6212	7802.9
2161.57625	7768
2164.52941	7795.5
2167.48067	7774
2170.43004	7787.8
2173.37752	7790.4
2176.32311	7771.9
2179.26681	7798.8
2182.20863	7776.2
2185.14856	7800.2
2188.08661	7799.2
2191.02278	7798.7
2193.95707	7769.2
2196.88948	7770.3
2199.82001	7766.6
2202.74867	7772.6
2205.67545	7747.8
2208.60037	7752.9
2211.52341	7769.6
2214.44458	7739.1
2217.36388	7736.4
2220.28132	7731.4
2223.1969	7718.4
2226.11061	7691.3
2229.02246	7672.2
2231.93245	7655.6
2234.84058	7652.4
2237.74686	7643.7
2240.65128	7622.9
2243.55385	7618
2246.45456	7617.6
2249.35343	7589.6
2252.25044	7573.2
2255.14561	7577.3
2258.03893	7578.4
2260.93041	7546.2
2263.82004	7556
2266.70783	7543.8
2269.59378	7503.1
2272.4779	7477.9
2275.36017	7470.2
2278.24061	7457.5
2281.11922	7426.9
2283.996	7423
2286.87094	7417.8
2289.74405	7415.4
2292.61534	7391.1
2295.4848	7386.1
2298.35243	7411.9
2301.21824	7366.6
2304.08223	7399.4
2306.94439	7386.8
2309.80474	7406.9
2312.66327	7415
2315.51999	7407.1
2318.37489	7402
2321.22797	7377.2
2324.07925	7379.2
2326.92871	7374.8
2329.77637	7366
2332.62222	7378.5
2335.46626	7354.6
2338.3085	7347.7
2341.14893	7359.1
2343.98756	7358.7
2346.8244	7374.2
2349.65943	7387.4
2352.49267	7397
2355.32411	7400.1
2358.15376	7392.9
2360.98161	7391.8
2363.80768	7386.3
2366.63195	7371.1
2369.45444	7360.6
2372.27514	7358.4
2375.09405	7333.7
2377.91118	7350.1
2380.72652	7329.6
2383.54009	7287
2386.35187	7271.5
2389.16188	7244.8
2391.97011	7212.7
2394.77657	7209
2397.58125	7187.2
2400.38416	7172.4
2403.18529	7185.6
2405.98466	7152.2
2408.78226	7138.5
2411.57809	7115.7
2414.37216	7116.1
2417.16446	7107.5
2419.955	7101.7
2422.74378	7118.7
2425.5308	7095.1
2428.31606	7097.8
2431.09956	7087.8
2433.88131	7090.3
2436.6613	7078.6
2439.43954	7102.7
2442.21603	7069
2444.99077	7101.3
2447.76377	7120.9
2450.53501	7114.7
2453.30451	7104.4
2456.07226	7090.6
2458.83827	7084.6
2461.60254	7094.1
2464.36507	7083.6
2467.12586	7121.5
2469.88492	7114.1
2472.64224	7107.9
2475.39782	7107.2
2478.15167	7103.4
2480.90379	7128.4
2483.65417	7140
2486.40283	7131.6
2489.14976	7176.7
2491.89497	7164.5
2494.63845	7161.2
2497.3802	7128.3
2500.12024	7149.5
2502.85855	7150
2505.59514	7136.7
2508.33002	7081.2
2511.06318	7103.5
2513.79462	7070.9
2516.52435	7059.1
2519.25237	7056
2521.97867	7037.5
2524.70327	7037.6
2527.42616	7028.1
2530.14734	7002.4
2532.86681	7009.6
2535.58458	7027.5
2538.30065	7027.5
2541.01501	7035.5
2543.72768	7020.3
2546.43864	7019.1
2549.14791	7014.6
2551.85548	7021.5
2554.56136	6981
2557.26554	6999.3
2559.96803	6984
2562.66883	6987.8
2565.36794	6983.3
2568.06536	6983.3
2570.7611	6956.7
2573.45514	6966.8
2576.14751	6955.1
2578.83819	6943.3
2581.52719	6955.5
2584.21451	6956.2
2586.90015	6947.9
2589.58411	6915
2592.2664	6926.8
2594.94701	6908.8
2597.62594	6926.9
2600.30321	6921.7
2602.9788	6932.7
2605.65273	6916.3
2608.32498	6917.9
2610.99557	6929.4
2613.66449	6927.1
2616.33175	6947.8
2618.99734	6922.2
2621.66128	6899.6
2624.32355	6944.6
2626.98416	6922.8
2629.64311	6927.4
2632.30041	6915.7
2634.95605	6912.4
2637.61004	6885.5
2640.26238	6877
2642.91306	6879.9
2645.56209	6876.8
2648.20948	6860.1
2650.85521	6851
2653.4993	6888
2656.14175	6864
2658.78255	6861.2
2661.42171	6868.3
2664.05923	6893.8
2666.6951	6907.6
2669.32934	6926.2
2671.96194	6917.5
2674.59291	6928.3
2677.22224	6898.5
2679.84993	6907.5
2682.476	6866.9
2685.10043	6880
2687.72324	6892.7
2690.34441	6875.7
2692.96396	6868.4
2695.58188	6859.8
2698.19818	6843.6
2700.81285	6846.6
2703.4259	6848.4
2706.03733	6764.6
2708.64714	6809.3
2711.25533	6849.2
2713.86191	6869
2716.46687	6856.6
2719.07021	6860.2
2721.67194	6884
2724.27206	6884
2726.87057	6887.6
2729.46747	6898.2
2732.06276	6902.6
2734.65644	6897
2737.24852	6876.6
2739.83899	6879.2
2742.42786	6872.4
2745.01513	6881.3
2747.60079	6871.8
2750.18486	6873.5
2752.76733	6873
2755.3482	6853.8
2757.92747	6855.9
2760.50515	6844.4
2763.08123	6850.4
2765.65573	6843.5
2768.22863	6836.6
2770.79994	6823.3
2773.36967	6820.7
2775.9378	6818.3
2778.50435	6814.9
2781.06932	6820.3
2783.6327	6848.6
2786.1945	6847.8
2788.75471	6821.1
2791.31335	6807.5
2793.87041	6809.1
2796.42589	6794.5
2798.97979	6795.7
2801.53212	6774.5
2804.08288	6773.7
2806.63206	6756.5
2809.17967	6741
2811.72571	6767.8
2814.27018	6748
2816.81308	6729.5
2819.35442	6758
2821.89419	6740
2824.43239	6730.1
2826.96904	6740.3
2829.50412	6741
2832.03763	6725.5
2834.56959	6724.8
2837.1	6718.2
2839.62884	6706.6
2842.15613	6711.3
2844.68186	6713.6
2847.20604	6714.8
2849.72867	6713
2852.24974	6728.4
2854.76927	6715.8
2857.28724	6699.6
2859.80367	6723.2
2862.31855	6717.3
2864.83189	6703.2
2867.34368	6713.8
2869.85393	6724.1
2872.36264	6723.9
2874.8698	6737.9
2877.37543	6732.8
2879.87952	6731
2882.38207	6735.2
2884.88308	6734.6
2887.38256	6732.4
2889.88051	6745.2
2892.37692	6749.4
2894.8718	6750.9
2897.36515	6765.2
2899.85698	6763.1
2902.34727	6789.1
2904.83604	6782.5
2907.32328	6814.7
2909.809	6810.1
2912.29319	6845.6
2914.77587	6833.6
2917.25702	6825.8
2919.73665	6816.9
2922.21476	6828.8
2924.69136	6809.6
2927.16644	6797
2929.64	6791.9
2932.11205	6778.5
2934.58258	6758.4
2937.05161	6777
2939.51912	6741.8
2941.98513	6748.5
2944.44962	6736
2946.91261	6724.6
2949.37409	6727.1
2951.83407	6727.9
2954.29254	6705.5
2956.74951	6715
2959.20498	6698.3
2961.65895	6673.7
2964.11142	6642.4
2966.56239	6629.7
2969.01186	6626.6
2971.45984	6606.4
2973.90632	6583.6
2976.35131	6567.8
2978.7948	6560.5
2981.23681	6560.7
2983.67732	6540.2
2986.11635	6516
2988.55388	6500.5
2990.98993	6489
2993.4245	6484.1
2995.85758	6447.8
2998.28917	6435.4
3000.71928	6450.9
3003.14791	6442.5
3005.57506	6407.6
3008.00073	6404.6
3010.42493	6411.9
3012.84764	6385.9
3015.26888	6399.9
3017.68865	6379
3020.10694	6384.8
3022.52376	6363.3
3024.9391	6348
3027.35298	6316.8
3029.76539	6342.9
3032.17632	6322.3
3034.5858	6309.7
3036.9938	6310.9
3039.40034	6292.7
3041.80542	6296.5
3044.20903	6299
3046.61118	6296.2
3049.01187	6268.4
3051.4111	6265.1
3053.80888	6266.5
3056.20519	6263.8
3058.60005	6226.8
3060.99345	6223.3
3063.3854	6201.3
3065.7759	6213.4
3068.16494	6183.6
3070.55254	6163.4
3072.93868	6143.1
3075.32338	6144.3
3077.70662	6124.3
3080.08842	6106.1
3082.46878	6098.9
3084.84769	6081.5
3087.22515	6092
3089.60118	6085.2
3091.97576	6111.4
3094.3489	6066
3096.72061	6084.8
3099.09087	6086.3
3101.4597	6061.8
3103.82709	6081.8
3106.19305	6068.8
3108.55757	6069.9
3110.92066	6048.9
3113.28232	6053.3
3115.64255	6040.5
3118.00134	6046.9
3120.35871	6048.4
3122.71466	6036.6
3125.06917	6035.9
3127.42226	6011.2
3129.77393	6031
3132.12417	6007.6
3134.47299	6012.6
3136.82039	5991.6
3139.16636	6017.7
3141.51092	6003.3
3143.85406	6024.3
3146.19579	6001.6
3148.53609	6024.8
3150.87499	6011.7
3153.21246	6029.3
3155.54853	6043.3
3157.88318	6043.2
3160.21642	6065.6
3162.54826	6038.9
3164.87868	6045.3
3167.2077	6061.5
3169.5353	6057.4
3171.86151	6083.8
3174.18631	6076.8
3176.5097	6055.3
3178.83169	6039.3
3181.15228	6046.2
3183.47147	6041.4
3185.78926	6056
3188.10565	6042.3
3190.42065	6056.3
3192.73424	6046.1
3195.04645	6046.6
3197.35725	6051.8
3199.66667	6053
3201.97469	6073.3
3204.28132	6039.8
3206.58656	6062.3
3208.8904	6054.4
3211.19287	6052.5
3213.49394	6057.9
3215.79363	6081.7
3218.09193	6109.4
3220.38884	6079.9
3222.68438	6056.3
3224.97853	6069.9
3227.2713	6077.9
3229.56269	6091.9
3231.8527	6080.5
3234.14133	6063.5
3236.42858	6055.5
3238.71446	6051.5
3240.99896	6046.2
3243.28209	6031.2
3245.56384	6013.3
3247.84423	6036.3
3250.12324	6022
3252.40088	6027.7
3254.67715	6040.5
3256.95205	6017.9
3259.22558	6017.1
3261.49775	5998.5
3263.76855	5987.5
3266.03799	6004.8
3268.30606	5990.8
3270.57277	6018.1
3272.83812	6010.1
3275.10211	5963.3
3277.36474	5957.2
3279.62601	5968.2
3281.88593	5960.3
3284.14448	5975.3
3286.40168	5972.1
3288.65753	5979.6
3290.91202	5987
3293.16516	5974.6
3295.41695	5971.6
3297.66738	5926
3299.91647	5905.5
3302.16421	5877.4
3304.4106	5857.1
3306.65564	5796.9
3308.89933	5782.7
3311.14169	5719.4
3313.38269	5655.6
3315.62236	5648.1
3317.86068	5600.5
3320.09766	5552.2
3322.3333	5519.1
3324.5676	5497.7
3326.80056	5379.7
3329.03219	5363.7
3331.26248	2.2
3333.49143	-0.5
3335.71905	0.3
