Data from AgNPs_FTO_APTES_UA_50uM_CRN_200uM_R6G_10uM_NaF_0.1M_Addition_RamanShift__29__16-28-15-101.txt Node

Date: Mon Feb 21 16:28:15 GMT 2022
User: TCL
Spectrometer: QEP01345
Trigger mode: 4
Integration Time (sec): 7.000000E0
Scans to average: 10
Electric dark correction enabled: true
Nonlinearity correction enabled: false
Boxcar width: 0
XAxis mode: Raman Shifts
Number of Pixels in Spectrum: 1044
>>>>>Begin Spectral Data<<<<<
46.04893	0.5
50.45542	0.1
54.85868	-1.9
59.25871	-0.8
63.6555	44.2
68.04907	50
72.43941	53.1
76.82654	56.5
81.21044	57.9
85.59113	57.8
89.96862	61.2
94.34289	65.9
98.71396	69.2
103.08183	73.8
107.4465	72.8
111.80798	69.8
116.16626	69.8
120.52136	75.5
124.87327	78.8
129.222	77.3
133.56755	79.4
137.90993	86.3
142.24913	88.7
146.58517	100.4
150.91804	110.5
155.24774	129.7
159.57429	158
163.89768	192.9
168.21792	254.5
172.53501	338.4
176.84895	479.5
181.15975	662
185.46741	924.5
189.77193	1276.8
194.07331	1707.7
198.37157	2200.3
202.6667	2706
206.9587	3250.2
211.24758	3787.4
215.53334	4360.5
219.81599	4985.2
224.09553	5718.4
228.37195	6561.9
232.64527	7446.8
236.91549	8327.4
241.18261	9143.3
245.44663	9797.1
249.70755	10305.2
253.96539	10685.5
258.22014	10965.5
262.4718	11186
266.72039	11298.8
270.96589	11274.8
275.20832	11118
279.44768	10860.1
283.68397	10599.4
287.91719	10410.3
292.14735	10542.3
296.37445	10910.3
300.59849	11594.6
304.81948	12426
309.03742	13033.7
313.25231	13073
317.46415	12297.2
321.67296	11080.8
325.87872	10080.3
330.08145	9610
334.28114	9610.9
338.47781	9874.7
342.67145	10264.3
346.86207	10892.8
351.04966	11813.8
355.23424	12865.3
359.4158	13616.6
363.59435	13919.7
367.76989	13970.2
371.94243	13884.7
376.11196	13670
380.27849	13510.2
384.44203	13277.6
388.60257	12929.8
392.76012	12704.9
396.91468	12784.4
401.06626	13135.2
405.21485	13426.6
409.36047	13041.3
413.50311	12071.1
417.64277	11126.1
421.77947	10566.9
425.9132	10304.1
430.04396	10224.4
434.17176	10305.9
438.2966	10490.8
442.41849	10810
446.53742	11192.4
450.6534	11522.3
454.76644	11695.1
458.87653	11692.1
462.98368	11519.1
467.08789	11270
471.18916	10990.3
475.2875	10613.5
479.38291	10363
483.4754	10162.6
487.56496	10045.8
491.6516	9968.4
495.73531	9942.4
499.81612	9995.9
503.89401	10167.7
507.96899	10385.2
512.04106	10685.7
516.11023	11026.1
520.1765	11231.4
524.23987	11228.4
528.30034	10987.6
532.35792	10684.2
536.41261	10365
540.46441	10046.3
544.51333	9842.5
548.55936	9899.6
552.60252	10147.5
556.64279	10483.4
560.6802	10644.3
564.71473	10934.5
568.7464	11618.8
572.7752	11907.5
576.80114	11256.3
580.82422	10538
584.84444	10227.3
588.86181	10193.5
592.87633	10304.8
596.888	10504.9
600.89682	11048.4
604.9028	12869.9
608.90594	18022.4
612.90624	24898.7
616.90371	23837.4
620.89834	15385.2
624.89015	11478.3
628.87913	10765.9
632.86528	10914.6
636.84862	11141.3
640.82913	10934.5
644.80683	10257.9
648.78172	9844.8
652.75379	9818.3
656.72306	10432.9
660.68952	11137.5
664.65319	10941.7
668.61405	10116.6
672.57211	9753.4
676.52738	9756.3
680.47986	9758.4
684.42955	9660.7
688.37646	9589.9
692.32058	9608.7
696.26192	9683
700.20048	9813.1
704.13626	9921.8
708.06928	9857.4
711.99952	9746.4
715.927	9734.8
719.85171	9832.9
723.77365	9890
727.69284	9816
731.60928	9707.2
735.52295	9688
739.43388	9738.5
743.34206	9795.1
747.24749	9843.9
751.15017	9914.8
755.05012	10133.8
758.94733	10811.3
762.8418	12431.4
766.73354	15139.4
770.62254	17926.7
774.50882	19638.1
778.39237	18982.8
782.27321	15906.4
786.15132	12764
790.02671	10982.7
793.89938	10259.9
797.76935	9976.8
801.6366	9899.6
805.50115	9810.6
809.36299	9779.9
813.22213	9760.8
817.07857	9728.7
820.93231	9716.3
824.78336	9730.7
828.63172	9787.6
832.47738	9800.6
836.32036	9780.5
840.16066	9683.2
843.99827	9649.3
847.8332	9604.1
851.66546	9599.6
855.49504	9595.3
859.32195	9606.2
863.1462	9547
866.96777	9499.4
870.78668	9522.2
874.60293	9555.1
878.41652	9620.7
882.22745	9729.8
886.03573	9812.6
889.84136	9779.4
893.64433	9718.3
897.44466	9705.8
901.24235	9692.8
905.0374	9633.5
908.8298	9535.7
912.61957	9468.9
916.40671	9505.7
920.19121	9545.4
923.97308	9641
927.75233	9844.4
931.52895	10067
935.30295	9969.8
939.07433	9596.9
942.84309	9261.2
946.60924	9091.3
950.37278	9001
954.13371	8964.8
957.89203	8908.4
961.64774	8893
965.40086	8862.7
969.15137	8861.5
972.89929	8821.1
976.64461	8829.4
980.38733	8823.5
984.12747	8830.5
987.86502	8896
991.59999	8972.5
995.33237	9083.7
999.06217	9305.1
1002.78939	9558.5
1006.51404	9807.1
1010.23611	10041.7
1013.95561	10199.3
1017.67255	10177.7
1021.38692	10082.2
1025.09872	9912.3
1028.80796	9840.6
1032.51465	9924.7
1036.21877	10107.5
1039.92035	10180.2
1043.61937	10167
1047.31584	10090.9
1051.00976	9961.9
1054.70114	9901.2
1058.38998	9848.2
1062.07627	9879.9
1065.76003	9897.4
1069.44126	9928.4
1073.11995	10025
1076.79611	10198.1
1080.46974	10515.4
1084.14085	10959.4
1087.80943	11314.2
1091.47549	11418.7
1095.13903	11147.2
1098.80005	10627.6
1102.45857	10266.3
1106.11456	10221.6
1109.76805	10404.2
1113.41903	10790
1117.06751	11404.2
1120.71348	12210.4
1124.35696	13148.4
1127.99793	13691.1
1131.63641	13338.3
1135.2724	12335.2
1138.90589	11518.9
1142.5369	11022.3
1146.16542	10660.9
1149.79145	10470.8
1153.415	10384.6
1157.03607	10479
1160.65467	10700.5
1164.27079	11110.4
1167.88443	11787.7
1171.49561	12934.7
1175.10432	14838.6
1178.71056	17447.7
1182.31434	19359.2
1185.91565	19643
1189.51451	18726.2
1193.11091	17154.5
1196.70485	15563.8
1200.29634	14569.8
1203.88538	13804.5
1207.47197	12799.6
1211.05612	11935.9
1214.63782	11405.8
1218.21708	11213.5
1221.79391	11157.8
1225.36829	11180.6
1228.94024	11182.9
1232.50976	11164.4
1236.07685	11158.5
1239.6415	11234.4
1243.20374	11313.4
1246.76355	11419.2
1250.32093	11618.1
1253.8759	11879.4
1257.42845	12266.6
1260.97859	12698.5
1264.52631	13143.5
1268.07163	13566.4
1271.61453	13966
1275.15503	14243.8
1278.69312	14370.8
1282.22882	14521.2
1285.76211	14884
1289.29301	15427
1292.82151	15938.6
1296.34761	16555.9
1299.87133	17705.3
1303.39266	19800.9
1306.9116	22942.8
1310.42815	26239.8
1313.94233	27369.2
1317.45412	25564.3
1320.96354	22548.8
1324.47058	19732.2
1327.97525	17598.1
1331.47754	16512.5
1334.97747	16257.9
1338.47502	16675.3
1341.97022	17640.8
1345.46305	19094.6
1348.95352	20961.1
1352.44163	23271.2
1355.92738	26683.5
1359.41078	31828.1
1362.89183	35677.7
1366.37053	33209.8
1369.84688	26846.7
1373.32088	21379
1376.79254	17993.5
1380.26186	16116.2
1383.72883	15002.1
1387.19347	14246.9
1390.65578	13523.2
1394.11575	12984.2
1397.57339	12706.9
1401.0287	12677.4
1404.48168	12767.2
1407.93234	12948.2
1411.38068	13155.1
1414.82669	13338.7
1418.27039	13327.3
1421.71177	13183.7
1425.15083	12997.7
1428.58758	12939.2
1432.02203	13083.2
1435.45416	13205.4
1438.88399	13154.5
1442.31151	13108.2
1445.73673	13110.4
1449.15965	13179
1452.58027	13118.4
1455.9986	12953
1459.41463	12917.8
1462.82837	13062.8
1466.23982	13384.8
1469.64898	13694.4
1473.05586	13897.7
1476.46045	14040.9
1479.86276	14334.3
1483.26279	14775.6
1486.66054	15369.8
1490.05602	16155.7
1493.44922	17325
1496.84016	19147.8
1500.22882	22079.8
1503.61521	26068.3
1506.99934	30440
1510.38121	33973.8
1513.76081	34570.8
1517.13816	31232.8
1520.51324	25952.5
1523.88607	21227.3
1527.25665	18304.3
1530.62498	16677.5
1533.99105	15749.3
1537.35488	15162.2
1540.71647	14984.1
1544.07581	14956.2
1547.4329	15086.5
1550.78776	15239.7
1554.14038	15353.1
1557.49077	15530
1560.83892	15904
1564.18484	16518.8
1567.52853	17292.2
1570.86999	17909.9
1574.20922	18195.5
1577.54624	17856.7
1580.88103	16649.5
1584.2136	15051.4
1587.54395	14142.3
1590.87208	14160.4
1594.19801	14993
1597.52172	16215.5
1600.84321	16790.7
1604.16251	16262.3
1607.47959	15264.8
1610.79447	14116.3
1614.10715	13009.1
1617.41763	12139.8
1620.7259	11597.8
1624.03199	11383.8
1627.33587	11451.3
1630.63757	11749.2
1633.93707	12358.6
1637.23439	13363.4
1640.52951	14927.3
1643.82246	17227.7
1647.11321	20128.8
1650.40179	22068.3
1653.68819	21231.6
1656.97241	17909.8
1660.25446	14547.1
1663.53433	12259.3
1666.81203	11034.6
1670.08756	10335
1673.36092	9907.3
1676.63211	9678
1679.90115	9472.8
1683.16801	9331.9
1686.43272	9204.5
1689.69527	9108.5
1692.95567	8986.4
1696.2139	8874.5
1699.46999	8766.2
1702.72392	8732.9
1705.97571	8780.4
1709.22535	8871.8
1712.47284	8960.6
1715.71819	8974.7
1718.96139	9000.2
1722.20246	8979.8
1725.44139	8918.7
1728.67818	8857.6
1731.91284	8789.7
1735.14537	8716.7
1738.37576	8654.4
1741.60403	8627.9
1744.83017	8567.1
1748.05418	8538.7
1751.27607	8495.8
1754.49584	8463.3
1757.71349	8378.5
1760.92903	8324.8
1764.14244	8330.9
1767.35375	8290.1
1770.56294	8272.9
1773.77002	8238.4
1776.97499	8258.4
1780.17785	8283.9
1783.37861	8299.5
1786.57727	8289.8
1789.77382	8285.2
1792.96828	8309.1
1796.16064	8284.5
1799.3509	8277.7
1802.53907	8273
1805.72514	8261.8
1808.90913	8221.8
1812.09102	8206.1
1815.27083	8174.8
1818.44856	8149.6
1821.6242	8116
1824.79776	8131.9
1827.96924	8113.4
1831.13864	8097.2
1834.30597	8118.2
1837.47122	8085.2
1840.6344	8078.2
1843.7955	8062
1846.95454	8057
1850.11151	8068.4
1853.26642	8050.4
1856.41926	8040.6
1859.57004	8052.2
1862.71876	8049.6
1865.86542	8062.5
1869.01003	8074.7
1872.15258	8046.9
1875.29308	8067.9
1878.43152	8077.2
1881.56792	8055.4
1884.70227	8035.8
1887.83457	8024.6
1890.96482	8036.6
1894.09304	8039
1897.21921	8036.7
1900.34335	8039.3
1903.46544	8053.3
1906.58551	8049.3
1909.70353	8025
1912.81953	8025.8
1915.93349	8006.8
1919.04543	7999.6
1922.15534	8003
1925.26322	7987.1
1928.36908	7964.1
1931.47292	7927.2
1934.57473	7893.5
1937.67453	7880.9
1940.77232	7848.2
1943.86808	7825.6
1946.96184	7832.3
1950.05358	7780.2
1953.14331	7764.7
1956.23103	7740.2
1959.31675	7727.2
1962.40046	7723.3
1965.48217	7668.8
1968.56188	7666.1
1971.63959	7643.7
1974.7153	7647.8
1977.78901	7617.3
1980.86073	7586.1
1983.93046	7562.9
1986.99819	7521.9
1990.06394	7508.3
1993.1277	7491
1996.18947	7454.4
1999.24925	7435.7
2002.30706	7422
2005.36288	7359.4
2008.41672	7392.2
2011.46859	7356.7
2014.51848	7343.8
2017.56639	7298
2020.61233	7303.1
2023.6563	7272.7
2026.6983	7255.2
2029.73833	7239.4
2032.7764	7223.1
2035.8125	7200
2038.84664	7181.3
2041.87881	7191
2044.90903	7161.4
2047.93729	7147.2
2050.96359	7136.3
2053.98794	7137.8
2057.01034	7132.8
2060.03078	7126.3
2063.04927	7105.9
2066.06582	7094.8
2069.08042	7095.6
2072.09307	7091.7
2075.10378	7081.9
2078.11255	7080.1
2081.11938	7086.5
2084.12426	7075.8
2087.12722	7068.4
2090.12824	7067.7
2093.12732	7062.3
2096.12447	7052.3
2099.11969	7081.9
2102.11299	7066.4
2105.10435	7076.9
2108.09379	7064.4
2111.08131	7083.8
2114.0669	7085
2117.05057	7111
2120.03233	7105.2
2123.01216	7103.6
2125.99008	7110.9
2128.96609	7124.9
2131.94018	7133.3
2134.91236	7119
2137.88263	7121.9
2140.851	7119.8
2143.81746	7129.3
2146.78201	7140.5
2149.74466	7152.2
2152.7054	7126.3
2155.66425	7101.5
2158.6212	7094.1
2161.57625	7108.5
2164.52941	7116.1
2167.48067	7106.6
2170.43004	7086.4
2173.37752	7099.2
2176.32311	7087.9
2179.26681	7103.9
2182.20863	7100.6
2185.14856	7093
2188.08661	7101
2191.02278	7123.6
2193.95707	7107.9
2196.88948	7087.3
2199.82001	7090.2
2202.74867	7064.5
2205.67545	7073.6
2208.60037	7064.2
2211.52341	7066.1
2214.44458	7047.6
2217.36388	7030.7
2220.28132	7022
2223.1969	6994.8
2226.11061	6981.9
2229.02246	6984
2231.93245	6936.9
2234.84058	6937.5
2237.74686	6911.3
2240.65128	6926.6
2243.55385	6907.2
2246.45456	6920.2
2249.35343	6920.6
2252.25044	6889.9
2255.14561	6895.6
2258.03893	6897.5
2260.93041	6901.3
2263.82004	6887
2266.70783	6880.8
2269.59378	6858.1
2272.4779	6855.6
2275.36017	6831.1
2278.24061	6834.2
2281.11922	6785.3
2283.996	6793.3
2286.87094	6788
2289.74405	6751.5
2292.61534	6733.2
2295.4848	6739.1
2298.35243	6725
2301.21824	6739.8
2304.08223	6737.9
2306.94439	6729.6
2309.80474	6722.8
2312.66327	6708.9
2315.51999	6707.6
2318.37489	6709.8
2321.22797	6698.7
2324.07925	6687.7
2326.92871	6670.2
2329.77637	6678.5
2332.62222	6663.8
2335.46626	6655
2338.3085	6667.3
2341.14893	6654.3
2343.98756	6657.8
2346.8244	6664.3
2349.65943	6697.4
2352.49267	6681.8
2355.32411	6709.2
2358.15376	6725.1
2360.98161	6721.3
2363.80768	6742.8
2366.63195	6724.2
2369.45444	6757.8
2372.27514	6741.7
2375.09405	6720.5
2377.91118	6719.1
2380.72652	6667.4
2383.54009	6659.8
2386.35187	6605.9
2389.16188	6585.3
2391.97011	6543.7
2394.77657	6552.8
2397.58125	6523.7
2400.38416	6492.8
2403.18529	6494
2405.98466	6485.9
2408.78226	6464
2411.57809	6442.4
2414.37216	6430.5
2417.16446	6417.1
2419.955	6412.6
2422.74378	6435.3
2425.5308	6409.9
2428.31606	6426
2431.09956	6415.5
2433.88131	6438.8
2436.6613	6421.4
2439.43954	6415.7
2442.21603	6412.4
2444.99077	6414.3
2447.76377	6438.5
2450.53501	6401.9
2453.30451	6424.7
2456.07226	6421.3
2458.83827	6420
2461.60254	6416
2464.36507	6409.7
2467.12586	6401.2
2469.88492	6394.3
2472.64224	6408.9
2475.39782	6401.6
2478.15167	6402.8
2480.90379	6421.1
2483.65417	6441.9
2486.40283	6485.4
2489.14976	6474.5
2491.89497	6502.2
2494.63845	6492
2497.3802	6478.3
2500.12024	6479.2
2502.85855	6464.4
2505.59514	6430.7
2508.33002	6398.5
2511.06318	6374.8
2513.79462	6349.3
2516.52435	6323.5
2519.25237	6284.3
2521.97867	6282.8
2524.70327	6258.4
2527.42616	6254.9
2530.14734	6247.4
2532.86681	6249.9
2535.58458	6244.9
2538.30065	6241.9
2541.01501	6252.7
2543.72768	6231.6
2546.43864	6242.9
2549.14791	6234.6
2551.85548	6226.4
2554.56136	6205.8
2557.26554	6213.4
2559.96803	6203
2562.66883	6209
2565.36794	6194.5
2568.06536	6177.2
2570.7611	6180.2
2573.45514	6163.7
2576.14751	6150.8
2578.83819	6132.5
2581.52719	6128.5
2584.21451	6115.5
2586.90015	6111.8
2589.58411	6099.6
2592.2664	6093.8
2594.94701	6080.8
2597.62594	6080.7
2600.30321	6065.8
2602.9788	6075.6
2605.65273	6073.2
2608.32498	6074.6
2610.99557	6051.7
2613.66449	6077.2
2616.33175	6066
2618.99734	6079.6
2621.66128	6059.1
2624.32355	6045.7
2626.98416	6025.4
2629.64311	6030.6
2632.30041	6033.5
2634.95605	6019.2
2637.61004	5990.5
2640.26238	5963.6
2642.91306	5993
2645.56209	5978.1
2648.20948	5960.4
2650.85521	5957.2
2653.4993	5961.2
2656.14175	5951.6
2658.78255	5968.4
2661.42171	5973.1
2664.05923	6003.8
2666.6951	5984.1
2669.32934	6006.3
2671.96194	6002.1
2674.59291	6015.5
2677.22224	6019.1
2679.84993	6028.1
2682.476	6000.9
2685.10043	6006.7
2687.72324	5985.1
2690.34441	5993.1
2692.96396	6000.8
2695.58188	5995.6
2698.19818	5978.6
2700.81285	6000.7
2703.4259	5968.5
2706.03733	5914
2708.64714	5940.6
2711.25533	5978.7
2713.86191	5987.6
2716.46687	5994.9
2719.07021	6018.5
2721.67194	6029.5
2724.27206	6000.8
2726.87057	6027.8
2729.46747	6032.3
2732.06276	6009.9
2734.65644	6011
2737.24852	5998.9
2739.83899	5994.7
2742.42786	5986
2745.01513	5976.5
2747.60079	5970.5
2750.18486	5964
2752.76733	5931.9
2755.3482	5919.4
2757.92747	5905.5
2760.50515	5917.5
2763.08123	5920.9
2765.65573	5921.8
2768.22863	5897.9
2770.79994	5888.4
2773.36967	5900.4
2775.9378	5890
2778.50435	5886.8
2781.06932	5893
2783.6327	5879.4
2786.1945	5888.8
2788.75471	5896.9
2791.31335	5891.9
2793.87041	5861
2796.42589	5848.9
2798.97979	5870.2
2801.53212	5867.6
2804.08288	5853.2
2806.63206	5856.7
2809.17967	5862
2811.72571	5833.9
2814.27018	5852.8
2816.81308	5861.6
2819.35442	5869.2
2821.89419	5863.5
2824.43239	5883.2
2826.96904	5868.2
2829.50412	5867.3
2832.03763	5871
2834.56959	5874.1
2837.1	5866.4
2839.62884	5904.2
2842.15613	5899.4
2844.68186	5920.1
2847.20604	5941.3
2849.72867	5984.2
2852.24974	5990.2
2854.76927	5959
2857.28724	5942.4
2859.80367	5973.9
2862.31855	5979
2864.83189	5977.8
2867.34368	5953.1
2869.85393	5969.9
2872.36264	5961
2874.8698	5959
2877.37543	5944
2879.87952	5932.3
2882.38207	5942
2884.88308	5924.1
2887.38256	5925.8
2889.88051	5946
2892.37692	5934.3
2894.8718	5925.2
2897.36515	5940.5
2899.85698	5925.1
2902.34727	5937.2
2904.83604	5937.9
2907.32328	5953
2909.809	5948.8
2912.29319	5943.7
2914.77587	5934.9
2917.25702	5926.3
2919.73665	5945.4
2922.21476	5929.1
2924.69136	5905.7
2927.16644	5915.6
2929.64	5900.1
2932.11205	5899.7
2934.58258	5843.8
2937.05161	5836.5
2939.51912	5848.3
2941.98513	5822
2944.44962	5793.5
2946.91261	5766.8
2949.37409	5778.8
2951.83407	5759.7
2954.29254	5732.8
2956.74951	5727.9
2959.20498	5729.5
2961.65895	5726.4
2964.11142	5709.2
2966.56239	5675.8
2969.01186	5670.6
2971.45984	5663.3
2973.90632	5660.1
2976.35131	5629.9
2978.7948	5628.1
2981.23681	5607.2
2983.67732	5613.9
2986.11635	5584.5
2988.55388	5563.5
2990.98993	5574.8
2993.4245	5538.8
2995.85758	5545.2
2998.28917	5540.2
3000.71928	5530.1
3003.14791	5527.1
3005.57506	5524.8
3008.00073	5509.1
3010.42493	5502.8
3012.84764	5483.6
3015.26888	5504
3017.68865	5482.1
3020.10694	5498.2
3022.52376	5459.3
3024.9391	5449.3
3027.35298	5439.9
3029.76539	5434.7
3032.17632	5422.6
3034.5858	5406.5
3036.9938	5400.4
3039.40034	5383.4
3041.80542	5370.8
3044.20903	5377.2
3046.61118	5359
3049.01187	5350.3
3051.4111	5350
3053.80888	5342.4
3056.20519	5333.6
3058.60005	5316.5
3060.99345	5298.5
3063.3854	5300.4
3065.7759	5288.4
3068.16494	5265.1
3070.55254	5251.8
3072.93868	5245.3
3075.32338	5224.2
3077.70662	5243.2
3080.08842	5208.6
3082.46878	5193.6
3084.84769	5183.1
3087.22515	5174.4
3089.60118	5174.3
3091.97576	5165.8
3094.3489	5169.5
3096.72061	5165.6
3099.09087	5173.8
3101.4597	5156.8
3103.82709	5167.1
3106.19305	5152.7
3108.55757	5128.7
3110.92066	5146.1
3113.28232	5116.8
3115.64255	5125
3118.00134	5134.3
3120.35871	5122.1
3122.71466	5111.4
3125.06917	5091.5
3127.42226	5099.3
3129.77393	5091.3
3132.12417	5104.4
3134.47299	5104.2
3136.82039	5098.7
3139.16636	5096.8
3141.51092	5101.3
3143.85406	5113.5
3146.19579	5092.4
3148.53609	5112.1
3150.87499	5120
3153.21246	5127
3155.54853	5145
3157.88318	5140
3160.21642	5154.5
3162.54826	5126.8
3164.87868	5151
3167.2077	5147.9
3169.5353	5131.7
3171.86151	5133.2
3174.18631	5126.1
3176.5097	5128.1
3178.83169	5134.4
3181.15228	5138.1
3183.47147	5128.2
3185.78926	5126.1
3188.10565	5106.1
3190.42065	5114.3
3192.73424	5116.3
3195.04645	5127.6
3197.35725	5123.4
3199.66667	5138.3
3201.97469	5146.6
3204.28132	5148.8
3206.58656	5178
3208.8904	5168.7
3211.19287	5185
3213.49394	5196.5
3215.79363	5192.8
3218.09193	5178.6
3220.38884	5161.9
3222.68438	5168.9
3224.97853	5177.9
3227.2713	5180.5
3229.56269	5186.9
3231.8527	5169.4
3234.14133	5165.6
3236.42858	5155
3238.71446	5164
3240.99896	5140.3
3243.28209	5144.3
3245.56384	5106.9
3247.84423	5128.4
3250.12324	5111
3252.40088	5101.5
3254.67715	5103.8
3256.95205	5112.7
3259.22558	5116.4
3261.49775	5103
3263.76855	5113.1
3266.03799	5094.2
3268.30606	5075.9
3270.57277	5084
3272.83812	5092.3
3275.10211	5061.3
3277.36474	5052.3
3279.62601	5059.8
3281.88593	5051.2
3284.14448	5047.5
3286.40168	5054
3288.65753	5052.2
3290.91202	5061.6
3293.16516	5036.7
3295.41695	5030.6
3297.66738	4996.3
3299.91647	4985.5
3302.16421	4944.2
3304.4106	4948.8
3306.65564	4901.4
3308.89933	4878.3
3311.14169	4837
3313.38269	4790.9
3315.62236	4752.1
3317.86068	4707.8
3320.09766	4674.3
3322.3333	4640.6
3324.5676	4631.9
3326.80056	4535.3
3329.03219	4518.7
3331.26248	2.4
3333.49143	-0.9
3335.71905	-0.6
