Data from AgNPs_FTO_APTES_UA_50uM_CRN_2uM_R6G_10uM_NaF_0.1M_Addition_RamanShift__10__12-05-44-769.txt Node

Date: Mon Feb 21 12:05:44 GMT 2022
User: TCL
Spectrometer: QEP01345
Trigger mode: 4
Integration Time (sec): 7.000000E0
Scans to average: 10
Electric dark correction enabled: true
Nonlinearity correction enabled: false
Boxcar width: 0
XAxis mode: Raman Shifts
Number of Pixels in Spectrum: 1044
>>>>>Begin Spectral Data<<<<<
46.04893	0.1125
50.45542	-1.0875
54.85868	-0.9875
59.25871	-1.0875
63.6555	71.2125
68.04907	76.7125
72.43941	76.4125
76.82654	84.0125
81.21044	88.0125
85.59113	90.5125
89.96862	92.3125
94.34289	98.4125
98.71396	100.3125
103.08183	104.6125
107.4465	108.3125
111.80798	108.4125
116.16626	108.1125
120.52136	108.3125
124.87327	121.9125
129.222	121.2125
133.56755	127.2125
137.90993	136.9125
142.24913	148.6125
146.58517	166.8125
150.91804	188.0125
155.24774	224.3125
159.57429	273.6125
163.89768	352.8125
168.21792	471.9125
172.53501	636.9125
176.84895	892.3125
181.15975	1248.7125
185.46741	1761.6125
189.77193	2432.6125
194.07331	3250.2125
198.37157	4194.5125
202.6667	5192.5125
206.9587	6187.4125
211.24758	7121.0125
215.53334	8089.5125
219.81599	9110.6125
224.09553	10176.3125
228.37195	11439.8125
232.64527	12792.7125
236.91549	14205.8125
241.18261	15678.2125
245.44663	17068.2125
249.70755	18341.8125
253.96539	19429.5125
258.22014	20341.8125
262.4718	21052.6125
266.72039	21536.0125
270.96589	21732.3125
275.20832	21747.3125
279.44768	21601.8125
283.68397	21418.2125
287.91719	21154.2125
292.14735	21028.0125
296.37445	20923.7125
300.59849	20887.6125
304.81948	20927.6125
309.03742	20980.2125
313.25231	20906.4125
317.46415	20691.6125
321.67296	20404.3125
325.87872	20118.4125
330.08145	19993.3125
334.28114	19996.3125
338.47781	20130.7125
342.67145	20361.3125
346.86207	20632.9125
351.04966	20953.6125
355.23424	21340.9125
359.4158	21679.4125
363.59435	21948.7125
367.76989	22091.0125
371.94243	22237.0125
376.11196	22334.3125
380.27849	22387.0125
384.44203	22431.3125
388.60257	22601.3125
392.76012	22811.8125
396.91468	23132.2125
401.06626	23512.2125
405.21485	23730.2125
409.36047	23727.8125
413.50311	23483.7125
417.64277	23293.3125
421.77947	23320.4125
425.9132	23423.5125
430.04396	23576.2125
434.17176	23663.9125
438.2966	23809.5125
442.41849	24045.4125
446.53742	24524.6125
450.6534	24982.3125
454.76644	25409.5125
458.87653	25543.5125
462.98368	25576.4125
467.08789	25459.3125
471.18916	25229.4125
475.2875	24972.8125
479.38291	24766.7125
483.4754	24658.0125
487.56496	24543.6125
491.6516	24346.3125
495.73531	24112.5125
499.81612	23939.2125
503.89401	24054.9125
507.96899	24131.0125
512.04106	24183.3125
516.11023	24098.2125
520.1765	23989.5125
524.23987	23849.4125
528.30034	23679.8125
532.35792	23533.7125
536.41261	23321.0125
540.46441	23178.9125
544.51333	23193.8125
548.55936	23331.8125
552.60252	23708.6125
556.64279	24123.4125
560.6802	24395.9125
564.71473	24615.2125
568.7464	25013.7125
572.7752	25653.7125
576.80114	26419.6125
580.82422	27143.1125
584.84444	27854.5125
588.86181	28780.7125
592.87633	29754.9125
596.888	29842.2125
600.89682	28925.5125
604.9028	28482.0125
608.90594	29574.4125
612.90624	30904.7125
616.90371	29319.5125
620.89834	25908.2125
624.89015	24434.9125
628.87913	24340.2125
632.86528	24550.1125
636.84862	24679.0125
640.82913	24313.5125
644.80683	23839.8125
648.78172	23517.9125
652.75379	23475.5125
656.72306	23683.4125
660.68952	23969.5125
664.65319	23950.1125
668.61405	23724.8125
672.57211	23688.3125
676.52738	23795.9125
680.47986	23800.0125
684.42955	23675.9125
688.37646	23607.9125
692.32058	23709.8125
696.26192	23958.6125
700.20048	24232.9125
704.13626	24383.1125
708.06928	24443.9125
711.99952	24400.3125
715.927	24374.1125
719.85171	24380.0125
723.77365	24242.0125
727.69284	24006.5125
731.60928	23697.9125
735.52295	23552.6125
739.43388	23551.8125
743.34206	23647.7125
747.24749	23762.3125
751.15017	23952.4125
755.05012	24288.1125
758.94733	24793.6125
762.8418	25668.7125
766.73354	27001.2125
770.62254	28222.7125
774.50882	28422.1125
778.39237	27477.9125
782.27321	26215.5125
786.15132	25058.7125
790.02671	24351.9125
793.89938	23905.5125
797.76935	23714.7125
801.6366	23620.5125
805.50115	23554.7125
809.36299	23519.5125
813.22213	23374.3125
817.07857	23337.9125
820.93231	23287.4125
824.78336	23221.9125
828.63172	23153.9125
832.47738	23147.7125
836.32036	23118.3125
840.16066	23112.7125
843.99827	23106.0125
847.8332	23162.0125
851.66546	23195.4125
855.49504	23240.3125
859.32195	23279.0125
863.1462	23285.1125
866.96777	23236.0125
870.78668	23185.5125
874.60293	23224.8125
878.41652	23282.0125
882.22745	23342.2125
886.03573	23417.5125
889.84136	23365.4125
893.64433	23359.4125
897.44466	23275.6125
901.24235	23253.7125
905.0374	23212.1125
908.8298	23142.0125
912.61957	23175.0125
916.40671	23285.2125
920.19121	23546.1125
923.97308	23789.6125
927.75233	23860.2125
931.52895	23627.8125
935.30295	23281.4125
939.07433	22992.1125
942.84309	22729.3125
946.60924	22625.9125
950.37278	22605.3125
954.13371	22587.8125
957.89203	22579.7125
961.64774	22547.9125
965.40086	22532.3125
969.15137	22581.2125
972.89929	22495.1125
976.64461	22442.4125
980.38733	22430.4125
984.12747	22432.5125
987.86502	22517.6125
991.59999	22645.6125
995.33237	22821.4125
999.06217	23072.5125
1002.78939	23410.9125
1006.51404	23792.1125
1010.23611	24182.2125
1013.95561	24411.3125
1017.67255	24427.4125
1021.38692	24261.4125
1025.09872	23960.5125
1028.80796	23736.1125
1032.51465	23639.8125
1036.21877	23655.3125
1039.92035	23741.8125
1043.61937	23856.2125
1047.31584	23854.1125
1051.00976	23825.1125
1054.70114	23880.8125
1058.38998	23973.9125
1062.07627	24222.7125
1065.76003	24472.3125
1069.44126	24781.5125
1073.11995	25229.5125
1076.79611	25585.1125
1080.46974	25784.8125
1084.14085	25916.1125
1087.80943	26076.6125
1091.47549	26317.7125
1095.13903	26401.8125
1098.80005	26168.4125
1102.45857	25661.0125
1106.11456	25224.8125
1109.76805	24950.8125
1113.41903	24873.7125
1117.06751	24902.1125
1120.71348	25091.9125
1124.35696	25301.4125
1127.99793	25516.5125
1131.63641	25673.1125
1135.2724	25620.0125
1138.90589	25609.9125
1142.5369	25639.5125
1146.16542	25700.0125
1149.79145	25961.4125
1153.415	26120.2125
1157.03607	26308.5125
1160.65467	26691.4125
1164.27079	27493.5125
1167.88443	28443.4125
1171.49561	29525.1125
1175.10432	30915.3125
1178.71056	32615.7125
1182.31434	34245.5125
1185.91565	35128.6125
1189.51451	35265.4125
1193.11091	34916.9125
1196.70485	34112.3125
1200.29634	33192.9125
1203.88538	32405.6125
1207.47197	31953.6125
1211.05612	31610.6125
1214.63782	31178.2125
1218.21708	30573.7125
1221.79391	29874.8125
1225.36829	29425.8125
1228.94024	29131.7125
1232.50976	28956.0125
1236.07685	28757.4125
1239.6415	28569.1125
1243.20374	28503.4125
1246.76355	28681.9125
1250.32093	28934.1125
1253.8759	29348.3125
1257.42845	29976.5125
1260.97859	30755.6125
1264.52631	31530.3125
1268.07163	32288.7125
1271.61453	33009.5125
1275.15503	33682.3125
1278.69312	34494.3125
1282.22882	35265.7125
1285.76211	36251.4125
1289.29301	37306.0125
1292.82151	38484.4125
1296.34761	39841.9125
1299.87133	41397.3125
1303.39266	42947.8125
1306.9116	44394.0125
1310.42815	45520.1125
1313.94233	45983.7125
1317.45412	45782.2125
1320.96354	45260.3125
1324.47058	44713.8125
1327.97525	44370.0125
1331.47754	44198.4125
1334.97747	44118.4125
1338.47502	43952.4125
1341.97022	43897.6125
1345.46305	43765.0125
1348.95352	43670.5125
1352.44163	43618.2125
1355.92738	43960.0125
1359.41078	44953.0125
1362.89183	45938.5125
1366.37053	45578.3125
1369.84688	43081.5125
1373.32088	39487.6125
1376.79254	36823.0125
1380.26186	35663.3125
1383.72883	35423.5125
1387.19347	35264.1125
1390.65578	34868.9125
1394.11575	34590.9125
1397.57339	34560.8125
1401.0287	34789.4125
1404.48168	35025.0125
1407.93234	34960.5125
1411.38068	34517.4125
1414.82669	33777.4125
1418.27039	32840.8125
1421.71177	31939.4125
1425.15083	31250.8125
1428.58758	30940.9125
1432.02203	31114.9125
1435.45416	31656.9125
1438.88399	32281.8125
1442.31151	32695.0125
1445.73673	32960.5125
1449.15965	33098.8125
1452.58027	33287.1125
1455.9986	33364.0125
1459.41463	33579.3125
1462.82837	34003.7125
1466.23982	34609.2125
1469.64898	35105.9125
1473.05586	35445.0125
1476.46045	35559.2125
1479.86276	35523.5125
1483.26279	35443.6125
1486.66054	35491.5125
1490.05602	35781.9125
1493.44922	36204.2125
1496.84016	36863.6125
1500.22882	37604.7125
1503.61521	38541.8125
1506.99934	39461.8125
1510.38121	40043.2125
1513.76081	40068.9125
1517.13816	39392.2125
1520.51324	38468.0125
1523.88607	37880.3125
1527.25665	37562.9125
1530.62498	37337.5125
1533.99105	36958.4125
1537.35488	36330.8125
1540.71647	35616.1125
1544.07581	34786.6125
1547.4329	33968.6125
1550.78776	33347.6125
1554.14038	32977.7125
1557.49077	32754.5125
1560.83892	32735.0125
1564.18484	32695.7125
1567.52853	32765.8125
1570.86999	33043.2125
1574.20922	33508.0125
1577.54624	33856.0125
1580.88103	33847.2125
1584.2136	33993.1125
1587.54395	34596.2125
1590.87208	35826.2125
1594.19801	37418.2125
1597.52172	38845.8125
1600.84321	39054.4125
1604.16251	37722.9125
1607.47959	35610.7125
1610.79447	33310.4125
1614.10715	31105.9125
1617.41763	29322.7125
1620.7259	28054.6125
1624.03199	27380.1125
1627.33587	27354.3125
1630.63757	27872.1125
1633.93707	29165.9125
1637.23439	31477.6125
1640.52951	34835.1125
1643.82246	38906.7125
1647.11321	42035.5125
1650.40179	42746.7125
1653.68819	40255.6125
1656.97241	35812.7125
1660.25446	31393.0125
1663.53433	28085.2125
1666.81203	26012.1125
1670.08756	24749.8125
1673.36092	23923.0125
1676.63211	23410.5125
1679.90115	23049.0125
1683.16801	22738.0125
1686.43272	22513.4125
1689.69527	22363.7125
1692.95567	22161.6125
1696.2139	21916.4125
1699.46999	21783.9125
1702.72392	21723.3125
1705.97571	21784.2125
1709.22535	21868.3125
1712.47284	21870.1125
1715.71819	21887.9125
1718.96139	21898.8125
1722.20246	21789.9125
1725.44139	21718.5125
1728.67818	21643.6125
1731.91284	21539.5125
1735.14537	21411.7125
1738.37576	21356.5125
1741.60403	21268.0125
1744.83017	21177.3125
1748.05418	21132.8125
1751.27607	21057.6125
1754.49584	20961.5125
1757.71349	20924.7125
1760.92903	20897.5125
1764.14244	20839.4125
1767.35375	20856.9125
1770.56294	20770.7125
1773.77002	20811.5125
1776.97499	20821.7125
1780.17785	20860.8125
1783.37861	20856.4125
1786.57727	20819.8125
1789.77382	20816.4125
1792.96828	20837.1125
1796.16064	20778.1125
1799.3509	20729.9125
1802.53907	20683.0125
1805.72514	20643.8125
1808.90913	20622.3125
1812.09102	20548.6125
1815.27083	20566.4125
1818.44856	20505.8125
1821.6242	20513.9125
1824.79776	20481.0125
1827.96924	20475.7125
1831.13864	20410.2125
1834.30597	20468.9125
1837.47122	20458.4125
1840.6344	20414.3125
1843.7955	20435.2125
1846.95454	20440.9125
1850.11151	20411.8125
1853.26642	20414.7125
1856.41926	20391.5125
1859.57004	20401.9125
1862.71876	20342.4125
1865.86542	20333.3125
1869.01003	20290.8125
1872.15258	20261.1125
1875.29308	20253.0125
1878.43152	20212.4125
1881.56792	20221.0125
1884.70227	20219.9125
1887.83457	20178.4125
1890.96482	20129.5125
1894.09304	20098.0125
1897.21921	20089.3125
1900.34335	20082.2125
1903.46544	20065.3125
1906.58551	20011.4125
1909.70353	20006.2125
1912.81953	19955.8125
1915.93349	19929.9125
1919.04543	19937.9125
1922.15534	19850.1125
1925.26322	19820.7125
1928.36908	19809.7125
1931.47292	19772.9125
1934.57473	19701.0125
1937.67453	19681.2125
1940.77232	19656.9125
1943.86808	19616.7125
1946.96184	19545.3125
1950.05358	19503.6125
1953.14331	19471.3125
1956.23103	19400.2125
1959.31675	19318.5125
1962.40046	19269.9125
1965.48217	19180.8125
1968.56188	19153.1125
1971.63959	19140.9125
1974.7153	19065.1125
1977.78901	19021.8125
1980.86073	18952.7125
1983.93046	18907.8125
1986.99819	18808.4125
1990.06394	18801.6125
1993.1277	18773.7125
1996.18947	18687.5125
1999.24925	18631.5125
2002.30706	18592.9125
2005.36288	18541.5125
2008.41672	18516.0125
2011.46859	18454.9125
2014.51848	18374.1125
2017.56639	18314.1125
2020.61233	18296.0125
2023.6563	18261.7125
2026.6983	18234.1125
2029.73833	18190.6125
2032.7764	18119.0125
2035.8125	18094.9125
2038.84664	18032.9125
2041.87881	18038.6125
2044.90903	18028.0125
2047.93729	17990.3125
2050.96359	17944.8125
2053.98794	17905.9125
2057.01034	17912.3125
2060.03078	17884.1125
2063.04927	17867.8125
2066.06582	17893.4125
2069.08042	17875.1125
2072.09307	17861.5125
2075.10378	17871.6125
2078.11255	17844.3125
2081.11938	17880.6125
2084.12426	17850.6125
2087.12722	17829.7125
2090.12824	17825.6125
2093.12732	17832.6125
2096.12447	17848.9125
2099.11969	17809.2125
2102.11299	17812.2125
2105.10435	17845.4125
2108.09379	17848.9125
2111.08131	17883.5125
2114.0669	17867.9125
2117.05057	17884.8125
2120.03233	17913.6125
2123.01216	17896.1125
2125.99008	17949.5125
2128.96609	17963.3125
2131.94018	17944.3125
2134.91236	17985.9125
2137.88263	17975.0125
2140.851	18025.1125
2143.81746	18020.3125
2146.78201	18032.5125
2149.74466	17996.2125
2152.7054	17958.8125
2155.66425	17998.7125
2158.6212	17990.4125
2161.57625	18000.3125
2164.52941	18000.7125
2167.48067	17975.7125
2170.43004	17968.0125
2173.37752	17969.1125
2176.32311	17979.4125
2179.26681	17973.1125
2182.20863	17967.5125
2185.14856	17979.7125
2188.08661	18001.6125
2191.02278	17969.2125
2193.95707	17962.3125
2196.88948	17932.8125
2199.82001	17925.2125
2202.74867	17895.6125
2205.67545	17894.5125
2208.60037	17835.6125
2211.52341	17828.6125
2214.44458	17803.9125
2217.36388	17765.5125
2220.28132	17719.0125
2223.1969	17697.0125
2226.11061	17651.9125
2229.02246	17638.1125
2231.93245	17637.7125
2234.84058	17589.2125
2237.74686	17575.6125
2240.65128	17599.9125
2243.55385	17590.6125
2246.45456	17547.0125
2249.35343	17516.4125
2252.25044	17513.8125
2255.14561	17446.2125
2258.03893	17447.5125
2260.93041	17388.1125
2263.82004	17373.2125
2266.70783	17346.4125
2269.59378	17266.4125
2272.4779	17266.6125
2275.36017	17246.1125
2278.24061	17202.2125
2281.11922	17165.1125
2283.996	17176.0125
2286.87094	17105.8125
2289.74405	17056.3125
2292.61534	17073.9125
2295.4848	17044.3125
2298.35243	17011.4125
2301.21824	17022.0125
2304.08223	17030.6125
2306.94439	17015.0125
2309.80474	16953.5125
2312.66327	16998.3125
2315.51999	16923.0125
2318.37489	16920.1125
2321.22797	16943.7125
2324.07925	16897.4125
2326.92871	16903.5125
2329.77637	16871.1125
2332.62222	16858.2125
2335.46626	16829.0125
2338.3085	16787.2125
2341.14893	16793.2125
2343.98756	16769.8125
2346.8244	16811.8125
2349.65943	16777.8125
2352.49267	16759.2125
2355.32411	16769.6125
2358.15376	16760.7125
2360.98161	16751.3125
2363.80768	16735.9125
2366.63195	16749.8125
2369.45444	16682.2125
2372.27514	16694.7125
2375.09405	16657.2125
2377.91118	16671.3125
2380.72652	16608.5125
2383.54009	16588.8125
2386.35187	16605.6125
2389.16188	16571.8125
2391.97011	16484.9125
2394.77657	16486.6125
2397.58125	16452.9125
2400.38416	16444.5125
2403.18529	16450.3125
2405.98466	16429.6125
2408.78226	16399.5125
2411.57809	16344.7125
2414.37216	16327.0125
2417.16446	16333.0125
2419.955	16341.5125
2422.74378	16335.8125
2425.5308	16289.4125
2428.31606	16267.5125
2431.09956	16284.2125
2433.88131	16270.2125
2436.6613	16282.6125
2439.43954	16286.8125
2442.21603	16288.7125
2444.99077	16237.0125
2447.76377	16258.7125
2450.53501	16229.1125
2453.30451	16262.1125
2456.07226	16211.2125
2458.83827	16168.3125
2461.60254	16153.9125
2464.36507	16138.6125
2467.12586	16117.6125
2469.88492	16138.5125
2472.64224	16114.5125
2475.39782	16096.1125
2478.15167	16091.2125
2480.90379	16112.2125
2483.65417	16139.2125
2486.40283	16123.8125
2489.14976	16129.4125
2491.89497	16125.4125
2494.63845	16106.1125
2497.3802	16074.6125
2500.12024	16097.7125
2502.85855	16097.9125
2505.59514	16064.9125
2508.33002	16063.1125
2511.06318	16084.7125
2513.79462	16037.9125
2516.52435	16042.5125
2519.25237	16023.2125
2521.97867	15981.7125
2524.70327	15990.1125
2527.42616	15966.8125
2530.14734	15981.6125
2532.86681	15962.4125
2535.58458	15945.9125
2538.30065	15925.5125
2541.01501	15911.8125
2543.72768	15887.7125
2546.43864	15867.4125
2549.14791	15869.9125
2551.85548	15851.0125
2554.56136	15813.6125
2557.26554	15819.0125
2559.96803	15770.8125
2562.66883	15737.1125
2565.36794	15716.8125
2568.06536	15743.6125
2570.7611	15675.6125
2573.45514	15637.6125
2576.14751	15671.3125
2578.83819	15633.6125
2581.52719	15605.8125
2584.21451	15605.0125
2586.90015	15609.7125
2589.58411	15568.0125
2592.2664	15548.6125
2594.94701	15531.3125
2597.62594	15547.5125
2600.30321	15518.9125
2602.9788	15474.9125
2605.65273	15451.0125
2608.32498	15473.1125
2610.99557	15459.7125
2613.66449	15409.1125
2616.33175	15412.4125
2618.99734	15385.7125
2621.66128	15368.4125
2624.32355	15368.5125
2626.98416	15342.9125
2629.64311	15344.4125
2632.30041	15358.9125
2634.95605	15316.1125
2637.61004	15280.9125
2640.26238	15248.1125
2642.91306	15267.2125
2645.56209	15257.0125
2648.20948	15264.7125
2650.85521	15260.1125
2653.4993	15259.8125
2656.14175	15299.1125
2658.78255	15294.7125
2661.42171	15291.6125
2664.05923	15303.0125
2666.6951	15309.6125
2669.32934	15323.2125
2671.96194	15288.3125
2674.59291	15367.2125
2677.22224	15328.9125
2679.84993	15342.0125
2682.476	15310.3125
2685.10043	15337.2125
2687.72324	15352.3125
2690.34441	15357.1125
2692.96396	15327.8125
2695.58188	15318.8125
2698.19818	15313.1125
2700.81285	15300.8125
2703.4259	15280.0125
2706.03733	15187.8125
2708.64714	15257.8125
2711.25533	15323.6125
2713.86191	15320.2125
2716.46687	15349.4125
2719.07021	15331.5125
2721.67194	15360.3125
2724.27206	15334.5125
2726.87057	15381.0125
2729.46747	15368.4125
2732.06276	15402.4125
2734.65644	15385.2125
2737.24852	15360.7125
2739.83899	15367.3125
2742.42786	15332.4125
2745.01513	15292.2125
2747.60079	15321.3125
2750.18486	15278.9125
2752.76733	15291.0125
2755.3482	15260.5125
2757.92747	15252.3125
2760.50515	15207.0125
2763.08123	15253.0125
2765.65573	15217.4125
2768.22863	15203.8125
2770.79994	15163.4125
2773.36967	15168.4125
2775.9378	15180.7125
2778.50435	15141.7125
2781.06932	15151.4125
2783.6327	15163.6125
2786.1945	15124.6125
2788.75471	15127.9125
2791.31335	15064.4125
2793.87041	15060.6125
2796.42589	14980.1125
2798.97979	15013.8125
2801.53212	14996.4125
2804.08288	14993.9125
2806.63206	14967.5125
2809.17967	14946.3125
2811.72571	14890.0125
2814.27018	14816.5125
2816.81308	14820.3125
2819.35442	14822.9125
2821.89419	14747.1125
2824.43239	14759.5125
2826.96904	14712.7125
2829.50412	14706.3125
2832.03763	14669.6125
2834.56959	14684.3125
2837.1	14657.0125
2839.62884	14647.1125
2842.15613	14615.2125
2844.68186	14589.8125
2847.20604	14601.8125
2849.72867	14594.1125
2852.24974	14599.5125
2854.76927	14555.9125
2857.28724	14511.2125
2859.80367	14504.3125
2862.31855	14488.9125
2864.83189	14461.5125
2867.34368	14474.5125
2869.85393	14465.5125
2872.36264	14466.2125
2874.8698	14453.7125
2877.37543	14462.6125
2879.87952	14441.1125
2882.38207	14438.5125
2884.88308	14430.3125
2887.38256	14396.5125
2889.88051	14415.4125
2892.37692	14438.4125
2894.8718	14430.4125
2897.36515	14425.1125
2899.85698	14387.5125
2902.34727	14442.6125
2904.83604	14449.9125
2907.32328	14430.3125
2909.809	14458.1125
2912.29319	14491.7125
2914.77587	14481.2125
2917.25702	14470.4125
2919.73665	14478.5125
2922.21476	14464.2125
2924.69136	14476.9125
2927.16644	14443.3125
2929.64	14421.7125
2932.11205	14377.6125
2934.58258	14350.2125
2937.05161	14369.3125
2939.51912	14369.3125
2941.98513	14379.1125
2944.44962	14352.2125
2946.91261	14302.2125
2949.37409	14351.8125
2951.83407	14302.0125
2954.29254	14340.3125
2956.74951	14283.3125
2959.20498	14309.3125
2961.65895	14257.9125
2964.11142	14332.4125
2966.56239	14312.1125
2969.01186	14309.6125
2971.45984	14262.8125
2973.90632	14258.5125
2976.35131	14202.1125
2978.7948	14191.4125
2981.23681	14166.5125
2983.67732	14143.3125
2986.11635	14121.3125
2988.55388	14106.7125
2990.98993	14048.0125
2993.4245	14043.6125
2995.85758	14016.6125
2998.28917	14003.8125
3000.71928	13972.6125
3003.14791	13908.4125
3005.57506	13882.1125
3008.00073	13851.1125
3010.42493	13828.4125
3012.84764	13820.5125
3015.26888	13837.2125
3017.68865	13800.3125
3020.10694	13785.9125
3022.52376	13742.6125
3024.9391	13710.2125
3027.35298	13708.7125
3029.76539	13718.7125
3032.17632	13669.9125
3034.5858	13683.1125
3036.9938	13635.9125
3039.40034	13626.0125
3041.80542	13593.3125
3044.20903	13582.2125
3046.61118	13604.7125
3049.01187	13510.1125
3051.4111	13526.0125
3053.80888	13527.2125
3056.20519	13493.1125
3058.60005	13449.4125
3060.99345	13456.0125
3063.3854	13422.3125
3065.7759	13390.0125
3068.16494	13357.6125
3070.55254	13302.5125
3072.93868	13290.5125
3075.32338	13197.6125
3077.70662	13196.8125
3080.08842	13190.2125
3082.46878	13179.7125
3084.84769	13178.6125
3087.22515	13126.7125
3089.60118	13136.6125
3091.97576	13138.7125
3094.3489	13113.6125
3096.72061	13158.5125
3099.09087	13124.2125
3101.4597	13115.1125
3103.82709	13112.1125
3106.19305	13060.3125
3108.55757	13066.9125
3110.92066	13032.1125
3113.28232	13021.5125
3115.64255	12988.2125
3118.00134	12951.6125
3120.35871	12934.9125
3122.71466	12913.1125
3125.06917	12912.5125
3127.42226	12852.2125
3129.77393	12841.6125
3132.12417	12839.3125
3134.47299	12844.7125
3136.82039	12807.8125
3139.16636	12805.8125
3141.51092	12804.6125
3143.85406	12805.4125
3146.19579	12815.6125
3148.53609	12798.1125
3150.87499	12797.1125
3153.21246	12797.0125
3155.54853	12837.7125
3157.88318	12791.6125
3160.21642	12811.3125
3162.54826	12812.9125
3164.87868	12810.4125
3167.2077	12805.0125
3169.5353	12801.9125
3171.86151	12785.1125
3174.18631	12778.8125
3176.5097	12783.2125
3178.83169	12736.2125
3181.15228	12754.0125
3183.47147	12675.2125
3185.78926	12700.7125
3188.10565	12647.4125
3190.42065	12618.1125
3192.73424	12623.6125
3195.04645	12594.2125
3197.35725	12586.1125
3199.66667	12560.8125
3201.97469	12591.0125
3204.28132	12604.2125
3206.58656	12628.4125
3208.8904	12615.8125
3211.19287	12624.8125
3213.49394	12581.0125
3215.79363	12611.8125
3218.09193	12614.1125
3220.38884	12590.9125
3222.68438	12571.5125
3224.97853	12587.9125
3227.2713	12587.6125
3229.56269	12548.5125
3231.8527	12562.8125
3234.14133	12525.3125
3236.42858	12510.9125
3238.71446	12483.1125
3240.99896	12432.8125
3243.28209	12431.5125
3245.56384	12391.1125
3247.84423	12407.4125
3250.12324	12385.2125
3252.40088	12367.1125
3254.67715	12367.9125
3256.95205	12357.8125
3259.22558	12348.7125
3261.49775	12344.9125
3263.76855	12303.2125
3266.03799	12306.6125
3268.30606	12313.1125
3270.57277	12269.0125
3272.83812	12241.7125
3275.10211	12230.6125
3277.36474	12207.3125
3279.62601	12199.6125
3281.88593	12175.5125
3284.14448	12176.7125
3286.40168	12189.5125
3288.65753	12190.1125
3290.91202	12161.2125
3293.16516	12128.9125
3295.41695	12088.7125
3297.66738	12012.6125
3299.91647	11963.4125
3302.16421	11918.1125
3304.4106	11841.5125
3306.65564	11738.3125
3308.89933	11677.4125
3311.14169	11601.3125
3313.38269	11480.8125
3315.62236	11427.7125
3317.86068	11323.3125
3320.09766	11250.4125
3322.3333	11179.7125
3324.5676	11105.9125
3326.80056	10947.7125
3329.03219	10880.1125
3331.26248	2.9125
3333.49143	0.4125
3335.71905	0.2125
