Data from AgNPs_FTO_APTES_UA_50uM_CRN_0uM_R6G_10uM_NaF_0.1M_Addition_RamanShift__52__11-10-54-696.txt Node

Date: Mon Feb 21 11:10:54 GMT 2022
User: TCL
Spectrometer: QEP01345
Trigger mode: 4
Integration Time (sec): 7.000000E0
Scans to average: 10
Electric dark correction enabled: true
Nonlinearity correction enabled: false
Boxcar width: 0
XAxis mode: Raman Shifts
Number of Pixels in Spectrum: 1044
>>>>>Begin Spectral Data<<<<<
46.04893	0.525
50.45542	-0.775
54.85868	-1.275
59.25871	-1.775
63.6555	36.925
68.04907	44.325
72.43941	42.825
76.82654	47.425
81.21044	49.125
85.59113	52.525
89.96862	56.025
94.34289	58.625
98.71396	58.525
103.08183	63.325
107.4465	62.825
111.80798	63.725
116.16626	62.525
120.52136	58.525
124.87327	68.725
129.222	62.825
133.56755	66.025
137.90993	69.825
142.24913	70.425
146.58517	77.925
150.91804	84.925
155.24774	96.725
159.57429	116.125
163.89768	142.225
168.21792	182.525
172.53501	245.325
176.84895	338.725
181.15975	456.425
185.46741	639.625
189.77193	879.925
194.07331	1159.925
198.37157	1501.125
202.6667	1844.025
206.9587	2197.425
211.24758	2559.725
215.53334	2927.425
219.81599	3344.025
224.09553	3833.125
228.37195	4373.625
232.64527	4971.325
236.91549	5538.425
241.18261	6100.225
245.44663	6513.025
249.70755	6852.925
253.96539	7080.825
258.22014	7278.725
262.4718	7439.825
266.72039	7557.225
270.96589	7571.325
275.20832	7535.825
279.44768	7394.525
283.68397	7239.325
287.91719	7156.225
292.14735	7179.025
296.37445	7389.425
300.59849	7769.625
304.81948	8235.625
309.03742	8589.325
313.25231	8628.925
317.46415	8171.725
321.67296	7423.025
325.87872	6766.425
330.08145	6422.125
334.28114	6395.825
338.47781	6523.525
342.67145	6766.725
346.86207	7106.125
351.04966	7685.725
355.23424	8341.225
359.4158	8846.725
363.59435	9098.925
367.76989	9158.125
371.94243	9101.525
376.11196	9006.525
380.27849	8932.125
384.44203	8763.025
388.60257	8563.425
392.76012	8428.725
396.91468	8496.625
401.06626	8721.625
405.21485	8930.425
409.36047	8694.825
413.50311	8108.325
417.64277	7515.525
421.77947	7160.025
425.9132	6974.825
430.04396	6916.425
434.17176	6966.725
438.2966	7112.525
442.41849	7369.725
446.53742	7660.525
450.6534	7962.925
454.76644	8100.225
458.87653	8119.625
462.98368	7965.825
467.08789	7776.425
471.18916	7531.625
475.2875	7283.725
479.38291	7065.925
483.4754	6912.125
487.56496	6803.325
491.6516	6738.025
495.73531	6687.125
499.81612	6708.325
503.89401	6815.125
507.96899	6960.025
512.04106	7117.925
516.11023	7318.525
520.1765	7456.625
524.23987	7455.125
528.30034	7293.125
532.35792	7087.225
536.41261	6851.525
540.46441	6600.425
544.51333	6475.825
548.55936	6480.425
552.60252	6646.725
556.64279	6867.325
560.6802	6992.625
564.71473	7179.125
568.7464	7590.425
572.7752	7872.825
576.80114	7585.025
580.82422	7195.925
584.84444	7027.525
588.86181	7046.525
592.87633	7139.225
596.888	7275.325
600.89682	7537.825
604.9028	8631.225
608.90594	11793.725
612.90624	16153.225
616.90371	15747.825
620.89834	10270.225
624.89015	7536.725
628.87913	7041.125
632.86528	7087.225
636.84862	7226.325
640.82913	7099.625
644.80683	6658.625
648.78172	6325.925
652.75379	6320.925
656.72306	6705.125
660.68952	7200.025
664.65319	7095.025
668.61405	6567.725
672.57211	6304.925
676.52738	6262.825
680.47986	6243.225
684.42955	6155.225
688.37646	6133.125
692.32058	6151.725
696.26192	6204.225
700.20048	6324.025
704.13626	6420.925
708.06928	6392.825
711.99952	6318.425
715.927	6283.325
719.85171	6343.325
723.77365	6343.625
727.69284	6258.725
731.60928	6182.025
735.52295	6199.625
739.43388	6224.125
743.34206	6287.425
747.24749	6338.725
751.15017	6389.025
755.05012	6523.725
758.94733	6936.225
762.8418	7974.925
766.73354	9726.725
770.62254	11612.325
774.50882	12754.725
778.39237	12361.325
782.27321	10457.725
786.15132	8363.925
790.02671	7147.325
793.89938	6634.525
797.76935	6411.825
801.6366	6332.825
805.50115	6301.325
809.36299	6272.525
813.22213	6261.825
817.07857	6206.825
820.93231	6204.125
824.78336	6201.525
828.63172	6251.125
832.47738	6257.025
836.32036	6219.925
840.16066	6178.225
843.99827	6125.425
847.8332	6095.525
851.66546	6078.025
855.49504	6068.125
859.32195	6060.325
863.1462	6028.525
866.96777	5986.425
870.78668	5966.725
874.60293	6008.225
878.41652	6061.925
882.22745	6151.425
886.03573	6199.425
889.84136	6174.425
893.64433	6116.825
897.44466	6101.425
901.24235	6081.225
905.0374	6035.925
908.8298	5969.625
912.61957	5919.625
916.40671	5937.625
920.19121	5991.825
923.97308	6070.525
927.75233	6193.125
931.52895	6282.025
935.30295	6207.425
939.07433	5971.925
942.84309	5765.625
946.60924	5642.825
950.37278	5578.625
954.13371	5529.225
957.89203	5515.325
961.64774	5486.325
965.40086	5471.925
969.15137	5459.725
972.89929	5438.325
976.64461	5436.325
980.38733	5442.125
984.12747	5431.425
987.86502	5474.625
991.59999	5534.325
995.33237	5643.325
999.06217	5761.625
1002.78939	5981.125
1006.51404	6174.125
1010.23611	6349.125
1013.95561	6459.525
1017.67255	6427.025
1021.38692	6320.025
1025.09872	6163.225
1028.80796	6084.925
1032.51465	6116.925
1036.21877	6206.225
1039.92035	6305.925
1043.61937	6339.625
1047.31584	6295.625
1051.00976	6223.425
1054.70114	6162.425
1058.38998	6113.825
1062.07627	6118.425
1065.76003	6137.825
1069.44126	6200.125
1073.11995	6306.725
1076.79611	6441.425
1080.46974	6604.025
1084.14085	6867.725
1087.80943	7152.925
1091.47549	7249.325
1095.13903	7052.425
1098.80005	6702.625
1102.45857	6416.925
1106.11456	6335.325
1109.76805	6429.625
1113.41903	6644.425
1117.06751	7009.825
1120.71348	7461.225
1124.35696	7977.425
1127.99793	8392.125
1131.63641	8300.225
1135.2724	7715.625
1138.90589	7209.125
1142.5369	6877.025
1146.16542	6656.225
1149.79145	6522.525
1153.415	6508.125
1157.03607	6559.125
1160.65467	6721.025
1164.27079	7030.725
1167.88443	7513.725
1171.49561	8324.425
1175.10432	9706.125
1178.71056	11576.225
1182.31434	13015.825
1185.91565	13365.525
1189.51451	12921.425
1193.11091	11920.425
1196.70485	10746.025
1200.29634	9926.525
1203.88538	9235.825
1207.47197	8473.525
1211.05612	7822.525
1214.63782	7453.625
1218.21708	7337.925
1221.79391	7321.425
1225.36829	7358.625
1228.94024	7363.225
1232.50976	7346.225
1236.07685	7344.125
1239.6415	7348.325
1243.20374	7352.625
1246.76355	7393.825
1250.32093	7482.725
1253.8759	7682.125
1257.42845	7965.425
1260.97859	8280.825
1264.52631	8654.125
1268.07163	8991.825
1271.61453	9307.625
1275.15503	9511.325
1278.69312	9624.025
1282.22882	9732.225
1285.76211	10007.525
1289.29301	10464.525
1292.82151	10935.925
1296.34761	11414.525
1299.87133	12169.025
1303.39266	13436.025
1306.9116	15316.025
1310.42815	17437.225
1313.94233	18458.625
1317.45412	17798.325
1320.96354	16202.325
1324.47058	14452.425
1327.97525	13012.325
1331.47754	12223.425
1334.97747	11939.925
1338.47502	12038.225
1341.97022	12424.225
1345.46305	13135.425
1348.95352	14166.925
1352.44163	15616.525
1355.92738	17825.925
1359.41078	20889.325
1362.89183	23474.225
1366.37053	22602.225
1369.84688	18879.725
1373.32088	15214.625
1376.79254	12731.625
1380.26186	11356.825
1383.72883	10560.625
1387.19347	9943.225
1390.65578	9415.825
1394.11575	9022.725
1397.57339	8871.625
1401.0287	8915.625
1404.48168	9067.825
1407.93234	9194.425
1411.38068	9348.625
1414.82669	9365.825
1418.27039	9194.325
1421.71177	8951.825
1425.15083	8704.925
1428.58758	8608.025
1432.02203	8676.025
1435.45416	8804.225
1438.88399	8880.925
1442.31151	8880.325
1445.73673	8901.425
1449.15965	8967.525
1452.58027	8950.625
1455.9986	8826.525
1459.41463	8820.925
1462.82837	8931.025
1466.23982	9158.625
1469.64898	9411.825
1473.05586	9568.325
1476.46045	9681.525
1479.86276	9871.025
1483.26279	10164.325
1486.66054	10532.025
1490.05602	11033.925
1493.44922	11759.625
1496.84016	12811.525
1500.22882	14537.525
1503.61521	16843.425
1506.99934	19349.725
1510.38121	21373.025
1513.76081	21878.725
1517.13816	20196.025
1520.51324	17136.925
1523.88607	14207.125
1527.25665	12351.025
1530.62498	11351.625
1533.99105	10777.225
1537.35488	10439.525
1540.71647	10257.025
1544.07581	10179.225
1547.4329	10180.925
1550.78776	10122.825
1554.14038	10029.025
1557.49077	10043.325
1560.83892	10154.225
1564.18484	10500.625
1567.52853	10981.325
1570.86999	11428.925
1574.20922	11726.725
1577.54624	11668.625
1580.88103	10923.525
1584.2136	9925.125
1587.54395	9395.225
1590.87208	9527.425
1594.19801	10228.525
1597.52172	11186.125
1600.84321	11700.325
1604.16251	11337.525
1607.47959	10447.325
1610.79447	9403.425
1614.10715	8418.025
1617.41763	7681.625
1620.7259	7251.025
1624.03199	7056.525
1627.33587	7079.125
1630.63757	7271.825
1633.93707	7710.725
1637.23439	8455.625
1640.52951	9578.325
1643.82246	11130.525
1647.11321	12954.025
1650.40179	14223.225
1653.68819	13732.225
1656.97241	11581.525
1660.25446	9235.325
1663.53433	7609.325
1666.81203	6651.625
1670.08756	6120.325
1673.36092	5839.625
1676.63211	5658.425
1679.90115	5504.725
1683.16801	5404.425
1686.43272	5316.025
1689.69527	5235.425
1692.95567	5141.125
1696.2139	5044.125
1699.46999	4945.225
1702.72392	4883.325
1705.97571	4958.325
1709.22535	5044.225
1712.47284	5122.725
1715.71819	5174.925
1718.96139	5169.225
1722.20246	5160.625
1725.44139	5128.325
1728.67818	5071.725
1731.91284	5020.025
1735.14537	4976.725
1738.37576	4927.225
1741.60403	4890.525
1744.83017	4866.825
1748.05418	4829.625
1751.27607	4787.825
1754.49584	4740.725
1757.71349	4670.225
1760.92903	4633.725
1764.14244	4598.325
1767.35375	4606.725
1770.56294	4583.125
1773.77002	4592.225
1776.97499	4622.325
1780.17785	4658.525
1783.37861	4676.225
1786.57727	4684.625
1789.77382	4693.825
1792.96828	4694.725
1796.16064	4682.725
1799.3509	4683.025
1802.53907	4666.825
1805.72514	4659.825
1808.90913	4651.425
1812.09102	4642.025
1815.27083	4615.625
1818.44856	4590.125
1821.6242	4590.625
1824.79776	4579.925
1827.96924	4574.125
1831.13864	4562.725
1834.30597	4566.025
1837.47122	4558.125
1840.6344	4555.025
1843.7955	4539.425
1846.95454	4538.525
1850.11151	4541.625
1853.26642	4513.125
1856.41926	4524.025
1859.57004	4523.525
1862.71876	4527.925
1865.86542	4543.025
1869.01003	4539.825
1872.15258	4539.525
1875.29308	4542.925
1878.43152	4535.725
1881.56792	4537.025
1884.70227	4524.525
1887.83457	4529.925
1890.96482	4529.825
1894.09304	4520.725
1897.21921	4537.625
1900.34335	4526.925
1903.46544	4546.625
1906.58551	4529.325
1909.70353	4530.125
1912.81953	4544.725
1915.93349	4537.125
1919.04543	4521.825
1922.15534	4521.225
1925.26322	4504.125
1928.36908	4480.225
1931.47292	4471.325
1934.57473	4447.725
1937.67453	4427.425
1940.77232	4403.425
1943.86808	4400.525
1946.96184	4360.125
1950.05358	4342.625
1953.14331	4332.025
1956.23103	4309.425
1959.31675	4282.225
1962.40046	4284.625
1965.48217	4281.225
1968.56188	4268.125
1971.63959	4255.325
1974.7153	4260.825
1977.78901	4232.825
1980.86073	4216.825
1983.93046	4193.825
1986.99819	4177.325
1990.06394	4174.625
1993.1277	4149.025
1996.18947	4133.325
1999.24925	4109.725
2002.30706	4103.125
2005.36288	4079.725
2008.41672	4079.725
2011.46859	4062.725
2014.51848	4035.625
2017.56639	4036.225
2020.61233	4030.525
2023.6563	4010.925
2026.6983	3996.625
2029.73833	3991.025
2032.7764	3978.025
2035.8125	3968.425
2038.84664	3963.125
2041.87881	3950.625
2044.90903	3946.125
2047.93729	3939.525
2050.96359	3937.725
2053.98794	3928.625
2057.01034	3911.525
2060.03078	3907.025
2063.04927	3910.225
2066.06582	3898.925
2069.08042	3906.525
2072.09307	3895.725
2075.10378	3888.325
2078.11255	3891.425
2081.11938	3897.725
2084.12426	3885.925
2087.12722	3880.525
2090.12824	3876.025
2093.12732	3875.725
2096.12447	3875.825
2099.11969	3876.725
2102.11299	3872.425
2105.10435	3878.425
2108.09379	3860.225
2111.08131	3867.325
2114.0669	3877.925
2117.05057	3883.325
2120.03233	3878.725
2123.01216	3878.625
2125.99008	3892.925
2128.96609	3891.225
2131.94018	3891.125
2134.91236	3880.025
2137.88263	3881.525
2140.851	3894.525
2143.81746	3894.725
2146.78201	3885.925
2149.74466	3883.025
2152.7054	3884.625
2155.66425	3865.425
2158.6212	3866.125
2161.57625	3855.225
2164.52941	3864.625
2167.48067	3847.125
2170.43004	3851.425
2173.37752	3843.125
2176.32311	3849.125
2179.26681	3838.925
2182.20863	3845.325
2185.14856	3854.425
2188.08661	3849.625
2191.02278	3843.825
2193.95707	3845.325
2196.88948	3831.425
2199.82001	3824.125
2202.74867	3814.625
2205.67545	3825.125
2208.60037	3810.125
2211.52341	3809.225
2214.44458	3804.425
2217.36388	3800.625
2220.28132	3785.725
2223.1969	3783.425
2226.11061	3765.225
2229.02246	3757.825
2231.93245	3749.325
2234.84058	3744.625
2237.74686	3740.225
2240.65128	3725.425
2243.55385	3738.825
2246.45456	3724.125
2249.35343	3720.125
2252.25044	3716.125
2255.14561	3716.325
2258.03893	3705.125
2260.93041	3695.825
2263.82004	3700.125
2266.70783	3706.525
2269.59378	3695.725
2272.4779	3685.525
2275.36017	3663.025
2278.24061	3674.825
2281.11922	3659.525
2283.996	3641.025
2286.87094	3647.025
2289.74405	3620.725
2292.61534	3621.225
2295.4848	3622.225
2298.35243	3613.625
2301.21824	3581.525
2304.08223	3591.325
2306.94439	3603.625
2309.80474	3595.325
2312.66327	3593.025
2315.51999	3603.725
2318.37489	3598.825
2321.22797	3594.525
2324.07925	3588.225
2326.92871	3588.825
2329.77637	3572.325
2332.62222	3565.325
2335.46626	3563.525
2338.3085	3553.825
2341.14893	3559.925
2343.98756	3563.425
2346.8244	3555.025
2349.65943	3573.225
2352.49267	3573.925
2355.32411	3585.725
2358.15376	3597.825
2360.98161	3610.125
2363.80768	3598.625
2366.63195	3600.425
2369.45444	3611.425
2372.27514	3606.825
2375.09405	3604.725
2377.91118	3584.225
2380.72652	3578.525
2383.54009	3555.425
2386.35187	3547.525
2389.16188	3533.725
2391.97011	3516.425
2394.77657	3497.225
2397.58125	3477.625
2400.38416	3487.025
2403.18529	3464.725
2405.98466	3458.325
2408.78226	3455.625
2411.57809	3440.725
2414.37216	3429.125
2417.16446	3430.225
2419.955	3427.625
2422.74378	3427.925
2425.5308	3417.625
2428.31606	3419.325
2431.09956	3417.725
2433.88131	3407.125
2436.6613	3422.725
2439.43954	3418.225
2442.21603	3414.525
2444.99077	3436.625
2447.76377	3419.825
2450.53501	3429.825
2453.30451	3434.725
2456.07226	3430.125
2458.83827	3430.425
2461.60254	3428.125
2464.36507	3396.525
2467.12586	3407.825
2469.88492	3408.225
2472.64224	3405.025
2475.39782	3406.025
2478.15167	3408.825
2480.90379	3430.825
2483.65417	3447.425
2486.40283	3453.225
2489.14976	3473.125
2491.89497	3475.025
2494.63845	3458.625
2497.3802	3446.825
2500.12024	3469.725
2502.85855	3455.425
2505.59514	3438.925
2508.33002	3428.725
2511.06318	3400.925
2513.79462	3392.325
2516.52435	3369.625
2519.25237	3369.825
2521.97867	3341.525
2524.70327	3322.825
2527.42616	3324.225
2530.14734	3331.525
2532.86681	3323.425
2535.58458	3328.625
2538.30065	3325.425
2541.01501	3314.025
2543.72768	3320.525
2546.43864	3320.625
2549.14791	3329.525
2551.85548	3332.525
2554.56136	3328.125
2557.26554	3318.725
2559.96803	3314.625
2562.66883	3308.725
2565.36794	3297.025
2568.06536	3291.825
2570.7611	3296.325
2573.45514	3294.325
2576.14751	3288.225
2578.83819	3282.325
2581.52719	3273.125
2584.21451	3270.225
2586.90015	3249.925
2589.58411	3254.625
2592.2664	3260.125
2594.94701	3257.725
2597.62594	3247.425
2600.30321	3243.425
2602.9788	3249.425
2605.65273	3247.225
2608.32498	3254.625
2610.99557	3239.025
2613.66449	3244.725
2616.33175	3246.025
2618.99734	3251.225
2621.66128	3245.425
2624.32355	3246.625
2626.98416	3235.525
2629.64311	3236.925
2632.30041	3226.125
2634.95605	3221.625
2637.61004	3209.225
2640.26238	3208.725
2642.91306	3199.725
2645.56209	3204.025
2648.20948	3174.225
2650.85521	3191.925
2653.4993	3176.825
2656.14175	3193.125
2658.78255	3209.825
2661.42171	3194.625
2664.05923	3200.325
2666.6951	3213.525
2669.32934	3226.025
2671.96194	3224.325
2674.59291	3228.525
2677.22224	3230.125
2679.84993	3244.525
2682.476	3232.325
2685.10043	3242.525
2687.72324	3230.925
2690.34441	3223.025
2692.96396	3225.725
2695.58188	3227.625
2698.19818	3220.625
2700.81285	3216.325
2703.4259	3192.725
2706.03733	3121.025
2708.64714	3173.925
2711.25533	3200.725
2713.86191	3216.225
2716.46687	3239.825
2719.07021	3243.025
2721.67194	3255.825
2724.27206	3253.725
2726.87057	3252.925
2729.46747	3254.025
2732.06276	3250.625
2734.65644	3226.025
2737.24852	3240.825
2739.83899	3247.725
2742.42786	3235.725
2745.01513	3229.025
2747.60079	3222.225
2750.18486	3208.925
2752.76733	3216.325
2755.3482	3214.125
2757.92747	3205.025
2760.50515	3187.925
2763.08123	3196.425
2765.65573	3182.125
2768.22863	3187.725
2770.79994	3192.225
2773.36967	3201.925
2775.9378	3197.925
2778.50435	3194.825
2781.06932	3196.825
2783.6327	3216.425
2786.1945	3204.125
2788.75471	3218.625
2791.31335	3208.925
2793.87041	3193.625
2796.42589	3208.525
2798.97979	3206.425
2801.53212	3202.525
2804.08288	3208.325
2806.63206	3221.725
2809.17967	3204.825
2811.72571	3211.025
2814.27018	3215.225
2816.81308	3217.425
2819.35442	3235.325
2821.89419	3235.425
2824.43239	3236.225
2826.96904	3242.425
2829.50412	3245.725
2832.03763	3250.725
2834.56959	3247.425
2837.1	3256.825
2839.62884	3271.925
2842.15613	3278.025
2844.68186	3294.425
2847.20604	3303.025
2849.72867	3321.525
2852.24974	3334.625
2854.76927	3323.225
2857.28724	3303.725
2859.80367	3310.225
2862.31855	3322.925
2864.83189	3311.025
2867.34368	3306.825
2869.85393	3318.525
2872.36264	3321.525
2874.8698	3320.625
2877.37543	3308.125
2879.87952	3316.525
2882.38207	3325.725
2884.88308	3291.825
2887.38256	3296.825
2889.88051	3288.425
2892.37692	3278.625
2894.8718	3274.125
2897.36515	3289.725
2899.85698	3293.725
2902.34727	3278.725
2904.83604	3280.825
2907.32328	3289.825
2909.809	3294.225
2912.29319	3300.525
2914.77587	3293.825
2917.25702	3287.725
2919.73665	3288.525
2922.21476	3267.925
2924.69136	3267.325
2927.16644	3263.725
2929.64	3253.625
2932.11205	3242.325
2934.58258	3232.225
2937.05161	3226.625
2939.51912	3216.825
2941.98513	3206.625
2944.44962	3175.425
2946.91261	3150.225
2949.37409	3152.225
2951.83407	3148.125
2954.29254	3129.125
2956.74951	3123.325
2959.20498	3119.125
2961.65895	3103.025
2964.11142	3102.025
2966.56239	3082.825
2969.01186	3091.525
2971.45984	3065.425
2973.90632	3071.425
2976.35131	3059.525
2978.7948	3052.625
2981.23681	3049.525
2983.67732	3032.825
2986.11635	3034.325
2988.55388	3005.725
2990.98993	3003.225
2993.4245	2993.025
2995.85758	2999.225
2998.28917	2977.725
3000.71928	2971.425
3003.14791	2966.125
3005.57506	2964.325
3008.00073	2960.225
3010.42493	2946.225
3012.84764	2938.425
3015.26888	2944.725
3017.68865	2926.525
3020.10694	2936.025
3022.52376	2930.025
3024.9391	2934.225
3027.35298	2912.425
3029.76539	2941.825
3032.17632	2921.325
3034.5858	2909.225
3036.9938	2895.725
3039.40034	2903.725
3041.80542	2894.225
3044.20903	2879.925
3046.61118	2879.025
3049.01187	2884.225
3051.4111	2881.425
3053.80888	2873.725
3056.20519	2868.625
3058.60005	2870.625
3060.99345	2872.825
3063.3854	2838.825
3065.7759	2851.325
3068.16494	2843.525
3070.55254	2831.125
3072.93868	2822.125
3075.32338	2798.325
3077.70662	2801.825
3080.08842	2787.725
3082.46878	2792.925
3084.84769	2776.825
3087.22515	2794.325
3089.60118	2784.425
3091.97576	2775.825
3094.3489	2780.625
3096.72061	2782.425
3099.09087	2777.725
3101.4597	2780.325
3103.82709	2777.425
3106.19305	2765.525
3108.55757	2775.025
3110.92066	2748.225
3113.28232	2764.425
3115.64255	2766.925
3118.00134	2764.925
3120.35871	2757.525
3122.71466	2745.225
3125.06917	2748.325
3127.42226	2745.025
3129.77393	2745.525
3132.12417	2752.725
3134.47299	2750.925
3136.82039	2755.625
3139.16636	2761.425
3141.51092	2769.025
3143.85406	2772.525
3146.19579	2779.225
3148.53609	2768.925
3150.87499	2774.525
3153.21246	2764.425
3155.54853	2787.725
3157.88318	2780.025
3160.21642	2782.925
3162.54826	2792.425
3164.87868	2795.325
3167.2077	2800.825
3169.5353	2807.725
3171.86151	2808.525
3174.18631	2794.425
3176.5097	2798.825
3178.83169	2796.325
3181.15228	2816.225
3183.47147	2800.625
3185.78926	2810.925
3188.10565	2795.625
3190.42065	2805.425
3192.73424	2801.425
3195.04645	2814.325
3197.35725	2809.125
3199.66667	2819.925
3201.97469	2820.325
3204.28132	2821.125
3206.58656	2838.125
3208.8904	2832.925
3211.19287	2832.125
3213.49394	2848.825
3215.79363	2846.125
3218.09193	2846.125
3220.38884	2827.225
3222.68438	2820.625
3224.97853	2839.525
3227.2713	2857.125
3229.56269	2847.125
3231.8527	2847.125
3234.14133	2849.225
3236.42858	2838.125
3238.71446	2836.825
3240.99896	2832.925
3243.28209	2834.225
3245.56384	2827.625
3247.84423	2825.925
3250.12324	2824.225
3252.40088	2822.125
3254.67715	2824.525
3256.95205	2819.025
3259.22558	2816.125
3261.49775	2814.825
3263.76855	2815.125
3266.03799	2812.525
3268.30606	2805.925
3270.57277	2810.325
3272.83812	2795.725
3275.10211	2793.125
3277.36474	2781.525
3279.62601	2779.225
3281.88593	2784.625
3284.14448	2789.725
3286.40168	2788.025
3288.65753	2772.825
3290.91202	2783.025
3293.16516	2787.425
3295.41695	2773.825
3297.66738	2755.025
3299.91647	2745.025
3302.16421	2727.925
3304.4106	2712.925
3306.65564	2695.825
3308.89933	2677.525
3311.14169	2663.425
3313.38269	2637.725
3315.62236	2611.425
3317.86068	2596.225
3320.09766	2574.425
3322.3333	2548.025
3324.5676	2544.625
3326.80056	2466.825
3329.03219	2475.725
3331.26248	1.025
3333.49143	-1.275
3335.71905	1.425
