Data from AgNPs_FTO_APTES_UA_50uM_CRN_100uM_R6G_10uM_NaF_0.1M_Addition_RamanShift__6__15-22-55-021.txt Node

Date: Mon Feb 21 15:22:55 GMT 2022
User: TCL
Spectrometer: QEP01345
Trigger mode: 4
Integration Time (sec): 7.000000E0
Scans to average: 10
Electric dark correction enabled: true
Nonlinearity correction enabled: false
Boxcar width: 0
XAxis mode: Raman Shifts
Number of Pixels in Spectrum: 1044
>>>>>Begin Spectral Data<<<<<
46.04893	0.6875
50.45542	-1.7125
54.85868	0.0875
59.25871	-2.2125
63.6555	58.9875
68.04907	64.0875
72.43941	65.8875
76.82654	72.5875
81.21044	69.9875
85.59113	76.3875
89.96862	74.2875
94.34289	80.9875
98.71396	82.3875
103.08183	87.6875
107.4465	88.7875
111.80798	89.6875
116.16626	84.0875
120.52136	89.1875
124.87327	94.4875
129.222	94.7875
133.56755	96.4875
137.90993	108.4875
142.24913	114.1875
146.58517	123.6875
150.91804	140.0875
155.24774	161.9875
159.57429	196.3875
163.89768	247.5875
168.21792	325.6875
172.53501	436.1875
176.84895	607.3875
181.15975	845.0875
185.46741	1184.0875
189.77193	1633.8875
194.07331	2172.3875
198.37157	2807.2875
202.6667	3456.2875
206.9587	4112.8875
211.24758	4761.0875
215.53334	5379.5875
219.81599	6068.5875
224.09553	6827.3875
228.37195	7644.0875
232.64527	8568.4875
236.91549	9545.7875
241.18261	10507.1875
245.44663	11397.4875
249.70755	12189.5875
253.96539	12861.7875
258.22014	13405.5875
262.4718	13862.9875
266.72039	14161.1875
270.96589	14317.6875
275.20832	14316.3875
279.44768	14208.2875
283.68397	14048.3875
287.91719	13909.8875
292.14735	13779.6875
296.37445	13750.3875
300.59849	13820.7875
304.81948	13886.2875
309.03742	13918.1875
313.25231	13860.4875
317.46415	13673.5875
321.67296	13417.1875
325.87872	13212.6875
330.08145	13135.0875
334.28114	13092.4875
338.47781	13201.6875
342.67145	13408.5875
346.86207	13589.4875
351.04966	13874.3875
355.23424	14137.2875
359.4158	14396.4875
363.59435	14559.7875
367.76989	14693.4875
371.94243	14785.2875
376.11196	14845.7875
380.27849	14904.6875
384.44203	14957.9875
388.60257	15058.0875
392.76012	15198.9875
396.91468	15299.2875
401.06626	15520.1875
405.21485	15653.4875
409.36047	15622.8875
413.50311	15361.9875
417.64277	15165.9875
421.77947	15085.8875
425.9132	15100.9875
430.04396	15150.6875
434.17176	15266.8875
438.2966	15391.1875
442.41849	15631.1875
446.53742	16014.6875
450.6534	16392.0875
454.76644	16644.2875
458.87653	16735.3875
462.98368	16668.2875
467.08789	16500.1875
471.18916	16281.7875
475.2875	16034.2875
479.38291	15832.6875
483.4754	15635.2875
487.56496	15491.2875
491.6516	15377.3875
495.73531	15334.4875
499.81612	15333.8875
503.89401	15442.1875
507.96899	15513.1875
512.04106	15529.3875
516.11023	15519.8875
520.1765	15453.4875
524.23987	15394.3875
528.30034	15350.7875
532.35792	15273.9875
536.41261	15168.5875
540.46441	15033.4875
544.51333	14972.8875
548.55936	15054.8875
552.60252	15292.9875
556.64279	15569.9875
560.6802	15752.1875
564.71473	15791.2875
568.7464	15927.6875
572.7752	16155.5875
576.80114	16435.7875
580.82422	16722.1875
584.84444	17201.1875
588.86181	17830.7875
592.87633	18530.7875
596.888	18760.6875
600.89682	18345.2875
604.9028	18304.3875
608.90594	19463.3875
612.90624	20921.5875
616.90371	19820.8875
620.89834	16955.1875
624.89015	15700.5875
628.87913	15474.7875
632.86528	15643.1875
636.84862	15753.3875
640.82913	15586.2875
644.80683	15281.2875
648.78172	15047.9875
652.75379	15023.4875
656.72306	15195.5875
660.68952	15387.3875
664.65319	15323.6875
668.61405	15108.4875
672.57211	15096.5875
676.52738	15164.9875
680.47986	15231.0875
684.42955	15085.9875
688.37646	15008.7875
692.32058	15026.0875
696.26192	15141.5875
700.20048	15283.7875
704.13626	15381.3875
708.06928	15372.0875
711.99952	15284.2875
715.927	15272.0875
719.85171	15318.6875
723.77365	15318.5875
727.69284	15172.7875
731.60928	14998.9875
735.52295	15013.6875
739.43388	15041.2875
743.34206	15072.6875
747.24749	15135.6875
751.15017	15217.0875
755.05012	15396.2875
758.94733	15725.9875
762.8418	16382.1875
766.73354	17444.2875
770.62254	18548.7875
774.50882	18908.6875
778.39237	18317.3875
782.27321	17173.5875
786.15132	16209.6875
790.02671	15586.2875
793.89938	15242.5875
797.76935	15043.2875
801.6366	15018.4875
805.50115	14936.1875
809.36299	14888.6875
813.22213	14790.8875
817.07857	14735.0875
820.93231	14678.7875
824.78336	14619.7875
828.63172	14626.5875
832.47738	14591.6875
836.32036	14585.8875
840.16066	14614.7875
843.99827	14611.5875
847.8332	14621.4875
851.66546	14630.1875
855.49504	14590.0875
859.32195	14625.3875
863.1462	14632.0875
866.96777	14637.8875
870.78668	14616.1875
874.60293	14638.9875
878.41652	14678.7875
882.22745	14739.4875
886.03573	14814.2875
889.84136	14799.5875
893.64433	14746.6875
897.44466	14709.7875
901.24235	14650.1875
905.0374	14597.5875
908.8298	14540.5875
912.61957	14541.3875
916.40671	14571.3875
920.19121	14695.1875
923.97308	14832.6875
927.75233	14888.4875
931.52895	14848.2875
935.30295	14699.3875
939.07433	14494.3875
942.84309	14340.3875
946.60924	14234.8875
950.37278	14177.6875
954.13371	14161.7875
957.89203	14147.6875
961.64774	14152.5875
965.40086	14130.5875
969.15137	14112.5875
972.89929	14064.4875
976.64461	14076.1875
980.38733	14077.7875
984.12747	14105.2875
987.86502	14174.7875
991.59999	14264.2875
995.33237	14380.7875
999.06217	14626.2875
1002.78939	14881.0875
1006.51404	15112.5875
1010.23611	15334.6875
1013.95561	15494.5875
1017.67255	15548.2875
1021.38692	15426.8875
1025.09872	15246.4875
1028.80796	15104.6875
1032.51465	15087.8875
1036.21877	15167.8875
1039.92035	15188.9875
1043.61937	15196.9875
1047.31584	15150.7875
1051.00976	15143.6875
1054.70114	15097.5875
1058.38998	15137.3875
1062.07627	15227.2875
1065.76003	15336.2875
1069.44126	15478.3875
1073.11995	15679.4875
1076.79611	15889.8875
1080.46974	16030.2875
1084.14085	16146.0875
1087.80943	16277.3875
1091.47549	16377.6875
1095.13903	16356.9875
1098.80005	16168.2875
1102.45857	15898.2875
1106.11456	15693.4875
1109.76805	15617.1875
1113.41903	15628.5875
1117.06751	15730.7875
1120.71348	15905.5875
1124.35696	16164.5875
1127.99793	16355.6875
1131.63641	16432.9875
1135.2724	16362.2875
1138.90589	16224.7875
1142.5369	16172.3875
1146.16542	16177.4875
1149.79145	16162.6875
1153.415	16220.7875
1157.03607	16335.1875
1160.65467	16650.9875
1164.27079	17146.8875
1167.88443	17836.6875
1171.49561	18673.0875
1175.10432	19773.8875
1178.71056	21164.8875
1182.31434	22492.0875
1185.91565	23172.6875
1189.51451	23066.7875
1193.11091	22571.9875
1196.70485	21843.6875
1200.29634	21029.3875
1203.88538	20356.0875
1207.47197	19733.5875
1211.05612	19251.7875
1214.63782	18838.8875
1218.21708	18524.4875
1221.79391	18319.6875
1225.36829	18268.0875
1228.94024	18227.1875
1232.50976	18074.7875
1236.07685	17863.5875
1239.6415	17677.8875
1243.20374	17642.7875
1246.76355	17768.0875
1250.32093	17901.7875
1253.8759	18157.5875
1257.42845	18478.9875
1260.97859	18915.6875
1264.52631	19431.1875
1268.07163	19870.3875
1271.61453	20304.3875
1275.15503	20724.8875
1278.69312	21123.9875
1282.22882	21499.5875
1285.76211	22062.4875
1289.29301	22743.0875
1292.82151	23541.9875
1296.34761	24515.4875
1299.87133	25634.7875
1303.39266	26908.7875
1306.9116	28181.7875
1310.42815	29362.6875
1313.94233	30017.0875
1317.45412	29773.6875
1320.96354	29026.9875
1324.47058	28156.3875
1327.97525	27357.3875
1331.47754	26798.9875
1334.97747	26523.3875
1338.47502	26435.5875
1341.97022	26390.8875
1345.46305	26535.6875
1348.95352	26853.9875
1352.44163	27385.7875
1355.92738	28329.4875
1359.41078	29705.6875
1362.89183	30937.6875
1366.37053	30531.2875
1369.84688	28194.3875
1373.32088	25159.1875
1376.79254	23061.2875
1380.26186	22044.8875
1383.72883	21780.7875
1387.19347	21525.7875
1390.65578	21184.9875
1394.11575	20933.9875
1397.57339	20998.0875
1401.0287	21130.1875
1404.48168	21255.4875
1407.93234	21225.3875
1411.38068	21027.2875
1414.82669	20717.5875
1418.27039	20285.9875
1421.71177	19814.8875
1425.15083	19369.6875
1428.58758	19140.3875
1432.02203	19260.2875
1435.45416	19557.1875
1438.88399	19885.8875
1442.31151	20121.9875
1445.73673	20225.5875
1449.15965	20304.7875
1452.58027	20338.1875
1455.9986	20265.0875
1459.41463	20320.6875
1462.82837	20609.9875
1466.23982	21014.3875
1469.64898	21392.9875
1473.05586	21721.9875
1476.46045	21876.1875
1479.86276	21961.3875
1483.26279	21949.0875
1486.66054	21998.9875
1490.05602	22202.2875
1493.44922	22587.6875
1496.84016	23097.4875
1500.22882	23753.6875
1503.61521	24663.2875
1506.99934	25607.3875
1510.38121	26281.4875
1513.76081	26298.4875
1517.13816	25477.5875
1520.51324	24317.7875
1523.88607	23355.2875
1527.25665	22816.2875
1530.62498	22579.8875
1533.99105	22330.7875
1537.35488	21996.4875
1540.71647	21600.4875
1544.07581	21204.5875
1547.4329	20777.2875
1550.78776	20404.1875
1554.14038	20205.6875
1557.49077	20094.5875
1560.83892	20117.5875
1564.18484	20202.1875
1567.52853	20356.6875
1570.86999	20537.4875
1574.20922	20837.2875
1577.54624	20921.0875
1580.88103	20724.1875
1584.2136	20540.4875
1587.54395	20669.3875
1590.87208	21352.3875
1594.19801	22364.5875
1597.52172	23486.0875
1600.84321	23935.3875
1604.16251	23358.4875
1607.47959	22008.9875
1610.79447	20574.0875
1614.10715	19174.4875
1617.41763	17987.5875
1620.7259	17180.8875
1624.03199	16695.7875
1627.33587	16658.6875
1630.63757	16985.6875
1633.93707	17790.6875
1637.23439	19144.5875
1640.52951	21230.6875
1643.82246	23705.4875
1647.11321	25843.4875
1650.40179	26341.9875
1653.68819	24667.4875
1656.97241	21775.2875
1660.25446	19004.3875
1663.53433	16976.9875
1666.81203	15747.2875
1670.08756	15003.8875
1673.36092	14573.3875
1676.63211	14276.7875
1679.90115	14047.2875
1683.16801	13876.9875
1686.43272	13736.8875
1689.69527	13614.6875
1692.95567	13490.4875
1696.2139	13313.6875
1699.46999	13149.6875
1702.72392	13106.1875
1705.97571	13170.1875
1709.22535	13223.7875
1712.47284	13301.6875
1715.71819	13320.5875
1718.96139	13272.8875
1722.20246	13274.9875
1725.44139	13227.5875
1728.67818	13164.7875
1731.91284	13089.2875
1735.14537	13006.0875
1738.37576	12984.7875
1741.60403	12943.2875
1744.83017	12877.0875
1748.05418	12848.3875
1751.27607	12822.1875
1754.49584	12748.6875
1757.71349	12695.6875
1760.92903	12645.0875
1764.14244	12644.0875
1767.35375	12633.5875
1770.56294	12600.3875
1773.77002	12573.7875
1776.97499	12593.8875
1780.17785	12627.6875
1783.37861	12645.0875
1786.57727	12639.9875
1789.77382	12636.9875
1792.96828	12618.0875
1796.16064	12574.7875
1799.3509	12562.4875
1802.53907	12527.8875
1805.72514	12530.6875
1808.90913	12468.0875
1812.09102	12431.0875
1815.27083	12440.3875
1818.44856	12419.6875
1821.6242	12403.2875
1824.79776	12397.2875
1827.96924	12396.1875
1831.13864	12379.2875
1834.30597	12354.3875
1837.47122	12357.1875
1840.6344	12376.7875
1843.7955	12362.2875
1846.95454	12357.6875
1850.11151	12335.8875
1853.26642	12322.6875
1856.41926	12316.4875
1859.57004	12296.3875
1862.71876	12289.8875
1865.86542	12276.3875
1869.01003	12269.4875
1872.15258	12265.9875
1875.29308	12239.6875
1878.43152	12201.0875
1881.56792	12217.7875
1884.70227	12217.2875
1887.83457	12189.2875
1890.96482	12186.1875
1894.09304	12171.6875
1897.21921	12161.2875
1900.34335	12139.2875
1903.46544	12116.4875
1906.58551	12120.6875
1909.70353	12078.7875
1912.81953	12072.8875
1915.93349	12087.3875
1919.04543	12040.2875
1922.15534	12006.2875
1925.26322	12018.0875
1928.36908	11978.9875
1931.47292	11972.1875
1934.57473	11931.5875
1937.67453	11919.5875
1940.77232	11886.8875
1943.86808	11853.6875
1946.96184	11815.0875
1950.05358	11796.8875
1953.14331	11764.1875
1956.23103	11756.4875
1959.31675	11687.0875
1962.40046	11672.4875
1965.48217	11624.7875
1968.56188	11626.0875
1971.63959	11561.8875
1974.7153	11531.3875
1977.78901	11512.2875
1980.86073	11492.6875
1983.93046	11428.8875
1986.99819	11398.6875
1990.06394	11374.0875
1993.1277	11372.3875
1996.18947	11300.1875
1999.24925	11270.1875
2002.30706	11234.1875
2005.36288	11219.4875
2008.41672	11177.6875
2011.46859	11128.4875
2014.51848	11115.0875
2017.56639	11086.6875
2020.61233	11061.4875
2023.6563	11046.1875
2026.6983	11008.8875
2029.73833	10995.6875
2032.7764	10954.9875
2035.8125	10948.2875
2038.84664	10926.4875
2041.87881	10937.4875
2044.90903	10896.3875
2047.93729	10894.1875
2050.96359	10891.4875
2053.98794	10869.9875
2057.01034	10877.1875
2060.03078	10849.6875
2063.04927	10854.9875
2066.06582	10826.3875
2069.08042	10804.1875
2072.09307	10824.9875
2075.10378	10815.9875
2078.11255	10817.9875
2081.11938	10839.6875
2084.12426	10807.5875
2087.12722	10805.4875
2090.12824	10800.2875
2093.12732	10775.1875
2096.12447	10792.2875
2099.11969	10786.2875
2102.11299	10801.0875
2105.10435	10796.6875
2108.09379	10782.3875
2111.08131	10828.8875
2114.0669	10799.8875
2117.05057	10795.6875
2120.03233	10820.2875
2123.01216	10859.9875
2125.99008	10883.9875
2128.96609	10863.3875
2131.94018	10884.6875
2134.91236	10866.5875
2137.88263	10875.3875
2140.851	10883.3875
2143.81746	10894.4875
2146.78201	10928.3875
2149.74466	10914.8875
2152.7054	10915.3875
2155.66425	10885.1875
2158.6212	10896.5875
2161.57625	10897.2875
2164.52941	10889.5875
2167.48067	10889.5875
2170.43004	10879.9875
2173.37752	10871.2875
2176.32311	10862.4875
2179.26681	10870.9875
2182.20863	10887.4875
2185.14856	10877.5875
2188.08661	10901.0875
2191.02278	10897.9875
2193.95707	10885.7875
2196.88948	10842.7875
2199.82001	10868.5875
2202.74867	10872.3875
2205.67545	10841.1875
2208.60037	10842.0875
2211.52341	10820.0875
2214.44458	10783.3875
2217.36388	10805.0875
2220.28132	10750.8875
2223.1969	10738.6875
2226.11061	10721.4875
2229.02246	10700.7875
2231.93245	10684.8875
2234.84058	10668.3875
2237.74686	10654.1875
2240.65128	10634.2875
2243.55385	10663.8875
2246.45456	10646.4875
2249.35343	10631.2875
2252.25044	10609.5875
2255.14561	10603.0875
2258.03893	10588.5875
2260.93041	10544.5875
2263.82004	10555.0875
2266.70783	10520.5875
2269.59378	10488.3875
2272.4779	10475.9875
2275.36017	10467.3875
2278.24061	10429.3875
2281.11922	10404.6875
2283.996	10376.5875
2286.87094	10401.3875
2289.74405	10367.4875
2292.61534	10340.1875
2295.4848	10333.2875
2298.35243	10357.1875
2301.21824	10359.0875
2304.08223	10328.2875
2306.94439	10336.0875
2309.80474	10335.2875
2312.66327	10324.4875
2315.51999	10319.8875
2318.37489	10317.7875
2321.22797	10313.0875
2324.07925	10291.4875
2326.92871	10280.6875
2329.77637	10261.5875
2332.62222	10237.4875
2335.46626	10234.7875
2338.3085	10224.7875
2341.14893	10220.0875
2343.98756	10214.9875
2346.8244	10201.0875
2349.65943	10220.0875
2352.49267	10225.7875
2355.32411	10188.4875
2358.15376	10202.1875
2360.98161	10200.5875
2363.80768	10177.9875
2366.63195	10175.1875
2369.45444	10162.5875
2372.27514	10162.3875
2375.09405	10159.4875
2377.91118	10127.3875
2380.72652	10138.8875
2383.54009	10089.2875
2386.35187	10076.1875
2389.16188	10058.7875
2391.97011	10044.8875
2394.77657	10025.4875
2397.58125	10004.9875
2400.38416	9979.4875
2403.18529	9992.4875
2405.98466	9963.5875
2408.78226	9957.3875
2411.57809	9927.5875
2414.37216	9929.6875
2417.16446	9914.0875
2419.955	9902.8875
2422.74378	9929.2875
2425.5308	9901.0875
2428.31606	9911.6875
2431.09956	9919.1875
2433.88131	9903.0875
2436.6613	9888.2875
2439.43954	9884.3875
2442.21603	9886.4875
2444.99077	9882.7875
2447.76377	9878.3875
2450.53501	9911.3875
2453.30451	9888.0875
2456.07226	9844.7875
2458.83827	9842.6875
2461.60254	9860.8875
2464.36507	9866.7875
2467.12586	9892.4875
2469.88492	9868.3875
2472.64224	9851.8875
2475.39782	9859.4875
2478.15167	9832.7875
2480.90379	9851.9875
2483.65417	9861.4875
2486.40283	9837.3875
2489.14976	9851.8875
2491.89497	9833.5875
2494.63845	9832.4875
2497.3802	9821.1875
2500.12024	9808.9875
2502.85855	9834.1875
2505.59514	9810.2875
2508.33002	9771.7875
2511.06318	9768.4875
2513.79462	9771.9875
2516.52435	9757.1875
2519.25237	9760.1875
2521.97867	9734.7875
2524.70327	9758.6875
2527.42616	9730.2875
2530.14734	9717.5875
2532.86681	9694.3875
2535.58458	9704.6875
2538.30065	9717.0875
2541.01501	9701.8875
2543.72768	9687.0875
2546.43864	9669.0875
2549.14791	9670.5875
2551.85548	9658.0875
2554.56136	9655.6875
2557.26554	9615.5875
2559.96803	9642.2875
2562.66883	9619.0875
2565.36794	9611.8875
2568.06536	9603.1875
2570.7611	9597.4875
2573.45514	9588.5875
2576.14751	9579.6875
2578.83819	9542.4875
2581.52719	9525.2875
2584.21451	9509.9875
2586.90015	9514.4875
2589.58411	9474.0875
2592.2664	9466.3875
2594.94701	9454.9875
2597.62594	9478.2875
2600.30321	9455.1875
2602.9788	9457.1875
2605.65273	9469.9875
2608.32498	9461.0875
2610.99557	9440.4875
2613.66449	9453.1875
2616.33175	9449.9875
2618.99734	9432.4875
2621.66128	9437.4875
2624.32355	9427.6875
2626.98416	9427.1875
2629.64311	9404.6875
2632.30041	9382.3875
2634.95605	9369.6875
2637.61004	9336.3875
2640.26238	9357.7875
2642.91306	9352.8875
2645.56209	9348.1875
2648.20948	9346.1875
2650.85521	9318.0875
2653.4993	9339.8875
2656.14175	9321.5875
2658.78255	9313.5875
2661.42171	9346.6875
2664.05923	9358.4875
2666.6951	9358.8875
2669.32934	9402.4875
2671.96194	9373.3875
2674.59291	9363.5875
2677.22224	9376.1875
2679.84993	9358.4875
2682.476	9380.2875
2685.10043	9341.5875
2687.72324	9348.0875
2690.34441	9353.9875
2692.96396	9368.6875
2695.58188	9361.0875
2698.19818	9350.6875
2700.81285	9339.0875
2703.4259	9317.2875
2706.03733	9257.5875
2708.64714	9287.9875
2711.25533	9338.4875
2713.86191	9328.4875
2716.46687	9376.0875
2719.07021	9375.5875
2721.67194	9395.4875
2724.27206	9391.0875
2726.87057	9383.7875
2729.46747	9386.3875
2732.06276	9402.8875
2734.65644	9364.6875
2737.24852	9366.4875
2739.83899	9382.3875
2742.42786	9364.1875
2745.01513	9352.0875
2747.60079	9360.7875
2750.18486	9351.0875
2752.76733	9347.7875
2755.3482	9346.2875
2757.92747	9336.2875
2760.50515	9320.0875
2763.08123	9315.1875
2765.65573	9312.1875
2768.22863	9299.8875
2770.79994	9266.1875
2773.36967	9273.4875
2775.9378	9253.5875
2778.50435	9257.1875
2781.06932	9277.2875
2783.6327	9282.7875
2786.1945	9259.4875
2788.75471	9257.8875
2791.31335	9235.3875
2793.87041	9200.4875
2796.42589	9218.1875
2798.97979	9192.2875
2801.53212	9179.2875
2804.08288	9172.3875
2806.63206	9148.4875
2809.17967	9134.1875
2811.72571	9095.9875
2814.27018	9086.8875
2816.81308	9096.5875
2819.35442	9078.9875
2821.89419	9081.5875
2824.43239	9075.0875
2826.96904	9057.3875
2829.50412	9042.9875
2832.03763	9021.9875
2834.56959	9043.0875
2837.1	9033.2875
2839.62884	9053.0875
2842.15613	9032.8875
2844.68186	9025.7875
2847.20604	9041.9875
2849.72867	9063.3875
2852.24974	9021.7875
2854.76927	8997.3875
2857.28724	8999.1875
2859.80367	8999.7875
2862.31855	8978.2875
2864.83189	8985.9875
2867.34368	8950.3875
2869.85393	8970.2875
2872.36264	8985.0875
2874.8698	8981.8875
2877.37543	8993.5875
2879.87952	8933.0875
2882.38207	8937.1875
2884.88308	8931.1875
2887.38256	8975.4875
2889.88051	8956.3875
2892.37692	8959.2875
2894.8718	8955.1875
2897.36515	8985.2875
2899.85698	8987.7875
2902.34727	8999.8875
2904.83604	8989.8875
2907.32328	9014.5875
2909.809	9018.4875
2912.29319	9040.8875
2914.77587	9020.7875
2917.25702	9031.9875
2919.73665	9014.8875
2922.21476	9015.6875
2924.69136	8999.8875
2927.16644	9023.9875
2929.64	9002.3875
2932.11205	9018.1875
2934.58258	8976.4875
2937.05161	8984.1875
2939.51912	8993.5875
2941.98513	8973.6875
2944.44962	8949.4875
2946.91261	8928.3875
2949.37409	8947.2875
2951.83407	8921.7875
2954.29254	8928.8875
2956.74951	8918.6875
2959.20498	8916.0875
2961.65895	8890.0875
2964.11142	8877.0875
2966.56239	8851.9875
2969.01186	8849.6875
2971.45984	8835.7875
2973.90632	8838.5875
2976.35131	8811.6875
2978.7948	8805.5875
2981.23681	8804.7875
2983.67732	8776.6875
2986.11635	8756.2875
2988.55388	8725.6875
2990.98993	8724.9875
2993.4245	8704.9875
2995.85758	8691.5875
2998.28917	8653.7875
3000.71928	8669.2875
3003.14791	8648.4875
3005.57506	8652.5875
3008.00073	8619.5875
3010.42493	8596.3875
3012.84764	8593.6875
3015.26888	8603.9875
3017.68865	8576.9875
3020.10694	8580.4875
3022.52376	8558.2875
3024.9391	8517.9875
3027.35298	8526.9875
3029.76539	8522.7875
3032.17632	8518.9875
3034.5858	8494.0875
3036.9938	8473.3875
3039.40034	8474.9875
3041.80542	8469.3875
3044.20903	8459.7875
3046.61118	8480.8875
3049.01187	8457.0875
3051.4111	8443.3875
3053.80888	8430.0875
3056.20519	8418.5875
3058.60005	8394.8875
3060.99345	8390.4875
3063.3854	8369.0875
3065.7759	8353.5875
3068.16494	8331.9875
3070.55254	8316.4875
3072.93868	8299.9875
3075.32338	8253.7875
3077.70662	8241.5875
3080.08842	8236.2875
3082.46878	8259.0875
3084.84769	8232.1875
3087.22515	8207.5875
3089.60118	8232.7875
3091.97576	8207.6875
3094.3489	8203.8875
3096.72061	8213.9875
3099.09087	8228.5875
3101.4597	8223.6875
3103.82709	8223.6875
3106.19305	8212.1875
3108.55757	8217.1875
3110.92066	8208.2875
3113.28232	8211.1875
3115.64255	8173.3875
3118.00134	8165.0875
3120.35871	8154.3875
3122.71466	8132.9875
3125.06917	8145.4875
3127.42226	8113.9875
3129.77393	8148.5875
3132.12417	8115.7875
3134.47299	8098.2875
3136.82039	8101.8875
3139.16636	8118.6875
3141.51092	8098.9875
3143.85406	8114.0875
3146.19579	8115.7875
3148.53609	8102.4875
3150.87499	8099.1875
3153.21246	8107.6875
3155.54853	8140.9875
3157.88318	8121.1875
3160.21642	8132.5875
3162.54826	8125.1875
3164.87868	8123.1875
3167.2077	8141.3875
3169.5353	8120.7875
3171.86151	8152.2875
3174.18631	8126.1875
3176.5097	8115.4875
3178.83169	8111.8875
3181.15228	8119.8875
3183.47147	8110.3875
3185.78926	8104.4875
3188.10565	8099.6875
3190.42065	8083.9875
3192.73424	8117.5875
3195.04645	8102.1875
3197.35725	8074.5875
3199.66667	8052.1875
3201.97469	8070.9875
3204.28132	8073.3875
3206.58656	8073.8875
3208.8904	8071.3875
3211.19287	8083.7875
3213.49394	8074.9875
3215.79363	8096.3875
3218.09193	8104.7875
3220.38884	8116.7875
3222.68438	8089.4875
3224.97853	8060.6875
3227.2713	8079.1875
3229.56269	8080.4875
3231.8527	8056.3875
3234.14133	8045.6875
3236.42858	8032.9875
3238.71446	8013.3875
3240.99896	8003.2875
3243.28209	7985.4875
3245.56384	7977.3875
3247.84423	8006.9875
3250.12324	7985.3875
3252.40088	7982.7875
3254.67715	7974.7875
3256.95205	7975.0875
3259.22558	7953.4875
3261.49775	7948.9875
3263.76855	7963.4875
3266.03799	7954.2875
3268.30606	7949.0875
3270.57277	7941.6875
3272.83812	7920.6875
3275.10211	7898.6875
3277.36474	7873.5875
3279.62601	7882.8875
3281.88593	7881.3875
3284.14448	7871.1875
3286.40168	7880.5875
3288.65753	7870.3875
3290.91202	7865.4875
3293.16516	7854.6875
3295.41695	7862.6875
3297.66738	7798.4875
3299.91647	7742.8875
3302.16421	7708.9875
3304.4106	7685.1875
3306.65564	7622.9875
3308.89933	7571.4875
3311.14169	7520.3875
3313.38269	7451.0875
3315.62236	7402.9875
3317.86068	7346.9875
3320.09766	7296.4875
3322.3333	7243.7875
3324.5676	7218.6875
3326.80056	7089.3875
3329.03219	7056.2875
3331.26248	1.7875
3333.49143	-0.6125
3335.71905	1.1875
