Data from AgNPs_FTO_APTES_UA_50uM_CRN_2uM_R6G_10uM_NaF_0.1M_Addition_RamanShift__7__12-02-14-765.txt Node

Date: Mon Feb 21 12:02:14 GMT 2022
User: TCL
Spectrometer: QEP01345
Trigger mode: 4
Integration Time (sec): 7.000000E0
Scans to average: 10
Electric dark correction enabled: true
Nonlinearity correction enabled: false
Boxcar width: 0
XAxis mode: Raman Shifts
Number of Pixels in Spectrum: 1044
>>>>>Begin Spectral Data<<<<<
46.04893	-1.8
50.45542	-1.1
54.85868	-1.2
59.25871	-1
63.6555	74.6
68.04907	79.9
72.43941	81.1
76.82654	87.5
81.21044	89.1
85.59113	93.3
89.96862	93.2
94.34289	98.2
98.71396	100.5
103.08183	108.8
107.4465	109.8
111.80798	107.3
116.16626	109.8
120.52136	110.9
124.87327	122.7
129.222	123.6
133.56755	129.6
137.90993	142.3
142.24913	150.4
146.58517	172.6
150.91804	199.1
155.24774	234.8
159.57429	291
163.89768	367.6
168.21792	494.7
172.53501	668.7
176.84895	937.8
181.15975	1315.1
185.46741	1855.4
189.77193	2542.2
194.07331	3420
198.37157	4417.2
202.6667	5436
206.9587	6489
211.24758	7487.4
215.53334	8510.7
219.81599	9597.4
224.09553	10756.5
228.37195	12055.9
232.64527	13501.5
236.91549	15000.1
241.18261	16534.3
245.44663	17998.4
249.70755	19256.5
253.96539	20433.2
258.22014	21397.5
262.4718	22110
266.72039	22619.8
270.96589	22854.7
275.20832	22860.8
279.44768	22721.8
283.68397	22471.3
287.91719	22199
292.14735	22075.1
296.37445	21940
300.59849	22005.9
304.81948	22064.4
309.03742	22112.1
313.25231	22062.5
317.46415	21838.2
321.67296	21495.6
325.87872	21223.9
330.08145	21101
334.28114	21077.2
338.47781	21213.7
342.67145	21477.6
346.86207	21821
351.04966	22230.1
355.23424	22637.4
359.4158	23054.3
363.59435	23367.8
367.76989	23638
371.94243	23709.8
376.11196	23806.4
380.27849	23874.6
384.44203	23957.3
388.60257	24161.9
392.76012	24381.8
396.91468	24655.9
401.06626	25043.6
405.21485	25275.6
409.36047	25202.2
413.50311	24936.5
417.64277	24766.3
421.77947	24790.4
425.9132	24904.1
430.04396	24983.8
434.17176	25105.2
438.2966	25265.5
442.41849	25635.5
446.53742	26212.1
450.6534	26868.8
454.76644	27319.2
458.87653	27479.1
462.98368	27414.5
467.08789	27180.5
471.18916	26826.2
475.2875	26449.1
479.38291	26144.8
483.4754	25987.8
487.56496	25798.2
491.6516	25587.3
495.73531	25348.8
499.81612	25212.4
503.89401	25358.7
507.96899	25448.9
512.04106	25428.3
516.11023	25344.7
520.1765	25247.6
524.23987	25099.4
528.30034	24929.6
532.35792	24832.7
536.41261	24664.9
540.46441	24447.2
544.51333	24374.8
548.55936	24481.8
552.60252	24858.7
556.64279	25367.1
560.6802	25757.6
564.71473	25981.8
568.7464	26371.7
572.7752	27005.1
576.80114	27673.6
580.82422	28370.2
584.84444	29270
588.86181	30549.8
592.87633	31761.5
596.888	31898.4
600.89682	30706
604.9028	30190.5
608.90594	31590.6
612.90624	33393.4
616.90371	31713.4
620.89834	27604.4
624.89015	25736.2
628.87913	25532.2
632.86528	25730.1
636.84862	25740.8
640.82913	25371.8
644.80683	24847.7
648.78172	24524.1
652.75379	24511.8
656.72306	24770.5
660.68952	25173.7
664.65319	25091.2
668.61405	24720.9
672.57211	24749.6
676.52738	24885.8
680.47986	24936.9
684.42955	24740.2
688.37646	24627.3
692.32058	24758.7
696.26192	25116.4
700.20048	25415.7
704.13626	25580.7
708.06928	25566.4
711.99952	25491.6
715.927	25509.3
719.85171	25595.9
723.77365	25497.9
727.69284	25160.1
731.60928	24865.7
735.52295	24738
739.43388	24735.5
743.34206	24842.4
747.24749	24976.8
751.15017	25141.5
755.05012	25466
758.94733	26026.9
762.8418	27009.5
766.73354	28464.3
770.62254	29902.3
774.50882	30229.6
778.39237	29208.5
782.27321	27737.9
786.15132	26439.3
790.02671	25635.1
793.89938	25112.1
797.76935	24869.1
801.6366	24829.4
805.50115	24766.7
809.36299	24652.4
813.22213	24530.5
817.07857	24477.9
820.93231	24391.5
824.78336	24357.1
828.63172	24254.9
832.47738	24222.5
836.32036	24228.7
840.16066	24278.7
843.99827	24311.9
847.8332	24333.9
851.66546	24304.2
855.49504	24335.8
859.32195	24377.4
863.1462	24305.3
866.96777	24271.9
870.78668	24241.3
874.60293	24333.3
878.41652	24371.5
882.22745	24427
886.03573	24525.9
889.84136	24529.8
893.64433	24462
897.44466	24382.3
901.24235	24255.1
905.0374	24194.5
908.8298	24179.7
912.61957	24179.9
916.40671	24285.9
920.19121	24534.5
923.97308	24775.9
927.75233	24897.3
931.52895	24717.7
935.30295	24379.2
939.07433	24032
942.84309	23835.1
946.60924	23737.2
950.37278	23664.2
954.13371	23675.8
957.89203	23670.6
961.64774	23654.4
965.40086	23650.8
969.15137	23647.6
972.89929	23606
976.64461	23582.2
980.38733	23599.2
984.12747	23655.8
987.86502	23724.8
991.59999	23908.2
995.33237	24156.1
999.06217	24487.8
1002.78939	24924.4
1006.51404	25414.1
1010.23611	25812.6
1013.95561	26087.5
1017.67255	26115.2
1021.38692	25906
1025.09872	25513.6
1028.80796	25304.8
1032.51465	25320.5
1036.21877	25446.3
1039.92035	25609.7
1043.61937	25610.9
1047.31584	25530.6
1051.00976	25395.1
1054.70114	25346.6
1058.38998	25397.9
1062.07627	25582.1
1065.76003	25824.9
1069.44126	26182.6
1073.11995	26552.3
1076.79611	26929.7
1080.46974	27191.4
1084.14085	27358.7
1087.80943	27589.1
1091.47549	27830.6
1095.13903	27884.1
1098.80005	27562.6
1102.45857	27024.2
1106.11456	26561.4
1109.76805	26361.6
1113.41903	26284.9
1117.06751	26409
1120.71348	26626.7
1124.35696	26872.2
1127.99793	27083.1
1131.63641	27265.4
1135.2724	27167.3
1138.90589	27139.1
1142.5369	27079.4
1146.16542	27246.5
1149.79145	27410.5
1153.415	27604.2
1157.03607	27824.9
1160.65467	28358.1
1164.27079	29267.9
1167.88443	30458.4
1171.49561	31757.8
1175.10432	33445.1
1178.71056	35615.8
1182.31434	37621.9
1185.91565	38597.8
1189.51451	38523.7
1193.11091	37750.2
1196.70485	36687.9
1200.29634	35508.5
1203.88538	34653.5
1207.47197	34213.3
1211.05612	33792.5
1214.63782	33270.9
1218.21708	32640.8
1221.79391	31989
1225.36829	31537.1
1228.94024	31311.4
1232.50976	31021.8
1236.07685	30647.9
1239.6415	30352.5
1243.20374	30302.3
1246.76355	30501.5
1250.32093	30848
1253.8759	31404.1
1257.42845	32098.9
1260.97859	32898
1264.52631	33848
1268.07163	34809.9
1271.61453	35647.8
1275.15503	36389.8
1278.69312	37291.6
1282.22882	38200.1
1285.76211	39293.2
1289.29301	40605.8
1292.82151	42032.3
1296.34761	43796.7
1299.87133	45857.7
1303.39266	47946.9
1306.9116	49895.2
1310.42815	51551.6
1313.94233	52307.6
1317.45412	51942.9
1320.96354	51071
1324.47058	50080.4
1327.97525	49318.2
1331.47754	48807.8
1334.97747	48458.2
1338.47502	48098.7
1341.97022	47698.3
1345.46305	47188.3
1348.95352	46827.8
1352.44163	47023.8
1355.92738	48060.9
1359.41078	50033.8
1362.89183	51841.1
1366.37053	51611.7
1369.84688	48223
1373.32088	43621.8
1376.79254	40193.3
1380.26186	38769.2
1383.72883	38631
1387.19347	38493
1390.65578	37960.5
1394.11575	37644.5
1397.57339	37697.2
1401.0287	38095.6
1404.48168	38462.9
1407.93234	38473.5
1411.38068	38024.9
1414.82669	37257.5
1418.27039	36194.3
1421.71177	35145.1
1425.15083	34263.2
1428.58758	33907.9
1432.02203	34193.3
1435.45416	34911.8
1438.88399	35695.7
1442.31151	36213.7
1445.73673	36416.6
1449.15965	36587.5
1452.58027	36583.5
1455.9986	36471.9
1459.41463	36520.6
1462.82837	37068
1466.23982	37749.4
1469.64898	38417.7
1473.05586	38870.4
1476.46045	39050.3
1479.86276	39029
1483.26279	38965
1486.66054	38948.4
1490.05602	39250.9
1493.44922	39737.8
1496.84016	40292.6
1500.22882	40930.1
1503.61521	41838.7
1506.99934	42808.3
1510.38121	43556.8
1513.76081	43632.1
1517.13816	42811
1520.51324	41638.5
1523.88607	40612.9
1527.25665	40142.4
1530.62498	39949
1533.99105	39602.3
1537.35488	39092.8
1540.71647	38347.1
1544.07581	37421.9
1547.4329	36570.3
1550.78776	35874.5
1554.14038	35323
1557.49077	35109.8
1560.83892	35042.3
1564.18484	35049
1567.52853	35137.7
1570.86999	35503.2
1574.20922	35999.1
1577.54624	36461.1
1580.88103	36540.3
1584.2136	36678.2
1587.54395	37571.4
1590.87208	39270.5
1594.19801	41494.1
1597.52172	43436.3
1600.84321	43890.8
1604.16251	42222
1607.47959	39326.2
1610.79447	36316.1
1614.10715	33498.5
1617.41763	31363.7
1620.7259	29965
1624.03199	29252.4
1627.33587	29292.5
1630.63757	30017
1633.93707	31655.1
1637.23439	34412.4
1640.52951	38590.3
1643.82246	43393.8
1647.11321	47273.8
1650.40179	47921.4
1653.68819	44617.7
1656.97241	39064.2
1660.25446	33793.7
1663.53433	30017.4
1666.81203	27698.3
1670.08756	26259.7
1673.36092	25419.9
1676.63211	24870.3
1679.90115	24476.5
1683.16801	24140.1
1686.43272	23916.5
1689.69527	23686.7
1692.95567	23482.2
1696.2139	23309.5
1699.46999	23100.5
1702.72392	23094.3
1705.97571	23112.1
1709.22535	23181.2
1712.47284	23254.8
1715.71819	23258.5
1718.96139	23218.5
1722.20246	23155.1
1725.44139	23067.5
1728.67818	22953
1731.91284	22837.3
1735.14537	22755.8
1738.37576	22693.3
1741.60403	22573.5
1744.83017	22479.8
1748.05418	22433.5
1751.27607	22344.8
1754.49584	22254.8
1757.71349	22169.1
1760.92903	22139.7
1764.14244	22141.6
1767.35375	22159.4
1770.56294	22118.5
1773.77002	22131.8
1776.97499	22137
1780.17785	22145.7
1783.37861	22147.7
1786.57727	22087.4
1789.77382	22141.9
1792.96828	22101.2
1796.16064	22113.4
1799.3509	22081.7
1802.53907	21971.1
1805.72514	21954.3
1808.90913	21908.6
1812.09102	21866.2
1815.27083	21826.8
1818.44856	21823.9
1821.6242	21806.4
1824.79776	21791
1827.96924	21794.9
1831.13864	21793.5
1834.30597	21815.3
1837.47122	21808.1
1840.6344	21822.8
1843.7955	21792.7
1846.95454	21728.6
1850.11151	21727.8
1853.26642	21705.8
1856.41926	21698.9
1859.57004	21688.6
1862.71876	21717.9
1865.86542	21651.4
1869.01003	21642.1
1872.15258	21637
1875.29308	21619.3
1878.43152	21609.1
1881.56792	21556.3
1884.70227	21603.7
1887.83457	21574.9
1890.96482	21498.4
1894.09304	21484.5
1897.21921	21452
1900.34335	21390.7
1903.46544	21390
1906.58551	21385.8
1909.70353	21341.7
1912.81953	21351
1915.93349	21325.4
1919.04543	21266.4
1922.15534	21243.6
1925.26322	21193.5
1928.36908	21150.8
1931.47292	21104.9
1934.57473	21085.5
1937.67453	21052.4
1940.77232	20993.1
1943.86808	20959.6
1946.96184	20905.8
1950.05358	20853.8
1953.14331	20807.9
1956.23103	20717
1959.31675	20671.4
1962.40046	20625.2
1965.48217	20613.4
1968.56188	20575.2
1971.63959	20474.1
1974.7153	20446.1
1977.78901	20405.8
1980.86073	20337.2
1983.93046	20247.5
1986.99819	20182.9
1990.06394	20123.5
1993.1277	20119.7
1996.18947	20040.4
1999.24925	19988.8
2002.30706	19925.8
2005.36288	19890.8
2008.41672	19848.7
2011.46859	19783.5
2014.51848	19673.9
2017.56639	19648.9
2020.61233	19658.5
2023.6563	19643.2
2026.6983	19573.9
2029.73833	19512.8
2032.7764	19491.7
2035.8125	19420.3
2038.84664	19440.6
2041.87881	19406.8
2044.90903	19341.1
2047.93729	19332.8
2050.96359	19307.4
2053.98794	19257.8
2057.01034	19273.5
2060.03078	19271.9
2063.04927	19218.8
2066.06582	19206.9
2069.08042	19216.7
2072.09307	19194.8
2075.10378	19196
2078.11255	19186.1
2081.11938	19195.3
2084.12426	19170.3
2087.12722	19187.7
2090.12824	19166.4
2093.12732	19182.6
2096.12447	19179.6
2099.11969	19181.1
2102.11299	19216.9
2105.10435	19223.3
2108.09379	19221.4
2111.08131	19233.8
2114.0669	19248.7
2117.05057	19306
2120.03233	19334
2123.01216	19318.4
2125.99008	19340.6
2128.96609	19377.1
2131.94018	19362.2
2134.91236	19393.4
2137.88263	19386.4
2140.851	19417.5
2143.81746	19434.1
2146.78201	19416.6
2149.74466	19407
2152.7054	19428
2155.66425	19414.4
2158.6212	19438.6
2161.57625	19430.2
2164.52941	19414.5
2167.48067	19423.5
2170.43004	19422.4
2173.37752	19436.1
2176.32311	19446.2
2179.26681	19434
2182.20863	19439.8
2185.14856	19475.2
2188.08661	19448.1
2191.02278	19433.6
2193.95707	19424.8
2196.88948	19428.3
2199.82001	19411.3
2202.74867	19389.9
2205.67545	19367.7
2208.60037	19323.4
2211.52341	19327.8
2214.44458	19275.9
2217.36388	19237.9
2220.28132	19215.2
2223.1969	19145.4
2226.11061	19161.9
2229.02246	19113.1
2231.93245	19139.4
2234.84058	19086.6
2237.74686	19100.8
2240.65128	19033
2243.55385	19021.4
2246.45456	19032.6
2249.35343	18986.1
2252.25044	18961.9
2255.14561	18941.6
2258.03893	18947.7
2260.93041	18866.4
2263.82004	18856.7
2266.70783	18810.9
2269.59378	18803.8
2272.4779	18725.4
2275.36017	18705.5
2278.24061	18663.6
2281.11922	18654.3
2283.996	18636.3
2286.87094	18602.1
2289.74405	18568.2
2292.61534	18585.1
2295.4848	18548.7
2298.35243	18548.9
2301.21824	18547.2
2304.08223	18535.4
2306.94439	18503
2309.80474	18519.2
2312.66327	18530.5
2315.51999	18497.5
2318.37489	18498.2
2321.22797	18475.4
2324.07925	18455.6
2326.92871	18443.1
2329.77637	18419.4
2332.62222	18388.7
2335.46626	18384.7
2338.3085	18355.1
2341.14893	18359.5
2343.98756	18375.5
2346.8244	18405.4
2349.65943	18372.6
2352.49267	18370.8
2355.32411	18365.3
2358.15376	18342
2360.98161	18331.7
2363.80768	18291.4
2366.63195	18312.1
2369.45444	18258.8
2372.27514	18270.8
2375.09405	18261.1
2377.91118	18221.4
2380.72652	18178.2
2383.54009	18116.7
2386.35187	18138
2389.16188	18093.2
2391.97011	18066.5
2394.77657	18061.7
2397.58125	18027.3
2400.38416	18002.2
2403.18529	17982.1
2405.98466	17992.9
2408.78226	17952.3
2411.57809	17920.4
2414.37216	17902.6
2417.16446	17894.3
2419.955	17909.4
2422.74378	17935
2425.5308	17831.1
2428.31606	17810.3
2431.09956	17839.7
2433.88131	17825.5
2436.6613	17843.2
2439.43954	17853.1
2442.21603	17859.7
2444.99077	17838.3
2447.76377	17825.6
2450.53501	17837.7
2453.30451	17810.3
2456.07226	17792.1
2458.83827	17787.4
2461.60254	17784.3
2464.36507	17768.9
2467.12586	17704.6
2469.88492	17741
2472.64224	17735.3
2475.39782	17732.3
2478.15167	17743.2
2480.90379	17745.6
2483.65417	17754.8
2486.40283	17778.7
2489.14976	17771.8
2491.89497	17776.5
2494.63845	17749.4
2497.3802	17725.1
2500.12024	17737.5
2502.85855	17726.3
2505.59514	17712.7
2508.33002	17683.9
2511.06318	17669.3
2513.79462	17658.2
2516.52435	17619.3
2519.25237	17610.6
2521.97867	17601
2524.70327	17603.7
2527.42616	17563.6
2530.14734	17577.9
2532.86681	17579.6
2535.58458	17589.1
2538.30065	17574.1
2541.01501	17591
2543.72768	17547.2
2546.43864	17513.3
2549.14791	17526.4
2551.85548	17516.6
2554.56136	17470.5
2557.26554	17424.2
2559.96803	17386.5
2562.66883	17392.3
2565.36794	17369.1
2568.06536	17381.5
2570.7611	17358
2573.45514	17322.1
2576.14751	17334.9
2578.83819	17289
2581.52719	17265.6
2584.21451	17299.5
2586.90015	17238.6
2589.58411	17218.7
2592.2664	17235
2594.94701	17177.2
2597.62594	17202
2600.30321	17179.2
2602.9788	17159
2605.65273	17151
2608.32498	17148.4
2610.99557	17178.8
2613.66449	17169.7
2616.33175	17136.3
2618.99734	17133
2621.66128	17113.8
2624.32355	17064.1
2626.98416	17070.4
2629.64311	17093.3
2632.30041	17066.8
2634.95605	17033.7
2637.61004	17029.7
2640.26238	16998
2642.91306	17011.9
2645.56209	16996.8
2648.20948	16967.8
2650.85521	17017
2653.4993	16984.5
2656.14175	17026.2
2658.78255	17060
2661.42171	17034.9
2664.05923	17047.8
2666.6951	17061.3
2669.32934	17098.4
2671.96194	17122
2674.59291	17081.3
2677.22224	17094.1
2679.84993	17072.9
2682.476	17048.6
2685.10043	17063.9
2687.72324	17065
2690.34441	17099.2
2692.96396	17073.2
2695.58188	17062.3
2698.19818	17065.5
2700.81285	17067.8
2703.4259	17013.8
2706.03733	16977.3
2708.64714	17024.3
2711.25533	17066.2
2713.86191	17061.7
2716.46687	17146.1
2719.07021	17122.1
2721.67194	17158.7
2724.27206	17169.8
2726.87057	17160.3
2729.46747	17169.6
2732.06276	17185
2734.65644	17127.4
2737.24852	17175.4
2739.83899	17165.3
2742.42786	17182.9
2745.01513	17141
2747.60079	17151.6
2750.18486	17120.1
2752.76733	17095.4
2755.3482	17051.7
2757.92747	17059.9
2760.50515	17031.6
2763.08123	17046.4
2765.65573	17019
2768.22863	17017.4
2770.79994	16991.5
2773.36967	16998.9
2775.9378	16980.9
2778.50435	16977
2781.06932	16945.7
2783.6327	16959.7
2786.1945	16972.9
2788.75471	16945.5
2791.31335	16909.4
2793.87041	16915.4
2796.42589	16870.6
2798.97979	16827.6
2801.53212	16800.8
2804.08288	16807.5
2806.63206	16758.3
2809.17967	16719.2
2811.72571	16717.1
2814.27018	16668.1
2816.81308	16638.8
2819.35442	16618.4
2821.89419	16572
2824.43239	16543.6
2826.96904	16549.3
2829.50412	16547.6
2832.03763	16501.2
2834.56959	16522.2
2837.1	16471.7
2839.62884	16466
2842.15613	16465.7
2844.68186	16504.5
2847.20604	16475.8
2849.72867	16448.8
2852.24974	16432.2
2854.76927	16402.4
2857.28724	16343.6
2859.80367	16344.5
2862.31855	16305.3
2864.83189	16271.2
2867.34368	16290
2869.85393	16322.1
2872.36264	16326.3
2874.8698	16295.5
2877.37543	16273.5
2879.87952	16266.2
2882.38207	16266.2
2884.88308	16273.1
2887.38256	16292.7
2889.88051	16291.7
2892.37692	16272.2
2894.8718	16288.1
2897.36515	16311.9
2899.85698	16277.6
2902.34727	16304.5
2904.83604	16314.8
2907.32328	16334.3
2909.809	16320.2
2912.29319	16352.9
2914.77587	16333.7
2917.25702	16328.8
2919.73665	16356.3
2922.21476	16328.8
2924.69136	16304.8
2927.16644	16331.2
2929.64	16292.6
2932.11205	16286.1
2934.58258	16255.5
2937.05161	16259.2
2939.51912	16267.6
2941.98513	16236.4
2944.44962	16198.8
2946.91261	16205.5
2949.37409	16251.5
2951.83407	16237.2
2954.29254	16237.3
2956.74951	16205.7
2959.20498	16221.6
2961.65895	16192
2964.11142	16207.8
2966.56239	16148.4
2969.01186	16171.1
2971.45984	16134.9
2973.90632	16131.1
2976.35131	16112.5
2978.7948	16068.1
2981.23681	16047.6
2983.67732	16032.4
2986.11635	15961.6
2988.55388	15951
2990.98993	15920
2993.4245	15904.5
2995.85758	15865.7
2998.28917	15853.6
3000.71928	15833.5
3003.14791	15796.5
3005.57506	15756.6
3008.00073	15719.6
3010.42493	15678.8
3012.84764	15682.7
3015.26888	15697.1
3017.68865	15646.7
3020.10694	15633.4
3022.52376	15566.1
3024.9391	15568
3027.35298	15556.9
3029.76539	15574.5
3032.17632	15559.1
3034.5858	15510.4
3036.9938	15505.9
3039.40034	15488.1
3041.80542	15455.6
3044.20903	15441.6
3046.61118	15435.7
3049.01187	15391.5
3051.4111	15410.7
3053.80888	15407.2
3056.20519	15370.9
3058.60005	15346.5
3060.99345	15302.9
3063.3854	15278.5
3065.7759	15262.8
3068.16494	15194.3
3070.55254	15160.4
3072.93868	15107.4
3075.32338	15045.8
3077.70662	14999.9
3080.08842	14972.7
3082.46878	14978.4
3084.84769	14962.7
3087.22515	14951.9
3089.60118	14909.6
3091.97576	14940
3094.3489	14955
3096.72061	14928.6
3099.09087	14952.4
3101.4597	14936.7
3103.82709	14921.6
3106.19305	14876.9
3108.55757	14901.7
3110.92066	14852.5
3113.28232	14862.2
3115.64255	14818.4
3118.00134	14799.4
3120.35871	14757
3122.71466	14717.1
3125.06917	14720.7
3127.42226	14684.4
3129.77393	14668.7
3132.12417	14659.6
3134.47299	14658.6
3136.82039	14628.6
3139.16636	14631.9
3141.51092	14613.3
3143.85406	14616.3
3146.19579	14652.5
3148.53609	14641.4
3150.87499	14634.9
3153.21246	14593.9
3155.54853	14630.3
3157.88318	14598.5
3160.21642	14635.2
3162.54826	14611.8
3164.87868	14611.5
3167.2077	14640.9
3169.5353	14590.9
3171.86151	14613.3
3174.18631	14574.8
3176.5097	14554.2
3178.83169	14545
3181.15228	14535.8
3183.47147	14507.2
3185.78926	14506.4
3188.10565	14460
3190.42065	14453.8
3192.73424	14402.6
3195.04645	14420.6
3197.35725	14389.9
3199.66667	14395.7
3201.97469	14411.6
3204.28132	14413.4
3206.58656	14450.4
3208.8904	14452.3
3211.19287	14429.4
3213.49394	14429.5
3215.79363	14433.9
3218.09193	14434.1
3220.38884	14395.5
3222.68438	14411.6
3224.97853	14416
3227.2713	14406.7
3229.56269	14414.4
3231.8527	14422.3
3234.14133	14388.6
3236.42858	14318.5
3238.71446	14306
3240.99896	14266.5
3243.28209	14302.4
3245.56384	14269.9
3247.84423	14264.9
3250.12324	14240.1
3252.40088	14232.2
3254.67715	14212.3
3256.95205	14202.3
3259.22558	14170.3
3261.49775	14176
3263.76855	14155.2
3266.03799	14144.1
3268.30606	14126.7
3270.57277	14098
3272.83812	14050.9
3275.10211	14011.5
3277.36474	13987.7
3279.62601	14015.7
3281.88593	13956.3
3284.14448	13999.7
3286.40168	13986.7
3288.65753	13960.1
3290.91202	13971.8
3293.16516	13955.1
3295.41695	13902.6
3297.66738	13810.5
3299.91647	13749.4
3302.16421	13673
3304.4106	13626.7
3306.65564	13567.3
3308.89933	13447.9
3311.14169	13361.8
3313.38269	13228.6
3315.62236	13169.6
3317.86068	13079.4
3320.09766	12980.8
3322.3333	12909
3324.5676	12850
3326.80056	12611.3
3329.03219	12562.7
3331.26248	4.2
3333.49143	-0.1
3335.71905	0.6
