Data from AgNPs_FTO_APTES_UA_50uM_CRN_1000uM_R6G_10uM_NaF_0.1M_Addition_RamanShift__0__17-26-13-570.txt Node

Date: Mon Feb 21 17:26:13 GMT 2022
User: TCL
Spectrometer: QEP01345
Trigger mode: 4
Integration Time (sec): 7.000000E0
Scans to average: 10
Electric dark correction enabled: true
Nonlinearity correction enabled: false
Boxcar width: 0
XAxis mode: Raman Shifts
Number of Pixels in Spectrum: 1044
>>>>>Begin Spectral Data<<<<<
46.04893	-0.8
50.45542	-0.7
54.85868	0.4
59.25871	-1.8
63.6555	53.6
68.04907	58.2
72.43941	65.1
76.82654	63.3
81.21044	66.1
85.59113	67.8
89.96862	73.5
94.34289	72.2
98.71396	73.9
103.08183	80.7
107.4465	77.3
111.80798	84.2
116.16626	81.2
120.52136	85.7
124.87327	85.6
129.222	90.1
133.56755	95.4
137.90993	94.3
142.24913	103.2
146.58517	112
150.91804	125.6
155.24774	147.6
159.57429	177.4
163.89768	227.7
168.21792	298.7
172.53501	404.9
176.84895	562.2
181.15975	779.8
185.46741	1096
189.77193	1515.1
194.07331	2038.6
198.37157	2624.8
202.6667	3248.7
206.9587	3875.5
211.24758	4490.4
215.53334	5120.6
219.81599	5792.1
224.09553	6524.5
228.37195	7354.5
232.64527	8241.8
236.91549	9157.5
241.18261	10045.9
245.44663	10842.7
249.70755	11508.9
253.96539	12061.1
258.22014	12552.2
262.4718	12915.7
266.72039	13213
270.96589	13330.4
275.20832	13289.4
279.44768	13155.6
283.68397	12902.3
287.91719	12723.9
292.14735	12609.8
296.37445	12643.7
300.59849	12810.7
304.81948	13017.3
309.03742	13157.2
313.25231	13187
317.46415	12997.5
321.67296	12621.6
325.87872	12264
330.08145	12088.7
334.28114	12071
338.47781	12130.3
342.67145	12316.7
346.86207	12555.2
351.04966	12921.4
355.23424	13279.1
359.4158	13585.2
363.59435	13768.5
367.76989	13857.4
371.94243	13909.1
376.11196	13943.1
380.27849	13945.3
384.44203	13967.9
388.60257	14036.5
392.76012	14081
396.91468	14190.2
401.06626	14360.2
405.21485	14460.9
409.36047	14361
413.50311	14016.6
417.64277	13687.8
421.77947	13504.4
425.9132	13459.6
430.04396	13520.9
434.17176	13620.1
438.2966	13754
442.41849	14011.6
446.53742	14380.4
450.6534	14734.8
454.76644	14938.8
458.87653	14961.2
462.98368	14835.6
467.08789	14669.5
471.18916	14450.7
475.2875	14226.8
479.38291	14037.3
483.4754	13875
487.56496	13794.6
491.6516	13669.8
495.73531	13606.2
499.81612	13590.5
503.89401	13660.2
507.96899	13721.5
512.04106	13770.8
516.11023	13854.5
520.1765	13924
524.23987	13886.1
528.30034	13851.1
532.35792	13761.7
536.41261	13633.5
540.46441	13486.8
544.51333	13362.7
548.55936	13431.8
552.60252	13630.3
556.64279	13913.6
560.6802	14078.1
564.71473	14106
568.7464	14300.2
572.7752	14474
576.80114	14467.1
580.82422	14377.8
584.84444	14524.6
588.86181	14912.2
592.87633	15469.4
596.888	15733.6
600.89682	15619.2
604.9028	15948.2
608.90594	17789
612.90624	20252.2
616.90371	19527.9
620.89834	15914
624.89015	14193.5
628.87913	13918.7
632.86528	14022.3
636.84862	14207.5
640.82913	14078.8
644.80683	13701.8
648.78172	13426.1
652.75379	13400.8
656.72306	13589.7
660.68952	13850.2
664.65319	13752.9
668.61405	13410.5
672.57211	13337.9
676.52738	13407.4
680.47986	13434.2
684.42955	13374.2
688.37646	13289.9
692.32058	13244.9
696.26192	13341.7
700.20048	13433.6
704.13626	13507.3
708.06928	13456
711.99952	13393.3
715.927	13364.2
719.85171	13398.4
723.77365	13426.8
727.69284	13353.2
731.60928	13269.4
735.52295	13251
739.43388	13238.5
743.34206	13270.1
747.24749	13290.2
751.15017	13314.3
755.05012	13446.5
758.94733	13768.6
762.8418	14526.1
766.73354	15813.7
770.62254	17173.3
774.50882	17766.9
778.39237	17209.9
782.27321	15807.9
786.15132	14538.2
790.02671	13726.6
793.89938	13376.7
797.76935	13197.1
801.6366	13147.8
805.50115	13096.9
809.36299	12986.4
813.22213	12985.9
817.07857	12931.9
820.93231	12912
824.78336	12872.8
828.63172	12870.9
832.47738	12866.2
836.32036	12837.3
840.16066	12855.7
843.99827	12860.4
847.8332	12853
851.66546	12858.6
855.49504	12818.1
859.32195	12849.7
863.1462	12799.1
866.96777	12846.2
870.78668	12798.6
874.60293	12812.8
878.41652	12853.2
882.22745	12925.8
886.03573	12921.1
889.84136	12972.6
893.64433	12899.9
897.44466	12830.8
901.24235	12737.5
905.0374	12687.9
908.8298	12636.8
912.61957	12546.4
916.40671	12650.5
920.19121	12703.4
923.97308	12846.2
927.75233	12911.5
931.52895	12968.3
935.30295	12841.6
939.07433	12609.7
942.84309	12445.8
946.60924	12316.4
950.37278	12255.5
954.13371	12194.4
957.89203	12161.2
961.64774	12141.1
965.40086	12121.2
969.15137	12060.3
972.89929	12041.9
976.64461	12019.6
980.38733	12028.6
984.12747	12052.7
987.86502	12124.5
991.59999	12214.9
995.33237	12357.3
999.06217	12559.3
1002.78939	12778.5
1006.51404	12952.3
1010.23611	13106
1013.95561	13190.6
1017.67255	13215.7
1021.38692	13126.6
1025.09872	13017.2
1028.80796	12924.6
1032.51465	13032.7
1036.21877	13205.7
1039.92035	13283.3
1043.61937	13266.1
1047.31584	13153.1
1051.00976	13011.8
1054.70114	12862.4
1058.38998	12828
1062.07627	12823.2
1065.76003	12868.8
1069.44126	12942.8
1073.11995	13034.4
1076.79611	13128.4
1080.46974	13262.5
1084.14085	13427.5
1087.80943	13576.1
1091.47549	13641.9
1095.13903	13558.9
1098.80005	13380.1
1102.45857	13186.3
1106.11456	13079.8
1109.76805	13074.2
1113.41903	13203.5
1117.06751	13410.3
1120.71348	13683.4
1124.35696	14004.1
1127.99793	14333.6
1131.63641	14392.2
1135.2724	14147.6
1138.90589	13848.4
1142.5369	13645.5
1146.16542	13519.2
1149.79145	13418.6
1153.415	13406.6
1157.03607	13436.6
1160.65467	13679.4
1164.27079	14002.4
1167.88443	14586.4
1171.49561	15345.1
1175.10432	16421.8
1178.71056	17875.3
1182.31434	19205
1185.91565	19749
1189.51451	19516.7
1193.11091	18766.4
1196.70485	17903.4
1200.29634	17145.3
1203.88538	16542.8
1207.47197	15899.7
1211.05612	15346
1214.63782	14967.6
1218.21708	14837.9
1221.79391	14824.1
1225.36829	14836.6
1228.94024	14821.1
1232.50976	14645.1
1236.07685	14479
1239.6415	14392.5
1243.20374	14355.9
1246.76355	14419.1
1250.32093	14543.3
1253.8759	14735.8
1257.42845	15077.7
1260.97859	15347.2
1264.52631	15702.4
1268.07163	16065.7
1271.61453	16421.1
1275.15503	16693.8
1278.69312	16985.1
1282.22882	17188.8
1285.76211	17490.7
1289.29301	17965.5
1292.82151	18570.3
1296.34761	19242.9
1299.87133	20194.7
1303.39266	21415.4
1306.9116	22993.2
1310.42815	24586.7
1313.94233	25495.3
1317.45412	25070.3
1320.96354	23859.9
1324.47058	22494.1
1327.97525	21278.3
1331.47754	20379.7
1334.97747	19908.1
1338.47502	19802.2
1341.97022	19940.9
1345.46305	20324.2
1348.95352	21006.5
1352.44163	22086.6
1355.92738	23599.4
1359.41078	25668.3
1362.89183	27635.1
1366.37053	27249.6
1369.84688	24180.6
1373.32088	20836.1
1376.79254	18703.6
1380.26186	17745.5
1383.72883	17339.3
1387.19347	16999.6
1390.65578	16577.5
1394.11575	16328.1
1397.57339	16272.5
1401.0287	16292.5
1404.48168	16278.9
1407.93234	16234.1
1411.38068	16076
1414.82669	15946.1
1418.27039	15756
1421.71177	15468.4
1425.15083	15199.1
1428.58758	15029.4
1432.02203	15106.5
1435.45416	15291.3
1438.88399	15443.4
1442.31151	15535.3
1445.73673	15573.9
1449.15965	15619.3
1452.58027	15577.6
1455.9986	15478.6
1459.41463	15517.7
1462.82837	15641.8
1466.23982	15890.5
1469.64898	16109.9
1473.05586	16312.3
1476.46045	16493
1479.86276	16571.7
1483.26279	16659.3
1486.66054	16811.3
1490.05602	17070.7
1493.44922	17506.3
1496.84016	18147.3
1500.22882	19173.8
1503.61521	20662.6
1506.99934	22303.3
1510.38121	23700.7
1513.76081	24048.2
1517.13816	22988.7
1520.51324	21074.5
1523.88607	19287.9
1527.25665	18153.4
1530.62498	17647
1533.99105	17321.6
1537.35488	17061.3
1540.71647	16773.7
1544.07581	16482.5
1547.4329	16232.9
1550.78776	16035.7
1554.14038	15950.7
1557.49077	15938.2
1560.83892	15982.7
1564.18484	16172.3
1567.52853	16481.1
1570.86999	16785.6
1574.20922	17066.4
1577.54624	17131.3
1580.88103	16770.5
1584.2136	16239.7
1587.54395	16052.5
1590.87208	16345.5
1594.19801	17007.1
1597.52172	17904
1600.84321	18398.3
1604.16251	18025.6
1607.47959	17116.9
1610.79447	16048.8
1614.10715	14984.7
1617.41763	14133.3
1620.7259	13604.9
1624.03199	13343.8
1627.33587	13272.6
1630.63757	13529.4
1633.93707	14015.2
1637.23439	14932.6
1640.52951	16298.5
1643.82246	18230.3
1647.11321	20074.7
1650.40179	20973.9
1653.68819	20099.6
1656.97241	17853
1660.25446	15498.3
1663.53433	13826.3
1666.81203	12848.7
1670.08756	12258.1
1673.36092	11857.4
1676.63211	11618.2
1679.90115	11444.7
1683.16801	11312.2
1686.43272	11170.4
1689.69527	11094.4
1692.95567	10991.6
1696.2139	10915.2
1699.46999	10844.8
1702.72392	10782.6
1705.97571	10759.5
1709.22535	10747
1712.47284	10751.4
1715.71819	10727.7
1718.96139	10710.9
1722.20246	10669
1725.44139	10642.7
1728.67818	10580
1731.91284	10510.9
1735.14537	10456.3
1738.37576	10413.2
1741.60403	10373.1
1744.83017	10361.5
1748.05418	10354
1751.27607	10336.8
1754.49584	10312.4
1757.71349	10318.4
1760.92903	10270.5
1764.14244	10284.2
1767.35375	10237
1770.56294	10199.4
1773.77002	10177.3
1776.97499	10148
1780.17785	10150
1783.37861	10121.1
1786.57727	10130.3
1789.77382	10064.6
1792.96828	10069.8
1796.16064	10042.3
1799.3509	10007.7
1802.53907	9995.1
1805.72514	9996.6
1808.90913	9940.1
1812.09102	9919
1815.27083	9886.8
1818.44856	9867.4
1821.6242	9856.8
1824.79776	9841.1
1827.96924	9827.5
1831.13864	9824.2
1834.30597	9818.2
1837.47122	9797.7
1840.6344	9767.4
1843.7955	9767.4
1846.95454	9746.7
1850.11151	9753.1
1853.26642	9753.1
1856.41926	9733.9
1859.57004	9728.1
1862.71876	9711.8
1865.86542	9705.4
1869.01003	9707.3
1872.15258	9679
1875.29308	9708.1
1878.43152	9669.3
1881.56792	9670
1884.70227	9662.2
1887.83457	9674.3
1890.96482	9671.3
1894.09304	9615.8
1897.21921	9624.3
1900.34335	9611.9
1903.46544	9606.5
1906.58551	9606.7
1909.70353	9606.2
1912.81953	9569.3
1915.93349	9565.7
1919.04543	9530
1922.15534	9487.7
1925.26322	9462.7
1928.36908	9453.2
1931.47292	9445.1
1934.57473	9384.2
1937.67453	9393.3
1940.77232	9363.4
1943.86808	9363.2
1946.96184	9316.2
1950.05358	9290.4
1953.14331	9278.5
1956.23103	9251.6
1959.31675	9229.7
1962.40046	9200
1965.48217	9188.7
1968.56188	9159.6
1971.63959	9127.7
1974.7153	9095.9
1977.78901	9070.9
1980.86073	9045.5
1983.93046	9039.4
1986.99819	9007.9
1990.06394	8986
1993.1277	8963.4
1996.18947	8941.4
1999.24925	8906.5
2002.30706	8871.9
2005.36288	8833.4
2008.41672	8806.6
2011.46859	8791.4
2014.51848	8759.3
2017.56639	8748.3
2020.61233	8727.1
2023.6563	8698
2026.6983	8669.1
2029.73833	8652.9
2032.7764	8640.7
2035.8125	8615.1
2038.84664	8596
2041.87881	8572
2044.90903	8547.6
2047.93729	8548.2
2050.96359	8551.6
2053.98794	8523.7
2057.01034	8526.5
2060.03078	8505
2063.04927	8497.3
2066.06582	8511.3
2069.08042	8482.6
2072.09307	8476
2075.10378	8460.3
2078.11255	8461.4
2081.11938	8441.1
2084.12426	8476.8
2087.12722	8471.7
2090.12824	8459
2093.12732	8446.4
2096.12447	8456.4
2099.11969	8480.3
2102.11299	8460.4
2105.10435	8449.2
2108.09379	8456.4
2111.08131	8461.3
2114.0669	8469.4
2117.05057	8460.7
2120.03233	8486.7
2123.01216	8487.1
2125.99008	8480
2128.96609	8496.4
2131.94018	8522.3
2134.91236	8512.1
2137.88263	8526.6
2140.851	8524.9
2143.81746	8536.3
2146.78201	8536.4
2149.74466	8527.4
2152.7054	8515.7
2155.66425	8534.1
2158.6212	8505
2161.57625	8519.4
2164.52941	8514.2
2167.48067	8474.8
2170.43004	8503.7
2173.37752	8477.7
2176.32311	8503.1
2179.26681	8480.5
2182.20863	8499.6
2185.14856	8485.2
2188.08661	8480.6
2191.02278	8497.8
2193.95707	8482.2
2196.88948	8486.7
2199.82001	8497.8
2202.74867	8465.8
2205.67545	8471.8
2208.60037	8450.1
2211.52341	8448.8
2214.44458	8439.4
2217.36388	8402.3
2220.28132	8398.8
2223.1969	8372.1
2226.11061	8378.5
2229.02246	8323.8
2231.93245	8342
2234.84058	8343.5
2237.74686	8305.1
2240.65128	8292.5
2243.55385	8298.8
2246.45456	8297
2249.35343	8271.5
2252.25044	8241.3
2255.14561	8222.7
2258.03893	8249.7
2260.93041	8239.9
2263.82004	8217.6
2266.70783	8199
2269.59378	8160.9
2272.4779	8164.4
2275.36017	8139.1
2278.24061	8145.4
2281.11922	8105.4
2283.996	8087.9
2286.87094	8073.7
2289.74405	8061.5
2292.61534	8055.3
2295.4848	8076.3
2298.35243	8078.9
2301.21824	8053.8
2304.08223	8045.2
2306.94439	8026.7
2309.80474	8029.6
2312.66327	8028.3
2315.51999	8003.2
2318.37489	8031.7
2321.22797	7993.1
2324.07925	7980
2326.92871	7987.1
2329.77637	7993
2332.62222	7967
2335.46626	7955.6
2338.3085	7931.4
2341.14893	7932.2
2343.98756	7922.8
2346.8244	7909.7
2349.65943	7890.9
2352.49267	7920.3
2355.32411	7922.1
2358.15376	7923.9
2360.98161	7914.4
2363.80768	7913
2366.63195	7903.1
2369.45444	7900.7
2372.27514	7883.5
2375.09405	7889.2
2377.91118	7871.8
2380.72652	7835.4
2383.54009	7827.5
2386.35187	7804
2389.16188	7770.3
2391.97011	7766.5
2394.77657	7765.2
2397.58125	7739.4
2400.38416	7716.4
2403.18529	7705.3
2405.98466	7699.1
2408.78226	7674.8
2411.57809	7664.2
2414.37216	7638.6
2417.16446	7656.1
2419.955	7644.4
2422.74378	7647.8
2425.5308	7646
2428.31606	7636
2431.09956	7634.1
2433.88131	7614.2
2436.6613	7613.8
2439.43954	7591.3
2442.21603	7592
2444.99077	7603.5
2447.76377	7596.3
2450.53501	7597.2
2453.30451	7604.6
2456.07226	7593.4
2458.83827	7573.8
2461.60254	7583.7
2464.36507	7568.1
2467.12586	7562.5
2469.88492	7563.4
2472.64224	7560.9
2475.39782	7560.4
2478.15167	7569.8
2480.90379	7565.7
2483.65417	7557.3
2486.40283	7585.3
2489.14976	7574.8
2491.89497	7575.2
2494.63845	7585.3
2497.3802	7566.5
2500.12024	7562.1
2502.85855	7532.6
2505.59514	7560.2
2508.33002	7543.6
2511.06318	7505
2513.79462	7485.2
2516.52435	7487.8
2519.25237	7472.4
2521.97867	7459.3
2524.70327	7464.6
2527.42616	7436.7
2530.14734	7427
2532.86681	7414.3
2535.58458	7424.5
2538.30065	7405.2
2541.01501	7423.4
2543.72768	7418.3
2546.43864	7381.8
2549.14791	7369.4
2551.85548	7382
2554.56136	7362.2
2557.26554	7339
2559.96803	7345.2
2562.66883	7345.7
2565.36794	7316.3
2568.06536	7312.8
2570.7611	7323.1
2573.45514	7288
2576.14751	7301
2578.83819	7289.7
2581.52719	7275
2584.21451	7254
2586.90015	7251.2
2589.58411	7250.4
2592.2664	7236.6
2594.94701	7217.3
2597.62594	7195.9
2600.30321	7191.9
2602.9788	7191.6
2605.65273	7181.3
2608.32498	7178.8
2610.99557	7191.4
2613.66449	7191.8
2616.33175	7171.7
2618.99734	7180.9
2621.66128	7187.3
2624.32355	7154
2626.98416	7141
2629.64311	7133.6
2632.30041	7128.8
2634.95605	7120.4
2637.61004	7097.5
2640.26238	7096.4
2642.91306	7092.6
2645.56209	7082.8
2648.20948	7114.3
2650.85521	7078.8
2653.4993	7069.6
2656.14175	7039.5
2658.78255	7081.5
2661.42171	7085.4
2664.05923	7090.9
2666.6951	7089.6
2669.32934	7114.8
2671.96194	7084.3
2674.59291	7068.2
2677.22224	7067.9
2679.84993	7076
2682.476	7084.5
2685.10043	7097.9
2687.72324	7061.3
2690.34441	7036.6
2692.96396	7043.6
2695.58188	7059
2698.19818	7050
2700.81285	7057.9
2703.4259	7038.7
2706.03733	7032.6
2708.64714	7050.6
2711.25533	7071.2
2713.86191	7070.1
2716.46687	7075.3
2719.07021	7075.6
2721.67194	7074.4
2724.27206	7077.9
2726.87057	7080.2
2729.46747	7071.3
2732.06276	7080.5
2734.65644	7081.1
2737.24852	7080
2739.83899	7073.2
2742.42786	7085.2
2745.01513	7049.3
2747.60079	7052.2
2750.18486	7018.8
2752.76733	7021.7
2755.3482	7013.7
2757.92747	7011.3
2760.50515	6982.6
2763.08123	6977
2765.65573	6973.4
2768.22863	6969.6
2770.79994	6959
2773.36967	6950.1
2775.9378	6960.6
2778.50435	6966.7
2781.06932	6957.4
2783.6327	6950.4
2786.1945	6956.9
2788.75471	6956.8
2791.31335	6936.9
2793.87041	6919.4
2796.42589	6899.9
2798.97979	6888.2
2801.53212	6870.2
2804.08288	6877
2806.63206	6861.5
2809.17967	6864.8
2811.72571	6826.5
2814.27018	6828.7
2816.81308	6816.9
2819.35442	6814.3
2821.89419	6816.3
2824.43239	6800.5
2826.96904	6820.9
2829.50412	6804.9
2832.03763	6799.5
2834.56959	6802.5
2837.1	6815.1
2839.62884	6812
2842.15613	6813.7
2844.68186	6839.8
2847.20604	6844.1
2849.72867	6875.6
2852.24974	6871.4
2854.76927	6848.9
2857.28724	6850.7
2859.80367	6846.5
2862.31855	6833.3
2864.83189	6838.3
2867.34368	6845.7
2869.85393	6828.4
2872.36264	6836.3
2874.8698	6818.8
2877.37543	6812.3
2879.87952	6810.9
2882.38207	6812
2884.88308	6803.1
2887.38256	6822.1
2889.88051	6813.5
2892.37692	6834.8
2894.8718	6825.5
2897.36515	6836.9
2899.85698	6832.4
2902.34727	6869.1
2904.83604	6878.4
2907.32328	6889.8
2909.809	6890.6
2912.29319	6909.9
2914.77587	6889.8
2917.25702	6912.2
2919.73665	6891.7
2922.21476	6906.4
2924.69136	6881.8
2927.16644	6887.4
2929.64	6885.2
2932.11205	6876.2
2934.58258	6855.3
2937.05161	6853.3
2939.51912	6860.6
2941.98513	6846.2
2944.44962	6820.4
2946.91261	6802.1
2949.37409	6817.1
2951.83407	6783.5
2954.29254	6782
2956.74951	6770.9
2959.20498	6775.5
2961.65895	6742.7
2964.11142	6743.3
2966.56239	6732.8
2969.01186	6715.4
2971.45984	6718.5
2973.90632	6685
2976.35131	6656
2978.7948	6641.6
2981.23681	6627.5
2983.67732	6616.1
2986.11635	6606.4
2988.55388	6604.9
2990.98993	6576.4
2993.4245	6578
2995.85758	6576.6
2998.28917	6543
3000.71928	6535.9
3003.14791	6525.7
3005.57506	6521.5
3008.00073	6518.7
3010.42493	6495.4
3012.84764	6490.4
3015.26888	6486.9
3017.68865	6489.7
3020.10694	6465.7
3022.52376	6460.4
3024.9391	6448.8
3027.35298	6433
3029.76539	6433.4
3032.17632	6411.1
3034.5858	6388.8
3036.9938	6386.4
3039.40034	6403.9
3041.80542	6372.1
3044.20903	6382.4
3046.61118	6390.5
3049.01187	6365.9
3051.4111	6360.1
3053.80888	6350.4
3056.20519	6349.1
3058.60005	6346.9
3060.99345	6340.4
3063.3854	6314.9
3065.7759	6312.7
3068.16494	6296.8
3070.55254	6278.5
3072.93868	6270.3
3075.32338	6255.8
3077.70662	6235.2
3080.08842	6223.2
3082.46878	6204.1
3084.84769	6215.2
3087.22515	6222.8
3089.60118	6203.8
3091.97576	6235.5
3094.3489	6228.1
3096.72061	6228.2
3099.09087	6217.7
3101.4597	6216.6
3103.82709	6215.8
3106.19305	6219.4
3108.55757	6229
3110.92066	6193.2
3113.28232	6202.5
3115.64255	6181.6
3118.00134	6166.9
3120.35871	6167.8
3122.71466	6162.4
3125.06917	6162.4
3127.42226	6149
3129.77393	6147.6
3132.12417	6157.1
3134.47299	6157.2
3136.82039	6168.6
3139.16636	6174.5
3141.51092	6176.3
3143.85406	6178.2
3146.19579	6168.2
3148.53609	6176.3
3150.87499	6181
3153.21246	6187.3
3155.54853	6178.8
3157.88318	6188
3160.21642	6213.6
3162.54826	6204.7
3164.87868	6209.5
3167.2077	6226.3
3169.5353	6204.3
3171.86151	6216.1
3174.18631	6203.1
3176.5097	6203.4
3178.83169	6183.2
3181.15228	6177
3183.47147	6169.3
3185.78926	6180.8
3188.10565	6176.1
3190.42065	6162.8
3192.73424	6179.4
3195.04645	6178.8
3197.35725	6163
3199.66667	6181.4
3201.97469	6209.1
3204.28132	6205.3
3206.58656	6190.3
3208.8904	6194.2
3211.19287	6196.7
3213.49394	6180.3
3215.79363	6220.4
3218.09193	6205.2
3220.38884	6209.9
3222.68438	6240
3224.97853	6229.5
3227.2713	6221
3229.56269	6214.2
3231.8527	6231.3
3234.14133	6204.3
3236.42858	6178.3
3238.71446	6168.4
3240.99896	6159.5
3243.28209	6175.7
3245.56384	6151
3247.84423	6153.1
3250.12324	6140
3252.40088	6148.2
3254.67715	6142.7
3256.95205	6131
3259.22558	6153.8
3261.49775	6114.2
3263.76855	6157.3
3266.03799	6112.4
3268.30606	6111.7
3270.57277	6117.3
3272.83812	6100
3275.10211	6077.5
3277.36474	6083.4
3279.62601	6091.7
3281.88593	6080.4
3284.14448	6092.1
3286.40168	6086.4
3288.65753	6065.7
3290.91202	6070.5
3293.16516	6066.6
3295.41695	6048.5
3297.66738	6030.4
3299.91647	5997.3
3302.16421	5984.7
3304.4106	5947.2
3306.65564	5921
3308.89933	5873.5
3311.14169	5840.6
3313.38269	5777.3
3315.62236	5753.7
3317.86068	5722.8
3320.09766	5680.1
3322.3333	5634
3324.5676	5618.7
3326.80056	5532.5
3329.03219	5504
3331.26248	4.4
3333.49143	-0.9
3335.71905	-0.5
