Data from AgNPs_FTO_APTES_UA_50uM_CRN_1000uM_R6G_10uM_NaF_0.1M_Addition_RamanShift__25__17-55-23-608.txt Node

Date: Mon Feb 21 17:55:23 GMT 2022
User: TCL
Spectrometer: QEP01345
Trigger mode: 4
Integration Time (sec): 7.000000E0
Scans to average: 10
Electric dark correction enabled: true
Nonlinearity correction enabled: false
Boxcar width: 0
XAxis mode: Raman Shifts
Number of Pixels in Spectrum: 1044
>>>>>Begin Spectral Data<<<<<
46.04893	0.3
50.45542	-0.5
54.85868	-1.7
59.25871	-2
63.6555	57.5
68.04907	65
72.43941	69.6
76.82654	69.3
81.21044	74.6
85.59113	74.2
89.96862	76.1
94.34289	80.5
98.71396	84.1
103.08183	90
107.4465	87.6
111.80798	91.4
116.16626	92.6
120.52136	95.7
124.87327	100.1
129.222	105.7
133.56755	114.3
137.90993	121.5
142.24913	134.5
146.58517	148.4
150.91804	167.7
155.24774	206
159.57429	260.2
163.89768	338.3
168.21792	451.5
172.53501	624.8
176.84895	865.1
181.15975	1227.8
185.46741	1724.6
189.77193	2382.9
194.07331	3198.2
198.37157	4120.8
202.6667	5126.6
206.9587	6155.7
211.24758	7194.5
215.53334	8250.2
219.81599	9423.2
224.09553	10751
228.37195	12293.1
232.64527	13905.1
236.91549	15518
241.18261	16963.9
245.44663	18151.9
249.70755	19181.1
253.96539	20060.6
258.22014	20855.8
262.4718	21519.3
266.72039	21812.8
270.96589	21774.4
275.20832	21460.8
279.44768	20908.6
283.68397	20290.8
287.91719	19870.6
292.14735	19843.9
296.37445	20388.5
300.59849	21416.9
304.81948	22614.1
309.03742	23486.7
313.25231	23553.1
317.46415	22373
321.67296	20465.9
325.87872	18891
330.08145	18144
334.28114	18099.2
338.47781	18493.5
342.67145	19073
346.86207	19995.8
351.04966	21386
355.23424	22917.4
359.4158	24099.4
363.59435	24639.3
367.76989	24684.6
371.94243	24593.4
376.11196	24401.7
380.27849	24185.3
384.44203	23815.8
388.60257	23395.1
392.76012	23115.8
396.91468	23182.6
401.06626	23667.6
405.21485	24026.4
409.36047	23450.1
413.50311	21993.6
417.64277	20566.2
421.77947	19716.7
425.9132	19329
430.04396	19264.2
434.17176	19376.4
438.2966	19720.1
442.41849	20284.9
446.53742	21039.6
450.6534	21692.2
454.76644	22071.5
458.87653	22050.9
462.98368	21659.7
467.08789	21168.1
471.18916	20677.7
475.2875	20130.3
479.38291	19694.4
483.4754	19318.9
487.56496	19011
491.6516	18741.1
495.73531	18591.8
499.81612	18596.2
503.89401	18816.7
507.96899	19155.8
512.04106	19527.5
516.11023	19988.7
520.1765	20310.3
524.23987	20285.9
528.30034	19999.1
532.35792	19625.9
536.41261	19225.9
540.46441	18791.8
544.51333	18502.3
548.55936	18575.5
552.60252	18995.7
556.64279	19559
560.6802	19963.8
564.71473	20412.1
568.7464	21444.8
572.7752	21844.6
576.80114	20849.5
580.82422	19717.8
584.84444	19247.7
588.86181	19419.4
592.87633	19963
596.888	20345.4
600.89682	20810.2
604.9028	23314
608.90594	30978.4
612.90624	41264.6
616.90371	39422.4
620.89834	26531.5
624.89015	20347.2
628.87913	19157.8
632.86528	19413.4
636.84862	19849.9
640.82913	19463.7
644.80683	18333.1
648.78172	17533.5
652.75379	17524.5
656.72306	18354.4
660.68952	19403.8
664.65319	19103.3
668.61405	17928.2
672.57211	17419.2
676.52738	17423.3
680.47986	17418
684.42955	17208.2
688.37646	17061
692.32058	17045.2
696.26192	17224.5
700.20048	17471.3
704.13626	17604.4
708.06928	17493.5
711.99952	17289.1
715.927	17217.2
719.85171	17362.1
723.77365	17497.3
727.69284	17386
731.60928	17246.3
735.52295	17217.1
739.43388	17285
743.34206	17315.5
747.24749	17307.6
751.15017	17351.1
755.05012	17609.5
758.94733	18565.5
762.8418	21110.5
766.73354	25409.6
770.62254	29766
774.50882	32109.6
778.39237	30713.5
782.27321	25961.1
786.15132	21344.9
790.02671	18706
793.89938	17592.8
797.76935	17112.6
801.6366	16906.2
805.50115	16826.6
809.36299	16767.9
813.22213	16694.1
817.07857	16648.5
820.93231	16630.6
824.78336	16624.6
828.63172	16696.2
832.47738	16669.1
836.32036	16556.5
840.16066	16433.2
843.99827	16368.7
847.8332	16312
851.66546	16288.6
855.49504	16271
859.32195	16278.8
863.1462	16235.1
866.96777	16226.6
870.78668	16172
874.60293	16175.4
878.41652	16233.9
882.22745	16383.6
886.03573	16430
889.84136	16392.9
893.64433	16302.4
897.44466	16199.9
901.24235	16135.2
905.0374	16059.5
908.8298	15911
912.61957	15756.2
916.40671	15784.6
920.19121	15851.5
923.97308	15995.7
927.75233	16282.1
931.52895	16608.6
935.30295	16469.7
939.07433	15954
942.84309	15438.2
946.60924	15098.4
950.37278	14929.6
954.13371	14860.4
957.89203	14785.1
961.64774	14758.7
965.40086	14674.9
969.15137	14595
972.89929	14548.5
976.64461	14485.9
980.38733	14482.5
984.12747	14525.9
987.86502	14596.1
991.59999	14703.1
995.33237	14907.2
999.06217	15250.1
1002.78939	15658.4
1006.51404	16097.2
1010.23611	16391.6
1013.95561	16570.8
1017.67255	16535.1
1021.38692	16244.6
1025.09872	15933.5
1028.80796	15748.2
1032.51465	15816.9
1036.21877	15980.1
1039.92035	16071.7
1043.61937	16094.4
1047.31584	16005.9
1051.00976	15857.2
1054.70114	15726.9
1058.38998	15633.8
1062.07627	15622.8
1065.76003	15639.3
1069.44126	15637.8
1073.11995	15744.7
1076.79611	16002.3
1080.46974	16469.5
1084.14085	17136.9
1087.80943	17742
1091.47549	18026.6
1095.13903	17610.7
1098.80005	16896.9
1102.45857	16412.2
1106.11456	16284.6
1109.76805	16588.8
1113.41903	17224.9
1117.06751	18203.4
1120.71348	19403.8
1124.35696	20653.2
1127.99793	21500.2
1131.63641	21064.6
1135.2724	19639.7
1138.90589	18339.3
1142.5369	17589.2
1146.16542	17018.1
1149.79145	16744.9
1153.415	16667.4
1157.03607	16790.1
1160.65467	17155.5
1164.27079	17859.1
1167.88443	19007.6
1171.49561	20820.6
1175.10432	23721.1
1178.71056	27735
1182.31434	31163.8
1185.91565	31977.4
1189.51451	30478.3
1193.11091	27880.5
1196.70485	25332.8
1200.29634	23638.3
1203.88538	22367.8
1207.47197	20913.6
1211.05612	19566.8
1214.63782	18762.2
1218.21708	18473
1221.79391	18434.1
1225.36829	18330.6
1228.94024	18107
1232.50976	17823.8
1236.07685	17676.6
1239.6415	17760.4
1243.20374	17901.9
1246.76355	18063.9
1250.32093	18321.5
1253.8759	18744.7
1257.42845	19406.8
1260.97859	20120.7
1264.52631	20899.4
1268.07163	21678.7
1271.61453	22306.3
1275.15503	22671.5
1278.69312	22846.4
1282.22882	23011.6
1285.76211	23607.6
1289.29301	24672.9
1292.82151	25750.8
1296.34761	27036.5
1299.87133	29069.1
1303.39266	32488.1
1306.9116	37558.6
1310.42815	42784.7
1313.94233	44840.9
1317.45412	42301.2
1320.96354	37691.3
1324.47058	33311
1327.97525	29947.8
1331.47754	27920.2
1334.97747	27264.3
1338.47502	27643.2
1341.97022	28889.6
1345.46305	30771.9
1348.95352	33372.8
1352.44163	36799.6
1355.92738	42030.1
1359.41078	49936.3
1362.89183	56846
1366.37053	53808.4
1369.84688	43160.9
1373.32088	33803.1
1376.79254	28289.4
1380.26186	25538.8
1383.72883	24091.7
1387.19347	23109.4
1390.65578	22072.3
1394.11575	21334.8
1397.57339	21080
1401.0287	21237.2
1404.48168	21535
1407.93234	21784.9
1411.38068	22032.1
1414.82669	22078.2
1418.27039	21819
1421.71177	21304.6
1425.15083	20658.3
1428.58758	20388
1432.02203	20642.3
1435.45416	20931.9
1438.88399	21091.4
1442.31151	21171.7
1445.73673	21352.2
1449.15965	21613.7
1452.58027	21650.2
1455.9986	21373.8
1459.41463	21257.1
1462.82837	21543.8
1466.23982	22156.8
1469.64898	22800.8
1473.05586	23173.8
1476.46045	23330.6
1479.86276	23526
1483.26279	23965.1
1486.66054	24528
1490.05602	25437.4
1493.44922	26756.4
1496.84016	28849.1
1500.22882	32536
1503.61521	38350.7
1506.99934	45507.6
1510.38121	51454.4
1513.76081	52487.6
1517.13816	47514.2
1520.51324	39356.9
1523.88607	32118.8
1527.25665	27666.4
1530.62498	25266
1533.99105	23972.4
1537.35488	23188.5
1540.71647	22789.2
1544.07581	22685.5
1547.4329	22773.6
1550.78776	22894.4
1554.14038	23078.8
1557.49077	23428.6
1560.83892	23972.5
1564.18484	24848.1
1567.52853	25946.5
1570.86999	26796.6
1574.20922	27264.6
1577.54624	26971.3
1580.88103	25192.1
1584.2136	22973.7
1587.54395	21727.3
1590.87208	21926
1594.19801	23397.7
1597.52172	25605.6
1600.84321	26749.5
1604.16251	26010.1
1607.47959	24124.4
1610.79447	21929.2
1614.10715	19769.9
1617.41763	18102.9
1620.7259	17078.4
1624.03199	16646.9
1627.33587	16720.7
1630.63757	17227
1633.93707	18371.2
1637.23439	20269
1640.52951	23267.8
1643.82246	27878.1
1647.11321	33289.4
1650.40179	36647.9
1653.68819	34821.2
1656.97241	28797.5
1660.25446	22738.6
1663.53433	18740.9
1666.81203	16443.4
1670.08756	15109.7
1673.36092	14347.7
1676.63211	13804.9
1679.90115	13461.4
1683.16801	13205.4
1686.43272	12975.5
1689.69527	12823
1692.95567	12732
1696.2139	12608.5
1699.46999	12525.1
1702.72392	12489.6
1705.97571	12464.1
1709.22535	12417.2
1712.47284	12434.1
1715.71819	12413.8
1718.96139	12372.6
1722.20246	12329.7
1725.44139	12228
1728.67818	12129.2
1731.91284	12009.1
1735.14537	11926.6
1738.37576	11823.8
1741.60403	11783.2
1744.83017	11741
1748.05418	11694.5
1751.27607	11682.1
1754.49584	11643.1
1757.71349	11589.8
1760.92903	11528.9
1764.14244	11498.9
1767.35375	11458.3
1770.56294	11403.4
1773.77002	11360.7
1776.97499	11298.6
1780.17785	11252.9
1783.37861	11221.7
1786.57727	11205.6
1789.77382	11164.1
1792.96828	11138
1796.16064	11111.3
1799.3509	11070
1802.53907	11042.2
1805.72514	11029.3
1808.90913	10969
1812.09102	10933.4
1815.27083	10872.4
1818.44856	10862.7
1821.6242	10816.2
1824.79776	10813.6
1827.96924	10796
1831.13864	10768.7
1834.30597	10723.5
1837.47122	10732
1840.6344	10679.5
1843.7955	10667.8
1846.95454	10637.1
1850.11151	10649.6
1853.26642	10610.3
1856.41926	10596.9
1859.57004	10607.6
1862.71876	10615.5
1865.86542	10614.3
1869.01003	10596.5
1872.15258	10595.4
1875.29308	10627.8
1878.43152	10592.3
1881.56792	10567
1884.70227	10575.4
1887.83457	10562.3
1890.96482	10559.2
1894.09304	10564.8
1897.21921	10534.9
1900.34335	10501.9
1903.46544	10531.7
1906.58551	10528.7
1909.70353	10520.5
1912.81953	10480.8
1915.93349	10444.2
1919.04543	10424.8
1922.15534	10393.4
1925.26322	10346.4
1928.36908	10319.5
1931.47292	10297.6
1934.57473	10255.3
1937.67453	10219.8
1940.77232	10193.2
1943.86808	10135.4
1946.96184	10123.2
1950.05358	10085.8
1953.14331	10054.2
1956.23103	10041.2
1959.31675	10026.1
1962.40046	9997.8
1965.48217	9937.4
1968.56188	9943.6
1971.63959	9894.4
1974.7153	9882.5
1977.78901	9841.9
1980.86073	9788.1
1983.93046	9762.5
1986.99819	9723.1
1990.06394	9678.4
1993.1277	9635.7
1996.18947	9579.1
1999.24925	9573.6
2002.30706	9541.4
2005.36288	9472.5
2008.41672	9470.8
2011.46859	9430.3
2014.51848	9397.6
2017.56639	9354.4
2020.61233	9331.8
2023.6563	9318
2026.6983	9283.2
2029.73833	9231.9
2032.7764	9215.3
2035.8125	9211.5
2038.84664	9187
2041.87881	9195.9
2044.90903	9169.1
2047.93729	9129.6
2050.96359	9126.6
2053.98794	9137.2
2057.01034	9101.4
2060.03078	9086.8
2063.04927	9084
2066.06582	9041.4
2069.08042	9045.7
2072.09307	9015.4
2075.10378	8978.3
2078.11255	8983.1
2081.11938	9013.8
2084.12426	8984.3
2087.12722	8985.7
2090.12824	8950.8
2093.12732	8962.1
2096.12447	8969.4
2099.11969	8969.1
2102.11299	8955
2105.10435	8958.5
2108.09379	8962.7
2111.08131	8987.2
2114.0669	8952
2117.05057	8979.1
2120.03233	8990
2123.01216	9004.3
2125.99008	8999.1
2128.96609	9001.2
2131.94018	9020
2134.91236	9025.9
2137.88263	8993.5
2140.851	8975.3
2143.81746	8993.7
2146.78201	8988.1
2149.74466	8960
2152.7054	8948.5
2155.66425	8920.5
2158.6212	8922.1
2161.57625	8905.9
2164.52941	8915
2167.48067	8905.2
2170.43004	8874.5
2173.37752	8900.4
2176.32311	8888.4
2179.26681	8893.3
2182.20863	8887.7
2185.14856	8909.3
2188.08661	8887.4
2191.02278	8865.3
2193.95707	8871.3
2196.88948	8869.9
2199.82001	8858
2202.74867	8832.2
2205.67545	8836.7
2208.60037	8837.6
2211.52341	8814.2
2214.44458	8775.2
2217.36388	8766.8
2220.28132	8750.5
2223.1969	8709.2
2226.11061	8705.6
2229.02246	8688.5
2231.93245	8689.4
2234.84058	8645.7
2237.74686	8628.5
2240.65128	8632.1
2243.55385	8604.3
2246.45456	8581
2249.35343	8582.1
2252.25044	8597.7
2255.14561	8581.8
2258.03893	8604.5
2260.93041	8605.3
2263.82004	8590.4
2266.70783	8562.2
2269.59378	8532.3
2272.4779	8521.6
2275.36017	8497.8
2278.24061	8459.7
2281.11922	8441.6
2283.996	8394.1
2286.87094	8402
2289.74405	8387.8
2292.61534	8360.7
2295.4848	8326.4
2298.35243	8351.5
2301.21824	8315.7
2304.08223	8316.7
2306.94439	8318.2
2309.80474	8290.9
2312.66327	8313.1
2315.51999	8291.2
2318.37489	8298.1
2321.22797	8275.6
2324.07925	8262
2326.92871	8256.9
2329.77637	8233.3
2332.62222	8234.7
2335.46626	8231.8
2338.3085	8225.9
2341.14893	8230.2
2343.98756	8208.3
2346.8244	8217.4
2349.65943	8215.9
2352.49267	8243.8
2355.32411	8258
2358.15376	8288.1
2360.98161	8269.1
2363.80768	8302.9
2366.63195	8322.5
2369.45444	8288.6
2372.27514	8291.6
2375.09405	8303.3
2377.91118	8248.5
2380.72652	8219.1
2383.54009	8180.8
2386.35187	8133.7
2389.16188	8062.1
2391.97011	8062.3
2394.77657	8025.4
2397.58125	8022.2
2400.38416	7986.4
2403.18529	7934.7
2405.98466	7925.6
2408.78226	7911.6
2411.57809	7903.7
2414.37216	7877.3
2417.16446	7875.9
2419.955	7873.7
2422.74378	7883
2425.5308	7864.7
2428.31606	7875.3
2431.09956	7866.4
2433.88131	7843.5
2436.6613	7879.6
2439.43954	7860.7
2442.21603	7870.3
2444.99077	7870.7
2447.76377	7877.2
2450.53501	7865.2
2453.30451	7861
2456.07226	7869.4
2458.83827	7869.9
2461.60254	7848.6
2464.36507	7842
2467.12586	7825
2469.88492	7820.9
2472.64224	7829.6
2475.39782	7847.1
2478.15167	7848.4
2480.90379	7875.7
2483.65417	7919.6
2486.40283	7921.9
2489.14976	7949.2
2491.89497	7953
2494.63845	7951.4
2497.3802	7933.3
2500.12024	7929.4
2502.85855	7903.9
2505.59514	7864.8
2508.33002	7827.4
2511.06318	7803.5
2513.79462	7745.2
2516.52435	7698.1
2519.25237	7676.7
2521.97867	7642.3
2524.70327	7640.7
2527.42616	7607.9
2530.14734	7600
2532.86681	7597.2
2535.58458	7620.8
2538.30065	7623.4
2541.01501	7611
2543.72768	7598.9
2546.43864	7600.7
2549.14791	7623.1
2551.85548	7581.8
2554.56136	7581.7
2557.26554	7594.6
2559.96803	7582.4
2562.66883	7547.8
2565.36794	7557.7
2568.06536	7525.3
2570.7611	7521.5
2573.45514	7517.7
2576.14751	7495.6
2578.83819	7458.4
2581.52719	7479.3
2584.21451	7455.3
2586.90015	7442.6
2589.58411	7430.3
2592.2664	7428.8
2594.94701	7392.1
2597.62594	7404.7
2600.30321	7397.9
2602.9788	7382.5
2605.65273	7359.9
2608.32498	7385.4
2610.99557	7384.5
2613.66449	7407
2616.33175	7398.8
2618.99734	7409
2621.66128	7373.7
2624.32355	7369.5
2626.98416	7361.5
2629.64311	7345.6
2632.30041	7319.6
2634.95605	7333.2
2637.61004	7297.8
2640.26238	7295.6
2642.91306	7294.9
2645.56209	7268.5
2648.20948	7279.8
2650.85521	7259.5
2653.4993	7266.9
2656.14175	7236.9
2658.78255	7288.9
2661.42171	7269.2
2664.05923	7306.4
2666.6951	7296.8
2669.32934	7324.1
2671.96194	7337.5
2674.59291	7324
2677.22224	7302.7
2679.84993	7296.9
2682.476	7327.9
2685.10043	7332.1
2687.72324	7303.5
2690.34441	7273.9
2692.96396	7256.5
2695.58188	7268.9
2698.19818	7283.6
2700.81285	7291.8
2703.4259	7248.7
2706.03733	7254.3
2708.64714	7283.9
2711.25533	7273.7
2713.86191	7288
2716.46687	7278.3
2719.07021	7294.2
2721.67194	7289.4
2724.27206	7289.3
2726.87057	7296.5
2729.46747	7282.3
2732.06276	7265.3
2734.65644	7259.4
2737.24852	7262.6
2739.83899	7261.7
2742.42786	7249.9
2745.01513	7219.2
2747.60079	7208.7
2750.18486	7209
2752.76733	7201.6
2755.3482	7171.4
2757.92747	7154.4
2760.50515	7142.4
2763.08123	7144.4
2765.65573	7152.7
2768.22863	7126
2770.79994	7108
2773.36967	7124.9
2775.9378	7122.7
2778.50435	7109.2
2781.06932	7109.1
2783.6327	7119.7
2786.1945	7111.8
2788.75471	7131.2
2791.31335	7113.5
2793.87041	7120
2796.42589	7080.9
2798.97979	7098.7
2801.53212	7111.7
2804.08288	7094
2806.63206	7086.4
2809.17967	7082.2
2811.72571	7078.6
2814.27018	7090.7
2816.81308	7093.1
2819.35442	7097.8
2821.89419	7093.2
2824.43239	7129
2826.96904	7118.8
2829.50412	7123.8
2832.03763	7109.1
2834.56959	7098
2837.1	7082.1
2839.62884	7101.1
2842.15613	7084.9
2844.68186	7099.8
2847.20604	7131.4
2849.72867	7155.8
2852.24974	7151.4
2854.76927	7134.5
2857.28724	7138.7
2859.80367	7155.2
2862.31855	7166.5
2864.83189	7163.4
2867.34368	7178.8
2869.85393	7157.6
2872.36264	7183.9
2874.8698	7163.4
2877.37543	7169.1
2879.87952	7142.4
2882.38207	7148.7
2884.88308	7132.2
2887.38256	7153.1
2889.88051	7145.5
2892.37692	7147.7
2894.8718	7138.3
2897.36515	7137
2899.85698	7117.5
2902.34727	7136.2
2904.83604	7159
2907.32328	7157.7
2909.809	7187.2
2912.29319	7157.4
2914.77587	7156.6
2917.25702	7155.8
2919.73665	7169.3
2922.21476	7175.6
2924.69136	7149.6
2927.16644	7132.8
2929.64	7099.6
2932.11205	7104.8
2934.58258	7076.2
2937.05161	7071.6
2939.51912	7056.9
2941.98513	7038.1
2944.44962	7011.9
2946.91261	6999.3
2949.37409	6991.6
2951.83407	6986.2
2954.29254	6979.5
2956.74951	6944.1
2959.20498	6964.6
2961.65895	6935.7
2964.11142	6922.8
2966.56239	6897
2969.01186	6886.4
2971.45984	6845.6
2973.90632	6834.4
2976.35131	6791.3
2978.7948	6792.9
2981.23681	6760.2
2983.67732	6763
2986.11635	6731.3
2988.55388	6718.8
2990.98993	6699.2
2993.4245	6678.7
2995.85758	6688.1
2998.28917	6663.6
3000.71928	6642.9
3003.14791	6656.9
3005.57506	6667
3008.00073	6645.2
3010.42493	6639
3012.84764	6633.1
3015.26888	6616.9
3017.68865	6600.4
3020.10694	6585.7
3022.52376	6575.8
3024.9391	6577.6
3027.35298	6532
3029.76539	6535.4
3032.17632	6474.8
3034.5858	6468
3036.9938	6459.8
3039.40034	6457.4
3041.80542	6443.2
3044.20903	6420
3046.61118	6410.3
3049.01187	6387.3
3051.4111	6388.3
3053.80888	6387.5
3056.20519	6372.2
3058.60005	6351.3
3060.99345	6340.6
3063.3854	6343.1
3065.7759	6302.4
3068.16494	6291.4
3070.55254	6250.4
3072.93868	6244.4
3075.32338	6212.4
3077.70662	6204.1
3080.08842	6188.3
3082.46878	6173.4
3084.84769	6184.5
3087.22515	6154.9
3089.60118	6170.1
3091.97576	6165.4
3094.3489	6166.4
3096.72061	6155.7
3099.09087	6137.2
3101.4597	6124.6
3103.82709	6126.3
3106.19305	6122.7
3108.55757	6135.9
3110.92066	6106.9
3113.28232	6086.1
3115.64255	6087.9
3118.00134	6061.2
3120.35871	6066.7
3122.71466	6041
3125.06917	6042.5
3127.42226	6021.5
3129.77393	6029.2
3132.12417	6034.3
3134.47299	6038.3
3136.82039	6044.1
3139.16636	6040.5
3141.51092	6032.7
3143.85406	6024.8
3146.19579	6045.2
3148.53609	6040.6
3150.87499	6050.2
3153.21246	6051
3155.54853	6061.5
3157.88318	6047.4
3160.21642	6051.8
3162.54826	6072.1
3164.87868	6063
3167.2077	6044.9
3169.5353	6057.9
3171.86151	6065.2
3174.18631	6036.2
3176.5097	6035.5
3178.83169	6036.7
3181.15228	6031.2
3183.47147	6032.9
3185.78926	6030.1
3188.10565	6006.5
3190.42065	6018.3
3192.73424	6028.2
3195.04645	6021.2
3197.35725	6050.3
3199.66667	6054
3201.97469	6061.5
3204.28132	6064.2
3206.58656	6080.1
3208.8904	6087.5
3211.19287	6073
3213.49394	6090.4
3215.79363	6087.1
3218.09193	6097.3
3220.38884	6102.6
3222.68438	6112.4
3224.97853	6109.8
3227.2713	6116.9
3229.56269	6124.3
3231.8527	6103.5
3234.14133	6112
3236.42858	6078.1
3238.71446	6099
3240.99896	6053.3
3243.28209	6068.7
3245.56384	6052.6
3247.84423	6057.9
3250.12324	6047
3252.40088	6062.1
3254.67715	6050.8
3256.95205	6023.7
3259.22558	6045.1
3261.49775	6031
3263.76855	6013.7
3266.03799	6000.6
3268.30606	6015.9
3270.57277	5989.6
3272.83812	5995.1
3275.10211	5984.1
3277.36474	5972.7
3279.62601	5980.5
3281.88593	5973.5
3284.14448	5958.8
3286.40168	5979
3288.65753	5971.5
3290.91202	5964.8
3293.16516	5962.6
3295.41695	5952.6
3297.66738	5912.2
3299.91647	5893.1
3302.16421	5848.6
3304.4106	5833.3
3306.65564	5801.5
3308.89933	5762.9
3311.14169	5706.3
3313.38269	5643.9
3315.62236	5620.5
3317.86068	5570.9
3320.09766	5511.8
3322.3333	5475.7
3324.5676	5443
3326.80056	5360.4
3329.03219	5329.5
3331.26248	2.8
3333.49143	0.2
3335.71905	-0.5
