Data from AgNPs_FTO_APTES_UA_50uM_CRN_1000uM_R6G_10uM_NaF_0.1M_Addition_RamanShift__1__17-27-23-572.txt Node

Date: Mon Feb 21 17:27:23 GMT 2022
User: TCL
Spectrometer: QEP01345
Trigger mode: 4
Integration Time (sec): 7.000000E0
Scans to average: 10
Electric dark correction enabled: true
Nonlinearity correction enabled: false
Boxcar width: 0
XAxis mode: Raman Shifts
Number of Pixels in Spectrum: 1044
>>>>>Begin Spectral Data<<<<<
46.04893	-0.8375
50.45542	-0.0375
54.85868	-0.4375
59.25871	-1.7375
63.6555	49.1625
68.04907	54.0625
72.43941	58.4625
76.82654	61.3625
81.21044	63.6625
85.59113	65.3625
89.96862	67.6625
94.34289	70.8625
98.71396	72.2625
103.08183	74.3625
107.4465	77.6625
111.80798	78.9625
116.16626	78.7625
120.52136	84.4625
124.87327	83.0625
129.222	83.4625
133.56755	92.9625
137.90993	94.7625
142.24913	100.9625
146.58517	110.2625
150.91804	121.9625
155.24774	144.2625
159.57429	173.4625
163.89768	223.9625
168.21792	294.8625
172.53501	388.9625
176.84895	546.7625
181.15975	759.3625
185.46741	1070.1625
189.77193	1465.1625
194.07331	1973.5625
198.37157	2548.6625
202.6667	3164.5625
206.9587	3765.3625
211.24758	4369.3625
215.53334	4979.2625
219.81599	5608.9625
224.09553	6323.1625
228.37195	7112.0625
232.64527	7988.6625
236.91549	8864.2625
241.18261	9727.7625
245.44663	10499.3625
249.70755	11173.7625
253.96539	11721.2625
258.22014	12168.2625
262.4718	12549.3625
266.72039	12824.2625
270.96589	12928.3625
275.20832	12929.2625
279.44768	12748.5625
283.68397	12525.2625
287.91719	12372.6625
292.14735	12270.4625
296.37445	12302.3625
300.59849	12399.2625
304.81948	12579.2625
309.03742	12721.1625
313.25231	12730.7625
317.46415	12544.0625
321.67296	12207.5625
325.87872	11876.8625
330.08145	11744.2625
334.28114	11715.8625
338.47781	11787.2625
342.67145	11941.0625
346.86207	12192.2625
351.04966	12472.6625
355.23424	12837.9625
359.4158	13103.9625
363.59435	13283.0625
367.76989	13357.8625
371.94243	13412.6625
376.11196	13450.1625
380.27849	13476.3625
384.44203	13500.9625
388.60257	13601.8625
392.76012	13616.2625
396.91468	13730.9625
401.06626	13866.1625
405.21485	13992.8625
409.36047	13853.7625
413.50311	13551.2625
417.64277	13276.1625
421.77947	13130.8625
425.9132	13087.2625
430.04396	13150.7625
434.17176	13238.0625
438.2966	13365.0625
442.41849	13619.0625
446.53742	13971.2625
450.6534	14320.5625
454.76644	14527.0625
458.87653	14554.2625
462.98368	14436.3625
467.08789	14217.7625
471.18916	14047.6625
475.2875	13815.2625
479.38291	13656.7625
483.4754	13499.7625
487.56496	13361.2625
491.6516	13262.3625
495.73531	13170.8625
499.81612	13162.7625
503.89401	13236.3625
507.96899	13310.6625
512.04106	13384.7625
516.11023	13400.4625
520.1765	13443.9625
524.23987	13460.5625
528.30034	13408.6625
532.35792	13327.9625
536.41261	13217.1625
540.46441	13057.8625
544.51333	12957.7625
548.55936	13023.4625
552.60252	13189.1625
556.64279	13485.8625
560.6802	13630.7625
564.71473	13658.3625
568.7464	13838.1625
572.7752	14049.0625
576.80114	14036.6625
580.82422	13994.5625
584.84444	14141.0625
588.86181	14570.8625
592.87633	15095.9625
596.888	15348.9625
600.89682	15191.2625
604.9028	15446.5625
608.90594	17095.3625
612.90624	19371.3625
616.90371	18645.7625
620.89834	15294.5625
624.89015	13675.6625
628.87913	13439.0625
632.86528	13567.3625
636.84862	13712.5625
640.82913	13582.6625
644.80683	13253.9625
648.78172	12978.6625
652.75379	12955.4625
656.72306	13117.2625
660.68952	13364.5625
664.65319	13240.1625
668.61405	12946.7625
672.57211	12875.4625
676.52738	12940.9625
680.47986	12966.0625
684.42955	12913.4625
688.37646	12813.5625
692.32058	12823.5625
696.26192	12862.9625
700.20048	12946.7625
704.13626	13005.2625
708.06928	12981.1625
711.99952	12913.2625
715.927	12879.6625
719.85171	12962.0625
723.77365	12984.3625
727.69284	12855.9625
731.60928	12750.2625
735.52295	12780.4625
739.43388	12797.2625
743.34206	12794.8625
747.24749	12830.2625
751.15017	12852.3625
755.05012	12975.6625
758.94733	13275.1625
762.8418	13985.1625
766.73354	15183.2625
770.62254	16449.2625
774.50882	17040.1625
778.39237	16453.7625
782.27321	15133.9625
786.15132	13963.7625
790.02671	13227.3625
793.89938	12869.4625
797.76935	12707.2625
801.6366	12624.6625
805.50115	12565.4625
809.36299	12559.9625
813.22213	12484.1625
817.07857	12446.9625
820.93231	12423.8625
824.78336	12380.8625
828.63172	12363.6625
832.47738	12352.1625
836.32036	12349.7625
840.16066	12346.0625
843.99827	12356.9625
847.8332	12325.2625
851.66546	12314.4625
855.49504	12297.9625
859.32195	12348.8625
863.1462	12334.1625
866.96777	12327.3625
870.78668	12308.9625
874.60293	12331.6625
878.41652	12346.2625
882.22745	12379.5625
886.03573	12451.4625
889.84136	12437.7625
893.64433	12394.8625
897.44466	12304.6625
901.24235	12251.4625
905.0374	12183.1625
908.8298	12123.5625
912.61957	12065.5625
916.40671	12140.8625
920.19121	12207.7625
923.97308	12308.1625
927.75233	12397.6625
931.52895	12404.8625
935.30295	12306.6625
939.07433	12117.4625
942.84309	11914.7625
946.60924	11804.4625
950.37278	11743.4625
954.13371	11707.5625
957.89203	11648.4625
961.64774	11631.2625
965.40086	11609.8625
969.15137	11562.7625
972.89929	11541.7625
976.64461	11525.1625
980.38733	11519.8625
984.12747	11519.6625
987.86502	11624.0625
991.59999	11690.6625
995.33237	11822.9625
999.06217	12001.5625
1002.78939	12227.4625
1006.51404	12377.0625
1010.23611	12525.1625
1013.95561	12619.0625
1017.67255	12675.7625
1021.38692	12591.9625
1025.09872	12433.7625
1028.80796	12350.9625
1032.51465	12453.3625
1036.21877	12598.8625
1039.92035	12654.1625
1043.61937	12639.4625
1047.31584	12549.3625
1051.00976	12409.6625
1054.70114	12313.3625
1058.38998	12287.2625
1062.07627	12264.3625
1065.76003	12321.0625
1069.44126	12357.0625
1073.11995	12430.4625
1076.79611	12554.6625
1080.46974	12694.7625
1084.14085	12807.9625
1087.80943	12940.0625
1091.47549	13030.8625
1095.13903	12968.8625
1098.80005	12784.6625
1102.45857	12590.2625
1106.11456	12485.5625
1109.76805	12495.6625
1113.41903	12597.7625
1117.06751	12794.8625
1120.71348	13041.3625
1124.35696	13336.2625
1127.99793	13627.4625
1131.63641	13737.9625
1135.2724	13485.5625
1138.90589	13260.8625
1142.5369	13060.6625
1146.16542	12908.0625
1149.79145	12850.0625
1153.415	12830.9625
1157.03607	12895.5625
1160.65467	13088.6625
1164.27079	13444.8625
1167.88443	13996.8625
1171.49561	14716.3625
1175.10432	15767.2625
1178.71056	17135.2625
1182.31434	18430.6625
1185.91565	18991.9625
1189.51451	18733.1625
1193.11091	18030.3625
1196.70485	17213.1625
1200.29634	16525.5625
1203.88538	15893.6625
1207.47197	15289.6625
1211.05612	14764.4625
1214.63782	14399.4625
1218.21708	14264.2625
1221.79391	14252.5625
1225.36829	14239.5625
1228.94024	14225.6625
1232.50976	14064.5625
1236.07685	13871.1625
1239.6415	13793.5625
1243.20374	13744.4625
1246.76355	13833.5625
1250.32093	13951.4625
1253.8759	14116.9625
1257.42845	14431.4625
1260.97859	14707.4625
1264.52631	15041.6625
1268.07163	15361.6625
1271.61453	15710.3625
1275.15503	16012.9625
1278.69312	16276.3625
1282.22882	16501.1625
1285.76211	16828.1625
1289.29301	17249.2625
1292.82151	17871.8625
1296.34761	18576.4625
1299.87133	19519.0625
1303.39266	20657.4625
1306.9116	22140.7625
1310.42815	23629.7625
1313.94233	24510.6625
1317.45412	24152.6625
1320.96354	22989.5625
1324.47058	21769.1625
1327.97525	20603.5625
1331.47754	19773.6625
1334.97747	19323.3625
1338.47502	19187.3625
1341.97022	19311.3625
1345.46305	19652.3625
1348.95352	20293.5625
1352.44163	21254.8625
1355.92738	22700.4625
1359.41078	24597.7625
1362.89183	26368.5625
1366.37053	25991.9625
1369.84688	23147.5625
1373.32088	19949.0625
1376.79254	17914.1625
1380.26186	17012.5625
1383.72883	16651.9625
1387.19347	16360.0625
1390.65578	15995.8625
1394.11575	15736.1625
1397.57339	15690.0625
1401.0287	15725.9625
1404.48168	15741.3625
1407.93234	15700.7625
1411.38068	15545.5625
1414.82669	15386.6625
1418.27039	15164.3625
1421.71177	14896.9625
1425.15083	14599.5625
1428.58758	14440.6625
1432.02203	14487.5625
1435.45416	14677.4625
1438.88399	14837.1625
1442.31151	14960.2625
1445.73673	15055.0625
1449.15965	15062.2625
1452.58027	15037.4625
1455.9986	14951.8625
1459.41463	14945.8625
1462.82837	15087.7625
1466.23982	15300.0625
1469.64898	15559.4625
1473.05586	15761.0625
1476.46045	15888.5625
1479.86276	15966.0625
1483.26279	16039.3625
1486.66054	16153.4625
1490.05602	16428.4625
1493.44922	16796.2625
1496.84016	17398.3625
1500.22882	18351.1625
1503.61521	19684.7625
1506.99934	21221.8625
1510.38121	22470.4625
1513.76081	22806.5625
1517.13816	21785.9625
1520.51324	20020.1625
1523.88607	18375.2625
1527.25665	17421.3625
1530.62498	16931.4625
1533.99105	16693.7625
1537.35488	16407.1625
1540.71647	16098.9625
1544.07581	15856.2625
1547.4329	15573.3625
1550.78776	15370.9625
1554.14038	15270.3625
1557.49077	15251.3625
1560.83892	15303.3625
1564.18484	15417.0625
1567.52853	15714.5625
1570.86999	16011.8625
1574.20922	16280.8625
1577.54624	16397.7625
1580.88103	16052.8625
1584.2136	15578.8625
1587.54395	15402.8625
1590.87208	15675.1625
1594.19801	16381.1625
1597.52172	17266.7625
1600.84321	17744.5625
1604.16251	17373.9625
1607.47959	16461.6625
1610.79447	15362.7625
1614.10715	14358.7625
1617.41763	13527.7625
1620.7259	12956.1625
1624.03199	12700.0625
1627.33587	12671.9625
1630.63757	12878.2625
1633.93707	13414.4625
1637.23439	14289.5625
1640.52951	15647.9625
1643.82246	17539.6625
1647.11321	19345.2625
1650.40179	20197.9625
1653.68819	19270.2625
1656.97241	17056.3625
1660.25446	14770.0625
1663.53433	13186.8625
1666.81203	12220.6625
1670.08756	11648.1625
1673.36092	11276.4625
1676.63211	11022.7625
1679.90115	10839.6625
1683.16801	10720.1625
1686.43272	10588.3625
1689.69527	10489.4625
1692.95567	10406.0625
1696.2139	10305.3625
1699.46999	10259.8625
1702.72392	10213.8625
1705.97571	10196.8625
1709.22535	10188.4625
1712.47284	10160.7625
1715.71819	10145.4625
1718.96139	10119.7625
1722.20246	10111.2625
1725.44139	10074.1625
1728.67818	10011.7625
1731.91284	9956.5625
1735.14537	9909.6625
1738.37576	9862.0625
1741.60403	9834.6625
1744.83017	9803.9625
1748.05418	9793.5625
1751.27607	9770.6625
1754.49584	9763.6625
1757.71349	9736.0625
1760.92903	9739.4625
1764.14244	9716.8625
1767.35375	9662.6625
1770.56294	9652.8625
1773.77002	9621.1625
1776.97499	9602.1625
1780.17785	9572.1625
1783.37861	9550.5625
1786.57727	9540.0625
1789.77382	9496.3625
1792.96828	9505.7625
1796.16064	9473.6625
1799.3509	9452.7625
1802.53907	9434.9625
1805.72514	9408.6625
1808.90913	9391.6625
1812.09102	9362.1625
1815.27083	9324.0625
1818.44856	9331.6625
1821.6242	9311.2625
1824.79776	9293.0625
1827.96924	9259.0625
1831.13864	9266.6625
1834.30597	9268.9625
1837.47122	9256.0625
1840.6344	9215.2625
1843.7955	9205.9625
1846.95454	9213.2625
1850.11151	9205.0625
1853.26642	9188.2625
1856.41926	9161.8625
1859.57004	9168.9625
1862.71876	9157.5625
1865.86542	9157.2625
1869.01003	9140.6625
1872.15258	9143.8625
1875.29308	9144.7625
1878.43152	9130.8625
1881.56792	9110.2625
1884.70227	9129.1625
1887.83457	9088.6625
1890.96482	9114.9625
1894.09304	9092.0625
1897.21921	9056.8625
1900.34335	9083.5625
1903.46544	9067.3625
1906.58551	9034.2625
1909.70353	9041.1625
1912.81953	9010.8625
1915.93349	9013.3625
1919.04543	8975.1625
1922.15534	8958.3625
1925.26322	8931.7625
1928.36908	8940.7625
1931.47292	8871.0625
1934.57473	8855.7625
1937.67453	8875.4625
1940.77232	8859.3625
1943.86808	8822.8625
1946.96184	8776.0625
1950.05358	8762.4625
1953.14331	8729.8625
1956.23103	8705.3625
1959.31675	8708.9625
1962.40046	8676.0625
1965.48217	8646.4625
1968.56188	8643.8625
1971.63959	8609.9625
1974.7153	8566.6625
1977.78901	8538.4625
1980.86073	8501.4625
1983.93046	8504.6625
1986.99819	8473.6625
1990.06394	8460.9625
1993.1277	8424.9625
1996.18947	8412.2625
1999.24925	8381.7625
2002.30706	8364.6625
2005.36288	8295.9625
2008.41672	8287.8625
2011.46859	8276.9625
2014.51848	8243.5625
2017.56639	8211.1625
2020.61233	8199.7625
2023.6563	8190.9625
2026.6983	8166.9625
2029.73833	8135.0625
2032.7764	8111.9625
2035.8125	8112.7625
2038.84664	8079.3625
2041.87881	8060.2625
2044.90903	8049.5625
2047.93729	8042.0625
2050.96359	8039.4625
2053.98794	8021.1625
2057.01034	8024.2625
2060.03078	8011.4625
2063.04927	8007.2625
2066.06582	7998.4625
2069.08042	7992.7625
2072.09307	7979.5625
2075.10378	7951.5625
2078.11255	7960.5625
2081.11938	7965.2625
2084.12426	7962.2625
2087.12722	7953.6625
2090.12824	7930.2625
2093.12732	7940.8625
2096.12447	7949.0625
2099.11969	7962.4625
2102.11299	7952.0625
2105.10435	7969.6625
2108.09379	7972.8625
2111.08131	7971.2625
2114.0669	7951.7625
2117.05057	7968.5625
2120.03233	7968.9625
2123.01216	7960.6625
2125.99008	7984.4625
2128.96609	7999.8625
2131.94018	8036.2625
2134.91236	8012.1625
2137.88263	8011.5625
2140.851	7997.6625
2143.81746	8025.7625
2146.78201	8014.3625
2149.74466	7999.6625
2152.7054	8008.8625
2155.66425	7999.2625
2158.6212	7991.3625
2161.57625	7983.0625
2164.52941	7984.4625
2167.48067	7987.1625
2170.43004	7964.2625
2173.37752	7981.3625
2176.32311	7969.5625
2179.26681	7995.0625
2182.20863	7969.5625
2185.14856	7982.5625
2188.08661	7971.0625
2191.02278	7961.9625
2193.95707	7961.4625
2196.88948	7960.8625
2199.82001	7988.5625
2202.74867	7959.4625
2205.67545	7955.8625
2208.60037	7935.2625
2211.52341	7916.9625
2214.44458	7904.2625
2217.36388	7884.5625
2220.28132	7902.9625
2223.1969	7852.3625
2226.11061	7841.4625
2229.02246	7833.1625
2231.93245	7840.9625
2234.84058	7813.2625
2237.74686	7806.4625
2240.65128	7763.1625
2243.55385	7772.6625
2246.45456	7752.8625
2249.35343	7744.9625
2252.25044	7721.6625
2255.14561	7732.5625
2258.03893	7728.0625
2260.93041	7743.6625
2263.82004	7727.3625
2266.70783	7698.5625
2269.59378	7684.7625
2272.4779	7652.4625
2275.36017	7646.0625
2278.24061	7643.5625
2281.11922	7593.7625
2283.996	7577.3625
2286.87094	7550.0625
2289.74405	7559.7625
2292.61534	7536.8625
2295.4848	7563.7625
2298.35243	7556.6625
2301.21824	7541.8625
2304.08223	7531.2625
2306.94439	7526.3625
2309.80474	7517.1625
2312.66327	7530.6625
2315.51999	7528.0625
2318.37489	7513.6625
2321.22797	7495.1625
2324.07925	7483.9625
2326.92871	7468.0625
2329.77637	7464.6625
2332.62222	7460.6625
2335.46626	7465.5625
2338.3085	7448.6625
2341.14893	7449.2625
2343.98756	7437.8625
2346.8244	7431.9625
2349.65943	7420.1625
2352.49267	7410.2625
2355.32411	7415.9625
2358.15376	7417.5625
2360.98161	7421.1625
2363.80768	7411.4625
2366.63195	7423.0625
2369.45444	7396.5625
2372.27514	7396.9625
2375.09405	7379.3625
2377.91118	7365.0625
2380.72652	7358.5625
2383.54009	7352.8625
2386.35187	7308.6625
2389.16188	7291.6625
2391.97011	7279.1625
2394.77657	7278.7625
2397.58125	7242.1625
2400.38416	7219.0625
2403.18529	7201.9625
2405.98466	7214.6625
2408.78226	7201.9625
2411.57809	7191.9625
2414.37216	7169.3625
2417.16446	7156.2625
2419.955	7158.0625
2422.74378	7162.9625
2425.5308	7150.4625
2428.31606	7141.5625
2431.09956	7148.8625
2433.88131	7144.5625
2436.6613	7129.8625
2439.43954	7127.9625
2442.21603	7117.8625
2444.99077	7128.3625
2447.76377	7111.3625
2450.53501	7122.7625
2453.30451	7108.4625
2456.07226	7103.1625
2458.83827	7112.8625
2461.60254	7097.2625
2464.36507	7090.1625
2467.12586	7082.2625
2469.88492	7070.9625
2472.64224	7096.9625
2475.39782	7066.8625
2478.15167	7073.2625
2480.90379	7085.2625
2483.65417	7104.0625
2486.40283	7090.6625
2489.14976	7080.5625
2491.89497	7110.8625
2494.63845	7100.8625
2497.3802	7092.5625
2500.12024	7094.2625
2502.85855	7076.4625
2505.59514	7082.0625
2508.33002	7057.5625
2511.06318	7024.1625
2513.79462	7015.6625
2516.52435	7010.8625
2519.25237	7004.2625
2521.97867	6990.8625
2524.70327	6976.7625
2527.42616	6965.6625
2530.14734	6953.5625
2532.86681	6961.9625
2535.58458	6964.0625
2538.30065	6937.3625
2541.01501	6937.3625
2543.72768	6941.2625
2546.43864	6923.5625
2549.14791	6917.9625
2551.85548	6916.1625
2554.56136	6898.7625
2557.26554	6897.5625
2559.96803	6874.0625
2562.66883	6867.9625
2565.36794	6852.2625
2568.06536	6866.7625
2570.7611	6838.9625
2573.45514	6840.0625
2576.14751	6844.9625
2578.83819	6822.6625
2581.52719	6833.4625
2584.21451	6812.1625
2586.90015	6792.3625
2589.58411	6782.7625
2592.2664	6784.0625
2594.94701	6767.1625
2597.62594	6744.5625
2600.30321	6752.0625
2602.9788	6744.0625
2605.65273	6716.3625
2608.32498	6726.9625
2610.99557	6726.7625
2613.66449	6721.2625
2616.33175	6725.0625
2618.99734	6702.3625
2621.66128	6693.0625
2624.32355	6678.0625
2626.98416	6675.5625
2629.64311	6675.0625
2632.30041	6684.1625
2634.95605	6640.7625
2637.61004	6639.6625
2640.26238	6647.7625
2642.91306	6630.1625
2645.56209	6624.3625
2648.20948	6637.8625
2650.85521	6616.6625
2653.4993	6613.9625
2656.14175	6637.5625
2658.78255	6626.7625
2661.42171	6637.0625
2664.05923	6634.3625
2666.6951	6634.2625
2669.32934	6637.2625
2671.96194	6644.7625
2674.59291	6623.2625
2677.22224	6613.4625
2679.84993	6633.8625
2682.476	6618.3625
2685.10043	6637.5625
2687.72324	6610.3625
2690.34441	6613.9625
2692.96396	6601.6625
2695.58188	6620.4625
2698.19818	6610.1625
2700.81285	6617.4625
2703.4259	6603.0625
2706.03733	6596.0625
2708.64714	6609.1625
2711.25533	6626.1625
2713.86191	6608.1625
2716.46687	6634.6625
2719.07021	6628.6625
2721.67194	6643.0625
2724.27206	6633.6625
2726.87057	6642.0625
2729.46747	6637.5625
2732.06276	6638.0625
2734.65644	6653.9625
2737.24852	6644.8625
2739.83899	6622.6625
2742.42786	6612.5625
2745.01513	6617.4625
2747.60079	6600.2625
2750.18486	6578.7625
2752.76733	6593.9625
2755.3482	6583.7625
2757.92747	6571.4625
2760.50515	6542.7625
2763.08123	6545.1625
2765.65573	6526.6625
2768.22863	6541.3625
2770.79994	6518.9625
2773.36967	6540.1625
2775.9378	6516.2625
2778.50435	6538.4625
2781.06932	6501.5625
2783.6327	6514.4625
2786.1945	6502.2625
2788.75471	6516.7625
2791.31335	6486.8625
2793.87041	6488.6625
2796.42589	6463.9625
2798.97979	6465.2625
2801.53212	6435.6625
2804.08288	6456.8625
2806.63206	6410.3625
2809.17967	6422.7625
2811.72571	6393.4625
2814.27018	6400.1625
2816.81308	6378.1625
2819.35442	6383.8625
2821.89419	6390.7625
2824.43239	6390.5625
2826.96904	6382.3625
2829.50412	6391.6625
2832.03763	6374.6625
2834.56959	6369.3625
2837.1	6379.5625
2839.62884	6374.8625
2842.15613	6382.4625
2844.68186	6395.4625
2847.20604	6418.6625
2849.72867	6433.3625
2852.24974	6430.1625
2854.76927	6414.7625
2857.28724	6406.2625
2859.80367	6405.9625
2862.31855	6410.5625
2864.83189	6396.1625
2867.34368	6396.5625
2869.85393	6397.4625
2872.36264	6375.1625
2874.8698	6368.9625
2877.37543	6391.7625
2879.87952	6395.2625
2882.38207	6377.6625
2884.88308	6380.4625
2887.38256	6381.6625
2889.88051	6398.6625
2892.37692	6408.2625
2894.8718	6383.0625
2897.36515	6394.2625
2899.85698	6421.9625
2902.34727	6422.0625
2904.83604	6425.8625
2907.32328	6447.4625
2909.809	6461.0625
2912.29319	6445.0625
2914.77587	6455.6625
2917.25702	6448.8625
2919.73665	6449.0625
2922.21476	6476.9625
2924.69136	6454.1625
2927.16644	6479.8625
2929.64	6468.2625
2932.11205	6447.1625
2934.58258	6419.8625
2937.05161	6427.8625
2939.51912	6419.3625
2941.98513	6424.6625
2944.44962	6381.2625
2946.91261	6363.2625
2949.37409	6363.7625
2951.83407	6373.5625
2954.29254	6353.6625
2956.74951	6344.0625
2959.20498	6333.8625
2961.65895	6327.5625
2964.11142	6322.1625
2966.56239	6290.2625
2969.01186	6308.4625
2971.45984	6273.1625
2973.90632	6249.7625
2976.35131	6237.5625
2978.7948	6225.8625
2981.23681	6214.2625
2983.67732	6211.7625
2986.11635	6189.0625
2988.55388	6186.7625
2990.98993	6165.7625
2993.4245	6135.4625
2995.85758	6131.2625
2998.28917	6138.4625
3000.71928	6130.3625
3003.14791	6109.2625
3005.57506	6125.4625
3008.00073	6087.5625
3010.42493	6061.6625
3012.84764	6068.0625
3015.26888	6063.8625
3017.68865	6057.9625
3020.10694	6057.2625
3022.52376	6034.2625
3024.9391	6024.9625
3027.35298	6013.1625
3029.76539	6005.0625
3032.17632	6009.7625
3034.5858	5982.1625
3036.9938	5975.8625
3039.40034	5964.2625
3041.80542	5974.5625
3044.20903	5976.7625
3046.61118	5964.8625
3049.01187	5961.1625
3051.4111	5956.9625
3053.80888	5943.5625
3056.20519	5938.8625
3058.60005	5926.8625
3060.99345	5927.5625
3063.3854	5899.0625
3065.7759	5908.9625
3068.16494	5886.1625
3070.55254	5875.4625
3072.93868	5862.5625
3075.32338	5835.6625
3077.70662	5826.7625
3080.08842	5826.4625
3082.46878	5819.4625
3084.84769	5822.5625
3087.22515	5812.9625
3089.60118	5830.9625
3091.97576	5822.8625
3094.3489	5823.0625
3096.72061	5805.4625
3099.09087	5836.9625
3101.4597	5822.3625
3103.82709	5810.6625
3106.19305	5826.2625
3108.55757	5803.3625
3110.92066	5802.3625
3113.28232	5797.1625
3115.64255	5782.1625
3118.00134	5782.8625
3120.35871	5786.0625
3122.71466	5772.4625
3125.06917	5754.9625
3127.42226	5742.8625
3129.77393	5752.7625
3132.12417	5746.4625
3134.47299	5762.5625
3136.82039	5762.8625
3139.16636	5757.5625
3141.51092	5770.7625
3143.85406	5772.1625
3146.19579	5764.4625
3148.53609	5772.3625
3150.87499	5780.7625
3153.21246	5808.6625
3155.54853	5789.1625
3157.88318	5784.1625
3160.21642	5794.4625
3162.54826	5808.0625
3164.87868	5815.5625
3167.2077	5810.0625
3169.5353	5809.6625
3171.86151	5825.0625
3174.18631	5799.6625
3176.5097	5820.8625
3178.83169	5784.6625
3181.15228	5788.5625
3183.47147	5778.5625
3185.78926	5778.7625
3188.10565	5770.4625
3190.42065	5784.4625
3192.73424	5765.3625
3195.04645	5781.6625
3197.35725	5765.0625
3199.66667	5777.4625
3201.97469	5795.2625
3204.28132	5795.0625
3206.58656	5823.4625
3208.8904	5800.7625
3211.19287	5807.8625
3213.49394	5798.2625
3215.79363	5807.5625
3218.09193	5803.1625
3220.38884	5809.7625
3222.68438	5839.3625
3224.97853	5835.0625
3227.2713	5838.2625
3229.56269	5817.0625
3231.8527	5813.5625
3234.14133	5813.6625
3236.42858	5794.4625
3238.71446	5795.7625
3240.99896	5774.7625
3243.28209	5766.2625
3245.56384	5759.0625
3247.84423	5752.0625
3250.12324	5755.7625
3252.40088	5744.6625
3254.67715	5739.6625
3256.95205	5735.3625
3259.22558	5740.7625
3261.49775	5738.8625
3263.76855	5735.8625
3266.03799	5718.7625
3268.30606	5701.8625
3270.57277	5721.9625
3272.83812	5704.4625
3275.10211	5712.1625
3277.36474	5686.5625
3279.62601	5714.5625
3281.88593	5686.6625
3284.14448	5678.2625
3286.40168	5677.4625
3288.65753	5698.1625
3290.91202	5676.9625
3293.16516	5662.5625
3295.41695	5661.4625
3297.66738	5642.1625
3299.91647	5626.0625
3302.16421	5598.0625
3304.4106	5552.8625
3306.65564	5526.0625
3308.89933	5498.3625
3311.14169	5462.3625
3313.38269	5421.9625
3315.62236	5393.8625
3317.86068	5338.7625
3320.09766	5312.2625
3322.3333	5271.8625
3324.5676	5259.2625
3326.80056	5176.5625
3329.03219	5155.3625
3331.26248	2.5625
3333.49143	-0.2375
3335.71905	-0.1375
