Data from AgNPs_FTO_APTES_UA_50uM_CRN_20uM_R6G_10uM_NaF_0.1M_Addition_RamanShift__25__14-23-24-945.txt Node

Date: Mon Feb 21 14:23:24 GMT 2022
User: TCL
Spectrometer: QEP01345
Trigger mode: 4
Integration Time (sec): 7.000000E0
Scans to average: 10
Electric dark correction enabled: true
Nonlinearity correction enabled: false
Boxcar width: 0
XAxis mode: Raman Shifts
Number of Pixels in Spectrum: 1044
>>>>>Begin Spectral Data<<<<<
46.04893	1.2
50.45542	-0.9
54.85868	0.3
59.25871	-1.6
63.6555	58.1
68.04907	64.2
72.43941	64.5
76.82654	68.4
81.21044	73.3
85.59113	77.7
89.96862	78.1
94.34289	85.8
98.71396	87.4
103.08183	88.5
107.4465	92.2
111.80798	89.5
116.16626	90.7
120.52136	91.4
124.87327	101.9
129.222	99.1
133.56755	102.5
137.90993	110.1
142.24913	115.9
146.58517	132.5
150.91804	149
155.24774	176.5
159.57429	213.6
163.89768	272
168.21792	365.2
172.53501	487.6
176.84895	677.7
181.15975	943.6
185.46741	1318.8
189.77193	1815.5
194.07331	2438
198.37157	3135.6
202.6667	3867.5
206.9587	4636.5
211.24758	5397.4
215.53334	6227.9
219.81599	7154.6
224.09553	8175.2
228.37195	9325.1
232.64527	10586.2
236.91549	11770.4
241.18261	12841.2
245.44663	13697.5
249.70755	14422.9
253.96539	14995.6
258.22014	15526.9
262.4718	15921.9
266.72039	16129.4
270.96589	16169
275.20832	15977.2
279.44768	15630.7
283.68397	15266.1
287.91719	15091.4
292.14735	15175.6
296.37445	15580.1
300.59849	16389.3
304.81948	17269.3
309.03742	17914.5
313.25231	17871.6
317.46415	16928.1
321.67296	15436
325.87872	14235.1
330.08145	13701.9
334.28114	13707.8
338.47781	14022.2
342.67145	14492.6
346.86207	15215.1
351.04966	16261.9
355.23424	17452.6
359.4158	18361.7
363.59435	18763.8
367.76989	18765.5
371.94243	18635.6
376.11196	18459.1
380.27849	18259.8
384.44203	18003.3
388.60257	17727.1
392.76012	17516.8
396.91468	17626.5
401.06626	18102.7
405.21485	18402.7
409.36047	17987.2
413.50311	16910.3
417.64277	15838.1
421.77947	15218
425.9132	14947
430.04396	14877.6
434.17176	14948.6
438.2966	15195.6
442.41849	15652.2
446.53742	16240.3
450.6534	16813.2
454.76644	17143.2
458.87653	17142
462.98368	16932.6
467.08789	16570.5
471.18916	16138.8
475.2875	15699.1
479.38291	15337
483.4754	15075
487.56496	14819.2
491.6516	14636
495.73531	14530
499.81612	14556.8
503.89401	14745.9
507.96899	15003.7
512.04106	15250.8
516.11023	15556.2
520.1765	15746.8
524.23987	15741.9
528.30034	15522.6
532.35792	15229.9
536.41261	14905.2
540.46441	14515.4
544.51333	14274.5
548.55936	14342.9
552.60252	14736.8
556.64279	15192.3
560.6802	15432.1
564.71473	15783.9
568.7464	16584.7
572.7752	16974.6
576.80114	16312.8
580.82422	15660.9
584.84444	15476.3
588.86181	15561.6
592.87633	15880.2
596.888	16186.9
600.89682	16735.3
604.9028	18919.7
608.90594	25180.1
612.90624	33167.7
616.90371	31155.6
620.89834	20937.8
624.89015	16290.2
628.87913	15550
632.86528	15740.2
636.84862	15944.3
640.82913	15571.2
644.80683	14600.8
648.78172	13849.8
652.75379	13844.8
656.72306	14536.2
660.68952	15384.4
664.65319	15158.2
668.61405	14265.3
672.57211	13906.7
676.52738	13920.8
680.47986	13872.3
684.42955	13681.2
688.37646	13535.9
692.32058	13563.7
696.26192	13697.6
700.20048	13886.2
704.13626	14010.4
708.06928	13937.9
711.99952	13763.9
715.927	13753.2
719.85171	13847.6
723.77365	13880.8
727.69284	13793.4
731.60928	13657.8
735.52295	13651.5
739.43388	13725.3
743.34206	13833.6
747.24749	13914.5
751.15017	13970.5
755.05012	14295.6
758.94733	15143.2
762.8418	17310.7
766.73354	20918.6
770.62254	24465.6
774.50882	26169.6
778.39237	24886.2
782.27321	21093.2
786.15132	17337.9
790.02671	15210.8
793.89938	14276.7
797.76935	13857.7
801.6366	13712.6
805.50115	13627
809.36299	13594.3
813.22213	13509.4
817.07857	13431.1
820.93231	13410.6
824.78336	13416.1
828.63172	13481.6
832.47738	13526.9
836.32036	13486.9
840.16066	13464.3
843.99827	13440.6
847.8332	13392.5
851.66546	13296.2
855.49504	13278.3
859.32195	13271.3
863.1462	13210.6
866.96777	13148.4
870.78668	13120.1
874.60293	13179.6
878.41652	13215.1
882.22745	13368.9
886.03573	13484.1
889.84136	13454.6
893.64433	13341.4
897.44466	13293.5
901.24235	13269.8
905.0374	13160.4
908.8298	13010.1
912.61957	12956
916.40671	12995
920.19121	13163.6
923.97308	13376.7
927.75233	13661.8
931.52895	13930.8
935.30295	13801.1
939.07433	13241.4
942.84309	12789.9
946.60924	12560.5
950.37278	12461.3
954.13371	12389.9
957.89203	12279.4
961.64774	12263.4
965.40086	12188.5
969.15137	12136
972.89929	12074.2
976.64461	12060.7
980.38733	12077.4
984.12747	12132.2
987.86502	12244.6
991.59999	12410.9
995.33237	12756.3
999.06217	13286.9
1002.78939	13915.1
1006.51404	14360.9
1010.23611	14657.2
1013.95561	14846
1017.67255	14833.5
1021.38692	14598.3
1025.09872	14349.9
1028.80796	14453.3
1032.51465	14918.1
1036.21877	15376.6
1039.92035	15489.7
1043.61937	15236.2
1047.31584	14832.8
1051.00976	14400.5
1054.70114	14065.4
1058.38998	13934.9
1062.07627	13965.1
1065.76003	13964
1069.44126	14025.4
1073.11995	14191.2
1076.79611	14469.4
1080.46974	14846.3
1084.14085	15371.7
1087.80943	15871.6
1091.47549	16025.9
1095.13903	15670.2
1098.80005	15011.3
1102.45857	14524.4
1106.11456	14381.8
1109.76805	14607.1
1113.41903	15109.6
1117.06751	15887
1120.71348	16880.7
1124.35696	17971
1127.99793	18696.3
1131.63641	18303
1135.2724	17212.7
1138.90589	16238.8
1142.5369	15590.5
1146.16542	15114.3
1149.79145	14861.2
1153.415	14805.8
1157.03607	14981.9
1160.65467	15360.6
1164.27079	16057
1167.88443	17170
1171.49561	18929.8
1175.10432	21634.6
1178.71056	25281.8
1182.31434	28348.6
1185.91565	29269.9
1189.51451	28243.8
1193.11091	26054.9
1196.70485	23726.4
1200.29634	22019.6
1203.88538	20674.9
1207.47197	19174.5
1211.05612	17923.1
1214.63782	17284.6
1218.21708	17106
1221.79391	17205
1225.36829	17370.3
1228.94024	17242.8
1232.50976	17002.4
1236.07685	16791
1239.6415	16707.1
1243.20374	16751.3
1246.76355	16925.6
1250.32093	17183.8
1253.8759	17728.5
1257.42845	18433.8
1260.97859	19213.6
1264.52631	20003
1268.07163	20786
1271.61453	21577
1275.15503	22237.5
1278.69312	22755.1
1282.22882	23249
1285.76211	23920.4
1289.29301	24794.8
1292.82151	25707.5
1296.34761	26875.3
1299.87133	28766.2
1303.39266	31986.8
1306.9116	36668.7
1310.42815	41380.2
1313.94233	43126.1
1317.45412	40892.4
1320.96354	36842.8
1324.47058	33030.5
1327.97525	30084.2
1331.47754	28417.7
1334.97747	27869.2
1338.47502	28212
1341.97022	29256.6
1345.46305	30758.8
1348.95352	32809.4
1352.44163	35399.2
1355.92738	39607.6
1359.41078	46152.9
1362.89183	51423.7
1366.37053	48352.9
1369.84688	39466.2
1373.32088	31712.4
1376.79254	27148.9
1380.26186	24728.9
1383.72883	23383.3
1387.19347	22285.5
1390.65578	21429.2
1394.11575	20907
1397.57339	20850.5
1401.0287	21137.1
1404.48168	21506.8
1407.93234	21839.1
1411.38068	21983.8
1414.82669	21961.9
1418.27039	21550
1421.71177	20957.7
1425.15083	20342.4
1428.58758	20118.1
1432.02203	20347.1
1435.45416	20644
1438.88399	20737.1
1442.31151	20799.7
1445.73673	20939
1449.15965	21187.7
1452.58027	21252.5
1455.9986	21101.9
1459.41463	21100.7
1462.82837	21440.5
1466.23982	22068.9
1469.64898	22653.3
1473.05586	22968.4
1476.46045	23090.3
1479.86276	23338.5
1483.26279	23732.4
1486.66054	24371.2
1490.05602	25328.3
1493.44922	26725.4
1496.84016	28908.1
1500.22882	32318.1
1503.61521	37318.6
1506.99934	43011.5
1510.38121	47215.2
1513.76081	47336.6
1517.13816	42748.8
1520.51324	36165.5
1523.88607	30589.5
1527.25665	27147.3
1530.62498	25270.3
1533.99105	24149.7
1537.35488	23475.7
1540.71647	23095.1
1544.07581	22983.4
1547.4329	22895.5
1550.78776	22932.8
1554.14038	23029.9
1557.49077	23247.6
1560.83892	23657.1
1564.18484	24342.7
1567.52853	25187.1
1570.86999	25820
1574.20922	26150.1
1577.54624	25838.4
1580.88103	24341
1584.2136	22573.5
1587.54395	21868.6
1590.87208	22558.6
1594.19801	24350.4
1597.52172	26606.7
1600.84321	27531.7
1604.16251	26476.2
1607.47959	24259.6
1610.79447	21840.4
1614.10715	19740.8
1617.41763	18115.8
1620.7259	17170.7
1624.03199	16762.9
1627.33587	16981.4
1630.63757	17649
1633.93707	18915.7
1637.23439	20880.5
1640.52951	23704.5
1643.82246	27531.7
1647.11321	31612.8
1650.40179	33771.7
1653.68819	31617.8
1656.97241	26342.8
1660.25446	21177.3
1663.53433	17720.9
1666.81203	15736.9
1670.08756	14596.5
1673.36092	13917.9
1676.63211	13504.3
1679.90115	13170.4
1683.16801	12955.8
1686.43272	12765.5
1689.69527	12625.9
1692.95567	12469.6
1696.2139	12304.4
1699.46999	12157.4
1702.72392	12082.4
1705.97571	12128.3
1709.22535	12212.5
1712.47284	12246.8
1715.71819	12286.9
1718.96139	12277.9
1722.20246	12233.5
1725.44139	12157.3
1728.67818	12053.3
1731.91284	11968.3
1735.14537	11880.9
1738.37576	11805.3
1741.60403	11749.6
1744.83017	11702
1748.05418	11659.3
1751.27607	11600.7
1754.49584	11536.8
1757.71349	11471.1
1760.92903	11389.1
1764.14244	11372.6
1767.35375	11400.5
1770.56294	11319.1
1773.77002	11311.5
1776.97499	11314.3
1780.17785	11344.2
1783.37861	11336.7
1786.57727	11330.5
1789.77382	11329.3
1792.96828	11329.6
1796.16064	11329.5
1799.3509	11292.3
1802.53907	11287
1805.72514	11258.5
1808.90913	11236.9
1812.09102	11189.4
1815.27083	11183.9
1818.44856	11146.7
1821.6242	11131.4
1824.79776	11116
1827.96924	11107.2
1831.13864	11079.1
1834.30597	11061.5
1837.47122	11064.5
1840.6344	11049.3
1843.7955	11053.3
1846.95454	11025.7
1850.11151	11036.3
1853.26642	11041.7
1856.41926	11064.5
1859.57004	11019.5
1862.71876	11041.4
1865.86542	11035.3
1869.01003	11038.2
1872.15258	11075.7
1875.29308	11068.6
1878.43152	11112.4
1881.56792	11085.5
1884.70227	11093.7
1887.83457	11079.8
1890.96482	11077.6
1894.09304	11060
1897.21921	11066.3
1900.34335	11096.4
1903.46544	11076.3
1906.58551	11069.8
1909.70353	11060.1
1912.81953	11054.6
1915.93349	11076.4
1919.04543	11040.4
1922.15534	11037.6
1925.26322	10972.4
1928.36908	10934.9
1931.47292	10913
1934.57473	10864.2
1937.67453	10838.6
1940.77232	10787.7
1943.86808	10757.3
1946.96184	10709
1950.05358	10675.7
1953.14331	10668.3
1956.23103	10611.9
1959.31675	10577.6
1962.40046	10561.2
1965.48217	10576.2
1968.56188	10534.9
1971.63959	10512.5
1974.7153	10477
1977.78901	10457.6
1980.86073	10404
1983.93046	10351.1
1986.99819	10317.2
1990.06394	10284.1
1993.1277	10274.8
1996.18947	10210.6
1999.24925	10206.1
2002.30706	10148.4
2005.36288	10108.6
2008.41672	10093.7
2011.46859	10051.7
2014.51848	10010.6
2017.56639	10009.4
2020.61233	9983.4
2023.6563	9983.4
2026.6983	9951.1
2029.73833	9928.1
2032.7764	9892.8
2035.8125	9894
2038.84664	9887.4
2041.87881	9886.1
2044.90903	9879.9
2047.93729	9831.3
2050.96359	9846.8
2053.98794	9824.2
2057.01034	9825.6
2060.03078	9827
2063.04927	9806.8
2066.06582	9773.6
2069.08042	9755.1
2072.09307	9745.6
2075.10378	9698.6
2078.11255	9741.4
2081.11938	9703.5
2084.12426	9693.1
2087.12722	9724.7
2090.12824	9700.4
2093.12732	9698.7
2096.12447	9695.6
2099.11969	9721.9
2102.11299	9699.8
2105.10435	9696.6
2108.09379	9712.8
2111.08131	9726.1
2114.0669	9716.7
2117.05057	9715.9
2120.03233	9763.4
2123.01216	9793.8
2125.99008	9799.6
2128.96609	9798.8
2131.94018	9802.8
2134.91236	9791.5
2137.88263	9791.5
2140.851	9795.8
2143.81746	9777.2
2146.78201	9786.4
2149.74466	9779.5
2152.7054	9799.1
2155.66425	9761.2
2158.6212	9770.8
2161.57625	9748.8
2164.52941	9747.2
2167.48067	9740.8
2170.43004	9744.3
2173.37752	9753
2176.32311	9753.4
2179.26681	9767.5
2182.20863	9776
2185.14856	9764.2
2188.08661	9785
2191.02278	9798
2193.95707	9741.3
2196.88948	9741.8
2199.82001	9768.1
2202.74867	9776.8
2205.67545	9776.3
2208.60037	9770.2
2211.52341	9754.2
2214.44458	9724.9
2217.36388	9722.1
2220.28132	9735
2223.1969	9704.4
2226.11061	9687.2
2229.02246	9659.7
2231.93245	9661.7
2234.84058	9626.3
2237.74686	9605
2240.65128	9625.6
2243.55385	9610.3
2246.45456	9600.4
2249.35343	9597.7
2252.25044	9574.5
2255.14561	9586.7
2258.03893	9582.6
2260.93041	9588.2
2263.82004	9549.9
2266.70783	9540.6
2269.59378	9500
2272.4779	9489.7
2275.36017	9475.1
2278.24061	9475.2
2281.11922	9434.1
2283.996	9419.5
2286.87094	9406.6
2289.74405	9387.2
2292.61534	9365
2295.4848	9349.5
2298.35243	9359.3
2301.21824	9352.2
2304.08223	9385.1
2306.94439	9401
2309.80474	9380.2
2312.66327	9396.1
2315.51999	9397.4
2318.37489	9398.3
2321.22797	9408.4
2324.07925	9394.5
2326.92871	9379.9
2329.77637	9370
2332.62222	9358.8
2335.46626	9386.1
2338.3085	9364
2341.14893	9394.4
2343.98756	9404.2
2346.8244	9441.3
2349.65943	9436.9
2352.49267	9471.8
2355.32411	9482.7
2358.15376	9454
2360.98161	9472.5
2363.80768	9465.6
2366.63195	9474.2
2369.45444	9463.4
2372.27514	9446.2
2375.09405	9429.4
2377.91118	9413.1
2380.72652	9354.6
2383.54009	9313.2
2386.35187	9309
2389.16188	9245.8
2391.97011	9240.7
2394.77657	9206.4
2397.58125	9204.5
2400.38416	9180.3
2403.18529	9150.4
2405.98466	9132
2408.78226	9094.2
2411.57809	9119
2414.37216	9073.2
2417.16446	9041.9
2419.955	9046.2
2422.74378	9055.1
2425.5308	9033.6
2428.31606	9036.7
2431.09956	9044.7
2433.88131	9020.6
2436.6613	9047
2439.43954	9045
2442.21603	9048
2444.99077	9079.1
2447.76377	9072.8
2450.53501	9069.8
2453.30451	9079.3
2456.07226	9064.4
2458.83827	9079
2461.60254	9054.6
2464.36507	9082.6
2467.12586	9085.9
2469.88492	9077.5
2472.64224	9086.9
2475.39782	9097.4
2478.15167	9104.8
2480.90379	9159
2483.65417	9157.7
2486.40283	9174.4
2489.14976	9200.9
2491.89497	9216.3
2494.63845	9213.4
2497.3802	9191.7
2500.12024	9193
2502.85855	9219.7
2505.59514	9145.9
2508.33002	9128.8
2511.06318	9088.9
2513.79462	9063.4
2516.52435	9037.8
2519.25237	9015
2521.97867	8987.7
2524.70327	9000.4
2527.42616	8971.9
2530.14734	8953.7
2532.86681	8982.9
2535.58458	8967.9
2538.30065	8969.1
2541.01501	9002.3
2543.72768	8988.9
2546.43864	8993.5
2549.14791	8986.2
2551.85548	8974.6
2554.56136	8970.1
2557.26554	8954
2559.96803	8952.7
2562.66883	8961.1
2565.36794	8934
2568.06536	8953.7
2570.7611	8950.1
2573.45514	8945.6
2576.14751	8912.2
2578.83819	8926.3
2581.52719	8899.7
2584.21451	8906
2586.90015	8902
2589.58411	8885.5
2592.2664	8894.3
2594.94701	8881.8
2597.62594	8890
2600.30321	8907.6
2602.9788	8901.4
2605.65273	8896.6
2608.32498	8888.3
2610.99557	8898.6
2613.66449	8892.5
2616.33175	8916.3
2618.99734	8922.6
2621.66128	8933.7
2624.32355	8957.7
2626.98416	8940.4
2629.64311	8926.6
2632.30041	8928.2
2634.95605	8900.3
2637.61004	8866.2
2640.26238	8875.7
2642.91306	8854.8
2645.56209	8845.4
2648.20948	8821.7
2650.85521	8794.3
2653.4993	8834.4
2656.14175	8806.3
2658.78255	8824.7
2661.42171	8822.3
2664.05923	8885.2
2666.6951	8889.9
2669.32934	8922.8
2671.96194	8913.1
2674.59291	8906.8
2677.22224	8915.1
2679.84993	8909.5
2682.476	8877
2685.10043	8886.3
2687.72324	8872.4
2690.34441	8872.1
2692.96396	8876.6
2695.58188	8876.9
2698.19818	8826
2700.81285	8827.7
2703.4259	8813.8
2706.03733	8783.8
2708.64714	8784.1
2711.25533	8834.7
2713.86191	8837.3
2716.46687	8881.9
2719.07021	8876.4
2721.67194	8884.7
2724.27206	8891.9
2726.87057	8876.4
2729.46747	8885.9
2732.06276	8905.3
2734.65644	8864
2737.24852	8856.3
2739.83899	8863.2
2742.42786	8866.8
2745.01513	8856.4
2747.60079	8834.1
2750.18486	8816.1
2752.76733	8853.4
2755.3482	8832.2
2757.92747	8823.5
2760.50515	8806.4
2763.08123	8817.6
2765.65573	8784.6
2768.22863	8784.8
2770.79994	8788.1
2773.36967	8797.2
2775.9378	8788.4
2778.50435	8762.2
2781.06932	8785.6
2783.6327	8830.3
2786.1945	8814.7
2788.75471	8801.6
2791.31335	8786.2
2793.87041	8781.7
2796.42589	8793.4
2798.97979	8786.6
2801.53212	8754.7
2804.08288	8771.4
2806.63206	8748.2
2809.17967	8742.6
2811.72571	8749.4
2814.27018	8727.2
2816.81308	8746.2
2819.35442	8769.4
2821.89419	8769
2824.43239	8784.5
2826.96904	8789.6
2829.50412	8789.1
2832.03763	8765.5
2834.56959	8784.1
2837.1	8771.2
2839.62884	8772.8
2842.15613	8741.3
2844.68186	8749
2847.20604	8765.2
2849.72867	8779.1
2852.24974	8798
2854.76927	8791.3
2857.28724	8752.3
2859.80367	8784.7
2862.31855	8781.1
2864.83189	8799
2867.34368	8811.3
2869.85393	8818.9
2872.36264	8842.4
2874.8698	8825.9
2877.37543	8817.5
2879.87952	8798.7
2882.38207	8797.6
2884.88308	8804.5
2887.38256	8807.6
2889.88051	8792.5
2892.37692	8806.3
2894.8718	8811.3
2897.36515	8809.3
2899.85698	8812.9
2902.34727	8829.7
2904.83604	8825.6
2907.32328	8852.7
2909.809	8858.2
2912.29319	8875
2914.77587	8853.3
2917.25702	8844.1
2919.73665	8824.9
2922.21476	8828.2
2924.69136	8784.5
2927.16644	8790.8
2929.64	8778.1
2932.11205	8750.6
2934.58258	8719.1
2937.05161	8725.3
2939.51912	8712.3
2941.98513	8717.7
2944.44962	8679.6
2946.91261	8661.1
2949.37409	8709.8
2951.83407	8691.5
2954.29254	8656.2
2956.74951	8643.1
2959.20498	8643.4
2961.65895	8619
2964.11142	8597.7
2966.56239	8580.5
2969.01186	8583.9
2971.45984	8541
2973.90632	8536.2
2976.35131	8496.8
2978.7948	8473.4
2981.23681	8473.8
2983.67732	8452.3
2986.11635	8438.6
2988.55388	8415.8
2990.98993	8422.7
2993.4245	8406.4
2995.85758	8377.5
2998.28917	8355.4
3000.71928	8350.4
3003.14791	8341.6
3005.57506	8348.9
3008.00073	8344.3
3010.42493	8319.4
3012.84764	8298.5
3015.26888	8319.6
3017.68865	8281.9
3020.10694	8281.3
3022.52376	8254
3024.9391	8244
3027.35298	8211.5
3029.76539	8203.3
3032.17632	8187.7
3034.5858	8172.3
3036.9938	8176.4
3039.40034	8144.5
3041.80542	8146.8
3044.20903	8128
3046.61118	8136.8
3049.01187	8119.6
3051.4111	8110.2
3053.80888	8115.1
3056.20519	8075
3058.60005	8078.2
3060.99345	8059.4
3063.3854	8049.4
3065.7759	8000.8
3068.16494	7983.5
3070.55254	7947
3072.93868	7925.8
3075.32338	7897.7
3077.70662	7882.2
3080.08842	7855.1
3082.46878	7847.8
3084.84769	7846.2
3087.22515	7825.7
3089.60118	7829.1
3091.97576	7817.4
3094.3489	7818
3096.72061	7808.3
3099.09087	7822.2
3101.4597	7818.6
3103.82709	7807.5
3106.19305	7806.7
3108.55757	7790.2
3110.92066	7764.5
3113.28232	7785.7
3115.64255	7747.3
3118.00134	7763.4
3120.35871	7750.6
3122.71466	7744.1
3125.06917	7729.1
3127.42226	7714.4
3129.77393	7721.1
3132.12417	7704.1
3134.47299	7713.6
3136.82039	7707.1
3139.16636	7702.5
3141.51092	7697.5
3143.85406	7691.9
3146.19579	7694.9
3148.53609	7705.7
3150.87499	7713.6
3153.21246	7715.4
3155.54853	7756.2
3157.88318	7729.4
3160.21642	7736.9
3162.54826	7748.4
3164.87868	7750.8
3167.2077	7755
3169.5353	7733.5
3171.86151	7745.9
3174.18631	7745.5
3176.5097	7745.1
3178.83169	7737
3181.15228	7737.6
3183.47147	7704.5
3185.78926	7726.6
3188.10565	7745.6
3190.42065	7711.8
3192.73424	7748.4
3195.04645	7728.3
3197.35725	7748.8
3199.66667	7725
3201.97469	7751.7
3204.28132	7741.8
3206.58656	7761.3
3208.8904	7750.5
3211.19287	7774.3
3213.49394	7775.2
3215.79363	7776.2
3218.09193	7812.2
3220.38884	7804.7
3222.68438	7783.5
3224.97853	7792.9
3227.2713	7814.3
3229.56269	7787.7
3231.8527	7779.3
3234.14133	7802.3
3236.42858	7785.5
3238.71446	7776.9
3240.99896	7760
3243.28209	7751.2
3245.56384	7745.8
3247.84423	7751.9
3250.12324	7753.7
3252.40088	7761.3
3254.67715	7743.1
3256.95205	7732
3259.22558	7741.3
3261.49775	7734.5
3263.76855	7725.5
3266.03799	7727.1
3268.30606	7713.3
3270.57277	7719.8
3272.83812	7688.6
3275.10211	7703.9
3277.36474	7663.9
3279.62601	7688.2
3281.88593	7666.4
3284.14448	7677.8
3286.40168	7694.4
3288.65753	7698.5
3290.91202	7691
3293.16516	7664.2
3295.41695	7668.4
3297.66738	7615.2
3299.91647	7589.6
3302.16421	7546
3304.4106	7524.7
3306.65564	7446.2
3308.89933	7396
3311.14169	7358.3
3313.38269	7272
3315.62236	7234.2
3317.86068	7169.8
3320.09766	7117.4
3322.3333	7065
3324.5676	7059.2
3326.80056	6903.1
3329.03219	6881.6
3331.26248	1.1
3333.49143	-0.2
3335.71905	-0.1
