Data from AgNPs_FTO_APTES_UA_50uM_CRN_1000uM_R6G_10uM_NaF_0.1M_Addition_RamanShift__2__17-25-03-569.txt Node

Date: Mon Feb 21 17:25:03 GMT 2022
User: TCL
Spectrometer: QEP01345
Trigger mode: 4
Integration Time (sec): 7.000000E0
Scans to average: 10
Electric dark correction enabled: true
Nonlinearity correction enabled: false
Boxcar width: 0
XAxis mode: Raman Shifts
Number of Pixels in Spectrum: 1044
>>>>>Begin Spectral Data<<<<<
46.04893	-1.4625
50.45542	-1.1625
54.85868	0.7375
59.25871	-2.0625
63.6555	54.2375
68.04907	59.3375
72.43941	63.2375
76.82654	63.3375
81.21044	65.2375
85.59113	67.5375
89.96862	72.7375
94.34289	73.2375
98.71396	75.3375
103.08183	82.0375
107.4465	82.2375
111.80798	82.8375
116.16626	82.1375
120.52136	86.3375
124.87327	87.7375
129.222	92.9375
133.56755	96.0375
137.90993	100.1375
142.24913	100.4375
146.58517	112.8375
150.91804	126.3375
155.24774	154.0375
159.57429	180.5375
163.89768	227.2375
168.21792	298.6375
172.53501	406.9375
176.84895	559.4375
181.15975	786.0375
185.46741	1100.7375
189.77193	1503.9375
194.07331	2020.8375
198.37157	2614.8375
202.6667	3240.4375
206.9587	3872.5375
211.24758	4475.2375
215.53334	5130.8375
219.81599	5782.1375
224.09553	6525.7375
228.37195	7323.3375
232.64527	8250.7375
236.91549	9183.1375
241.18261	10041.6375
245.44663	10827.4375
249.70755	11488.5375
253.96539	12041.4375
258.22014	12505.0375
262.4718	12909.2375
266.72039	13173.8375
270.96589	13272.2375
275.20832	13264.0375
279.44768	13105.9375
283.68397	12874.0375
287.91719	12683.7375
292.14735	12577.0375
296.37445	12625.2375
300.59849	12813.5375
304.81948	13040.3375
309.03742	13212.9375
313.25231	13212.3375
317.46415	13032.7375
321.67296	12611.4375
325.87872	12260.2375
330.08145	12082.9375
334.28114	12042.5375
338.47781	12142.3375
342.67145	12318.5375
346.86207	12570.3375
351.04966	12930.2375
355.23424	13341.0375
359.4158	13635.9375
363.59435	13821.3375
367.76989	13935.9375
371.94243	13986.7375
376.11196	13986.7375
380.27849	14028.4375
384.44203	14056.1375
388.60257	14050.6375
392.76012	14123.9375
396.91468	14224.1375
401.06626	14414.3375
405.21485	14524.6375
409.36047	14396.1375
413.50311	14039.2375
417.64277	13699.4375
421.77947	13491.2375
425.9132	13446.1375
430.04396	13477.1375
434.17176	13564.1375
438.2966	13731.4375
442.41849	13969.3375
446.53742	14319.5375
450.6534	14686.4375
454.76644	14883.8375
458.87653	14891.1375
462.98368	14787.7375
467.08789	14633.1375
471.18916	14443.7375
475.2875	14217.8375
479.38291	14013.5375
483.4754	13899.0375
487.56496	13770.0375
491.6516	13678.4375
495.73531	13576.8375
499.81612	13611.9375
503.89401	13662.5375
507.96899	13750.5375
512.04106	13794.1375
516.11023	13909.6375
520.1765	13943.1375
524.23987	13947.8375
528.30034	13919.1375
532.35792	13808.3375
536.41261	13711.0375
540.46441	13544.1375
544.51333	13426.8375
548.55936	13463.0375
552.60252	13646.6375
556.64279	13933.9375
560.6802	14103.1375
564.71473	14158.5375
568.7464	14316.3375
572.7752	14568.1375
576.80114	14444.8375
580.82422	14348.5375
584.84444	14460.6375
588.86181	14788.9375
592.87633	15262.8375
596.888	15543.7375
600.89682	15489.2375
604.9028	15942.9375
608.90594	17951.9375
612.90624	20644.1375
616.90371	19900.6375
620.89834	16120.8375
624.89015	14284.7375
628.87913	14013.0375
632.86528	14132.0375
636.84862	14293.3375
640.82913	14167.1375
644.80683	13803.0375
648.78172	13506.7375
652.75379	13464.5375
656.72306	13676.9375
660.68952	13968.8375
664.65319	13874.8375
668.61405	13529.1375
672.57211	13413.6375
676.52738	13477.4375
680.47986	13543.0375
684.42955	13464.8375
688.37646	13362.0375
692.32058	13350.9375
696.26192	13436.9375
700.20048	13565.6375
704.13626	13583.0375
708.06928	13561.0375
711.99952	13482.8375
715.927	13446.4375
719.85171	13516.0375
723.77365	13536.3375
727.69284	13469.9375
731.60928	13354.3375
735.52295	13354.2375
739.43388	13365.6375
743.34206	13397.3375
747.24749	13428.7375
751.15017	13436.8375
755.05012	13561.2375
758.94733	13886.5375
762.8418	14680.9375
766.73354	16024.9375
770.62254	17403.5375
774.50882	18060.7375
778.39237	17479.7375
782.27321	16059.0375
786.15132	14739.8375
790.02671	13902.2375
793.89938	13513.8375
797.76935	13362.5375
801.6366	13245.7375
805.50115	13210.5375
809.36299	13175.6375
813.22213	13131.9375
817.07857	13096.8375
820.93231	13060.5375
824.78336	13030.8375
828.63172	13045.1375
832.47738	13030.0375
836.32036	13006.9375
840.16066	13020.7375
843.99827	13025.5375
847.8332	13019.6375
851.66546	12998.8375
855.49504	12980.7375
859.32195	13023.2375
863.1462	12997.3375
866.96777	13023.1375
870.78668	12986.1375
874.60293	12996.5375
878.41652	13010.7375
882.22745	13083.5375
886.03573	13141.5375
889.84136	13117.3375
893.64433	13078.0375
897.44466	13014.4375
901.24235	12970.3375
905.0374	12887.8375
908.8298	12829.1375
912.61957	12750.2375
916.40671	12845.2375
920.19121	12895.0375
923.97308	13001.9375
927.75233	13133.5375
931.52895	13151.9375
935.30295	13061.9375
939.07433	12845.4375
942.84309	12664.0375
946.60924	12531.0375
950.37278	12449.8375
954.13371	12400.2375
957.89203	12373.1375
961.64774	12336.9375
965.40086	12305.3375
969.15137	12270.8375
972.89929	12254.8375
976.64461	12264.8375
980.38733	12268.3375
984.12747	12271.3375
987.86502	12340.9375
991.59999	12462.0375
995.33237	12561.9375
999.06217	12805.4375
1002.78939	13031.0375
1006.51404	13220.9375
1010.23611	13343.4375
1013.95561	13415.5375
1017.67255	13456.2375
1021.38692	13365.4375
1025.09872	13230.8375
1028.80796	13181.9375
1032.51465	13265.4375
1036.21877	13438.1375
1039.92035	13534.9375
1043.61937	13530.7375
1047.31584	13407.1375
1051.00976	13231.5375
1054.70114	13136.3375
1058.38998	13078.2375
1062.07627	13081.2375
1065.76003	13109.9375
1069.44126	13152.4375
1073.11995	13259.6375
1076.79611	13389.8375
1080.46974	13533.9375
1084.14085	13683.6375
1087.80943	13843.9375
1091.47549	13927.8375
1095.13903	13858.7375
1098.80005	13647.1375
1102.45857	13421.4375
1106.11456	13368.4375
1109.76805	13339.7375
1113.41903	13477.1375
1117.06751	13715.9375
1120.71348	13979.7375
1124.35696	14292.9375
1127.99793	14645.4375
1131.63641	14728.4375
1135.2724	14443.2375
1138.90589	14135.4375
1142.5369	13929.0375
1146.16542	13777.5375
1149.79145	13691.9375
1153.415	13661.3375
1157.03607	13695.7375
1160.65467	13878.0375
1164.27079	14243.5375
1167.88443	14762.4375
1171.49561	15546.9375
1175.10432	16653.5375
1178.71056	18084.0375
1182.31434	19429.9375
1185.91565	19995.1375
1189.51451	19730.5375
1193.11091	18985.1375
1196.70485	18090.1375
1200.29634	17369.5375
1203.88538	16740.2375
1207.47197	16101.6375
1211.05612	15505.1375
1214.63782	15159.2375
1218.21708	15016.0375
1221.79391	15023.6375
1225.36829	15042.8375
1228.94024	14992.3375
1232.50976	14810.0375
1236.07685	14685.1375
1239.6415	14595.1375
1243.20374	14624.4375
1246.76355	14671.8375
1250.32093	14819.7375
1253.8759	15025.8375
1257.42845	15328.1375
1260.97859	15605.0375
1264.52631	15947.9375
1268.07163	16338.9375
1271.61453	16650.1375
1275.15503	16947.3375
1278.69312	17203.8375
1282.22882	17392.7375
1285.76211	17691.3375
1289.29301	18149.8375
1292.82151	18692.7375
1296.34761	19430.4375
1299.87133	20319.3375
1303.39266	21502.4375
1306.9116	23091.8375
1310.42815	24696.7375
1313.94233	25623.8375
1317.45412	25234.1375
1320.96354	23965.9375
1324.47058	22548.3375
1327.97525	21261.8375
1331.47754	20358.0375
1334.97747	19914.9375
1338.47502	19816.9375
1341.97022	19959.3375
1345.46305	20391.7375
1348.95352	21183.3375
1352.44163	22239.6375
1355.92738	23884.3375
1359.41078	26087.9375
1362.89183	28155.9375
1366.37053	27702.1375
1369.84688	24534.6375
1373.32088	21071.6375
1376.79254	18896.3375
1380.26186	17913.0375
1383.72883	17527.9375
1387.19347	17138.0375
1390.65578	16702.1375
1394.11575	16425.2375
1397.57339	16323.1375
1401.0287	16295.5375
1404.48168	16269.3375
1407.93234	16207.8375
1411.38068	16132.0375
1414.82669	15992.6375
1418.27039	15827.2375
1421.71177	15605.7375
1425.15083	15365.2375
1428.58758	15211.2375
1432.02203	15250.7375
1435.45416	15434.4375
1438.88399	15569.5375
1442.31151	15641.7375
1445.73673	15690.8375
1449.15965	15711.2375
1452.58027	15715.1375
1455.9986	15600.3375
1459.41463	15609.3375
1462.82837	15708.1375
1466.23982	15935.7375
1469.64898	16182.7375
1473.05586	16405.8375
1476.46045	16543.5375
1479.86276	16660.2375
1483.26279	16767.2375
1486.66054	16953.6375
1490.05602	17210.1375
1493.44922	17694.5375
1496.84016	18394.1375
1500.22882	19526.6375
1503.61521	21160.3375
1506.99934	22922.6375
1510.38121	24401.0375
1513.76081	24810.2375
1517.13816	23651.0375
1520.51324	21571.2375
1523.88607	19636.5375
1527.25665	18455.1375
1530.62498	17879.2375
1533.99105	17515.4375
1537.35488	17219.4375
1540.71647	16961.3375
1544.07581	16686.1375
1547.4329	16437.6375
1550.78776	16297.1375
1554.14038	16193.2375
1557.49077	16216.6375
1560.83892	16299.7375
1564.18484	16499.0375
1567.52853	16797.9375
1570.86999	17154.9375
1574.20922	17431.2375
1577.54624	17494.1375
1580.88103	17059.9375
1584.2136	16485.0375
1587.54395	16258.9375
1590.87208	16476.0375
1594.19801	17087.6375
1597.52172	18028.5375
1600.84321	18481.7375
1604.16251	18121.1375
1607.47959	17236.8375
1610.79447	16234.2375
1614.10715	15197.2375
1617.41763	14410.5375
1620.7259	13858.9375
1624.03199	13604.9375
1627.33587	13573.8375
1630.63757	13796.1375
1633.93707	14293.4375
1637.23439	15142.1375
1640.52951	16475.6375
1643.82246	18329.7375
1647.11321	20221.4375
1650.40179	21219.6375
1653.68819	20397.8375
1656.97241	18160.4375
1660.25446	15800.3375
1663.53433	14136.7375
1666.81203	13151.2375
1670.08756	12569.2375
1673.36092	12191.9375
1676.63211	11964.4375
1679.90115	11770.5375
1683.16801	11620.2375
1686.43272	11509.8375
1689.69527	11405.2375
1692.95567	11323.6375
1696.2139	11227.9375
1699.46999	11153.6375
1702.72392	11128.3375
1705.97571	11101.1375
1709.22535	11089.1375
1712.47284	11080.6375
1715.71819	11091.9375
1718.96139	11066.0375
1722.20246	11002.4375
1725.44139	10970.8375
1728.67818	10928.7375
1731.91284	10874.3375
1735.14537	10806.6375
1738.37576	10770.4375
1741.60403	10733.2375
1744.83017	10706.0375
1748.05418	10702.9375
1751.27607	10678.4375
1754.49584	10698.4375
1757.71349	10656.1375
1760.92903	10598.8375
1764.14244	10619.6375
1767.35375	10593.3375
1770.56294	10543.7375
1773.77002	10521.4375
1776.97499	10472.2375
1780.17785	10450.3375
1783.37861	10456.9375
1786.57727	10424.2375
1789.77382	10416.6375
1792.96828	10406.1375
1796.16064	10386.0375
1799.3509	10365.6375
1802.53907	10357.9375
1805.72514	10338.3375
1808.90913	10296.3375
1812.09102	10270.9375
1815.27083	10232.9375
1818.44856	10210.1375
1821.6242	10214.2375
1824.79776	10172.8375
1827.96924	10157.8375
1831.13864	10159.7375
1834.30597	10177.6375
1837.47122	10160.1375
1840.6344	10120.4375
1843.7955	10100.6375
1846.95454	10112.7375
1850.11151	10101.8375
1853.26642	10090.7375
1856.41926	10079.1375
1859.57004	10070.0375
1862.71876	10053.0375
1865.86542	10047.0375
1869.01003	10006.8375
1872.15258	10041.6375
1875.29308	10054.4375
1878.43152	10044.1375
1881.56792	10030.5375
1884.70227	9996.8375
1887.83457	10013.6375
1890.96482	9983.1375
1894.09304	9983.3375
1897.21921	9994.5375
1900.34335	9964.6375
1903.46544	9956.9375
1906.58551	9954.9375
1909.70353	9950.5375
1912.81953	9919.0375
1915.93349	9916.1375
1919.04543	9869.3375
1922.15534	9867.7375
1925.26322	9849.2375
1928.36908	9804.8375
1931.47292	9796.1375
1934.57473	9764.7375
1937.67453	9749.8375
1940.77232	9747.1375
1943.86808	9730.0375
1946.96184	9672.7375
1950.05358	9652.3375
1953.14331	9639.6375
1956.23103	9614.0375
1959.31675	9592.3375
1962.40046	9553.0375
1965.48217	9494.0375
1968.56188	9518.9375
1971.63959	9471.1375
1974.7153	9434.7375
1977.78901	9427.3375
1980.86073	9403.6375
1983.93046	9385.5375
1986.99819	9334.5375
1990.06394	9298.5375
1993.1277	9280.6375
1996.18947	9249.6375
1999.24925	9232.1375
2002.30706	9216.2375
2005.36288	9168.8375
2008.41672	9175.3375
2011.46859	9137.8375
2014.51848	9091.1375
2017.56639	9074.4375
2020.61233	9049.2375
2023.6563	9043.6375
2026.6983	9001.4375
2029.73833	8994.1375
2032.7764	8956.3375
2035.8125	8947.6375
2038.84664	8934.8375
2041.87881	8907.7375
2044.90903	8877.8375
2047.93729	8870.7375
2050.96359	8876.1375
2053.98794	8851.7375
2057.01034	8856.6375
2060.03078	8844.9375
2063.04927	8850.0375
2066.06582	8847.1375
2069.08042	8838.9375
2072.09307	8812.6375
2075.10378	8775.2375
2078.11255	8812.4375
2081.11938	8808.5375
2084.12426	8804.7375
2087.12722	8800.3375
2090.12824	8794.4375
2093.12732	8792.3375
2096.12447	8783.9375
2099.11969	8790.8375
2102.11299	8778.9375
2105.10435	8792.6375
2108.09379	8799.8375
2111.08131	8806.9375
2114.0669	8800.1375
2117.05057	8840.7375
2120.03233	8811.9375
2123.01216	8825.0375
2125.99008	8819.6375
2128.96609	8858.9375
2131.94018	8863.0375
2134.91236	8855.2375
2137.88263	8841.1375
2140.851	8856.5375
2143.81746	8874.1375
2146.78201	8869.1375
2149.74466	8877.4375
2152.7054	8876.1375
2155.66425	8861.4375
2158.6212	8858.6375
2161.57625	8855.8375
2164.52941	8855.3375
2167.48067	8851.8375
2170.43004	8830.1375
2173.37752	8842.4375
2176.32311	8819.8375
2179.26681	8841.5375
2182.20863	8840.8375
2185.14856	8839.4375
2188.08661	8817.6375
2191.02278	8836.1375
2193.95707	8828.5375
2196.88948	8840.3375
2199.82001	8844.6375
2202.74867	8825.5375
2205.67545	8803.5375
2208.60037	8791.2375
2211.52341	8771.9375
2214.44458	8774.3375
2217.36388	8743.2375
2220.28132	8731.0375
2223.1969	8713.0375
2226.11061	8708.3375
2229.02246	8687.4375
2231.93245	8683.1375
2234.84058	8666.3375
2237.74686	8647.4375
2240.65128	8630.2375
2243.55385	8630.8375
2246.45456	8596.7375
2249.35343	8598.2375
2252.25044	8572.6375
2255.14561	8577.7375
2258.03893	8568.1375
2260.93041	8582.5375
2263.82004	8552.5375
2266.70783	8535.8375
2269.59378	8512.0375
2272.4779	8523.0375
2275.36017	8469.8375
2278.24061	8448.2375
2281.11922	8444.1375
2283.996	8442.1375
2286.87094	8407.8375
2289.74405	8401.0375
2292.61534	8396.3375
2295.4848	8392.1375
2298.35243	8381.6375
2301.21824	8366.3375
2304.08223	8387.9375
2306.94439	8384.1375
2309.80474	8363.6375
2312.66327	8377.0375
2315.51999	8370.4375
2318.37489	8340.3375
2321.22797	8337.6375
2324.07925	8331.9375
2326.92871	8333.1375
2329.77637	8311.8375
2332.62222	8319.4375
2335.46626	8272.2375
2338.3085	8277.8375
2341.14893	8290.0375
2343.98756	8271.2375
2346.8244	8249.5375
2349.65943	8265.9375
2352.49267	8241.6375
2355.32411	8239.4375
2358.15376	8266.7375
2360.98161	8253.7375
2363.80768	8248.0375
2366.63195	8224.1375
2369.45444	8228.6375
2372.27514	8240.8375
2375.09405	8217.8375
2377.91118	8201.8375
2380.72652	8189.3375
2383.54009	8175.5375
2386.35187	8117.9375
2389.16188	8100.2375
2391.97011	8111.7375
2394.77657	8094.1375
2397.58125	8077.2375
2400.38416	8032.5375
2403.18529	8047.3375
2405.98466	8028.8375
2408.78226	8025.9375
2411.57809	7984.4375
2414.37216	7978.7375
2417.16446	7981.3375
2419.955	7988.4375
2422.74378	7986.9375
2425.5308	7963.2375
2428.31606	7945.4375
2431.09956	7953.1375
2433.88131	7936.7375
2436.6613	7935.9375
2439.43954	7957.8375
2442.21603	7918.8375
2444.99077	7937.1375
2447.76377	7915.5375
2450.53501	7922.7375
2453.30451	7911.5375
2456.07226	7896.9375
2458.83827	7921.0375
2461.60254	7905.4375
2464.36507	7901.3375
2467.12586	7887.4375
2469.88492	7895.8375
2472.64224	7901.2375
2475.39782	7889.5375
2478.15167	7891.1375
2480.90379	7899.5375
2483.65417	7914.8375
2486.40283	7894.1375
2489.14976	7902.4375
2491.89497	7930.8375
2494.63845	7924.7375
2497.3802	7892.8375
2500.12024	7921.5375
2502.85855	7867.9375
2505.59514	7883.2375
2508.33002	7859.8375
2511.06318	7833.3375
2513.79462	7817.4375
2516.52435	7804.0375
2519.25237	7796.6375
2521.97867	7782.1375
2524.70327	7759.1375
2527.42616	7729.0375
2530.14734	7756.6375
2532.86681	7742.2375
2535.58458	7762.1375
2538.30065	7743.6375
2541.01501	7757.7375
2543.72768	7733.6375
2546.43864	7726.1375
2549.14791	7708.5375
2551.85548	7689.1375
2554.56136	7678.0375
2557.26554	7675.7375
2559.96803	7663.5375
2562.66883	7666.8375
2565.36794	7648.9375
2568.06536	7641.0375
2570.7611	7636.1375
2573.45514	7628.4375
2576.14751	7601.5375
2578.83819	7604.1375
2581.52719	7597.5375
2584.21451	7590.3375
2586.90015	7571.2375
2589.58411	7561.9375
2592.2664	7546.9375
2594.94701	7537.2375
2597.62594	7518.7375
2600.30321	7500.8375
2602.9788	7507.6375
2605.65273	7473.6375
2608.32498	7484.9375
2610.99557	7496.7375
2613.66449	7496.3375
2616.33175	7471.5375
2618.99734	7479.2375
2621.66128	7477.8375
2624.32355	7462.5375
2626.98416	7429.2375
2629.64311	7440.7375
2632.30041	7430.6375
2634.95605	7408.6375
2637.61004	7405.7375
2640.26238	7405.1375
2642.91306	7377.2375
2645.56209	7396.8375
2648.20948	7403.2375
2650.85521	7385.1375
2653.4993	7384.2375
2656.14175	7370.4375
2658.78255	7365.9375
2661.42171	7364.9375
2664.05923	7398.2375
2666.6951	7394.4375
2669.32934	7388.6375
2671.96194	7389.9375
2674.59291	7385.2375
2677.22224	7367.3375
2679.84993	7383.9375
2682.476	7387.9375
2685.10043	7378.0375
2687.72324	7373.8375
2690.34441	7343.7375
2692.96396	7356.0375
2695.58188	7347.6375
2698.19818	7363.9375
2700.81285	7366.8375
2703.4259	7347.9375
2706.03733	7348.2375
2708.64714	7375.4375
2711.25533	7381.4375
2713.86191	7349.1375
2716.46687	7367.0375
2719.07021	7370.2375
2721.67194	7408.3375
2724.27206	7383.4375
2726.87057	7376.5375
2729.46747	7373.4375
2732.06276	7377.9375
2734.65644	7384.8375
2737.24852	7390.1375
2739.83899	7354.2375
2742.42786	7354.6375
2745.01513	7362.0375
2747.60079	7358.0375
2750.18486	7335.8375
2752.76733	7323.8375
2755.3482	7318.0375
2757.92747	7295.9375
2760.50515	7275.6375
2763.08123	7274.4375
2765.65573	7275.1375
2768.22863	7274.6375
2770.79994	7247.1375
2773.36967	7251.6375
2775.9378	7263.0375
2778.50435	7232.5375
2781.06932	7220.5375
2783.6327	7245.0375
2786.1945	7238.6375
2788.75471	7220.5375
2791.31335	7209.3375
2793.87041	7198.8375
2796.42589	7198.2375
2798.97979	7191.5375
2801.53212	7153.9375
2804.08288	7165.5375
2806.63206	7130.4375
2809.17967	7126.4375
2811.72571	7117.2375
2814.27018	7125.4375
2816.81308	7099.4375
2819.35442	7093.0375
2821.89419	7099.1375
2824.43239	7077.9375
2826.96904	7110.7375
2829.50412	7092.2375
2832.03763	7082.9375
2834.56959	7095.9375
2837.1	7074.7375
2839.62884	7101.3375
2842.15613	7097.9375
2844.68186	7128.8375
2847.20604	7129.0375
2849.72867	7137.8375
2852.24974	7139.9375
2854.76927	7135.3375
2857.28724	7131.0375
2859.80367	7135.7375
2862.31855	7119.0375
2864.83189	7111.5375
2867.34368	7113.6375
2869.85393	7115.9375
2872.36264	7118.0375
2874.8698	7094.4375
2877.37543	7095.1375
2879.87952	7087.5375
2882.38207	7097.6375
2884.88308	7094.9375
2887.38256	7107.8375
2889.88051	7093.7375
2892.37692	7087.6375
2894.8718	7120.1375
2897.36515	7115.3375
2899.85698	7105.7375
2902.34727	7124.9375
2904.83604	7154.0375
2907.32328	7153.8375
2909.809	7160.0375
2912.29319	7190.5375
2914.77587	7179.3375
2917.25702	7176.3375
2919.73665	7168.2375
2922.21476	7196.3375
2924.69136	7177.0375
2927.16644	7166.2375
2929.64	7159.0375
2932.11205	7155.6375
2934.58258	7117.6375
2937.05161	7149.6375
2939.51912	7129.2375
2941.98513	7102.4375
2944.44962	7098.9375
2946.91261	7093.7375
2949.37409	7074.4375
2951.83407	7074.6375
2954.29254	7047.4375
2956.74951	7054.6375
2959.20498	7053.8375
2961.65895	7023.8375
2964.11142	7016.4375
2966.56239	6971.6375
2969.01186	6986.9375
2971.45984	6979.6375
2973.90632	6958.2375
2976.35131	6955.0375
2978.7948	6916.5375
2981.23681	6884.2375
2983.67732	6897.0375
2986.11635	6899.0375
2988.55388	6872.3375
2990.98993	6837.3375
2993.4245	6854.4375
2995.85758	6837.7375
2998.28917	6813.1375
3000.71928	6800.6375
3003.14791	6789.2375
3005.57506	6805.9375
3008.00073	6777.8375
3010.42493	6750.0375
3012.84764	6769.5375
3015.26888	6743.7375
3017.68865	6748.8375
3020.10694	6728.4375
3022.52376	6718.9375
3024.9391	6729.2375
3027.35298	6697.6375
3029.76539	6684.6375
3032.17632	6680.5375
3034.5858	6665.2375
3036.9938	6665.9375
3039.40034	6640.5375
3041.80542	6638.1375
3044.20903	6621.5375
3046.61118	6634.1375
3049.01187	6638.4375
3051.4111	6636.0375
3053.80888	6612.1375
3056.20519	6646.3375
3058.60005	6594.2375
3060.99345	6603.9375
3063.3854	6590.1375
3065.7759	6552.3375
3068.16494	6576.3375
3070.55254	6531.9375
3072.93868	6521.5375
3075.32338	6503.7375
3077.70662	6490.0375
3080.08842	6470.7375
3082.46878	6474.9375
3084.84769	6469.7375
3087.22515	6454.8375
3089.60118	6472.9375
3091.97576	6471.7375
3094.3489	6477.5375
3096.72061	6496.8375
3099.09087	6481.9375
3101.4597	6485.5375
3103.82709	6474.3375
3106.19305	6486.1375
3108.55757	6479.0375
3110.92066	6478.2375
3113.28232	6450.7375
3115.64255	6443.7375
3118.00134	6438.7375
3120.35871	6432.8375
3122.71466	6385.1375
3125.06917	6402.6375
3127.42226	6413.4375
3129.77393	6411.7375
3132.12417	6380.2375
3134.47299	6436.0375
3136.82039	6408.0375
3139.16636	6408.2375
3141.51092	6410.4375
3143.85406	6410.7375
3146.19579	6417.1375
3148.53609	6408.4375
3150.87499	6432.4375
3153.21246	6441.3375
3155.54853	6440.1375
3157.88318	6446.9375
3160.21642	6462.1375
3162.54826	6468.2375
3164.87868	6463.2375
3167.2077	6451.9375
3169.5353	6448.8375
3171.86151	6474.1375
3174.18631	6449.3375
3176.5097	6452.0375
3178.83169	6451.0375
3181.15228	6420.1375
3183.47147	6433.3375
3185.78926	6429.3375
3188.10565	6413.5375
3190.42065	6412.8375
3192.73424	6416.7375
3195.04645	6416.3375
3197.35725	6436.6375
3199.66667	6442.6375
3201.97469	6421.1375
3204.28132	6443.4375
3206.58656	6464.1375
3208.8904	6438.6375
3211.19287	6430.1375
3213.49394	6459.4375
3215.79363	6458.1375
3218.09193	6457.6375
3220.38884	6460.2375
3222.68438	6495.3375
3224.97853	6478.3375
3227.2713	6474.0375
3229.56269	6464.3375
3231.8527	6457.8375
3234.14133	6443.4375
3236.42858	6428.3375
3238.71446	6431.9375
3240.99896	6403.8375
3243.28209	6406.9375
3245.56384	6392.3375
3247.84423	6385.3375
3250.12324	6376.0375
3252.40088	6392.5375
3254.67715	6394.8375
3256.95205	6386.4375
3259.22558	6373.6375
3261.49775	6381.2375
3263.76855	6363.6375
3266.03799	6368.8375
3268.30606	6358.7375
3270.57277	6345.4375
3272.83812	6346.6375
3275.10211	6328.0375
3277.36474	6330.3375
3279.62601	6327.1375
3281.88593	6300.0375
3284.14448	6322.0375
3286.40168	6324.8375
3288.65753	6313.0375
3290.91202	6302.8375
3293.16516	6292.2375
3295.41695	6278.6375
3297.66738	6263.5375
3299.91647	6223.3375
3302.16421	6193.2375
3304.4106	6178.9375
3306.65564	6158.4375
3308.89933	6122.4375
3311.14169	6071.4375
3313.38269	6018.0375
3315.62236	5997.0375
3317.86068	5947.7375
3320.09766	5907.6375
3322.3333	5877.5375
3324.5676	5853.8375
3326.80056	5769.4375
3329.03219	5727.9375
3331.26248	3.5375
3333.49143	0.2375
3335.71905	0.2375
