Data from AgNPs_FTO_APTES_UA_50uM_CRN_1uM_R6G_10uM_NaF_0.1M_Addition_RamanShift__11__11-28-24-719.txt Node

Date: Mon Feb 21 11:28:24 GMT 2022
User: TCL
Spectrometer: QEP01345
Trigger mode: 4
Integration Time (sec): 7.000000E0
Scans to average: 10
Electric dark correction enabled: true
Nonlinearity correction enabled: false
Boxcar width: 0
XAxis mode: Raman Shifts
Number of Pixels in Spectrum: 1044
>>>>>Begin Spectral Data<<<<<
46.04893	-0.3
50.45542	-1
54.85868	-0.4
59.25871	-2.3
63.6555	57.3
68.04907	63.9
72.43941	64.9
76.82654	69.1
81.21044	70.5
85.59113	77
89.96862	74
94.34289	81.8
98.71396	79.3
103.08183	88.2
107.4465	86.3
111.80798	84.3
116.16626	88.9
120.52136	90.4
124.87327	99.8
129.222	95.2
133.56755	101.9
137.90993	115.1
142.24913	121
146.58517	133.3
150.91804	150.2
155.24774	180.7
159.57429	224.1
163.89768	279.4
168.21792	368.6
172.53501	505.7
176.84895	708.5
181.15975	996.4
185.46741	1401.1
189.77193	1916.6
194.07331	2577.6
198.37157	3310.3
202.6667	4108
206.9587	4886.3
211.24758	5639.1
215.53334	6404.9
219.81599	7199.5
224.09553	8071.8
228.37195	9028.7
232.64527	10145.3
236.91549	11245.8
241.18261	12414.2
245.44663	13516
249.70755	14500.4
253.96539	15357.2
258.22014	16057.1
262.4718	16613.4
266.72039	16974.2
270.96589	17150.3
275.20832	17140.9
279.44768	16968.8
283.68397	16819.5
287.91719	16644.9
292.14735	16491.5
296.37445	16435.5
300.59849	16428.7
304.81948	16457.7
309.03742	16492.7
313.25231	16476.9
317.46415	16324.4
321.67296	15952.4
325.87872	15685.9
330.08145	15554.8
334.28114	15507.7
338.47781	15598.1
342.67145	15774
346.86207	15991.2
351.04966	16229.6
355.23424	16522.1
359.4158	16751.2
363.59435	16952.2
367.76989	17113.4
371.94243	17186.7
376.11196	17174.3
380.27849	17208
384.44203	17262.6
388.60257	17352
392.76012	17547.6
396.91468	17832.1
401.06626	18110.6
405.21485	18324.5
409.36047	18283.7
413.50311	18083.2
417.64277	17969
421.77947	17982.4
425.9132	18079.9
430.04396	18176.2
434.17176	18207.1
438.2966	18328.6
442.41849	18493.1
446.53742	18800.4
450.6534	19199.7
454.76644	19515.9
458.87653	19611.7
462.98368	19651.2
467.08789	19598.1
471.18916	19431.4
475.2875	19237.5
479.38291	19137.8
483.4754	19069.9
487.56496	19006.4
491.6516	18811.6
495.73531	18577.2
499.81612	18425.8
503.89401	18496.1
507.96899	18541.9
512.04106	18569.4
516.11023	18504.6
520.1765	18390.2
524.23987	18239.8
528.30034	18095
532.35792	17967.4
536.41261	17744.1
540.46441	17640.6
544.51333	17620.4
548.55936	17777.8
552.60252	18059.8
556.64279	18409.4
560.6802	18653.8
564.71473	18888.4
568.7464	19255.5
572.7752	19846.4
576.80114	20608.9
580.82422	21290.3
584.84444	21898.3
588.86181	22618.3
592.87633	23387.3
596.888	23379.6
600.89682	22473.9
604.9028	21968.9
608.90594	22737.6
612.90624	23650.3
616.90371	22351.5
620.89834	19743.9
624.89015	18585.7
628.87913	18495.3
632.86528	18743.6
636.84862	18776.8
640.82913	18481
644.80683	18076.2
648.78172	17811.2
652.75379	17738.4
656.72306	17877.4
660.68952	18114.6
664.65319	18108.8
668.61405	17926.7
672.57211	17928.5
676.52738	17976.5
680.47986	17974.1
684.42955	17831.4
688.37646	17825.3
692.32058	17901.3
696.26192	18087.7
700.20048	18282.7
704.13626	18405.8
708.06928	18448
711.99952	18461.2
715.927	18404.6
719.85171	18396.8
723.77365	18294.4
727.69284	18055.5
731.60928	17806.8
735.52295	17710
739.43388	17658.2
743.34206	17713.2
747.24749	17820.5
751.15017	17980.9
755.05012	18281.6
758.94733	18681.2
762.8418	19402.5
766.73354	20427.5
770.62254	21437.4
774.50882	21581.4
778.39237	20818.3
782.27321	19757.7
786.15132	18931
790.02671	18334.7
793.89938	17996.6
797.76935	17820.9
801.6366	17731.2
805.50115	17638.6
809.36299	17632
813.22213	17526.9
817.07857	17521.5
820.93231	17474
824.78336	17404.6
828.63172	17327.7
832.47738	17282.3
836.32036	17239.8
840.16066	17277.2
843.99827	17282
847.8332	17282.6
851.66546	17321.4
855.49504	17373.5
859.32195	17379.1
863.1462	17366.4
866.96777	17325.8
870.78668	17282.7
874.60293	17346.5
878.41652	17369.7
882.22745	17394.4
886.03573	17477
889.84136	17471.4
893.64433	17417.9
897.44466	17424.4
901.24235	17380.3
905.0374	17331.4
908.8298	17314.6
912.61957	17309.8
916.40671	17446.4
920.19121	17642.9
923.97308	17861.2
927.75233	17874.7
931.52895	17687.1
935.30295	17416
939.07433	17167.8
942.84309	16921.4
946.60924	16832.4
950.37278	16805.8
954.13371	16793.8
957.89203	16752.1
961.64774	16760.3
965.40086	16741.2
969.15137	16707.9
972.89929	16695.5
976.64461	16628.4
980.38733	16575.8
984.12747	16595.6
987.86502	16681
991.59999	16752.2
995.33237	16883.5
999.06217	17023.3
1002.78939	17298.5
1006.51404	17619.1
1010.23611	17892.4
1013.95561	18115.8
1017.67255	18126.2
1021.38692	18008.2
1025.09872	17770.7
1028.80796	17538.6
1032.51465	17409.6
1036.21877	17439.4
1039.92035	17466.3
1043.61937	17618.2
1047.31584	17688.8
1051.00976	17702.6
1054.70114	17762.5
1058.38998	17884.4
1062.07627	18032.9
1065.76003	18237.8
1069.44126	18525.1
1073.11995	18805
1076.79611	19116.6
1080.46974	19237.2
1084.14085	19322.6
1087.80943	19480.8
1091.47549	19669.1
1095.13903	19770.9
1098.80005	19603.9
1102.45857	19163.5
1106.11456	18771.2
1109.76805	18563.3
1113.41903	18441.3
1117.06751	18483.9
1120.71348	18631
1124.35696	18745.1
1127.99793	18950.2
1131.63641	19069.6
1135.2724	19073.5
1138.90589	19060.2
1142.5369	19110.3
1146.16542	19239.2
1149.79145	19355
1153.415	19548.5
1157.03607	19726.6
1160.65467	20129.4
1164.27079	20733.6
1167.88443	21522.6
1171.49561	22397.9
1175.10432	23493.6
1178.71056	24821.2
1182.31434	26125
1185.91565	26881.8
1189.51451	27061.9
1193.11091	26811.3
1196.70485	26210.2
1200.29634	25381.5
1203.88538	24755
1207.47197	24365.8
1211.05612	24218.1
1214.63782	23950.3
1218.21708	23417.9
1221.79391	22790.3
1225.36829	22263.7
1228.94024	21990.7
1232.50976	21842.2
1236.07685	21692.7
1239.6415	21519.7
1243.20374	21504.3
1246.76355	21592.4
1250.32093	21760.5
1253.8759	22157.2
1257.42845	22652.2
1260.97859	23237.6
1264.52631	23948
1268.07163	24592.3
1271.61453	25160.2
1275.15503	25739.7
1278.69312	26383.9
1282.22882	27070.2
1285.76211	27951.6
1289.29301	28848.6
1292.82151	29807.7
1296.34761	30980.9
1299.87133	32318.2
1303.39266	33599.1
1306.9116	34667.6
1310.42815	35497.6
1313.94233	35777.5
1317.45412	35577
1320.96354	35226.2
1324.47058	34945.1
1327.97525	34808.9
1331.47754	34777.9
1334.97747	34803.1
1338.47502	34693.3
1341.97022	34552.6
1345.46305	34448.2
1348.95352	34245.7
1352.44163	34039.5
1355.92738	34163.9
1359.41078	34805.2
1362.89183	35503.7
1366.37053	35150.9
1369.84688	33211.7
1373.32088	30459.3
1376.79254	28387.5
1380.26186	27458
1383.72883	27310
1387.19347	27181.2
1390.65578	26941.7
1394.11575	26726.7
1397.57339	26759.6
1401.0287	27039.2
1404.48168	27177.9
1407.93234	27074.2
1411.38068	26596.4
1414.82669	25910.1
1418.27039	25054.6
1421.71177	24312.8
1425.15083	23722.5
1428.58758	23470.1
1432.02203	23637.8
1435.45416	24075
1438.88399	24594.2
1442.31151	25006.9
1445.73673	25219.1
1449.15965	25427.4
1452.58027	25559.3
1455.9986	25712.8
1459.41463	25951.5
1462.82837	26323
1466.23982	26705.4
1469.64898	27017.5
1473.05586	27210.1
1476.46045	27199.4
1479.86276	27135.3
1483.26279	27141.2
1486.66054	27144.1
1490.05602	27324.8
1493.44922	27727.6
1496.84016	28267.6
1500.22882	28919.4
1503.61521	29621.9
1506.99934	30354.7
1510.38121	30830.4
1513.76081	30813.2
1517.13816	30369.4
1520.51324	29730.9
1523.88607	29322.2
1527.25665	29149.5
1530.62498	29003
1533.99105	28717
1537.35488	28213.2
1540.71647	27501.5
1544.07581	26720.8
1547.4329	26063.7
1550.78776	25513.4
1554.14038	25177.5
1557.49077	24984.6
1560.83892	24937.6
1564.18484	24952.2
1567.52853	25005.7
1570.86999	25205.7
1574.20922	25607.1
1577.54624	25921.4
1580.88103	26032.2
1584.2136	26222.2
1587.54395	26752.9
1590.87208	27731.3
1594.19801	28976.4
1597.52172	30009.4
1600.84321	30073.5
1604.16251	28842.3
1607.47959	27106.4
1610.79447	25240.4
1614.10715	23502.1
1617.41763	22005.7
1620.7259	21030.7
1624.03199	20476.8
1627.33587	20454.4
1630.63757	20882.3
1633.93707	22035.6
1637.23439	23914.3
1640.52951	26666.5
1643.82246	29984.6
1647.11321	32616.3
1650.40179	33167.5
1653.68819	31110.4
1656.97241	27475.8
1660.25446	23828.5
1663.53433	21123.6
1666.81203	19362.6
1670.08756	18269.6
1673.36092	17623.3
1676.63211	17232.6
1679.90115	16895.7
1683.16801	16670.9
1686.43272	16496.4
1689.69527	16341.5
1692.95567	16165.2
1696.2139	16019.8
1699.46999	15829.3
1702.72392	15771.4
1705.97571	15839.3
1709.22535	15882.9
1712.47284	15942
1715.71819	15966.1
1718.96139	15923.5
1722.20246	15908.7
1725.44139	15836.3
1728.67818	15748.4
1731.91284	15663.6
1735.14537	15602.4
1738.37576	15553.7
1741.60403	15452.5
1744.83017	15430.7
1748.05418	15316.3
1751.27607	15272
1754.49584	15198.9
1757.71349	15157.6
1760.92903	15090.5
1764.14244	15070.5
1767.35375	15070.3
1770.56294	15033.6
1773.77002	15041.1
1776.97499	15070.5
1780.17785	15077.1
1783.37861	15115.3
1786.57727	15093.8
1789.77382	15100.9
1792.96828	15105.4
1796.16064	15077.6
1799.3509	15065.5
1802.53907	14985.3
1805.72514	14935
1808.90913	14947.8
1812.09102	14918.6
1815.27083	14911.2
1818.44856	14895
1821.6242	14871.7
1824.79776	14859.5
1827.96924	14864.7
1831.13864	14843.5
1834.30597	14839.2
1837.47122	14856
1840.6344	14826.4
1843.7955	14858.9
1846.95454	14838.4
1850.11151	14831
1853.26642	14779.5
1856.41926	14774.3
1859.57004	14800.8
1862.71876	14762.8
1865.86542	14753.1
1869.01003	14762.3
1872.15258	14715.9
1875.29308	14677.2
1878.43152	14646.7
1881.56792	14624.7
1884.70227	14605.9
1887.83457	14604.8
1890.96482	14587.3
1894.09304	14543.5
1897.21921	14522.1
1900.34335	14520.8
1903.46544	14507.3
1906.58551	14496.5
1909.70353	14475.2
1912.81953	14444.3
1915.93349	14403.8
1919.04543	14386
1922.15534	14380.2
1925.26322	14329.4
1928.36908	14307.4
1931.47292	14242.7
1934.57473	14234.6
1937.67453	14199.4
1940.77232	14190.7
1943.86808	14111.7
1946.96184	14079.9
1950.05358	14069.1
1953.14331	14012.4
1956.23103	13959.7
1959.31675	13910.7
1962.40046	13890.5
1965.48217	13842.8
1968.56188	13812.2
1971.63959	13798.7
1974.7153	13757.7
1977.78901	13717
1980.86073	13636.9
1983.93046	13588.7
1986.99819	13545.7
1990.06394	13544.3
1993.1277	13502.1
1996.18947	13472
1999.24925	13427.5
2002.30706	13366.1
2005.36288	13353.3
2008.41672	13314.6
2011.46859	13272.7
2014.51848	13215.7
2017.56639	13162.4
2020.61233	13206.4
2023.6563	13131.8
2026.6983	13080.6
2029.73833	13055.1
2032.7764	13030.1
2035.8125	13003.1
2038.84664	12988.9
2041.87881	12980.1
2044.90903	12953
2047.93729	12905.4
2050.96359	12890.2
2053.98794	12900
2057.01034	12880.3
2060.03078	12841.4
2063.04927	12832.5
2066.06582	12855.6
2069.08042	12849.5
2072.09307	12832.4
2075.10378	12825.5
2078.11255	12837
2081.11938	12850.5
2084.12426	12833.6
2087.12722	12826.5
2090.12824	12827.3
2093.12732	12792.5
2096.12447	12830.3
2099.11969	12817.6
2102.11299	12811.5
2105.10435	12820.8
2108.09379	12815.1
2111.08131	12830.8
2114.0669	12831.5
2117.05057	12847.5
2120.03233	12849.3
2123.01216	12888.4
2125.99008	12900.9
2128.96609	12893
2131.94018	12909.2
2134.91236	12892.2
2137.88263	12938.4
2140.851	12916.9
2143.81746	12935.5
2146.78201	12903.5
2149.74466	12933.3
2152.7054	12954.5
2155.66425	12925.4
2158.6212	12906.4
2161.57625	12918.3
2164.52941	12905.1
2167.48067	12896.3
2170.43004	12884.8
2173.37752	12882
2176.32311	12874.8
2179.26681	12851.7
2182.20863	12890.8
2185.14856	12869.4
2188.08661	12868.8
2191.02278	12862.8
2193.95707	12849.6
2196.88948	12834.4
2199.82001	12837.8
2202.74867	12819
2205.67545	12805.4
2208.60037	12768.7
2211.52341	12772.1
2214.44458	12773.2
2217.36388	12714.7
2220.28132	12701.7
2223.1969	12663
2226.11061	12645.7
2229.02246	12638.6
2231.93245	12630.1
2234.84058	12602.3
2237.74686	12583.1
2240.65128	12562.5
2243.55385	12558.2
2246.45456	12553.4
2249.35343	12525.9
2252.25044	12491.3
2255.14561	12461.2
2258.03893	12482
2260.93041	12407.1
2263.82004	12386
2266.70783	12381.6
2269.59378	12369.3
2272.4779	12325.3
2275.36017	12317.3
2278.24061	12297
2281.11922	12287.7
2283.996	12234.9
2286.87094	12255.9
2289.74405	12204.8
2292.61534	12230.5
2295.4848	12180.5
2298.35243	12175.4
2301.21824	12145.4
2304.08223	12163.9
2306.94439	12143.2
2309.80474	12129.2
2312.66327	12113.9
2315.51999	12094.8
2318.37489	12105.2
2321.22797	12045.8
2324.07925	12057.5
2326.92871	12022.2
2329.77637	12006.9
2332.62222	12009.5
2335.46626	12000
2338.3085	11988.9
2341.14893	11979.3
2343.98756	11982.8
2346.8244	11978.3
2349.65943	11966.7
2352.49267	11962.9
2355.32411	11955.7
2358.15376	11976.6
2360.98161	11941.8
2363.80768	11934.2
2366.63195	11928.5
2369.45444	11912
2372.27514	11912
2375.09405	11890.1
2377.91118	11881
2380.72652	11843
2383.54009	11800.6
2386.35187	11809.6
2389.16188	11811.3
2391.97011	11778.2
2394.77657	11753.4
2397.58125	11748.8
2400.38416	11730.9
2403.18529	11706
2405.98466	11695.2
2408.78226	11706.6
2411.57809	11675.6
2414.37216	11636.3
2417.16446	11629.3
2419.955	11624.8
2422.74378	11646.1
2425.5308	11634.4
2428.31606	11612.9
2431.09956	11590.7
2433.88131	11584.6
2436.6613	11613.7
2439.43954	11606.8
2442.21603	11595.4
2444.99077	11574.1
2447.76377	11596.6
2450.53501	11567
2453.30451	11559.6
2456.07226	11547.4
2458.83827	11532.2
2461.60254	11550
2464.36507	11504.7
2467.12586	11496.3
2469.88492	11496.4
2472.64224	11474.8
2475.39782	11490.9
2478.15167	11460.2
2480.90379	11495.7
2483.65417	11501.6
2486.40283	11501.7
2489.14976	11499.2
2491.89497	11481.8
2494.63845	11476.5
2497.3802	11460
2500.12024	11491.6
2502.85855	11479.7
2505.59514	11445.4
2508.33002	11436.5
2511.06318	11444
2513.79462	11421.9
2516.52435	11400.2
2519.25237	11381.4
2521.97867	11366.6
2524.70327	11353.8
2527.42616	11362.1
2530.14734	11357.5
2532.86681	11351
2535.58458	11361.4
2538.30065	11323.2
2541.01501	11319
2543.72768	11328.7
2546.43864	11325.4
2549.14791	11296.7
2551.85548	11306.7
2554.56136	11285.4
2557.26554	11246.3
2559.96803	11232.7
2562.66883	11203.8
2565.36794	11178.1
2568.06536	11193.7
2570.7611	11176
2573.45514	11153.7
2576.14751	11138.5
2578.83819	11110.8
2581.52719	11120.2
2584.21451	11098.9
2586.90015	11095.5
2589.58411	11081
2592.2664	11095.6
2594.94701	11070.5
2597.62594	11091.3
2600.30321	11025
2602.9788	11039.9
2605.65273	11017.3
2608.32498	11019.1
2610.99557	11024.9
2613.66449	11004.4
2616.33175	10981.3
2618.99734	10985.7
2621.66128	10968.9
2624.32355	10939.9
2626.98416	10934.7
2629.64311	10953.2
2632.30041	10925.8
2634.95605	10886.8
2637.61004	10896.3
2640.26238	10885.9
2642.91306	10895.3
2645.56209	10866.7
2648.20948	10875.1
2650.85521	10874
2653.4993	10875.6
2656.14175	10893.1
2658.78255	10904.9
2661.42171	10887.3
2664.05923	10913.7
2666.6951	10913.4
2669.32934	10906.6
2671.96194	10922.2
2674.59291	10909
2677.22224	10909
2679.84993	10892.4
2682.476	10886.2
2685.10043	10902.3
2687.72324	10913.3
2690.34441	10903.6
2692.96396	10897.7
2695.58188	10893.9
2698.19818	10902.3
2700.81285	10877.8
2703.4259	10857.4
2706.03733	10784.3
2708.64714	10834.2
2711.25533	10876.9
2713.86191	10897.7
2716.46687	10913.7
2719.07021	10938
2721.67194	10940.9
2724.27206	10940.7
2726.87057	10976.6
2729.46747	10968.4
2732.06276	10946.3
2734.65644	10942.3
2737.24852	10967.9
2739.83899	10936.2
2742.42786	10963.9
2745.01513	10924.2
2747.60079	10936.8
2750.18486	10894.3
2752.76733	10898.6
2755.3482	10878.4
2757.92747	10866.5
2760.50515	10843.3
2763.08123	10842.6
2765.65573	10831.5
2768.22863	10816.2
2770.79994	10822.7
2773.36967	10803.9
2775.9378	10797.7
2778.50435	10775.9
2781.06932	10782.7
2783.6327	10773.3
2786.1945	10779.8
2788.75471	10769.9
2791.31335	10736.1
2793.87041	10742.3
2796.42589	10695.7
2798.97979	10694.5
2801.53212	10649.5
2804.08288	10651.9
2806.63206	10633.7
2809.17967	10604.7
2811.72571	10579.7
2814.27018	10585
2816.81308	10522.4
2819.35442	10541.6
2821.89419	10506
2824.43239	10502.7
2826.96904	10474.8
2829.50412	10494.4
2832.03763	10452.7
2834.56959	10450.4
2837.1	10419.1
2839.62884	10432
2842.15613	10432.3
2844.68186	10437
2847.20604	10434.4
2849.72867	10423.3
2852.24974	10404.4
2854.76927	10377.9
2857.28724	10328.8
2859.80367	10324.9
2862.31855	10328.1
2864.83189	10328.9
2867.34368	10280
2869.85393	10317.3
2872.36264	10310
2874.8698	10299.7
2877.37543	10298.2
2879.87952	10305.6
2882.38207	10306.7
2884.88308	10302.4
2887.38256	10306.7
2889.88051	10292.6
2892.37692	10306.2
2894.8718	10300.4
2897.36515	10308.9
2899.85698	10312.3
2902.34727	10329.6
2904.83604	10306.2
2907.32328	10301.8
2909.809	10311.8
2912.29319	10341.8
2914.77587	10310.8
2917.25702	10323.9
2919.73665	10306.6
2922.21476	10312.7
2924.69136	10272
2927.16644	10305.7
2929.64	10305.4
2932.11205	10286.3
2934.58258	10259.8
2937.05161	10254.7
2939.51912	10244.7
2941.98513	10236.3
2944.44962	10245.9
2946.91261	10214.6
2949.37409	10219.3
2951.83407	10230.5
2954.29254	10222.3
2956.74951	10214.2
2959.20498	10189.4
2961.65895	10193.6
2964.11142	10184.8
2966.56239	10165.8
2969.01186	10152.5
2971.45984	10149.2
2973.90632	10144.3
2976.35131	10144.8
2978.7948	10108.1
2981.23681	10080.8
2983.67732	10093.2
2986.11635	10063.4
2988.55388	10028
2990.98993	9997
2993.4245	9992.7
2995.85758	9958.9
2998.28917	9933.3
3000.71928	9936.2
3003.14791	9907.7
3005.57506	9890.9
3008.00073	9835.2
3010.42493	9821.8
3012.84764	9818.7
3015.26888	9827.2
3017.68865	9814.1
3020.10694	9769.4
3022.52376	9759.8
3024.9391	9759
3027.35298	9752
3029.76539	9764
3032.17632	9758.2
3034.5858	9713.6
3036.9938	9716.6
3039.40034	9711.9
3041.80542	9692.7
3044.20903	9659.5
3046.61118	9654.9
3049.01187	9638.9
3051.4111	9627.1
3053.80888	9642.9
3056.20519	9599.3
3058.60005	9549.6
3060.99345	9580.2
3063.3854	9542.9
3065.7759	9514.8
3068.16494	9501.6
3070.55254	9464.4
3072.93868	9440.1
3075.32338	9415
3077.70662	9382.2
3080.08842	9368.7
3082.46878	9367.1
3084.84769	9323.1
3087.22515	9344.6
3089.60118	9328.1
3091.97576	9331.4
3094.3489	9315.9
3096.72061	9343
3099.09087	9337.5
3101.4597	9341.1
3103.82709	9343.9
3106.19305	9308.1
3108.55757	9319.7
3110.92066	9273.1
3113.28232	9284.2
3115.64255	9249.2
3118.00134	9227.5
3120.35871	9234.1
3122.71466	9165.9
3125.06917	9178.2
3127.42226	9170
3129.77393	9168.1
3132.12417	9138.6
3134.47299	9134.6
3136.82039	9122
3139.16636	9124.5
3141.51092	9135
3143.85406	9136.2
3146.19579	9134.9
3148.53609	9147.8
3150.87499	9155
3153.21246	9128.6
3155.54853	9138.8
3157.88318	9129.1
3160.21642	9136.2
3162.54826	9126.4
3164.87868	9147.1
3167.2077	9131.9
3169.5353	9146.1
3171.86151	9145
3174.18631	9118.5
3176.5097	9097.3
3178.83169	9073.2
3181.15228	9111.6
3183.47147	9077
3185.78926	9069.7
3188.10565	9049.5
3190.42065	9026.2
3192.73424	9002.2
3195.04645	9003.4
3197.35725	9021
3199.66667	8988.1
3201.97469	9007.5
3204.28132	8994
3206.58656	9019.7
3208.8904	9012.4
3211.19287	8997.8
3213.49394	9019.9
3215.79363	9011.1
3218.09193	9003.9
3220.38884	9004.1
3222.68438	8976.5
3224.97853	8982.7
3227.2713	8975.9
3229.56269	8981.8
3231.8527	8989.3
3234.14133	8986.9
3236.42858	8941.2
3238.71446	8925.4
3240.99896	8919.4
3243.28209	8910.4
3245.56384	8914.3
3247.84423	8892.8
3250.12324	8893
3252.40088	8838.6
3254.67715	8854.8
3256.95205	8846.4
3259.22558	8824
3261.49775	8832.7
3263.76855	8813.1
3266.03799	8808.6
3268.30606	8787.7
3270.57277	8766.1
3272.83812	8737.8
3275.10211	8726.1
3277.36474	8735.5
3279.62601	8706.6
3281.88593	8697.3
3284.14448	8706.4
3286.40168	8717.7
3288.65753	8717.2
3290.91202	8699.3
3293.16516	8658.2
3295.41695	8669.6
3297.66738	8591.2
3299.91647	8549.7
3302.16421	8503.2
3304.4106	8484.5
3306.65564	8415
3308.89933	8352.7
3311.14169	8295.9
3313.38269	8190.5
3315.62236	8165.5
3317.86068	8076.6
3320.09766	8046.9
3322.3333	7979.2
3324.5676	7949
3326.80056	7783.3
3329.03219	7768.9
3331.26248	2.3
3333.49143	0.2
3335.71905	1
