Data from AgNPs_FTO_APTES_UA_50uM_CRN_0uM_R6G_10uM_NaF_0.1M_Addition_RamanShift__13__10-25-24-634.txt Node

Date: Mon Feb 21 10:25:24 GMT 2022
User: TCL
Spectrometer: QEP01345
Trigger mode: 4
Integration Time (sec): 7.000000E0
Scans to average: 10
Electric dark correction enabled: true
Nonlinearity correction enabled: false
Boxcar width: 0
XAxis mode: Raman Shifts
Number of Pixels in Spectrum: 1044
>>>>>Begin Spectral Data<<<<<
46.04893	1
50.45542	-0
54.85868	-0.5
59.25871	-0.9
63.6555	26.6
68.04907	30.3
72.43941	32.6
76.82654	33.7
81.21044	35.9
85.59113	39.3
89.96862	39.5
94.34289	44.8
98.71396	41.8
103.08183	44
107.4465	44.7
111.80798	44.7
116.16626	41.9
120.52136	42.3
124.87327	51
129.222	46.1
133.56755	44.8
137.90993	47.5
142.24913	52.6
146.58517	56.8
150.91804	61.2
155.24774	72.5
159.57429	78.1
163.89768	100.4
168.21792	131.5
172.53501	174.8
176.84895	242.8
181.15975	332
185.46741	458.2
189.77193	633
194.07331	842.3
198.37157	1085.8
202.6667	1338.3
206.9587	1599.4
211.24758	1848.5
215.53334	2091.3
219.81599	2373.8
224.09553	2692.8
228.37195	3021.9
232.64527	3390.7
236.91549	3771.3
241.18261	4130.9
245.44663	4472.7
249.70755	4764.3
253.96539	5004.8
258.22014	5227.1
262.4718	5367.2
266.72039	5426.1
270.96589	5448.4
275.20832	5402.8
279.44768	5320.6
283.68397	5206.9
287.91719	5100.9
292.14735	5026.5
296.37445	5084.1
300.59849	5168.9
304.81948	5338.3
309.03742	5489.2
313.25231	5539.6
317.46415	5388.7
321.67296	5115.8
325.87872	4856.6
330.08145	4739.9
334.28114	4733.8
338.47781	4788.8
342.67145	4870.3
346.86207	5029.2
351.04966	5274.5
355.23424	5528.2
359.4158	5752.4
363.59435	5865.1
367.76989	5912.7
371.94243	5912.3
376.11196	5882.1
380.27849	5859.9
384.44203	5819
388.60257	5781.8
392.76012	5745.4
396.91468	5756.5
401.06626	5861.3
405.21485	5940.1
409.36047	5855.1
413.50311	5628
417.64277	5395.5
421.77947	5263.8
425.9132	5185
430.04396	5184.7
434.17176	5250.4
438.2966	5346.9
442.41849	5515.7
446.53742	5747
450.6534	5926.9
454.76644	6028
458.87653	5988.4
462.98368	5883.7
467.08789	5766.5
471.18916	5640.7
475.2875	5535.1
479.38291	5382.6
483.4754	5287.6
487.56496	5224.2
491.6516	5164.4
495.73531	5168.8
499.81612	5159.2
503.89401	5180.7
507.96899	5232.6
512.04106	5302
516.11023	5395.3
520.1765	5471
524.23987	5515
528.30034	5457.5
532.35792	5396
536.41261	5326.2
540.46441	5220.5
544.51333	5152.8
548.55936	5159.7
552.60252	5199.4
556.64279	5301.2
560.6802	5336.9
564.71473	5381.3
568.7464	5519.2
572.7752	5605.6
576.80114	5494.4
580.82422	5336.3
584.84444	5293.1
588.86181	5424.8
592.87633	5654.9
596.888	5802.3
600.89682	5781.6
604.9028	6105.5
608.90594	7345.5
612.90624	9155.2
616.90371	9097.4
620.89834	6880.9
624.89015	5609.8
628.87913	5348.7
632.86528	5356.4
636.84862	5419.1
640.82913	5339.1
644.80683	5160.6
648.78172	5001.8
652.75379	4967.6
656.72306	5097.7
660.68952	5289.2
664.65319	5231.4
668.61405	5048.2
672.57211	4926.3
676.52738	4923.8
680.47986	4908.6
684.42955	4837
688.37646	4823.3
692.32058	4836.5
696.26192	4883.7
700.20048	4915
704.13626	4930.6
708.06928	4894.2
711.99952	4874.4
715.927	4888.5
719.85171	4944.8
723.77365	4947.3
727.69284	4935
731.60928	4901.8
735.52295	4901
739.43388	4913.3
743.34206	4931.8
747.24749	4924.6
751.15017	4933.9
755.05012	4975.6
758.94733	5116.2
762.8418	5506.4
766.73354	6207.6
770.62254	6954.5
774.50882	7452.4
778.39237	7383.3
782.27321	6639.7
786.15132	5768.6
790.02671	5227.5
793.89938	4978.6
797.76935	4871.2
801.6366	4847.5
805.50115	4834.4
809.36299	4852.7
813.22213	4857.7
817.07857	4839.2
820.93231	4811.5
824.78336	4768.3
828.63172	4761.8
832.47738	4766.2
836.32036	4766.6
840.16066	4746.3
843.99827	4758.9
847.8332	4766.8
851.66546	4732
855.49504	4718.2
859.32195	4698.5
863.1462	4657.9
866.96777	4682.1
870.78668	4676.9
874.60293	4690.2
878.41652	4697.6
882.22745	4714.1
886.03573	4754.6
889.84136	4727.8
893.64433	4688.9
897.44466	4663.3
901.24235	4637.7
905.0374	4604.4
908.8298	4561.9
912.61957	4537.4
916.40671	4529.7
920.19121	4564.5
923.97308	4592.6
927.75233	4634.4
931.52895	4686.6
935.30295	4618.8
939.07433	4532
942.84309	4422.3
946.60924	4357.9
950.37278	4322.2
954.13371	4311.4
957.89203	4282.3
961.64774	4251.7
965.40086	4242.8
969.15137	4230.8
972.89929	4224.1
976.64461	4217.4
980.38733	4185.5
984.12747	4195.9
987.86502	4203.2
991.59999	4230.3
995.33237	4275.2
999.06217	4356.8
1002.78939	4446.3
1006.51404	4515.6
1010.23611	4548.4
1013.95561	4597.8
1017.67255	4598.8
1021.38692	4520.7
1025.09872	4413
1028.80796	4326.8
1032.51465	4327.8
1036.21877	4328.7
1039.92035	4399.3
1043.61937	4408.7
1047.31584	4383.8
1051.00976	4385
1054.70114	4377.9
1058.38998	4371.9
1062.07627	4387.5
1065.76003	4356.1
1069.44126	4371.1
1073.11995	4392
1076.79611	4446.9
1080.46974	4532.2
1084.14085	4646.1
1087.80943	4742.3
1091.47549	4768.7
1095.13903	4691.5
1098.80005	4533.1
1102.45857	4390.8
1106.11456	4364
1109.76805	4405
1113.41903	4509.1
1117.06751	4637.9
1120.71348	4859.7
1124.35696	5101.7
1127.99793	5312
1131.63641	5293.6
1135.2724	5067.6
1138.90589	4839.3
1142.5369	4665.2
1146.16542	4537.2
1149.79145	4465.9
1153.415	4416.4
1157.03607	4404.5
1160.65467	4449.7
1164.27079	4602.6
1167.88443	4826.6
1171.49561	5191.9
1175.10432	5780.8
1178.71056	6594.8
1182.31434	7248.8
1185.91565	7473.9
1189.51451	7332.9
1193.11091	6979.3
1196.70485	6567.9
1200.29634	6200.3
1203.88538	5800.7
1207.47197	5372.5
1211.05612	5026.6
1214.63782	4860.4
1218.21708	4838.9
1221.79391	4866
1225.36829	4861.4
1228.94024	4814.4
1232.50976	4738.6
1236.07685	4691.4
1239.6415	4699.1
1243.20374	4719.4
1246.76355	4703.6
1250.32093	4707.2
1253.8759	4759.8
1257.42845	4869.3
1260.97859	5051.5
1264.52631	5229.8
1268.07163	5404.3
1271.61453	5534.6
1275.15503	5598.5
1278.69312	5638
1282.22882	5667.4
1285.76211	5814.4
1289.29301	6045.9
1292.82151	6295.5
1296.34761	6543.5
1299.87133	6876.6
1303.39266	7369.8
1306.9116	8115.1
1310.42815	9006
1313.94233	9543
1317.45412	9270.7
1320.96354	8505.7
1324.47058	7640.2
1327.97525	6913.5
1331.47754	6575.8
1334.97747	6526
1338.47502	6689.2
1341.97022	6889.7
1345.46305	7129.1
1348.95352	7526.8
1352.44163	8203.8
1355.92738	9211.5
1359.41078	10512.2
1362.89183	11635.9
1366.37053	11402.1
1369.84688	9829.1
1373.32088	8193.1
1376.79254	7105.7
1380.26186	6530.3
1383.72883	6141.3
1387.19347	5826.1
1390.65578	5478.7
1394.11575	5258.8
1397.57339	5156.9
1401.0287	5170
1404.48168	5228.8
1407.93234	5229.6
1411.38068	5262.8
1414.82669	5275.5
1418.27039	5187.4
1421.71177	5088.7
1425.15083	4992.2
1428.58758	4994.8
1432.02203	5072.2
1435.45416	5168.3
1438.88399	5226.4
1442.31151	5223.9
1445.73673	5204.3
1449.15965	5186.9
1452.58027	5155.9
1455.9986	5042
1459.41463	4985.2
1462.82837	5030.1
1466.23982	5181.6
1469.64898	5337.2
1473.05586	5462.2
1476.46045	5536.9
1479.86276	5644.2
1483.26279	5749.5
1486.66054	5849.7
1490.05602	5990.6
1493.44922	6161.9
1496.84016	6427.8
1500.22882	6912.2
1503.61521	7694.9
1506.99934	8608
1510.38121	9452
1513.76081	9714.7
1517.13816	9128.4
1520.51324	7953.9
1523.88607	6825.6
1527.25665	6152.9
1530.62498	5797.3
1533.99105	5666.8
1537.35488	5586.5
1540.71647	5503.6
1544.07581	5440.8
1547.4329	5388.6
1550.78776	5313.6
1554.14038	5253.9
1557.49077	5206.4
1560.83892	5217.2
1564.18484	5299.9
1567.52853	5506
1570.86999	5726.2
1574.20922	5888.1
1577.54624	5917.5
1580.88103	5663.7
1584.2136	5246.3
1587.54395	4999
1590.87208	5038.3
1594.19801	5343.8
1597.52172	5848.6
1600.84321	6226.5
1604.16251	6181.7
1607.47959	5763.4
1610.79447	5183.3
1614.10715	4654.1
1617.41763	4300.5
1620.7259	4088.6
1624.03199	3980.7
1627.33587	3991.9
1630.63757	4068
1633.93707	4246.5
1637.23439	4587.1
1640.52951	5118.4
1643.82246	5940.5
1647.11321	6788.4
1650.40179	7227.8
1653.68819	6871.9
1656.97241	5841
1660.25446	4782.1
1663.53433	4040.5
1666.81203	3651.2
1670.08756	3431.4
1673.36092	3302.9
1676.63211	3249.1
1679.90115	3200.9
1683.16801	3136.9
1686.43272	3093.4
1689.69527	3035.6
1692.95567	2975.1
1696.2139	2853.2
1699.46999	2742.4
1702.72392	2702.4
1705.97571	2769
1709.22535	2860.1
1712.47284	2934.8
1715.71819	2965
1718.96139	2976.2
1722.20246	2974.5
1725.44139	2967.8
1728.67818	2945.7
1731.91284	2911.2
1735.14537	2890.7
1738.37576	2861.8
1741.60403	2848.2
1744.83017	2817.9
1748.05418	2796.9
1751.27607	2755.8
1754.49584	2692.7
1757.71349	2639
1760.92903	2590.4
1764.14244	2579.4
1767.35375	2576.1
1770.56294	2564.9
1773.77002	2586
1776.97499	2630.1
1780.17785	2678
1783.37861	2710.5
1786.57727	2709.3
1789.77382	2722.6
1792.96828	2718.9
1796.16064	2721.6
1799.3509	2711.8
1802.53907	2703.1
1805.72514	2707.2
1808.90913	2681.1
1812.09102	2678.5
1815.27083	2677
1818.44856	2674
1821.6242	2656.3
1824.79776	2652.6
1827.96924	2640.3
1831.13864	2628.9
1834.30597	2633.6
1837.47122	2620.1
1840.6344	2628.1
1843.7955	2613
1846.95454	2611.6
1850.11151	2605.9
1853.26642	2590
1856.41926	2592.6
1859.57004	2589.9
1862.71876	2584.5
1865.86542	2590.5
1869.01003	2574.4
1872.15258	2570.5
1875.29308	2564.9
1878.43152	2555.1
1881.56792	2555.6
1884.70227	2542.4
1887.83457	2546.6
1890.96482	2536.7
1894.09304	2530.9
1897.21921	2528.2
1900.34335	2526
1903.46544	2519.9
1906.58551	2522.6
1909.70353	2523.5
1912.81953	2510.4
1915.93349	2499.7
1919.04543	2492
1922.15534	2487.7
1925.26322	2470.1
1928.36908	2460.9
1931.47292	2460
1934.57473	2441.9
1937.67453	2439.5
1940.77232	2429
1943.86808	2419.3
1946.96184	2421
1950.05358	2399.6
1953.14331	2395.1
1956.23103	2379.6
1959.31675	2351.1
1962.40046	2362.9
1965.48217	2355.8
1968.56188	2352.4
1971.63959	2348.1
1974.7153	2348.6
1977.78901	2332.6
1980.86073	2326.1
1983.93046	2310.8
1986.99819	2288.4
1990.06394	2278.3
1993.1277	2271.4
1996.18947	2270.6
1999.24925	2248.1
2002.30706	2253.7
2005.36288	2247.7
2008.41672	2225.8
2011.46859	2224.6
2014.51848	2215.5
2017.56639	2198
2020.61233	2186.1
2023.6563	2185.3
2026.6983	2173.6
2029.73833	2163.4
2032.7764	2161.1
2035.8125	2154.6
2038.84664	2151.2
2041.87881	2138.4
2044.90903	2129.5
2047.93729	2127.7
2050.96359	2110.4
2053.98794	2115.1
2057.01034	2115
2060.03078	2114.2
2063.04927	2099.5
2066.06582	2101.2
2069.08042	2092.2
2072.09307	2100
2075.10378	2086
2078.11255	2071.5
2081.11938	2084
2084.12426	2071.8
2087.12722	2066.6
2090.12824	2078.9
2093.12732	2070.3
2096.12447	2071.9
2099.11969	2068.2
2102.11299	2067.1
2105.10435	2065.8
2108.09379	2060.7
2111.08131	2060.2
2114.0669	2059.4
2117.05057	2055.6
2120.03233	2053.2
2123.01216	2060
2125.99008	2060.3
2128.96609	2047.7
2131.94018	2058.4
2134.91236	2055.7
2137.88263	2046
2140.851	2060.1
2143.81746	2045.4
2146.78201	2044.6
2149.74466	2033.8
2152.7054	2031.1
2155.66425	2029.1
2158.6212	2025.7
2161.57625	2025.7
2164.52941	2018.9
2167.48067	2021.4
2170.43004	2006.4
2173.37752	2013.3
2176.32311	2006.9
2179.26681	2011.2
2182.20863	2005.6
2185.14856	1995.4
2188.08661	2005
2191.02278	2009.9
2193.95707	1995.7
2196.88948	2001.9
2199.82001	1986.2
2202.74867	1979.7
2205.67545	1986
2208.60037	1977.8
2211.52341	1957.6
2214.44458	1966.2
2217.36388	1952.6
2220.28132	1951.8
2223.1969	1947.4
2226.11061	1933.8
2229.02246	1928.7
2231.93245	1928.9
2234.84058	1934.7
2237.74686	1913.3
2240.65128	1911.3
2243.55385	1916.6
2246.45456	1907.1
2249.35343	1897.1
2252.25044	1892.3
2255.14561	1895.5
2258.03893	1889.6
2260.93041	1858.5
2263.82004	1863.2
2266.70783	1867.9
2269.59378	1868.5
2272.4779	1868.8
2275.36017	1864.5
2278.24061	1860.4
2281.11922	1848.3
2283.996	1845.8
2286.87094	1832.4
2289.74405	1827.5
2292.61534	1826.5
2295.4848	1820.5
2298.35243	1816.3
2301.21824	1811.4
2304.08223	1807.8
2306.94439	1798.2
2309.80474	1802.3
2312.66327	1800
2315.51999	1794.9
2318.37489	1788
2321.22797	1787.7
2324.07925	1780.5
2326.92871	1778.7
2329.77637	1778.4
2332.62222	1766.6
2335.46626	1758.2
2338.3085	1762.7
2341.14893	1759.5
2343.98756	1759.5
2346.8244	1749.2
2349.65943	1742.1
2352.49267	1745.4
2355.32411	1748.4
2358.15376	1760.7
2360.98161	1762.5
2363.80768	1758.4
2366.63195	1758
2369.45444	1764.4
2372.27514	1759.2
2375.09405	1756.1
2377.91118	1754.5
2380.72652	1741.7
2383.54009	1732.5
2386.35187	1720.7
2389.16188	1714
2391.97011	1713.5
2394.77657	1702.2
2397.58125	1691.5
2400.38416	1691.7
2403.18529	1695.9
2405.98466	1675
2408.78226	1674.7
2411.57809	1670
2414.37216	1660.6
2417.16446	1656.4
2419.955	1658.6
2422.74378	1666.3
2425.5308	1654.9
2428.31606	1659.2
2431.09956	1656.4
2433.88131	1646.3
2436.6613	1660
2439.43954	1648.3
2442.21603	1647
2444.99077	1648.7
2447.76377	1651.3
2450.53501	1643.8
2453.30451	1642.6
2456.07226	1641.9
2458.83827	1649.3
2461.60254	1637.7
2464.36507	1629.9
2467.12586	1629.2
2469.88492	1624.8
2472.64224	1619.6
2475.39782	1606.9
2478.15167	1598.8
2480.90379	1622.2
2483.65417	1625
2486.40283	1632.1
2489.14976	1640.4
2491.89497	1638.9
2494.63845	1620.3
2497.3802	1601.6
2500.12024	1625.1
2502.85855	1621
2505.59514	1613.3
2508.33002	1597.7
2511.06318	1604.8
2513.79462	1594.7
2516.52435	1587.8
2519.25237	1581.7
2521.97867	1576.6
2524.70327	1560.6
2527.42616	1564.3
2530.14734	1566.9
2532.86681	1561.4
2535.58458	1559
2538.30065	1563.2
2541.01501	1549.2
2543.72768	1551.9
2546.43864	1559
2549.14791	1548.3
2551.85548	1551.6
2554.56136	1547.9
2557.26554	1546.1
2559.96803	1547.4
2562.66883	1537.6
2565.36794	1537.2
2568.06536	1531.4
2570.7611	1525.6
2573.45514	1523.5
2576.14751	1526.6
2578.83819	1517.4
2581.52719	1510.9
2584.21451	1513.5
2586.90015	1498.5
2589.58411	1507.5
2592.2664	1504.5
2594.94701	1495.3
2597.62594	1486.2
2600.30321	1500
2602.9788	1487.3
2605.65273	1495.2
2608.32498	1492.3
2610.99557	1494.6
2613.66449	1492.8
2616.33175	1484.4
2618.99734	1481.6
2621.66128	1480.5
2624.32355	1471.2
2626.98416	1473.9
2629.64311	1474.4
2632.30041	1465.9
2634.95605	1458.6
2637.61004	1454.8
2640.26238	1458.7
2642.91306	1451
2645.56209	1446.3
2648.20948	1439.3
2650.85521	1445.4
2653.4993	1447.2
2656.14175	1447.8
2658.78255	1449.2
2661.42171	1448
2664.05923	1456.7
2666.6951	1467.9
2669.32934	1461.3
2671.96194	1451.3
2674.59291	1462.6
2677.22224	1469.7
2679.84993	1465.1
2682.476	1457.4
2685.10043	1451.4
2687.72324	1447.7
2690.34441	1450.6
2692.96396	1446.1
2695.58188	1445.7
2698.19818	1446.7
2700.81285	1448.6
2703.4259	1415.5
2706.03733	1304.7
2708.64714	1372.4
2711.25533	1415.3
2713.86191	1429.8
2716.46687	1449.4
2719.07021	1460.5
2721.67194	1467
2724.27206	1469
2726.87057	1468.3
2729.46747	1466
2732.06276	1471.7
2734.65644	1465.9
2737.24852	1457.9
2739.83899	1460.5
2742.42786	1464.5
2745.01513	1455.1
2747.60079	1461.5
2750.18486	1458.8
2752.76733	1453
2755.3482	1455.2
2757.92747	1453.2
2760.50515	1447.9
2763.08123	1448
2765.65573	1443.8
2768.22863	1449.8
2770.79994	1445.6
2773.36967	1451.6
2775.9378	1457.9
2778.50435	1448.9
2781.06932	1454.1
2783.6327	1454.4
2786.1945	1463.1
2788.75471	1466.6
2791.31335	1465.2
2793.87041	1462.5
2796.42589	1456.6
2798.97979	1462.6
2801.53212	1465.1
2804.08288	1455.2
2806.63206	1472.8
2809.17967	1470.5
2811.72571	1462.7
2814.27018	1461.8
2816.81308	1471
2819.35442	1476.5
2821.89419	1476
2824.43239	1478
2826.96904	1478.8
2829.50412	1482.5
2832.03763	1476.2
2834.56959	1480.9
2837.1	1486.5
2839.62884	1502.2
2842.15613	1506.2
2844.68186	1537.4
2847.20604	1551.9
2849.72867	1571.2
2852.24974	1573.7
2854.76927	1567.6
2857.28724	1541.7
2859.80367	1560.7
2862.31855	1561.1
2864.83189	1576.1
2867.34368	1578.7
2869.85393	1571.9
2872.36264	1571.6
2874.8698	1572.6
2877.37543	1578
2879.87952	1566.9
2882.38207	1571.2
2884.88308	1571.5
2887.38256	1568.1
2889.88051	1567
2892.37692	1563.2
2894.8718	1558.5
2897.36515	1568.2
2899.85698	1570
2902.34727	1566.6
2904.83604	1566.7
2907.32328	1568.1
2909.809	1567.1
2912.29319	1570.8
2914.77587	1559.2
2917.25702	1557.1
2919.73665	1558.7
2922.21476	1553.4
2924.69136	1549
2927.16644	1543.2
2929.64	1534.9
2932.11205	1525
2934.58258	1507.1
2937.05161	1506.9
2939.51912	1494.7
2941.98513	1473.6
2944.44962	1462
2946.91261	1439.3
2949.37409	1426
2951.83407	1415.3
2954.29254	1398.6
2956.74951	1400.6
2959.20498	1385
2961.65895	1383
2964.11142	1374.6
2966.56239	1365.5
2969.01186	1356.6
2971.45984	1354.2
2973.90632	1341.4
2976.35131	1333.6
2978.7948	1331.6
2981.23681	1318.2
2983.67732	1323.1
2986.11635	1306.9
2988.55388	1295.6
2990.98993	1300.1
2993.4245	1297.5
2995.85758	1290.6
2998.28917	1289.1
3000.71928	1281
3003.14791	1274.6
3005.57506	1277.4
3008.00073	1277.9
3010.42493	1265.3
3012.84764	1270
3015.26888	1275.8
3017.68865	1270.9
3020.10694	1269.4
3022.52376	1269.9
3024.9391	1270
3027.35298	1259.8
3029.76539	1258.9
3032.17632	1254.7
3034.5858	1252.7
3036.9938	1261.7
3039.40034	1260.3
3041.80542	1248.9
3044.20903	1253.1
3046.61118	1247.7
3049.01187	1252.5
3051.4111	1250.6
3053.80888	1252.4
3056.20519	1253.8
3058.60005	1258.9
3060.99345	1257
3063.3854	1246.8
3065.7759	1254.8
3068.16494	1255.6
3070.55254	1252.3
3072.93868	1247.1
3075.32338	1251.4
3077.70662	1235.9
3080.08842	1240.8
3082.46878	1246.7
3084.84769	1237.6
3087.22515	1243.9
3089.60118	1242.5
3091.97576	1236
3094.3489	1251.1
3096.72061	1250.8
3099.09087	1249
3101.4597	1256
3103.82709	1257.3
3106.19305	1257
3108.55757	1259.8
3110.92066	1257.3
3113.28232	1259.4
3115.64255	1260.2
3118.00134	1257
3120.35871	1272.6
3122.71466	1265.4
3125.06917	1264.8
3127.42226	1256.8
3129.77393	1273.8
3132.12417	1274.3
3134.47299	1275.9
3136.82039	1286.1
3139.16636	1294.4
3141.51092	1293.9
3143.85406	1287.5
3146.19579	1298.6
3148.53609	1308
3150.87499	1304.5
3153.21246	1314.9
3155.54853	1315.7
3157.88318	1316.4
3160.21642	1328.6
3162.54826	1328.5
3164.87868	1344.8
3167.2077	1341.9
3169.5353	1341.3
3171.86151	1352
3174.18631	1353.7
3176.5097	1347.9
3178.83169	1358.9
3181.15228	1354.2
3183.47147	1356.2
3185.78926	1368.1
3188.10565	1366.7
3190.42065	1368.6
3192.73424	1371.3
3195.04645	1376.1
3197.35725	1376.1
3199.66667	1386.6
3201.97469	1393.8
3204.28132	1393.5
3206.58656	1387.8
3208.8904	1407.3
3211.19287	1400.9
3213.49394	1403.6
3215.79363	1402.9
3218.09193	1415.5
3220.38884	1400
3222.68438	1379.1
3224.97853	1401.9
3227.2713	1405
3229.56269	1409.5
3231.8527	1426.7
3234.14133	1412.7
3236.42858	1423.4
3238.71446	1417.6
3240.99896	1419.2
3243.28209	1418.2
3245.56384	1425.1
3247.84423	1424.2
3250.12324	1419.7
3252.40088	1417.6
3254.67715	1419.3
3256.95205	1428.1
3259.22558	1418.2
3261.49775	1422.8
3263.76855	1430.8
3266.03799	1416
3268.30606	1418.6
3270.57277	1418
3272.83812	1410.7
3275.10211	1421
3277.36474	1418.5
3279.62601	1411.6
3281.88593	1415.3
3284.14448	1403.9
3286.40168	1413.2
3288.65753	1411.9
3290.91202	1415.3
3293.16516	1405.7
3295.41695	1404.1
3297.66738	1400.2
3299.91647	1382.3
3302.16421	1378.1
3304.4106	1375.6
3306.65564	1367.1
3308.89933	1348.3
3311.14169	1330.2
3313.38269	1308.6
3315.62236	1316.1
3317.86068	1300.9
3320.09766	1291
3322.3333	1284.8
3324.5676	1283.1
3326.80056	1228
3329.03219	1228.8
3331.26248	0.2
3333.49143	-1.5
3335.71905	0.3
