Data from AgNPs_FTO_APTES_UA_50uM_CRN_0uM_R6G_10uM_NaF_0.1M_Addition_RamanShift__51__11-09-44-694.txt Node

Date: Mon Feb 21 11:09:44 GMT 2022
User: TCL
Spectrometer: QEP01345
Trigger mode: 4
Integration Time (sec): 7.000000E0
Scans to average: 10
Electric dark correction enabled: true
Nonlinearity correction enabled: false
Boxcar width: 0
XAxis mode: Raman Shifts
Number of Pixels in Spectrum: 1044
>>>>>Begin Spectral Data<<<<<
46.04893	1.025
50.45542	-1.175
54.85868	0.325
59.25871	-0.475
63.6555	37.025
68.04907	44.225
72.43941	42.125
76.82654	49.725
81.21044	53.925
85.59113	53.125
89.96862	57.825
94.34289	57.225
98.71396	57.825
103.08183	63.425
107.4465	62.225
111.80798	59.625
116.16626	57.725
120.52136	61.625
124.87327	67.225
129.222	62.925
133.56755	65.525
137.90993	71.725
142.24913	68.625
146.58517	76.425
150.91804	87.625
155.24774	100.725
159.57429	117.825
163.89768	145.125
168.21792	189.025
172.53501	249.525
176.84895	341.925
181.15975	470.825
185.46741	643.225
189.77193	886.625
194.07331	1172.925
198.37157	1526.025
202.6667	1877.025
206.9587	2240.525
211.24758	2590.925
215.53334	2968.625
219.81599	3386.725
224.09553	3878.725
228.37195	4418.525
232.64527	5028.225
236.91549	5602.225
241.18261	6156.925
245.44663	6578.725
249.70755	6939.125
253.96539	7191.525
258.22014	7406.825
262.4718	7548.025
266.72039	7657.525
270.96589	7713.925
275.20832	7648.625
279.44768	7530.425
283.68397	7378.525
287.91719	7277.025
292.14735	7313.125
296.37445	7493.925
300.59849	7869.625
304.81948	8305.525
309.03742	8666.325
313.25231	8701.225
317.46415	8256.725
321.67296	7527.925
325.87872	6883.525
330.08145	6576.225
334.28114	6545.725
338.47781	6668.725
342.67145	6904.325
346.86207	7263.125
351.04966	7824.225
355.23424	8463.825
359.4158	8943.625
363.59435	9172.325
367.76989	9232.125
371.94243	9184.025
376.11196	9092.825
380.27849	8990.525
384.44203	8850.925
388.60257	8682.725
392.76012	8558.625
396.91468	8607.825
401.06626	8841.825
405.21485	9048.625
409.36047	8862.625
413.50311	8263.525
417.64277	7713.325
421.77947	7354.825
425.9132	7209.925
430.04396	7141.325
434.17176	7172.925
438.2966	7324.825
442.41849	7567.025
446.53742	7883.925
450.6534	8156.225
454.76644	8332.525
458.87653	8335.825
462.98368	8191.225
467.08789	8002.425
471.18916	7754.525
475.2875	7517.825
479.38291	7296.425
483.4754	7159.225
487.56496	7042.525
491.6516	6950.025
495.73531	6932.425
499.81612	6942.125
503.89401	7055.125
507.96899	7198.525
512.04106	7353.625
516.11023	7532.125
520.1765	7674.125
524.23987	7684.725
528.30034	7495.725
532.35792	7281.025
536.41261	7058.325
540.46441	6828.625
544.51333	6692.925
548.55936	6726.825
552.60252	6875.925
556.64279	7097.625
560.6802	7227.225
564.71473	7363.525
568.7464	7801.925
572.7752	8099.825
576.80114	7828.225
580.82422	7436.425
584.84444	7299.525
588.86181	7327.925
592.87633	7407.125
596.888	7548.925
600.89682	7806.325
604.9028	8867.425
608.90594	11910.025
612.90624	16152.425
616.90371	15732.925
620.89834	10433.725
624.89015	7799.525
628.87913	7300.325
632.86528	7329.825
636.84862	7496.125
640.82913	7354.025
644.80683	6910.525
648.78172	6585.325
652.75379	6611.325
656.72306	6972.225
660.68952	7437.625
664.65319	7369.125
668.61405	6835.325
672.57211	6561.925
676.52738	6533.325
680.47986	6518.525
684.42955	6426.925
688.37646	6391.525
692.32058	6434.425
696.26192	6513.925
700.20048	6612.125
704.13626	6705.325
708.06928	6677.925
711.99952	6591.725
715.927	6557.725
719.85171	6605.525
723.77365	6606.025
727.69284	6530.125
731.60928	6457.725
735.52295	6460.225
739.43388	6528.425
743.34206	6553.225
747.24749	6603.925
751.15017	6658.125
755.05012	6830.225
758.94733	7230.825
762.8418	8217.625
766.73354	9959.125
770.62254	11773.625
774.50882	12848.525
778.39237	12465.125
782.27321	10573.525
786.15132	8573.125
790.02671	7393.325
793.89938	6905.325
797.76935	6704.225
801.6366	6624.425
805.50115	6578.725
809.36299	6574.125
813.22213	6520.025
817.07857	6491.125
820.93231	6462.225
824.78336	6485.025
828.63172	6514.125
832.47738	6545.525
836.32036	6505.625
840.16066	6461.825
843.99827	6415.725
847.8332	6386.925
851.66546	6392.425
855.49504	6379.925
859.32195	6357.825
863.1462	6324.525
866.96777	6296.125
870.78668	6267.525
874.60293	6309.425
878.41652	6347.825
882.22745	6419.925
886.03573	6470.825
889.84136	6467.625
893.64433	6403.225
897.44466	6390.425
901.24235	6365.525
905.0374	6317.225
908.8298	6266.625
912.61957	6209.625
916.40671	6233.425
920.19121	6286.825
923.97308	6362.825
927.75233	6486.825
931.52895	6584.225
935.30295	6500.025
939.07433	6266.825
942.84309	6065.725
946.60924	5939.325
950.37278	5875.025
954.13371	5830.025
957.89203	5793.825
961.64774	5766.225
965.40086	5769.825
969.15137	5752.525
972.89929	5734.825
976.64461	5723.725
980.38733	5727.625
984.12747	5746.125
987.86502	5767.925
991.59999	5815.225
995.33237	5926.525
999.06217	6107.725
1002.78939	6304.025
1006.51404	6497.925
1010.23611	6673.825
1013.95561	6790.225
1017.67255	6758.725
1021.38692	6635.525
1025.09872	6492.525
1028.80796	6424.125
1032.51465	6465.825
1036.21877	6570.525
1039.92035	6663.325
1043.61937	6681.625
1047.31584	6638.525
1051.00976	6558.125
1054.70114	6487.125
1058.38998	6448.125
1062.07627	6445.925
1065.76003	6477.425
1069.44126	6530.225
1073.11995	6635.325
1076.79611	6782.025
1080.46974	6923.025
1084.14085	7194.425
1087.80943	7414.125
1091.47549	7531.225
1095.13903	7354.325
1098.80005	7013.725
1102.45857	6730.425
1106.11456	6622.125
1109.76805	6732.925
1113.41903	6919.925
1117.06751	7282.825
1120.71348	7714.425
1124.35696	8204.625
1127.99793	8624.825
1131.63641	8529.525
1135.2724	8001.925
1138.90589	7490.525
1142.5369	7186.025
1146.16542	6977.225
1149.79145	6844.725
1153.415	6804.425
1157.03607	6870.925
1160.65467	7036.525
1164.27079	7335.325
1167.88443	7829.725
1171.49561	8618.925
1175.10432	9977.325
1178.71056	11803.525
1182.31434	13212.225
1185.91565	13527.725
1189.51451	13090.725
1193.11091	12155.325
1196.70485	11043.525
1200.29634	10219.325
1203.88538	9561.425
1207.47197	8797.825
1211.05612	8166.625
1214.63782	7813.825
1218.21708	7685.625
1221.79391	7678.825
1225.36829	7729.225
1228.94024	7729.825
1232.50976	7710.625
1236.07685	7708.025
1239.6415	7718.225
1243.20374	7728.125
1246.76355	7755.325
1250.32093	7845.425
1253.8759	8019.925
1257.42845	8316.425
1260.97859	8651.725
1264.52631	9009.925
1268.07163	9336.025
1271.61453	9634.625
1275.15503	9847.325
1278.69312	9980.725
1282.22882	10131.625
1285.76211	10401.925
1289.29301	10826.525
1292.82151	11307.625
1296.34761	11779.925
1299.87133	12549.825
1303.39266	13761.325
1306.9116	15649.025
1310.42815	17641.625
1313.94233	18703.825
1317.45412	18074.425
1320.96354	16500.725
1324.47058	14817.225
1327.97525	13423.225
1331.47754	12643.925
1334.97747	12399.925
1338.47502	12512.725
1341.97022	12913.425
1345.46305	13560.625
1348.95352	14553.025
1352.44163	15968.725
1355.92738	18045.025
1359.41078	20984.125
1362.89183	23436.925
1366.37053	22516.925
1369.84688	18950.325
1373.32088	15383.125
1376.79254	13000.525
1380.26186	11640.725
1383.72883	10875.025
1387.19347	10322.225
1390.65578	9761.325
1394.11575	9412.825
1397.57339	9278.225
1401.0287	9318.425
1404.48168	9467.725
1407.93234	9612.725
1411.38068	9770.425
1414.82669	9783.125
1418.27039	9602.925
1421.71177	9346.825
1425.15083	9104.625
1428.58758	8993.725
1432.02203	9069.125
1435.45416	9186.325
1438.88399	9245.725
1442.31151	9267.725
1445.73673	9270.325
1449.15965	9309.125
1452.58027	9329.225
1455.9986	9201.825
1459.41463	9173.725
1462.82837	9305.925
1466.23982	9508.125
1469.64898	9765.825
1473.05586	9912.025
1476.46045	10056.225
1479.86276	10233.325
1483.26279	10500.325
1486.66054	10875.225
1490.05602	11386.725
1493.44922	12094.725
1496.84016	13143.925
1500.22882	14810.225
1503.61521	17054.725
1506.99934	19478.925
1510.38121	21365.225
1513.76081	21781.125
1517.13816	20177.325
1520.51324	17246.625
1523.88607	14469.225
1527.25665	12671.225
1530.62498	11711.825
1533.99105	11159.225
1537.35488	10812.925
1540.71647	10655.225
1544.07581	10583.125
1547.4329	10562.925
1550.78776	10481.925
1554.14038	10420.025
1557.49077	10378.525
1560.83892	10527.325
1564.18484	10845.025
1567.52853	11296.325
1570.86999	11740.525
1574.20922	12016.125
1577.54624	11940.025
1580.88103	11234.825
1584.2136	10239.925
1587.54395	9753.625
1590.87208	9925.525
1594.19801	10627.525
1597.52172	11620.125
1600.84321	12117.525
1604.16251	11746.225
1607.47959	10866.225
1610.79447	9791.225
1614.10715	8806.725
1617.41763	8063.925
1620.7259	7637.825
1624.03199	7425.625
1627.33587	7444.025
1630.63757	7678.925
1633.93707	8131.125
1637.23439	8866.125
1640.52951	9948.425
1643.82246	11473.025
1647.11321	13198.025
1650.40179	14375.825
1653.68819	13854.025
1656.97241	11749.725
1660.25446	9482.225
1663.53433	7887.325
1666.81203	6945.225
1670.08756	6444.025
1673.36092	6151.525
1676.63211	5990.125
1679.90115	5846.525
1683.16801	5737.825
1686.43272	5667.525
1689.69527	5572.525
1692.95567	5487.025
1696.2139	5355.125
1699.46999	5257.025
1702.72392	5223.225
1705.97571	5303.725
1709.22535	5396.125
1712.47284	5469.625
1715.71819	5484.825
1718.96139	5500.525
1722.20246	5483.225
1725.44139	5448.625
1728.67818	5392.325
1731.91284	5361.025
1735.14537	5294.125
1738.37576	5258.425
1741.60403	5209.325
1744.83017	5184.125
1748.05418	5148.625
1751.27607	5115.625
1754.49584	5069.925
1757.71349	5007.125
1760.92903	4943.525
1764.14244	4928.925
1767.35375	4932.525
1770.56294	4911.725
1773.77002	4936.225
1776.97499	4950.325
1780.17785	4996.225
1783.37861	5008.625
1786.57727	5020.725
1789.77382	5029.925
1792.96828	5029.525
1796.16064	5012.125
1799.3509	5020.625
1802.53907	5003.125
1805.72514	4992.925
1808.90913	4964.925
1812.09102	4954.825
1815.27083	4957.225
1818.44856	4932.725
1821.6242	4930.325
1824.79776	4918.325
1827.96924	4892.625
1831.13864	4899.425
1834.30597	4897.625
1837.47122	4907.625
1840.6344	4867.825
1843.7955	4869.525
1846.95454	4868.225
1850.11151	4865.825
1853.26642	4851.725
1856.41926	4863.025
1859.57004	4856.525
1862.71876	4852.425
1865.86542	4868.825
1869.01003	4855.025
1872.15258	4864.725
1875.29308	4872.925
1878.43152	4856.125
1881.56792	4878.225
1884.70227	4855.225
1887.83457	4853.725
1890.96482	4866.125
1894.09304	4868.625
1897.21921	4858.925
1900.34335	4881.025
1903.46544	4877.925
1906.58551	4871.025
1909.70353	4872.725
1912.81953	4873.325
1915.93349	4869.225
1919.04543	4865.125
1922.15534	4851.725
1925.26322	4839.225
1928.36908	4825.225
1931.47292	4808.025
1934.57473	4794.425
1937.67453	4758.825
1940.77232	4718.725
1943.86808	4721.725
1946.96184	4700.525
1950.05358	4667.525
1953.14331	4661.725
1956.23103	4635.825
1959.31675	4614.325
1962.40046	4613.225
1965.48217	4589.525
1968.56188	4581.425
1971.63959	4580.225
1974.7153	4566.825
1977.78901	4566.125
1980.86073	4536.425
1983.93046	4515.025
1986.99819	4480.225
1990.06394	4477.225
1993.1277	4457.725
1996.18947	4457.925
1999.24925	4439.925
2002.30706	4421.225
2005.36288	4403.125
2008.41672	4385.325
2011.46859	4364.225
2014.51848	4366.825
2017.56639	4357.025
2020.61233	4329.125
2023.6563	4329.225
2026.6983	4312.825
2029.73833	4306.725
2032.7764	4292.325
2035.8125	4288.525
2038.84664	4254.625
2041.87881	4264.225
2044.90903	4239.025
2047.93729	4251.925
2050.96359	4239.625
2053.98794	4232.425
2057.01034	4233.225
2060.03078	4219.725
2063.04927	4205.625
2066.06582	4210.325
2069.08042	4195.925
2072.09307	4201.925
2075.10378	4180.125
2078.11255	4182.025
2081.11938	4186.025
2084.12426	4185.125
2087.12722	4197.525
2090.12824	4189.225
2093.12732	4184.925
2096.12447	4182.825
2099.11969	4172.325
2102.11299	4170.825
2105.10435	4185.825
2108.09379	4169.625
2111.08131	4173.325
2114.0669	4171.925
2117.05057	4181.025
2120.03233	4199.125
2123.01216	4191.225
2125.99008	4200.825
2128.96609	4200.325
2131.94018	4202.025
2134.91236	4191.725
2137.88263	4189.025
2140.851	4198.825
2143.81746	4192.425
2146.78201	4197.025
2149.74466	4196.625
2152.7054	4194.425
2155.66425	4187.625
2158.6212	4193.225
2161.57625	4169.125
2164.52941	4163.625
2167.48067	4174.225
2170.43004	4161.025
2173.37752	4176.125
2176.32311	4153.925
2179.26681	4174.225
2182.20863	4158.025
2185.14856	4157.425
2188.08661	4157.125
2191.02278	4159.425
2193.95707	4152.325
2196.88948	4150.425
2199.82001	4143.025
2202.74867	4135.225
2205.67545	4125.725
2208.60037	4124.625
2211.52341	4120.225
2214.44458	4125.625
2217.36388	4102.025
2220.28132	4089.425
2223.1969	4093.725
2226.11061	4082.125
2229.02246	4076.125
2231.93245	4045.425
2234.84058	4052.625
2237.74686	4053.325
2240.65128	4035.125
2243.55385	4035.825
2246.45456	4024.125
2249.35343	4024.725
2252.25044	4030.625
2255.14561	4031.625
2258.03893	4020.325
2260.93041	3987.825
2263.82004	3998.525
2266.70783	4001.725
2269.59378	3984.425
2272.4779	3990.825
2275.36017	3969.325
2278.24061	3964.125
2281.11922	3962.525
2283.996	3950.925
2286.87094	3940.825
2289.74405	3929.425
2292.61534	3927.325
2295.4848	3913.725
2298.35243	3898.825
2301.21824	3892.725
2304.08223	3904.925
2306.94439	3897.725
2309.80474	3892.725
2312.66327	3890.025
2315.51999	3895.525
2318.37489	3892.025
2321.22797	3889.325
2324.07925	3883.025
2326.92871	3870.325
2329.77637	3883.825
2332.62222	3864.125
2335.46626	3861.025
2338.3085	3862.625
2341.14893	3843.625
2343.98756	3851.425
2346.8244	3871.825
2349.65943	3873.125
2352.49267	3867.825
2355.32411	3878.125
2358.15376	3889.125
2360.98161	3890.525
2363.80768	3899.025
2366.63195	3901.925
2369.45444	3893.325
2372.27514	3892.825
2375.09405	3880.425
2377.91118	3889.125
2380.72652	3853.025
2383.54009	3835.525
2386.35187	3840.025
2389.16188	3810.725
2391.97011	3801.025
2394.77657	3782.325
2397.58125	3763.825
2400.38416	3761.825
2403.18529	3758.125
2405.98466	3736.925
2408.78226	3717.625
2411.57809	3711.425
2414.37216	3708.325
2417.16446	3713.325
2419.955	3714.825
2422.74378	3709.625
2425.5308	3693.725
2428.31606	3709.225
2431.09956	3690.625
2433.88131	3711.125
2436.6613	3697.725
2439.43954	3715.925
2442.21603	3702.325
2444.99077	3696.025
2447.76377	3715.425
2450.53501	3709.225
2453.30451	3697.525
2456.07226	3700.125
2458.83827	3706.625
2461.60254	3690.125
2464.36507	3691.025
2467.12586	3683.625
2469.88492	3683.125
2472.64224	3693.425
2475.39782	3689.425
2478.15167	3673.225
2480.90379	3691.525
2483.65417	3724.825
2486.40283	3730.725
2489.14976	3740.725
2491.89497	3759.625
2494.63845	3733.825
2497.3802	3734.025
2500.12024	3762.025
2502.85855	3722.825
2505.59514	3709.025
2508.33002	3697.125
2511.06318	3683.725
2513.79462	3667.925
2516.52435	3654.325
2519.25237	3641.425
2521.97867	3623.525
2524.70327	3613.525
2527.42616	3596.825
2530.14734	3603.325
2532.86681	3603.725
2535.58458	3602.825
2538.30065	3616.625
2541.01501	3610.325
2543.72768	3611.125
2546.43864	3597.925
2549.14791	3608.825
2551.85548	3594.225
2554.56136	3600.625
2557.26554	3590.225
2559.96803	3567.525
2562.66883	3566.825
2565.36794	3577.525
2568.06536	3575.525
2570.7611	3566.425
2573.45514	3554.025
2576.14751	3546.325
2578.83819	3552.225
2581.52719	3543.825
2584.21451	3531.825
2586.90015	3543.425
2589.58411	3526.025
2592.2664	3528.425
2594.94701	3538.225
2597.62594	3521.725
2600.30321	3504.625
2602.9788	3536.725
2605.65273	3527.225
2608.32498	3524.725
2610.99557	3528.825
2613.66449	3516.325
2616.33175	3521.825
2618.99734	3511.325
2621.66128	3523.825
2624.32355	3502.825
2626.98416	3509.325
2629.64311	3509.225
2632.30041	3505.525
2634.95605	3494.025
2637.61004	3480.125
2640.26238	3473.825
2642.91306	3465.825
2645.56209	3454.725
2648.20948	3436.925
2650.85521	3443.725
2653.4993	3435.525
2656.14175	3458.325
2658.78255	3469.225
2661.42171	3468.525
2664.05923	3475.225
2666.6951	3489.525
2669.32934	3492.325
2671.96194	3490.925
2674.59291	3498.225
2677.22224	3508.325
2679.84993	3510.925
2682.476	3499.325
2685.10043	3504.125
2687.72324	3502.825
2690.34441	3497.325
2692.96396	3495.625
2695.58188	3498.525
2698.19818	3491.325
2700.81285	3481.625
2703.4259	3460.025
2706.03733	3383.925
2708.64714	3424.225
2711.25533	3467.825
2713.86191	3485.225
2716.46687	3506.525
2719.07021	3513.825
2721.67194	3524.025
2724.27206	3532.425
2726.87057	3520.625
2729.46747	3526.125
2732.06276	3514.625
2734.65644	3505.525
2737.24852	3527.425
2739.83899	3504.525
2742.42786	3503.225
2745.01513	3504.125
2747.60079	3492.225
2750.18486	3480.925
2752.76733	3476.025
2755.3482	3473.925
2757.92747	3474.525
2760.50515	3462.125
2763.08123	3452.325
2765.65573	3451.425
2768.22863	3455.125
2770.79994	3465.725
2773.36967	3460.325
2775.9378	3453.225
2778.50435	3453.025
2781.06932	3472.525
2783.6327	3481.225
2786.1945	3458.825
2788.75471	3470.825
2791.31335	3460.925
2793.87041	3472.925
2796.42589	3465.725
2798.97979	3474.325
2801.53212	3465.725
2804.08288	3472.825
2806.63206	3469.825
2809.17967	3474.225
2811.72571	3477.825
2814.27018	3471.025
2816.81308	3482.625
2819.35442	3485.125
2821.89419	3489.825
2824.43239	3493.425
2826.96904	3495.225
2829.50412	3501.125
2832.03763	3503.625
2834.56959	3501.625
2837.1	3512.725
2839.62884	3509.325
2842.15613	3518.925
2844.68186	3551.925
2847.20604	3556.325
2849.72867	3573.525
2852.24974	3584.525
2854.76927	3566.525
2857.28724	3533.725
2859.80367	3557.425
2862.31855	3559.025
2864.83189	3562.325
2867.34368	3566.625
2869.85393	3566.625
2872.36264	3565.625
2874.8698	3580.425
2877.37543	3554.625
2879.87952	3560.425
2882.38207	3546.725
2884.88308	3538.025
2887.38256	3537.325
2889.88051	3529.625
2892.37692	3537.925
2894.8718	3525.425
2897.36515	3541.325
2899.85698	3535.725
2902.34727	3546.725
2904.83604	3542.825
2907.32328	3540.925
2909.809	3532.125
2912.29319	3542.625
2914.77587	3541.925
2917.25702	3513.825
2919.73665	3521.525
2922.21476	3515.625
2924.69136	3514.025
2927.16644	3512.225
2929.64	3496.225
2932.11205	3487.125
2934.58258	3478.025
2937.05161	3475.325
2939.51912	3464.925
2941.98513	3447.725
2944.44962	3408.825
2946.91261	3403.125
2949.37409	3413.925
2951.83407	3388.825
2954.29254	3376.125
2956.74951	3369.025
2959.20498	3358.825
2961.65895	3349.725
2964.11142	3339.325
2966.56239	3347.025
2969.01186	3318.925
2971.45984	3314.725
2973.90632	3311.925
2976.35131	3311.425
2978.7948	3280.925
2981.23681	3272.725
2983.67732	3283.125
2986.11635	3276.725
2988.55388	3250.125
2990.98993	3252.625
2993.4245	3242.825
2995.85758	3238.725
2998.28917	3211.125
3000.71928	3218.525
3003.14791	3204.725
3005.57506	3208.225
3008.00073	3199.825
3010.42493	3185.125
3012.84764	3177.125
3015.26888	3182.125
3017.68865	3174.725
3020.10694	3161.625
3022.52376	3153.125
3024.9391	3138.825
3027.35298	3156.825
3029.76539	3141.925
3032.17632	3156.525
3034.5858	3134.125
3036.9938	3128.925
3039.40034	3137.325
3041.80542	3110.225
3044.20903	3107.625
3046.61118	3125.925
3049.01187	3105.425
3051.4111	3112.725
3053.80888	3111.425
3056.20519	3102.225
3058.60005	3087.125
3060.99345	3084.725
3063.3854	3074.725
3065.7759	3076.025
3068.16494	3067.825
3070.55254	3063.625
3072.93868	3040.225
3075.32338	3032.825
3077.70662	3024.725
3080.08842	3021.225
3082.46878	3008.225
3084.84769	3016.425
3087.22515	3005.025
3089.60118	2992.925
3091.97576	2997.425
3094.3489	3004.225
3096.72061	2988.425
3099.09087	2994.925
3101.4597	3002.325
3103.82709	2991.725
3106.19305	3001.325
3108.55757	2975.925
3110.92066	2979.125
3113.28232	2989.425
3115.64255	2984.425
3118.00134	2974.925
3120.35871	2972.125
3122.71466	2963.825
3125.06917	2974.225
3127.42226	2962.825
3129.77393	2962.325
3132.12417	2970.925
3134.47299	2958.625
3136.82039	2980.925
3139.16636	2978.725
3141.51092	2974.225
3143.85406	2991.125
3146.19579	2989.425
3148.53609	3001.725
3150.87499	2985.125
3153.21246	3000.125
3155.54853	3020.825
3157.88318	3005.825
3160.21642	3012.125
3162.54826	3015.125
3164.87868	3014.525
3167.2077	3019.425
3169.5353	3020.025
3171.86151	3025.825
3174.18631	3019.825
3176.5097	3009.925
3178.83169	3017.925
3181.15228	3015.725
3183.47147	3021.025
3185.78926	3021.025
3188.10565	3012.125
3190.42065	3023.525
3192.73424	3022.125
3195.04645	3019.225
3197.35725	3027.225
3199.66667	3032.625
3201.97469	3036.725
3204.28132	3042.325
3206.58656	3047.525
3208.8904	3038.825
3211.19287	3041.025
3213.49394	3051.725
3215.79363	3059.725
3218.09193	3053.825
3220.38884	3052.825
3222.68438	3033.925
3224.97853	3052.425
3227.2713	3048.325
3229.56269	3059.925
3231.8527	3071.225
3234.14133	3052.425
3236.42858	3056.425
3238.71446	3040.125
3240.99896	3048.825
3243.28209	3038.525
3245.56384	3034.325
3247.84423	3032.025
3250.12324	3037.025
3252.40088	3026.225
3254.67715	3032.925
3256.95205	3028.825
3259.22558	3020.925
3261.49775	3025.125
3263.76855	3021.925
3266.03799	3024.325
3268.30606	3023.825
3270.57277	3016.825
3272.83812	2992.225
3275.10211	2992.925
3277.36474	2996.825
3279.62601	2995.825
3281.88593	2979.825
3284.14448	2991.825
3286.40168	2996.025
3288.65753	2992.125
3290.91202	2998.925
3293.16516	2982.025
3295.41695	2983.325
3297.66738	2966.325
3299.91647	2939.625
3302.16421	2926.425
3304.4106	2923.325
3306.65564	2905.625
3308.89933	2874.025
3311.14169	2859.625
3313.38269	2814.525
3315.62236	2803.825
3317.86068	2775.425
3320.09766	2761.625
3322.3333	2748.925
3324.5676	2735.225
3326.80056	2663.125
3329.03219	2651.425
3331.26248	0.825
3333.49143	-0.875
3335.71905	0.525
