Data from AgNPs_FTO_APTES_UA_50uM_CRN_10uM_R6G_10uM_NaF_0.1M_Addition_RamanShift__32__13-50-44-904.txt Node

Date: Mon Feb 21 13:50:44 GMT 2022
User: TCL
Spectrometer: QEP01345
Trigger mode: 4
Integration Time (sec): 7.000000E0
Scans to average: 10
Electric dark correction enabled: true
Nonlinearity correction enabled: false
Boxcar width: 0
XAxis mode: Raman Shifts
Number of Pixels in Spectrum: 1044
>>>>>Begin Spectral Data<<<<<
46.04893	0.9375
50.45542	-0.6625
54.85868	-0.1625
59.25871	-2.2625
63.6555	51.0375
68.04907	58.2375
72.43941	58.3375
76.82654	60.4375
81.21044	65.4375
85.59113	66.2375
89.96862	70.5375
94.34289	71.0375
98.71396	70.6375
103.08183	77.5375
107.4465	82.2375
111.80798	78.4375
116.16626	80.4375
120.52136	80.9375
124.87327	89.0375
129.222	83.3375
133.56755	93.9375
137.90993	100.5375
142.24913	104.9375
146.58517	121.0375
150.91804	136.1375
155.24774	159.4375
159.57429	193.0375
163.89768	253.2375
168.21792	335.1375
172.53501	451.2375
176.84895	622.6375
181.15975	866.6375
185.46741	1219.8375
189.77193	1689.7375
194.07331	2269.0375
198.37157	2949.7375
202.6667	3633.6375
206.9587	4349.9375
211.24758	5104.6375
215.53334	5905.3375
219.81599	6866.5375
224.09553	7960.9375
228.37195	9205.7375
232.64527	10543.1375
236.91549	11793.2375
241.18261	12824.2375
245.44663	13611.3375
249.70755	14111.7375
253.96539	14452.3375
258.22014	14673.4375
262.4718	14817.5375
266.72039	14834.2375
270.96589	14779.8375
275.20832	14471.7375
279.44768	13973.5375
283.68397	13537.8375
287.91719	13366.8375
292.14735	13556.0375
296.37445	14353.5375
300.59849	15695.4375
304.81948	17289.1375
309.03742	18521.2375
313.25231	18692.6375
317.46415	17312.1375
321.67296	14952.7375
325.87872	13062.6375
330.08145	12192.8375
334.28114	12160.1375
338.47781	12563.3375
342.67145	13247.6375
346.86207	14329.8375
351.04966	16043.5375
355.23424	17967.7375
359.4158	19279.6375
363.59435	19789.7375
367.76989	19677.6375
371.94243	19338.3375
376.11196	18922.6375
380.27849	18488.7375
384.44203	17918.5375
388.60257	17275.1375
392.76012	16837.5375
396.91468	16865.8375
401.06626	17467.9375
405.21485	17911.1375
409.36047	17113.1375
413.50311	15257.3375
417.64277	13511.7375
421.77947	12454.0375
425.9132	11950.2375
430.04396	11754.8375
434.17176	11798.0375
438.2966	12115.0375
442.41849	12640.2375
446.53742	13263.1375
450.6534	13752.7375
454.76644	13950.2375
458.87653	13810.5375
462.98368	13489.0375
467.08789	13057.4375
471.18916	12493.3375
475.2875	11902.2375
479.38291	11357.3375
483.4754	11027.0375
487.56496	10776.0375
491.6516	10668.2375
495.73531	10643.9375
499.81612	10762.9375
503.89401	11106.3375
507.96899	11539.1375
512.04106	12111.7375
516.11023	12693.9375
520.1765	13106.5375
524.23987	13070.8375
528.30034	12595.0375
532.35792	12105.1375
536.41261	11557.3375
540.46441	10951.3375
544.51333	10617.2375
548.55936	10659.5375
552.60252	11114.2375
556.64279	11664.8375
560.6802	11962.7375
564.71473	12546.0375
568.7464	13853.6375
572.7752	14405.3375
576.80114	13078.7375
580.82422	11695.5375
584.84444	11091.7375
588.86181	10934.6375
592.87633	10990.3375
596.888	11303.6375
600.89682	12264.2375
604.9028	15807.4375
608.90594	25573.8375
612.90624	38627.3375
616.90371	36269.8375
620.89834	20260.1375
624.89015	12916.3375
628.87913	11579.7375
632.86528	11928.1375
636.84862	12515.1375
640.82913	12121.4375
644.80683	10801.0375
648.78172	9956.3375
652.75379	10078.2375
656.72306	11195.8375
660.68952	12529.2375
664.65319	12033.6375
668.61405	10488.5375
672.57211	9768.0375
676.52738	9736.4375
680.47986	9714.9375
684.42955	9470.7375
688.37646	9352.7375
692.32058	9385.5375
696.26192	9583.7375
700.20048	9845.1375
704.13626	10053.0375
708.06928	9955.7375
711.99952	9786.6375
715.927	9745.3375
719.85171	9910.5375
723.77365	10050.2375
727.69284	9858.1375
731.60928	9712.3375
735.52295	9699.7375
739.43388	9761.6375
743.34206	9875.4375
747.24749	9867.6375
751.15017	9945.9375
755.05012	10386.3375
758.94733	11637.2375
762.8418	14922.3375
766.73354	20265.7375
770.62254	25342.8375
774.50882	28312.3375
778.39237	27195.3375
782.27321	21536.2375
786.15132	15571.4375
790.02671	12211.7375
793.89938	10774.2375
797.76935	10197.1375
801.6366	9932.8375
805.50115	9771.9375
809.36299	9683.2375
813.22213	9622.4375
817.07857	9541.7375
820.93231	9549.5375
824.78336	9634.6375
828.63172	9773.0375
832.47738	9829.7375
836.32036	9720.4375
840.16066	9479.2375
843.99827	9369.9375
847.8332	9305.7375
851.66546	9287.6375
855.49504	9293.0375
859.32195	9277.5375
863.1462	9177.5375
866.96777	9113.4375
870.78668	9131.7375
874.60293	9180.8375
878.41652	9320.2375
882.22745	9502.9375
886.03573	9624.0375
889.84136	9573.1375
893.64433	9475.9375
897.44466	9484.8375
901.24235	9523.0375
905.0374	9441.4375
908.8298	9223.8375
912.61957	9096.4375
916.40671	9105.4375
920.19121	9188.0375
923.97308	9389.6375
927.75233	9775.6375
931.52895	10198.8375
935.30295	9964.4375
939.07433	9278.1375
942.84309	8695.5375
946.60924	8399.8375
950.37278	8230.8375
954.13371	8197.4375
957.89203	8150.3375
961.64774	8125.8375
965.40086	8100.2375
969.15137	8048.6375
972.89929	8030.1375
976.64461	8027.6375
980.38733	8043.1375
984.12747	8073.4375
987.86502	8110.0375
991.59999	8214.8375
995.33237	8380.9375
999.06217	8645.4375
1002.78939	9021.4375
1006.51404	9435.3375
1010.23611	9835.8375
1013.95561	10016.6375
1017.67255	9919.9375
1021.38692	9661.5375
1025.09872	9353.6375
1028.80796	9166.1375
1032.51465	9224.8375
1036.21877	9422.6375
1039.92035	9639.6375
1043.61937	9738.2375
1047.31584	9721.6375
1051.00976	9671.3375
1054.70114	9500.6375
1058.38998	9421.9375
1062.07627	9437.5375
1065.76003	9469.3375
1069.44126	9544.9375
1073.11995	9770.2375
1076.79611	10173.4375
1080.46974	10800.6375
1084.14085	11706.2375
1087.80943	12474.3375
1091.47549	12630.1375
1095.13903	12062.7375
1098.80005	11120.4375
1102.45857	10465.5375
1106.11456	10355.9375
1109.76805	10691.2375
1113.41903	11535.5375
1117.06751	12757.3375
1120.71348	14370.8375
1124.35696	16187.6375
1127.99793	17272.9375
1131.63641	16357.2375
1135.2724	14286.7375
1138.90589	12657.7375
1142.5369	11674.9375
1146.16542	11056.7375
1149.79145	10675.6375
1153.415	10633.7375
1157.03607	10777.0375
1160.65467	11235.1375
1164.27079	12012.4375
1167.88443	13313.5375
1171.49561	15420.0375
1175.10432	19108.9375
1178.71056	24003.3375
1182.31434	27522.6375
1185.91565	27922.2375
1189.51451	26135.3375
1193.11091	23160.2375
1196.70485	20186.7375
1200.29634	18280.0375
1203.88538	16749.8375
1207.47197	14740.3375
1211.05612	13056.4375
1214.63782	12020.9375
1218.21708	11615.3375
1221.79391	11491.0375
1225.36829	11502.9375
1228.94024	11513.8375
1232.50976	11562.6375
1236.07685	11633.8375
1239.6415	11744.8375
1243.20374	11891.8375
1246.76355	12026.7375
1250.32093	12231.8375
1253.8759	12654.3375
1257.42845	13380.1375
1260.97859	14279.0375
1264.52631	15252.2375
1268.07163	16174.7375
1271.61453	16847.5375
1275.15503	17195.3375
1278.69312	17225.5375
1282.22882	17489.8375
1285.76211	18300.9375
1289.29301	19451.0375
1292.82151	20537.5375
1296.34761	21742.3375
1299.87133	23955.2375
1303.39266	27815.5375
1306.9116	33945.6375
1310.42815	39996.7375
1313.94233	41812.3375
1317.45412	37994.5375
1320.96354	32178.7375
1324.47058	26815.8375
1327.97525	22895.3375
1331.47754	20767.0375
1334.97747	20160.8375
1338.47502	20706.2375
1341.97022	22350.8375
1345.46305	25171.2375
1348.95352	29029.7375
1352.44163	33859.4375
1355.92738	40952.1375
1359.41078	51213.4375
1362.89183	58535.2375
1366.37053	53357.9375
1369.84688	40984.5375
1373.32088	30723.3375
1376.79254	24570.9375
1380.26186	21210.1375
1383.72883	19126.8375
1387.19347	17440.4375
1390.65578	15863.1375
1394.11575	14737.9375
1397.57339	14191.0375
1401.0287	14083.3375
1404.48168	14184.2375
1407.93234	14358.1375
1411.38068	14655.1375
1414.82669	14945.3375
1418.27039	15007.3375
1421.71177	14757.5375
1425.15083	14492.4375
1428.58758	14482.0375
1432.02203	14824.2375
1435.45416	15015.5375
1438.88399	14991.1375
1442.31151	14882.6375
1445.73673	14969.9375
1449.15965	15074.6375
1452.58027	14919.0375
1455.9986	14614.8375
1459.41463	14526.0375
1462.82837	14831.3375
1466.23982	15480.6375
1469.64898	16088.9375
1473.05586	16407.3375
1476.46045	16624.6375
1479.86276	17144.8375
1483.26279	17969.2375
1486.66054	19068.8375
1490.05602	20646.4375
1493.44922	23021.9375
1496.84016	26823.6375
1500.22882	32845.3375
1503.61521	41075.6375
1506.99934	50068.4375
1510.38121	56784.7375
1513.76081	57199.0375
1517.13816	50056.7375
1520.51324	39399.2375
1523.88607	30381.9375
1527.25665	24843.2375
1530.62498	21836.5375
1533.99105	20088.1375
1537.35488	18962.5375
1540.71647	18436.5375
1544.07581	18330.4375
1547.4329	18499.9375
1550.78776	18696.1375
1554.14038	18916.7375
1557.49077	19239.4375
1560.83892	19932.4375
1564.18484	21244.2375
1567.52853	22950.1375
1570.86999	24305.1375
1574.20922	24947.5375
1577.54624	24349.6375
1580.88103	21702.5375
1584.2136	18487.0375
1587.54395	16630.9375
1590.87208	16575.4375
1594.19801	18019.1375
1597.52172	20059.5375
1600.84321	20855.5375
1604.16251	19772.7375
1607.47959	17977.6375
1610.79447	16026.0375
1614.10715	14208.9375
1617.41763	12856.4375
1620.7259	12106.5375
1624.03199	11836.6375
1627.33587	11984.4375
1630.63757	12570.7375
1633.93707	13758.3375
1637.23439	15657.9375
1640.52951	18782.7375
1643.82246	23595.8375
1647.11321	29503.8375
1650.40179	33286.7375
1653.68819	31397.8375
1656.97241	24971.0375
1660.25446	18484.9375
1663.53433	14222.0375
1666.81203	11897.2375
1670.08756	10568.8375
1673.36092	9834.8375
1676.63211	9382.1375
1679.90115	9034.2375
1683.16801	8792.6375
1686.43272	8605.1375
1689.69527	8496.3375
1692.95567	8346.9375
1696.2139	8201.1375
1699.46999	8091.8375
1702.72392	8059.0375
1705.97571	8113.9375
1709.22535	8227.0375
1712.47284	8270.0375
1715.71819	8298.3375
1718.96139	8330.8375
1722.20246	8266.7375
1725.44139	8174.1375
1728.67818	8042.9375
1731.91284	7882.8375
1735.14537	7793.3375
1738.37576	7696.0375
1741.60403	7652.1375
1744.83017	7607.7375
1748.05418	7536.0375
1751.27607	7486.4375
1754.49584	7415.2375
1757.71349	7342.5375
1760.92903	7291.9375
1764.14244	7253.8375
1767.35375	7218.4375
1770.56294	7168.4375
1773.77002	7126.2375
1776.97499	7129.0375
1780.17785	7111.4375
1783.37861	7127.2375
1786.57727	7104.8375
1789.77382	7084.7375
1792.96828	7085.1375
1796.16064	7075.3375
1799.3509	7063.2375
1802.53907	7041.4375
1805.72514	7016.1375
1808.90913	6981.8375
1812.09102	6937.5375
1815.27083	6900.7375
1818.44856	6852.7375
1821.6242	6856.3375
1824.79776	6846.9375
1827.96924	6830.8375
1831.13864	6809.5375
1834.30597	6803.6375
1837.47122	6794.9375
1840.6344	6749.9375
1843.7955	6735.0375
1846.95454	6743.0375
1850.11151	6739.7375
1853.26642	6724.4375
1856.41926	6743.1375
1859.57004	6740.9375
1862.71876	6735.9375
1865.86542	6760.0375
1869.01003	6758.9375
1872.15258	6773.6375
1875.29308	6769.8375
1878.43152	6773.4375
1881.56792	6789.6375
1884.70227	6790.6375
1887.83457	6778.6375
1890.96482	6791.2375
1894.09304	6780.5375
1897.21921	6788.3375
1900.34335	6809.5375
1903.46544	6815.9375
1906.58551	6819.8375
1909.70353	6806.7375
1912.81953	6802.6375
1915.93349	6819.7375
1919.04543	6798.4375
1922.15534	6774.7375
1925.26322	6739.1375
1928.36908	6697.7375
1931.47292	6686.2375
1934.57473	6624.1375
1937.67453	6571.3375
1940.77232	6513.8375
1943.86808	6505.3375
1946.96184	6486.0375
1950.05358	6434.1375
1953.14331	6406.6375
1956.23103	6383.0375
1959.31675	6376.9375
1962.40046	6376.0375
1965.48217	6358.0375
1968.56188	6367.4375
1971.63959	6350.0375
1974.7153	6334.2375
1977.78901	6323.5375
1980.86073	6293.3375
1983.93046	6223.0375
1986.99819	6200.5375
1990.06394	6160.1375
1993.1277	6132.6375
1996.18947	6101.4375
1999.24925	6072.4375
2002.30706	6051.7375
2005.36288	6029.3375
2008.41672	6017.9375
2011.46859	5983.3375
2014.51848	5979.4375
2017.56639	5943.4375
2020.61233	5937.0375
2023.6563	5925.0375
2026.6983	5887.4375
2029.73833	5887.5375
2032.7764	5861.5375
2035.8125	5856.9375
2038.84664	5843.8375
2041.87881	5834.3375
2044.90903	5821.5375
2047.93729	5809.7375
2050.96359	5799.4375
2053.98794	5798.8375
2057.01034	5781.9375
2060.03078	5758.0375
2063.04927	5760.0375
2066.06582	5756.4375
2069.08042	5725.9375
2072.09307	5748.7375
2075.10378	5715.6375
2078.11255	5711.8375
2081.11938	5706.8375
2084.12426	5715.4375
2087.12722	5722.2375
2090.12824	5703.2375
2093.12732	5724.1375
2096.12447	5721.0375
2099.11969	5691.0375
2102.11299	5711.7375
2105.10435	5709.1375
2108.09379	5703.2375
2111.08131	5728.6375
2114.0669	5720.0375
2117.05057	5746.9375
2120.03233	5766.7375
2123.01216	5775.0375
2125.99008	5771.3375
2128.96609	5780.0375
2131.94018	5766.4375
2134.91236	5774.3375
2137.88263	5760.5375
2140.851	5741.0375
2143.81746	5734.1375
2146.78201	5723.4375
2149.74466	5719.4375
2152.7054	5701.7375
2155.66425	5698.7375
2158.6212	5696.4375
2161.57625	5675.6375
2164.52941	5682.8375
2167.48067	5676.5375
2170.43004	5678.5375
2173.37752	5676.2375
2176.32311	5668.2375
2179.26681	5695.0375
2182.20863	5687.1375
2185.14856	5675.6375
2188.08661	5678.4375
2191.02278	5672.0375
2193.95707	5656.5375
2196.88948	5647.4375
2199.82001	5615.8375
2202.74867	5641.6375
2205.67545	5638.5375
2208.60037	5640.5375
2211.52341	5606.8375
2214.44458	5609.3375
2217.36388	5606.8375
2220.28132	5588.3375
2223.1969	5556.7375
2226.11061	5539.7375
2229.02246	5523.0375
2231.93245	5506.4375
2234.84058	5516.2375
2237.74686	5503.0375
2240.65128	5509.4375
2243.55385	5506.3375
2246.45456	5496.4375
2249.35343	5513.5375
2252.25044	5523.2375
2255.14561	5526.1375
2258.03893	5536.3375
2260.93041	5540.2375
2263.82004	5549.6375
2266.70783	5533.0375
2269.59378	5519.5375
2272.4779	5507.1375
2275.36017	5516.6375
2278.24061	5490.3375
2281.11922	5471.5375
2283.996	5449.5375
2286.87094	5439.6375
2289.74405	5408.5375
2292.61534	5384.7375
2295.4848	5373.7375
2298.35243	5365.2375
2301.21824	5357.0375
2304.08223	5350.3375
2306.94439	5364.4375
2309.80474	5361.5375
2312.66327	5358.6375
2315.51999	5363.0375
2318.37489	5351.2375
2321.22797	5345.7375
2324.07925	5336.5375
2326.92871	5333.8375
2329.77637	5322.3375
2332.62222	5312.8375
2335.46626	5327.7375
2338.3085	5307.8375
2341.14893	5318.9375
2343.98756	5349.3375
2346.8244	5363.2375
2349.65943	5363.1375
2352.49267	5400.1375
2355.32411	5428.7375
2358.15376	5447.0375
2360.98161	5499.6375
2363.80768	5500.2375
2366.63195	5529.3375
2369.45444	5536.3375
2372.27514	5559.3375
2375.09405	5541.9375
2377.91118	5519.0375
2380.72652	5479.9375
2383.54009	5436.9375
2386.35187	5381.8375
2389.16188	5356.0375
2391.97011	5314.5375
2394.77657	5282.2375
2397.58125	5246.3375
2400.38416	5232.8375
2403.18529	5214.0375
2405.98466	5183.9375
2408.78226	5190.6375
2411.57809	5159.1375
2414.37216	5152.3375
2417.16446	5147.2375
2419.955	5140.9375
2422.74378	5150.1375
2425.5308	5164.9375
2428.31606	5166.6375
2431.09956	5171.9375
2433.88131	5170.0375
2436.6613	5204.4375
2439.43954	5204.1375
2442.21603	5205.8375
2444.99077	5207.7375
2447.76377	5237.2375
2450.53501	5239.4375
2453.30451	5254.5375
2456.07226	5258.3375
2458.83827	5248.7375
2461.60254	5240.2375
2464.36507	5231.1375
2467.12586	5233.7375
2469.88492	5245.1375
2472.64224	5255.0375
2475.39782	5260.1375
2478.15167	5268.6375
2480.90379	5317.4375
2483.65417	5360.8375
2486.40283	5404.9375
2489.14976	5456.3375
2491.89497	5460.2375
2494.63845	5467.5375
2497.3802	5434.5375
2500.12024	5432.6375
2502.85855	5410.7375
2505.59514	5375.9375
2508.33002	5315.1375
2511.06318	5274.1375
2513.79462	5208.0375
2516.52435	5155.4375
2519.25237	5127.8375
2521.97867	5088.7375
2524.70327	5086.1375
2527.42616	5070.8375
2530.14734	5076.8375
2532.86681	5067.3375
2535.58458	5074.6375
2538.30065	5082.6375
2541.01501	5084.5375
2543.72768	5084.1375
2546.43864	5077.5375
2549.14791	5079.4375
2551.85548	5118.0375
2554.56136	5105.0375
2557.26554	5106.2375
2559.96803	5103.1375
2562.66883	5094.8375
2565.36794	5097.5375
2568.06536	5101.2375
2570.7611	5068.6375
2573.45514	5065.9375
2576.14751	5070.6375
2578.83819	5051.8375
2581.52719	5041.1375
2584.21451	5014.3375
2586.90015	5009.5375
2589.58411	5001.1375
2592.2664	4997.1375
2594.94701	4985.3375
2597.62594	4989.9375
2600.30321	4992.4375
2602.9788	5001.6375
2605.65273	5010.3375
2608.32498	5010.1375
2610.99557	5019.8375
2613.66449	5007.2375
2616.33175	5035.3375
2618.99734	5030.8375
2621.66128	5035.5375
2624.32355	5026.6375
2626.98416	5001.6375
2629.64311	4977.5375
2632.30041	4962.2375
2634.95605	4946.3375
2637.61004	4947.4375
2640.26238	4934.0375
2642.91306	4917.0375
2645.56209	4908.2375
2648.20948	4893.3375
2650.85521	4892.7375
2653.4993	4902.6375
2656.14175	4920.1375
2658.78255	4922.9375
2661.42171	4950.4375
2664.05923	4944.6375
2666.6951	4963.2375
2669.32934	4999.4375
2671.96194	5001.7375
2674.59291	5017.2375
2677.22224	5016.2375
2679.84993	5009.0375
2682.476	4996.3375
2685.10043	5005.9375
2687.72324	4994.6375
2690.34441	4999.2375
2692.96396	4981.9375
2695.58188	4978.8375
2698.19818	4973.2375
2700.81285	4972.5375
2703.4259	4964.4375
2706.03733	4920.5375
2708.64714	4939.3375
2711.25533	4974.9375
2713.86191	5005.6375
2716.46687	4993.4375
2719.07021	5034.5375
2721.67194	5056.7375
2724.27206	5049.0375
2726.87057	5048.6375
2729.46747	5042.4375
2732.06276	5038.7375
2734.65644	5026.6375
2737.24852	5003.9375
2739.83899	4988.0375
2742.42786	4996.8375
2745.01513	4961.9375
2747.60079	4967.3375
2750.18486	4960.8375
2752.76733	4937.2375
2755.3482	4924.4375
2757.92747	4915.0375
2760.50515	4899.6375
2763.08123	4901.2375
2765.65573	4896.7375
2768.22863	4888.9375
2770.79994	4873.6375
2773.36967	4892.9375
2775.9378	4900.9375
2778.50435	4886.8375
2781.06932	4886.6375
2783.6327	4917.7375
2786.1945	4911.6375
2788.75471	4927.2375
2791.31335	4920.4375
2793.87041	4924.0375
2796.42589	4921.1375
2798.97979	4942.2375
2801.53212	4954.3375
2804.08288	4945.9375
2806.63206	4956.9375
2809.17967	4953.4375
2811.72571	4986.2375
2814.27018	5006.5375
2816.81308	5025.8375
2819.35442	5040.0375
2821.89419	5047.3375
2824.43239	5084.3375
2826.96904	5074.1375
2829.50412	5093.9375
2832.03763	5095.4375
2834.56959	5089.5375
2837.1	5083.0375
2839.62884	5107.4375
2842.15613	5121.4375
2844.68186	5144.4375
2847.20604	5181.6375
2849.72867	5217.1375
2852.24974	5208.8375
2854.76927	5225.0375
2857.28724	5231.8375
2859.80367	5242.5375
2862.31855	5260.5375
2864.83189	5257.8375
2867.34368	5275.6375
2869.85393	5302.5375
2872.36264	5286.1375
2874.8698	5291.1375
2877.37543	5274.8375
2879.87952	5262.2375
2882.38207	5247.9375
2884.88308	5222.3375
2887.38256	5216.9375
2889.88051	5206.5375
2892.37692	5210.1375
2894.8718	5197.1375
2897.36515	5198.1375
2899.85698	5209.3375
2902.34727	5203.8375
2904.83604	5201.6375
2907.32328	5202.1375
2909.809	5204.9375
2912.29319	5198.6375
2914.77587	5197.4375
2917.25702	5202.6375
2919.73665	5170.2375
2922.21476	5178.5375
2924.69136	5162.9375
2927.16644	5146.9375
2929.64	5117.9375
2932.11205	5107.7375
2934.58258	5062.7375
2937.05161	5053.0375
2939.51912	5048.8375
2941.98513	5025.1375
2944.44962	5004.8375
2946.91261	4971.7375
2949.37409	4980.0375
2951.83407	4945.9375
2954.29254	4940.5375
2956.74951	4936.2375
2959.20498	4917.6375
2961.65895	4905.8375
2964.11142	4883.6375
2966.56239	4883.2375
2969.01186	4873.6375
2971.45984	4858.5375
2973.90632	4832.2375
2976.35131	4811.9375
2978.7948	4783.8375
2981.23681	4789.7375
2983.67732	4779.5375
2986.11635	4770.2375
2988.55388	4754.2375
2990.98993	4751.2375
2993.4245	4748.9375
2995.85758	4719.5375
2998.28917	4727.9375
3000.71928	4719.8375
3003.14791	4719.5375
3005.57506	4697.7375
3008.00073	4699.9375
3010.42493	4697.4375
3012.84764	4683.8375
3015.26888	4692.3375
3017.68865	4671.5375
3020.10694	4676.1375
3022.52376	4645.3375
3024.9391	4639.0375
3027.35298	4630.2375
3029.76539	4629.5375
3032.17632	4610.7375
3034.5858	4574.1375
3036.9938	4555.4375
3039.40034	4569.0375
3041.80542	4531.0375
3044.20903	4523.5375
3046.61118	4521.7375
3049.01187	4501.7375
3051.4111	4502.7375
3053.80888	4487.6375
3056.20519	4489.0375
3058.60005	4462.7375
3060.99345	4464.1375
3063.3854	4450.6375
3065.7759	4440.6375
3068.16494	4415.4375
3070.55254	4415.4375
3072.93868	4393.9375
3075.32338	4371.3375
3077.70662	4355.2375
3080.08842	4333.1375
3082.46878	4329.0375
3084.84769	4312.8375
3087.22515	4294.1375
3089.60118	4307.7375
3091.97576	4282.2375
3094.3489	4287.9375
3096.72061	4281.9375
3099.09087	4290.7375
3101.4597	4273.4375
3103.82709	4277.6375
3106.19305	4260.0375
3108.55757	4263.6375
3110.92066	4279.5375
3113.28232	4265.4375
3115.64255	4258.4375
3118.00134	4234.9375
3120.35871	4246.7375
3122.71466	4228.6375
3125.06917	4231.1375
3127.42226	4211.0375
3129.77393	4237.3375
3132.12417	4234.9375
3134.47299	4255.5375
3136.82039	4242.2375
3139.16636	4241.5375
3141.51092	4236.3375
3143.85406	4263.8375
3146.19579	4258.4375
3148.53609	4241.8375
3150.87499	4267.4375
3153.21246	4290.7375
3155.54853	4299.3375
3157.88318	4295.5375
3160.21642	4295.2375
3162.54826	4297.0375
3164.87868	4295.7375
3167.2077	4295.7375
3169.5353	4303.3375
3171.86151	4296.0375
3174.18631	4298.8375
3176.5097	4297.0375
3178.83169	4301.8375
3181.15228	4310.5375
3183.47147	4290.7375
3185.78926	4293.0375
3188.10565	4298.2375
3190.42065	4315.3375
3192.73424	4297.8375
3195.04645	4303.4375
3197.35725	4327.8375
3199.66667	4340.2375
3201.97469	4348.5375
3204.28132	4356.9375
3206.58656	4359.8375
3208.8904	4378.7375
3211.19287	4379.0375
3213.49394	4394.9375
3215.79363	4402.7375
3218.09193	4415.4375
3220.38884	4406.2375
3222.68438	4396.2375
3224.97853	4405.4375
3227.2713	4411.3375
3229.56269	4420.4375
3231.8527	4417.2375
3234.14133	4388.0375
3236.42858	4395.2375
3238.71446	4391.5375
3240.99896	4374.2375
3243.28209	4396.0375
3245.56384	4381.8375
3247.84423	4377.4375
3250.12324	4366.0375
3252.40088	4367.5375
3254.67715	4371.3375
3256.95205	4360.8375
3259.22558	4380.6375
3261.49775	4358.7375
3263.76855	4369.5375
3266.03799	4356.3375
3268.30606	4349.9375
3270.57277	4351.1375
3272.83812	4333.8375
3275.10211	4341.2375
3277.36474	4325.9375
3279.62601	4321.1375
3281.88593	4337.2375
3284.14448	4312.0375
3286.40168	4341.7375
3288.65753	4349.0375
3290.91202	4350.6375
3293.16516	4318.8375
3295.41695	4331.7375
3297.66738	4320.7375
3299.91647	4280.5375
3302.16421	4250.2375
3304.4106	4253.9375
3306.65564	4203.8375
3308.89933	4169.7375
3311.14169	4122.9375
3313.38269	4072.6375
3315.62236	4049.6375
3317.86068	4014.8375
3320.09766	3981.0375
3322.3333	3932.2375
3324.5676	3937.9375
3326.80056	3847.7375
3329.03219	3826.7375
3331.26248	2.2375
3333.49143	-0.8625
3335.71905	0.4375
