Data from AgNPs_FTO_APTES_UA_50uM_CRN_500uM_R6G_10uM_NaF_0.1M_Addition_RamanShift__26__17-12-13-553.txt Node

Date: Mon Feb 21 17:12:13 GMT 2022
User: TCL
Spectrometer: QEP01345
Trigger mode: 4
Integration Time (sec): 7.000000E0
Scans to average: 10
Electric dark correction enabled: true
Nonlinearity correction enabled: false
Boxcar width: 0
XAxis mode: Raman Shifts
Number of Pixels in Spectrum: 1044
>>>>>Begin Spectral Data<<<<<
46.04893	-0.7125
50.45542	-0.8125
54.85868	-0.0125
59.25871	-2.1125
63.6555	59.5875
68.04907	64.9875
72.43941	70.7875
76.82654	71.9875
81.21044	75.0875
85.59113	80.3875
89.96862	83.0875
94.34289	81.6875
98.71396	84.7875
103.08183	90.8875
107.4465	93.3875
111.80798	98.0875
116.16626	94.5875
120.52136	98.1875
124.87327	101.1875
129.222	103.8875
133.56755	112.2875
137.90993	117.6875
142.24913	127.3875
146.58517	141.4875
150.91804	158.8875
155.24774	195.5875
159.57429	239.3875
163.89768	305.9875
168.21792	408.0875
172.53501	551.4875
176.84895	773.4875
181.15975	1080.2875
185.46741	1521.0875
189.77193	2114.6875
194.07331	2829.2875
198.37157	3663.9875
202.6667	4536.9875
206.9587	5422.2875
211.24758	6284.1875
215.53334	7263.6875
219.81599	8275.7875
224.09553	9447.7875
228.37195	10772.0875
232.64527	12164.3875
236.91549	13614.9875
241.18261	14888.1875
245.44663	15977.3875
249.70755	16883.2875
253.96539	17656.8875
258.22014	18356.3875
262.4718	18881.6875
266.72039	19211.4875
270.96589	19187.8875
275.20832	18932.2875
279.44768	18446.3875
283.68397	17949.6875
287.91719	17616.5875
292.14735	17587.5875
296.37445	18050.4875
300.59849	18888.3875
304.81948	19920.2875
309.03742	20609.9875
313.25231	20563.4875
317.46415	19538.6875
321.67296	17946.4875
325.87872	16590.2875
330.08145	16024.5875
334.28114	16003.4875
338.47781	16328.8875
342.67145	16833.3875
346.86207	17653.2875
351.04966	18794.2875
355.23424	20125.0875
359.4158	21134.2875
363.59435	21594.7875
367.76989	21718.0875
371.94243	21668.5875
376.11196	21485.3875
380.27849	21345.2875
384.44203	21068.1875
388.60257	20656.7875
392.76012	20427.7875
396.91468	20510.9875
401.06626	20914.8875
405.21485	21252.0875
409.36047	20724.6875
413.50311	19517.8875
417.64277	18301.5875
421.77947	17599.5875
425.9132	17284.3875
430.04396	17185.9875
434.17176	17306.6875
438.2966	17597.7875
442.41849	18079.5875
446.53742	18621.5875
450.6534	19161.3875
454.76644	19504.7875
458.87653	19507.6875
462.98368	19244.4875
467.08789	18847.5875
471.18916	18442.0875
475.2875	17939.6875
479.38291	17554.6875
483.4754	17243.3875
487.56496	17010.4875
491.6516	16783.8875
495.73531	16671.2875
499.81612	16693.4875
503.89401	16943.8875
507.96899	17248.5875
512.04106	17536.0875
516.11023	17985.9875
520.1765	18242.2875
524.23987	18255.3875
528.30034	17951.7875
532.35792	17651.2875
536.41261	17325.5875
540.46441	16897.3875
544.51333	16693.6875
548.55936	16739.5875
552.60252	17082.6875
556.64279	17531.0875
560.6802	17813.0875
564.71473	18147.7875
568.7464	18977.7875
572.7752	19310.9875
576.80114	18459.7875
580.82422	17574.3875
584.84444	17232.6875
588.86181	17350.0875
592.87633	17740.5875
596.888	18113.9875
600.89682	18563.9875
604.9028	20853.4875
608.90594	27474.2875
612.90624	36128.8875
616.90371	34340.2875
620.89834	23485.2875
624.89015	18297.9875
628.87913	17391.8875
632.86528	17590.0875
636.84862	17982.0875
640.82913	17620.5875
644.80683	16694.7875
648.78172	16016.0875
652.75379	16006.7875
656.72306	16663.9875
660.68952	17571.2875
664.65319	17348.8875
668.61405	16403.8875
672.57211	15941.9875
676.52738	15982.4875
680.47986	16003.8875
684.42955	15804.6875
688.37646	15634.6875
692.32058	15645.5875
696.26192	15757.2875
700.20048	15969.8875
704.13626	16065.2875
708.06928	15958.1875
711.99952	15773.6875
715.927	15720.2875
719.85171	15836.9875
723.77365	15952.8875
727.69284	15872.8875
731.60928	15725.5875
735.52295	15707.1875
739.43388	15757.7875
743.34206	15839.4875
747.24749	15836.7875
751.15017	15849.7875
755.05012	16054.4875
758.94733	16915.6875
762.8418	19018.8875
766.73354	22696.5875
770.62254	26491.5875
774.50882	28549.7875
778.39237	27306.4875
782.27321	23188.7875
786.15132	19246.7875
790.02671	17006.3875
793.89938	16054.5875
797.76935	15651.9875
801.6366	15466.6875
805.50115	15414.3875
809.36299	15366.8875
813.22213	15299.9875
817.07857	15248.1875
820.93231	15207.5875
824.78336	15214.8875
828.63172	15251.4875
832.47738	15269.2875
836.32036	15202.0875
840.16066	15088.7875
843.99827	15004.3875
847.8332	14984.3875
851.66546	14985.2875
855.49504	14992.0875
859.32195	14996.1875
863.1462	14965.5875
866.96777	14907.5875
870.78668	14884.2875
874.60293	14893.8875
878.41652	14927.6875
882.22745	15040.6875
886.03573	15116.5875
889.84136	15071.6875
893.64433	14994.7875
897.44466	14914.1875
901.24235	14872.8875
905.0374	14782.3875
908.8298	14636.3875
912.61957	14508.4875
916.40671	14549.4875
920.19121	14638.8875
923.97308	14758.8875
927.75233	15010.2875
931.52895	15286.7875
935.30295	15183.0875
939.07433	14732.9875
942.84309	14295.8875
946.60924	14004.8875
950.37278	13892.3875
954.13371	13795.7875
957.89203	13717.3875
961.64774	13681.8875
965.40086	13609.3875
969.15137	13535.2875
972.89929	13493.7875
976.64461	13489.8875
980.38733	13466.3875
984.12747	13481.6875
987.86502	13561.4875
991.59999	13664.8875
995.33237	13852.3875
999.06217	14177.7875
1002.78939	14566.1875
1006.51404	14957.9875
1010.23611	15205.6875
1013.95561	15381.9875
1017.67255	15354.9875
1021.38692	15135.5875
1025.09872	14888.8875
1028.80796	14785.1875
1032.51465	14888.1875
1036.21877	15136.6875
1039.92035	15210.8875
1043.61937	15168.0875
1047.31584	15060.8875
1051.00976	14855.9875
1054.70114	14694.3875
1058.38998	14606.6875
1062.07627	14613.5875
1065.76003	14598.3875
1069.44126	14601.0875
1073.11995	14706.6875
1076.79611	14920.8875
1080.46974	15294.8875
1084.14085	15840.3875
1087.80943	16385.0875
1091.47549	16578.7875
1095.13903	16273.9875
1098.80005	15661.8875
1102.45857	15234.0875
1106.11456	15124.9875
1109.76805	15413.2875
1113.41903	15972.6875
1117.06751	16786.5875
1120.71348	17816.4875
1124.35696	18863.8875
1127.99793	19567.2875
1131.63641	19210.2875
1135.2724	18024.9875
1138.90589	16947.4875
1142.5369	16293.9875
1146.16542	15818.6875
1149.79145	15498.1875
1153.415	15440.7875
1157.03607	15506.2875
1160.65467	15813.6875
1164.27079	16458.3875
1167.88443	17421.1875
1171.49561	18942.1875
1175.10432	21375.4875
1178.71056	24776.9875
1182.31434	27714.8875
1185.91565	28501.0875
1189.51451	27254.1875
1193.11091	25025.1875
1196.70485	22786.0875
1200.29634	21338.2875
1203.88538	20301.8875
1207.47197	18974.2875
1211.05612	17829.6875
1214.63782	17141.1875
1218.21708	16851.9875
1221.79391	16828.0875
1225.36829	16775.3875
1228.94024	16663.7875
1232.50976	16439.6875
1236.07685	16304.1875
1239.6415	16389.8875
1243.20374	16501.7875
1246.76355	16650.4875
1250.32093	16901.4875
1253.8759	17326.2875
1257.42845	17892.2875
1260.97859	18474.8875
1264.52631	19110.9875
1268.07163	19784.8875
1271.61453	20315.7875
1275.15503	20758.1875
1278.69312	20951.5875
1282.22882	21102.1875
1285.76211	21590.4875
1289.29301	22400.3875
1292.82151	23318.3875
1296.34761	24433.8875
1299.87133	26173.6875
1303.39266	29073.0875
1306.9116	33376.9875
1310.42815	37797.6875
1313.94233	39427.8875
1317.45412	37025.1875
1320.96354	33108.3875
1324.47058	29404.3875
1327.97525	26554.7875
1331.47754	24886.2875
1334.97747	24325.0875
1338.47502	24763.7875
1341.97022	25870.4875
1345.46305	27576.5875
1348.95352	29888.2875
1352.44163	32917.0875
1355.92738	37345.7875
1359.41078	44080.0875
1362.89183	49881.3875
1366.37053	47100.6875
1369.84688	37994.7875
1373.32088	30061.0875
1376.79254	25372.6875
1380.26186	22974.4875
1383.72883	21692.1875
1387.19347	20802.6875
1390.65578	19918.8875
1394.11575	19270.9875
1397.57339	19059.2875
1401.0287	19128.4875
1404.48168	19338.0875
1407.93234	19570.3875
1411.38068	19797.6875
1414.82669	19918.6875
1418.27039	19758.7875
1421.71177	19338.5875
1425.15083	18825.2875
1428.58758	18580.9875
1432.02203	18844.6875
1435.45416	19067.1875
1438.88399	19158.3875
1442.31151	19179.6875
1445.73673	19344.0875
1449.15965	19554.3875
1452.58027	19507.2875
1455.9986	19344.0875
1459.41463	19269.5875
1462.82837	19561.0875
1466.23982	20053.8875
1469.64898	20593.3875
1473.05586	20930.5875
1476.46045	21074.3875
1479.86276	21272.3875
1483.26279	21612.1875
1486.66054	22169.6875
1490.05602	22970.4875
1493.44922	24173.0875
1496.84016	26097.7875
1500.22882	29360.6875
1503.61521	34422.6875
1506.99934	40534.2875
1510.38121	45473.4875
1513.76081	46189.2875
1517.13816	41757.9875
1520.51324	34817.7875
1523.88607	28813.0875
1527.25665	25003.7875
1530.62498	22994.4875
1533.99105	21831.1875
1537.35488	21159.5875
1540.71647	20798.9875
1544.07581	20694.6875
1547.4329	20807.0875
1550.78776	20982.5875
1554.14038	21182.5875
1557.49077	21495.6875
1560.83892	21977.2875
1564.18484	22737.4875
1567.52853	23684.0875
1570.86999	24364.2875
1574.20922	24728.7875
1577.54624	24436.6875
1580.88103	22939.8875
1584.2136	21001.1875
1587.54395	19950.8875
1590.87208	20123.9875
1594.19801	21376.9875
1597.52172	23156.6875
1600.84321	24072.6875
1604.16251	23373.4875
1607.47959	21835.8875
1610.79447	20028.9875
1614.10715	18271.9875
1617.41763	16927.7875
1620.7259	16048.3875
1624.03199	15658.4875
1627.33587	15746.1875
1630.63757	16201.2875
1633.93707	17142.2875
1637.23439	18772.2875
1640.52951	21233.5875
1643.82246	24931.7875
1647.11321	29241.9875
1650.40179	31964.9875
1653.68819	30487.5875
1656.97241	25531.8875
1660.25446	20516.2875
1663.53433	17225.2875
1666.81203	15378.9875
1670.08756	14310.0875
1673.36092	13656.2875
1676.63211	13210.1875
1679.90115	12894.8875
1683.16801	12697.9875
1686.43272	12518.9875
1689.69527	12346.3875
1692.95567	12281.0875
1696.2139	12182.7875
1699.46999	12110.6875
1702.72392	12068.3875
1705.97571	12050.3875
1709.22535	12019.8875
1712.47284	12011.0875
1715.71819	11998.0875
1718.96139	11943.8875
1722.20246	11900.5875
1725.44139	11816.4875
1728.67818	11747.7875
1731.91284	11635.9875
1735.14537	11557.9875
1738.37576	11498.2875
1741.60403	11454.2875
1744.83017	11425.2875
1748.05418	11378.7875
1751.27607	11350.5875
1754.49584	11295.5875
1757.71349	11276.1875
1760.92903	11237.9875
1764.14244	11220.8875
1767.35375	11185.2875
1770.56294	11123.7875
1773.77002	11079.7875
1776.97499	11035.3875
1780.17785	11004.1875
1783.37861	10961.8875
1786.57727	10936.4875
1789.77382	10914.0875
1792.96828	10881.1875
1796.16064	10869.2875
1799.3509	10850.4875
1802.53907	10806.3875
1805.72514	10769.8875
1808.90913	10740.8875
1812.09102	10709.4875
1815.27083	10681.4875
1818.44856	10640.5875
1821.6242	10609.8875
1824.79776	10600.7875
1827.96924	10569.7875
1831.13864	10576.0875
1834.30597	10544.2875
1837.47122	10532.2875
1840.6344	10515.2875
1843.7955	10499.8875
1846.95454	10469.1875
1850.11151	10479.1875
1853.26642	10459.1875
1856.41926	10437.2875
1859.57004	10450.3875
1862.71876	10420.3875
1865.86542	10416.8875
1869.01003	10422.8875
1872.15258	10447.5875
1875.29308	10456.3875
1878.43152	10450.5875
1881.56792	10428.7875
1884.70227	10408.4875
1887.83457	10414.0875
1890.96482	10395.7875
1894.09304	10380.3875
1897.21921	10377.1875
1900.34335	10364.4875
1903.46544	10383.0875
1906.58551	10343.2875
1909.70353	10336.2875
1912.81953	10343.5875
1915.93349	10308.8875
1919.04543	10272.6875
1922.15534	10267.1875
1925.26322	10222.1875
1928.36908	10189.7875
1931.47292	10169.7875
1934.57473	10116.5875
1937.67453	10109.7875
1940.77232	10072.5875
1943.86808	10044.8875
1946.96184	10015.0875
1950.05358	9982.4875
1953.14331	9969.0875
1956.23103	9928.7875
1959.31675	9903.3875
1962.40046	9883.4875
1965.48217	9844.3875
1968.56188	9812.9875
1971.63959	9811.1875
1974.7153	9786.1875
1977.78901	9750.9875
1980.86073	9716.1875
1983.93046	9669.8875
1986.99819	9631.9875
1990.06394	9619.1875
1993.1277	9565.9875
1996.18947	9520.7875
1999.24925	9484.1875
2002.30706	9461.6875
2005.36288	9433.3875
2008.41672	9409.2875
2011.46859	9377.1875
2014.51848	9348.7875
2017.56639	9346.0875
2020.61233	9281.9875
2023.6563	9276.8875
2026.6983	9245.3875
2029.73833	9225.2875
2032.7764	9191.3875
2035.8125	9187.1875
2038.84664	9158.2875
2041.87881	9135.4875
2044.90903	9118.8875
2047.93729	9085.8875
2050.96359	9081.2875
2053.98794	9080.0875
2057.01034	9075.7875
2060.03078	9046.7875
2063.04927	9042.4875
2066.06582	9036.2875
2069.08042	9006.2875
2072.09307	8975.3875
2075.10378	8988.5875
2078.11255	8978.0875
2081.11938	8987.6875
2084.12426	8955.6875
2087.12722	8958.2875
2090.12824	8961.9875
2093.12732	8955.2875
2096.12447	8963.7875
2099.11969	8947.6875
2102.11299	8966.4875
2105.10435	8948.8875
2108.09379	8983.9875
2111.08131	8976.4875
2114.0669	8975.5875
2117.05057	8999.6875
2120.03233	8985.4875
2123.01216	9012.5875
2125.99008	9011.9875
2128.96609	9016.5875
2131.94018	9005.1875
2134.91236	9008.2875
2137.88263	8994.1875
2140.851	8994.8875
2143.81746	8979.3875
2146.78201	8978.3875
2149.74466	8979.3875
2152.7054	8984.9875
2155.66425	8944.9875
2158.6212	8976.5875
2161.57625	8945.4875
2164.52941	8942.5875
2167.48067	8914.2875
2170.43004	8941.1875
2173.37752	8914.9875
2176.32311	8925.8875
2179.26681	8934.1875
2182.20863	8923.7875
2185.14856	8944.0875
2188.08661	8920.8875
2191.02278	8927.9875
2193.95707	8913.1875
2196.88948	8903.4875
2199.82001	8902.0875
2202.74867	8891.2875
2205.67545	8865.2875
2208.60037	8877.6875
2211.52341	8875.4875
2214.44458	8837.8875
2217.36388	8828.5875
2220.28132	8795.3875
2223.1969	8787.1875
2226.11061	8769.6875
2229.02246	8757.7875
2231.93245	8742.0875
2234.84058	8719.1875
2237.74686	8692.2875
2240.65128	8678.9875
2243.55385	8671.0875
2246.45456	8662.6875
2249.35343	8659.1875
2252.25044	8638.2875
2255.14561	8639.5875
2258.03893	8658.1875
2260.93041	8666.9875
2263.82004	8651.8875
2266.70783	8630.7875
2269.59378	8603.9875
2272.4779	8580.5875
2275.36017	8569.0875
2278.24061	8526.0875
2281.11922	8491.3875
2283.996	8495.7875
2286.87094	8460.3875
2289.74405	8436.4875
2292.61534	8438.7875
2295.4848	8419.4875
2298.35243	8435.8875
2301.21824	8419.2875
2304.08223	8407.4875
2306.94439	8413.9875
2309.80474	8414.4875
2312.66327	8395.4875
2315.51999	8396.3875
2318.37489	8397.5875
2321.22797	8369.0875
2324.07925	8342.8875
2326.92871	8350.6875
2329.77637	8331.6875
2332.62222	8332.3875
2335.46626	8326.7875
2338.3085	8333.1875
2341.14893	8311.9875
2343.98756	8328.5875
2346.8244	8338.8875
2349.65943	8335.8875
2352.49267	8334.4875
2355.32411	8365.3875
2358.15376	8342.6875
2360.98161	8388.2875
2363.80768	8383.7875
2366.63195	8399.7875
2369.45444	8387.1875
2372.27514	8398.4875
2375.09405	8388.0875
2377.91118	8352.5875
2380.72652	8313.3875
2383.54009	8279.9875
2386.35187	8238.5875
2389.16188	8203.0875
2391.97011	8161.2875
2394.77657	8127.0875
2397.58125	8124.0875
2400.38416	8091.3875
2403.18529	8069.2875
2405.98466	8062.4875
2408.78226	8041.7875
2411.57809	8018.5875
2414.37216	8000.4875
2417.16446	8014.8875
2419.955	7986.9875
2422.74378	8005.7875
2425.5308	7984.8875
2428.31606	7979.5875
2431.09956	7988.4875
2433.88131	7962.9875
2436.6613	7974.6875
2439.43954	7978.8875
2442.21603	7953.9875
2444.99077	7972.4875
2447.76377	7969.0875
2450.53501	7959.2875
2453.30451	7986.4875
2456.07226	7984.5875
2458.83827	7979.2875
2461.60254	7972.9875
2464.36507	7973.2875
2467.12586	7953.4875
2469.88492	7932.5875
2472.64224	7946.2875
2475.39782	7973.8875
2478.15167	7977.9875
2480.90379	8022.0875
2483.65417	8030.9875
2486.40283	8051.1875
2489.14976	8056.7875
2491.89497	8059.5875
2494.63845	8068.5875
2497.3802	8049.7875
2500.12024	8047.9875
2502.85855	8002.3875
2505.59514	7993.2875
2508.33002	7947.5875
2511.06318	7921.8875
2513.79462	7866.0875
2516.52435	7854.5875
2519.25237	7787.4875
2521.97867	7789.4875
2524.70327	7778.2875
2527.42616	7758.3875
2530.14734	7751.0875
2532.86681	7767.8875
2535.58458	7738.3875
2538.30065	7755.2875
2541.01501	7753.2875
2543.72768	7740.0875
2546.43864	7729.4875
2549.14791	7723.0875
2551.85548	7738.4875
2554.56136	7724.0875
2557.26554	7689.3875
2559.96803	7696.6875
2562.66883	7689.2875
2565.36794	7684.3875
2568.06536	7644.4875
2570.7611	7661.4875
2573.45514	7630.6875
2576.14751	7627.0875
2578.83819	7609.5875
2581.52719	7599.2875
2584.21451	7574.3875
2586.90015	7605.1875
2589.58411	7574.5875
2592.2664	7568.0875
2594.94701	7540.5875
2597.62594	7538.4875
2600.30321	7522.1875
2602.9788	7525.3875
2605.65273	7527.1875
2608.32498	7519.4875
2610.99557	7520.2875
2613.66449	7524.4875
2616.33175	7523.4875
2618.99734	7525.0875
2621.66128	7520.3875
2624.32355	7497.4875
2626.98416	7498.5875
2629.64311	7487.2875
2632.30041	7490.3875
2634.95605	7463.8875
2637.61004	7442.3875
2640.26238	7446.7875
2642.91306	7418.5875
2645.56209	7423.1875
2648.20948	7412.9875
2650.85521	7412.1875
2653.4993	7391.8875
2656.14175	7404.2875
2658.78255	7416.9875
2661.42171	7430.8875
2664.05923	7420.5875
2666.6951	7423.3875
2669.32934	7451.3875
2671.96194	7429.1875
2674.59291	7452.6875
2677.22224	7442.0875
2679.84993	7453.3875
2682.476	7466.4875
2685.10043	7439.7875
2687.72324	7431.0875
2690.34441	7413.9875
2692.96396	7417.3875
2695.58188	7443.4875
2698.19818	7423.6875
2700.81285	7438.8875
2703.4259	7407.7875
2706.03733	7423.3875
2708.64714	7414.9875
2711.25533	7409.0875
2713.86191	7422.7875
2716.46687	7433.4875
2719.07021	7423.5875
2721.67194	7444.5875
2724.27206	7436.4875
2726.87057	7437.3875
2729.46747	7437.2875
2732.06276	7418.2875
2734.65644	7435.4875
2737.24852	7403.9875
2739.83899	7392.5875
2742.42786	7371.9875
2745.01513	7352.0875
2747.60079	7365.6875
2750.18486	7356.7875
2752.76733	7350.8875
2755.3482	7344.7875
2757.92747	7325.4875
2760.50515	7312.4875
2763.08123	7296.3875
2765.65573	7300.5875
2768.22863	7307.9875
2770.79994	7278.1875
2773.36967	7287.6875
2775.9378	7277.2875
2778.50435	7295.2875
2781.06932	7277.7875
2783.6327	7283.7875
2786.1945	7297.4875
2788.75471	7287.4875
2791.31335	7272.2875
2793.87041	7269.9875
2796.42589	7253.9875
2798.97979	7251.4875
2801.53212	7235.8875
2804.08288	7232.6875
2806.63206	7244.0875
2809.17967	7244.7875
2811.72571	7206.3875
2814.27018	7225.8875
2816.81308	7240.1875
2819.35442	7237.8875
2821.89419	7245.5875
2824.43239	7252.8875
2826.96904	7258.0875
2829.50412	7229.9875
2832.03763	7220.6875
2834.56959	7254.6875
2837.1	7246.7875
2839.62884	7249.9875
2842.15613	7247.3875
2844.68186	7256.2875
2847.20604	7257.9875
2849.72867	7292.9875
2852.24974	7288.5875
2854.76927	7293.2875
2857.28724	7284.4875
2859.80367	7259.2875
2862.31855	7279.7875
2864.83189	7279.6875
2867.34368	7290.3875
2869.85393	7270.8875
2872.36264	7300.8875
2874.8698	7320.2875
2877.37543	7299.3875
2879.87952	7266.6875
2882.38207	7273.1875
2884.88308	7273.1875
2887.38256	7263.7875
2889.88051	7254.8875
2892.37692	7251.0875
2894.8718	7263.1875
2897.36515	7259.6875
2899.85698	7270.0875
2902.34727	7292.7875
2904.83604	7268.3875
2907.32328	7292.9875
2909.809	7285.9875
2912.29319	7288.5875
2914.77587	7299.6875
2917.25702	7297.0875
2919.73665	7299.1875
2922.21476	7287.0875
2924.69136	7283.6875
2927.16644	7272.1875
2929.64	7237.9875
2932.11205	7221.1875
2934.58258	7205.6875
2937.05161	7224.9875
2939.51912	7227.0875
2941.98513	7214.6875
2944.44962	7173.9875
2946.91261	7147.8875
2949.37409	7148.7875
2951.83407	7135.7875
2954.29254	7123.1875
2956.74951	7114.3875
2959.20498	7115.8875
2961.65895	7086.0875
2964.11142	7066.2875
2966.56239	7027.1875
2969.01186	7037.0875
2971.45984	7000.3875
2973.90632	7011.3875
2976.35131	6974.5875
2978.7948	6968.4875
2981.23681	6928.5875
2983.67732	6926.5875
2986.11635	6895.1875
2988.55388	6893.9875
2990.98993	6874.0875
2993.4245	6863.2875
2995.85758	6858.3875
2998.28917	6837.0875
3000.71928	6854.7875
3003.14791	6842.0875
3005.57506	6848.8875
3008.00073	6812.3875
3010.42493	6805.2875
3012.84764	6814.3875
3015.26888	6811.4875
3017.68865	6791.8875
3020.10694	6786.1875
3022.52376	6732.5875
3024.9391	6739.4875
3027.35298	6708.2875
3029.76539	6696.4875
3032.17632	6695.4875
3034.5858	6665.2875
3036.9938	6656.7875
3039.40034	6642.2875
3041.80542	6629.5875
3044.20903	6603.6875
3046.61118	6620.4875
3049.01187	6604.7875
3051.4111	6605.0875
3053.80888	6589.4875
3056.20519	6564.4875
3058.60005	6557.7875
3060.99345	6547.2875
3063.3854	6511.9875
3065.7759	6505.5875
3068.16494	6489.6875
3070.55254	6477.6875
3072.93868	6442.2875
3075.32338	6417.6875
3077.70662	6416.9875
3080.08842	6406.2875
3082.46878	6383.5875
3084.84769	6381.5875
3087.22515	6373.8875
3089.60118	6379.4875
3091.97576	6371.2875
3094.3489	6357.2875
3096.72061	6378.8875
3099.09087	6363.7875
3101.4597	6373.7875
3103.82709	6366.9875
3106.19305	6338.0875
3108.55757	6366.0875
3110.92066	6338.9875
3113.28232	6317.7875
3115.64255	6314.7875
3118.00134	6315.0875
3120.35871	6287.4875
3122.71466	6283.3875
3125.06917	6261.2875
3127.42226	6246.8875
3129.77393	6251.8875
3132.12417	6263.6875
3134.47299	6272.4875
3136.82039	6262.8875
3139.16636	6251.9875
3141.51092	6268.8875
3143.85406	6257.2875
3146.19579	6272.7875
3148.53609	6281.5875
3150.87499	6268.1875
3153.21246	6274.5875
3155.54853	6283.6875
3157.88318	6283.7875
3160.21642	6294.2875
3162.54826	6294.1875
3164.87868	6285.1875
3167.2077	6298.6875
3169.5353	6289.7875
3171.86151	6286.7875
3174.18631	6291.4875
3176.5097	6274.6875
3178.83169	6269.0875
3181.15228	6268.4875
3183.47147	6258.6875
3185.78926	6257.9875
3188.10565	6254.0875
3190.42065	6243.6875
3192.73424	6264.7875
3195.04645	6269.2875
3197.35725	6291.4875
3199.66667	6283.5875
3201.97469	6276.6875
3204.28132	6291.7875
3206.58656	6312.2875
3208.8904	6311.8875
3211.19287	6319.7875
3213.49394	6333.6875
3215.79363	6342.6875
3218.09193	6344.5875
3220.38884	6340.7875
3222.68438	6350.7875
3224.97853	6330.6875
3227.2713	6337.7875
3229.56269	6334.8875
3231.8527	6321.2875
3234.14133	6308.0875
3236.42858	6310.7875
3238.71446	6300.0875
3240.99896	6290.1875
3243.28209	6295.5875
3245.56384	6294.7875
3247.84423	6290.3875
3250.12324	6279.7875
3252.40088	6264.9875
3254.67715	6281.7875
3256.95205	6258.7875
3259.22558	6271.1875
3261.49775	6251.5875
3263.76855	6276.8875
3266.03799	6251.7875
3268.30606	6250.0875
3270.57277	6248.0875
3272.83812	6246.4875
3275.10211	6228.1875
3277.36474	6194.7875
3279.62601	6207.8875
3281.88593	6182.4875
3284.14448	6200.2875
3286.40168	6193.6875
3288.65753	6205.1875
3290.91202	6215.5875
3293.16516	6209.7875
3295.41695	6199.2875
3297.66738	6149.6875
3299.91647	6126.5875
3302.16421	6098.2875
3304.4106	6052.4875
3306.65564	6016.3875
3308.89933	5972.0875
3311.14169	5927.8875
3313.38269	5882.8875
3315.62236	5852.8875
3317.86068	5793.4875
3320.09766	5739.3875
3322.3333	5715.7875
3324.5676	5687.9875
3326.80056	5606.8875
3329.03219	5550.1875
3331.26248	3.5875
3333.49143	0.0875
3335.71905	-1.4125
