Data from AgNPs_FTO_APTES_UA_50uM_CRN_50uM_R6G_10uM_NaF_0.1M_Addition_RamanShift__13__14-47-54-976.txt Node

Date: Mon Feb 21 14:47:54 GMT 2022
User: TCL
Spectrometer: QEP01345
Trigger mode: 4
Integration Time (sec): 7.000000E0
Scans to average: 10
Electric dark correction enabled: true
Nonlinearity correction enabled: false
Boxcar width: 0
XAxis mode: Raman Shifts
Number of Pixels in Spectrum: 1044
>>>>>Begin Spectral Data<<<<<
46.04893	0.1
50.45542	-0.2
54.85868	-0.7
59.25871	-1.1
63.6555	51.1
68.04907	57.7
72.43941	58.5
76.82654	63.5
81.21044	66.4
85.59113	69.2
89.96862	69.2
94.34289	75.2
98.71396	73.5
103.08183	77.6
107.4465	79
111.80798	79.1
116.16626	78.7
120.52136	79.4
124.87327	85.3
129.222	87.2
133.56755	88.1
137.90993	92.3
142.24913	97.5
146.58517	107.3
150.91804	119.4
155.24774	140.3
159.57429	163.3
163.89768	205.7
168.21792	269.5
172.53501	359.3
176.84895	497.8
181.15975	692.7
185.46741	969.3
189.77193	1341.8
194.07331	1803
198.37157	2327.7
202.6667	2868.4
206.9587	3416.1
211.24758	3966.3
215.53334	4491.7
219.81599	5039.5
224.09553	5648.4
228.37195	6336.3
232.64527	7078.6
236.91549	7880.9
241.18261	8703
245.44663	9473.9
249.70755	10149.1
253.96539	10757.3
258.22014	11262.2
262.4718	11633.5
266.72039	11899.4
270.96589	12017
275.20832	11996.8
279.44768	11916.5
283.68397	11743.9
287.91719	11590.8
292.14735	11461.1
296.37445	11430.6
300.59849	11424.7
304.81948	11465
309.03742	11441.7
313.25231	11419.3
317.46415	11220.1
321.67296	10969.9
325.87872	10821.7
330.08145	10727.5
334.28114	10744.3
338.47781	10827
342.67145	10982.7
346.86207	11144.7
351.04966	11334.2
355.23424	11537.1
359.4158	11733.6
363.59435	11882.5
367.76989	11996.4
371.94243	12096.7
376.11196	12140.1
380.27849	12187.8
384.44203	12281.4
388.60257	12321.1
392.76012	12378.2
396.91468	12570.5
401.06626	12737.5
405.21485	12859.8
409.36047	12819.1
413.50311	12650.3
417.64277	12482.3
421.77947	12401
425.9132	12371.6
430.04396	12419.2
434.17176	12475.1
438.2966	12598.8
442.41849	12732.3
446.53742	12878.9
450.6534	13052.2
454.76644	13210.6
458.87653	13279.9
462.98368	13326.4
467.08789	13264.8
471.18916	13204.6
475.2875	13096.8
479.38291	12998.9
483.4754	12920.1
487.56496	12830
491.6516	12793.2
495.73531	12781.4
499.81612	12799.7
503.89401	12905.2
507.96899	12969
512.04106	13013.6
516.11023	13009.8
520.1765	12983.6
524.23987	12930.2
528.30034	12858.9
532.35792	12794.8
536.41261	12722.3
540.46441	12655.2
544.51333	12646.2
548.55936	12725.3
552.60252	12847.2
556.64279	12969.8
560.6802	13061.2
564.71473	13078.7
568.7464	13111.7
572.7752	13257.1
576.80114	13407.8
580.82422	13584.9
584.84444	13773.7
588.86181	13906.3
592.87633	13907.4
596.888	13986.3
600.89682	14079.5
604.9028	14513.4
608.90594	15607
612.90624	16894.6
616.90371	16171.7
620.89834	14128.4
624.89015	13165
628.87913	13018.7
632.86528	13139.7
636.84862	13260.2
640.82913	13172.4
644.80683	12991.7
648.78172	12808.2
652.75379	12768.9
656.72306	12908.9
660.68952	13107
664.65319	13099.9
668.61405	12976.5
672.57211	12972.2
676.52738	13024.7
680.47986	13034.1
684.42955	13011.4
688.37646	12967.2
692.32058	12972
696.26192	13024.7
700.20048	13061.7
704.13626	13094.9
708.06928	13123.2
711.99952	13049.6
715.927	13007.1
719.85171	13001.8
723.77365	13011.8
727.69284	12906.7
731.60928	12857
735.52295	12793.1
739.43388	12789.2
743.34206	12840.3
747.24749	12861.1
751.15017	12923.3
755.05012	13039.5
758.94733	13247.9
762.8418	13717
766.73354	14486.6
770.62254	15338.6
774.50882	15661.6
778.39237	15239.6
782.27321	14434.9
786.15132	13700.4
790.02671	13237.1
793.89938	12981.6
797.76935	12851.4
801.6366	12750.7
805.50115	12704.8
809.36299	12674.3
813.22213	12605.6
817.07857	12579.3
820.93231	12581.3
824.78336	12549.8
828.63172	12561.9
832.47738	12564.7
836.32036	12555.9
840.16066	12514.4
843.99827	12543.4
847.8332	12528.1
851.66546	12541.8
855.49504	12536.3
859.32195	12553.1
863.1462	12562.5
866.96777	12551
870.78668	12541.3
874.60293	12568.3
878.41652	12601.7
882.22745	12631.9
886.03573	12683.3
889.84136	12678.4
893.64433	12624.8
897.44466	12646.5
901.24235	12646.7
905.0374	12617.7
908.8298	12595
912.61957	12569.9
916.40671	12598.5
920.19121	12642.2
923.97308	12700.3
927.75233	12747.9
931.52895	12704.8
935.30295	12624.4
939.07433	12498.4
942.84309	12371.2
946.60924	12316.6
950.37278	12259.8
954.13371	12240.4
957.89203	12230.6
961.64774	12213.6
965.40086	12209.4
969.15137	12181.1
972.89929	12163
976.64461	12119.2
980.38733	12113.9
984.12747	12148.5
987.86502	12164.1
991.59999	12226.7
995.33237	12271
999.06217	12366
1002.78939	12469.4
1006.51404	12611.6
1010.23611	12776.5
1013.95561	12872.8
1017.67255	12880.9
1021.38692	12852.8
1025.09872	12754.9
1028.80796	12646
1032.51465	12610.4
1036.21877	12608
1039.92035	12627.1
1043.61937	12687.5
1047.31584	12734.8
1051.00976	12775.2
1054.70114	12852.2
1058.38998	12841.7
1062.07627	12940.8
1065.76003	13026.1
1069.44126	13130.3
1073.11995	13263.4
1076.79611	13397.2
1080.46974	13489.2
1084.14085	13543.7
1087.80943	13602.2
1091.47549	13703.6
1095.13903	13722.5
1098.80005	13591.7
1102.45857	13426
1106.11456	13252.5
1109.76805	13172.7
1113.41903	13167.1
1117.06751	13245.3
1120.71348	13334.9
1124.35696	13450.8
1127.99793	13617.4
1131.63641	13643
1135.2724	13584.2
1138.90589	13499.2
1142.5369	13427.5
1146.16542	13362.5
1149.79145	13346
1153.415	13377.8
1157.03607	13408.1
1160.65467	13568.6
1164.27079	13796.8
1167.88443	14171.4
1171.49561	14657.7
1175.10432	15340.2
1178.71056	16224
1182.31434	17042
1185.91565	17594.6
1189.51451	17729.1
1193.11091	17575
1196.70485	17094.7
1200.29634	16554.6
1203.88538	16008.8
1207.47197	15457
1211.05612	15026.7
1214.63782	14748.9
1218.21708	14519.2
1221.79391	14388.9
1225.36829	14337.7
1228.94024	14272.2
1232.50976	14289.3
1236.07685	14281.9
1239.6415	14284
1243.20374	14294.7
1246.76355	14355.4
1250.32093	14399.1
1253.8759	14557.3
1257.42845	14745.1
1260.97859	15022.2
1264.52631	15316.8
1268.07163	15556.2
1271.61453	15789.9
1275.15503	16006.9
1278.69312	16194.2
1282.22882	16358.6
1285.76211	16523.5
1289.29301	16755.9
1292.82151	17024.8
1296.34761	17348.3
1299.87133	17786
1303.39266	18327.5
1306.9116	19025.7
1310.42815	19699.5
1313.94233	20105.1
1317.45412	20042.1
1320.96354	19765
1324.47058	19429.7
1327.97525	19177.1
1331.47754	19067.3
1334.97747	19102.9
1338.47502	19257.1
1341.97022	19553.5
1345.46305	19870.7
1348.95352	20222.3
1352.44163	20526.8
1355.92738	20944.7
1359.41078	21507.5
1362.89183	22087.5
1366.37053	21744.5
1369.84688	20319.9
1373.32088	18650.3
1376.79254	17393.2
1380.26186	16617.8
1383.72883	16248.1
1387.19347	15927.6
1390.65578	15629.7
1394.11575	15376.3
1397.57339	15231.9
1401.0287	15210
1404.48168	15190.1
1407.93234	15242.8
1411.38068	15237.5
1414.82669	15162.7
1418.27039	14978.3
1421.71177	14796.4
1425.15083	14587.4
1428.58758	14466.2
1432.02203	14384.3
1435.45416	14459.3
1438.88399	14510
1442.31151	14652.9
1445.73673	14707.6
1449.15965	14793.4
1452.58027	14921.8
1455.9986	14959.9
1459.41463	15068.2
1462.82837	15256.5
1466.23982	15484.9
1469.64898	15768.3
1473.05586	15981.1
1476.46045	16133.3
1479.86276	16297.9
1483.26279	16415.8
1486.66054	16488.7
1490.05602	16729.5
1493.44922	17111.8
1496.84016	17648.2
1500.22882	18413.6
1503.61521	19362.2
1506.99934	20299.6
1510.38121	20895.9
1513.76081	20711.4
1517.13816	19925.4
1520.51324	18857.2
1523.88607	17956.6
1527.25665	17316.6
1530.62498	16921.3
1533.99105	16660.1
1537.35488	16476
1540.71647	16256.4
1544.07581	16098.8
1547.4329	15890.3
1550.78776	15753.8
1554.14038	15709.4
1557.49077	15739.4
1560.83892	15793.4
1564.18484	15971
1567.52853	16097.1
1570.86999	16278.2
1574.20922	16398.9
1577.54624	16409.4
1580.88103	16112.4
1584.2136	15697.5
1587.54395	15535.1
1590.87208	15642.1
1594.19801	15986.3
1597.52172	16487.4
1600.84321	16696.8
1604.16251	16451
1607.47959	16026.1
1610.79447	15456.1
1614.10715	14859.3
1617.41763	14266.8
1620.7259	13758.2
1624.03199	13468.9
1627.33587	13357.4
1630.63757	13456.1
1633.93707	13777.1
1637.23439	14319.1
1640.52951	15186.9
1643.82246	16248.9
1647.11321	17287.5
1650.40179	17866.3
1653.68819	17457.7
1656.97241	16226.9
1660.25446	14781.3
1663.53433	13567.8
1666.81203	12815.5
1670.08756	12326.9
1673.36092	12055.5
1676.63211	11855.1
1679.90115	11694
1683.16801	11597.4
1686.43272	11501.3
1689.69527	11417.4
1692.95567	11313.6
1696.2139	11191.1
1699.46999	11047.5
1702.72392	11024.8
1705.97571	11070.5
1709.22535	11142.4
1712.47284	11218.4
1715.71819	11217.8
1718.96139	11210.4
1722.20246	11183.2
1725.44139	11175.1
1728.67818	11128.4
1731.91284	11037
1735.14537	11039.3
1738.37576	10984.8
1741.60403	10941
1744.83017	10895.8
1748.05418	10857.2
1751.27607	10833.4
1754.49584	10793.5
1757.71349	10716.4
1760.92903	10685.3
1764.14244	10696
1767.35375	10679.8
1770.56294	10652.8
1773.77002	10601.2
1776.97499	10620
1780.17785	10658.1
1783.37861	10675.2
1786.57727	10671.2
1789.77382	10677.2
1792.96828	10649.9
1796.16064	10635.9
1799.3509	10592.9
1802.53907	10596.7
1805.72514	10569.2
1808.90913	10542
1812.09102	10557.8
1815.27083	10558.3
1818.44856	10520.2
1821.6242	10493.3
1824.79776	10509
1827.96924	10485.2
1831.13864	10470.8
1834.30597	10471.9
1837.47122	10464.1
1840.6344	10449.2
1843.7955	10447
1846.95454	10466.6
1850.11151	10469.1
1853.26642	10457.5
1856.41926	10434.1
1859.57004	10436.5
1862.71876	10416.7
1865.86542	10417.9
1869.01003	10405
1872.15258	10377.6
1875.29308	10357.7
1878.43152	10364.1
1881.56792	10342.3
1884.70227	10320.9
1887.83457	10301
1890.96482	10297.3
1894.09304	10259.3
1897.21921	10241.7
1900.34335	10236.9
1903.46544	10235.4
1906.58551	10223
1909.70353	10183.8
1912.81953	10175.4
1915.93349	10167.9
1919.04543	10158.5
1922.15534	10132.9
1925.26322	10108
1928.36908	10089.9
1931.47292	10069.7
1934.57473	10038.7
1937.67453	10033.3
1940.77232	9985.5
1943.86808	9956
1946.96184	9950.8
1950.05358	9901.6
1953.14331	9888.1
1956.23103	9852.9
1959.31675	9823.9
1962.40046	9808
1965.48217	9780.6
1968.56188	9743.7
1971.63959	9734.9
1974.7153	9679.6
1977.78901	9680.9
1980.86073	9652.6
1983.93046	9573.7
1986.99819	9567.8
1990.06394	9548.6
1993.1277	9531.8
1996.18947	9467.4
1999.24925	9474.7
2002.30706	9445.4
2005.36288	9428.3
2008.41672	9387
2011.46859	9319.2
2014.51848	9314.8
2017.56639	9271.2
2020.61233	9288.6
2023.6563	9254.6
2026.6983	9230.1
2029.73833	9200.7
2032.7764	9179.3
2035.8125	9131.9
2038.84664	9140.3
2041.87881	9149.6
2044.90903	9113
2047.93729	9080.8
2050.96359	9080.5
2053.98794	9081.1
2057.01034	9081.6
2060.03078	9062
2063.04927	9048.4
2066.06582	9020.7
2069.08042	9030.3
2072.09307	9023.6
2075.10378	9025.5
2078.11255	8998.2
2081.11938	9032.2
2084.12426	8993.9
2087.12722	8987.3
2090.12824	9016.9
2093.12732	8990.4
2096.12447	9003.1
2099.11969	9026.8
2102.11299	8995.7
2105.10435	9038.4
2108.09379	9004.1
2111.08131	9025.7
2114.0669	8993
2117.05057	9015.9
2120.03233	9055.5
2123.01216	9068.7
2125.99008	9054
2128.96609	9060.4
2131.94018	9080.8
2134.91236	9075.5
2137.88263	9065.9
2140.851	9082.6
2143.81746	9082.5
2146.78201	9078.6
2149.74466	9088.4
2152.7054	9098.9
2155.66425	9063.8
2158.6212	9065.1
2161.57625	9080.1
2164.52941	9077.4
2167.48067	9047.9
2170.43004	9045.5
2173.37752	9058.9
2176.32311	9052.5
2179.26681	9049.4
2182.20863	9060.7
2185.14856	9048.2
2188.08661	9049.9
2191.02278	9057.9
2193.95707	9032.9
2196.88948	9019.4
2199.82001	9024.2
2202.74867	9019.2
2205.67545	9012.4
2208.60037	8995.4
2211.52341	8961
2214.44458	8957
2217.36388	8945.1
2220.28132	8940.7
2223.1969	8901.4
2226.11061	8895.9
2229.02246	8884.8
2231.93245	8857.9
2234.84058	8839.9
2237.74686	8828.6
2240.65128	8843.6
2243.55385	8831
2246.45456	8818.9
2249.35343	8804.7
2252.25044	8785.1
2255.14561	8734.2
2258.03893	8766.4
2260.93041	8744.5
2263.82004	8741.3
2266.70783	8737.6
2269.59378	8703
2272.4779	8696.7
2275.36017	8643.7
2278.24061	8662
2281.11922	8624.4
2283.996	8572.3
2286.87094	8592.5
2289.74405	8581.8
2292.61534	8572.5
2295.4848	8545.6
2298.35243	8552.5
2301.21824	8571.4
2304.08223	8539.7
2306.94439	8540
2309.80474	8531.1
2312.66327	8523
2315.51999	8520.3
2318.37489	8503.1
2321.22797	8457.5
2324.07925	8480.7
2326.92871	8460.6
2329.77637	8452.5
2332.62222	8418.7
2335.46626	8423.9
2338.3085	8400
2341.14893	8403.6
2343.98756	8397.9
2346.8244	8370.3
2349.65943	8364.8
2352.49267	8360.1
2355.32411	8384.2
2358.15376	8359.5
2360.98161	8358.7
2363.80768	8342.8
2366.63195	8341.8
2369.45444	8331.8
2372.27514	8335
2375.09405	8324.1
2377.91118	8314.7
2380.72652	8323.3
2383.54009	8292.6
2386.35187	8266.9
2389.16188	8247.1
2391.97011	8229.2
2394.77657	8207.2
2397.58125	8195.5
2400.38416	8205.8
2403.18529	8189.1
2405.98466	8161.2
2408.78226	8150.9
2411.57809	8126.2
2414.37216	8114.1
2417.16446	8121
2419.955	8099.7
2422.74378	8129.7
2425.5308	8088.2
2428.31606	8097.3
2431.09956	8089.5
2433.88131	8081.8
2436.6613	8087
2439.43954	8055.4
2442.21603	8076.7
2444.99077	8057.3
2447.76377	8062.7
2450.53501	8053.5
2453.30451	8087
2456.07226	8026.4
2458.83827	8025.8
2461.60254	8018.3
2464.36507	8038.2
2467.12586	8028.1
2469.88492	8015.8
2472.64224	8003.8
2475.39782	8006
2478.15167	7986.6
2480.90379	8014.1
2483.65417	8005.3
2486.40283	7973.3
2489.14976	7996.5
2491.89497	7981.2
2494.63845	7965.4
2497.3802	7955.6
2500.12024	7958.7
2502.85855	7963.7
2505.59514	7934.5
2508.33002	7909.6
2511.06318	7926.8
2513.79462	7931.4
2516.52435	7923.9
2519.25237	7906.2
2521.97867	7885.9
2524.70327	7868.5
2527.42616	7867.7
2530.14734	7863.1
2532.86681	7863.1
2535.58458	7862.5
2538.30065	7843.4
2541.01501	7838.4
2543.72768	7793
2546.43864	7795
2549.14791	7793.8
2551.85548	7776.1
2554.56136	7774.3
2557.26554	7730.2
2559.96803	7745.5
2562.66883	7718.4
2565.36794	7725.5
2568.06536	7723.4
2570.7611	7696.8
2573.45514	7701.6
2576.14751	7684.5
2578.83819	7683.8
2581.52719	7644.1
2584.21451	7653.9
2586.90015	7614.7
2589.58411	7607
2592.2664	7577.8
2594.94701	7578.3
2597.62594	7583.6
2600.30321	7556.3
2602.9788	7554.6
2605.65273	7560
2608.32498	7552.5
2610.99557	7523.8
2613.66449	7524
2616.33175	7516
2618.99734	7529.3
2621.66128	7503.4
2624.32355	7530.5
2626.98416	7488.1
2629.64311	7474.7
2632.30041	7470.7
2634.95605	7459.9
2637.61004	7426.5
2640.26238	7421.7
2642.91306	7437.9
2645.56209	7435.5
2648.20948	7414.6
2650.85521	7408.7
2653.4993	7414.5
2656.14175	7401.1
2658.78255	7396.5
2661.42171	7411
2664.05923	7404.3
2666.6951	7433.2
2669.32934	7445.4
2671.96194	7426.9
2674.59291	7423.4
2677.22224	7431.1
2679.84993	7421
2682.476	7409.1
2685.10043	7406.6
2687.72324	7406.8
2690.34441	7419.5
2692.96396	7411.7
2695.58188	7422.6
2698.19818	7387.2
2700.81285	7375.7
2703.4259	7380.1
2706.03733	7315.3
2708.64714	7351.2
2711.25533	7378.9
2713.86191	7389.9
2716.46687	7406.2
2719.07021	7404.1
2721.67194	7416.2
2724.27206	7406.5
2726.87057	7422.2
2729.46747	7401.5
2732.06276	7407.7
2734.65644	7404
2737.24852	7393.9
2739.83899	7380.2
2742.42786	7387
2745.01513	7366.3
2747.60079	7378.7
2750.18486	7364.7
2752.76733	7357.4
2755.3482	7363.3
2757.92747	7323.1
2760.50515	7337
2763.08123	7342.7
2765.65573	7305.5
2768.22863	7286.1
2770.79994	7266.2
2773.36967	7261.2
2775.9378	7262.3
2778.50435	7240.2
2781.06932	7238.6
2783.6327	7271.1
2786.1945	7261.2
2788.75471	7250.3
2791.31335	7202.6
2793.87041	7206.4
2796.42589	7181.1
2798.97979	7194.2
2801.53212	7157.8
2804.08288	7164.2
2806.63206	7154.8
2809.17967	7135.8
2811.72571	7105.3
2814.27018	7087
2816.81308	7080.5
2819.35442	7097.3
2821.89419	7076.7
2824.43239	7057.9
2826.96904	7052
2829.50412	7055.1
2832.03763	7048.2
2834.56959	7044.4
2837.1	7028.8
2839.62884	7033.4
2842.15613	7022.9
2844.68186	7029.3
2847.20604	7030.1
2849.72867	7030.4
2852.24974	7005
2854.76927	7000
2857.28724	6984.4
2859.80367	6962.6
2862.31855	6962.2
2864.83189	6955
2867.34368	6960.1
2869.85393	6957.6
2872.36264	6970.2
2874.8698	6951.9
2877.37543	6938.3
2879.87952	6956.4
2882.38207	6937.7
2884.88308	6927.6
2887.38256	6931.9
2889.88051	6922.3
2892.37692	6941
2894.8718	6914.7
2897.36515	6941.7
2899.85698	6953.7
2902.34727	6948.5
2904.83604	6954.3
2907.32328	6956.5
2909.809	6958.2
2912.29319	6963.6
2914.77587	6990.4
2917.25702	6965.7
2919.73665	6940.6
2922.21476	6975.8
2924.69136	6972.1
2927.16644	6971.5
2929.64	6941.1
2932.11205	6952.7
2934.58258	6927.4
2937.05161	6927.3
2939.51912	6923.9
2941.98513	6927.3
2944.44962	6906.5
2946.91261	6873.5
2949.37409	6902.4
2951.83407	6904.7
2954.29254	6903.6
2956.74951	6878
2959.20498	6869.8
2961.65895	6875.7
2964.11142	6846.5
2966.56239	6842.4
2969.01186	6849.6
2971.45984	6831.9
2973.90632	6832.9
2976.35131	6810.1
2978.7948	6817.6
2981.23681	6797.5
2983.67732	6770.2
2986.11635	6772.9
2988.55388	6740.1
2990.98993	6757.9
2993.4245	6741.6
2995.85758	6724.2
2998.28917	6707.7
3000.71928	6699.8
3003.14791	6675.6
3005.57506	6674.8
3008.00073	6663.9
3010.42493	6672.3
3012.84764	6651.2
3015.26888	6639.2
3017.68865	6623.1
3020.10694	6618
3022.52376	6604.2
3024.9391	6602.7
3027.35298	6584.2
3029.76539	6579
3032.17632	6573.1
3034.5858	6564.1
3036.9938	6572.5
3039.40034	6563.7
3041.80542	6546.7
3044.20903	6547.4
3046.61118	6542.8
3049.01187	6527.9
3051.4111	6516.5
3053.80888	6525.5
3056.20519	6489.9
3058.60005	6492.8
3060.99345	6473.9
3063.3854	6489.1
3065.7759	6462
3068.16494	6444.4
3070.55254	6417.6
3072.93868	6409
3075.32338	6391.2
3077.70662	6388.3
3080.08842	6376.7
3082.46878	6357.7
3084.84769	6367.9
3087.22515	6360.7
3089.60118	6347.2
3091.97576	6352.5
3094.3489	6350.2
3096.72061	6364.7
3099.09087	6359.1
3101.4597	6375.4
3103.82709	6362.1
3106.19305	6352.3
3108.55757	6359.4
3110.92066	6346.5
3113.28232	6334.8
3115.64255	6322.9
3118.00134	6317.5
3120.35871	6302.4
3122.71466	6319.3
3125.06917	6307.1
3127.42226	6286
3129.77393	6290.9
3132.12417	6303.5
3134.47299	6282.9
3136.82039	6277.9
3139.16636	6284.8
3141.51092	6265.2
3143.85406	6293.6
3146.19579	6282.7
3148.53609	6286.7
3150.87499	6305
3153.21246	6297.1
3155.54853	6320.4
3157.88318	6316.4
3160.21642	6329.3
3162.54826	6313.8
3164.87868	6311.5
3167.2077	6321.7
3169.5353	6324.2
3171.86151	6329.5
3174.18631	6316.9
3176.5097	6312.9
3178.83169	6302.2
3181.15228	6306.3
3183.47147	6283.2
3185.78926	6301.6
3188.10565	6295.4
3190.42065	6301.1
3192.73424	6296.6
3195.04645	6286.9
3197.35725	6304.5
3199.66667	6280.3
3201.97469	6278.9
3204.28132	6272.9
3206.58656	6277.6
3208.8904	6285.2
3211.19287	6295
3213.49394	6312.3
3215.79363	6313.7
3218.09193	6312.4
3220.38884	6298.5
3222.68438	6267.2
3224.97853	6276.6
3227.2713	6280.5
3229.56269	6277.7
3231.8527	6270.2
3234.14133	6260.9
3236.42858	6246.1
3238.71446	6241
3240.99896	6218.9
3243.28209	6224.1
3245.56384	6208.6
3247.84423	6210.5
3250.12324	6216.8
3252.40088	6221.9
3254.67715	6209.2
3256.95205	6208.2
3259.22558	6202.7
3261.49775	6218.9
3263.76855	6189.2
3266.03799	6183.8
3268.30606	6187.7
3270.57277	6207
3272.83812	6160.1
3275.10211	6148.2
3277.36474	6146.5
3279.62601	6128
3281.88593	6125.5
3284.14448	6122.5
3286.40168	6129.8
3288.65753	6121.6
3290.91202	6125.9
3293.16516	6089.5
3295.41695	6077.5
3297.66738	6051.8
3299.91647	6027.4
3302.16421	5988.7
3304.4106	5978
3306.65564	5925.3
3308.89933	5900
3311.14169	5833.9
3313.38269	5784.6
3315.62236	5750.9
3317.86068	5709
3320.09766	5654.5
3322.3333	5626.2
3324.5676	5613.8
3326.80056	5502.3
3329.03219	5456.9
3331.26248	2.4
3333.49143	-2.1
3335.71905	0.3
