Data from AgNPs_FTO_APTES_UA_50uM_CRN_100uM_R6G_10uM_NaF_0.1M_Addition_RamanShift__5__15-21-45-019.txt Node

Date: Mon Feb 21 15:21:45 GMT 2022
User: TCL
Spectrometer: QEP01345
Trigger mode: 4
Integration Time (sec): 7.000000E0
Scans to average: 10
Electric dark correction enabled: true
Nonlinearity correction enabled: false
Boxcar width: 0
XAxis mode: Raman Shifts
Number of Pixels in Spectrum: 1044
>>>>>Begin Spectral Data<<<<<
46.04893	0.8375
50.45542	-1.6625
54.85868	-0.6625
59.25871	-1.3625
63.6555	55.4375
68.04907	62.7375
72.43941	63.5375
76.82654	69.9375
81.21044	72.2375
85.59113	76.8375
89.96862	80.7375
94.34289	81.8375
98.71396	79.4375
103.08183	88.4375
107.4465	93.8375
111.80798	90.4375
116.16626	89.4375
120.52136	90.5375
124.87327	96.6375
129.222	96.8375
133.56755	101.6375
137.90993	110.2375
142.24913	115.7375
146.58517	127.6375
150.91804	143.5375
155.24774	167.7375
159.57429	204.7375
163.89768	259.2375
168.21792	331.6375
172.53501	454.4375
176.84895	630.0375
181.15975	881.3375
185.46741	1241.5375
189.77193	1703.0375
194.07331	2281.9375
198.37157	2925.1375
202.6667	3611.3375
206.9587	4305.6375
211.24758	4962.1375
215.53334	5630.0375
219.81599	6336.2375
224.09553	7124.5375
228.37195	8007.7375
232.64527	8952.9375
236.91549	9983.4375
241.18261	10990.0375
245.44663	11905.5375
249.70755	12743.9375
253.96539	13438.7375
258.22014	13984.9375
262.4718	14481.3375
266.72039	14796.9375
270.96589	14954.2375
275.20832	14960.6375
279.44768	14849.1375
283.68397	14658.1375
287.91719	14458.7375
292.14735	14356.0375
296.37445	14329.1375
300.59849	14406.0375
304.81948	14470.9375
309.03742	14516.1375
313.25231	14447.2375
317.46415	14269.2375
321.67296	14012.3375
325.87872	13778.9375
330.08145	13694.8375
334.28114	13683.8375
338.47781	13790.3375
342.67145	13953.4375
346.86207	14192.0375
351.04966	14478.3375
355.23424	14779.4375
359.4158	15044.0375
363.59435	15222.2375
367.76989	15341.7375
371.94243	15457.7375
376.11196	15510.8375
380.27849	15577.0375
384.44203	15625.6375
388.60257	15741.9375
392.76012	15879.1375
396.91468	16034.5375
401.06626	16217.4375
405.21485	16373.1375
409.36047	16274.2375
413.50311	15982.0375
417.64277	15798.9375
421.77947	15755.3375
425.9132	15746.8375
430.04396	15818.9375
434.17176	15920.6375
438.2966	16087.9375
442.41849	16388.6375
446.53742	16797.4375
450.6534	17235.7375
454.76644	17529.4375
458.87653	17602.5375
462.98368	17465.6375
467.08789	17308.4375
471.18916	17016.6375
475.2875	16755.2375
479.38291	16469.6375
483.4754	16298.8375
487.56496	16120.3375
491.6516	16020.3375
495.73531	15930.8375
499.81612	15938.2375
503.89401	16052.6375
507.96899	16135.8375
512.04106	16155.2375
516.11023	16110.0375
520.1765	16066.2375
524.23987	16010.6375
528.30034	15946.5375
532.35792	15896.8375
536.41261	15770.1375
540.46441	15577.6375
544.51333	15502.9375
548.55936	15617.0375
552.60252	15867.8375
556.64279	16171.5375
560.6802	16380.6375
564.71473	16456.2375
568.7464	16573.2375
572.7752	16795.0375
576.80114	17113.8375
580.82422	17410.3375
584.84444	17976.1375
588.86181	18720.1375
592.87633	19553.5375
596.888	19851.6375
600.89682	19306.0375
604.9028	19196.0375
608.90594	20393.7375
612.90624	21953.7375
616.90371	20793.4375
620.89834	17721.9375
624.89015	16337.0375
628.87913	16129.7375
632.86528	16261.9375
636.84862	16342.8375
640.82913	16149.3375
644.80683	15825.1375
648.78172	15563.8375
652.75379	15550.6375
656.72306	15706.1375
660.68952	15951.7375
664.65319	15883.8375
668.61405	15610.3375
672.57211	15593.5375
676.52738	15716.6375
680.47986	15744.8375
684.42955	15602.7375
688.37646	15481.1375
692.32058	15520.5375
696.26192	15674.3375
700.20048	15857.7375
704.13626	15926.6375
708.06928	15930.5375
711.99952	15822.0375
715.927	15794.0375
719.85171	15852.1375
723.77365	15840.9375
727.69284	15714.7375
731.60928	15566.5375
735.52295	15502.7375
739.43388	15557.0375
743.34206	15618.3375
747.24749	15661.7375
751.15017	15776.7375
755.05012	15949.5375
758.94733	16312.8375
762.8418	16983.3375
766.73354	18153.9375
770.62254	19332.1375
774.50882	19733.5375
778.39237	19069.7375
782.27321	17847.9375
786.15132	16805.6375
790.02671	16130.5375
793.89938	15743.3375
797.76935	15612.6375
801.6366	15530.7375
805.50115	15461.2375
809.36299	15403.8375
813.22213	15286.3375
817.07857	15228.4375
820.93231	15171.7375
824.78336	15142.4375
828.63172	15112.8375
832.47738	15087.4375
836.32036	15137.1375
840.16066	15149.3375
843.99827	15138.7375
847.8332	15134.7375
851.66546	15097.2375
855.49504	15133.8375
859.32195	15130.0375
863.1462	15127.7375
866.96777	15110.3375
870.78668	15103.9375
874.60293	15108.9375
878.41652	15172.6375
882.22745	15270.5375
886.03573	15322.4375
889.84136	15299.3375
893.64433	15225.4375
897.44466	15188.5375
901.24235	15118.7375
905.0374	15085.6375
908.8298	15024.9375
912.61957	15016.4375
916.40671	15076.7375
920.19121	15221.0375
923.97308	15325.9375
927.75233	15413.2375
931.52895	15366.5375
935.30295	15217.7375
939.07433	14972.4375
942.84309	14808.1375
946.60924	14718.9375
950.37278	14684.6375
954.13371	14684.5375
957.89203	14605.7375
961.64774	14615.2375
965.40086	14623.8375
969.15137	14573.9375
972.89929	14561.2375
976.64461	14548.5375
980.38733	14561.5375
984.12747	14618.7375
987.86502	14693.7375
991.59999	14797.9375
995.33237	14948.3375
999.06217	15240.2375
1002.78939	15527.4375
1006.51404	15790.3375
1010.23611	16040.1375
1013.95561	16196.0375
1017.67255	16238.9375
1021.38692	16135.5375
1025.09872	15877.3375
1028.80796	15776.4375
1032.51465	15808.2375
1036.21877	15919.4375
1039.92035	15991.5375
1043.61937	15958.9375
1047.31584	15874.6375
1051.00976	15779.7375
1054.70114	15693.9375
1058.38998	15695.0375
1062.07627	15790.1375
1065.76003	15891.7375
1069.44126	16079.2375
1073.11995	16284.7375
1076.79611	16467.3375
1080.46974	16632.4375
1084.14085	16762.3375
1087.80943	16914.6375
1091.47549	17020.7375
1095.13903	16999.8375
1098.80005	16790.1375
1102.45857	16503.6375
1106.11456	16319.6375
1109.76805	16185.4375
1113.41903	16262.9375
1117.06751	16336.8375
1120.71348	16549.4375
1124.35696	16776.5375
1127.99793	16998.0375
1131.63641	17050.2375
1135.2724	17004.8375
1138.90589	16882.6375
1142.5369	16844.0375
1146.16542	16794.4375
1149.79145	16864.9375
1153.415	16871.4375
1157.03607	16983.4375
1160.65467	17333.9375
1164.27079	17886.6375
1167.88443	18661.8375
1171.49561	19572.0375
1175.10432	20796.3375
1178.71056	22364.1375
1182.31434	23819.9375
1185.91565	24496.6375
1189.51451	24359.4375
1193.11091	23748.0375
1196.70485	22902.4375
1200.29634	22044.6375
1203.88538	21337.4375
1207.47197	20759.3375
1211.05612	20198.6375
1214.63782	19707.1375
1218.21708	19387.8375
1221.79391	19207.2375
1225.36829	19201.9375
1228.94024	19148.6375
1232.50976	18943.4375
1236.07685	18667.7375
1239.6415	18453.0375
1243.20374	18462.6375
1246.76355	18506.7375
1250.32093	18709.9375
1253.8759	18979.1375
1257.42845	19373.5375
1260.97859	19860.2375
1264.52631	20398.9375
1268.07163	20923.4375
1271.61453	21415.3375
1275.15503	21877.0375
1278.69312	22305.8375
1282.22882	22740.0375
1285.76211	23407.0375
1289.29301	24110.6375
1292.82151	25051.0375
1296.34761	26126.3375
1299.87133	27427.9375
1303.39266	28843.6375
1306.9116	30348.3375
1310.42815	31736.8375
1313.94233	32460.7375
1317.45412	32202.0375
1320.96354	31255.9375
1324.47058	30224.5375
1327.97525	29268.4375
1331.47754	28669.4375
1334.97747	28257.9375
1338.47502	28098.7375
1341.97022	28024.7375
1345.46305	28069.8375
1348.95352	28364.0375
1352.44163	28919.8375
1355.92738	30031.2375
1359.41078	31645.8375
1362.89183	33088.7375
1366.37053	32680.7375
1369.84688	30025.8375
1373.32088	26696.9375
1376.79254	24395.2375
1380.26186	23363.0375
1383.72883	23040.7375
1387.19347	22799.8375
1390.65578	22411.0375
1394.11575	22224.6375
1397.57339	22283.7375
1401.0287	22455.5375
1404.48168	22624.9375
1407.93234	22642.7375
1411.38068	22446.2375
1414.82669	22117.0375
1418.27039	21571.6375
1421.71177	21039.4375
1425.15083	20564.8375
1428.58758	20350.9375
1432.02203	20441.9375
1435.45416	20807.6375
1438.88399	21215.8375
1442.31151	21450.9375
1445.73673	21560.0375
1449.15965	21663.0375
1452.58027	21637.6375
1455.9986	21596.3375
1459.41463	21648.5375
1462.82837	21944.5375
1466.23982	22367.2375
1469.64898	22810.9375
1473.05586	23160.0375
1476.46045	23370.6375
1479.86276	23438.3375
1483.26279	23408.4375
1486.66054	23458.3375
1490.05602	23652.9375
1493.44922	24050.5375
1496.84016	24522.7375
1500.22882	25127.0375
1503.61521	25993.0375
1506.99934	26982.6375
1510.38121	27699.7375
1513.76081	27675.3375
1517.13816	26829.4375
1520.51324	25620.5375
1523.88607	24575.1375
1527.25665	24002.5375
1530.62498	23749.7375
1533.99105	23535.9375
1537.35488	23176.8375
1540.71647	22789.5375
1544.07581	22292.5375
1547.4329	21881.2375
1550.78776	21510.8375
1554.14038	21271.4375
1557.49077	21187.9375
1560.83892	21188.8375
1564.18484	21239.9375
1567.52853	21379.5375
1570.86999	21601.7375
1574.20922	21885.6375
1577.54624	22032.8375
1580.88103	21841.5375
1584.2136	21630.9375
1587.54395	21918.9375
1590.87208	22726.2375
1594.19801	23935.4375
1597.52172	25225.1375
1600.84321	25784.2375
1604.16251	25078.4375
1607.47959	23537.0375
1610.79447	21801.6375
1614.10715	20191.5375
1617.41763	18900.4375
1620.7259	18007.9375
1624.03199	17540.3375
1627.33587	17532.5375
1630.63757	17905.9375
1633.93707	18806.7375
1637.23439	20380.8375
1640.52951	22704.5375
1643.82246	25532.8375
1647.11321	27853.0375
1650.40179	28345.6375
1653.68819	26404.9375
1656.97241	23155.3375
1660.25446	20046.1375
1663.53433	17836.4375
1666.81203	16483.6375
1670.08756	15691.9375
1673.36092	15204.8375
1676.63211	14866.2375
1679.90115	14648.1375
1683.16801	14463.1375
1686.43272	14312.8375
1689.69527	14161.0375
1692.95567	14014.5375
1696.2139	13879.6375
1699.46999	13732.6375
1702.72392	13656.3375
1705.97571	13730.2375
1709.22535	13784.2375
1712.47284	13841.6375
1715.71819	13815.6375
1718.96139	13839.0375
1722.20246	13819.7375
1725.44139	13780.8375
1728.67818	13701.5375
1731.91284	13615.9375
1735.14537	13536.1375
1738.37576	13507.3375
1741.60403	13456.5375
1744.83017	13427.7375
1748.05418	13368.8375
1751.27607	13338.9375
1754.49584	13281.1375
1757.71349	13231.0375
1760.92903	13183.9375
1764.14244	13161.4375
1767.35375	13182.9375
1770.56294	13108.8375
1773.77002	13100.2375
1776.97499	13131.1375
1780.17785	13125.1375
1783.37861	13165.9375
1786.57727	13171.1375
1789.77382	13149.4375
1792.96828	13130.3375
1796.16064	13098.3375
1799.3509	13064.8375
1802.53907	13068.0375
1805.72514	13039.3375
1808.90913	12989.9375
1812.09102	12982.1375
1815.27083	12971.4375
1818.44856	12969.0375
1821.6242	12956.9375
1824.79776	12926.9375
1827.96924	12912.1375
1831.13864	12897.3375
1834.30597	12888.8375
1837.47122	12865.5375
1840.6344	12888.4375
1843.7955	12860.7375
1846.95454	12866.8375
1850.11151	12859.2375
1853.26642	12853.4375
1856.41926	12848.9375
1859.57004	12835.9375
1862.71876	12811.3375
1865.86542	12783.9375
1869.01003	12823.1375
1872.15258	12773.9375
1875.29308	12797.8375
1878.43152	12747.2375
1881.56792	12754.6375
1884.70227	12698.7375
1887.83457	12723.0375
1890.96482	12707.4375
1894.09304	12680.7375
1897.21921	12684.2375
1900.34335	12679.5375
1903.46544	12670.1375
1906.58551	12624.1375
1909.70353	12627.8375
1912.81953	12623.9375
1915.93349	12571.4375
1919.04543	12585.3375
1922.15534	12580.3375
1925.26322	12519.7375
1928.36908	12495.9375
1931.47292	12467.2375
1934.57473	12436.4375
1937.67453	12433.1375
1940.77232	12404.3375
1943.86808	12386.6375
1946.96184	12345.4375
1950.05358	12316.2375
1953.14331	12281.8375
1956.23103	12281.0375
1959.31675	12232.9375
1962.40046	12200.0375
1965.48217	12164.8375
1968.56188	12122.7375
1971.63959	12106.3375
1974.7153	12046.7375
1977.78901	12032.9375
1980.86073	11994.3375
1983.93046	11959.2375
1986.99819	11908.1375
1990.06394	11875.2375
1993.1277	11853.6375
1996.18947	11823.1375
1999.24925	11808.9375
2002.30706	11762.0375
2005.36288	11692.2375
2008.41672	11691.6375
2011.46859	11626.9375
2014.51848	11637.1375
2017.56639	11587.8375
2020.61233	11575.8375
2023.6563	11541.4375
2026.6983	11508.1375
2029.73833	11500.7375
2032.7764	11477.7375
2035.8125	11445.6375
2038.84664	11455.4375
2041.87881	11453.7375
2044.90903	11413.0375
2047.93729	11373.4375
2050.96359	11395.3375
2053.98794	11398.9375
2057.01034	11372.5375
2060.03078	11363.2375
2063.04927	11350.7375
2066.06582	11343.3375
2069.08042	11309.7375
2072.09307	11346.0375
2075.10378	11304.1375
2078.11255	11313.4375
2081.11938	11316.5375
2084.12426	11316.9375
2087.12722	11312.5375
2090.12824	11297.2375
2093.12732	11300.4375
2096.12447	11312.1375
2099.11969	11303.7375
2102.11299	11305.5375
2105.10435	11320.1375
2108.09379	11312.8375
2111.08131	11335.6375
2114.0669	11333.9375
2117.05057	11318.2375
2120.03233	11337.2375
2123.01216	11367.7375
2125.99008	11375.3375
2128.96609	11376.4375
2131.94018	11399.6375
2134.91236	11418.2375
2137.88263	11409.8375
2140.851	11409.9375
2143.81746	11442.5375
2146.78201	11444.3375
2149.74466	11438.0375
2152.7054	11428.2375
2155.66425	11444.8375
2158.6212	11423.1375
2161.57625	11437.3375
2164.52941	11403.6375
2167.48067	11405.3375
2170.43004	11397.2375
2173.37752	11426.7375
2176.32311	11385.4375
2179.26681	11419.8375
2182.20863	11401.4375
2185.14856	11422.9375
2188.08661	11446.5375
2191.02278	11425.2375
2193.95707	11389.1375
2196.88948	11362.3375
2199.82001	11405.8375
2202.74867	11406.5375
2205.67545	11406.6375
2208.60037	11356.4375
2211.52341	11335.8375
2214.44458	11358.7375
2217.36388	11308.1375
2220.28132	11310.4375
2223.1969	11281.6375
2226.11061	11290.1375
2229.02246	11237.8375
2231.93245	11220.0375
2234.84058	11218.9375
2237.74686	11198.5375
2240.65128	11216.2375
2243.55385	11205.7375
2246.45456	11220.9375
2249.35343	11162.2375
2252.25044	11146.1375
2255.14561	11128.2375
2258.03893	11124.6375
2260.93041	11080.8375
2263.82004	11071.4375
2266.70783	11032.6375
2269.59378	11021.9375
2272.4779	11003.9375
2275.36017	11008.1375
2278.24061	10984.7375
2281.11922	10946.2375
2283.996	10912.2375
2286.87094	10922.0375
2289.74405	10907.6375
2292.61534	10884.5375
2295.4848	10856.9375
2298.35243	10894.4375
2301.21824	10898.2375
2304.08223	10904.5375
2306.94439	10894.9375
2309.80474	10872.0375
2312.66327	10870.0375
2315.51999	10862.6375
2318.37489	10873.7375
2321.22797	10830.2375
2324.07925	10823.2375
2326.92871	10802.2375
2329.77637	10834.6375
2332.62222	10784.5375
2335.46626	10787.3375
2338.3085	10759.2375
2341.14893	10792.9375
2343.98756	10771.3375
2346.8244	10768.2375
2349.65943	10764.3375
2352.49267	10768.0375
2355.32411	10745.7375
2358.15376	10765.6375
2360.98161	10767.6375
2363.80768	10732.9375
2366.63195	10717.4375
2369.45444	10700.1375
2372.27514	10700.7375
2375.09405	10690.2375
2377.91118	10695.9375
2380.72652	10664.0375
2383.54009	10640.4375
2386.35187	10642.5375
2389.16188	10601.5375
2391.97011	10590.8375
2394.77657	10577.5375
2397.58125	10563.8375
2400.38416	10567.7375
2403.18529	10539.4375
2405.98466	10507.1375
2408.78226	10501.5375
2411.57809	10505.3375
2414.37216	10468.3375
2417.16446	10469.8375
2419.955	10445.5375
2422.74378	10457.1375
2425.5308	10455.2375
2428.31606	10461.8375
2431.09956	10449.3375
2433.88131	10450.8375
2436.6613	10422.2375
2439.43954	10427.5375
2442.21603	10433.1375
2444.99077	10436.0375
2447.76377	10446.1375
2450.53501	10450.5375
2453.30451	10438.1375
2456.07226	10429.8375
2458.83827	10380.2375
2461.60254	10417.1375
2464.36507	10416.9375
2467.12586	10409.1375
2469.88492	10427.7375
2472.64224	10411.2375
2475.39782	10390.6375
2478.15167	10415.5375
2480.90379	10435.8375
2483.65417	10418.0375
2486.40283	10425.5375
2489.14976	10414.3375
2491.89497	10398.5375
2494.63845	10403.3375
2497.3802	10385.5375
2500.12024	10388.9375
2502.85855	10396.3375
2505.59514	10405.7375
2508.33002	10363.8375
2511.06318	10365.1375
2513.79462	10336.5375
2516.52435	10334.4375
2519.25237	10339.3375
2521.97867	10320.3375
2524.70327	10306.0375
2527.42616	10306.2375
2530.14734	10284.2375
2532.86681	10286.1375
2535.58458	10291.9375
2538.30065	10274.4375
2541.01501	10279.4375
2543.72768	10257.0375
2546.43864	10280.7375
2549.14791	10256.2375
2551.85548	10243.5375
2554.56136	10231.6375
2557.26554	10188.3375
2559.96803	10195.9375
2562.66883	10199.7375
2565.36794	10181.3375
2568.06536	10131.1375
2570.7611	10161.6375
2573.45514	10168.7375
2576.14751	10170.1375
2578.83819	10107.7375
2581.52719	10122.3375
2584.21451	10108.0375
2586.90015	10106.4375
2589.58411	10082.6375
2592.2664	10049.4375
2594.94701	10055.3375
2597.62594	10069.7375
2600.30321	10044.2375
2602.9788	10077.2375
2605.65273	10076.5375
2608.32498	10054.2375
2610.99557	10043.1375
2613.66449	10015.4375
2616.33175	10065.7375
2618.99734	10036.4375
2621.66128	10036.3375
2624.32355	10041.0375
2626.98416	10023.3375
2629.64311	9996.2375
2632.30041	9984.4375
2634.95605	9977.2375
2637.61004	9939.3375
2640.26238	9925.6375
2642.91306	9943.2375
2645.56209	9966.9375
2648.20948	9941.1375
2650.85521	9948.4375
2653.4993	9953.0375
2656.14175	9950.3375
2658.78255	9941.1375
2661.42171	9928.5375
2664.05923	9959.1375
2666.6951	9972.8375
2669.32934	9989.2375
2671.96194	9991.3375
2674.59291	9995.6375
2677.22224	9962.1375
2679.84993	9986.5375
2682.476	9956.4375
2685.10043	9977.7375
2687.72324	9962.5375
2690.34441	9968.6375
2692.96396	9956.4375
2695.58188	9972.9375
2698.19818	9932.0375
2700.81285	9945.3375
2703.4259	9921.9375
2706.03733	9868.9375
2708.64714	9934.1375
2711.25533	9947.7375
2713.86191	9932.3375
2716.46687	9975.9375
2719.07021	9994.9375
2721.67194	9996.6375
2724.27206	10008.5375
2726.87057	10006.8375
2729.46747	9998.2375
2732.06276	10002.9375
2734.65644	10010.9375
2737.24852	9993.4375
2739.83899	10013.2375
2742.42786	9999.6375
2745.01513	9985.7375
2747.60079	9977.2375
2750.18486	9997.3375
2752.76733	9978.5375
2755.3482	9971.9375
2757.92747	9979.8375
2760.50515	9961.1375
2763.08123	9928.7375
2765.65573	9925.4375
2768.22863	9894.9375
2770.79994	9891.4375
2773.36967	9911.2375
2775.9378	9910.5375
2778.50435	9878.6375
2781.06932	9888.4375
2783.6327	9894.6375
2786.1945	9906.4375
2788.75471	9900.0375
2791.31335	9865.3375
2793.87041	9858.0375
2796.42589	9827.9375
2798.97979	9828.5375
2801.53212	9816.3375
2804.08288	9784.5375
2806.63206	9764.5375
2809.17967	9761.5375
2811.72571	9762.9375
2814.27018	9721.9375
2816.81308	9730.6375
2819.35442	9743.1375
2821.89419	9704.8375
2824.43239	9691.0375
2826.96904	9701.7375
2829.50412	9705.9375
2832.03763	9683.8375
2834.56959	9676.2375
2837.1	9676.8375
2839.62884	9684.7375
2842.15613	9646.8375
2844.68186	9672.6375
2847.20604	9666.2375
2849.72867	9672.0375
2852.24974	9676.8375
2854.76927	9641.3375
2857.28724	9617.5375
2859.80367	9603.9375
2862.31855	9598.9375
2864.83189	9588.2375
2867.34368	9594.2375
2869.85393	9593.4375
2872.36264	9580.9375
2874.8698	9614.2375
2877.37543	9586.8375
2879.87952	9600.0375
2882.38207	9593.4375
2884.88308	9556.4375
2887.38256	9614.8375
2889.88051	9603.4375
2892.37692	9599.1375
2894.8718	9579.8375
2897.36515	9608.6375
2899.85698	9641.3375
2902.34727	9646.8375
2904.83604	9654.0375
2907.32328	9680.7375
2909.809	9667.1375
2912.29319	9688.1375
2914.77587	9684.2375
2917.25702	9684.5375
2919.73665	9653.6375
2922.21476	9643.2375
2924.69136	9672.6375
2927.16644	9709.4375
2929.64	9658.6375
2932.11205	9636.9375
2934.58258	9612.9375
2937.05161	9633.6375
2939.51912	9632.4375
2941.98513	9610.1375
2944.44962	9615.5375
2946.91261	9590.7375
2949.37409	9621.7375
2951.83407	9599.9375
2954.29254	9592.5375
2956.74951	9567.2375
2959.20498	9556.4375
2961.65895	9532.5375
2964.11142	9540.0375
2966.56239	9521.9375
2969.01186	9514.2375
2971.45984	9501.0375
2973.90632	9524.5375
2976.35131	9481.9375
2978.7948	9459.8375
2981.23681	9426.2375
2983.67732	9431.2375
2986.11635	9401.1375
2988.55388	9364.6375
2990.98993	9353.8375
2993.4245	9342.5375
2995.85758	9311.5375
2998.28917	9284.7375
3000.71928	9306.2375
3003.14791	9278.9375
3005.57506	9277.0375
3008.00073	9252.0375
3010.42493	9248.4375
3012.84764	9260.7375
3015.26888	9251.8375
3017.68865	9209.6375
3020.10694	9217.6375
3022.52376	9169.2375
3024.9391	9181.3375
3027.35298	9146.9375
3029.76539	9130.5375
3032.17632	9131.9375
3034.5858	9124.3375
3036.9938	9134.4375
3039.40034	9140.0375
3041.80542	9114.1375
3044.20903	9092.9375
3046.61118	9093.5375
3049.01187	9094.6375
3051.4111	9101.9375
3053.80888	9064.8375
3056.20519	9046.8375
3058.60005	9037.2375
3060.99345	9019.4375
3063.3854	9000.0375
3065.7759	8993.4375
3068.16494	8970.4375
3070.55254	8945.9375
3072.93868	8904.0375
3075.32338	8906.7375
3077.70662	8856.9375
3080.08842	8850.9375
3082.46878	8855.4375
3084.84769	8848.2375
3087.22515	8851.9375
3089.60118	8853.9375
3091.97576	8833.2375
3094.3489	8854.9375
3096.72061	8851.1375
3099.09087	8866.7375
3101.4597	8851.1375
3103.82709	8845.7375
3106.19305	8824.7375
3108.55757	8851.5375
3110.92066	8812.1375
3113.28232	8817.4375
3115.64255	8758.7375
3118.00134	8787.3375
3120.35871	8763.3375
3122.71466	8764.9375
3125.06917	8760.7375
3127.42226	8733.6375
3129.77393	8721.8375
3132.12417	8739.2375
3134.47299	8714.8375
3136.82039	8729.4375
3139.16636	8723.4375
3141.51092	8696.4375
3143.85406	8714.9375
3146.19579	8706.7375
3148.53609	8718.0375
3150.87499	8726.7375
3153.21246	8736.5375
3155.54853	8763.2375
3157.88318	8734.5375
3160.21642	8758.9375
3162.54826	8748.2375
3164.87868	8754.3375
3167.2077	8755.8375
3169.5353	8761.2375
3171.86151	8760.6375
3174.18631	8750.7375
3176.5097	8750.7375
3178.83169	8751.5375
3181.15228	8743.2375
3183.47147	8695.5375
3185.78926	8727.3375
3188.10565	8705.4375
3190.42065	8716.0375
3192.73424	8720.8375
3195.04645	8706.8375
3197.35725	8678.9375
3199.66667	8688.0375
3201.97469	8679.2375
3204.28132	8686.0375
3206.58656	8683.1375
3208.8904	8692.5375
3211.19287	8708.6375
3213.49394	8705.6375
3215.79363	8702.3375
3218.09193	8708.9375
3220.38884	8694.7375
3222.68438	8707.3375
3224.97853	8692.6375
3227.2713	8690.5375
3229.56269	8695.6375
3231.8527	8688.7375
3234.14133	8654.5375
3236.42858	8651.6375
3238.71446	8618.0375
3240.99896	8622.6375
3243.28209	8615.2375
3245.56384	8613.0375
3247.84423	8615.5375
3250.12324	8602.7375
3252.40088	8601.9375
3254.67715	8611.6375
3256.95205	8598.1375
3259.22558	8602.5375
3261.49775	8574.0375
3263.76855	8582.7375
3266.03799	8559.8375
3268.30606	8546.7375
3270.57277	8551.4375
3272.83812	8534.2375
3275.10211	8511.2375
3277.36474	8484.7375
3279.62601	8491.6375
3281.88593	8493.9375
3284.14448	8480.9375
3286.40168	8460.4375
3288.65753	8505.0375
3290.91202	8493.0375
3293.16516	8470.4375
3295.41695	8459.5375
3297.66738	8394.8375
3299.91647	8365.0375
3302.16421	8304.2375
3304.4106	8271.4375
3306.65564	8222.1375
3308.89933	8152.5375
3311.14169	8105.7375
3313.38269	8043.8375
3315.62236	7999.7375
3317.86068	7927.5375
3320.09766	7866.9375
3322.3333	7824.7375
3324.5676	7809.0375
3326.80056	7642.8375
3329.03219	7624.0375
3331.26248	1.5375
3333.49143	0.0375
3335.71905	1.4375
