Data from AgNPs_FTO_APTES_UA_50uM_CRN_100uM_R6G_10uM_NaF_0.1M_Addition_RamanShift__29__15-49-45-054.txt Node

Date: Mon Feb 21 15:49:45 GMT 2022
User: TCL
Spectrometer: QEP01345
Trigger mode: 4
Integration Time (sec): 7.000000E0
Scans to average: 10
Electric dark correction enabled: true
Nonlinearity correction enabled: false
Boxcar width: 0
XAxis mode: Raman Shifts
Number of Pixels in Spectrum: 1044
>>>>>Begin Spectral Data<<<<<
46.04893	0.1375
50.45542	-0.4625
54.85868	-0.6625
59.25871	-1.6625
63.6555	39.2375
68.04907	44.2375
72.43941	44.0375
76.82654	49.5375
81.21044	49.3375
85.59113	55.0375
89.96862	52.9375
94.34289	56.5375
98.71396	57.8375
103.08183	62.4375
107.4465	61.7375
111.80798	60.8375
116.16626	59.5375
120.52136	60.3375
124.87327	69.4375
129.222	66.0375
133.56755	69.7375
137.90993	73.6375
142.24913	76.5375
146.58517	84.1375
150.91804	96.2375
155.24774	113.5375
159.57429	131.6375
163.89768	167.4375
168.21792	216.7375
172.53501	298.8375
176.84895	404.4375
181.15975	565.9375
185.46741	785.8375
189.77193	1087.6375
194.07331	1448.6375
198.37157	1867.7375
202.6667	2298.4375
206.9587	2769.9375
211.24758	3199.4375
215.53334	3696.1375
219.81599	4251.7375
224.09553	4877.7375
228.37195	5592.2375
232.64527	6413.1375
236.91549	7177.0375
241.18261	7847.6375
245.44663	8379.0375
249.70755	8741.2375
253.96539	9043.4375
258.22014	9248.2375
262.4718	9370.5375
266.72039	9478.4375
270.96589	9485.3375
275.20832	9378.4375
279.44768	9144.1375
283.68397	8886.1375
287.91719	8784.6375
292.14735	8846.9375
296.37445	9246.6375
300.59849	9928.4375
304.81948	10736.6375
309.03742	11358.7375
313.25231	11377.6375
317.46415	10630.4375
321.67296	9381.5375
325.87872	8414.1375
330.08145	7980.2375
334.28114	7968.3375
338.47781	8198.4375
342.67145	8568.8375
346.86207	9157.4375
351.04966	10050.2375
355.23424	11031.6375
359.4158	11790.2375
363.59435	12073.2375
367.76989	12134.7375
371.94243	12017.8375
376.11196	11838.9375
380.27849	11697.6375
384.44203	11411.7375
388.60257	11091.4375
392.76012	10821.8375
396.91468	10886.5375
401.06626	11233.1375
405.21485	11465.8375
409.36047	11086.7375
413.50311	10076.5375
417.64277	9143.5375
421.77947	8583.7375
425.9132	8339.9375
430.04396	8230.2375
434.17176	8255.5375
438.2966	8436.2375
442.41849	8695.5375
446.53742	9027.4375
450.6534	9308.7375
454.76644	9449.6375
458.87653	9447.8375
462.98368	9296.5375
467.08789	9082.5375
471.18916	8780.4375
475.2875	8480.1375
479.38291	8233.3375
483.4754	8059.8375
487.56496	7922.0375
491.6516	7860.7375
495.73531	7849.2375
499.81612	7918.3375
503.89401	8087.4375
507.96899	8336.0375
512.04106	8661.3375
516.11023	8998.4375
520.1765	9257.6375
524.23987	9183.1375
528.30034	8923.1375
532.35792	8613.9375
536.41261	8298.5375
540.46441	7969.2375
544.51333	7777.6375
548.55936	7807.2375
552.60252	8046.1375
556.64279	8325.7375
560.6802	8483.8375
564.71473	8758.4375
568.7464	9392.4375
572.7752	9698.5375
576.80114	9062.6375
580.82422	8357.1375
584.84444	8045.8375
588.86181	7958.5375
592.87633	8012.2375
596.888	8146.9375
600.89682	8698.2375
604.9028	10494.6375
608.90594	15529.2375
612.90624	22461.5375
616.90371	21435.1375
620.89834	13033.3375
624.89015	9166.6375
628.87913	8466.7375
632.86528	8601.5375
636.84862	8883.9375
640.82913	8717.7375
644.80683	8089.5375
648.78172	7659.3375
652.75379	7688.0375
656.72306	8300.3375
660.68952	8972.9375
664.65319	8757.6375
668.61405	7978.2375
672.57211	7592.2375
676.52738	7576.1375
680.47986	7579.4375
684.42955	7478.9375
688.37646	7411.7375
692.32058	7411.3375
696.26192	7471.5375
700.20048	7595.7375
704.13626	7690.8375
708.06928	7652.1375
711.99952	7550.8375
715.927	7538.5375
719.85171	7636.7375
723.77365	7695.2375
727.69284	7612.7375
731.60928	7542.8375
735.52295	7530.9375
739.43388	7579.9375
743.34206	7635.3375
747.24749	7657.3375
751.15017	7684.7375
755.05012	7900.3375
758.94733	8525.8375
762.8418	10083.0375
766.73354	12722.3375
770.62254	15540.4375
774.50882	17276.5375
778.39237	16649.0375
782.27321	13641.6375
786.15132	10533.1375
790.02671	8812.2375
793.89938	8123.8375
797.76935	7808.9375
801.6366	7700.4375
805.50115	7640.5375
809.36299	7617.7375
813.22213	7558.7375
817.07857	7538.9375
820.93231	7537.9375
824.78336	7528.0375
828.63172	7572.7375
832.47738	7596.0375
836.32036	7555.1375
840.16066	7504.2375
843.99827	7455.9375
847.8332	7421.6375
851.66546	7426.9375
855.49504	7409.6375
859.32195	7424.1375
863.1462	7338.0375
866.96777	7333.1375
870.78668	7323.0375
874.60293	7358.2375
878.41652	7440.1375
882.22745	7517.8375
886.03573	7618.8375
889.84136	7583.2375
893.64433	7506.4375
897.44466	7499.1375
901.24235	7497.4375
905.0374	7447.7375
908.8298	7367.3375
912.61957	7316.6375
916.40671	7310.0375
920.19121	7347.9375
923.97308	7434.3375
927.75233	7628.4375
931.52895	7854.9375
935.30295	7757.6375
939.07433	7414.1375
942.84309	7098.2375
946.60924	6926.4375
950.37278	6846.0375
954.13371	6807.7375
957.89203	6790.4375
961.64774	6745.3375
965.40086	6732.2375
969.15137	6712.3375
972.89929	6699.6375
976.64461	6678.8375
980.38733	6682.3375
984.12747	6715.0375
987.86502	6740.8375
991.59999	6801.1375
995.33237	6878.8375
999.06217	7044.1375
1002.78939	7251.5375
1006.51404	7439.7375
1010.23611	7667.0375
1013.95561	7811.7375
1017.67255	7793.8375
1021.38692	7684.4375
1025.09872	7504.4375
1028.80796	7450.8375
1032.51465	7482.0375
1036.21877	7638.3375
1039.92035	7726.0375
1043.61937	7744.4375
1047.31584	7733.9375
1051.00976	7665.2375
1054.70114	7566.0375
1058.38998	7549.0375
1062.07627	7553.5375
1065.76003	7573.3375
1069.44126	7592.0375
1073.11995	7683.8375
1076.79611	7864.2375
1080.46974	8182.0375
1084.14085	8589.1375
1087.80943	9004.1375
1091.47549	9109.9375
1095.13903	8784.4375
1098.80005	8320.3375
1102.45857	7978.9375
1106.11456	7930.5375
1109.76805	8106.3375
1113.41903	8500.0375
1117.06751	9134.6375
1120.71348	9888.0375
1124.35696	10733.8375
1127.99793	11286.7375
1131.63641	10960.6375
1135.2724	9971.2375
1138.90589	9130.5375
1142.5369	8651.5375
1146.16542	8308.4375
1149.79145	8100.3375
1153.415	8059.8375
1157.03607	8132.7375
1160.65467	8329.7375
1164.27079	8736.0375
1167.88443	9362.3375
1171.49561	10423.9375
1175.10432	12358.6375
1178.71056	14897.5375
1182.31434	16670.6375
1185.91565	16835.1375
1189.51451	15872.9375
1193.11091	14300.0375
1196.70485	12724.9375
1200.29634	11765.4375
1203.88538	11063.3375
1207.47197	10136.2375
1211.05612	9270.5375
1214.63782	8784.9375
1218.21708	8562.2375
1221.79391	8506.1375
1225.36829	8543.9375
1228.94024	8565.6375
1232.50976	8551.8375
1236.07685	8567.2375
1239.6415	8637.1375
1243.20374	8730.1375
1246.76355	8848.8375
1250.32093	8969.4375
1253.8759	9223.5375
1257.42845	9539.9375
1260.97859	9968.0375
1264.52631	10371.5375
1268.07163	10821.0375
1271.61453	11184.7375
1275.15503	11445.4375
1278.69312	11450.0375
1282.22882	11539.6375
1285.76211	11852.9375
1289.29301	12341.3375
1292.82151	12854.8375
1296.34761	13436.7375
1299.87133	14467.1375
1303.39266	16386.7375
1306.9116	19361.6375
1310.42815	22425.9375
1313.94233	23496.4375
1317.45412	21864.7375
1320.96354	19042.1375
1324.47058	16315.0375
1327.97525	14216.8375
1331.47754	13095.0375
1334.97747	12813.4375
1338.47502	13129.9375
1341.97022	13983.4375
1345.46305	15385.0375
1348.95352	17322.5375
1352.44163	19694.2375
1355.92738	23150.5375
1359.41078	28216.6375
1362.89183	32090.0375
1366.37053	29879.0375
1369.84688	23680.6375
1373.32088	18337.7375
1376.79254	14970.0375
1380.26186	13144.4375
1383.72883	12100.0375
1387.19347	11315.2375
1390.65578	10605.9375
1394.11575	10027.9375
1397.57339	9754.1375
1401.0287	9673.2375
1404.48168	9732.0375
1407.93234	9842.3375
1411.38068	10019.3375
1414.82669	10208.5375
1418.27039	10257.9375
1421.71177	10196.2375
1425.15083	10052.6375
1428.58758	9987.6375
1432.02203	10085.6375
1435.45416	10211.3375
1438.88399	10201.7375
1442.31151	10148.5375
1445.73673	10171.1375
1449.15965	10213.6375
1452.58027	10186.2375
1455.9986	10029.2375
1459.41463	9968.8375
1462.82837	10120.9375
1466.23982	10371.6375
1469.64898	10667.4375
1473.05586	10848.5375
1476.46045	10982.1375
1479.86276	11286.1375
1483.26279	11712.0375
1486.66054	12268.0375
1490.05602	13065.9375
1493.44922	14240.4375
1496.84016	16069.2375
1500.22882	18991.9375
1503.61521	22953.9375
1506.99934	27302.7375
1510.38121	30761.4375
1513.76081	31400.0375
1517.13816	28242.3375
1520.51324	23021.1375
1523.88607	18344.7375
1527.25665	15377.9375
1530.62498	13741.0375
1533.99105	12800.6375
1537.35488	12211.9375
1540.71647	12001.8375
1544.07581	11955.6375
1547.4329	12093.1375
1550.78776	12203.2375
1554.14038	12353.5375
1557.49077	12560.9375
1560.83892	12964.3375
1564.18484	13602.6375
1567.52853	14390.8375
1570.86999	15016.7375
1574.20922	15319.8375
1577.54624	15041.5375
1580.88103	13764.9375
1584.2136	12165.2375
1587.54395	11200.6375
1590.87208	11108.6375
1594.19801	11760.9375
1597.52172	12829.5375
1600.84321	13296.6375
1604.16251	12815.8375
1607.47959	11906.1375
1610.79447	10981.8375
1614.10715	10067.5375
1617.41763	9334.4375
1620.7259	8887.7375
1624.03199	8733.5375
1627.33587	8764.5375
1630.63757	9012.7375
1633.93707	9543.5375
1637.23439	10410.9375
1640.52951	11754.2375
1643.82246	13902.5375
1647.11321	16687.6375
1650.40179	18731.6375
1653.68819	18092.8375
1656.97241	15065.9375
1660.25446	11840.1375
1663.53433	9731.6375
1666.81203	8558.3375
1670.08756	7924.7375
1673.36092	7557.0375
1676.63211	7312.2375
1679.90115	7150.7375
1683.16801	7014.8375
1686.43272	6918.3375
1689.69527	6828.3375
1692.95567	6711.2375
1696.2139	6606.1375
1699.46999	6503.8375
1702.72392	6472.1375
1705.97571	6539.9375
1709.22535	6607.3375
1712.47284	6689.3375
1715.71819	6746.5375
1718.96139	6758.1375
1722.20246	6756.6375
1725.44139	6713.8375
1728.67818	6667.6375
1731.91284	6564.7375
1735.14537	6503.2375
1738.37576	6452.1375
1741.60403	6413.0375
1744.83017	6385.2375
1748.05418	6355.9375
1751.27607	6314.0375
1754.49584	6244.8375
1757.71349	6169.1375
1760.92903	6132.9375
1764.14244	6113.8375
1767.35375	6099.9375
1770.56294	6090.6375
1773.77002	6053.9375
1776.97499	6065.1375
1780.17785	6127.9375
1783.37861	6113.9375
1786.57727	6139.3375
1789.77382	6129.3375
1792.96828	6115.5375
1796.16064	6109.4375
1799.3509	6092.5375
1802.53907	6086.2375
1805.72514	6055.4375
1808.90913	6050.0375
1812.09102	6024.5375
1815.27083	6005.6375
1818.44856	5995.9375
1821.6242	5990.9375
1824.79776	5981.2375
1827.96924	5955.5375
1831.13864	5948.9375
1834.30597	5937.9375
1837.47122	5941.0375
1840.6344	5922.0375
1843.7955	5911.7375
1846.95454	5915.2375
1850.11151	5918.3375
1853.26642	5893.9375
1856.41926	5901.0375
1859.57004	5925.4375
1862.71876	5904.9375
1865.86542	5898.3375
1869.01003	5890.7375
1872.15258	5895.3375
1875.29308	5882.2375
1878.43152	5897.7375
1881.56792	5877.2375
1884.70227	5890.7375
1887.83457	5880.7375
1890.96482	5881.4375
1894.09304	5870.3375
1897.21921	5873.1375
1900.34335	5868.8375
1903.46544	5864.6375
1906.58551	5875.0375
1909.70353	5850.8375
1912.81953	5858.1375
1915.93349	5858.8375
1919.04543	5848.3375
1922.15534	5845.5375
1925.26322	5813.8375
1928.36908	5815.9375
1931.47292	5794.7375
1934.57473	5771.0375
1937.67453	5760.5375
1940.77232	5726.6375
1943.86808	5718.1375
1946.96184	5706.2375
1950.05358	5681.7375
1953.14331	5663.8375
1956.23103	5657.8375
1959.31675	5629.5375
1962.40046	5621.8375
1965.48217	5609.5375
1968.56188	5612.7375
1971.63959	5608.7375
1974.7153	5585.6375
1977.78901	5569.5375
1980.86073	5540.8375
1983.93046	5501.6375
1986.99819	5481.5375
1990.06394	5459.8375
1993.1277	5443.4375
1996.18947	5429.9375
1999.24925	5392.6375
2002.30706	5375.6375
2005.36288	5367.9375
2008.41672	5350.3375
2011.46859	5343.9375
2014.51848	5323.2375
2017.56639	5314.8375
2020.61233	5287.0375
2023.6563	5282.7375
2026.6983	5272.9375
2029.73833	5264.3375
2032.7764	5238.3375
2035.8125	5220.3375
2038.84664	5230.7375
2041.87881	5225.3375
2044.90903	5211.6375
2047.93729	5204.6375
2050.96359	5175.7375
2053.98794	5187.9375
2057.01034	5181.6375
2060.03078	5186.8375
2063.04927	5167.7375
2066.06582	5164.7375
2069.08042	5147.3375
2072.09307	5140.7375
2075.10378	5110.4375
2078.11255	5137.8375
2081.11938	5135.5375
2084.12426	5112.1375
2087.12722	5121.6375
2090.12824	5114.2375
2093.12732	5116.8375
2096.12447	5125.4375
2099.11969	5118.0375
2102.11299	5127.5375
2105.10435	5136.9375
2108.09379	5110.5375
2111.08131	5131.4375
2114.0669	5109.2375
2117.05057	5136.4375
2120.03233	5143.2375
2123.01216	5150.5375
2125.99008	5160.4375
2128.96609	5165.8375
2131.94018	5162.3375
2134.91236	5155.1375
2137.88263	5141.1375
2140.851	5155.8375
2143.81746	5160.5375
2146.78201	5174.7375
2149.74466	5138.1375
2152.7054	5138.1375
2155.66425	5134.6375
2158.6212	5134.5375
2161.57625	5111.8375
2164.52941	5115.4375
2167.48067	5102.3375
2170.43004	5123.9375
2173.37752	5121.4375
2176.32311	5107.8375
2179.26681	5116.4375
2182.20863	5108.1375
2185.14856	5121.9375
2188.08661	5133.8375
2191.02278	5128.9375
2193.95707	5111.5375
2196.88948	5088.5375
2199.82001	5088.5375
2202.74867	5080.5375
2205.67545	5101.7375
2208.60037	5086.4375
2211.52341	5080.1375
2214.44458	5085.2375
2217.36388	5054.4375
2220.28132	5068.7375
2223.1969	5051.1375
2226.11061	5035.4375
2229.02246	5022.5375
2231.93245	5000.3375
2234.84058	5000.9375
2237.74686	4994.3375
2240.65128	4983.0375
2243.55385	4976.4375
2246.45456	4983.1375
2249.35343	4974.6375
2252.25044	4962.0375
2255.14561	4962.9375
2258.03893	4974.2375
2260.93041	4963.2375
2263.82004	4961.5375
2266.70783	4984.4375
2269.59378	4949.8375
2272.4779	4946.0375
2275.36017	4927.7375
2278.24061	4927.0375
2281.11922	4912.8375
2283.996	4879.6375
2286.87094	4892.8375
2289.74405	4858.3375
2292.61534	4858.2375
2295.4848	4843.0375
2298.35243	4824.7375
2301.21824	4847.6375
2304.08223	4843.5375
2306.94439	4829.5375
2309.80474	4826.6375
2312.66327	4840.7375
2315.51999	4832.8375
2318.37489	4817.0375
2321.22797	4827.9375
2324.07925	4821.8375
2326.92871	4788.1375
2329.77637	4815.9375
2332.62222	4799.5375
2335.46626	4789.5375
2338.3085	4770.2375
2341.14893	4800.8375
2343.98756	4798.2375
2346.8244	4801.0375
2349.65943	4815.6375
2352.49267	4822.2375
2355.32411	4838.2375
2358.15376	4835.4375
2360.98161	4849.6375
2363.80768	4877.4375
2366.63195	4886.4375
2369.45444	4892.4375
2372.27514	4874.0375
2375.09405	4864.9375
2377.91118	4850.1375
2380.72652	4831.3375
2383.54009	4798.1375
2386.35187	4778.2375
2389.16188	4741.0375
2391.97011	4717.6375
2394.77657	4686.4375
2397.58125	4677.8375
2400.38416	4681.5375
2403.18529	4652.4375
2405.98466	4651.6375
2408.78226	4637.8375
2411.57809	4608.2375
2414.37216	4613.3375
2417.16446	4599.5375
2419.955	4611.5375
2422.74378	4616.9375
2425.5308	4610.4375
2428.31606	4594.7375
2431.09956	4614.3375
2433.88131	4610.6375
2436.6613	4613.2375
2439.43954	4605.5375
2442.21603	4623.1375
2444.99077	4617.6375
2447.76377	4645.5375
2450.53501	4634.4375
2453.30451	4639.5375
2456.07226	4613.4375
2458.83827	4630.5375
2461.60254	4620.4375
2464.36507	4621.2375
2467.12586	4615.9375
2469.88492	4625.2375
2472.64224	4617.5375
2475.39782	4613.4375
2478.15167	4612.9375
2480.90379	4637.0375
2483.65417	4670.3375
2486.40283	4673.3375
2489.14976	4709.5375
2491.89497	4693.7375
2494.63845	4701.8375
2497.3802	4693.2375
2500.12024	4690.0375
2502.85855	4665.9375
2505.59514	4642.2375
2508.33002	4610.1375
2511.06318	4587.0375
2513.79462	4577.2375
2516.52435	4540.9375
2519.25237	4522.8375
2521.97867	4482.0375
2524.70327	4484.5375
2527.42616	4475.0375
2530.14734	4464.0375
2532.86681	4474.0375
2535.58458	4474.6375
2538.30065	4473.4375
2541.01501	4480.2375
2543.72768	4451.4375
2546.43864	4455.9375
2549.14791	4448.5375
2551.85548	4459.1375
2554.56136	4453.2375
2557.26554	4465.4375
2559.96803	4461.2375
2562.66883	4461.6375
2565.36794	4446.4375
2568.06536	4452.9375
2570.7611	4439.5375
2573.45514	4431.1375
2576.14751	4416.4375
2578.83819	4406.4375
2581.52719	4380.0375
2584.21451	4378.2375
2586.90015	4369.4375
2589.58411	4370.2375
2592.2664	4361.5375
2594.94701	4345.3375
2597.62594	4356.6375
2600.30321	4357.1375
2602.9788	4340.7375
2605.65273	4355.5375
2608.32498	4356.4375
2610.99557	4353.3375
2613.66449	4373.5375
2616.33175	4356.2375
2618.99734	4370.7375
2621.66128	4352.8375
2624.32355	4356.1375
2626.98416	4352.9375
2629.64311	4335.2375
2632.30041	4317.2375
2634.95605	4306.0375
2637.61004	4287.1375
2640.26238	4292.3375
2642.91306	4278.2375
2645.56209	4278.4375
2648.20948	4264.3375
2650.85521	4248.6375
2653.4993	4277.4375
2656.14175	4256.5375
2658.78255	4262.7375
2661.42171	4274.0375
2664.05923	4286.9375
2666.6951	4297.1375
2669.32934	4307.8375
2671.96194	4315.8375
2674.59291	4311.9375
2677.22224	4317.4375
2679.84993	4314.3375
2682.476	4311.2375
2685.10043	4301.5375
2687.72324	4306.4375
2690.34441	4301.4375
2692.96396	4323.3375
2695.58188	4307.8375
2698.19818	4292.4375
2700.81285	4299.7375
2703.4259	4283.6375
2706.03733	4212.9375
2708.64714	4252.3375
2711.25533	4271.3375
2713.86191	4279.9375
2716.46687	4296.6375
2719.07021	4327.5375
2721.67194	4323.6375
2724.27206	4319.0375
2726.87057	4329.4375
2729.46747	4319.6375
2732.06276	4313.4375
2734.65644	4306.2375
2737.24852	4297.7375
2739.83899	4303.3375
2742.42786	4287.4375
2745.01513	4265.4375
2747.60079	4279.7375
2750.18486	4266.1375
2752.76733	4259.6375
2755.3482	4243.5375
2757.92747	4240.8375
2760.50515	4236.5375
2763.08123	4229.5375
2765.65573	4231.3375
2768.22863	4209.7375
2770.79994	4200.0375
2773.36967	4202.4375
2775.9378	4206.2375
2778.50435	4209.8375
2781.06932	4208.3375
2783.6327	4212.9375
2786.1945	4205.5375
2788.75471	4215.3375
2791.31335	4204.5375
2793.87041	4199.2375
2796.42589	4212.7375
2798.97979	4199.6375
2801.53212	4198.4375
2804.08288	4214.5375
2806.63206	4193.4375
2809.17967	4189.9375
2811.72571	4203.6375
2814.27018	4202.9375
2816.81308	4199.9375
2819.35442	4226.7375
2821.89419	4236.4375
2824.43239	4249.7375
2826.96904	4250.1375
2829.50412	4248.9375
2832.03763	4249.1375
2834.56959	4249.2375
2837.1	4255.9375
2839.62884	4262.7375
2842.15613	4277.4375
2844.68186	4317.7375
2847.20604	4356.7375
2849.72867	4389.2375
2852.24974	4405.8375
2854.76927	4390.1375
2857.28724	4379.5375
2859.80367	4382.3375
2862.31855	4380.0375
2864.83189	4387.5375
2867.34368	4376.2375
2869.85393	4381.0375
2872.36264	4379.1375
2874.8698	4374.1375
2877.37543	4367.4375
2879.87952	4377.1375
2882.38207	4371.3375
2884.88308	4359.9375
2887.38256	4346.4375
2889.88051	4348.8375
2892.37692	4342.7375
2894.8718	4352.3375
2897.36515	4337.2375
2899.85698	4337.3375
2902.34727	4347.2375
2904.83604	4355.0375
2907.32328	4350.9375
2909.809	4343.2375
2912.29319	4354.6375
2914.77587	4357.2375
2917.25702	4340.0375
2919.73665	4342.4375
2922.21476	4331.6375
2924.69136	4329.8375
2927.16644	4311.7375
2929.64	4318.2375
2932.11205	4289.0375
2934.58258	4284.0375
2937.05161	4289.9375
2939.51912	4270.7375
2941.98513	4251.4375
2944.44962	4219.4375
2946.91261	4190.2375
2949.37409	4189.3375
2951.83407	4171.1375
2954.29254	4168.7375
2956.74951	4139.1375
2959.20498	4139.0375
2961.65895	4124.2375
2964.11142	4126.0375
2966.56239	4105.6375
2969.01186	4098.4375
2971.45984	4081.2375
2973.90632	4075.7375
2976.35131	4055.3375
2978.7948	4034.0375
2981.23681	4039.5375
2983.67732	4029.3375
2986.11635	4020.2375
2988.55388	4007.1375
2990.98993	4005.6375
2993.4245	3994.1375
2995.85758	3981.4375
2998.28917	3984.4375
3000.71928	3958.7375
3003.14791	3977.2375
3005.57506	3963.5375
3008.00073	3951.8375
3010.42493	3954.7375
3012.84764	3956.2375
3015.26888	3941.6375
3017.68865	3950.8375
3020.10694	3931.6375
3022.52376	3925.1375
3024.9391	3916.1375
3027.35298	3897.5375
3029.76539	3908.0375
3032.17632	3899.5375
3034.5858	3901.4375
3036.9938	3878.9375
3039.40034	3869.2375
3041.80542	3869.6375
3044.20903	3858.1375
3046.61118	3861.7375
3049.01187	3857.7375
3051.4111	3845.9375
3053.80888	3846.3375
3056.20519	3824.2375
3058.60005	3821.5375
3060.99345	3821.0375
3063.3854	3809.8375
3065.7759	3797.3375
3068.16494	3780.9375
3070.55254	3775.9375
3072.93868	3765.6375
3075.32338	3743.1375
3077.70662	3756.8375
3080.08842	3731.0375
3082.46878	3720.6375
3084.84769	3706.3375
3087.22515	3702.8375
3089.60118	3707.4375
3091.97576	3698.2375
3094.3489	3715.3375
3096.72061	3710.2375
3099.09087	3698.8375
3101.4597	3701.9375
3103.82709	3707.0375
3106.19305	3700.5375
3108.55757	3709.9375
3110.92066	3703.9375
3113.28232	3686.5375
3115.64255	3683.3375
3118.00134	3660.1375
3120.35871	3668.8375
3122.71466	3684.5375
3125.06917	3672.3375
3127.42226	3680.1375
3129.77393	3671.0375
3132.12417	3676.2375
3134.47299	3675.9375
3136.82039	3674.1375
3139.16636	3680.1375
3141.51092	3680.4375
3143.85406	3687.6375
3146.19579	3680.8375
3148.53609	3692.4375
3150.87499	3700.1375
3153.21246	3695.6375
3155.54853	3725.0375
3157.88318	3721.4375
3160.21642	3721.7375
3162.54826	3717.2375
3164.87868	3720.5375
3167.2077	3728.7375
3169.5353	3723.7375
3171.86151	3732.6375
3174.18631	3721.6375
3176.5097	3723.2375
3178.83169	3709.1375
3181.15228	3719.8375
3183.47147	3728.2375
3185.78926	3731.5375
3188.10565	3724.0375
3190.42065	3742.4375
3192.73424	3737.4375
3195.04645	3751.4375
3197.35725	3736.8375
3199.66667	3756.8375
3201.97469	3756.8375
3204.28132	3739.9375
3206.58656	3759.1375
3208.8904	3760.4375
3211.19287	3771.9375
3213.49394	3768.9375
3215.79363	3797.7375
3218.09193	3789.9375
3220.38884	3783.0375
3222.68438	3761.9375
3224.97853	3776.9375
3227.2713	3776.6375
3229.56269	3769.3375
3231.8527	3775.0375
3234.14133	3778.5375
3236.42858	3773.6375
3238.71446	3755.8375
3240.99896	3752.8375
3243.28209	3753.8375
3245.56384	3754.3375
3247.84423	3746.4375
3250.12324	3740.5375
3252.40088	3754.4375
3254.67715	3749.6375
3256.95205	3749.4375
3259.22558	3753.3375
3261.49775	3727.7375
3263.76855	3732.4375
3266.03799	3733.3375
3268.30606	3734.6375
3270.57277	3733.2375
3272.83812	3715.2375
3275.10211	3717.4375
3277.36474	3705.9375
3279.62601	3702.9375
3281.88593	3700.4375
3284.14448	3714.1375
3286.40168	3706.4375
3288.65753	3718.8375
3290.91202	3704.1375
3293.16516	3683.5375
3295.41695	3698.5375
3297.66738	3669.0375
3299.91647	3649.7375
3302.16421	3632.3375
3304.4106	3605.5375
3306.65564	3589.5375
3308.89933	3562.0375
3311.14169	3547.6375
3313.38269	3496.6375
3315.62236	3474.0375
3317.86068	3443.5375
3320.09766	3421.9375
3322.3333	3398.2375
3324.5676	3379.8375
3326.80056	3302.8375
3329.03219	3290.3375
3331.26248	1.5375
3333.49143	0.0375
3335.71905	1.0375
