Data from AgNPs_FTO_APTES_UA_50uM_CRN_500uM_R6G_10uM_NaF_0.1M_Addition_RamanShift__14__16-58-13-535.txt Node

Date: Mon Feb 21 16:58:13 GMT 2022
User: TCL
Spectrometer: QEP01345
Trigger mode: 4
Integration Time (sec): 7.000000E0
Scans to average: 10
Electric dark correction enabled: true
Nonlinearity correction enabled: false
Boxcar width: 0
XAxis mode: Raman Shifts
Number of Pixels in Spectrum: 1044
>>>>>Begin Spectral Data<<<<<
46.04893	0.3375
50.45542	-2.0625
54.85868	-0.0625
59.25871	-2.0625
63.6555	44.9375
68.04907	47.4375
72.43941	52.3375
76.82654	53.1375
81.21044	57.2375
85.59113	55.9375
89.96862	59.7375
94.34289	58.0375
98.71396	65.4375
103.08183	65.6375
107.4465	69.3375
111.80798	71.9375
116.16626	68.8375
120.52136	73.2375
124.87327	70.8375
129.222	72.5375
133.56755	73.6375
137.90993	78.3375
142.24913	81.2375
146.58517	88.8375
150.91804	94.0375
155.24774	106.2375
159.57429	124.2375
163.89768	160.8375
168.21792	202.0375
172.53501	271.1375
176.84895	370.1375
181.15975	523.1375
185.46741	725.2375
189.77193	989.8375
194.07331	1334.1375
198.37157	1713.0375
202.6667	2135.5375
206.9587	2537.1375
211.24758	2935.6375
215.53334	3338.7375
219.81599	3752.3375
224.09553	4201.4375
228.37195	4710.6375
232.64527	5251.8375
236.91549	5855.8375
241.18261	6443.5375
245.44663	7021.1375
249.70755	7512.9375
253.96539	7922.9375
258.22014	8258.1375
262.4718	8536.9375
266.72039	8711.9375
270.96589	8801.1375
275.20832	8776.3375
279.44768	8677.0375
283.68397	8572.7375
287.91719	8430.5375
292.14735	8324.4375
296.37445	8283.2375
300.59849	8268.1375
304.81948	8310.1375
309.03742	8297.2375
313.25231	8251.1375
317.46415	8143.2375
321.67296	7991.4375
325.87872	7859.7375
330.08145	7806.3375
334.28114	7807.9375
338.47781	7865.8375
342.67145	7973.7375
346.86207	8089.3375
351.04966	8263.5375
355.23424	8407.0375
359.4158	8519.8375
363.59435	8612.5375
367.76989	8742.7375
371.94243	8786.5375
376.11196	8846.7375
380.27849	8885.2375
384.44203	8964.2375
388.60257	9002.8375
392.76012	9054.7375
396.91468	9131.2375
401.06626	9240.8375
405.21485	9326.8375
409.36047	9307.2375
413.50311	9165.7375
417.64277	9060.8375
421.77947	8998.1375
425.9132	8982.4375
430.04396	9013.1375
434.17176	9073.1375
438.2966	9117.6375
442.41849	9215.9375
446.53742	9345.0375
450.6534	9436.5375
454.76644	9517.2375
458.87653	9605.9375
462.98368	9606.9375
467.08789	9624.7375
471.18916	9547.5375
475.2875	9461.7375
479.38291	9406.1375
483.4754	9355.1375
487.56496	9315.8375
491.6516	9292.6375
495.73531	9270.3375
499.81612	9288.0375
503.89401	9333.0375
507.96899	9379.5375
512.04106	9425.9375
516.11023	9458.3375
520.1765	9479.2375
524.23987	9454.1375
528.30034	9379.5375
532.35792	9364.5375
536.41261	9287.4375
540.46441	9244.1375
544.51333	9236.5375
548.55936	9279.3375
552.60252	9366.7375
556.64279	9436.2375
560.6802	9501.8375
564.71473	9509.2375
568.7464	9560.9375
572.7752	9649.3375
576.80114	9673.1375
580.82422	9695.6375
584.84444	9785.3375
588.86181	9839.4375
592.87633	9838.9375
596.888	9883.0375
600.89682	9986.5375
604.9028	10306.7375
608.90594	11132.6375
612.90624	12116.0375
616.90371	11718.8375
620.89834	10313.6375
624.89015	9594.9375
628.87913	9477.6375
632.86528	9539.2375
636.84862	9624.3375
640.82913	9605.4375
644.80683	9471.9375
648.78172	9369.1375
652.75379	9363.4375
656.72306	9439.3375
660.68952	9587.3375
664.65319	9598.6375
668.61405	9502.4375
672.57211	9538.0375
676.52738	9590.3375
680.47986	9641.2375
684.42955	9626.5375
688.37646	9615.1375
692.32058	9611.1375
696.26192	9617.3375
700.20048	9622.3375
704.13626	9609.7375
708.06928	9582.6375
711.99952	9535.6375
715.927	9493.3375
719.85171	9470.1375
723.77365	9477.8375
727.69284	9432.5375
731.60928	9408.0375
735.52295	9376.9375
739.43388	9383.0375
743.34206	9392.5375
747.24749	9420.6375
751.15017	9450.3375
755.05012	9499.7375
758.94733	9649.9375
762.8418	9937.9375
766.73354	10480.3375
770.62254	11057.3375
774.50882	11334.6375
778.39237	11071.3375
782.27321	10461.7375
786.15132	9932.8375
790.02671	9606.4375
793.89938	9427.2375
797.76935	9363.8375
801.6366	9277.2375
805.50115	9258.1375
809.36299	9245.1375
813.22213	9201.7375
817.07857	9195.8375
820.93231	9174.3375
824.78336	9163.4375
828.63172	9180.4375
832.47738	9137.4375
836.32036	9120.7375
840.16066	9141.9375
843.99827	9115.6375
847.8332	9125.6375
851.66546	9133.8375
855.49504	9148.4375
859.32195	9155.7375
863.1462	9132.4375
866.96777	9148.7375
870.78668	9142.2375
874.60293	9144.5375
878.41652	9154.6375
882.22745	9172.7375
886.03573	9200.9375
889.84136	9225.0375
893.64433	9209.6375
897.44466	9163.6375
901.24235	9193.8375
905.0374	9144.2375
908.8298	9139.6375
912.61957	9062.8375
916.40671	9140.3375
920.19121	9151.8375
923.97308	9176.2375
927.75233	9159.5375
931.52895	9168.7375
935.30295	9120.0375
939.07433	9016.5375
942.84309	8963.1375
946.60924	8874.7375
950.37278	8838.5375
954.13371	8828.3375
957.89203	8822.4375
961.64774	8835.7375
965.40086	8774.8375
969.15137	8754.3375
972.89929	8753.1375
976.64461	8721.0375
980.38733	8699.6375
984.12747	8708.7375
987.86502	8703.2375
991.59999	8725.2375
995.33237	8728.1375
999.06217	8796.7375
1002.78939	8858.6375
1006.51404	8902.0375
1010.23611	8977.6375
1013.95561	9023.5375
1017.67255	9030.5375
1021.38692	9018.7375
1025.09872	9013.0375
1028.80796	8947.7375
1032.51465	8920.8375
1036.21877	8903.7375
1039.92035	8946.9375
1043.61937	8942.7375
1047.31584	9005.0375
1051.00976	9029.0375
1054.70114	9035.0375
1058.38998	9053.9375
1062.07627	9088.1375
1065.76003	9108.4375
1069.44126	9144.4375
1073.11995	9181.5375
1076.79611	9243.4375
1080.46974	9269.9375
1084.14085	9296.1375
1087.80943	9360.4375
1091.47549	9404.8375
1095.13903	9411.6375
1098.80005	9343.6375
1102.45857	9233.7375
1106.11456	9197.2375
1109.76805	9158.0375
1113.41903	9185.2375
1117.06751	9251.7375
1120.71348	9327.6375
1124.35696	9475.0375
1127.99793	9579.8375
1131.63641	9620.5375
1135.2724	9513.3375
1138.90589	9395.2375
1142.5369	9326.5375
1146.16542	9280.5375
1149.79145	9259.8375
1153.415	9232.8375
1157.03607	9260.2375
1160.65467	9316.4375
1164.27079	9458.7375
1167.88443	9670.0375
1171.49561	9919.2375
1175.10432	10317.7375
1178.71056	10830.1375
1182.31434	11336.7375
1185.91565	11620.2375
1189.51451	11639.4375
1193.11091	11498.3375
1196.70485	11251.0375
1200.29634	10940.6375
1203.88538	10669.3375
1207.47197	10351.2375
1211.05612	10093.6375
1214.63782	9852.2375
1218.21708	9734.3375
1221.79391	9644.0375
1225.36829	9603.3375
1228.94024	9602.2375
1232.50976	9584.2375
1236.07685	9608.6375
1239.6415	9620.7375
1243.20374	9640.0375
1246.76355	9659.7375
1250.32093	9699.7375
1253.8759	9752.6375
1257.42845	9863.6375
1260.97859	9934.9375
1264.52631	10063.5375
1268.07163	10205.4375
1271.61453	10307.8375
1275.15503	10411.5375
1278.69312	10442.1375
1282.22882	10470.6375
1285.76211	10556.0375
1289.29301	10672.1375
1292.82151	10830.9375
1296.34761	11063.3375
1299.87133	11348.3375
1303.39266	11684.9375
1306.9116	12146.6375
1310.42815	12640.2375
1313.94233	12880.4375
1317.45412	12793.1375
1320.96354	12483.0375
1324.47058	12191.3375
1327.97525	11892.5375
1331.47754	11668.6375
1334.97747	11598.8375
1338.47502	11673.9375
1341.97022	11897.3375
1345.46305	12210.2375
1348.95352	12566.5375
1352.44163	12964.5375
1355.92738	13380.8375
1359.41078	13991.1375
1362.89183	14520.7375
1366.37053	14367.6375
1369.84688	13289.2375
1373.32088	12049.1375
1376.79254	11179.5375
1380.26186	10723.7375
1383.72883	10475.3375
1387.19347	10309.1375
1390.65578	10141.2375
1394.11575	9968.4375
1397.57339	9848.7375
1401.0287	9780.4375
1404.48168	9720.6375
1407.93234	9712.7375
1411.38068	9674.1375
1414.82669	9639.3375
1418.27039	9594.8375
1421.71177	9466.3375
1425.15083	9349.9375
1428.58758	9255.1375
1432.02203	9215.3375
1435.45416	9209.0375
1438.88399	9242.6375
1442.31151	9255.9375
1445.73673	9276.6375
1449.15965	9307.4375
1452.58027	9331.6375
1455.9986	9320.2375
1459.41463	9396.7375
1462.82837	9471.3375
1466.23982	9580.0375
1469.64898	9692.8375
1473.05586	9835.4375
1476.46045	9888.7375
1479.86276	9983.4375
1483.26279	10049.5375
1486.66054	10148.2375
1490.05602	10255.9375
1493.44922	10448.1375
1496.84016	10823.6375
1500.22882	11389.1375
1503.61521	12112.2375
1506.99934	12832.7375
1510.38121	13309.1375
1513.76081	13315.8375
1517.13816	12787.7375
1520.51324	12016.7375
1523.88607	11306.4375
1527.25665	10857.4375
1530.62498	10586.0375
1533.99105	10493.5375
1537.35488	10388.7375
1540.71647	10275.7375
1544.07581	10152.1375
1547.4329	10073.5375
1550.78776	10009.8375
1554.14038	9985.0375
1557.49077	9980.1375
1560.83892	10012.9375
1564.18484	10125.3375
1567.52853	10240.3375
1570.86999	10365.3375
1574.20922	10458.0375
1577.54624	10453.0375
1580.88103	10259.4375
1584.2136	9963.7375
1587.54395	9795.9375
1590.87208	9764.6375
1594.19801	9918.8375
1597.52172	10176.1375
1600.84321	10312.8375
1604.16251	10234.7375
1607.47959	10020.4375
1610.79447	9803.3375
1614.10715	9492.1375
1617.41763	9181.4375
1620.7259	8907.1375
1624.03199	8736.7375
1627.33587	8682.3375
1630.63757	8664.5375
1633.93707	8759.4375
1637.23439	8990.6375
1640.52951	9381.1375
1643.82246	9930.4375
1647.11321	10537.8375
1650.40179	10980.7375
1653.68819	10868.0375
1656.97241	10273.8375
1660.25446	9470.7375
1663.53433	8834.4375
1666.81203	8420.8375
1670.08756	8131.6375
1673.36092	7969.9375
1676.63211	7865.4375
1679.90115	7782.1375
1683.16801	7709.2375
1686.43272	7632.8375
1689.69527	7567.9375
1692.95567	7521.5375
1696.2139	7502.6375
1699.46999	7445.4375
1702.72392	7462.4375
1705.97571	7466.9375
1709.22535	7447.7375
1712.47284	7420.8375
1715.71819	7407.7375
1718.96139	7414.7375
1722.20246	7383.9375
1725.44139	7362.3375
1728.67818	7327.0375
1731.91284	7280.0375
1735.14537	7244.7375
1738.37576	7224.5375
1741.60403	7189.9375
1744.83017	7170.6375
1748.05418	7160.0375
1751.27607	7158.9375
1754.49584	7145.8375
1757.71349	7166.5375
1760.92903	7176.2375
1764.14244	7149.6375
1767.35375	7117.8375
1770.56294	7096.3375
1773.77002	7093.2375
1776.97499	7045.5375
1780.17785	7011.2375
1783.37861	7009.7375
1786.57727	6980.0375
1789.77382	6932.0375
1792.96828	6924.5375
1796.16064	6884.1375
1799.3509	6880.4375
1802.53907	6862.3375
1805.72514	6831.5375
1808.90913	6828.0375
1812.09102	6793.6375
1815.27083	6766.4375
1818.44856	6753.9375
1821.6242	6748.5375
1824.79776	6714.3375
1827.96924	6725.2375
1831.13864	6721.7375
1834.30597	6717.0375
1837.47122	6697.1375
1840.6344	6678.6375
1843.7955	6677.6375
1846.95454	6673.7375
1850.11151	6649.4375
1853.26642	6647.7375
1856.41926	6637.0375
1859.57004	6613.0375
1862.71876	6611.6375
1865.86542	6611.3375
1869.01003	6589.9375
1872.15258	6587.4375
1875.29308	6576.8375
1878.43152	6562.5375
1881.56792	6565.9375
1884.70227	6563.2375
1887.83457	6539.5375
1890.96482	6547.4375
1894.09304	6530.2375
1897.21921	6512.5375
1900.34335	6511.3375
1903.46544	6487.5375
1906.58551	6488.8375
1909.70353	6464.8375
1912.81953	6455.2375
1915.93349	6436.6375
1919.04543	6419.4375
1922.15534	6396.2375
1925.26322	6395.6375
1928.36908	6374.1375
1931.47292	6371.7375
1934.57473	6341.7375
1937.67453	6349.4375
1940.77232	6313.2375
1943.86808	6317.5375
1946.96184	6291.5375
1950.05358	6267.3375
1953.14331	6246.1375
1956.23103	6213.9375
1959.31675	6211.2375
1962.40046	6194.3375
1965.48217	6166.3375
1968.56188	6146.2375
1971.63959	6122.8375
1974.7153	6122.7375
1977.78901	6084.2375
1980.86073	6074.0375
1983.93046	6079.4375
1986.99819	6028.5375
1990.06394	6007.8375
1993.1277	5993.0375
1996.18947	5964.7375
1999.24925	5948.1375
2002.30706	5925.0375
2005.36288	5905.8375
2008.41672	5903.9375
2011.46859	5886.0375
2014.51848	5848.1375
2017.56639	5826.9375
2020.61233	5819.0375
2023.6563	5799.2375
2026.6983	5768.7375
2029.73833	5745.2375
2032.7764	5740.6375
2035.8125	5731.6375
2038.84664	5730.7375
2041.87881	5689.2375
2044.90903	5692.7375
2047.93729	5673.8375
2050.96359	5653.1375
2053.98794	5650.9375
2057.01034	5642.9375
2060.03078	5639.9375
2063.04927	5630.4375
2066.06582	5649.8375
2069.08042	5622.3375
2072.09307	5613.9375
2075.10378	5612.5375
2078.11255	5621.3375
2081.11938	5595.9375
2084.12426	5592.4375
2087.12722	5595.0375
2090.12824	5588.1375
2093.12732	5557.9375
2096.12447	5591.7375
2099.11969	5584.7375
2102.11299	5591.4375
2105.10435	5601.4375
2108.09379	5593.1375
2111.08131	5590.1375
2114.0669	5590.4375
2117.05057	5568.2375
2120.03233	5599.6375
2123.01216	5596.5375
2125.99008	5584.7375
2128.96609	5590.4375
2131.94018	5601.7375
2134.91236	5599.0375
2137.88263	5598.6375
2140.851	5595.8375
2143.81746	5576.1375
2146.78201	5587.9375
2149.74466	5590.6375
2152.7054	5596.5375
2155.66425	5595.8375
2158.6212	5594.9375
2161.57625	5583.6375
2164.52941	5571.4375
2167.48067	5578.4375
2170.43004	5571.9375
2173.37752	5564.0375
2176.32311	5549.3375
2179.26681	5543.2375
2182.20863	5551.4375
2185.14856	5539.9375
2188.08661	5541.6375
2191.02278	5550.1375
2193.95707	5535.3375
2196.88948	5511.5375
2199.82001	5514.5375
2202.74867	5488.9375
2205.67545	5483.9375
2208.60037	5484.0375
2211.52341	5482.0375
2214.44458	5472.6375
2217.36388	5452.3375
2220.28132	5454.4375
2223.1969	5430.1375
2226.11061	5427.1375
2229.02246	5402.7375
2231.93245	5389.3375
2234.84058	5375.5375
2237.74686	5368.8375
2240.65128	5368.7375
2243.55385	5354.8375
2246.45456	5340.5375
2249.35343	5333.1375
2252.25044	5323.8375
2255.14561	5319.5375
2258.03893	5320.5375
2260.93041	5306.0375
2263.82004	5298.3375
2266.70783	5279.2375
2269.59378	5274.2375
2272.4779	5253.7375
2275.36017	5254.1375
2278.24061	5216.1375
2281.11922	5205.6375
2283.996	5189.6375
2286.87094	5174.3375
2289.74405	5182.6375
2292.61534	5158.9375
2295.4848	5168.8375
2298.35243	5164.6375
2301.21824	5148.5375
2304.08223	5130.3375
2306.94439	5147.1375
2309.80474	5114.9375
2312.66327	5094.0375
2315.51999	5109.7375
2318.37489	5107.0375
2321.22797	5095.9375
2324.07925	5080.4375
2326.92871	5080.9375
2329.77637	5042.3375
2332.62222	5035.7375
2335.46626	5036.9375
2338.3085	5030.6375
2341.14893	5026.5375
2343.98756	5020.0375
2346.8244	5002.1375
2349.65943	5006.6375
2352.49267	5009.6375
2355.32411	5012.1375
2358.15376	5014.9375
2360.98161	4993.8375
2363.80768	4988.4375
2366.63195	4974.4375
2369.45444	4999.6375
2372.27514	4972.8375
2375.09405	4965.1375
2377.91118	4964.7375
2380.72652	4936.0375
2383.54009	4941.5375
2386.35187	4902.3375
2389.16188	4894.0375
2391.97011	4889.6375
2394.77657	4884.1375
2397.58125	4871.5375
2400.38416	4844.6375
2403.18529	4851.7375
2405.98466	4826.7375
2408.78226	4825.9375
2411.57809	4825.3375
2414.37216	4801.4375
2417.16446	4801.2375
2419.955	4789.9375
2422.74378	4798.9375
2425.5308	4772.2375
2428.31606	4797.3375
2431.09956	4789.1375
2433.88131	4766.8375
2436.6613	4764.1375
2439.43954	4754.4375
2442.21603	4755.2375
2444.99077	4732.0375
2447.76377	4738.6375
2450.53501	4741.3375
2453.30451	4736.1375
2456.07226	4732.8375
2458.83827	4714.2375
2461.60254	4718.3375
2464.36507	4705.1375
2467.12586	4703.8375
2469.88492	4698.7375
2472.64224	4687.0375
2475.39782	4690.9375
2478.15167	4689.6375
2480.90379	4690.1375
2483.65417	4675.3375
2486.40283	4669.5375
2489.14976	4665.1375
2491.89497	4675.5375
2494.63845	4664.1375
2497.3802	4657.4375
2500.12024	4640.1375
2502.85855	4632.4375
2505.59514	4632.2375
2508.33002	4622.6375
2511.06318	4611.3375
2513.79462	4608.0375
2516.52435	4593.1375
2519.25237	4582.3375
2521.97867	4581.7375
2524.70327	4563.1375
2527.42616	4559.3375
2530.14734	4560.5375
2532.86681	4535.7375
2535.58458	4542.5375
2538.30065	4539.0375
2541.01501	4551.0375
2543.72768	4519.2375
2546.43864	4500.4375
2549.14791	4491.5375
2551.85548	4501.3375
2554.56136	4468.3375
2557.26554	4460.8375
2559.96803	4465.6375
2562.66883	4456.7375
2565.36794	4441.6375
2568.06536	4429.9375
2570.7611	4409.4375
2573.45514	4417.3375
2576.14751	4405.8375
2578.83819	4394.8375
2581.52719	4381.8375
2584.21451	4381.4375
2586.90015	4368.0375
2589.58411	4379.3375
2592.2664	4372.2375
2594.94701	4344.6375
2597.62594	4338.7375
2600.30321	4325.7375
2602.9788	4310.8375
2605.65273	4309.6375
2608.32498	4277.2375
2610.99557	4291.5375
2613.66449	4287.8375
2616.33175	4281.0375
2618.99734	4286.6375
2621.66128	4266.7375
2624.32355	4252.5375
2626.98416	4237.4375
2629.64311	4230.2375
2632.30041	4228.9375
2634.95605	4224.6375
2637.61004	4209.1375
2640.26238	4219.5375
2642.91306	4208.5375
2645.56209	4207.3375
2648.20948	4208.6375
2650.85521	4186.8375
2653.4993	4188.9375
2656.14175	4177.8375
2658.78255	4193.5375
2661.42171	4174.7375
2664.05923	4181.6375
2666.6951	4173.2375
2669.32934	4179.1375
2671.96194	4181.8375
2674.59291	4154.8375
2677.22224	4170.6375
2679.84993	4172.3375
2682.476	4182.0375
2685.10043	4174.6375
2687.72324	4175.4375
2690.34441	4165.5375
2692.96396	4163.3375
2695.58188	4166.0375
2698.19818	4168.0375
2700.81285	4170.8375
2703.4259	4156.5375
2706.03733	4135.7375
2708.64714	4159.2375
2711.25533	4151.2375
2713.86191	4145.5375
2716.46687	4156.7375
2719.07021	4158.8375
2721.67194	4163.2375
2724.27206	4141.5375
2726.87057	4135.8375
2729.46747	4153.2375
2732.06276	4145.2375
2734.65644	4132.5375
2737.24852	4140.8375
2739.83899	4131.2375
2742.42786	4131.8375
2745.01513	4094.2375
2747.60079	4103.9375
2750.18486	4087.3375
2752.76733	4088.7375
2755.3482	4079.5375
2757.92747	4076.1375
2760.50515	4060.3375
2763.08123	4066.7375
2765.65573	4065.9375
2768.22863	4042.4375
2770.79994	4040.1375
2773.36967	4034.2375
2775.9378	4031.7375
2778.50435	4035.8375
2781.06932	4025.9375
2783.6327	4026.4375
2786.1945	4011.8375
2788.75471	4007.7375
2791.31335	3995.4375
2793.87041	3987.0375
2796.42589	3970.3375
2798.97979	3980.9375
2801.53212	3943.8375
2804.08288	3941.4375
2806.63206	3943.7375
2809.17967	3927.4375
2811.72571	3926.7375
2814.27018	3929.2375
2816.81308	3916.4375
2819.35442	3908.6375
2821.89419	3891.2375
2824.43239	3898.3375
2826.96904	3888.3375
2829.50412	3887.0375
2832.03763	3877.5375
2834.56959	3888.9375
2837.1	3881.8375
2839.62884	3890.5375
2842.15613	3898.7375
2844.68186	3906.1375
2847.20604	3904.9375
2849.72867	3915.4375
2852.24974	3918.0375
2854.76927	3908.7375
2857.28724	3893.6375
2859.80367	3882.8375
2862.31855	3870.8375
2864.83189	3879.5375
2867.34368	3875.7375
2869.85393	3870.4375
2872.36264	3863.9375
2874.8698	3845.5375
2877.37543	3852.9375
2879.87952	3867.0375
2882.38207	3846.6375
2884.88308	3840.9375
2887.38256	3849.8375
2889.88051	3835.6375
2892.37692	3850.2375
2894.8718	3843.3375
2897.36515	3838.2375
2899.85698	3836.3375
2902.34727	3840.9375
2904.83604	3848.3375
2907.32328	3854.7375
2909.809	3863.0375
2912.29319	3858.5375
2914.77587	3873.8375
2917.25702	3877.7375
2919.73665	3877.6375
2922.21476	3884.1375
2924.69136	3872.7375
2927.16644	3872.9375
2929.64	3870.4375
2932.11205	3849.6375
2934.58258	3854.3375
2937.05161	3873.6375
2939.51912	3861.1375
2941.98513	3842.8375
2944.44962	3839.2375
2946.91261	3824.4375
2949.37409	3825.3375
2951.83407	3812.1375
2954.29254	3824.4375
2956.74951	3810.9375
2959.20498	3806.6375
2961.65895	3788.0375
2964.11142	3781.9375
2966.56239	3768.9375
2969.01186	3766.2375
2971.45984	3749.0375
2973.90632	3755.3375
2976.35131	3745.4375
2978.7948	3723.8375
2981.23681	3709.8375
2983.67732	3706.2375
2986.11635	3689.5375
2988.55388	3684.9375
2990.98993	3678.0375
2993.4245	3687.5375
2995.85758	3661.5375
2998.28917	3666.9375
3000.71928	3656.7375
3003.14791	3655.6375
3005.57506	3655.6375
3008.00073	3630.5375
3010.42493	3626.0375
3012.84764	3623.5375
3015.26888	3605.3375
3017.68865	3619.1375
3020.10694	3602.8375
3022.52376	3595.2375
3024.9391	3584.6375
3027.35298	3584.8375
3029.76539	3578.1375
3032.17632	3579.6375
3034.5858	3555.7375
3036.9938	3556.8375
3039.40034	3557.8375
3041.80542	3556.9375
3044.20903	3547.2375
3046.61118	3548.8375
3049.01187	3544.8375
3051.4111	3542.4375
3053.80888	3533.6375
3056.20519	3524.3375
3058.60005	3522.9375
3060.99345	3528.1375
3063.3854	3509.4375
3065.7759	3500.2375
3068.16494	3505.5375
3070.55254	3514.0375
3072.93868	3498.2375
3075.32338	3484.9375
3077.70662	3477.4375
3080.08842	3469.4375
3082.46878	3471.8375
3084.84769	3457.6375
3087.22515	3471.0375
3089.60118	3471.5375
3091.97576	3477.7375
3094.3489	3480.5375
3096.72061	3484.1375
3099.09087	3471.3375
3101.4597	3477.7375
3103.82709	3479.9375
3106.19305	3484.7375
3108.55757	3483.6375
3110.92066	3466.0375
3113.28232	3467.5375
3115.64255	3466.0375
3118.00134	3469.3375
3120.35871	3466.2375
3122.71466	3454.8375
3125.06917	3449.3375
3127.42226	3437.4375
3129.77393	3423.6375
3132.12417	3446.7375
3134.47299	3449.9375
3136.82039	3460.2375
3139.16636	3454.7375
3141.51092	3455.0375
3143.85406	3458.0375
3146.19579	3471.7375
3148.53609	3471.7375
3150.87499	3470.6375
3153.21246	3481.9375
3155.54853	3468.9375
3157.88318	3514.4375
3160.21642	3498.2375
3162.54826	3499.1375
3164.87868	3494.7375
3167.2077	3496.3375
3169.5353	3498.9375
3171.86151	3499.0375
3174.18631	3509.0375
3176.5097	3510.9375
3178.83169	3495.3375
3181.15228	3481.8375
3183.47147	3492.7375
3185.78926	3494.3375
3188.10565	3487.8375
3190.42065	3502.5375
3192.73424	3491.0375
3195.04645	3489.1375
3197.35725	3496.7375
3199.66667	3504.7375
3201.97469	3515.1375
3204.28132	3514.7375
3206.58656	3514.1375
3208.8904	3514.7375
3211.19287	3526.6375
3213.49394	3521.2375
3215.79363	3530.4375
3218.09193	3528.7375
3220.38884	3518.9375
3222.68438	3526.5375
3224.97853	3511.5375
3227.2713	3519.7375
3229.56269	3516.3375
3231.8527	3519.6375
3234.14133	3515.4375
3236.42858	3494.8375
3238.71446	3490.3375
3240.99896	3488.5375
3243.28209	3481.1375
3245.56384	3489.6375
3247.84423	3479.0375
3250.12324	3477.6375
3252.40088	3470.9375
3254.67715	3472.3375
3256.95205	3471.1375
3259.22558	3462.3375
3261.49775	3461.9375
3263.76855	3466.2375
3266.03799	3452.2375
3268.30606	3454.9375
3270.57277	3449.4375
3272.83812	3442.0375
3275.10211	3440.1375
3277.36474	3429.4375
3279.62601	3441.1375
3281.88593	3428.2375
3284.14448	3419.6375
3286.40168	3408.4375
3288.65753	3421.3375
3290.91202	3414.6375
3293.16516	3408.0375
3295.41695	3390.0375
3297.66738	3378.3375
3299.91647	3369.4375
3302.16421	3350.5375
3304.4106	3330.4375
3306.65564	3315.7375
3308.89933	3298.6375
3311.14169	3277.2375
3313.38269	3249.8375
3315.62236	3228.3375
3317.86068	3211.0375
3320.09766	3190.1375
3322.3333	3161.6375
3324.5676	3153.9375
3326.80056	3109.8375
3329.03219	3088.3375
3331.26248	1.6375
3333.49143	0.3375
3335.71905	0.1375
