Data from AgNPs_FTO_APTES_UA_50uM_CRN_0uM_R6G_10uM_NaF_0.1M_Addition_RamanShift__29__10-44-04-660.txt Node

Date: Mon Feb 21 10:44:04 GMT 2022
User: TCL
Spectrometer: QEP01345
Trigger mode: 4
Integration Time (sec): 7.000000E0
Scans to average: 10
Electric dark correction enabled: true
Nonlinearity correction enabled: false
Boxcar width: 0
XAxis mode: Raman Shifts
Number of Pixels in Spectrum: 1044
>>>>>Begin Spectral Data<<<<<
46.04893	-0.1
50.45542	-1
54.85868	-0.2
59.25871	-1.4
63.6555	48.4
68.04907	52.2
72.43941	51.8
76.82654	54.6
81.21044	59.7
85.59113	62.4
89.96862	64.7
94.34289	69.2
98.71396	68.3
103.08183	71.1
107.4465	71.3
111.80798	70.1
116.16626	69.9
120.52136	69.7
124.87327	78.1
129.222	76.9
133.56755	79.1
137.90993	91
142.24913	94.6
146.58517	104.4
150.91804	121.2
155.24774	144.2
159.57429	170.8
163.89768	218.1
168.21792	286.2
172.53501	389.8
176.84895	544
181.15975	757.6
185.46741	1065.5
189.77193	1464.6
194.07331	1954.6
198.37157	2518.9
202.6667	3102.3
206.9587	3709.7
211.24758	4295.2
215.53334	4853.3
219.81599	5465.6
224.09553	6149.4
228.37195	6892.4
232.64527	7747.6
236.91549	8602
241.18261	9457.6
245.44663	10272.9
249.70755	10982.8
253.96539	11618.9
258.22014	12080.8
262.4718	12509.1
266.72039	12766
270.96589	12879.5
275.20832	12859.7
279.44768	12735.3
283.68397	12547.5
287.91719	12405
292.14735	12319.7
296.37445	12277.6
300.59849	12321.9
304.81948	12386.5
309.03742	12475
313.25231	12452.1
317.46415	12313.3
321.67296	12076.9
325.87872	11907.4
330.08145	11780.1
334.28114	11709.5
338.47781	11796.4
342.67145	11907.6
346.86207	12102
351.04966	12350.7
355.23424	12601.2
359.4158	12833.3
363.59435	12984.4
367.76989	13111.2
371.94243	13126
376.11196	13101.7
380.27849	13147.6
384.44203	13193.3
388.60257	13235.3
392.76012	13358.9
396.91468	13540.9
401.06626	13763.2
405.21485	13900.2
409.36047	13840.7
413.50311	13684.4
417.64277	13603.1
421.77947	13663.4
425.9132	13680
430.04396	13704.9
434.17176	13731.3
438.2966	13830.1
442.41849	13991.6
446.53742	14321.9
450.6534	14683.9
454.76644	14920.4
458.87653	15020.7
462.98368	14939.9
467.08789	14778.1
471.18916	14582.2
475.2875	14299.2
479.38291	14124.6
483.4754	14046.4
487.56496	13969.1
491.6516	13875.5
495.73531	13746.6
499.81612	13684.5
503.89401	13791.6
507.96899	13844.3
512.04106	13822.8
516.11023	13752.5
520.1765	13621.9
524.23987	13518.7
528.30034	13422.4
532.35792	13356.1
536.41261	13177.9
540.46441	13051.3
544.51333	13003.7
548.55936	13073
552.60252	13287.2
556.64279	13618.9
560.6802	13864.9
564.71473	13995.5
568.7464	14234.1
572.7752	14644.7
576.80114	15111.9
580.82422	15662.3
584.84444	16339.1
588.86181	17323.6
592.87633	18277.9
596.888	18256.7
600.89682	17146.8
604.9028	16552.3
608.90594	17223.6
612.90624	18332.6
616.90371	17413.2
620.89834	14878.1
624.89015	13718.9
628.87913	13558.9
632.86528	13695.3
636.84862	13709.1
640.82913	13464.8
644.80683	13147.6
648.78172	12973.2
652.75379	12993.5
656.72306	13158.9
660.68952	13363.6
664.65319	13287.8
668.61405	13055.4
672.57211	13018.7
676.52738	13129.2
680.47986	13127.7
684.42955	13041.1
688.37646	12956.6
692.32058	13050.9
696.26192	13223
700.20048	13415.4
704.13626	13529.4
708.06928	13502.6
711.99952	13524.7
715.927	13552.1
719.85171	13628.2
723.77365	13543.3
727.69284	13309.1
731.60928	13051.6
735.52295	12980
739.43388	13000.7
743.34206	13035.5
747.24749	13157.6
751.15017	13265
755.05012	13450.4
758.94733	13826.7
762.8418	14406.8
766.73354	15317.6
770.62254	16248.4
774.50882	16364.9
778.39237	15746.7
782.27321	14817.7
786.15132	14063.8
790.02671	13542.7
793.89938	13235.5
797.76935	13121.4
801.6366	13089.2
805.50115	13035.9
809.36299	12985.5
813.22213	12951.9
817.07857	12890.7
820.93231	12805
824.78336	12745.7
828.63172	12690.5
832.47738	12649.4
836.32036	12646
840.16066	12640.3
843.99827	12722.4
847.8332	12663.2
851.66546	12696.1
855.49504	12705.1
859.32195	12746.3
863.1462	12680.7
866.96777	12667.9
870.78668	12632.3
874.60293	12662.2
878.41652	12698.8
882.22745	12766.8
886.03573	12843.7
889.84136	12821.3
893.64433	12753.3
897.44466	12738.5
901.24235	12710.6
905.0374	12648.7
908.8298	12618.1
912.61957	12591.2
916.40671	12685.2
920.19121	12828.6
923.97308	12976.1
927.75233	13060.3
931.52895	12978
935.30295	12755.7
939.07433	12527.1
942.84309	12337.7
946.60924	12260.6
950.37278	12229
954.13371	12240.4
957.89203	12184.1
961.64774	12200.3
965.40086	12188.2
969.15137	12199.1
972.89929	12142.8
976.64461	12133.9
980.38733	12094.1
984.12747	12120.5
987.86502	12137.1
991.59999	12212.7
995.33237	12289
999.06217	12484.8
1002.78939	12699.1
1006.51404	12941.5
1010.23611	13184.4
1013.95561	13386.4
1017.67255	13392.5
1021.38692	13279.8
1025.09872	13079.8
1028.80796	12910.6
1032.51465	12848.3
1036.21877	12860
1039.92035	12949.7
1043.61937	12974.1
1047.31584	13000.2
1051.00976	12956.7
1054.70114	12972.5
1058.38998	13005.5
1062.07627	13141.9
1065.76003	13268.9
1069.44126	13387.1
1073.11995	13699.8
1076.79611	13917.1
1080.46974	14059.1
1084.14085	14186.2
1087.80943	14325.5
1091.47549	14457.2
1095.13903	14448.4
1098.80005	14242.2
1102.45857	13875.6
1106.11456	13591.3
1109.76805	13454.3
1113.41903	13448.3
1117.06751	13513.7
1120.71348	13625.3
1124.35696	13755.3
1127.99793	13890.7
1131.63641	14011.3
1135.2724	14005.6
1138.90589	13942
1142.5369	13915.7
1146.16542	14030.7
1149.79145	14139.8
1153.415	14246.1
1157.03607	14375
1160.65467	14702.5
1164.27079	15287.2
1167.88443	15968.3
1171.49561	16746.3
1175.10432	17740.4
1178.71056	19003.9
1182.31434	20179
1185.91565	20722.1
1189.51451	20600.9
1193.11091	20052.1
1196.70485	19365.8
1200.29634	18696.9
1203.88538	18234.6
1207.47197	17895.1
1211.05612	17714.3
1214.63782	17429.2
1218.21708	17034.2
1221.79391	16634.9
1225.36829	16349.3
1228.94024	16195.4
1232.50976	16019.3
1236.07685	15764.3
1239.6415	15576
1243.20374	15499.1
1246.76355	15500.2
1250.32093	15666.6
1253.8759	15956.6
1257.42845	16379.4
1260.97859	16859.1
1264.52631	17425.6
1268.07163	17956
1271.61453	18433.9
1275.15503	18911.5
1278.69312	19474.8
1282.22882	20103.5
1285.76211	20874
1289.29301	21771.5
1292.82151	22713.9
1296.34761	23840.8
1299.87133	25223.2
1303.39266	26509
1306.9116	27668
1310.42815	28531.7
1313.94233	28827.3
1317.45412	28484.4
1320.96354	27729.9
1324.47058	27094.7
1327.97525	26673.9
1331.47754	26352.6
1334.97747	26043.7
1338.47502	25606.9
1341.97022	25105.6
1345.46305	24761.7
1348.95352	24610.4
1352.44163	24836.4
1355.92738	25704.9
1359.41078	27136
1362.89183	28561.1
1366.37053	28670.6
1369.84688	26737.7
1373.32088	23755.7
1376.79254	21525.3
1380.26186	20622.2
1383.72883	20447.6
1387.19347	20257.6
1390.65578	19953
1394.11575	19707.3
1397.57339	19832.7
1401.0287	20135.5
1404.48168	20411
1407.93234	20386.1
1411.38068	20034.5
1414.82669	19431.1
1418.27039	18755.1
1421.71177	18138.2
1425.15083	17657.8
1428.58758	17448.1
1432.02203	17655.9
1435.45416	18138.7
1438.88399	18614.3
1442.31151	18818.2
1445.73673	18927.7
1449.15965	18934.2
1452.58027	18902.1
1455.9986	18782.4
1459.41463	18869
1462.82837	19119.9
1466.23982	19430.5
1469.64898	19812.1
1473.05586	20033.5
1476.46045	20114.3
1479.86276	20103.6
1483.26279	20018.4
1486.66054	20089.7
1490.05602	20357.9
1493.44922	20677.5
1496.84016	21011.7
1500.22882	21493.6
1503.61521	22065.7
1506.99934	22685.8
1510.38121	23132.8
1513.76081	23264.8
1517.13816	22876.8
1520.51324	22158.9
1523.88607	21652.4
1527.25665	21385.1
1530.62498	21290.3
1533.99105	21075.7
1537.35488	20643.5
1540.71647	20100.6
1544.07581	19474.6
1547.4329	18886.9
1550.78776	18426.9
1554.14038	18104.1
1557.49077	17954.8
1560.83892	17927.1
1564.18484	17984.3
1567.52853	18055
1570.86999	18282.7
1574.20922	18600.2
1577.54624	18857.1
1580.88103	18939.9
1584.2136	19070.5
1587.54395	19633.8
1590.87208	20625.8
1594.19801	21956.3
1597.52172	23068.7
1600.84321	23211.7
1604.16251	22048.5
1607.47959	20266.5
1610.79447	18439.9
1614.10715	16909.1
1617.41763	15706.9
1620.7259	14990
1624.03199	14605
1627.33587	14691.9
1630.63757	15090.2
1633.93707	15972.5
1637.23439	17606.3
1640.52951	20073.8
1643.82246	23077.9
1647.11321	25652
1650.40179	26093.1
1653.68819	24039.4
1656.97241	20611
1660.25446	17420.3
1663.53433	15167.9
1666.81203	13826.8
1670.08756	13039
1673.36092	12624.2
1676.63211	12320.1
1679.90115	12093.4
1683.16801	11913.7
1686.43272	11813.3
1689.69527	11672.9
1692.95567	11522.9
1696.2139	11406.6
1699.46999	11241.4
1702.72392	11199
1705.97571	11260.6
1709.22535	11343.1
1712.47284	11390
1715.71819	11413.7
1718.96139	11390.1
1722.20246	11370.9
1725.44139	11306.6
1728.67818	11280.2
1731.91284	11214.7
1735.14537	11167.8
1738.37576	11108.6
1741.60403	11061
1744.83017	11021.2
1748.05418	10967.6
1751.27607	10925.8
1754.49584	10866.4
1757.71349	10768.4
1760.92903	10710.8
1764.14244	10713.6
1767.35375	10694.6
1770.56294	10698.4
1773.77002	10716.9
1776.97499	10741.7
1780.17785	10801.5
1783.37861	10804.5
1786.57727	10798
1789.77382	10804.4
1792.96828	10825
1796.16064	10767.4
1799.3509	10749.4
1802.53907	10736.9
1805.72514	10694.9
1808.90913	10693.8
1812.09102	10651.1
1815.27083	10661.5
1818.44856	10666.7
1821.6242	10646
1824.79776	10617.7
1827.96924	10597.1
1831.13864	10607.7
1834.30597	10621.2
1837.47122	10626.6
1840.6344	10595.4
1843.7955	10597.9
1846.95454	10598.4
1850.11151	10560.2
1853.26642	10574.2
1856.41926	10542.4
1859.57004	10555.6
1862.71876	10523.7
1865.86542	10552
1869.01003	10520.6
1872.15258	10511.2
1875.29308	10512.5
1878.43152	10503.3
1881.56792	10494.8
1884.70227	10472.4
1887.83457	10448.6
1890.96482	10442
1894.09304	10444.8
1897.21921	10430.9
1900.34335	10380.3
1903.46544	10396.2
1906.58551	10369.1
1909.70353	10351.3
1912.81953	10334.1
1915.93349	10324.8
1919.04543	10326.3
1922.15534	10289.9
1925.26322	10289.3
1928.36908	10234.9
1931.47292	10250.6
1934.57473	10214.7
1937.67453	10209.9
1940.77232	10160.2
1943.86808	10150.5
1946.96184	10148.6
1950.05358	10107.7
1953.14331	10075.1
1956.23103	10022.5
1959.31675	9990.7
1962.40046	9992.9
1965.48217	9941.6
1968.56188	9952.8
1971.63959	9939.8
1974.7153	9896.8
1977.78901	9860
1980.86073	9822.1
1983.93046	9772.8
1986.99819	9740.7
1990.06394	9735
1993.1277	9701.7
1996.18947	9671
1999.24925	9653.5
2002.30706	9630.7
2005.36288	9614
2008.41672	9577.2
2011.46859	9574.9
2014.51848	9527.9
2017.56639	9503.4
2020.61233	9464.6
2023.6563	9458.2
2026.6983	9457.7
2029.73833	9413.6
2032.7764	9375.9
2035.8125	9387.7
2038.84664	9346.3
2041.87881	9343.1
2044.90903	9316.1
2047.93729	9308.1
2050.96359	9303.5
2053.98794	9283.6
2057.01034	9278.3
2060.03078	9292.2
2063.04927	9228.2
2066.06582	9244.9
2069.08042	9253
2072.09307	9250.5
2075.10378	9236.6
2078.11255	9264.8
2081.11938	9244.9
2084.12426	9261.6
2087.12722	9249.3
2090.12824	9253.2
2093.12732	9258.7
2096.12447	9254.6
2099.11969	9245.7
2102.11299	9247.9
2105.10435	9263.8
2108.09379	9276.2
2111.08131	9295.6
2114.0669	9275
2117.05057	9299.8
2120.03233	9298.7
2123.01216	9312
2125.99008	9301.4
2128.96609	9338.2
2131.94018	9311.8
2134.91236	9333.6
2137.88263	9347.1
2140.851	9336.1
2143.81746	9354
2146.78201	9345.2
2149.74466	9344
2152.7054	9350.6
2155.66425	9338.9
2158.6212	9338.5
2161.57625	9325.2
2164.52941	9334.2
2167.48067	9343.6
2170.43004	9305.4
2173.37752	9316.1
2176.32311	9322.9
2179.26681	9321.9
2182.20863	9313.4
2185.14856	9325.8
2188.08661	9301.8
2191.02278	9317.6
2193.95707	9318.3
2196.88948	9308.6
2199.82001	9320.1
2202.74867	9298.4
2205.67545	9272.3
2208.60037	9260.2
2211.52341	9271.7
2214.44458	9237
2217.36388	9213.3
2220.28132	9206.4
2223.1969	9190.4
2226.11061	9178.9
2229.02246	9178.8
2231.93245	9174.6
2234.84058	9141.8
2237.74686	9097.5
2240.65128	9121.4
2243.55385	9119.5
2246.45456	9097.7
2249.35343	9080.4
2252.25044	9075.6
2255.14561	9089.2
2258.03893	9039.6
2260.93041	8992.8
2263.82004	8984.2
2266.70783	8987
2269.59378	8963.5
2272.4779	8969.9
2275.36017	8930.8
2278.24061	8933.1
2281.11922	8914
2283.996	8909.5
2286.87094	8894.6
2289.74405	8883.4
2292.61534	8871.9
2295.4848	8845.5
2298.35243	8867
2301.21824	8838.8
2304.08223	8844.6
2306.94439	8828.8
2309.80474	8857.1
2312.66327	8840
2315.51999	8811
2318.37489	8823.3
2321.22797	8800.3
2324.07925	8801.3
2326.92871	8784.6
2329.77637	8771.3
2332.62222	8754.8
2335.46626	8730.5
2338.3085	8726.9
2341.14893	8718.4
2343.98756	8739.3
2346.8244	8723.7
2349.65943	8716.7
2352.49267	8720.2
2355.32411	8762.2
2358.15376	8748.5
2360.98161	8711.1
2363.80768	8728.3
2366.63195	8714.5
2369.45444	8728.8
2372.27514	8673.1
2375.09405	8673.6
2377.91118	8667.6
2380.72652	8651.3
2383.54009	8655.1
2386.35187	8659.8
2389.16188	8610.7
2391.97011	8594.4
2394.77657	8578.7
2397.58125	8587.8
2400.38416	8563.3
2403.18529	8559.6
2405.98466	8537.7
2408.78226	8536.5
2411.57809	8521.1
2414.37216	8485.9
2417.16446	8518.1
2419.955	8522.9
2422.74378	8506.2
2425.5308	8476.3
2428.31606	8483.1
2431.09956	8485
2433.88131	8482.4
2436.6613	8501.9
2439.43954	8481
2442.21603	8487.2
2444.99077	8467.4
2447.76377	8480.6
2450.53501	8458.1
2453.30451	8458.4
2456.07226	8451
2458.83827	8446.9
2461.60254	8437.9
2464.36507	8410.9
2467.12586	8407.1
2469.88492	8412
2472.64224	8396.7
2475.39782	8413
2478.15167	8411
2480.90379	8401.1
2483.65417	8437.4
2486.40283	8436.9
2489.14976	8423.4
2491.89497	8420.2
2494.63845	8411.6
2497.3802	8388
2500.12024	8400.4
2502.85855	8412.8
2505.59514	8405.6
2508.33002	8398.9
2511.06318	8388.8
2513.79462	8354.9
2516.52435	8346
2519.25237	8349.8
2521.97867	8340.7
2524.70327	8333
2527.42616	8330.6
2530.14734	8322.9
2532.86681	8330.3
2535.58458	8326.7
2538.30065	8317.7
2541.01501	8293.4
2543.72768	8303.7
2546.43864	8290.1
2549.14791	8284
2551.85548	8292.1
2554.56136	8276.4
2557.26554	8252.8
2559.96803	8234.5
2562.66883	8247.9
2565.36794	8214.2
2568.06536	8228.8
2570.7611	8225.1
2573.45514	8207.1
2576.14751	8211.7
2578.83819	8188.6
2581.52719	8184.7
2584.21451	8166
2586.90015	8151.4
2589.58411	8141.4
2592.2664	8138.1
2594.94701	8144.9
2597.62594	8140.1
2600.30321	8120.2
2602.9788	8114.4
2605.65273	8114.3
2608.32498	8130.9
2610.99557	8127.8
2613.66449	8108.2
2616.33175	8100.2
2618.99734	8107
2621.66128	8074.7
2624.32355	8070.4
2626.98416	8068.6
2629.64311	8031.4
2632.30041	8048.4
2634.95605	8021.5
2637.61004	8008.7
2640.26238	8022.8
2642.91306	8016.8
2645.56209	8005.1
2648.20948	8002.2
2650.85521	7986.1
2653.4993	8004.8
2656.14175	8008.5
2658.78255	8029.6
2661.42171	8034
2664.05923	8023.2
2666.6951	8070.5
2669.32934	8052.3
2671.96194	8039
2674.59291	8064.2
2677.22224	8048.9
2679.84993	8071.9
2682.476	8052.2
2685.10043	8055.4
2687.72324	8059.6
2690.34441	8072.4
2692.96396	8042.5
2695.58188	8043.1
2698.19818	8057.4
2700.81285	8031.9
2703.4259	8007.2
2706.03733	7919.2
2708.64714	7961.7
2711.25533	8020.4
2713.86191	8049.7
2716.46687	8070.9
2719.07021	8067
2721.67194	8091
2724.27206	8109.6
2726.87057	8088.4
2729.46747	8082.3
2732.06276	8099.7
2734.65644	8106.2
2737.24852	8116.3
2739.83899	8106.4
2742.42786	8105.9
2745.01513	8082.2
2747.60079	8079.3
2750.18486	8070.6
2752.76733	8058.3
2755.3482	8065.3
2757.92747	8039.1
2760.50515	8021.4
2763.08123	8016.6
2765.65573	8010.2
2768.22863	8005.2
2770.79994	8014.1
2773.36967	8014.4
2775.9378	7984.8
2778.50435	8013.1
2781.06932	8012.7
2783.6327	7992.9
2786.1945	7993.6
2788.75471	7970.1
2791.31335	7975
2793.87041	7947.5
2796.42589	7943.5
2798.97979	7929
2801.53212	7929.3
2804.08288	7921.7
2806.63206	7906.2
2809.17967	7881.6
2811.72571	7867.6
2814.27018	7851.5
2816.81308	7834.2
2819.35442	7832.8
2821.89419	7800
2824.43239	7828.9
2826.96904	7781.8
2829.50412	7804.7
2832.03763	7788.9
2834.56959	7784.8
2837.1	7777.2
2839.62884	7773.3
2842.15613	7764.7
2844.68186	7810.1
2847.20604	7796.6
2849.72867	7775.9
2852.24974	7799
2854.76927	7784.8
2857.28724	7750.2
2859.80367	7753.3
2862.31855	7751.9
2864.83189	7746
2867.34368	7738.8
2869.85393	7731.1
2872.36264	7730.3
2874.8698	7747.6
2877.37543	7753.5
2879.87952	7746.3
2882.38207	7737.7
2884.88308	7752.1
2887.38256	7743.8
2889.88051	7748.9
2892.37692	7748.7
2894.8718	7749.6
2897.36515	7786.6
2899.85698	7769.6
2902.34727	7767.5
2904.83604	7769.6
2907.32328	7791.2
2909.809	7770.9
2912.29319	7795.5
2914.77587	7798.2
2917.25702	7808.9
2919.73665	7798.1
2922.21476	7806.4
2924.69136	7779.8
2927.16644	7797.8
2929.64	7771.9
2932.11205	7764.5
2934.58258	7739.4
2937.05161	7770.2
2939.51912	7761.4
2941.98513	7749.6
2944.44962	7709
2946.91261	7691.3
2949.37409	7721.2
2951.83407	7717.5
2954.29254	7706.8
2956.74951	7696.7
2959.20498	7682.6
2961.65895	7672.4
2964.11142	7683
2966.56239	7665.9
2969.01186	7640.5
2971.45984	7637.2
2973.90632	7621.8
2976.35131	7613.5
2978.7948	7585.9
2981.23681	7583.9
2983.67732	7572.7
2986.11635	7587.2
2988.55388	7544.6
2990.98993	7533.1
2993.4245	7502.6
2995.85758	7523.9
2998.28917	7486.2
3000.71928	7456.7
3003.14791	7458.5
3005.57506	7452.2
3008.00073	7423.9
3010.42493	7388.5
3012.84764	7379.4
3015.26888	7396.2
3017.68865	7395.7
3020.10694	7393.3
3022.52376	7335.3
3024.9391	7361.8
3027.35298	7327.6
3029.76539	7324.5
3032.17632	7332.5
3034.5858	7324.1
3036.9938	7315
3039.40034	7324
3041.80542	7304.3
3044.20903	7287.2
3046.61118	7285.9
3049.01187	7278.5
3051.4111	7261.6
3053.80888	7266.8
3056.20519	7252.6
3058.60005	7256.7
3060.99345	7226.8
3063.3854	7227.5
3065.7759	7207.7
3068.16494	7191.5
3070.55254	7153.7
3072.93868	7146.7
3075.32338	7114
3077.70662	7114.7
3080.08842	7098.8
3082.46878	7080.9
3084.84769	7099.3
3087.22515	7096.6
3089.60118	7099
3091.97576	7091.5
3094.3489	7094
3096.72061	7099
3099.09087	7097.6
3101.4597	7089.9
3103.82709	7085.4
3106.19305	7070.7
3108.55757	7066.2
3110.92066	7063.5
3113.28232	7042.1
3115.64255	7045.4
3118.00134	7015.8
3120.35871	7021.3
3122.71466	6993.1
3125.06917	7022.5
3127.42226	6963.1
3129.77393	6967.6
3132.12417	6968.9
3134.47299	6967.8
3136.82039	6970
3139.16636	6982
3141.51092	6951.9
3143.85406	6991.7
3146.19579	6970
3148.53609	6991.2
3150.87499	6969.3
3153.21246	6966.1
3155.54853	6981.4
3157.88318	6985.7
3160.21642	7004.5
3162.54826	6989.2
3164.87868	6996.2
3167.2077	7004.3
3169.5353	6994.7
3171.86151	6990.4
3174.18631	6987.9
3176.5097	6976.8
3178.83169	6970.9
3181.15228	6985.1
3183.47147	6964.5
3185.78926	6948.2
3188.10565	6966.5
3190.42065	6928.3
3192.73424	6950.3
3195.04645	6923.3
3197.35725	6934.9
3199.66667	6927.6
3201.97469	6936.9
3204.28132	6950.8
3206.58656	6945.9
3208.8904	6985.9
3211.19287	6965.9
3213.49394	6971.4
3215.79363	6954.4
3218.09193	6962.3
3220.38884	6919.7
3222.68438	6924.6
3224.97853	6939.3
3227.2713	6946.3
3229.56269	6957.2
3231.8527	6963.7
3234.14133	6951.2
3236.42858	6930.9
3238.71446	6905.5
3240.99896	6888.8
3243.28209	6893.9
3245.56384	6872.2
3247.84423	6883.2
3250.12324	6873
3252.40088	6868
3254.67715	6866.7
3256.95205	6867
3259.22558	6879.4
3261.49775	6842.2
3263.76855	6828.7
3266.03799	6836.9
3268.30606	6817.8
3270.57277	6811.7
3272.83812	6813.5
3275.10211	6791
3277.36474	6786.6
3279.62601	6770.8
3281.88593	6752.9
3284.14448	6773.1
3286.40168	6782.2
3288.65753	6777.8
3290.91202	6762.6
3293.16516	6737.7
3295.41695	6725.3
3297.66738	6689
3299.91647	6654.8
3302.16421	6629.7
3304.4106	6602.2
3306.65564	6549.5
3308.89933	6521.6
3311.14169	6455.1
3313.38269	6392.7
3315.62236	6368.3
3317.86068	6319.6
3320.09766	6278.2
3322.3333	6225.2
3324.5676	6204.6
3326.80056	6061.9
3329.03219	6054
3331.26248	2.4
3333.49143	-0.3
3335.71905	0.3
