Data from AgNPs_FTO_APTES_UA_50uM_CRN_10uM_R6G_10uM_NaF_0.1M_Addition_RamanShift__24__13-41-24-892.txt Node

Date: Mon Feb 21 13:41:24 GMT 2022
User: TCL
Spectrometer: QEP01345
Trigger mode: 4
Integration Time (sec): 7.000000E0
Scans to average: 10
Electric dark correction enabled: true
Nonlinearity correction enabled: false
Boxcar width: 0
XAxis mode: Raman Shifts
Number of Pixels in Spectrum: 1044
>>>>>Begin Spectral Data<<<<<
46.04893	-1
50.45542	-0.6
54.85868	-1
59.25871	-1.8
63.6555	70.7
68.04907	80.6
72.43941	81.7
76.82654	84
81.21044	88
85.59113	91.9
89.96862	96
94.34289	101.3
98.71396	100.2
103.08183	109.4
107.4465	107.8
111.80798	107
116.16626	115.3
120.52136	113.4
124.87327	125.9
129.222	125.4
133.56755	131.8
137.90993	147.7
142.24913	160.3
146.58517	176.7
150.91804	209.3
155.24774	247.6
159.57429	312.5
163.89768	398.2
168.21792	537.2
172.53501	725.4
176.84895	1022.1
181.15975	1425.4
185.46741	1990.3
189.77193	2764.2
194.07331	3708.7
198.37157	4780.1
202.6667	5932.1
206.9587	7112.2
211.24758	8306.9
215.53334	9568.7
219.81599	10969.8
224.09553	12587.2
228.37195	14400.9
232.64527	16316
236.91549	18246.1
241.18261	19862.4
245.44663	21179.9
249.70755	22185.5
253.96539	22995.2
258.22014	23705.3
262.4718	24332.8
266.72039	24681.1
270.96589	24819.7
275.20832	24532.3
279.44768	23974.4
283.68397	23483.4
287.91719	23232.4
292.14735	23364.9
296.37445	23971.5
300.59849	25067.8
304.81948	26419.4
309.03742	27398.3
313.25231	27396.7
317.46415	26067.8
321.67296	23923.9
325.87872	22122.9
330.08145	21302.1
334.28114	21294.4
338.47781	21699.8
342.67145	22340.7
346.86207	23407.2
351.04966	24947.2
355.23424	26714.1
359.4158	28052.9
363.59435	28708.4
367.76989	28761.4
371.94243	28515.7
376.11196	28251.5
380.27849	28003.8
384.44203	27676.3
388.60257	27280.4
392.76012	27003.9
396.91468	27213
401.06626	27912.1
405.21485	28370.6
409.36047	27692.3
413.50311	26072.9
417.64277	24492.2
421.77947	23590.3
425.9132	23253.2
430.04396	23215.6
434.17176	23333
438.2966	23740.7
442.41849	24418.7
446.53742	25340.4
450.6534	26259.9
454.76644	26816.2
458.87653	26835.5
462.98368	26529.6
467.08789	25981.3
471.18916	25338.7
475.2875	24577.5
479.38291	23966.7
483.4754	23550.2
487.56496	23157.3
491.6516	22836
495.73531	22606.8
499.81612	22686.8
503.89401	22980.3
507.96899	23340.3
512.04106	23705.9
516.11023	24099.9
520.1765	24338.2
524.23987	24240.8
528.30034	23937.4
532.35792	23534.4
536.41261	23089.4
540.46441	22538.8
544.51333	22235.2
548.55936	22374.9
552.60252	22996.2
556.64279	23763.4
560.6802	24177.5
564.71473	24770.6
568.7464	25981.2
572.7752	26687.3
576.80114	25785.4
580.82422	24848.8
584.84444	24543.5
588.86181	24846.9
592.87633	25450.3
596.888	26087.2
600.89682	26794.4
604.9028	29989.9
608.90594	39206.9
612.90624	50776.8
616.90371	47449.5
620.89834	32092.2
624.89015	25101.1
628.87913	23924.9
632.86528	24281.9
636.84862	24728.2
640.82913	24096.3
644.80683	22556.5
648.78172	21505.5
652.75379	21446.6
656.72306	22542.4
660.68952	23837.4
664.65319	23451
668.61405	22120.1
672.57211	21645.6
676.52738	21697.4
680.47986	21670.1
684.42955	21381.7
688.37646	21147
692.32058	21232.8
696.26192	21417.2
700.20048	21768.9
704.13626	21948.9
708.06928	21788.7
711.99952	21443.3
715.927	21403.4
719.85171	21587.9
723.77365	21637.6
727.69284	21418.6
731.60928	21188.3
735.52295	21165
739.43388	21304.2
743.34206	21448.9
747.24749	21583.1
751.15017	21699.3
755.05012	22170.6
758.94733	23603.8
762.8418	27023
766.73354	32783.1
770.62254	38205.7
774.50882	40548.2
778.39237	38353.8
782.27321	32555.4
786.15132	26954.6
790.02671	23639.3
793.89938	22082.6
797.76935	21432
801.6366	21223.7
805.50115	20974.8
809.36299	20859.6
813.22213	20692.6
817.07857	20639.5
820.93231	20550.4
824.78336	20596.5
828.63172	20718.1
832.47738	20763.1
836.32036	20729.1
840.16066	20612.9
843.99827	20582.5
847.8332	20467.3
851.66546	20401.9
855.49504	20396.8
859.32195	20427.2
863.1462	20365.5
866.96777	20298.8
870.78668	20225.6
874.60293	20287.9
878.41652	20413.6
882.22745	20529.1
886.03573	20688.9
889.84136	20685.9
893.64433	20554.1
897.44466	20503.2
901.24235	20458.3
905.0374	20305.6
908.8298	20082.7
912.61957	19958.3
916.40671	20045.6
920.19121	20338.8
923.97308	20663.8
927.75233	21042.5
931.52895	21301.8
935.30295	21044.3
939.07433	20293.9
942.84309	19687.3
946.60924	19401.7
950.37278	19204.6
954.13371	19079.2
957.89203	18987.5
961.64774	18921.2
965.40086	18838.1
969.15137	18738.3
972.89929	18657.1
976.64461	18606.1
980.38733	18633.8
984.12747	18694.5
987.86502	18906.9
991.59999	19199.6
995.33237	19680.8
999.06217	20493.4
1002.78939	21496
1006.51404	22339.9
1010.23611	22868
1013.95561	23217.9
1017.67255	23148.6
1021.38692	22817.4
1025.09872	22349.1
1028.80796	22334.9
1032.51465	22838.4
1036.21877	23375.3
1039.92035	23591.7
1043.61937	23353.8
1047.31584	22837.6
1051.00976	22233
1054.70114	21784
1058.38998	21623.6
1062.07627	21702.7
1065.76003	21730.4
1069.44126	21834.8
1073.11995	22111.7
1076.79611	22547.5
1080.46974	23197
1084.14085	24000.4
1087.80943	24831
1091.47549	25046.8
1095.13903	24584
1098.80005	23599.5
1102.45857	22891.2
1106.11456	22652.2
1109.76805	22965.8
1113.41903	23717.5
1117.06751	24819.4
1120.71348	26307.2
1124.35696	27930.5
1127.99793	28977.4
1131.63641	28478.7
1135.2724	26816.5
1138.90589	25394.6
1142.5369	24455.3
1146.16542	23814.8
1149.79145	23487.8
1153.415	23438.2
1157.03607	23737.1
1160.65467	24372.4
1164.27079	25584.2
1167.88443	27442
1171.49561	30204.9
1175.10432	34448.8
1178.71056	40256.6
1182.31434	45145
1185.91565	46699.9
1189.51451	45235.7
1193.11091	42043.1
1196.70485	38555.2
1200.29634	35899.1
1203.88538	33688.5
1207.47197	31268.5
1211.05612	29217.4
1214.63782	28077.8
1218.21708	27791.2
1221.79391	27941.8
1225.36829	28138.6
1228.94024	27931.9
1232.50976	27451.3
1236.07685	27073.7
1239.6415	26899.5
1243.20374	26865.1
1246.76355	27076.8
1250.32093	27494.3
1253.8759	28303.6
1257.42845	29511.6
1260.97859	30831.8
1264.52631	32165
1268.07163	33491.4
1271.61453	34821.3
1275.15503	35895.2
1278.69312	36718.3
1282.22882	37547.7
1285.76211	38726.7
1289.29301	40193.1
1292.82151	41888.8
1296.34761	43945.6
1299.87133	47138.9
1303.39266	52146.3
1306.9116	59389.3
1310.42815	66706.8
1313.94233	69650
1317.45412	66578.7
1320.96354	60655.5
1324.47058	55060.1
1327.97525	50750.2
1331.47754	48157.2
1334.97747	47193.4
1338.47502	47727.9
1341.97022	49218.8
1345.46305	51424.1
1348.95352	54244.1
1352.44163	57929.2
1355.92738	64030.7
1359.41078	73837.9
1362.89183	82087.4
1366.37053	77525.5
1369.84688	63349
1373.32088	51111.2
1376.79254	44069.1
1380.26186	40504.5
1383.72883	38478.4
1387.19347	37005
1390.65578	35791.6
1394.11575	35131.9
1397.57339	35268
1401.0287	35784.2
1404.48168	36333.9
1407.93234	36749.8
1411.38068	36920.5
1414.82669	36692.8
1418.27039	35916.4
1421.71177	34766
1425.15083	33731
1428.58758	33349.4
1432.02203	33725.6
1435.45416	34312
1438.88399	34620.3
1442.31151	34796.3
1445.73673	35080.7
1449.15965	35468.5
1452.58027	35553
1455.9986	35451.9
1459.41463	35621.6
1462.82837	36206.1
1466.23982	37186
1469.64898	38105.4
1473.05586	38513.1
1476.46045	38534.5
1479.86276	38758.2
1483.26279	39226.6
1486.66054	40113.8
1490.05602	41476.6
1493.44922	43489.1
1496.84016	46529.8
1500.22882	51534
1503.61521	58901
1506.99934	67551
1510.38121	73930.3
1513.76081	73922.4
1517.13816	66984.6
1520.51324	57033.4
1523.88607	48816.9
1527.25665	43767.6
1530.62498	41042
1533.99105	39518
1537.35488	38470.2
1540.71647	37738.7
1544.07581	37320.7
1547.4329	37035.6
1550.78776	36887.4
1554.14038	37010.6
1557.49077	37418.9
1560.83892	38082.5
1564.18484	39181.4
1567.52853	40449.7
1570.86999	41367.2
1574.20922	41852
1577.54624	41382.7
1580.88103	39204.9
1584.2136	36635.2
1587.54395	35805.6
1590.87208	37010.7
1594.19801	40019.7
1597.52172	43587.6
1600.84321	44842.3
1604.16251	42929.2
1607.47959	39371
1610.79447	35609.9
1614.10715	32065.9
1617.41763	29309.6
1620.7259	27605.9
1624.03199	26820.8
1627.33587	27067.8
1630.63757	28260
1633.93707	30504.9
1637.23439	34039.2
1640.52951	39173.3
1643.82246	45823.3
1647.11321	52534.6
1650.40179	55600.9
1653.68819	51847.4
1656.97241	42907.3
1660.25446	34303.9
1663.53433	28420.8
1666.81203	24964.7
1670.08756	22998.5
1673.36092	21809.9
1676.63211	21038.5
1679.90115	20425.8
1683.16801	20054.2
1686.43272	19754.8
1689.69527	19513.6
1692.95567	19278.3
1696.2139	19077.3
1699.46999	18918.3
1702.72392	18874.1
1705.97571	18903.7
1709.22535	18962.3
1712.47284	18972.7
1715.71819	18979.1
1718.96139	18897
1722.20246	18818.7
1725.44139	18649.4
1728.67818	18482.4
1731.91284	18301
1735.14537	18167.9
1738.37576	18090.5
1741.60403	18001.9
1744.83017	17970.1
1748.05418	17865.6
1751.27607	17765.8
1754.49584	17687.5
1757.71349	17625.7
1760.92903	17574.1
1764.14244	17510.1
1767.35375	17437.6
1770.56294	17365.6
1773.77002	17368.5
1776.97499	17324.2
1780.17785	17344.4
1783.37861	17328.4
1786.57727	17314
1789.77382	17261.1
1792.96828	17236.3
1796.16064	17231.2
1799.3509	17187.3
1802.53907	17160.8
1805.72514	17114.5
1808.90913	17069.6
1812.09102	17034.8
1815.27083	16930.2
1818.44856	16915.1
1821.6242	16907.8
1824.79776	16890.5
1827.96924	16875.4
1831.13864	16859.6
1834.30597	16889.4
1837.47122	16826.5
1840.6344	16805.7
1843.7955	16801.1
1846.95454	16813.4
1850.11151	16800.1
1853.26642	16799.4
1856.41926	16811.6
1859.57004	16828.8
1862.71876	16808.8
1865.86542	16833.6
1869.01003	16838.4
1872.15258	16831.4
1875.29308	16845.9
1878.43152	16859.8
1881.56792	16849.6
1884.70227	16894.3
1887.83457	16900.8
1890.96482	16893.6
1894.09304	16913.7
1897.21921	16918.3
1900.34335	16921.1
1903.46544	16948.9
1906.58551	16896.1
1909.70353	16896.4
1912.81953	16871.1
1915.93349	16859.4
1919.04543	16829.3
1922.15534	16753.1
1925.26322	16687.1
1928.36908	16610.5
1931.47292	16575.5
1934.57473	16488.4
1937.67453	16376.2
1940.77232	16321.7
1943.86808	16252.3
1946.96184	16231
1950.05358	16159.9
1953.14331	16084
1956.23103	16043.3
1959.31675	16026.6
1962.40046	15990.8
1965.48217	15926.5
1968.56188	15885.5
1971.63959	15885.3
1974.7153	15825.6
1977.78901	15771.4
1980.86073	15728.1
1983.93046	15659.8
1986.99819	15525
1990.06394	15509.7
1993.1277	15466
1996.18947	15404.5
1999.24925	15357.2
2002.30706	15307.5
2005.36288	15255.2
2008.41672	15223.1
2011.46859	15173.8
2014.51848	15143.1
2017.56639	15110.4
2020.61233	15072.1
2023.6563	15023.6
2026.6983	14995
2029.73833	14957.5
2032.7764	14961.4
2035.8125	14931.3
2038.84664	14922.8
2041.87881	14914.1
2044.90903	14866.5
2047.93729	14864.5
2050.96359	14800.8
2053.98794	14813.4
2057.01034	14755.7
2060.03078	14759.7
2063.04927	14727.8
2066.06582	14716.9
2069.08042	14758.1
2072.09307	14700.5
2075.10378	14641.2
2078.11255	14635.8
2081.11938	14677.3
2084.12426	14643.2
2087.12722	14632.6
2090.12824	14615.5
2093.12732	14614.7
2096.12447	14630.3
2099.11969	14642.9
2102.11299	14635.6
2105.10435	14644.7
2108.09379	14621.8
2111.08131	14660.3
2114.0669	14655.6
2117.05057	14694.3
2120.03233	14715.9
2123.01216	14706.9
2125.99008	14756.9
2128.96609	14761.8
2131.94018	14786.8
2134.91236	14737.3
2137.88263	14733.6
2140.851	14730
2143.81746	14747.3
2146.78201	14694.6
2149.74466	14695.4
2152.7054	14721.8
2155.66425	14673.7
2158.6212	14684.2
2161.57625	14672.5
2164.52941	14681
2167.48067	14655.9
2170.43004	14682.9
2173.37752	14650.8
2176.32311	14674.1
2179.26681	14682
2182.20863	14669.6
2185.14856	14696.6
2188.08661	14697.7
2191.02278	14723.6
2193.95707	14694.8
2196.88948	14687.1
2199.82001	14652.4
2202.74867	14690.4
2205.67545	14697.5
2208.60037	14673.3
2211.52341	14642.8
2214.44458	14620.6
2217.36388	14593.4
2220.28132	14566.9
2223.1969	14530.5
2226.11061	14538.1
2229.02246	14464.4
2231.93245	14467
2234.84058	14421.1
2237.74686	14407.8
2240.65128	14426.2
2243.55385	14435.3
2246.45456	14407.1
2249.35343	14405.8
2252.25044	14364.9
2255.14561	14375.5
2258.03893	14387.9
2260.93041	14355
2263.82004	14381.3
2266.70783	14325
2269.59378	14255.6
2272.4779	14232.3
2275.36017	14214.4
2278.24061	14176.1
2281.11922	14153
2283.996	14093
2286.87094	14090.2
2289.74405	14036.5
2292.61534	14046.8
2295.4848	14013.9
2298.35243	14028.1
2301.21824	14035
2304.08223	14054.2
2306.94439	14030.1
2309.80474	14094.7
2312.66327	14102.2
2315.51999	14089.9
2318.37489	14084.2
2321.22797	14061.5
2324.07925	14051.4
2326.92871	14018.3
2329.77637	13992.9
2332.62222	14010.8
2335.46626	14019.5
2338.3085	14034.4
2341.14893	14048.9
2343.98756	14072.6
2346.8244	14102.9
2349.65943	14099.9
2352.49267	14088.3
2355.32411	14170.7
2358.15376	14176.1
2360.98161	14166.5
2363.80768	14140.8
2366.63195	14158.5
2369.45444	14176.3
2372.27514	14131.2
2375.09405	14091.4
2377.91118	14078.7
2380.72652	14027.2
2383.54009	13941.5
2386.35187	13928.2
2389.16188	13870.9
2391.97011	13829.6
2394.77657	13806.9
2397.58125	13752.6
2400.38416	13718.6
2403.18529	13691.6
2405.98466	13664.8
2408.78226	13638.7
2411.57809	13630.4
2414.37216	13601.2
2417.16446	13590.4
2419.955	13586.7
2422.74378	13597.9
2425.5308	13576.1
2428.31606	13544.1
2431.09956	13556.5
2433.88131	13534.4
2436.6613	13591.1
2439.43954	13587.6
2442.21603	13580.1
2444.99077	13582.5
2447.76377	13634.8
2450.53501	13598.7
2453.30451	13634.6
2456.07226	13637.5
2458.83827	13642.6
2461.60254	13635.3
2464.36507	13609.9
2467.12586	13635.1
2469.88492	13640.1
2472.64224	13643.9
2475.39782	13633.6
2478.15167	13640.5
2480.90379	13694.8
2483.65417	13760.2
2486.40283	13812
2489.14976	13836.9
2491.89497	13847.5
2494.63845	13866.4
2497.3802	13839.6
2500.12024	13849.1
2502.85855	13821.3
2505.59514	13782.2
2508.33002	13746.9
2511.06318	13720.7
2513.79462	13654.7
2516.52435	13621.3
2519.25237	13546.9
2521.97867	13524
2524.70327	13541.4
2527.42616	13508.3
2530.14734	13505
2532.86681	13535.8
2535.58458	13528.6
2538.30065	13509.4
2541.01501	13520.3
2543.72768	13504
2546.43864	13524.6
2549.14791	13504.4
2551.85548	13527.6
2554.56136	13490
2557.26554	13497.1
2559.96803	13491.8
2562.66883	13458.1
2565.36794	13498.4
2568.06536	13470
2570.7611	13470.5
2573.45514	13461.6
2576.14751	13463.7
2578.83819	13460.7
2581.52719	13437.1
2584.21451	13432.3
2586.90015	13421.1
2589.58411	13418.6
2592.2664	13426.3
2594.94701	13402.2
2597.62594	13435.2
2600.30321	13392
2602.9788	13428.3
2605.65273	13409.1
2608.32498	13415.3
2610.99557	13392.7
2613.66449	13469
2616.33175	13506.5
2618.99734	13481.9
2621.66128	13486.4
2624.32355	13474.9
2626.98416	13463.2
2629.64311	13431.1
2632.30041	13417.9
2634.95605	13450.5
2637.61004	13403
2640.26238	13411.9
2642.91306	13355.5
2645.56209	13337.4
2648.20948	13313.1
2650.85521	13337.3
2653.4993	13328.9
2656.14175	13359.9
2658.78255	13371.3
2661.42171	13360.6
2664.05923	13394.4
2666.6951	13395.4
2669.32934	13439.9
2671.96194	13447.8
2674.59291	13484.6
2677.22224	13484.1
2679.84993	13474.5
2682.476	13463.1
2685.10043	13440.1
2687.72324	13389.4
2690.34441	13431.1
2692.96396	13348.1
2695.58188	13385.9
2698.19818	13357.5
2700.81285	13367.9
2703.4259	13324.6
2706.03733	13281
2708.64714	13314.7
2711.25533	13355.2
2713.86191	13410.7
2716.46687	13426.4
2719.07021	13440.8
2721.67194	13444.1
2724.27206	13423.1
2726.87057	13477.3
2729.46747	13491.8
2732.06276	13466.1
2734.65644	13446.8
2737.24852	13430.1
2739.83899	13423.5
2742.42786	13416.7
2745.01513	13413
2747.60079	13431.2
2750.18486	13360.8
2752.76733	13397.6
2755.3482	13397.4
2757.92747	13395.3
2760.50515	13339
2763.08123	13374
2765.65573	13364
2768.22863	13375.5
2770.79994	13340.9
2773.36967	13340.1
2775.9378	13325.8
2778.50435	13361.7
2781.06932	13386.2
2783.6327	13362.5
2786.1945	13350.8
2788.75471	13358.9
2791.31335	13317.6
2793.87041	13344.8
2796.42589	13329.1
2798.97979	13330.9
2801.53212	13290.4
2804.08288	13272.9
2806.63206	13252
2809.17967	13226.1
2811.72571	13239.6
2814.27018	13241.6
2816.81308	13239
2819.35442	13248.7
2821.89419	13240.7
2824.43239	13294.2
2826.96904	13273.1
2829.50412	13286.5
2832.03763	13232
2834.56959	13242
2837.1	13225.4
2839.62884	13228.5
2842.15613	13196.5
2844.68186	13210.5
2847.20604	13239.8
2849.72867	13245.1
2852.24974	13203.3
2854.76927	13213.4
2857.28724	13190.8
2859.80367	13228.3
2862.31855	13241
2864.83189	13242
2867.34368	13254.5
2869.85393	13286.2
2872.36264	13288
2874.8698	13281.1
2877.37543	13265.2
2879.87952	13273.1
2882.38207	13258.9
2884.88308	13270.5
2887.38256	13245.3
2889.88051	13261
2892.37692	13266.5
2894.8718	13300.4
2897.36515	13288.3
2899.85698	13301.2
2902.34727	13298.7
2904.83604	13339.2
2907.32328	13317.6
2909.809	13307
2912.29319	13334.8
2914.77587	13312.1
2917.25702	13327.6
2919.73665	13263.4
2922.21476	13279.6
2924.69136	13272.9
2927.16644	13240.1
2929.64	13205
2932.11205	13167.7
2934.58258	13089
2937.05161	13086.5
2939.51912	13113.2
2941.98513	13089
2944.44962	13077.1
2946.91261	13036.5
2949.37409	13080.7
2951.83407	13049.2
2954.29254	13052
2956.74951	13042.6
2959.20498	13009.3
2961.65895	12975.2
2964.11142	12974.2
2966.56239	12934.7
2969.01186	12888.7
2971.45984	12856.4
2973.90632	12879.6
2976.35131	12820.6
2978.7948	12779.2
2981.23681	12793.6
2983.67732	12769.2
2986.11635	12701.9
2988.55388	12675
2990.98993	12671
2993.4245	12660.6
2995.85758	12623.2
2998.28917	12593.8
3000.71928	12573.8
3003.14791	12560.4
3005.57506	12547
3008.00073	12518.8
3010.42493	12483.3
3012.84764	12464.8
3015.26888	12484.8
3017.68865	12452.6
3020.10694	12433.6
3022.52376	12369.6
3024.9391	12384.3
3027.35298	12311.5
3029.76539	12301.4
3032.17632	12289.8
3034.5858	12268.2
3036.9938	12226.6
3039.40034	12214.6
3041.80542	12196.5
3044.20903	12202.6
3046.61118	12164.7
3049.01187	12136.9
3051.4111	12129.8
3053.80888	12089.2
3056.20519	12100.9
3058.60005	12052.5
3060.99345	12024.8
3063.3854	12000.6
3065.7759	11943.5
3068.16494	11927.3
3070.55254	11873.9
3072.93868	11830.4
3075.32338	11790.3
3077.70662	11738.7
3080.08842	11707.2
3082.46878	11696.9
3084.84769	11654.9
3087.22515	11683.8
3089.60118	11647.2
3091.97576	11678.5
3094.3489	11671.5
3096.72061	11657.1
3099.09087	11632.5
3101.4597	11620.1
3103.82709	11628.2
3106.19305	11604
3108.55757	11624.5
3110.92066	11577.6
3113.28232	11567.8
3115.64255	11539.9
3118.00134	11494.9
3120.35871	11473.1
3122.71466	11457.4
3125.06917	11414.1
3127.42226	11404.7
3129.77393	11416.9
3132.12417	11411.5
3134.47299	11400.4
3136.82039	11395.6
3139.16636	11388.8
3141.51092	11369.2
3143.85406	11364.5
3146.19579	11351.3
3148.53609	11331.1
3150.87499	11364.8
3153.21246	11372.5
3155.54853	11384.4
3157.88318	11368.4
3160.21642	11373.7
3162.54826	11408.8
3164.87868	11389.3
3167.2077	11345.1
3169.5353	11353.7
3171.86151	11376.8
3174.18631	11343.9
3176.5097	11334.1
3178.83169	11334.2
3181.15228	11307
3183.47147	11271.8
3185.78926	11266.8
3188.10565	11258.2
3190.42065	11275.9
3192.73424	11306.7
3195.04645	11274.4
3197.35725	11283.1
3199.66667	11282.4
3201.97469	11296.8
3204.28132	11281.9
3206.58656	11330.2
3208.8904	11330.1
3211.19287	11319.7
3213.49394	11332.9
3215.79363	11320.8
3218.09193	11366.3
3220.38884	11366.6
3222.68438	11343.1
3224.97853	11326.4
3227.2713	11337
3229.56269	11328
3231.8527	11342.5
3234.14133	11325.9
3236.42858	11305.6
3238.71446	11278.6
3240.99896	11253.9
3243.28209	11279.2
3245.56384	11259.3
3247.84423	11265.5
3250.12324	11216.9
3252.40088	11235.2
3254.67715	11242.2
3256.95205	11249
3259.22558	11186.7
3261.49775	11204.4
3263.76855	11238.5
3266.03799	11223
3268.30606	11217.1
3270.57277	11205.5
3272.83812	11189.1
3275.10211	11175.6
3277.36474	11150.5
3279.62601	11166.9
3281.88593	11144.9
3284.14448	11148.2
3286.40168	11145.9
3288.65753	11133.6
3290.91202	11159.2
3293.16516	11117.8
3295.41695	11140.8
3297.66738	11050.5
3299.91647	11015.1
3302.16421	10925.7
3304.4106	10912.6
3306.65564	10850.5
3308.89933	10750
3311.14169	10673.5
3313.38269	10558
3315.62236	10495.6
3317.86068	10419.3
3320.09766	10322.4
3322.3333	10242.9
3324.5676	10200.2
3326.80056	10034.2
3329.03219	9973.5
3331.26248	3.1
3333.49143	0.5
3335.71905	0
