Data from AgNPs_FTO_APTES_UA_50uM_CRN_1uM_R6G_10uM_NaF_0.1M_Addition_RamanShift__21__11-40-04-735.txt Node

Date: Mon Feb 21 11:40:04 GMT 2022
User: TCL
Spectrometer: QEP01345
Trigger mode: 4
Integration Time (sec): 7.000000E0
Scans to average: 10
Electric dark correction enabled: true
Nonlinearity correction enabled: false
Boxcar width: 0
XAxis mode: Raman Shifts
Number of Pixels in Spectrum: 1044
>>>>>Begin Spectral Data<<<<<
46.04893	-1.1
50.45542	-1.7
54.85868	-0.1
59.25871	-0.2
63.6555	65.2
68.04907	70.3
72.43941	75.7
76.82654	76
81.21044	81.7
85.59113	82.4
89.96862	84.7
94.34289	88.7
98.71396	86.3
103.08183	98.4
107.4465	95.5
111.80798	97.3
116.16626	97.8
120.52136	100
124.87327	109.1
129.222	108.2
133.56755	113
137.90993	121.3
142.24913	136.4
146.58517	148.2
150.91804	170.1
155.24774	203.6
159.57429	249.6
163.89768	319.8
168.21792	428.5
172.53501	577.3
176.84895	813.3
181.15975	1139.1
185.46741	1602.3
189.77193	2211.7
194.07331	2945.5
198.37157	3791.8
202.6667	4684.8
206.9587	5590.2
211.24758	6463.4
215.53334	7368.7
219.81599	8355
224.09553	9454.6
228.37195	10656.7
232.64527	12003.6
236.91549	13394.6
241.18261	14672.5
245.44663	15877.8
249.70755	16863.6
253.96539	17756.7
258.22014	18473.7
262.4718	19150.9
266.72039	19566.4
270.96589	19785.2
275.20832	19804.2
279.44768	19611.7
283.68397	19365.9
287.91719	19202
292.14735	19159.4
296.37445	19299.5
300.59849	19561.2
304.81948	19954.9
309.03742	20144.4
313.25231	20081.2
317.46415	19438.1
321.67296	18571.7
325.87872	17827.9
330.08145	17459.7
334.28114	17439.2
338.47781	17612.1
342.67145	17971.5
346.86207	18396.1
351.04966	19033.8
355.23424	19807.8
359.4158	20405.3
363.59435	20792.8
367.76989	21000.5
371.94243	21038.9
376.11196	21042.9
380.27849	21031
384.44203	21072.6
388.60257	21008.4
392.76012	21079.4
396.91468	21322
401.06626	21730.6
405.21485	22031.1
409.36047	21860.7
413.50311	21260
417.64277	20740.6
421.77947	20445
425.9132	20379.2
430.04396	20410.5
434.17176	20528.4
438.2966	20705.2
442.41849	21130.9
446.53742	21737.5
450.6534	22425.5
454.76644	22914.4
458.87653	23125.6
462.98368	23000.7
467.08789	22680.7
471.18916	22240.4
475.2875	21821.1
479.38291	21508
483.4754	21305.6
487.56496	21060.8
491.6516	20797.2
495.73531	20514.6
499.81612	20408.8
503.89401	20593.9
507.96899	20655.3
512.04106	20714.9
516.11023	20711
520.1765	20702.4
524.23987	20660.3
528.30034	20431.2
532.35792	20210.5
536.41261	19928
540.46441	19612.4
544.51333	19525.8
548.55936	19654.2
552.60252	20097.4
556.64279	20650.1
560.6802	20988
564.71473	21274.7
568.7464	21836
572.7752	22391.6
576.80114	22442.5
580.82422	22361.8
584.84444	22459.5
588.86181	22685.3
592.87633	22982.8
596.888	23265.4
600.89682	23391.4
604.9028	24663.7
608.90594	28422
612.90624	33153.4
616.90371	31562.1
620.89834	24621.1
624.89015	21365.6
628.87913	20859.9
632.86528	20884.7
636.84862	20936
640.82913	20582.4
644.80683	19827.1
648.78172	19256.7
652.75379	19147.9
656.72306	19618.7
660.68952	20234.2
664.65319	20190.8
668.61405	19606.3
672.57211	19404.5
676.52738	19433.3
680.47986	19419.2
684.42955	19242.9
688.37646	19225.1
692.32058	19328.7
696.26192	19585
700.20048	19768.5
704.13626	19903.4
708.06928	19786.1
711.99952	19578.7
715.927	19516
719.85171	19671.1
723.77365	19616.4
727.69284	19380.7
731.60928	19137.7
735.52295	19075.5
739.43388	19109.9
743.34206	19209.2
747.24749	19328.2
751.15017	19506.6
755.05012	19827
758.94733	20597.5
762.8418	22068.9
766.73354	24573.2
770.62254	27129.8
774.50882	28090.9
778.39237	26850.6
782.27321	24195.1
786.15132	21814.2
790.02671	20283.5
793.89938	19568.1
797.76935	19298
801.6366	19177
805.50115	19127.6
809.36299	19025.8
813.22213	18883.8
817.07857	18803.6
820.93231	18788.1
824.78336	18723
828.63172	18747.1
832.47738	18727.7
836.32036	18741
840.16066	18785.2
843.99827	18838.9
847.8332	18781.3
851.66546	18720.7
855.49504	18687.3
859.32195	18636.8
863.1462	18560.8
866.96777	18489.2
870.78668	18467.2
874.60293	18468.6
878.41652	18515.7
882.22745	18596.7
886.03573	18684.3
889.84136	18693.5
893.64433	18583.3
897.44466	18520
901.24235	18431.2
905.0374	18356.7
908.8298	18227.4
912.61957	18223.4
916.40671	18332.8
920.19121	18540.2
923.97308	18789.1
927.75233	18995.9
931.52895	19039.5
935.30295	18804.3
939.07433	18414.5
942.84309	18069
946.60924	17914.3
950.37278	17882.2
954.13371	17735.5
957.89203	17633.6
961.64774	17563.8
965.40086	17523.8
969.15137	17450.9
972.89929	17391.6
976.64461	17378.4
980.38733	17357.8
984.12747	17471.7
987.86502	17662.8
991.59999	17916
995.33237	18294.5
999.06217	18986.4
1002.78939	19713.7
1006.51404	20264.7
1010.23611	20570
1013.95561	20805.6
1017.67255	20772.5
1021.38692	20538
1025.09872	20318.5
1028.80796	20435.9
1032.51465	20925.9
1036.21877	21459.2
1039.92035	21547.5
1043.61937	21315.4
1047.31584	20799
1051.00976	20141.1
1054.70114	19764.1
1058.38998	19666.5
1062.07627	19691.6
1065.76003	19799.5
1069.44126	19927.9
1073.11995	20171.3
1076.79611	20458.4
1080.46974	20697.1
1084.14085	21063.1
1087.80943	21429.1
1091.47549	21618.1
1095.13903	21503.7
1098.80005	21011.7
1102.45857	20508.5
1106.11456	20200.5
1109.76805	20235.8
1113.41903	20477.2
1117.06751	20810.6
1120.71348	21340.6
1124.35696	21862.8
1127.99793	22296.9
1131.63641	22332.1
1135.2724	21877.7
1138.90589	21393.7
1142.5369	21068.7
1146.16542	20853.1
1149.79145	20786
1153.415	20876.5
1157.03607	21089.6
1160.65467	21568.5
1164.27079	22399.8
1167.88443	23602.6
1171.49561	25310.4
1175.10432	27755.3
1178.71056	30977.3
1182.31434	33928.7
1185.91565	35377.6
1189.51451	35106.3
1193.11091	33593.9
1196.70485	31697.8
1200.29634	29966.6
1203.88538	28497.1
1207.47197	27224.5
1211.05612	26172.6
1214.63782	25543.5
1218.21708	25354.4
1221.79391	25405.5
1225.36829	25461.4
1228.94024	25286.5
1232.50976	24859.2
1236.07685	24548.8
1239.6415	24314
1243.20374	24248.4
1246.76355	24297.6
1250.32093	24644.8
1253.8759	25247
1257.42845	26065.8
1260.97859	26912.5
1264.52631	27800.5
1268.07163	28727.7
1271.61453	29675.8
1275.15503	30496.5
1278.69312	31353.3
1282.22882	32097.6
1285.76211	32840.5
1289.29301	33747.5
1292.82151	34783.8
1296.34761	36164.3
1299.87133	38101.1
1303.39266	40804
1306.9116	44394.1
1310.42815	48110.6
1313.94233	50317.6
1317.45412	49929.9
1320.96354	47997.5
1324.47058	45682.1
1327.97525	43639.7
1331.47754	42435
1334.97747	42048.7
1338.47502	42247.4
1341.97022	42559.1
1345.46305	42707.3
1348.95352	42819.8
1352.44163	43382.8
1355.92738	45204.1
1359.41078	48780.9
1362.89183	52412.3
1366.37053	51265.4
1369.84688	45371.3
1373.32088	39124.5
1376.79254	35124.2
1380.26186	33189.1
1383.72883	32406.6
1387.19347	31874.4
1390.65578	31306
1394.11575	31082.3
1397.57339	31369.2
1401.0287	31942.6
1404.48168	32645.4
1407.93234	33141.6
1411.38068	33229.1
1414.82669	32830.2
1418.27039	31856.7
1421.71177	30726.8
1425.15083	29657.2
1428.58758	29065.6
1432.02203	29146.7
1435.45416	29530.8
1438.88399	30001.9
1442.31151	30368.6
1445.73673	30730.1
1449.15965	31110.7
1452.58027	31314.9
1455.9986	31370.9
1459.41463	31517.6
1462.82837	31940.8
1466.23982	32535.2
1469.64898	33176.6
1473.05586	33534.3
1476.46045	33592
1479.86276	33652
1483.26279	33749.3
1486.66054	33996.8
1490.05602	34504.5
1493.44922	35232.8
1496.84016	36169.1
1500.22882	37690.8
1503.61521	39980.6
1506.99934	42894.5
1510.38121	45294.4
1513.76081	45794
1517.13816	43657.9
1520.51324	40033.1
1523.88607	36796
1527.25665	34691.3
1530.62498	33579.9
1533.99105	32943.6
1537.35488	32518.6
1540.71647	32137
1544.07581	31739
1547.4329	31342.9
1550.78776	30933.9
1554.14038	30767.6
1557.49077	30689.7
1560.83892	30811.9
1564.18484	31109.1
1567.52853	31381.8
1570.86999	31662
1574.20922	32004.1
1577.54624	32077.4
1580.88103	31541.3
1584.2136	30960.7
1587.54395	31247.5
1590.87208	32661.2
1594.19801	35008.8
1597.52172	37622.2
1600.84321	38552
1604.16251	37114.4
1607.47959	34282.7
1610.79447	31131.9
1614.10715	28286.1
1617.41763	25979.4
1620.7259	24479.9
1624.03199	23739.7
1627.33587	23755.6
1630.63757	24516.3
1633.93707	26114.7
1637.23439	28542.5
1640.52951	31881.3
1643.82246	35685.8
1647.11321	39108.5
1650.40179	40205.7
1653.68819	37841
1656.97241	32719.9
1660.25446	27518.9
1663.53433	23739.2
1666.81203	21447.2
1670.08756	20075.7
1673.36092	19244
1676.63211	18729.1
1679.90115	18273.7
1683.16801	17980.8
1686.43272	17776.5
1689.69527	17557.5
1692.95567	17390.1
1696.2139	17230.6
1699.46999	17024.6
1702.72392	16998.7
1705.97571	17016.2
1709.22535	17097.4
1712.47284	17124.4
1715.71819	17155.5
1718.96139	17134.8
1722.20246	17045
1725.44139	16958.1
1728.67818	16831.7
1731.91284	16732
1735.14537	16642.8
1738.37576	16564.8
1741.60403	16501.4
1744.83017	16438.8
1748.05418	16394.8
1751.27607	16324.6
1754.49584	16228.8
1757.71349	16135
1760.92903	16077
1764.14244	16038.6
1767.35375	16074.5
1770.56294	16025.8
1773.77002	16046.9
1776.97499	16048.3
1780.17785	16089.1
1783.37861	16067.9
1786.57727	16086.3
1789.77382	16072.5
1792.96828	16118.9
1796.16064	16052.1
1799.3509	16056.2
1802.53907	15987.1
1805.72514	15952.7
1808.90913	15920.7
1812.09102	15884.8
1815.27083	15864.8
1818.44856	15871.4
1821.6242	15821.8
1824.79776	15801.7
1827.96924	15807.4
1831.13864	15773.2
1834.30597	15817
1837.47122	15816.9
1840.6344	15790.8
1843.7955	15802.6
1846.95454	15792.2
1850.11151	15789.3
1853.26642	15759.6
1856.41926	15741.8
1859.57004	15788
1862.71876	15791.8
1865.86542	15791.4
1869.01003	15777.1
1872.15258	15805.8
1875.29308	15809.2
1878.43152	15781.3
1881.56792	15824.2
1884.70227	15825.3
1887.83457	15768.6
1890.96482	15778.4
1894.09304	15766.1
1897.21921	15787
1900.34335	15752.6
1903.46544	15781.1
1906.58551	15784.6
1909.70353	15780.8
1912.81953	15748.3
1915.93349	15739
1919.04543	15693.8
1922.15534	15667
1925.26322	15610.3
1928.36908	15553.4
1931.47292	15446.8
1934.57473	15447.6
1937.67453	15405.9
1940.77232	15348.1
1943.86808	15324.5
1946.96184	15235.5
1950.05358	15198.5
1953.14331	15133.8
1956.23103	15050.4
1959.31675	15017.6
1962.40046	14986.2
1965.48217	14974.7
1968.56188	14937.7
1971.63959	14920.5
1974.7153	14873.7
1977.78901	14824.3
1980.86073	14768.5
1983.93046	14718
1986.99819	14629.8
1990.06394	14629.1
1993.1277	14557
1996.18947	14526.7
1999.24925	14492.2
2002.30706	14466.1
2005.36288	14420.7
2008.41672	14417.7
2011.46859	14366.6
2014.51848	14285.9
2017.56639	14244.1
2020.61233	14232.2
2023.6563	14201.9
2026.6983	14151.1
2029.73833	14172.9
2032.7764	14123.8
2035.8125	14116.4
2038.84664	14069.5
2041.87881	14078.1
2044.90903	14060
2047.93729	14028.2
2050.96359	13983.7
2053.98794	13989.8
2057.01034	13985.8
2060.03078	13978.1
2063.04927	13947.8
2066.06582	13913.4
2069.08042	13927
2072.09307	13934.4
2075.10378	13883.4
2078.11255	13891.9
2081.11938	13910.1
2084.12426	13894.6
2087.12722	13896.1
2090.12824	13858.3
2093.12732	13841.6
2096.12447	13874.7
2099.11969	13879.3
2102.11299	13866.9
2105.10435	13867.6
2108.09379	13856.9
2111.08131	13886.9
2114.0669	13903.9
2117.05057	13921.1
2120.03233	13902.3
2123.01216	13925.8
2125.99008	13954.6
2128.96609	13967.7
2131.94018	13916.1
2134.91236	13944.8
2137.88263	13989.5
2140.851	14007.8
2143.81746	14005.7
2146.78201	13997.2
2149.74466	14001
2152.7054	14004.9
2155.66425	13989.1
2158.6212	14013.7
2161.57625	13949.3
2164.52941	13968.6
2167.48067	13977.3
2170.43004	13951.9
2173.37752	13924.2
2176.32311	13962.1
2179.26681	13965.9
2182.20863	13976.5
2185.14856	13993.4
2188.08661	13987.1
2191.02278	13995.5
2193.95707	13981.9
2196.88948	13985.7
2199.82001	13959.6
2202.74867	13952.3
2205.67545	13949.8
2208.60037	13952.5
2211.52341	13951.7
2214.44458	13919.7
2217.36388	13921.9
2220.28132	13904.4
2223.1969	13891.1
2226.11061	13860.9
2229.02246	13832.6
2231.93245	13818.2
2234.84058	13766.6
2237.74686	13749.7
2240.65128	13705
2243.55385	13732.6
2246.45456	13711.1
2249.35343	13671.2
2252.25044	13703.4
2255.14561	13680.5
2258.03893	13647.8
2260.93041	13595.6
2263.82004	13572.6
2266.70783	13584.6
2269.59378	13570.4
2272.4779	13502.3
2275.36017	13495.8
2278.24061	13463
2281.11922	13461.9
2283.996	13442
2286.87094	13420.6
2289.74405	13414.5
2292.61534	13370.8
2295.4848	13391.3
2298.35243	13375.4
2301.21824	13376.8
2304.08223	13380.9
2306.94439	13409
2309.80474	13405.4
2312.66327	13426
2315.51999	13401.1
2318.37489	13413.1
2321.22797	13391.5
2324.07925	13388.1
2326.92871	13373.2
2329.77637	13357.8
2332.62222	13366.7
2335.46626	13373.7
2338.3085	13388.6
2341.14893	13363.3
2343.98756	13394.3
2346.8244	13425.4
2349.65943	13407.7
2352.49267	13411.4
2355.32411	13404.3
2358.15376	13409.5
2360.98161	13413
2363.80768	13365.3
2366.63195	13403.5
2369.45444	13363.1
2372.27514	13327.4
2375.09405	13314.1
2377.91118	13269.6
2380.72652	13234.2
2383.54009	13191.9
2386.35187	13176.8
2389.16188	13153.7
2391.97011	13158.3
2394.77657	13143.7
2397.58125	13115.6
2400.38416	13078.4
2403.18529	13071.7
2405.98466	13066.9
2408.78226	13042.5
2411.57809	13001.4
2414.37216	12957.9
2417.16446	12970.9
2419.955	12928.4
2422.74378	12944.8
2425.5308	12898.3
2428.31606	12913.5
2431.09956	12903.5
2433.88131	12881
2436.6613	12933.1
2439.43954	12940.7
2442.21603	12923.4
2444.99077	12903.6
2447.76377	12913.2
2450.53501	12918.2
2453.30451	12909.3
2456.07226	12901.1
2458.83827	12919.2
2461.60254	12892.6
2464.36507	12857.2
2467.12586	12862.7
2469.88492	12863
2472.64224	12882
2475.39782	12888.5
2478.15167	12905.3
2480.90379	12931.5
2483.65417	12988.6
2486.40283	12995.9
2489.14976	13010.3
2491.89497	13017.1
2494.63845	13018.5
2497.3802	12959.6
2500.12024	13028.9
2502.85855	13001.2
2505.59514	13001.3
2508.33002	12963.4
2511.06318	12950.5
2513.79462	12914.9
2516.52435	12910.5
2519.25237	12848.6
2521.97867	12853.5
2524.70327	12829.2
2527.42616	12809.3
2530.14734	12815.9
2532.86681	12856.9
2535.58458	12854.7
2538.30065	12841.4
2541.01501	12833.7
2543.72768	12823.4
2546.43864	12814.2
2549.14791	12811.4
2551.85548	12829.6
2554.56136	12815.4
2557.26554	12784
2559.96803	12761
2562.66883	12723.4
2565.36794	12734.5
2568.06536	12715.6
2570.7611	12696.4
2573.45514	12708
2576.14751	12749.6
2578.83819	12702.5
2581.52719	12705.3
2584.21451	12690.9
2586.90015	12731.6
2589.58411	12675
2592.2664	12695.8
2594.94701	12728.5
2597.62594	12741.7
2600.30321	12709
2602.9788	12708.2
2605.65273	12688.1
2608.32498	12711.3
2610.99557	12704.5
2613.66449	12705.1
2616.33175	12687.7
2618.99734	12710.9
2621.66128	12692.1
2624.32355	12722.6
2626.98416	12717.6
2629.64311	12713.7
2632.30041	12739
2634.95605	12715.5
2637.61004	12668.9
2640.26238	12654.4
2642.91306	12656.2
2645.56209	12643.9
2648.20948	12636.3
2650.85521	12611.7
2653.4993	12611.9
2656.14175	12620.4
2658.78255	12659.1
2661.42171	12637.5
2664.05923	12690.5
2666.6951	12674.2
2669.32934	12703.7
2671.96194	12698.9
2674.59291	12713.8
2677.22224	12681.2
2679.84993	12690.4
2682.476	12688
2685.10043	12702.4
2687.72324	12707.8
2690.34441	12685.4
2692.96396	12641.6
2695.58188	12643.8
2698.19818	12623.4
2700.81285	12636.9
2703.4259	12607.1
2706.03733	12515.8
2708.64714	12572.1
2711.25533	12634.4
2713.86191	12642.9
2716.46687	12683.6
2719.07021	12680.3
2721.67194	12723.1
2724.27206	12721.3
2726.87057	12736.4
2729.46747	12735.6
2732.06276	12749
2734.65644	12724.4
2737.24852	12715.6
2739.83899	12735.9
2742.42786	12744.1
2745.01513	12737.7
2747.60079	12736
2750.18486	12713.4
2752.76733	12708
2755.3482	12665.2
2757.92747	12651.3
2760.50515	12670.7
2763.08123	12675.5
2765.65573	12638.5
2768.22863	12599.3
2770.79994	12639.3
2773.36967	12653.5
2775.9378	12643.7
2778.50435	12638
2781.06932	12613.1
2783.6327	12660.6
2786.1945	12637.7
2788.75471	12635.2
2791.31335	12632
2793.87041	12617.1
2796.42589	12563.9
2798.97979	12570
2801.53212	12541.4
2804.08288	12534.6
2806.63206	12508.9
2809.17967	12526.7
2811.72571	12477.6
2814.27018	12465.5
2816.81308	12447.8
2819.35442	12445.5
2821.89419	12440.7
2824.43239	12440.9
2826.96904	12429.8
2829.50412	12428.7
2832.03763	12426.8
2834.56959	12397.6
2837.1	12406.4
2839.62884	12393.7
2842.15613	12386.4
2844.68186	12402.6
2847.20604	12378.9
2849.72867	12354.4
2852.24974	12343.8
2854.76927	12351.4
2857.28724	12296.1
2859.80367	12333.4
2862.31855	12291.9
2864.83189	12276.6
2867.34368	12287.6
2869.85393	12339.2
2872.36264	12341.8
2874.8698	12354.4
2877.37543	12331.6
2879.87952	12341.8
2882.38207	12354.4
2884.88308	12322.6
2887.38256	12347
2889.88051	12324.5
2892.37692	12351.3
2894.8718	12339.9
2897.36515	12348.1
2899.85698	12372.9
2902.34727	12396.7
2904.83604	12359.6
2907.32328	12396.9
2909.809	12384.1
2912.29319	12441.3
2914.77587	12431.6
2917.25702	12407.2
2919.73665	12391.3
2922.21476	12360.8
2924.69136	12355.6
2927.16644	12353.5
2929.64	12337
2932.11205	12325.7
2934.58258	12289.5
2937.05161	12308.7
2939.51912	12282.1
2941.98513	12275.8
2944.44962	12274.1
2946.91261	12230.1
2949.37409	12256.8
2951.83407	12235.7
2954.29254	12238.4
2956.74951	12208
2959.20498	12210
2961.65895	12185.9
2964.11142	12187.2
2966.56239	12171.3
2969.01186	12146.2
2971.45984	12140.4
2973.90632	12129.8
2976.35131	12090.3
2978.7948	12053
2981.23681	12046.2
2983.67732	12061.9
2986.11635	12010.6
2988.55388	11951.6
2990.98993	11945.7
2993.4245	11917.1
2995.85758	11917.7
2998.28917	11870.3
3000.71928	11881.2
3003.14791	11838.4
3005.57506	11815
3008.00073	11794.6
3010.42493	11797.3
3012.84764	11722.4
3015.26888	11753.8
3017.68865	11712.7
3020.10694	11694.3
3022.52376	11653.7
3024.9391	11642.1
3027.35298	11634.3
3029.76539	11650.5
3032.17632	11645.5
3034.5858	11613.5
3036.9938	11592.9
3039.40034	11607.8
3041.80542	11583.7
3044.20903	11538.5
3046.61118	11536.6
3049.01187	11532.7
3051.4111	11523.4
3053.80888	11473.9
3056.20519	11462.3
3058.60005	11411.8
3060.99345	11428.8
3063.3854	11384.9
3065.7759	11355.2
3068.16494	11357.8
3070.55254	11280.4
3072.93868	11260.7
3075.32338	11217.8
3077.70662	11192.4
3080.08842	11136.3
3082.46878	11139.7
3084.84769	11121.9
3087.22515	11095.9
3089.60118	11100.4
3091.97576	11105.9
3094.3489	11118.5
3096.72061	11139.4
3099.09087	11139
3101.4597	11112.1
3103.82709	11093.3
3106.19305	11080.2
3108.55757	11085.2
3110.92066	11051.7
3113.28232	11041.3
3115.64255	11002.3
3118.00134	10998.4
3120.35871	10984.2
3122.71466	10958.1
3125.06917	10932.7
3127.42226	10910.6
3129.77393	10895.4
3132.12417	10882.6
3134.47299	10883.6
3136.82039	10885.8
3139.16636	10892.1
3141.51092	10865.6
3143.85406	10889.1
3146.19579	10870.4
3148.53609	10872.1
3150.87499	10890.8
3153.21246	10889.2
3155.54853	10910.8
3157.88318	10846.6
3160.21642	10875.5
3162.54826	10882.1
3164.87868	10876
3167.2077	10869.6
3169.5353	10861.3
3171.86151	10871.3
3174.18631	10850.3
3176.5097	10834.7
3178.83169	10823.3
3181.15228	10822.3
3183.47147	10797.3
3185.78926	10803.6
3188.10565	10789
3190.42065	10793.2
3192.73424	10784.5
3195.04645	10754.3
3197.35725	10762.2
3199.66667	10757.9
3201.97469	10774.5
3204.28132	10775.5
3206.58656	10809.3
3208.8904	10794.5
3211.19287	10802.9
3213.49394	10812
3215.79363	10799.6
3218.09193	10813.9
3220.38884	10801.8
3222.68438	10796.8
3224.97853	10771.6
3227.2713	10813.5
3229.56269	10783.7
3231.8527	10798.1
3234.14133	10770.2
3236.42858	10756.3
3238.71446	10741.9
3240.99896	10747.8
3243.28209	10737.2
3245.56384	10748.1
3247.84423	10702.5
3250.12324	10681.7
3252.40088	10698
3254.67715	10685.1
3256.95205	10660.8
3259.22558	10673.9
3261.49775	10635.7
3263.76855	10648
3266.03799	10629.2
3268.30606	10628.8
3270.57277	10588.2
3272.83812	10570.3
3275.10211	10545.7
3277.36474	10548.2
3279.62601	10521.4
3281.88593	10521.3
3284.14448	10552
3286.40168	10536.8
3288.65753	10566
3290.91202	10557.8
3293.16516	10521.9
3295.41695	10478.1
3297.66738	10434.5
3299.91647	10377
3302.16421	10339.6
3304.4106	10288.8
3306.65564	10243.7
3308.89933	10164.1
3311.14169	10084
3313.38269	9998.7
3315.62236	9944.4
3317.86068	9878.8
3320.09766	9808.5
3322.3333	9727.1
3324.5676	9688.4
3326.80056	9478.9
3329.03219	9466.5
3331.26248	2.8
3333.49143	-1
3335.71905	1.3
