Data from AgNPs_FTO_APTES_UA_50uM_CRN_50uM_R6G_10uM_NaF_0.1M_Addition_RamanShift__8__14-42-04-969.txt Node

Date: Mon Feb 21 14:42:04 GMT 2022
User: TCL
Spectrometer: QEP01345
Trigger mode: 4
Integration Time (sec): 7.000000E0
Scans to average: 10
Electric dark correction enabled: true
Nonlinearity correction enabled: false
Boxcar width: 0
XAxis mode: Raman Shifts
Number of Pixels in Spectrum: 1044
>>>>>Begin Spectral Data<<<<<
46.04893	0.9875
50.45542	0.5875
54.85868	-0.6125
59.25871	-2.8125
63.6555	58.7875
68.04907	64.0875
72.43941	65.3875
76.82654	73.2875
81.21044	74.0875
85.59113	75.4875
89.96862	76.1875
94.34289	85.4875
98.71396	82.8875
103.08183	87.9875
107.4465	91.0875
111.80798	90.6875
116.16626	91.5875
120.52136	91.9875
124.87327	98.5875
129.222	97.8875
133.56755	106.0875
137.90993	112.4875
142.24913	120.4875
146.58517	131.4875
150.91804	148.1875
155.24774	175.9875
159.57429	209.4875
163.89768	268.8875
168.21792	356.8875
172.53501	480.0875
176.84895	669.9875
181.15975	929.2875
185.46741	1307.0875
189.77193	1802.9875
194.07331	2405.9875
198.37157	3106.6875
202.6667	3829.9875
206.9587	4566.1875
211.24758	5284.9875
215.53334	5980.2875
219.81599	6742.1875
224.09553	7577.8875
228.37195	8497.7875
232.64527	9538.7875
236.91549	10616.7875
241.18261	11670.3875
245.44663	12628.3875
249.70755	13493.5875
253.96539	14212.6875
258.22014	14818.7875
262.4718	15298.6875
266.72039	15628.4875
270.96589	15771.5875
275.20832	15788.9875
279.44768	15643.7875
283.68397	15463.0875
287.91719	15307.8875
292.14735	15169.3875
296.37445	15183.6875
300.59849	15263.6875
304.81948	15354.5875
309.03742	15382.1875
313.25231	15354.9875
317.46415	15107.4875
321.67296	14784.7875
325.87872	14515.0875
330.08145	14410.9875
334.28114	14364.0875
338.47781	14469.3875
342.67145	14658.4875
346.86207	14899.5875
351.04966	15180.1875
355.23424	15488.9875
359.4158	15799.7875
363.59435	15977.9875
367.76989	16138.6875
371.94243	16206.8875
376.11196	16251.4875
380.27849	16289.0875
384.44203	16374.1875
388.60257	16487.3875
392.76012	16610.3875
396.91468	16838.7875
401.06626	17078.0875
405.21485	17231.1875
409.36047	17160.5875
413.50311	16840.4875
417.64277	16672.4875
421.77947	16635.2875
425.9132	16667.5875
430.04396	16746.6875
434.17176	16810.2875
438.2966	16905.4875
442.41849	17161.0875
446.53742	17566.5875
450.6534	18005.9875
454.76644	18300.5875
458.87653	18372.2875
462.98368	18308.7875
467.08789	18173.3875
471.18916	17889.4875
475.2875	17598.7875
479.38291	17354.4875
483.4754	17229.8875
487.56496	17053.3875
491.6516	16919.2875
495.73531	16820.9875
499.81612	16794.7875
503.89401	16939.9875
507.96899	17046.4875
512.04106	17013.5875
516.11023	16973.5875
520.1765	16831.9875
524.23987	16766.7875
528.30034	16670.4875
532.35792	16589.6875
536.41261	16425.1875
540.46441	16243.0875
544.51333	16206.3875
548.55936	16356.9875
552.60252	16622.1875
556.64279	16977.0875
560.6802	17211.9875
564.71473	17269.4875
568.7464	17490.1875
572.7752	17878.6875
576.80114	18298.2875
580.82422	18748.7875
584.84444	19396.2875
588.86181	20230.3875
592.87633	21042.8875
596.888	21227.8875
600.89682	20553.2875
604.9028	20381.0875
608.90594	21741.8875
612.90624	23333.3875
616.90371	21900.5875
620.89834	18560.4875
624.89015	17062.7875
628.87913	16883.1875
632.86528	17084.5875
636.84862	17160.1875
640.82913	16883.3875
644.80683	16521.3875
648.78172	16216.2875
652.75379	16195.1875
656.72306	16399.1875
660.68952	16688.3875
664.65319	16588.6875
668.61405	16318.3875
672.57211	16285.6875
676.52738	16475.7875
680.47986	16472.4875
684.42955	16293.3875
688.37646	16189.6875
692.32058	16234.5875
696.26192	16439.6875
700.20048	16636.9875
704.13626	16743.7875
708.06928	16722.6875
711.99952	16675.0875
715.927	16650.4875
719.85171	16666.1875
723.77365	16623.1875
727.69284	16430.3875
731.60928	16232.0875
735.52295	16173.2875
739.43388	16159.4875
743.34206	16235.6875
747.24749	16279.8875
751.15017	16452.9875
755.05012	16675.0875
758.94733	17112.9875
762.8418	17881.7875
766.73354	19193.2875
770.62254	20473.5875
774.50882	20791.3875
778.39237	19990.1875
782.27321	18677.9875
786.15132	17579.6875
790.02671	16844.1875
793.89938	16468.8875
797.76935	16243.6875
801.6366	16197.5875
805.50115	16130.1875
809.36299	16059.7875
813.22213	15938.7875
817.07857	15876.2875
820.93231	15784.9875
824.78336	15742.3875
828.63172	15666.9875
832.47738	15654.7875
836.32036	15686.5875
840.16066	15694.1875
843.99827	15690.5875
847.8332	15653.7875
851.66546	15673.2875
855.49504	15686.1875
859.32195	15703.7875
863.1462	15678.9875
866.96777	15653.8875
870.78668	15617.9875
874.60293	15668.0875
878.41652	15676.5875
882.22745	15798.4875
886.03573	15852.0875
889.84136	15841.8875
893.64433	15802.2875
897.44466	15755.0875
901.24235	15691.2875
905.0374	15628.0875
908.8298	15602.2875
912.61957	15569.1875
916.40671	15665.5875
920.19121	15815.3875
923.97308	16003.7875
927.75233	16083.8875
931.52895	16048.0875
935.30295	15792.5875
939.07433	15525.3875
942.84309	15295.3875
946.60924	15193.6875
950.37278	15155.9875
954.13371	15166.1875
957.89203	15170.4875
961.64774	15149.6875
965.40086	15157.5875
969.15137	15134.5875
972.89929	15095.8875
976.64461	15055.1875
980.38733	15061.1875
984.12747	15101.6875
987.86502	15173.1875
991.59999	15279.8875
995.33237	15430.8875
999.06217	15698.5875
1002.78939	15974.0875
1006.51404	16323.5875
1010.23611	16633.6875
1013.95561	16818.8875
1017.67255	16839.8875
1021.38692	16704.1875
1025.09872	16464.0875
1028.80796	16323.3875
1032.51465	16341.1875
1036.21877	16471.4875
1039.92035	16511.5875
1043.61937	16518.5875
1047.31584	16480.8875
1051.00976	16388.5875
1054.70114	16348.7875
1058.38998	16375.2875
1062.07627	16497.0875
1065.76003	16672.9875
1069.44126	16910.2875
1073.11995	17163.5875
1076.79611	17399.9875
1080.46974	17594.2875
1084.14085	17756.0875
1087.80943	17907.9875
1091.47549	18046.3875
1095.13903	18040.5875
1098.80005	17785.3875
1102.45857	17358.5875
1106.11456	17086.9875
1109.76805	16912.5875
1113.41903	16919.4875
1117.06751	17094.6875
1120.71348	17238.1875
1124.35696	17487.8875
1127.99793	17723.1875
1131.63641	17822.5875
1135.2724	17802.5875
1138.90589	17695.1875
1142.5369	17643.0875
1146.16542	17700.1875
1149.79145	17755.4875
1153.415	17829.9875
1157.03607	17989.3875
1160.65467	18417.7875
1164.27079	19087.4875
1167.88443	19930.0875
1171.49561	20952.9875
1175.10432	22354.8875
1178.71056	24065.5875
1182.31434	25638.7875
1185.91565	26490.1875
1189.51451	26461.5875
1193.11091	25847.3875
1196.70485	24883.6875
1200.29634	23899.7875
1203.88538	23067.6875
1207.47197	22433.7875
1211.05612	21907.7875
1214.63782	21380.9875
1218.21708	20931.5875
1221.79391	20585.2875
1225.36829	20428.5875
1228.94024	20350.9875
1232.50976	20188.6875
1236.07685	19935.5875
1239.6415	19788.2875
1243.20374	19674.3875
1246.76355	19845.8875
1250.32093	20037.0875
1253.8759	20347.2875
1257.42845	20858.9875
1260.97859	21469.9875
1264.52631	22108.4875
1268.07163	22754.6875
1271.61453	23322.2875
1275.15503	23917.9875
1278.69312	24469.0875
1282.22882	25073.9875
1285.76211	25870.2875
1289.29301	26704.2875
1292.82151	27727.5875
1296.34761	28981.7875
1299.87133	30412.7875
1303.39266	31952.1875
1306.9116	33516.2875
1310.42815	34802.2875
1313.94233	35418.0875
1317.45412	35046.9875
1320.96354	34153.1875
1324.47058	33245.2875
1327.97525	32514.0875
1331.47754	32135.8875
1334.97747	31835.2875
1338.47502	31615.3875
1341.97022	31536.5875
1345.46305	31496.2875
1348.95352	31614.5875
1352.44163	32050.7875
1355.92738	33012.7875
1359.41078	34587.6875
1362.89183	36022.9875
1366.37053	35639.1875
1369.84688	32944.2875
1373.32088	29411.2875
1376.79254	26825.2875
1380.26186	25650.4875
1383.72883	25332.2875
1387.19347	25034.0875
1390.65578	24581.3875
1394.11575	24359.3875
1397.57339	24356.4875
1401.0287	24555.0875
1404.48168	24709.6875
1407.93234	24663.6875
1411.38068	24391.4875
1414.82669	23900.8875
1418.27039	23292.4875
1421.71177	22645.5875
1425.15083	22109.6875
1428.58758	21916.4875
1432.02203	22057.8875
1435.45416	22432.7875
1438.88399	22925.2875
1442.31151	23202.4875
1445.73673	23319.9875
1449.15965	23437.4875
1452.58027	23437.1875
1455.9986	23423.5875
1459.41463	23508.3875
1462.82837	23851.4875
1466.23982	24341.9875
1469.64898	24813.9875
1473.05586	25158.1875
1476.46045	25394.3875
1479.86276	25453.7875
1483.26279	25499.4875
1486.66054	25561.9875
1490.05602	25881.7875
1493.44922	26385.8875
1496.84016	27016.7875
1500.22882	27772.5875
1503.61521	28798.5875
1506.99934	29929.6875
1510.38121	30640.1875
1513.76081	30549.3875
1517.13816	29588.2875
1520.51324	28433.9875
1523.88607	27390.0875
1527.25665	26848.5875
1530.62498	26569.0875
1533.99105	26227.9875
1537.35488	25717.9875
1540.71647	25146.7875
1544.07581	24521.8875
1547.4329	23914.1875
1550.78776	23448.1875
1554.14038	23161.9875
1557.49077	23043.4875
1560.83892	23045.3875
1564.18484	23142.5875
1567.52853	23337.4875
1570.86999	23576.4875
1574.20922	23935.5875
1577.54624	24169.2875
1580.88103	24010.2875
1584.2136	23859.4875
1587.54395	24261.9875
1590.87208	25208.6875
1594.19801	26505.3875
1597.52172	27820.0875
1600.84321	28127.2875
1604.16251	27113.8875
1607.47959	25312.0875
1610.79447	23395.0875
1614.10715	21635.6875
1617.41763	20228.0875
1620.7259	19240.4875
1624.03199	18734.6875
1627.33587	18751.8875
1630.63757	19205.7875
1633.93707	20289.4875
1637.23439	22131.4875
1640.52951	24878.0875
1643.82246	28186.2875
1647.11321	30831.9875
1650.40179	31310.6875
1653.68819	29134.9875
1656.97241	25409.4875
1660.25446	21776.4875
1663.53433	19244.8875
1666.81203	17599.6875
1670.08756	16642.5875
1673.36092	16075.8875
1676.63211	15690.8875
1679.90115	15406.8875
1683.16801	15178.7875
1686.43272	15036.9875
1689.69527	14875.5875
1692.95567	14737.7875
1696.2139	14561.9875
1699.46999	14421.0875
1702.72392	14321.2875
1705.97571	14391.1875
1709.22535	14436.4875
1712.47284	14488.5875
1715.71819	14462.6875
1718.96139	14469.8875
1722.20246	14411.7875
1725.44139	14354.1875
1728.67818	14288.8875
1731.91284	14210.0875
1735.14537	14131.5875
1738.37576	14099.3875
1741.60403	13998.6875
1744.83017	13958.9875
1748.05418	13888.6875
1751.27607	13900.4875
1754.49584	13826.6875
1757.71349	13738.4875
1760.92903	13707.1875
1764.14244	13706.7875
1767.35375	13673.9875
1770.56294	13665.7875
1773.77002	13639.7875
1776.97499	13640.4875
1780.17785	13690.0875
1783.37861	13692.3875
1786.57727	13695.4875
1789.77382	13668.7875
1792.96828	13657.7875
1796.16064	13606.8875
1799.3509	13574.8875
1802.53907	13545.8875
1805.72514	13550.2875
1808.90913	13519.7875
1812.09102	13496.0875
1815.27083	13463.1875
1818.44856	13460.2875
1821.6242	13462.8875
1824.79776	13470.3875
1827.96924	13458.4875
1831.13864	13428.3875
1834.30597	13446.7875
1837.47122	13456.4875
1840.6344	13452.5875
1843.7955	13438.3875
1846.95454	13454.1875
1850.11151	13452.2875
1853.26642	13424.9875
1856.41926	13390.2875
1859.57004	13395.9875
1862.71876	13368.3875
1865.86542	13387.2875
1869.01003	13344.2875
1872.15258	13317.3875
1875.29308	13324.4875
1878.43152	13290.8875
1881.56792	13266.3875
1884.70227	13260.4875
1887.83457	13257.6875
1890.96482	13251.4875
1894.09304	13193.0875
1897.21921	13232.4875
1900.34335	13180.0875
1903.46544	13161.8875
1906.58551	13149.0875
1909.70353	13099.6875
1912.81953	13103.5875
1915.93349	13106.3875
1919.04543	13063.6875
1922.15534	13041.3875
1925.26322	13013.5875
1928.36908	12968.1875
1931.47292	12940.9875
1934.57473	12936.2875
1937.67453	12895.0875
1940.77232	12883.6875
1943.86808	12829.1875
1946.96184	12825.1875
1950.05358	12766.9875
1953.14331	12738.4875
1956.23103	12697.1875
1959.31675	12687.4875
1962.40046	12693.5875
1965.48217	12624.3875
1968.56188	12570.4875
1971.63959	12524.1875
1974.7153	12505.1875
1977.78901	12487.3875
1980.86073	12444.1875
1983.93046	12383.5875
1986.99819	12315.3875
1990.06394	12303.4875
1993.1277	12284.8875
1996.18947	12246.3875
1999.24925	12219.6875
2002.30706	12189.1875
2005.36288	12147.0875
2008.41672	12124.8875
2011.46859	12084.8875
2014.51848	12060.4875
2017.56639	12021.9875
2020.61233	11985.9875
2023.6563	11972.4875
2026.6983	11957.6875
2029.73833	11946.0875
2032.7764	11893.9875
2035.8125	11881.1875
2038.84664	11847.2875
2041.87881	11865.4875
2044.90903	11807.0875
2047.93729	11787.2875
2050.96359	11810.2875
2053.98794	11801.4875
2057.01034	11776.1875
2060.03078	11796.7875
2063.04927	11763.9875
2066.06582	11752.7875
2069.08042	11720.1875
2072.09307	11721.8875
2075.10378	11734.5875
2078.11255	11713.2875
2081.11938	11731.3875
2084.12426	11700.8875
2087.12722	11721.4875
2090.12824	11709.9875
2093.12732	11717.1875
2096.12447	11705.7875
2099.11969	11745.6875
2102.11299	11735.1875
2105.10435	11725.2875
2108.09379	11731.7875
2111.08131	11747.7875
2114.0669	11729.8875
2117.05057	11737.2875
2120.03233	11769.0875
2123.01216	11800.3875
2125.99008	11813.5875
2128.96609	11827.1875
2131.94018	11819.0875
2134.91236	11818.3875
2137.88263	11854.4875
2140.851	11852.9875
2143.81746	11838.2875
2146.78201	11829.5875
2149.74466	11842.5875
2152.7054	11841.0875
2155.66425	11824.6875
2158.6212	11831.8875
2161.57625	11828.2875
2164.52941	11838.4875
2167.48067	11830.3875
2170.43004	11796.8875
2173.37752	11838.2875
2176.32311	11810.0875
2179.26681	11815.6875
2182.20863	11819.8875
2185.14856	11853.4875
2188.08661	11825.6875
2191.02278	11839.8875
2193.95707	11804.0875
2196.88948	11793.3875
2199.82001	11800.6875
2202.74867	11819.4875
2205.67545	11805.8875
2208.60037	11776.9875
2211.52341	11774.0875
2214.44458	11753.3875
2217.36388	11707.1875
2220.28132	11698.2875
2223.1969	11680.6875
2226.11061	11674.0875
2229.02246	11631.5875
2231.93245	11637.2875
2234.84058	11638.1875
2237.74686	11612.1875
2240.65128	11611.3875
2243.55385	11582.9875
2246.45456	11582.2875
2249.35343	11574.0875
2252.25044	11511.4875
2255.14561	11533.8875
2258.03893	11517.0875
2260.93041	11473.7875
2263.82004	11449.1875
2266.70783	11459.3875
2269.59378	11423.0875
2272.4779	11398.1875
2275.36017	11383.4875
2278.24061	11363.3875
2281.11922	11327.4875
2283.996	11316.6875
2286.87094	11323.8875
2289.74405	11286.4875
2292.61534	11279.7875
2295.4848	11258.8875
2298.35243	11260.7875
2301.21824	11272.4875
2304.08223	11302.7875
2306.94439	11279.0875
2309.80474	11275.0875
2312.66327	11262.4875
2315.51999	11239.9875
2318.37489	11194.8875
2321.22797	11219.8875
2324.07925	11236.4875
2326.92871	11215.4875
2329.77637	11224.0875
2332.62222	11196.4875
2335.46626	11213.3875
2338.3085	11166.7875
2341.14893	11142.3875
2343.98756	11143.5875
2346.8244	11161.1875
2349.65943	11154.8875
2352.49267	11169.6875
2355.32411	11182.0875
2358.15376	11148.7875
2360.98161	11144.3875
2363.80768	11148.8875
2366.63195	11121.5875
2369.45444	11122.7875
2372.27514	11097.1875
2375.09405	11086.4875
2377.91118	11086.0875
2380.72652	11069.5875
2383.54009	11020.7875
2386.35187	11025.2875
2389.16188	10998.9875
2391.97011	10977.5875
2394.77657	10947.5875
2397.58125	10947.7875
2400.38416	10945.0875
2403.18529	10887.2875
2405.98466	10905.6875
2408.78226	10883.8875
2411.57809	10890.7875
2414.37216	10849.8875
2417.16446	10839.9875
2419.955	10850.6875
2422.74378	10861.5875
2425.5308	10833.9875
2428.31606	10837.1875
2431.09956	10845.8875
2433.88131	10854.5875
2436.6613	10834.1875
2439.43954	10837.2875
2442.21603	10818.8875
2444.99077	10804.0875
2447.76377	10833.3875
2450.53501	10843.0875
2453.30451	10817.8875
2456.07226	10803.8875
2458.83827	10800.3875
2461.60254	10801.2875
2464.36507	10813.9875
2467.12586	10794.0875
2469.88492	10843.5875
2472.64224	10801.5875
2475.39782	10823.0875
2478.15167	10772.5875
2480.90379	10805.9875
2483.65417	10805.8875
2486.40283	10798.9875
2489.14976	10805.9875
2491.89497	10805.4875
2494.63845	10815.3875
2497.3802	10760.7875
2500.12024	10810.8875
2502.85855	10794.1875
2505.59514	10781.4875
2508.33002	10776.6875
2511.06318	10750.3875
2513.79462	10736.1875
2516.52435	10761.4875
2519.25237	10735.0875
2521.97867	10709.3875
2524.70327	10699.7875
2527.42616	10697.1875
2530.14734	10691.0875
2532.86681	10677.7875
2535.58458	10690.0875
2538.30065	10685.9875
2541.01501	10706.9875
2543.72768	10653.1875
2546.43864	10643.7875
2549.14791	10645.5875
2551.85548	10647.9875
2554.56136	10613.7875
2557.26554	10626.9875
2559.96803	10595.8875
2562.66883	10601.6875
2565.36794	10564.5875
2568.06536	10591.4875
2570.7611	10581.8875
2573.45514	10568.6875
2576.14751	10565.7875
2578.83819	10533.4875
2581.52719	10519.0875
2584.21451	10517.2875
2586.90015	10507.5875
2589.58411	10480.9875
2592.2664	10457.2875
2594.94701	10459.5875
2597.62594	10468.2875
2600.30321	10450.4875
2602.9788	10444.8875
2605.65273	10457.6875
2608.32498	10431.2875
2610.99557	10459.2875
2613.66449	10462.4875
2616.33175	10449.3875
2618.99734	10443.7875
2621.66128	10434.4875
2624.32355	10437.8875
2626.98416	10424.4875
2629.64311	10440.8875
2632.30041	10387.8875
2634.95605	10362.9875
2637.61004	10371.7875
2640.26238	10346.4875
2642.91306	10345.6875
2645.56209	10349.6875
2648.20948	10332.4875
2650.85521	10345.6875
2653.4993	10336.4875
2656.14175	10350.1875
2658.78255	10349.4875
2661.42171	10348.4875
2664.05923	10368.4875
2666.6951	10382.7875
2669.32934	10400.7875
2671.96194	10399.8875
2674.59291	10403.6875
2677.22224	10405.8875
2679.84993	10395.6875
2682.476	10375.5875
2685.10043	10409.6875
2687.72324	10386.2875
2690.34441	10374.8875
2692.96396	10387.2875
2695.58188	10380.5875
2698.19818	10385.4875
2700.81285	10378.2875
2703.4259	10352.8875
2706.03733	10308.6875
2708.64714	10317.3875
2711.25533	10359.1875
2713.86191	10366.9875
2716.46687	10419.9875
2719.07021	10408.7875
2721.67194	10450.1875
2724.27206	10440.9875
2726.87057	10428.1875
2729.46747	10431.0875
2732.06276	10455.4875
2734.65644	10455.9875
2737.24852	10445.1875
2739.83899	10427.4875
2742.42786	10423.6875
2745.01513	10418.2875
2747.60079	10430.0875
2750.18486	10413.7875
2752.76733	10411.4875
2755.3482	10377.1875
2757.92747	10397.5875
2760.50515	10368.8875
2763.08123	10396.0875
2765.65573	10354.7875
2768.22863	10368.3875
2770.79994	10361.7875
2773.36967	10339.5875
2775.9378	10322.6875
2778.50435	10311.3875
2781.06932	10310.1875
2783.6327	10384.0875
2786.1945	10334.3875
2788.75471	10338.0875
2791.31335	10317.5875
2793.87041	10275.1875
2796.42589	10257.2875
2798.97979	10266.0875
2801.53212	10238.5875
2804.08288	10212.5875
2806.63206	10207.5875
2809.17967	10188.4875
2811.72571	10171.1875
2814.27018	10161.0875
2816.81308	10146.3875
2819.35442	10155.3875
2821.89419	10118.5875
2824.43239	10121.5875
2826.96904	10120.4875
2829.50412	10103.1875
2832.03763	10111.4875
2834.56959	10113.7875
2837.1	10085.9875
2839.62884	10098.9875
2842.15613	10071.4875
2844.68186	10063.7875
2847.20604	10106.7875
2849.72867	10099.2875
2852.24974	10082.2875
2854.76927	10076.0875
2857.28724	10046.2875
2859.80367	10031.2875
2862.31855	10031.9875
2864.83189	10008.7875
2867.34368	10003.8875
2869.85393	10017.0875
2872.36264	10022.9875
2874.8698	10017.9875
2877.37543	9999.0875
2879.87952	9988.9875
2882.38207	9992.1875
2884.88308	9988.6875
2887.38256	10013.0875
2889.88051	10029.5875
2892.37692	10003.5875
2894.8718	10030.7875
2897.36515	10016.9875
2899.85698	10028.0875
2902.34727	10062.5875
2904.83604	10056.9875
2907.32328	10067.2875
2909.809	10070.2875
2912.29319	10090.9875
2914.77587	10081.1875
2917.25702	10099.9875
2919.73665	10066.7875
2922.21476	10082.8875
2924.69136	10070.5875
2927.16644	10084.4875
2929.64	10081.6875
2932.11205	10055.1875
2934.58258	10015.1875
2937.05161	10043.7875
2939.51912	10033.3875
2941.98513	10028.6875
2944.44962	10005.2875
2946.91261	9969.9875
2949.37409	9997.2875
2951.83407	10004.8875
2954.29254	10005.5875
2956.74951	9981.2875
2959.20498	9975.3875
2961.65895	9957.7875
2964.11142	9938.3875
2966.56239	9902.8875
2969.01186	9920.3875
2971.45984	9916.8875
2973.90632	9911.8875
2976.35131	9861.4875
2978.7948	9856.4875
2981.23681	9827.5875
2983.67732	9843.9875
2986.11635	9787.8875
2988.55388	9778.9875
2990.98993	9776.2875
2993.4245	9744.3875
2995.85758	9737.3875
2998.28917	9728.9875
3000.71928	9682.6875
3003.14791	9687.8875
3005.57506	9659.2875
3008.00073	9654.6875
3010.42493	9641.7875
3012.84764	9624.7875
3015.26888	9632.8875
3017.68865	9578.2875
3020.10694	9582.1875
3022.52376	9570.7875
3024.9391	9554.5875
3027.35298	9534.3875
3029.76539	9519.9875
3032.17632	9507.7875
3034.5858	9525.5875
3036.9938	9499.1875
3039.40034	9512.2875
3041.80542	9480.8875
3044.20903	9491.6875
3046.61118	9476.5875
3049.01187	9455.9875
3051.4111	9462.9875
3053.80888	9437.8875
3056.20519	9429.1875
3058.60005	9393.4875
3060.99345	9399.5875
3063.3854	9380.9875
3065.7759	9350.0875
3068.16494	9319.9875
3070.55254	9288.1875
3072.93868	9289.9875
3075.32338	9260.9875
3077.70662	9233.7875
3080.08842	9222.5875
3082.46878	9206.5875
3084.84769	9207.3875
3087.22515	9174.9875
3089.60118	9182.6875
3091.97576	9195.7875
3094.3489	9176.0875
3096.72061	9181.7875
3099.09087	9196.7875
3101.4597	9174.1875
3103.82709	9182.2875
3106.19305	9176.5875
3108.55757	9178.8875
3110.92066	9152.4875
3113.28232	9133.7875
3115.64255	9124.4875
3118.00134	9086.8875
3120.35871	9111.0875
3122.71466	9086.6875
3125.06917	9070.1875
3127.42226	9069.9875
3129.77393	9061.5875
3132.12417	9044.8875
3134.47299	9051.6875
3136.82039	9057.5875
3139.16636	9055.3875
3141.51092	9044.4875
3143.85406	9030.7875
3146.19579	9037.4875
3148.53609	9026.3875
3150.87499	9026.4875
3153.21246	9046.3875
3155.54853	9054.7875
3157.88318	9050.1875
3160.21642	9061.2875
3162.54826	9059.5875
3164.87868	9045.7875
3167.2077	9058.0875
3169.5353	9058.7875
3171.86151	9069.2875
3174.18631	9049.1875
3176.5097	9048.6875
3178.83169	9043.1875
3181.15228	9042.3875
3183.47147	8997.0875
3185.78926	9012.0875
3188.10565	9018.2875
3190.42065	9014.8875
3192.73424	9014.6875
3195.04645	9024.2875
3197.35725	8996.7875
3199.66667	8994.7875
3201.97469	8974.9875
3204.28132	8977.2875
3206.58656	8997.9875
3208.8904	8963.7875
3211.19287	8987.1875
3213.49394	8995.2875
3215.79363	9015.5875
3218.09193	9021.5875
3220.38884	9000.9875
3222.68438	8981.0875
3224.97853	8982.0875
3227.2713	8962.3875
3229.56269	8976.5875
3231.8527	8975.2875
3234.14133	8948.5875
3236.42858	8934.4875
3238.71446	8908.0875
3240.99896	8921.4875
3243.28209	8897.0875
3245.56384	8871.7875
3247.84423	8879.1875
3250.12324	8895.6875
3252.40088	8890.0875
3254.67715	8893.1875
3256.95205	8880.3875
3259.22558	8867.6875
3261.49775	8840.6875
3263.76855	8865.0875
3266.03799	8846.8875
3268.30606	8831.5875
3270.57277	8828.7875
3272.83812	8822.3875
3275.10211	8772.6875
3277.36474	8769.5875
3279.62601	8770.1875
3281.88593	8761.0875
3284.14448	8766.5875
3286.40168	8760.9875
3288.65753	8763.0875
3290.91202	8769.4875
3293.16516	8730.2875
3295.41695	8733.0875
3297.66738	8675.1875
3299.91647	8630.5875
3302.16421	8578.6875
3304.4106	8532.6875
3306.65564	8493.9875
3308.89933	8433.2875
3311.14169	8357.6875
3313.38269	8279.1875
3315.62236	8217.9875
3317.86068	8170.1875
3320.09766	8098.5875
3322.3333	8066.2875
3324.5676	8032.6875
3326.80056	7876.1875
3329.03219	7842.6875
3331.26248	2.9875
3333.49143	-1.3125
3335.71905	0.3875
