Data from AgNPs_FTO_APTES_UA_50uM_CRN_200uM_R6G_10uM_NaF_0.1M_Addition_RamanShift__24__16-22-25-094.txt Node

Date: Mon Feb 21 16:22:25 GMT 2022
User: TCL
Spectrometer: QEP01345
Trigger mode: 4
Integration Time (sec): 7.000000E0
Scans to average: 10
Electric dark correction enabled: true
Nonlinearity correction enabled: false
Boxcar width: 0
XAxis mode: Raman Shifts
Number of Pixels in Spectrum: 1044
>>>>>Begin Spectral Data<<<<<
46.04893	-0.2125
50.45542	-0.1125
54.85868	-1.0125
59.25871	-1.0125
63.6555	53.1875
68.04907	60.8875
72.43941	59.2875
76.82654	63.8875
81.21044	66.8875
85.59113	70.5875
89.96862	68.8875
94.34289	74.9875
98.71396	74.8875
103.08183	82.1875
107.4465	81.3875
111.80798	79.9875
116.16626	84.4875
120.52136	85.9875
124.87327	93.7875
129.222	93.6875
133.56755	94.2875
137.90993	104.9875
142.24913	109.9875
146.58517	128.4875
150.91804	139.4875
155.24774	167.2875
159.57429	209.9875
163.89768	270.0875
168.21792	353.7875
172.53501	476.8875
176.84895	665.5875
181.15975	933.2875
185.46741	1313.7875
189.77193	1812.5875
194.07331	2426.9875
198.37157	3124.7875
202.6667	3856.6875
206.9587	4627.0875
211.24758	5383.7875
215.53334	6123.1875
219.81599	6954.6875
224.09553	7867.2875
228.37195	8858.7875
232.64527	10000.0875
236.91549	11169.0875
241.18261	12262.3875
245.44663	13234.2875
249.70755	14073.3875
253.96539	14767.1875
258.22014	15364.7875
262.4718	15886.5875
266.72039	16223.1875
270.96589	16348.3875
275.20832	16284.7875
279.44768	16065.0875
283.68397	15765.2875
287.91719	15581.0875
292.14735	15481.0875
296.37445	15676.3875
300.59849	16010.4875
304.81948	16399.9875
309.03742	16609.5875
313.25231	16518.7875
317.46415	15987.0875
321.67296	15223.1875
325.87872	14610.4875
330.08145	14362.4875
334.28114	14370.0875
338.47781	14556.7875
342.67145	14869.1875
346.86207	15287.5875
351.04966	15885.0875
355.23424	16580.8875
359.4158	17172.7875
363.59435	17444.9875
367.76989	17671.3875
371.94243	17766.0875
376.11196	17762.5875
380.27849	17764.2875
384.44203	17724.7875
388.60257	17619.6875
392.76012	17554.5875
396.91468	17661.7875
401.06626	17954.2875
405.21485	18167.6875
409.36047	17946.5875
413.50311	17389.0875
417.64277	16813.1875
421.77947	16467.8875
425.9132	16309.8875
430.04396	16352.3875
434.17176	16499.0875
438.2966	16718.4875
442.41849	17095.4875
446.53742	17564.4875
450.6534	18056.9875
454.76644	18394.7875
458.87653	18459.3875
462.98368	18273.8875
467.08789	18044.9875
471.18916	17712.5875
475.2875	17382.3875
479.38291	17117.7875
483.4754	16904.0875
487.56496	16732.4875
491.6516	16546.4875
495.73531	16476.6875
499.81612	16482.7875
503.89401	16631.7875
507.96899	16758.3875
512.04106	16903.9875
516.11023	17093.4875
520.1765	17222.6875
524.23987	17215.7875
528.30034	17027.2875
532.35792	16924.3875
536.41261	16736.1875
540.46441	16493.2875
544.51333	16357.9875
548.55936	16404.1875
552.60252	16616.1875
556.64279	16923.4875
560.6802	17079.1875
564.71473	17217.4875
568.7464	17599.5875
572.7752	17802.3875
576.80114	17558.7875
580.82422	17300.6875
584.84444	17244.9875
588.86181	17463.6875
592.87633	17908.8875
596.888	18235.4875
600.89682	18430.0875
604.9028	19556.9875
608.90594	23026.4875
612.90624	27322.7875
616.90371	26067.5875
620.89834	20181.6875
624.89015	17484.6875
628.87913	17048.3875
632.86528	17145.0875
636.84862	17277.2875
640.82913	17041.7875
644.80683	16534.5875
648.78172	16127.9875
652.75379	16104.3875
656.72306	16470.3875
660.68952	16982.2875
664.65319	16858.2875
668.61405	16382.3875
672.57211	16236.5875
676.52738	16330.7875
680.47986	16353.8875
684.42955	16218.5875
688.37646	16049.6875
692.32058	16023.8875
696.26192	16111.8875
700.20048	16193.7875
704.13626	16244.0875
708.06928	16165.8875
711.99952	16075.5875
715.927	16037.5875
719.85171	16083.0875
723.77365	16143.0875
727.69284	16075.2875
731.60928	16019.0875
735.52295	16041.0875
739.43388	16059.0875
743.34206	16164.1875
747.24749	16150.4875
751.15017	16171.3875
755.05012	16350.7875
758.94733	16841.0875
762.8418	17976.1875
766.73354	20048.8875
770.62254	22209.5875
774.50882	23393.3875
778.39237	22523.6875
782.27321	20172.3875
786.15132	17982.3875
790.02671	16727.7875
793.89938	16138.1875
797.76935	15941.2875
801.6366	15860.3875
805.50115	15834.4875
809.36299	15727.1875
813.22213	15642.7875
817.07857	15604.0875
820.93231	15536.5875
824.78336	15543.6875
828.63172	15604.4875
832.47738	15577.0875
836.32036	15582.3875
840.16066	15545.7875
843.99827	15549.6875
847.8332	15518.1875
851.66546	15515.6875
855.49504	15507.7875
859.32195	15572.5875
863.1462	15569.6875
866.96777	15539.6875
870.78668	15493.3875
874.60293	15522.4875
878.41652	15519.7875
882.22745	15536.7875
886.03573	15608.8875
889.84136	15607.6875
893.64433	15524.9875
897.44466	15415.6875
901.24235	15361.6875
905.0374	15281.0875
908.8298	15177.7875
912.61957	15155.6875
916.40671	15205.2875
920.19121	15330.6875
923.97308	15444.5875
927.75233	15598.3875
931.52895	15692.9875
935.30295	15613.5875
939.07433	15345.4875
942.84309	15038.1875
946.60924	14884.1875
950.37278	14766.0875
954.13371	14705.3875
957.89203	14647.1875
961.64774	14572.2875
965.40086	14528.0875
969.15137	14435.7875
972.89929	14402.6875
976.64461	14372.7875
980.38733	14371.7875
984.12747	14427.9875
987.86502	14520.5875
991.59999	14650.0875
995.33237	14873.0875
999.06217	15244.3875
1002.78939	15638.6875
1006.51404	15910.6875
1010.23611	16092.5875
1013.95561	16228.8875
1017.67255	16269.5875
1021.38692	16136.4875
1025.09872	15937.9875
1028.80796	15930.5875
1032.51465	16216.3875
1036.21877	16502.3875
1039.92035	16532.3875
1043.61937	16443.7875
1047.31584	16158.6875
1051.00976	15853.0875
1054.70114	15696.7875
1058.38998	15597.4875
1062.07627	15636.6875
1065.76003	15615.5875
1069.44126	15627.8875
1073.11995	15682.6875
1076.79611	15812.7875
1080.46974	15994.5875
1084.14085	16276.8875
1087.80943	16550.0875
1091.47549	16649.0875
1095.13903	16510.3875
1098.80005	16173.3875
1102.45857	15880.9875
1106.11456	15837.2875
1109.76805	15931.4875
1113.41903	16234.6875
1117.06751	16627.4875
1120.71348	17126.7875
1124.35696	17648.3875
1127.99793	18006.0875
1131.63641	18026.2875
1135.2724	17517.1875
1138.90589	16957.3875
1142.5369	16595.4875
1146.16542	16348.2875
1149.79145	16175.6875
1153.415	16111.2875
1157.03607	16207.1875
1160.65467	16462.7875
1164.27079	16975.4875
1167.88443	17715.5875
1171.49561	18758.9875
1175.10432	20368.9875
1178.71056	22514.8875
1182.31434	24513.7875
1185.91565	25264.2875
1189.51451	24742.0875
1193.11091	23427.0875
1196.70485	21983.8875
1200.29634	20872.6875
1203.88538	20060.9875
1207.47197	19210.6875
1211.05612	18466.8875
1214.63782	18050.8875
1218.21708	17893.0875
1221.79391	17915.6875
1225.36829	17971.2875
1228.94024	17833.9875
1232.50976	17590.1875
1236.07685	17417.5875
1239.6415	17374.4875
1243.20374	17401.7875
1246.76355	17536.2875
1250.32093	17713.5875
1253.8759	18068.4875
1257.42845	18541.3875
1260.97859	18983.1875
1264.52631	19436.4875
1268.07163	19870.8875
1271.61453	20387.0875
1275.15503	20822.7875
1278.69312	21247.7875
1282.22882	21570.5875
1285.76211	21960.3875
1289.29301	22460.0875
1292.82151	23098.6875
1296.34761	23934.6875
1299.87133	25176.1875
1303.39266	27076.0875
1306.9116	29685.3875
1310.42815	32405.7875
1313.94233	33684.7875
1317.45412	32721.2875
1320.96354	30706.7875
1324.47058	28574.2875
1327.97525	26799.8875
1331.47754	25730.4875
1334.97747	25421.0875
1338.47502	25629.6875
1341.97022	26200.6875
1345.46305	26999.0875
1348.95352	28052.7875
1352.44163	29417.7875
1355.92738	31695.7875
1359.41078	35111.3875
1362.89183	38226.5875
1366.37053	37008.8875
1369.84688	31843.0875
1373.32088	26771.0875
1376.79254	23673.5875
1380.26186	22133.6875
1383.72883	21389.6875
1387.19347	20883.1875
1390.65578	20409.7875
1394.11575	20096.6875
1397.57339	20092.9875
1401.0287	20340.2875
1404.48168	20622.6875
1407.93234	20896.9875
1411.38068	21029.7875
1414.82669	20998.6875
1418.27039	20712.0875
1421.71177	20250.0875
1425.15083	19737.8875
1428.58758	19453.4875
1432.02203	19549.3875
1435.45416	19778.8875
1438.88399	19968.5875
1442.31151	20129.9875
1445.73673	20266.3875
1449.15965	20448.0875
1452.58027	20507.1875
1455.9986	20369.2875
1459.41463	20418.2875
1462.82837	20669.2875
1466.23982	21073.5875
1469.64898	21495.6875
1473.05586	21799.7875
1476.46045	21932.3875
1479.86276	22077.5875
1483.26279	22209.1875
1486.66054	22423.5875
1490.05602	22815.8875
1493.44922	23385.8875
1496.84016	24230.5875
1500.22882	25701.3875
1503.61521	28034.0875
1506.99934	30946.2875
1510.38121	33297.5875
1513.76081	33726.3875
1517.13816	31667.8875
1520.51324	28281.2875
1523.88607	25250.6875
1527.25665	23315.2875
1530.62498	22307.7875
1533.99105	21728.0875
1537.35488	21385.7875
1540.71647	21164.8875
1544.07581	21047.4875
1547.4329	21005.0875
1550.78776	20965.8875
1554.14038	21012.6875
1557.49077	21095.4875
1560.83892	21300.4875
1564.18484	21579.4875
1567.52853	21916.3875
1570.86999	22252.5875
1574.20922	22468.6875
1577.54624	22313.4875
1580.88103	21668.5875
1584.2136	20776.3875
1587.54395	20444.5875
1590.87208	20896.9875
1594.19801	22126.9875
1597.52172	23624.4875
1600.84321	24387.1875
1604.16251	23810.7875
1607.47959	22444.2875
1610.79447	20796.4875
1614.10715	19233.5875
1617.41763	17975.9875
1620.7259	17206.8875
1624.03199	16841.8875
1627.33587	16849.5875
1630.63757	17189.4875
1633.93707	17987.4875
1637.23439	19251.1875
1640.52951	21073.5875
1643.82246	23434.1875
1647.11321	25819.1875
1650.40179	27091.8875
1653.68819	25837.7875
1656.97241	22616.2875
1660.25446	19377.9875
1663.53433	17110.8875
1666.81203	15786.3875
1670.08756	15001.9875
1673.36092	14523.9875
1676.63211	14202.3875
1679.90115	13967.1875
1683.16801	13830.4875
1686.43272	13667.6875
1689.69527	13552.1875
1692.95567	13428.1875
1696.2139	13263.3875
1699.46999	13132.1875
1702.72392	13100.7875
1705.97571	13128.8875
1709.22535	13208.3875
1712.47284	13261.4875
1715.71819	13260.0875
1718.96139	13251.8875
1722.20246	13220.1875
1725.44139	13186.6875
1728.67818	13106.5875
1731.91284	13020.3875
1735.14537	12940.2875
1738.37576	12919.1875
1741.60403	12889.8875
1744.83017	12820.4875
1748.05418	12806.9875
1751.27607	12782.9875
1754.49584	12712.4875
1757.71349	12651.1875
1760.92903	12576.1875
1764.14244	12546.4875
1767.35375	12550.6875
1770.56294	12510.5875
1773.77002	12479.9875
1776.97499	12488.7875
1780.17785	12521.9875
1783.37861	12542.0875
1786.57727	12510.1875
1789.77382	12498.6875
1792.96828	12510.2875
1796.16064	12482.3875
1799.3509	12479.1875
1802.53907	12445.3875
1805.72514	12443.4875
1808.90913	12372.9875
1812.09102	12357.0875
1815.27083	12327.2875
1818.44856	12301.5875
1821.6242	12242.7875
1824.79776	12251.7875
1827.96924	12233.2875
1831.13864	12211.7875
1834.30597	12240.0875
1837.47122	12230.3875
1840.6344	12213.5875
1843.7955	12187.3875
1846.95454	12169.9875
1850.11151	12168.6875
1853.26642	12166.5875
1856.41926	12151.8875
1859.57004	12182.7875
1862.71876	12140.1875
1865.86542	12150.7875
1869.01003	12176.1875
1872.15258	12181.8875
1875.29308	12165.4875
1878.43152	12146.1875
1881.56792	12164.2875
1884.70227	12146.2875
1887.83457	12109.2875
1890.96482	12095.2875
1894.09304	12109.6875
1897.21921	12102.8875
1900.34335	12110.3875
1903.46544	12068.6875
1906.58551	12089.4875
1909.70353	12072.4875
1912.81953	12027.1875
1915.93349	12035.0875
1919.04543	12008.1875
1922.15534	11992.3875
1925.26322	11951.4875
1928.36908	11935.4875
1931.47292	11928.6875
1934.57473	11877.3875
1937.67453	11837.1875
1940.77232	11841.0875
1943.86808	11785.0875
1946.96184	11778.0875
1950.05358	11754.7875
1953.14331	11701.5875
1956.23103	11666.1875
1959.31675	11627.0875
1962.40046	11585.7875
1965.48217	11564.4875
1968.56188	11558.3875
1971.63959	11512.8875
1974.7153	11468.9875
1977.78901	11430.7875
1980.86073	11393.8875
1983.93046	11355.0875
1986.99819	11324.6875
1990.06394	11296.0875
1993.1277	11274.0875
1996.18947	11206.2875
1999.24925	11196.4875
2002.30706	11161.2875
2005.36288	11115.5875
2008.41672	11090.2875
2011.46859	11057.8875
2014.51848	11039.8875
2017.56639	11000.0875
2020.61233	10988.9875
2023.6563	10948.6875
2026.6983	10937.8875
2029.73833	10924.4875
2032.7764	10880.8875
2035.8125	10870.1875
2038.84664	10829.5875
2041.87881	10836.6875
2044.90903	10814.5875
2047.93729	10788.7875
2050.96359	10784.9875
2053.98794	10744.7875
2057.01034	10763.2875
2060.03078	10741.4875
2063.04927	10741.2875
2066.06582	10742.9875
2069.08042	10712.5875
2072.09307	10699.0875
2075.10378	10696.7875
2078.11255	10683.1875
2081.11938	10702.0875
2084.12426	10677.6875
2087.12722	10686.6875
2090.12824	10675.0875
2093.12732	10658.0875
2096.12447	10686.2875
2099.11969	10685.7875
2102.11299	10668.2875
2105.10435	10686.4875
2108.09379	10681.0875
2111.08131	10672.7875
2114.0669	10682.6875
2117.05057	10696.3875
2120.03233	10710.1875
2123.01216	10718.8875
2125.99008	10739.9875
2128.96609	10754.5875
2131.94018	10750.9875
2134.91236	10733.1875
2137.88263	10744.9875
2140.851	10748.4875
2143.81746	10747.9875
2146.78201	10751.4875
2149.74466	10758.8875
2152.7054	10774.6875
2155.66425	10782.4875
2158.6212	10768.0875
2161.57625	10736.2875
2164.52941	10733.3875
2167.48067	10756.9875
2170.43004	10723.7875
2173.37752	10728.3875
2176.32311	10740.0875
2179.26681	10752.2875
2182.20863	10758.5875
2185.14856	10722.9875
2188.08661	10751.6875
2191.02278	10732.0875
2193.95707	10749.6875
2196.88948	10744.9875
2199.82001	10740.3875
2202.74867	10722.7875
2205.67545	10724.4875
2208.60037	10701.6875
2211.52341	10691.0875
2214.44458	10666.6875
2217.36388	10669.2875
2220.28132	10643.1875
2223.1969	10603.6875
2226.11061	10608.4875
2229.02246	10584.0875
2231.93245	10557.0875
2234.84058	10552.0875
2237.74686	10514.1875
2240.65128	10504.2875
2243.55385	10497.3875
2246.45456	10489.2875
2249.35343	10486.5875
2252.25044	10452.1875
2255.14561	10445.8875
2258.03893	10432.5875
2260.93041	10406.2875
2263.82004	10413.7875
2266.70783	10393.5875
2269.59378	10361.6875
2272.4779	10330.6875
2275.36017	10306.3875
2278.24061	10303.9875
2281.11922	10291.8875
2283.996	10265.5875
2286.87094	10217.6875
2289.74405	10240.2875
2292.61534	10223.9875
2295.4848	10182.7875
2298.35243	10203.7875
2301.21824	10187.9875
2304.08223	10208.7875
2306.94439	10189.3875
2309.80474	10186.7875
2312.66327	10200.7875
2315.51999	10192.4875
2318.37489	10180.5875
2321.22797	10178.0875
2324.07925	10164.9875
2326.92871	10173.7875
2329.77637	10144.8875
2332.62222	10114.6875
2335.46626	10148.0875
2338.3085	10121.6875
2341.14893	10117.3875
2343.98756	10112.2875
2346.8244	10128.1875
2349.65943	10129.7875
2352.49267	10142.3875
2355.32411	10143.4875
2358.15376	10165.5875
2360.98161	10162.3875
2363.80768	10151.2875
2366.63195	10138.9875
2369.45444	10143.3875
2372.27514	10090.0875
2375.09405	10095.4875
2377.91118	10079.6875
2380.72652	10040.2875
2383.54009	9982.8875
2386.35187	10008.8875
2389.16188	9945.5875
2391.97011	9937.2875
2394.77657	9896.1875
2397.58125	9870.2875
2400.38416	9856.3875
2403.18529	9859.0875
2405.98466	9870.2875
2408.78226	9827.0875
2411.57809	9802.9875
2414.37216	9783.3875
2417.16446	9769.1875
2419.955	9768.6875
2422.74378	9758.0875
2425.5308	9735.4875
2428.31606	9720.0875
2431.09956	9741.1875
2433.88131	9719.4875
2436.6613	9730.3875
2439.43954	9723.6875
2442.21603	9727.1875
2444.99077	9696.3875
2447.76377	9706.9875
2450.53501	9702.0875
2453.30451	9712.1875
2456.07226	9680.9875
2458.83827	9710.9875
2461.60254	9696.2875
2464.36507	9690.0875
2467.12586	9677.9875
2469.88492	9659.0875
2472.64224	9684.5875
2475.39782	9672.0875
2478.15167	9669.9875
2480.90379	9702.5875
2483.65417	9703.0875
2486.40283	9729.6875
2489.14976	9744.3875
2491.89497	9758.0875
2494.63845	9756.7875
2497.3802	9747.9875
2500.12024	9714.1875
2502.85855	9721.0875
2505.59514	9680.5875
2508.33002	9680.0875
2511.06318	9636.3875
2513.79462	9619.6875
2516.52435	9601.6875
2519.25237	9577.7875
2521.97867	9577.3875
2524.70327	9561.6875
2527.42616	9562.6875
2530.14734	9545.9875
2532.86681	9522.3875
2535.58458	9533.4875
2538.30065	9536.6875
2541.01501	9523.9875
2543.72768	9493.5875
2546.43864	9504.5875
2549.14791	9510.1875
2551.85548	9487.6875
2554.56136	9482.0875
2557.26554	9469.8875
2559.96803	9456.4875
2562.66883	9434.6875
2565.36794	9420.8875
2568.06536	9435.6875
2570.7611	9414.7875
2573.45514	9370.6875
2576.14751	9398.9875
2578.83819	9377.2875
2581.52719	9365.3875
2584.21451	9347.4875
2586.90015	9353.9875
2589.58411	9332.9875
2592.2664	9355.1875
2594.94701	9331.8875
2597.62594	9327.9875
2600.30321	9305.5875
2602.9788	9329.6875
2605.65273	9300.5875
2608.32498	9289.3875
2610.99557	9289.5875
2613.66449	9290.0875
2616.33175	9286.3875
2618.99734	9279.6875
2621.66128	9298.3875
2624.32355	9266.6875
2626.98416	9245.9875
2629.64311	9263.2875
2632.30041	9251.8875
2634.95605	9251.9875
2637.61004	9260.8875
2640.26238	9226.6875
2642.91306	9226.0875
2645.56209	9195.5875
2648.20948	9169.1875
2650.85521	9177.4875
2653.4993	9181.9875
2656.14175	9191.9875
2658.78255	9214.3875
2661.42171	9189.7875
2664.05923	9185.4875
2666.6951	9222.4875
2669.32934	9227.0875
2671.96194	9216.0875
2674.59291	9242.0875
2677.22224	9243.6875
2679.84993	9246.9875
2682.476	9231.4875
2685.10043	9227.4875
2687.72324	9202.6875
2690.34441	9195.0875
2692.96396	9196.0875
2695.58188	9213.2875
2698.19818	9180.1875
2700.81285	9194.3875
2703.4259	9187.9875
2706.03733	9121.4875
2708.64714	9130.9875
2711.25533	9167.0875
2713.86191	9174.4875
2716.46687	9199.9875
2719.07021	9208.9875
2721.67194	9217.9875
2724.27206	9209.7875
2726.87057	9242.1875
2729.46747	9225.1875
2732.06276	9241.9875
2734.65644	9229.3875
2737.24852	9214.1875
2739.83899	9211.8875
2742.42786	9191.0875
2745.01513	9200.8875
2747.60079	9176.1875
2750.18486	9155.0875
2752.76733	9160.0875
2755.3482	9128.9875
2757.92747	9133.5875
2760.50515	9135.4875
2763.08123	9156.2875
2765.65573	9133.8875
2768.22863	9126.2875
2770.79994	9120.8875
2773.36967	9095.6875
2775.9378	9114.1875
2778.50435	9116.0875
2781.06932	9094.9875
2783.6327	9109.3875
2786.1945	9089.1875
2788.75471	9099.9875
2791.31335	9085.9875
2793.87041	9070.8875
2796.42589	9042.0875
2798.97979	9038.5875
2801.53212	9018.9875
2804.08288	9003.4875
2806.63206	8995.3875
2809.17967	9002.3875
2811.72571	8967.2875
2814.27018	8979.5875
2816.81308	8977.2875
2819.35442	8952.7875
2821.89419	8949.5875
2824.43239	8967.8875
2826.96904	8960.5875
2829.50412	8944.7875
2832.03763	8908.9875
2834.56959	8957.1875
2837.1	8930.7875
2839.62884	8955.0875
2842.15613	8937.2875
2844.68186	8944.9875
2847.20604	8935.8875
2849.72867	8952.3875
2852.24974	8902.2875
2854.76927	8912.1875
2857.28724	8853.2875
2859.80367	8892.4875
2862.31855	8886.1875
2864.83189	8902.2875
2867.34368	8881.5875
2869.85393	8904.0875
2872.36264	8884.9875
2874.8698	8875.6875
2877.37543	8880.4875
2879.87952	8885.6875
2882.38207	8891.5875
2884.88308	8884.8875
2887.38256	8898.1875
2889.88051	8883.5875
2892.37692	8921.9875
2894.8718	8903.7875
2897.36515	8918.4875
2899.85698	8910.3875
2902.34727	8929.1875
2904.83604	8951.5875
2907.32328	8970.0875
2909.809	8971.3875
2912.29319	9000.9875
2914.77587	8991.0875
2917.25702	8986.4875
2919.73665	8978.3875
2922.21476	8977.0875
2924.69136	8985.6875
2927.16644	8977.2875
2929.64	8952.6875
2932.11205	8917.9875
2934.58258	8906.1875
2937.05161	8897.2875
2939.51912	8883.1875
2941.98513	8873.0875
2944.44962	8886.6875
2946.91261	8846.1875
2949.37409	8843.5875
2951.83407	8849.8875
2954.29254	8846.6875
2956.74951	8810.4875
2959.20498	8807.4875
2961.65895	8772.7875
2964.11142	8770.2875
2966.56239	8768.9875
2969.01186	8770.6875
2971.45984	8747.3875
2973.90632	8744.4875
2976.35131	8702.3875
2978.7948	8686.5875
2981.23681	8641.8875
2983.67732	8641.3875
2986.11635	8621.3875
2988.55388	8603.2875
2990.98993	8583.6875
2993.4245	8585.7875
2995.85758	8549.1875
2998.28917	8542.6875
3000.71928	8538.5875
3003.14791	8515.7875
3005.57506	8509.9875
3008.00073	8476.9875
3010.42493	8518.3875
3012.84764	8482.9875
3015.26888	8474.1875
3017.68865	8463.7875
3020.10694	8458.5875
3022.52376	8465.9875
3024.9391	8399.4875
3027.35298	8398.0875
3029.76539	8379.0875
3032.17632	8365.6875
3034.5858	8355.5875
3036.9938	8338.1875
3039.40034	8339.3875
3041.80542	8324.7875
3044.20903	8300.5875
3046.61118	8313.6875
3049.01187	8307.6875
3051.4111	8281.4875
3053.80888	8265.8875
3056.20519	8271.0875
3058.60005	8228.8875
3060.99345	8226.5875
3063.3854	8213.8875
3065.7759	8198.3875
3068.16494	8171.6875
3070.55254	8148.0875
3072.93868	8130.3875
3075.32338	8110.8875
3077.70662	8090.7875
3080.08842	8090.8875
3082.46878	8073.3875
3084.84769	8054.1875
3087.22515	8078.9875
3089.60118	8039.1875
3091.97576	8060.7875
3094.3489	8076.7875
3096.72061	8043.6875
3099.09087	8048.0875
3101.4597	8045.8875
3103.82709	8033.4875
3106.19305	8020.0875
3108.55757	8036.9875
3110.92066	8024.2875
3113.28232	7994.7875
3115.64255	7989.6875
3118.00134	7975.7875
3120.35871	7975.2875
3122.71466	7960.3875
3125.06917	7928.3875
3127.42226	7929.1875
3129.77393	7944.8875
3132.12417	7924.2875
3134.47299	7918.0875
3136.82039	7925.1875
3139.16636	7912.5875
3141.51092	7939.9875
3143.85406	7926.1875
3146.19579	7925.1875
3148.53609	7923.0875
3150.87499	7932.8875
3153.21246	7942.7875
3155.54853	7944.0875
3157.88318	7938.3875
3160.21642	7965.3875
3162.54826	7965.5875
3164.87868	7924.3875
3167.2077	7963.7875
3169.5353	7952.5875
3171.86151	7933.8875
3174.18631	7892.8875
3176.5097	7904.6875
3178.83169	7919.5875
3181.15228	7907.5875
3183.47147	7916.7875
3185.78926	7915.3875
3188.10565	7881.2875
3190.42065	7908.7875
3192.73424	7908.3875
3195.04645	7885.6875
3197.35725	7905.0875
3199.66667	7923.2875
3201.97469	7938.8875
3204.28132	7920.8875
3206.58656	7947.1875
3208.8904	7942.2875
3211.19287	7957.3875
3213.49394	7935.5875
3215.79363	7954.6875
3218.09193	7935.0875
3220.38884	7921.3875
3222.68438	7918.6875
3224.97853	7930.7875
3227.2713	7937.4875
3229.56269	7927.7875
3231.8527	7961.7875
3234.14133	7913.4875
3236.42858	7903.5875
3238.71446	7887.7875
3240.99896	7877.9875
3243.28209	7857.0875
3245.56384	7843.8875
3247.84423	7845.4875
3250.12324	7847.8875
3252.40088	7831.4875
3254.67715	7827.3875
3256.95205	7840.6875
3259.22558	7848.7875
3261.49775	7831.0875
3263.76855	7824.9875
3266.03799	7809.6875
3268.30606	7802.6875
3270.57277	7827.7875
3272.83812	7783.6875
3275.10211	7783.9875
3277.36474	7771.2875
3279.62601	7766.7875
3281.88593	7748.4875
3284.14448	7755.0875
3286.40168	7757.8875
3288.65753	7769.8875
3290.91202	7754.7875
3293.16516	7747.9875
3295.41695	7721.8875
3297.66738	7692.1875
3299.91647	7665.5875
3302.16421	7611.7875
3304.4106	7592.2875
3306.65564	7568.6875
3308.89933	7496.5875
3311.14169	7476.0875
3313.38269	7391.9875
3315.62236	7351.5875
3317.86068	7302.4875
3320.09766	7233.7875
3322.3333	7165.9875
3324.5676	7159.9875
3326.80056	7010.9875
3329.03219	7007.7875
3331.26248	2.6875
3333.49143	-0.4125
3335.71905	0.0875
