Data from AgNPs_FTO_APTES_UA_50uM_CRN_2uM_R6G_10uM_NaF_0.1M_Addition_RamanShift__21__12-18-34-787.txt Node

Date: Mon Feb 21 12:18:34 GMT 2022
User: TCL
Spectrometer: QEP01345
Trigger mode: 4
Integration Time (sec): 7.000000E0
Scans to average: 10
Electric dark correction enabled: true
Nonlinearity correction enabled: false
Boxcar width: 0
XAxis mode: Raman Shifts
Number of Pixels in Spectrum: 1044
>>>>>Begin Spectral Data<<<<<
46.04893	-0.8125
50.45542	-0.2125
54.85868	-0.5125
59.25871	-0.7125
63.6555	75.0875
68.04907	78.9875
72.43941	81.8875
76.82654	88.7875
81.21044	92.6875
85.59113	92.5875
89.96862	97.0875
94.34289	102.0875
98.71396	104.0875
103.08183	107.2875
107.4465	109.3875
111.80798	111.5875
116.16626	110.4875
120.52136	113.4875
124.87327	125.5875
129.222	123.0875
133.56755	130.5875
137.90993	142.5875
142.24913	150.9875
146.58517	170.7875
150.91804	199.9875
155.24774	237.5875
159.57429	291.8875
163.89768	378.5875
168.21792	502.8875
172.53501	693.1875
176.84895	967.5875
181.15975	1360.0875
185.46741	1906.7875
189.77193	2629.4875
194.07331	3517.5875
198.37157	4528.9875
202.6667	5605.1875
206.9587	6665.2875
211.24758	7717.9875
215.53334	8801.9875
219.81599	9981.2875
224.09553	11272.2875
228.37195	12738.4875
232.64527	14311.5875
236.91549	15961.5875
241.18261	17542.3875
245.44663	18951.1875
249.70755	20152.1875
253.96539	21194.8875
258.22014	22102.9875
262.4718	22869.3875
266.72039	23398.3875
270.96589	23658.9875
275.20832	23626.0875
279.44768	23414.2875
283.68397	23146.0875
287.91719	22947.4875
292.14735	22879.5875
296.37445	23019.1875
300.59849	23360.9875
304.81948	23799.5875
309.03742	24019.8875
313.25231	23876.6875
317.46415	23168.6875
321.67296	22133.7875
325.87872	21267.4875
330.08145	20832.2875
334.28114	20870.4875
338.47781	21121.7875
342.67145	21488.6875
346.86207	22009.8875
351.04966	22785.0875
355.23424	23637.1875
359.4158	24392.5875
363.59435	24859.2875
367.76989	25045.4875
371.94243	25135.7875
376.11196	25105.7875
380.27849	25144.6875
384.44203	25137.2875
388.60257	25129.9875
392.76012	25172.5875
396.91468	25440.0875
401.06626	25885.9875
405.21485	26262.6875
409.36047	26018.2875
413.50311	25306.5875
417.64277	24646.0875
421.77947	24347.3875
425.9132	24275.3875
430.04396	24340.6875
434.17176	24465.0875
438.2966	24689.1875
442.41849	25144.2875
446.53742	25870.7875
450.6534	26617.1875
454.76644	27209.0875
458.87653	27409.5875
462.98368	27279.5875
467.08789	26914.1875
471.18916	26455.9875
475.2875	25927.7875
479.38291	25581.1875
483.4754	25336.6875
487.56496	25059.4875
491.6516	24731.2875
495.73531	24453.6875
499.81612	24365.5875
503.89401	24535.7875
507.96899	24672.2875
512.04106	24697.3875
516.11023	24712.9875
520.1765	24735.8875
524.23987	24570.2875
528.30034	24371.4875
532.35792	24174.9875
536.41261	23857.6875
540.46441	23545.7875
544.51333	23431.0875
548.55936	23633.4875
552.60252	24094.6875
556.64279	24683.5875
560.6802	25049.0875
564.71473	25319.5875
568.7464	25909.7875
572.7752	26539.6875
576.80114	26539.6875
580.82422	26418.2875
584.84444	26514.6875
588.86181	26724.0875
592.87633	27157.5875
596.888	27433.3875
600.89682	27731.7875
604.9028	29258.3875
608.90594	33809.3875
612.90624	39156.9875
616.90371	37019.8875
620.89834	29073.7875
624.89015	25423.7875
628.87913	24894.1875
632.86528	24944.0875
636.84862	25043.9875
640.82913	24592.0875
644.80683	23735.1875
648.78172	23102.5875
652.75379	22999.6875
656.72306	23522.5875
660.68952	24282.0875
664.65319	24129.1875
668.61405	23513.0875
672.57211	23245.2875
676.52738	23305.4875
680.47986	23272.2875
684.42955	23136.1875
688.37646	23075.5875
692.32058	23175.9875
696.26192	23435.6875
700.20048	23691.6875
704.13626	23805.6875
708.06928	23736.9875
711.99952	23494.3875
715.927	23433.9875
719.85171	23527.0875
723.77365	23503.6875
727.69284	23287.4875
731.60928	23024.5875
735.52295	22932.1875
739.43388	22983.2875
743.34206	23071.6875
747.24749	23201.3875
751.15017	23358.7875
755.05012	23749.8875
758.94733	24593.4875
762.8418	26360.3875
766.73354	29366.6875
770.62254	32277.8875
774.50882	33366.7875
778.39237	31807.7875
782.27321	28723.2875
786.15132	25875.5875
790.02671	24198.8875
793.89938	23401.0875
797.76935	23103.0875
801.6366	22955.0875
805.50115	22913.8875
809.36299	22790.0875
813.22213	22668.4875
817.07857	22585.6875
820.93231	22517.6875
824.78336	22460.3875
828.63172	22451.2875
832.47738	22496.7875
836.32036	22469.4875
840.16066	22520.4875
843.99827	22583.4875
847.8332	22556.4875
851.66546	22466.5875
855.49504	22406.9875
859.32195	22368.7875
863.1462	22297.4875
866.96777	22210.6875
870.78668	22179.3875
874.60293	22170.1875
878.41652	22232.1875
882.22745	22370.0875
886.03573	22463.4875
889.84136	22453.2875
893.64433	22315.4875
897.44466	22230.7875
901.24235	22134.5875
905.0374	22002.8875
908.8298	21934.2875
912.61957	21890.6875
916.40671	22034.9875
920.19121	22276.0875
923.97308	22490.4875
927.75233	22748.9875
931.52895	22755.2875
935.30295	22558.2875
939.07433	22066.5875
942.84309	21722.2875
946.60924	21529.5875
950.37278	21442.9875
954.13371	21338.0875
957.89203	21230.1875
961.64774	21163.2875
965.40086	21104.0875
969.15137	21049.9875
972.89929	20931.6875
976.64461	20902.2875
980.38733	20931.6875
984.12747	21018.0875
987.86502	21200.5875
991.59999	21497.9875
995.33237	21956.9875
999.06217	22653.4875
1002.78939	23519.3875
1006.51404	24136.5875
1010.23611	24507.1875
1013.95561	24730.8875
1017.67255	24720.4875
1021.38692	24474.0875
1025.09872	24184.8875
1028.80796	24309.9875
1032.51465	24858.3875
1036.21877	25409.7875
1039.92035	25564.2875
1043.61937	25293.2875
1047.31584	24764.1875
1051.00976	24053.6875
1054.70114	23619.6875
1058.38998	23499.7875
1062.07627	23608.2875
1065.76003	23678.8875
1069.44126	23815.9875
1073.11995	24110.5875
1076.79611	24387.3875
1080.46974	24695.6875
1084.14085	25116.7875
1087.80943	25532.1875
1091.47549	25727.4875
1095.13903	25566.7875
1098.80005	25031.2875
1102.45857	24468.9875
1106.11456	24175.1875
1109.76805	24197.5875
1113.41903	24484.4875
1117.06751	24954.0875
1120.71348	25552.9875
1124.35696	26182.4875
1127.99793	26657.9875
1131.63641	26640.4875
1135.2724	26115.5875
1138.90589	25552.0875
1142.5369	25167.8875
1146.16542	24866.9875
1149.79145	24810.2875
1153.415	24928.3875
1157.03607	25135.6875
1160.65467	25636.8875
1164.27079	26634.7875
1167.88443	27987.0875
1171.49561	29967.9875
1175.10432	32767.8875
1178.71056	36427.3875
1182.31434	39753.1875
1185.91565	41304.5875
1189.51451	40924.1875
1193.11091	39170.8875
1196.70485	36957.9875
1200.29634	34975.2875
1203.88538	33426.6875
1207.47197	31930.8875
1211.05612	30703.2875
1214.63782	29988.8875
1218.21708	29756.2875
1221.79391	29779.2875
1225.36829	29887.1875
1228.94024	29680.8875
1232.50976	29179.2875
1236.07685	28871.3875
1239.6415	28649.7875
1243.20374	28647.6875
1246.76355	28798.9875
1250.32093	29165.9875
1253.8759	29823.5875
1257.42845	30765.9875
1260.97859	31694.6875
1264.52631	32694.8875
1268.07163	33684.4875
1271.61453	34677.7875
1275.15503	35648.2875
1278.69312	36557.8875
1282.22882	37326.7875
1285.76211	38149.1875
1289.29301	39163.9875
1292.82151	40297.1875
1296.34761	41824.0875
1299.87133	44008.9875
1303.39266	47110.4875
1306.9116	51124.2875
1310.42815	55257.7875
1313.94233	57628.2875
1317.45412	56973.0875
1320.96354	54644.1875
1324.47058	52113.5875
1327.97525	49890.1875
1331.47754	48606.1875
1334.97747	48247.5875
1338.47502	48543.5875
1341.97022	49016.3875
1345.46305	49357.5875
1348.95352	49601.3875
1352.44163	50434.9875
1355.92738	52614.6875
1359.41078	56787.4875
1362.89183	60791.0875
1366.37053	59300.8875
1369.84688	52380.5875
1373.32088	45273.7875
1376.79254	40731.3875
1380.26186	38534.8875
1383.72883	37547.7875
1387.19347	36934.4875
1390.65578	36297.8875
1394.11575	36015.6875
1397.57339	36221.4875
1401.0287	36852.2875
1404.48168	37597.8875
1407.93234	38096.1875
1411.38068	38351.4875
1414.82669	37980.5875
1418.27039	36974.8875
1421.71177	35719.5875
1425.15083	34584.4875
1428.58758	34020.4875
1432.02203	34062.8875
1435.45416	34525.4875
1438.88399	35000.8875
1442.31151	35391.5875
1445.73673	35767.7875
1449.15965	36182.0875
1452.58027	36385.2875
1455.9986	36355.2875
1459.41463	36476.9875
1462.82837	37011.0875
1466.23982	37728.1875
1469.64898	38497.2875
1473.05586	38842.7875
1476.46045	38997.2875
1479.86276	39042.8875
1483.26279	39196.9875
1486.66054	39555.4875
1490.05602	40194.8875
1493.44922	40988.6875
1496.84016	42201.2875
1500.22882	44031.3875
1503.61521	46833.9875
1506.99934	50378.2875
1510.38121	53272.6875
1513.76081	53622.4875
1517.13816	50883.4875
1520.51324	46655.1875
1523.88607	42806.0875
1527.25665	40381.5875
1530.62498	39133.3875
1533.99105	38428.2875
1537.35488	37995.9875
1540.71647	37555.2875
1544.07581	37144.6875
1547.4329	36662.7875
1550.78776	36210.9875
1554.14038	36032.8875
1557.49077	35995.3875
1560.83892	36158.3875
1564.18484	36451.9875
1567.52853	36880.7875
1570.86999	37257.1875
1574.20922	37585.2875
1577.54624	37583.4875
1580.88103	36918.3875
1584.2136	36133.3875
1587.54395	36357.4875
1590.87208	37862.7875
1594.19801	40445.4875
1597.52172	43256.4875
1600.84321	44269.0875
1604.16251	42697.5875
1607.47959	39623.9875
1610.79447	36258.4875
1614.10715	33127.3875
1617.41763	30603.0875
1620.7259	28933.0875
1624.03199	28081.8875
1627.33587	28098.6875
1630.63757	28903.2875
1633.93707	30706.3875
1637.23439	33430.1875
1640.52951	37153.1875
1643.82246	41574.5875
1647.11321	45511.0875
1650.40179	46828.6875
1653.68819	43969.1875
1656.97241	38100.4875
1660.25446	32175.8875
1663.53433	27959.2875
1666.81203	25376.1875
1670.08756	23868.0875
1673.36092	22951.1875
1676.63211	22324.3875
1679.90115	21865.1875
1683.16801	21510.3875
1686.43272	21259.2875
1689.69527	21042.8875
1692.95567	20874.4875
1696.2139	20691.7875
1699.46999	20483.3875
1702.72392	20437.3875
1705.97571	20460.6875
1709.22535	20499.6875
1712.47284	20541.7875
1715.71819	20554.6875
1718.96139	20505.7875
1722.20246	20410.2875
1725.44139	20313.3875
1728.67818	20180.1875
1731.91284	20074.4875
1735.14537	19974.9875
1738.37576	19908.9875
1741.60403	19818.9875
1744.83017	19737.2875
1748.05418	19683.7875
1751.27607	19558.2875
1754.49584	19486.0875
1757.71349	19427.0875
1760.92903	19370.3875
1764.14244	19385.1875
1767.35375	19368.1875
1770.56294	19292.7875
1773.77002	19299.5875
1776.97499	19325.7875
1780.17785	19345.6875
1783.37861	19312.8875
1786.57727	19300.6875
1789.77382	19317.2875
1792.96828	19277.6875
1796.16064	19250.9875
1799.3509	19241.2875
1802.53907	19172.1875
1805.72514	19115.5875
1808.90913	19118.2875
1812.09102	19052.1875
1815.27083	19026.6875
1818.44856	19005.2875
1821.6242	18965.6875
1824.79776	18969.6875
1827.96924	18935.9875
1831.13864	18921.7875
1834.30597	18937.6875
1837.47122	18944.2875
1840.6344	18931.1875
1843.7955	18905.8875
1846.95454	18928.5875
1850.11151	18910.3875
1853.26642	18912.1875
1856.41926	18923.0875
1859.57004	18953.5875
1862.71876	18912.4875
1865.86542	18915.4875
1869.01003	18913.9875
1872.15258	18952.7875
1875.29308	18903.9875
1878.43152	18894.0875
1881.56792	18922.0875
1884.70227	18885.9875
1887.83457	18933.4875
1890.96482	18883.2875
1894.09304	18866.2875
1897.21921	18859.0875
1900.34335	18856.6875
1903.46544	18824.1875
1906.58551	18824.5875
1909.70353	18848.7875
1912.81953	18784.1875
1915.93349	18783.2875
1919.04543	18746.0875
1922.15534	18729.6875
1925.26322	18665.9875
1928.36908	18625.2875
1931.47292	18539.9875
1934.57473	18474.5875
1937.67453	18436.4875
1940.77232	18386.4875
1943.86808	18319.1875
1946.96184	18275.4875
1950.05358	18204.5875
1953.14331	18181.7875
1956.23103	18090.8875
1959.31675	18033.4875
1962.40046	17946.7875
1965.48217	17949.9875
1968.56188	17903.0875
1971.63959	17822.2875
1974.7153	17786.4875
1977.78901	17743.7875
1980.86073	17701.3875
1983.93046	17655.9875
1986.99819	17587.9875
1990.06394	17514.3875
1993.1277	17481.8875
1996.18947	17438.1875
1999.24925	17353.2875
2002.30706	17296.6875
2005.36288	17261.9875
2008.41672	17215.8875
2011.46859	17151.0875
2014.51848	17126.9875
2017.56639	17082.1875
2020.61233	17034.6875
2023.6563	17002.1875
2026.6983	16991.8875
2029.73833	16997.7875
2032.7764	16951.3875
2035.8125	16892.5875
2038.84664	16899.1875
2041.87881	16871.3875
2044.90903	16823.8875
2047.93729	16766.5875
2050.96359	16763.2875
2053.98794	16723.2875
2057.01034	16716.5875
2060.03078	16710.9875
2063.04927	16671.4875
2066.06582	16701.0875
2069.08042	16683.5875
2072.09307	16679.7875
2075.10378	16634.5875
2078.11255	16616.4875
2081.11938	16641.6875
2084.12426	16615.6875
2087.12722	16596.3875
2090.12824	16585.3875
2093.12732	16589.0875
2096.12447	16585.1875
2099.11969	16610.8875
2102.11299	16585.9875
2105.10435	16614.1875
2108.09379	16642.1875
2111.08131	16650.2875
2114.0669	16654.7875
2117.05057	16642.5875
2120.03233	16677.9875
2123.01216	16671.9875
2125.99008	16672.8875
2128.96609	16725.6875
2131.94018	16681.8875
2134.91236	16719.6875
2137.88263	16725.5875
2140.851	16748.3875
2143.81746	16735.8875
2146.78201	16730.9875
2149.74466	16752.8875
2152.7054	16761.9875
2155.66425	16775.8875
2158.6212	16769.5875
2161.57625	16721.6875
2164.52941	16762.9875
2167.48067	16732.2875
2170.43004	16717.9875
2173.37752	16726.9875
2176.32311	16721.5875
2179.26681	16704.9875
2182.20863	16703.5875
2185.14856	16780.4875
2188.08661	16765.4875
2191.02278	16746.3875
2193.95707	16727.0875
2196.88948	16722.2875
2199.82001	16701.2875
2202.74867	16670.3875
2205.67545	16708.5875
2208.60037	16655.7875
2211.52341	16659.5875
2214.44458	16666.0875
2217.36388	16638.0875
2220.28132	16618.1875
2223.1969	16590.4875
2226.11061	16577.1875
2229.02246	16539.8875
2231.93245	16500.2875
2234.84058	16487.2875
2237.74686	16436.1875
2240.65128	16437.0875
2243.55385	16410.4875
2246.45456	16373.5875
2249.35343	16413.4875
2252.25044	16358.2875
2255.14561	16339.6875
2258.03893	16338.3875
2260.93041	16305.6875
2263.82004	16268.2875
2266.70783	16246.0875
2269.59378	16207.1875
2272.4779	16179.1875
2275.36017	16125.4875
2278.24061	16095.9875
2281.11922	16061.8875
2283.996	16043.9875
2286.87094	16036.8875
2289.74405	16026.2875
2292.61534	15998.9875
2295.4848	15987.1875
2298.35243	15948.6875
2301.21824	16002.3875
2304.08223	16019.0875
2306.94439	16037.6875
2309.80474	16009.9875
2312.66327	16015.9875
2315.51999	16033.3875
2318.37489	16015.6875
2321.22797	15992.0875
2324.07925	16020.3875
2326.92871	15967.8875
2329.77637	15991.1875
2332.62222	15983.7875
2335.46626	15968.5875
2338.3085	15966.5875
2341.14893	15985.4875
2343.98756	15996.7875
2346.8244	16020.3875
2349.65943	16012.3875
2352.49267	16005.0875
2355.32411	16027.6875
2358.15376	15985.9875
2360.98161	16005.6875
2363.80768	15983.4875
2366.63195	15984.2875
2369.45444	15928.7875
2372.27514	15905.6875
2375.09405	15888.3875
2377.91118	15851.4875
2380.72652	15775.6875
2383.54009	15784.5875
2386.35187	15749.3875
2389.16188	15696.0875
2391.97011	15667.0875
2394.77657	15649.2875
2397.58125	15602.0875
2400.38416	15623.5875
2403.18529	15559.2875
2405.98466	15569.4875
2408.78226	15543.5875
2411.57809	15494.0875
2414.37216	15448.4875
2417.16446	15472.9875
2419.955	15445.6875
2422.74378	15430.4875
2425.5308	15408.4875
2428.31606	15391.2875
2431.09956	15424.7875
2433.88131	15409.9875
2436.6613	15423.2875
2439.43954	15427.0875
2442.21603	15422.4875
2444.99077	15390.8875
2447.76377	15424.5875
2450.53501	15412.0875
2453.30451	15446.9875
2456.07226	15410.6875
2458.83827	15419.6875
2461.60254	15359.5875
2464.36507	15382.5875
2467.12586	15381.0875
2469.88492	15365.8875
2472.64224	15391.2875
2475.39782	15413.4875
2478.15167	15386.1875
2480.90379	15434.2875
2483.65417	15460.9875
2486.40283	15469.2875
2489.14976	15515.9875
2491.89497	15491.1875
2494.63845	15505.8875
2497.3802	15485.1875
2500.12024	15524.5875
2502.85855	15489.0875
2505.59514	15464.4875
2508.33002	15427.9875
2511.06318	15424.2875
2513.79462	15420.7875
2516.52435	15370.4875
2519.25237	15339.7875
2521.97867	15318.2875
2524.70327	15342.7875
2527.42616	15321.4875
2530.14734	15311.6875
2532.86681	15279.2875
2535.58458	15282.5875
2538.30065	15304.0875
2541.01501	15299.3875
2543.72768	15280.8875
2546.43864	15278.4875
2549.14791	15260.9875
2551.85548	15251.0875
2554.56136	15241.8875
2557.26554	15227.1875
2559.96803	15208.3875
2562.66883	15231.9875
2565.36794	15171.5875
2568.06536	15182.7875
2570.7611	15170.1875
2573.45514	15151.0875
2576.14751	15179.5875
2578.83819	15143.0875
2581.52719	15150.4875
2584.21451	15164.9875
2586.90015	15140.0875
2589.58411	15127.7875
2592.2664	15107.2875
2594.94701	15101.2875
2597.62594	15108.6875
2600.30321	15103.8875
2602.9788	15116.2875
2605.65273	15084.0875
2608.32498	15116.7875
2610.99557	15104.3875
2613.66449	15105.1875
2616.33175	15085.4875
2618.99734	15135.7875
2621.66128	15112.9875
2624.32355	15123.6875
2626.98416	15143.4875
2629.64311	15118.4875
2632.30041	15157.3875
2634.95605	15087.3875
2637.61004	15070.3875
2640.26238	15070.0875
2642.91306	15046.1875
2645.56209	15050.0875
2648.20948	15031.4875
2650.85521	14993.1875
2653.4993	14997.5875
2656.14175	15025.2875
2658.78255	15071.0875
2661.42171	15060.3875
2664.05923	15078.4875
2666.6951	15049.5875
2669.32934	15105.8875
2671.96194	15057.8875
2674.59291	15118.9875
2677.22224	15127.5875
2679.84993	15117.4875
2682.476	15118.4875
2685.10043	15119.6875
2687.72324	15082.1875
2690.34441	15098.2875
2692.96396	15062.9875
2695.58188	15030.7875
2698.19818	15013.0875
2700.81285	15039.5875
2703.4259	15000.3875
2706.03733	14940.4875
2708.64714	14996.0875
2711.25533	15028.7875
2713.86191	15044.2875
2716.46687	15067.6875
2719.07021	15088.0875
2721.67194	15101.2875
2724.27206	15114.2875
2726.87057	15152.5875
2729.46747	15155.7875
2732.06276	15131.9875
2734.65644	15135.0875
2737.24852	15147.6875
2739.83899	15146.8875
2742.42786	15130.4875
2745.01513	15102.1875
2747.60079	15109.0875
2750.18486	15082.3875
2752.76733	15100.7875
2755.3482	15090.7875
2757.92747	15108.1875
2760.50515	15075.6875
2763.08123	15082.2875
2765.65573	15024.0875
2768.22863	15043.3875
2770.79994	15041.8875
2773.36967	15024.6875
2775.9378	15000.7875
2778.50435	15024.5875
2781.06932	15013.6875
2783.6327	15034.2875
2786.1945	15029.5875
2788.75471	15028.4875
2791.31335	14987.6875
2793.87041	14990.2875
2796.42589	14984.4875
2798.97979	14937.0875
2801.53212	14906.4875
2804.08288	14884.9875
2806.63206	14876.8875
2809.17967	14839.8875
2811.72571	14805.7875
2814.27018	14818.4875
2816.81308	14787.4875
2819.35442	14782.7875
2821.89419	14796.5875
2824.43239	14769.6875
2826.96904	14763.9875
2829.50412	14736.8875
2832.03763	14746.3875
2834.56959	14734.7875
2837.1	14712.2875
2839.62884	14716.9875
2842.15613	14681.5875
2844.68186	14640.3875
2847.20604	14657.5875
2849.72867	14696.2875
2852.24974	14645.6875
2854.76927	14658.3875
2857.28724	14594.8875
2859.80367	14612.9875
2862.31855	14608.5875
2864.83189	14605.9875
2867.34368	14608.6875
2869.85393	14639.3875
2872.36264	14650.0875
2874.8698	14621.0875
2877.37543	14641.8875
2879.87952	14634.3875
2882.38207	14625.0875
2884.88308	14623.4875
2887.38256	14604.5875
2889.88051	14625.8875
2892.37692	14618.1875
2894.8718	14640.5875
2897.36515	14662.8875
2899.85698	14662.1875
2902.34727	14690.2875
2904.83604	14705.7875
2907.32328	14716.2875
2909.809	14693.5875
2912.29319	14737.4875
2914.77587	14723.3875
2917.25702	14741.3875
2919.73665	14729.4875
2922.21476	14700.3875
2924.69136	14682.6875
2927.16644	14682.2875
2929.64	14635.4875
2932.11205	14577.6875
2934.58258	14555.9875
2937.05161	14544.9875
2939.51912	14542.6875
2941.98513	14568.5875
2944.44962	14539.6875
2946.91261	14506.6875
2949.37409	14529.6875
2951.83407	14548.9875
2954.29254	14494.2875
2956.74951	14491.7875
2959.20498	14489.2875
2961.65895	14476.0875
2964.11142	14471.7875
2966.56239	14447.8875
2969.01186	14442.3875
2971.45984	14417.8875
2973.90632	14388.7875
2976.35131	14359.4875
2978.7948	14313.0875
2981.23681	14326.6875
2983.67732	14253.7875
2986.11635	14232.2875
2988.55388	14197.3875
2990.98993	14199.6875
2993.4245	14158.0875
2995.85758	14146.5875
2998.28917	14126.1875
3000.71928	14080.3875
3003.14791	14026.6875
3005.57506	14041.7875
3008.00073	13984.9875
3010.42493	13962.0875
3012.84764	13958.7875
3015.26888	13941.2875
3017.68865	13917.6875
3020.10694	13878.9875
3022.52376	13866.6875
3024.9391	13859.2875
3027.35298	13839.7875
3029.76539	13818.2875
3032.17632	13807.6875
3034.5858	13788.6875
3036.9938	13751.8875
3039.40034	13771.1875
3041.80542	13741.7875
3044.20903	13712.9875
3046.61118	13749.7875
3049.01187	13688.7875
3051.4111	13687.9875
3053.80888	13669.8875
3056.20519	13664.8875
3058.60005	13562.2875
3060.99345	13554.1875
3063.3854	13518.6875
3065.7759	13469.2875
3068.16494	13443.5875
3070.55254	13396.1875
3072.93868	13343.5875
3075.32338	13317.6875
3077.70662	13295.0875
3080.08842	13249.2875
3082.46878	13275.0875
3084.84769	13225.0875
3087.22515	13219.2875
3089.60118	13197.8875
3091.97576	13219.6875
3094.3489	13205.8875
3096.72061	13195.8875
3099.09087	13222.5875
3101.4597	13179.0875
3103.82709	13158.4875
3106.19305	13156.2875
3108.55757	13102.4875
3110.92066	13077.8875
3113.28232	13078.7875
3115.64255	13043.3875
3118.00134	12980.0875
3120.35871	13002.0875
3122.71466	12956.7875
3125.06917	12950.0875
3127.42226	12927.6875
3129.77393	12911.3875
3132.12417	12854.4875
3134.47299	12853.0875
3136.82039	12847.5875
3139.16636	12835.0875
3141.51092	12827.1875
3143.85406	12857.4875
3146.19579	12853.7875
3148.53609	12832.9875
3150.87499	12831.2875
3153.21246	12823.1875
3155.54853	12844.8875
3157.88318	12828.7875
3160.21642	12850.7875
3162.54826	12883.4875
3164.87868	12879.1875
3167.2077	12859.4875
3169.5353	12869.6875
3171.86151	12825.4875
3174.18631	12817.8875
3176.5097	12818.3875
3178.83169	12802.8875
3181.15228	12838.1875
3183.47147	12746.5875
3185.78926	12745.2875
3188.10565	12751.5875
3190.42065	12736.3875
3192.73424	12727.7875
3195.04645	12733.8875
3197.35725	12743.0875
3199.66667	12734.4875
3201.97469	12743.2875
3204.28132	12733.4875
3206.58656	12771.3875
3208.8904	12752.5875
3211.19287	12737.0875
3213.49394	12739.2875
3215.79363	12770.1875
3218.09193	12776.4875
3220.38884	12764.3875
3222.68438	12755.2875
3224.97853	12765.8875
3227.2713	12776.0875
3229.56269	12748.3875
3231.8527	12755.7875
3234.14133	12727.3875
3236.42858	12691.8875
3238.71446	12661.2875
3240.99896	12638.0875
3243.28209	12632.3875
3245.56384	12622.9875
3247.84423	12618.0875
3250.12324	12590.2875
3252.40088	12598.7875
3254.67715	12597.8875
3256.95205	12574.9875
3259.22558	12579.2875
3261.49775	12576.1875
3263.76855	12556.4875
3266.03799	12546.0875
3268.30606	12519.5875
3270.57277	12533.7875
3272.83812	12484.3875
3275.10211	12470.8875
3277.36474	12445.8875
3279.62601	12426.4875
3281.88593	12399.6875
3284.14448	12446.3875
3286.40168	12439.9875
3288.65753	12435.7875
3290.91202	12426.3875
3293.16516	12408.3875
3295.41695	12357.0875
3297.66738	12328.7875
3299.91647	12286.7875
3302.16421	12212.8875
3304.4106	12175.0875
3306.65564	12091.7875
3308.89933	11978.2875
3311.14169	11901.1875
3313.38269	11776.8875
3315.62236	11725.7875
3317.86068	11628.8875
3320.09766	11528.7875
3322.3333	11466.3875
3324.5676	11432.8875
3326.80056	11198.2875
3329.03219	11156.6875
3331.26248	2.6875
3333.49143	-0.6125
3335.71905	0.0875
