Data from AgNPs_FTO_APTES_UA_50uM_CRN_5uM_R6G_10uM_NaF_0.1M_Addition_RamanShift__3__12-36-04-809.txt Node

Date: Mon Feb 21 12:36:04 GMT 2022
User: TCL
Spectrometer: QEP01345
Trigger mode: 4
Integration Time (sec): 7.000000E0
Scans to average: 10
Electric dark correction enabled: true
Nonlinearity correction enabled: false
Boxcar width: 0
XAxis mode: Raman Shifts
Number of Pixels in Spectrum: 1044
>>>>>Begin Spectral Data<<<<<
46.04893	-0.9
50.45542	-0.5
54.85868	-0.6
59.25871	-0.8
63.6555	49.6
68.04907	53.3
72.43941	56.8
76.82654	59
81.21044	61.5
85.59113	65.6
89.96862	67.2
94.34289	71.1
98.71396	71.4
103.08183	75.2
107.4465	76.7
111.80798	75.9
116.16626	74.2
120.52136	74
124.87327	84.6
129.222	81.8
133.56755	83.8
137.90993	95.8
142.24913	96.3
146.58517	106.3
150.91804	119
155.24774	136.8
159.57429	166.8
163.89768	206.2
168.21792	273.3
172.53501	368.9
176.84895	503
181.15975	710.1
185.46741	983.3
189.77193	1354.8
194.07331	1801.8
198.37157	2328.6
202.6667	2864.3
206.9587	3416
211.24758	3947.2
215.53334	4512.9
219.81599	5121.8
224.09553	5785.4
228.37195	6531
232.64527	7352.7
236.91549	8181.1
241.18261	8974.8
245.44663	9699.4
249.70755	10297.9
253.96539	10804
258.22014	11178.3
262.4718	11532.5
266.72039	11722.7
270.96589	11781.6
275.20832	11706.4
279.44768	11538.6
283.68397	11293.5
287.91719	11099.7
292.14735	10998
296.37445	11015.3
300.59849	11104.4
304.81948	11350
309.03742	11433.7
313.25231	11427.4
317.46415	11264.2
321.67296	10959.3
325.87872	10728.7
330.08145	10654.1
334.28114	10659.4
338.47781	10723.9
342.67145	10842.5
346.86207	11052.2
351.04966	11341.7
355.23424	11653.1
359.4158	11908.2
363.59435	12100.3
367.76989	12176.4
371.94243	12230.3
376.11196	12256.2
380.27849	12289.1
384.44203	12357.8
388.60257	12364.2
392.76012	12435.9
396.91468	12511.6
401.06626	12700.3
405.21485	12801.1
409.36047	12697.3
413.50311	12450.4
417.64277	12201
421.77947	12131.8
425.9132	12063.7
430.04396	12112.5
434.17176	12201.1
438.2966	12342.1
442.41849	12688.9
446.53742	13171
450.6534	13641
454.76644	13901.8
458.87653	13890.4
462.98368	13697
467.08789	13455.5
471.18916	13169.6
475.2875	12842.2
479.38291	12550.2
483.4754	12382.1
487.56496	12237.2
491.6516	12192.7
495.73531	12153.2
499.81612	12193
503.89401	12293.8
507.96899	12297.8
512.04106	12261.2
516.11023	12239.1
520.1765	12250.7
524.23987	12291.3
528.30034	12280.6
532.35792	12257.3
536.41261	12121.7
540.46441	11851
544.51333	11747.3
548.55936	11818
552.60252	12033.8
556.64279	12332.9
560.6802	12524.1
564.71473	12580.5
568.7464	12716.6
572.7752	12936.4
576.80114	13027.5
580.82422	13225.3
584.84444	13662.5
588.86181	14495.9
592.87633	15541.8
596.888	16019.9
600.89682	15584.8
604.9028	15480.4
608.90594	17027.7
612.90624	19098.4
616.90371	18001.5
620.89834	14488
624.89015	12905.1
628.87913	12701.1
632.86528	12719.7
636.84862	12761.9
640.82913	12480.1
644.80683	12063.7
648.78172	11791.3
652.75379	11770
656.72306	12026.5
660.68952	12341.1
664.65319	12240.2
668.61405	11950.5
672.57211	11907.1
676.52738	12018.7
680.47986	12001.3
684.42955	11925.3
688.37646	11912.7
692.32058	11967.8
696.26192	12129.4
700.20048	12288.5
704.13626	12335.6
708.06928	12223.8
711.99952	12057.8
715.927	12086.9
719.85171	12184.2
723.77365	12222.9
727.69284	12054.8
731.60928	11862.2
735.52295	11849.1
739.43388	11901.3
743.34206	11956
747.24749	12021
751.15017	12093.2
755.05012	12219.1
758.94733	12548.6
762.8418	13316.9
766.73354	14587
770.62254	15870.7
774.50882	16363.1
778.39237	15790.5
782.27321	14552.7
786.15132	13372.3
790.02671	12637.6
793.89938	12245.6
797.76935	12086.3
801.6366	12025.5
805.50115	11935.8
809.36299	11888.9
813.22213	11808.9
817.07857	11747
820.93231	11671.8
824.78336	11642
828.63172	11660.3
832.47738	11660.5
836.32036	11729.7
840.16066	11758.6
843.99827	11810.6
847.8332	11768.2
851.66546	11702.7
855.49504	11711.7
859.32195	11696.6
863.1462	11676
866.96777	11612
870.78668	11583.3
874.60293	11628.5
878.41652	11653.9
882.22745	11742.4
886.03573	11849.3
889.84136	11845.5
893.64433	11818.3
897.44466	11745
901.24235	11698.6
905.0374	11608.9
908.8298	11581.5
912.61957	11545.7
916.40671	11578.7
920.19121	11722.9
923.97308	11875.4
927.75233	12056.9
931.52895	12090.7
935.30295	11956.9
939.07433	11744
942.84309	11534
946.60924	11431.7
950.37278	11390.1
954.13371	11348.6
957.89203	11303.5
961.64774	11258
965.40086	11261
969.15137	11221.5
972.89929	11237.9
976.64461	11300.2
980.38733	11338.2
984.12747	11387.7
987.86502	11499.2
991.59999	11639.9
995.33237	11865.8
999.06217	12252.3
1002.78939	12692
1006.51404	13027.3
1010.23611	13243.3
1013.95561	13344
1017.67255	13334.5
1021.38692	13190.5
1025.09872	12965.8
1028.80796	13018.5
1032.51465	13382.3
1036.21877	13733.4
1039.92035	13845.3
1043.61937	13690.4
1047.31584	13380.5
1051.00976	12993.8
1054.70114	12749.1
1058.38998	12626.3
1062.07627	12633.3
1065.76003	12653
1069.44126	12721.5
1073.11995	12935.8
1076.79611	13199.1
1080.46974	13420
1084.14085	13625.1
1087.80943	13784.5
1091.47549	13880.5
1095.13903	13745
1098.80005	13484.5
1102.45857	13170.2
1106.11456	13043.1
1109.76805	13000.4
1113.41903	13122
1117.06751	13256.3
1120.71348	13469.2
1124.35696	13720.9
1127.99793	13979.8
1131.63641	14039.3
1135.2724	13890.5
1138.90589	13674.7
1142.5369	13542.4
1146.16542	13484.2
1149.79145	13448.5
1153.415	13492.9
1157.03607	13551.9
1160.65467	13775.1
1164.27079	14338.3
1167.88443	15047.7
1171.49561	16092.4
1175.10432	17543
1178.71056	19453.4
1182.31434	21240.2
1185.91565	21949.2
1189.51451	21581
1193.11091	20608.5
1196.70485	19465
1200.29634	18454.2
1203.88538	17590.6
1207.47197	16904.4
1211.05612	16362.2
1214.63782	16011.5
1218.21708	15898.8
1221.79391	15983.4
1225.36829	16112.1
1228.94024	16052.5
1232.50976	15675.7
1236.07685	15301.8
1239.6415	15034.5
1243.20374	14987.7
1246.76355	15065.6
1250.32093	15210.8
1253.8759	15514.3
1257.42845	15990.1
1260.97859	16572
1264.52631	17231
1268.07163	17880.5
1271.61453	18514.2
1275.15503	19104.4
1278.69312	19614.2
1282.22882	20108.4
1285.76211	20677.8
1289.29301	21390.8
1292.82151	22268.9
1296.34761	23332.2
1299.87133	24751.9
1303.39266	26512.3
1306.9116	28574.1
1310.42815	30494.5
1313.94233	31381.8
1317.45412	30744
1320.96354	29044.8
1324.47058	27250.7
1327.97525	25672.2
1331.47754	24630.5
1334.97747	24054.3
1338.47502	23699.2
1341.97022	23454.8
1345.46305	23460.7
1348.95352	23870.6
1352.44163	24853.9
1355.92738	26694.3
1359.41078	29334.8
1362.89183	31679.1
1366.37053	31473.7
1369.84688	28365.2
1373.32088	24440.5
1376.79254	21817.7
1380.26186	20629.9
1383.72883	20129.1
1387.19347	19695.2
1390.65578	19203.3
1394.11575	18858.2
1397.57339	18854.8
1401.0287	18984.3
1404.48168	19050.7
1407.93234	19048.3
1411.38068	18887
1414.82669	18662.8
1418.27039	18338.4
1421.71177	17940.5
1425.15083	17564.3
1428.58758	17456.2
1432.02203	17660.6
1435.45416	18043.2
1438.88399	18380
1442.31151	18459.4
1445.73673	18464.3
1449.15965	18477
1452.58027	18333.6
1455.9986	18117.2
1459.41463	18072.1
1462.82837	18335.6
1466.23982	18798
1469.64898	19311.7
1473.05586	19661.8
1476.46045	19934.3
1479.86276	20109.2
1483.26279	20258.1
1486.66054	20477.8
1490.05602	20842.2
1493.44922	21299.7
1496.84016	21690.2
1500.22882	22289.6
1503.61521	23236.9
1506.99934	24466.3
1510.38121	25433.4
1513.76081	25525.3
1517.13816	24469.2
1520.51324	22911.2
1523.88607	21458.7
1527.25665	20628.2
1530.62498	20215.4
1533.99105	19934.4
1537.35488	19575.2
1540.71647	19133.1
1544.07581	18690.1
1547.4329	18288.2
1550.78776	17991.7
1554.14038	17773.7
1557.49077	17691.5
1560.83892	17681.8
1564.18484	17821
1567.52853	18133.3
1570.86999	18447.8
1574.20922	18779.6
1577.54624	18896.6
1580.88103	18663.7
1584.2136	18380.9
1587.54395	18724.8
1590.87208	19708.9
1594.19801	21250.7
1597.52172	22769.5
1600.84321	23255.5
1604.16251	22260.4
1607.47959	20341.4
1610.79447	18310.7
1614.10715	16596.3
1617.41763	15430
1620.7259	14722.2
1624.03199	14442.1
1627.33587	14567
1630.63757	15067.1
1633.93707	16026
1637.23439	17606.2
1640.52951	19986
1643.82246	22927.3
1647.11321	25398.9
1650.40179	25866.9
1653.68819	23724.4
1656.97241	20261.6
1660.25446	17087.6
1663.53433	14920.6
1666.81203	13646.2
1670.08756	12935.7
1673.36092	12502.4
1676.63211	12235.1
1679.90115	12047.9
1683.16801	11878.7
1686.43272	11746.5
1689.69527	11650.5
1692.95567	11524.8
1696.2139	11363.6
1699.46999	11263.5
1702.72392	11175.8
1705.97571	11219.5
1709.22535	11289.7
1712.47284	11319.4
1715.71819	11361.1
1718.96139	11320
1722.20246	11320.6
1725.44139	11224.4
1728.67818	11169
1731.91284	11097.8
1735.14537	11058.4
1738.37576	10990.9
1741.60403	10915.9
1744.83017	10867.3
1748.05418	10845.7
1751.27607	10795.1
1754.49584	10753.9
1757.71349	10684.2
1760.92903	10636.6
1764.14244	10628.3
1767.35375	10650.1
1770.56294	10621.2
1773.77002	10642.1
1776.97499	10673.5
1780.17785	10701.9
1783.37861	10718.5
1786.57727	10687
1789.77382	10690.5
1792.96828	10690.9
1796.16064	10685.2
1799.3509	10675.6
1802.53907	10679.6
1805.72514	10625.3
1808.90913	10634.3
1812.09102	10596.2
1815.27083	10567.4
1818.44856	10564.2
1821.6242	10573.6
1824.79776	10572.9
1827.96924	10570.6
1831.13864	10572.5
1834.30597	10584.2
1837.47122	10567.7
1840.6344	10560.7
1843.7955	10555.4
1846.95454	10545.2
1850.11151	10518.1
1853.26642	10566.2
1856.41926	10536.3
1859.57004	10538.6
1862.71876	10555
1865.86542	10512.3
1869.01003	10494
1872.15258	10503.3
1875.29308	10506
1878.43152	10510.1
1881.56792	10504.7
1884.70227	10508.2
1887.83457	10507
1890.96482	10467.9
1894.09304	10494.7
1897.21921	10460.8
1900.34335	10432.3
1903.46544	10450
1906.58551	10445.6
1909.70353	10464.9
1912.81953	10426.3
1915.93349	10416.3
1919.04543	10409.4
1922.15534	10367.8
1925.26322	10377.2
1928.36908	10366
1931.47292	10331.5
1934.57473	10301.5
1937.67453	10279.6
1940.77232	10252.7
1943.86808	10224.8
1946.96184	10201.6
1950.05358	10178.5
1953.14331	10143.9
1956.23103	10120.3
1959.31675	10109.8
1962.40046	10080.7
1965.48217	10077.2
1968.56188	10077.7
1971.63959	10025.9
1974.7153	10008.1
1977.78901	9987.9
1980.86073	9955.6
1983.93046	9923.4
1986.99819	9879.9
1990.06394	9862.7
1993.1277	9864.5
1996.18947	9820.5
1999.24925	9800
2002.30706	9739
2005.36288	9731.2
2008.41672	9693.6
2011.46859	9691.1
2014.51848	9658.1
2017.56639	9643.9
2020.61233	9632.8
2023.6563	9617.7
2026.6983	9575.2
2029.73833	9585.6
2032.7764	9587.8
2035.8125	9542.8
2038.84664	9553.9
2041.87881	9540.6
2044.90903	9523.4
2047.93729	9518
2050.96359	9500.3
2053.98794	9486.3
2057.01034	9484.1
2060.03078	9491.3
2063.04927	9484.9
2066.06582	9472.8
2069.08042	9474.4
2072.09307	9506.4
2075.10378	9471.8
2078.11255	9470.9
2081.11938	9504.1
2084.12426	9463.2
2087.12722	9487.3
2090.12824	9459.9
2093.12732	9467.6
2096.12447	9488.4
2099.11969	9483.8
2102.11299	9471
2105.10435	9492.9
2108.09379	9504.6
2111.08131	9513
2114.0669	9498.1
2117.05057	9505.4
2120.03233	9527.4
2123.01216	9555.3
2125.99008	9560.1
2128.96609	9590
2131.94018	9587.7
2134.91236	9587
2137.88263	9586.9
2140.851	9623.8
2143.81746	9604.9
2146.78201	9612.8
2149.74466	9614.2
2152.7054	9637.8
2155.66425	9602.5
2158.6212	9614.1
2161.57625	9602.9
2164.52941	9612.1
2167.48067	9606.9
2170.43004	9601.1
2173.37752	9606
2176.32311	9605.7
2179.26681	9620.2
2182.20863	9619.7
2185.14856	9639.7
2188.08661	9641.1
2191.02278	9663.5
2193.95707	9659.5
2196.88948	9639.6
2199.82001	9662.4
2202.74867	9628.1
2205.67545	9626.2
2208.60037	9627.7
2211.52341	9642.7
2214.44458	9601.9
2217.36388	9613
2220.28132	9606
2223.1969	9576.6
2226.11061	9548.3
2229.02246	9538.9
2231.93245	9553.1
2234.84058	9522.1
2237.74686	9512.8
2240.65128	9521.3
2243.55385	9526.3
2246.45456	9527.3
2249.35343	9507.5
2252.25044	9480.6
2255.14561	9469.2
2258.03893	9467.5
2260.93041	9439.9
2263.82004	9428.4
2266.70783	9421.9
2269.59378	9410.9
2272.4779	9402.1
2275.36017	9339.9
2278.24061	9346.8
2281.11922	9347.2
2283.996	9352
2286.87094	9314.8
2289.74405	9308.7
2292.61534	9321.7
2295.4848	9306.6
2298.35243	9315.8
2301.21824	9332.8
2304.08223	9358.1
2306.94439	9338
2309.80474	9356.2
2312.66327	9345.5
2315.51999	9326.3
2318.37489	9340.6
2321.22797	9339
2324.07925	9306.4
2326.92871	9313.6
2329.77637	9330.4
2332.62222	9308.2
2335.46626	9319.2
2338.3085	9294.5
2341.14893	9308
2343.98756	9312.8
2346.8244	9328.4
2349.65943	9312
2352.49267	9320.7
2355.32411	9310.3
2358.15376	9325.1
2360.98161	9306.2
2363.80768	9311.6
2366.63195	9314.4
2369.45444	9317.7
2372.27514	9268.7
2375.09405	9256.5
2377.91118	9253.6
2380.72652	9230
2383.54009	9224.5
2386.35187	9243.1
2389.16188	9189.9
2391.97011	9182.3
2394.77657	9181.1
2397.58125	9143.4
2400.38416	9160.5
2403.18529	9138
2405.98466	9137.5
2408.78226	9114.5
2411.57809	9083.6
2414.37216	9069.1
2417.16446	9076.5
2419.955	9053.7
2422.74378	9091.5
2425.5308	9055.4
2428.31606	9081.8
2431.09956	9058.2
2433.88131	9059.3
2436.6613	9079.2
2439.43954	9078.3
2442.21603	9073.4
2444.99077	9082.8
2447.76377	9065.6
2450.53501	9093.6
2453.30451	9070.5
2456.07226	9072.5
2458.83827	9083.8
2461.60254	9078.3
2464.36507	9052.4
2467.12586	9074.1
2469.88492	9073.3
2472.64224	9083.8
2475.39782	9085.4
2478.15167	9066.9
2480.90379	9083.7
2483.65417	9108.4
2486.40283	9131.2
2489.14976	9138.8
2491.89497	9134.4
2494.63845	9122.7
2497.3802	9128.7
2500.12024	9126.4
2502.85855	9136.2
2505.59514	9109.9
2508.33002	9123.5
2511.06318	9096.8
2513.79462	9095.1
2516.52435	9075.5
2519.25237	9082.9
2521.97867	9065.8
2524.70327	9063.7
2527.42616	9068
2530.14734	9064.5
2532.86681	9063.4
2535.58458	9068.1
2538.30065	9075.9
2541.01501	9064.3
2543.72768	9058.2
2546.43864	9046.4
2549.14791	9042.3
2551.85548	9036.9
2554.56136	9036.8
2557.26554	9035.3
2559.96803	9029.1
2562.66883	9040
2565.36794	9022.8
2568.06536	9010.6
2570.7611	9031.2
2573.45514	8998
2576.14751	9029.8
2578.83819	9015.3
2581.52719	9016.1
2584.21451	9008.4
2586.90015	8983.8
2589.58411	8978.5
2592.2664	8982.5
2594.94701	8963.2
2597.62594	8982.3
2600.30321	8966.4
2602.9788	8961
2605.65273	8966.6
2608.32498	8978.6
2610.99557	8953.1
2613.66449	8969.9
2616.33175	8971.4
2618.99734	8980.4
2621.66128	8984.8
2624.32355	8962.3
2626.98416	8952.9
2629.64311	8945.3
2632.30041	8921.5
2634.95605	8900.8
2637.61004	8906.9
2640.26238	8893
2642.91306	8895.4
2645.56209	8870.5
2648.20948	8863.8
2650.85521	8875.1
2653.4993	8895.6
2656.14175	8896.5
2658.78255	8931.3
2661.42171	8913.8
2664.05923	8942.8
2666.6951	8943.9
2669.32934	8950
2671.96194	8950.5
2674.59291	8952.5
2677.22224	8964.2
2679.84993	8963.2
2682.476	8948.1
2685.10043	8972
2687.72324	8947.6
2690.34441	8950.9
2692.96396	8907.9
2695.58188	8942.8
2698.19818	8932.3
2700.81285	8934.9
2703.4259	8908.9
2706.03733	8818.5
2708.64714	8893
2711.25533	8924.7
2713.86191	8947.8
2716.46687	8980.2
2719.07021	8957.6
2721.67194	9012.1
2724.27206	9007.2
2726.87057	9019.1
2729.46747	9038.2
2732.06276	9028.1
2734.65644	9006.1
2737.24852	9039.3
2739.83899	9026.9
2742.42786	9045.2
2745.01513	9016.2
2747.60079	9006.8
2750.18486	9005.5
2752.76733	9010.2
2755.3482	8994.4
2757.92747	8996.6
2760.50515	8957.9
2763.08123	9008.8
2765.65573	8991.1
2768.22863	8969.1
2770.79994	8985.3
2773.36967	8984.3
2775.9378	9008.2
2778.50435	9001.5
2781.06932	9004.9
2783.6327	8998.5
2786.1945	8979.6
2788.75471	8982.1
2791.31335	8961.5
2793.87041	8970.5
2796.42589	8944.7
2798.97979	8937.9
2801.53212	8941.4
2804.08288	8925
2806.63206	8895.8
2809.17967	8874.6
2811.72571	8875.6
2814.27018	8887.4
2816.81308	8881.8
2819.35442	8879.2
2821.89419	8841.4
2824.43239	8854.2
2826.96904	8860.6
2829.50412	8841.1
2832.03763	8845.3
2834.56959	8848.4
2837.1	8854.1
2839.62884	8853.9
2842.15613	8841.2
2844.68186	8860.3
2847.20604	8879.7
2849.72867	8861.3
2852.24974	8847.1
2854.76927	8845.7
2857.28724	8845.2
2859.80367	8873.5
2862.31855	8881.2
2864.83189	8873.5
2867.34368	8862.9
2869.85393	8880.7
2872.36264	8885.5
2874.8698	8911.5
2877.37543	8935.4
2879.87952	8935.9
2882.38207	8935.2
2884.88308	8934.9
2887.38256	8965.1
2889.88051	8953
2892.37692	8980
2894.8718	8964.9
2897.36515	8992.5
2899.85698	9003.6
2902.34727	9009.9
2904.83604	9021.7
2907.32328	9009.7
2909.809	9017.7
2912.29319	9020
2914.77587	9041.4
2917.25702	9025.7
2919.73665	9003.4
2922.21476	9010
2924.69136	9015.1
2927.16644	9026.7
2929.64	9017.1
2932.11205	9018.3
2934.58258	8970.6
2937.05161	8975.1
2939.51912	8960.8
2941.98513	8948.8
2944.44962	8928
2946.91261	8908.8
2949.37409	8923.8
2951.83407	8933.8
2954.29254	8916.8
2956.74951	8873.5
2959.20498	8870.6
2961.65895	8899.4
2964.11142	8882.7
2966.56239	8836.5
2969.01186	8904
2971.45984	8875.4
2973.90632	8855.8
2976.35131	8826.8
2978.7948	8825.6
2981.23681	8778.9
2983.67732	8788.7
2986.11635	8742.5
2988.55388	8723.5
2990.98993	8718.3
2993.4245	8703.5
2995.85758	8686.5
2998.28917	8656.3
3000.71928	8672.5
3003.14791	8645.9
3005.57506	8648
3008.00073	8621.8
3010.42493	8605.6
3012.84764	8599.1
3015.26888	8605.9
3017.68865	8594.9
3020.10694	8591.5
3022.52376	8591
3024.9391	8572.5
3027.35298	8555.9
3029.76539	8546.3
3032.17632	8564.5
3034.5858	8547.8
3036.9938	8535.6
3039.40034	8530.7
3041.80542	8536.1
3044.20903	8540.1
3046.61118	8548.2
3049.01187	8516.5
3051.4111	8528
3053.80888	8519
3056.20519	8516.2
3058.60005	8461.3
3060.99345	8465.6
3063.3854	8473.8
3065.7759	8453.9
3068.16494	8438
3070.55254	8422.7
3072.93868	8398.3
3075.32338	8380.2
3077.70662	8352.2
3080.08842	8348.6
3082.46878	8344.2
3084.84769	8356.1
3087.22515	8325.9
3089.60118	8358.1
3091.97576	8366.6
3094.3489	8348.1
3096.72061	8356.5
3099.09087	8374
3101.4597	8373.1
3103.82709	8370.1
3106.19305	8358.3
3108.55757	8384.3
3110.92066	8383.3
3113.28232	8372.5
3115.64255	8335.6
3118.00134	8330.3
3120.35871	8334.1
3122.71466	8342.4
3125.06917	8325
3127.42226	8302.7
3129.77393	8302.6
3132.12417	8324.7
3134.47299	8327.8
3136.82039	8330.1
3139.16636	8328.3
3141.51092	8323.3
3143.85406	8327.8
3146.19579	8344.7
3148.53609	8336
3150.87499	8345.2
3153.21246	8351.4
3155.54853	8388.9
3157.88318	8369.8
3160.21642	8382
3162.54826	8380.7
3164.87868	8389.2
3167.2077	8395.7
3169.5353	8405.2
3171.86151	8414.7
3174.18631	8429.8
3176.5097	8434.2
3178.83169	8388.9
3181.15228	8410
3183.47147	8387.7
3185.78926	8396.3
3188.10565	8386.7
3190.42065	8405.9
3192.73424	8411.1
3195.04645	8398.7
3197.35725	8405.1
3199.66667	8399.9
3201.97469	8424.3
3204.28132	8429.4
3206.58656	8417.4
3208.8904	8437.8
3211.19287	8443.3
3213.49394	8448.7
3215.79363	8446.6
3218.09193	8464.2
3220.38884	8451.9
3222.68438	8433.7
3224.97853	8447.3
3227.2713	8451.6
3229.56269	8442.8
3231.8527	8445.1
3234.14133	8429
3236.42858	8439
3238.71446	8432.5
3240.99896	8402
3243.28209	8425.8
3245.56384	8398.2
3247.84423	8411.7
3250.12324	8400.7
3252.40088	8377.3
3254.67715	8394.5
3256.95205	8380.8
3259.22558	8413.8
3261.49775	8406.9
3263.76855	8398.3
3266.03799	8391.9
3268.30606	8387.4
3270.57277	8372.9
3272.83812	8366
3275.10211	8352.1
3277.36474	8346.2
3279.62601	8343.1
3281.88593	8324.8
3284.14448	8318
3286.40168	8347.7
3288.65753	8341.8
3290.91202	8343.4
3293.16516	8348
3295.41695	8334.9
3297.66738	8297.7
3299.91647	8271.1
3302.16421	8207.3
3304.4106	8180.1
3306.65564	8131
3308.89933	8079.8
3311.14169	8044.5
3313.38269	7969.4
3315.62236	7909.5
3317.86068	7857.6
3320.09766	7804.9
3322.3333	7750.3
3324.5676	7729.6
3326.80056	7591
3329.03219	7558.7
3331.26248	3.3
3333.49143	-1.3
3335.71905	0.7
