Data from AgNPs_FTO_APTES_UA_50uM_CRN_20uM_R6G_10uM_NaF_0.1M_Addition_RamanShift__23__14-21-04-942.txt Node

Date: Mon Feb 21 14:21:04 GMT 2022
User: TCL
Spectrometer: QEP01345
Trigger mode: 4
Integration Time (sec): 7.000000E0
Scans to average: 10
Electric dark correction enabled: true
Nonlinearity correction enabled: false
Boxcar width: 0
XAxis mode: Raman Shifts
Number of Pixels in Spectrum: 1044
>>>>>Begin Spectral Data<<<<<
46.04893	1.2125
50.45542	-1.8875
54.85868	-0.4875
59.25871	-1.5875
63.6555	58.3125
68.04907	63.5125
72.43941	62.4125
76.82654	72.1125
81.21044	75.5125
85.59113	75.9125
89.96862	77.2125
94.34289	81.8125
98.71396	83.7125
103.08183	87.8125
107.4465	88.4125
111.80798	90.3125
116.16626	90.2125
120.52136	91.5125
124.87327	100.4125
129.222	99.2125
133.56755	105.5125
137.90993	110.6125
142.24913	122.5125
146.58517	134.0125
150.91804	153.6125
155.24774	175.8125
159.57429	218.1125
163.89768	272.4125
168.21792	364.0125
172.53501	498.2125
176.84895	695.6125
181.15975	960.9125
185.46741	1347.7125
189.77193	1857.3125
194.07331	2490.2125
198.37157	3200.7125
202.6667	3962.1125
206.9587	4730.3125
211.24758	5492.3125
215.53334	6326.6125
219.81599	7221.5125
224.09553	8246.2125
228.37195	9379.3125
232.64527	10616.6125
236.91549	11869.3125
241.18261	12921.8125
245.44663	13839.5125
249.70755	14539.6125
253.96539	15139.5125
258.22014	15657.2125
262.4718	16120.7125
266.72039	16460.9125
270.96589	16513.1125
275.20832	16402.9125
279.44768	16117.4125
283.68397	15756.7125
287.91719	15573.7125
292.14735	15591.3125
296.37445	15931.7125
300.59849	16535.3125
304.81948	17186.9125
309.03742	17650.4125
313.25231	17593.1125
317.46415	16783.8125
321.67296	15594.5125
325.87872	14601.6125
330.08145	14148.8125
334.28114	14125.9125
338.47781	14379.1125
342.67145	14720.2125
346.86207	15302.4125
351.04966	16128.6125
355.23424	17081.5125
359.4158	17859.7125
363.59435	18220.9125
367.76989	18321.6125
371.94243	18280.5125
376.11196	18155.2125
380.27849	18090.6125
384.44203	17963.0125
388.60257	17748.0125
392.76012	17655.7125
396.91468	17779.3125
401.06626	18159.1125
405.21485	18382.8125
409.36047	18033.8125
413.50311	17157.7125
417.64277	16268.5125
421.77947	15818.7125
425.9132	15620.7125
430.04396	15593.1125
434.17176	15657.1125
438.2966	15890.8125
442.41849	16316.5125
446.53742	16894.1125
450.6534	17504.9125
454.76644	17854.9125
458.87653	17890.4125
462.98368	17679.1125
467.08789	17318.4125
471.18916	16923.9125
475.2875	16548.0125
479.38291	16262.9125
483.4754	16003.3125
487.56496	15756.8125
491.6516	15553.4125
495.73531	15414.6125
499.81612	15358.5125
503.89401	15554.6125
507.96899	15753.2125
512.04106	15939.2125
516.11023	16130.8125
520.1765	16255.4125
524.23987	16198.1125
528.30034	16038.0125
532.35792	15867.5125
536.41261	15585.9125
540.46441	15300.9125
544.51333	15029.8125
548.55936	15094.0125
552.60252	15434.6125
556.64279	15898.8125
560.6802	16134.9125
564.71473	16384.4125
568.7464	17075.7125
572.7752	17492.3125
576.80114	17142.6125
580.82422	16694.0125
584.84444	16664.8125
588.86181	16913.3125
592.87633	17353.3125
596.888	17761.0125
600.89682	18044.8125
604.9028	19705.1125
608.90594	24763.2125
612.90624	31130.3125
616.90371	29101.3125
620.89834	20455.1125
624.89015	16605.1125
628.87913	15998.3125
632.86528	16195.3125
636.84862	16364.0125
640.82913	16003.4125
644.80683	15170.2125
648.78172	14505.3125
652.75379	14425.1125
656.72306	14981.5125
660.68952	15693.4125
664.65319	15500.0125
668.61405	14768.5125
672.57211	14514.7125
676.52738	14586.8125
680.47986	14577.8125
684.42955	14389.6125
688.37646	14193.2125
692.32058	14169.3125
696.26192	14267.4125
700.20048	14444.3125
704.13626	14564.1125
708.06928	14483.5125
711.99952	14318.2125
715.927	14257.9125
719.85171	14323.4125
723.77365	14397.4125
727.69284	14270.7125
731.60928	14184.7125
735.52295	14195.7125
739.43388	14261.4125
743.34206	14352.3125
747.24749	14399.9125
751.15017	14475.7125
755.05012	14694.6125
758.94733	15487.3125
762.8418	17297.0125
766.73354	20514.3125
770.62254	23700.3125
774.50882	25171.9125
778.39237	23822.4125
782.27321	20502.2125
786.15132	17317.1125
790.02671	15448.7125
793.89938	14563.6125
797.76935	14224.8125
801.6366	14099.4125
805.50115	14018.1125
809.36299	13898.8125
813.22213	13789.1125
817.07857	13713.0125
820.93231	13687.6125
824.78336	13676.9125
828.63172	13698.7125
832.47738	13703.5125
836.32036	13740.5125
840.16066	13678.7125
843.99827	13639.8125
847.8332	13643.8125
851.66546	13556.2125
855.49504	13518.6125
859.32195	13524.9125
863.1462	13528.5125
866.96777	13461.3125
870.78668	13462.4125
874.60293	13487.7125
878.41652	13496.3125
882.22745	13594.8125
886.03573	13698.6125
889.84136	13690.2125
893.64433	13609.7125
897.44466	13512.4125
901.24235	13456.5125
905.0374	13354.0125
908.8298	13184.0125
912.61957	13138.2125
916.40671	13220.8125
920.19121	13353.7125
923.97308	13570.2125
927.75233	13846.5125
931.52895	13978.8125
935.30295	13803.1125
939.07433	13376.5125
942.84309	12991.1125
946.60924	12806.5125
950.37278	12661.4125
954.13371	12612.9125
957.89203	12510.9125
961.64774	12458.7125
965.40086	12389.5125
969.15137	12328.2125
972.89929	12289.3125
976.64461	12212.2125
980.38733	12247.1125
984.12747	12267.0125
987.86502	12397.6125
991.59999	12581.0125
995.33237	12924.8125
999.06217	13427.9125
1002.78939	14098.8125
1006.51404	14553.4125
1010.23611	14828.1125
1013.95561	14974.2125
1017.67255	14998.2125
1021.38692	14744.8125
1025.09872	14504.2125
1028.80796	14523.6125
1032.51465	14922.7125
1036.21877	15408.6125
1039.92035	15547.9125
1043.61937	15314.7125
1047.31584	14951.0125
1051.00976	14496.4125
1054.70114	14195.6125
1058.38998	14049.1125
1062.07627	14052.4125
1065.76003	14073.2125
1069.44126	14120.5125
1073.11995	14280.6125
1076.79611	14512.9125
1080.46974	14830.6125
1084.14085	15258.4125
1087.80943	15680.3125
1091.47549	15854.7125
1095.13903	15633.5125
1098.80005	15085.7125
1102.45857	14626.4125
1106.11456	14468.5125
1109.76805	14650.2125
1113.41903	15042.5125
1117.06751	15623.4125
1120.71348	16407.3125
1124.35696	17193.5125
1127.99793	17879.5125
1131.63641	17806.8125
1135.2724	17023.4125
1138.90589	16248.0125
1142.5369	15695.3125
1146.16542	15308.2125
1149.79145	15065.9125
1153.415	15010.3125
1157.03607	15164.2125
1160.65467	15598.9125
1164.27079	16314.4125
1167.88443	17500.0125
1171.49561	19170.9125
1175.10432	21729.6125
1178.71056	25153.1125
1182.31434	28172.5125
1185.91565	29228.1125
1189.51451	28278.4125
1193.11091	26348.3125
1196.70485	24145.5125
1200.29634	22415.8125
1203.88538	21075.9125
1207.47197	19719.2125
1211.05612	18540.9125
1214.63782	17897.5125
1218.21708	17743.5125
1221.79391	17938.6125
1225.36829	18059.7125
1228.94024	17928.4125
1232.50976	17512.3125
1236.07685	17190.3125
1239.6415	17045.7125
1243.20374	17021.3125
1246.76355	17142.3125
1250.32093	17422.7125
1253.8759	17941.1125
1257.42845	18635.9125
1260.97859	19419.7125
1264.52631	20223.3125
1268.07163	21066.2125
1271.61453	21916.8125
1275.15503	22658.7125
1278.69312	23272.8125
1282.22882	23822.8125
1285.76211	24481.3125
1289.29301	25366.4125
1292.82151	26382.2125
1296.34761	27705.7125
1299.87133	29630.3125
1303.39266	32667.5125
1306.9116	36861.3125
1310.42815	41060.8125
1313.94233	42873.6125
1317.45412	41265.3125
1320.96354	38022.0125
1324.47058	34764.5125
1327.97525	32148.0125
1331.47754	30498.5125
1334.97747	29783.5125
1338.47502	29841.1125
1341.97022	30491.1125
1345.46305	31462.2125
1348.95352	32948.8125
1352.44163	35084.1125
1355.92738	38552.1125
1359.41078	43913.1125
1362.89183	48555.2125
1366.37053	46518.5125
1369.84688	38789.7125
1373.32088	31494.7125
1376.79254	27197.7125
1380.26186	24965.9125
1383.72883	23854.9125
1387.19347	23031.4125
1390.65578	22334.9125
1394.11575	22030.7125
1397.57339	22179.4125
1401.0287	22599.7125
1404.48168	22951.6125
1407.93234	23158.9125
1411.38068	23143.5125
1414.82669	22812.0125
1418.27039	22233.9125
1421.71177	21490.5125
1425.15083	20806.1125
1428.58758	20479.2125
1432.02203	20654.4125
1435.45416	21067.6125
1438.88399	21355.8125
1442.31151	21521.4125
1445.73673	21763.6125
1449.15965	22018.1125
1452.58027	22239.1125
1455.9986	22179.7125
1459.41463	22321.6125
1462.82837	22745.7125
1466.23982	23293.0125
1469.64898	23844.6125
1473.05586	24126.3125
1476.46045	24175.4125
1479.86276	24208.4125
1483.26279	24370.5125
1486.66054	24726.1125
1490.05602	25389.8125
1493.44922	26441.5125
1496.84016	28005.1125
1500.22882	30617.1125
1503.61521	34553.1125
1506.99934	39212.1125
1510.38121	42711.2125
1513.76081	42918.2125
1517.13816	39298.0125
1520.51324	33994.7125
1523.88607	29491.9125
1527.25665	26672.5125
1530.62498	25155.1125
1533.99105	24259.6125
1537.35488	23663.2125
1540.71647	23267.4125
1544.07581	22978.7125
1547.4329	22791.8125
1550.78776	22650.9125
1554.14038	22726.7125
1557.49077	22935.9125
1560.83892	23267.5125
1564.18484	23784.1125
1567.52853	24444.1125
1570.86999	24999.8125
1574.20922	25337.2125
1577.54624	25171.6125
1580.88103	24041.2125
1584.2136	22655.9125
1587.54395	22231.5125
1590.87208	23074.1125
1594.19801	24887.3125
1597.52172	27046.3125
1600.84321	27898.9125
1604.16251	26665.0125
1607.47959	24418.3125
1610.79447	21947.9125
1614.10715	19768.4125
1617.41763	18068.6125
1620.7259	16996.3125
1624.03199	16543.2125
1627.33587	16735.8125
1630.63757	17401.3125
1633.93707	18740.0125
1637.23439	20817.7125
1640.52951	23808.4125
1643.82246	27700.0125
1647.11321	31501.5125
1650.40179	33283.6125
1653.68819	31140.3125
1656.97241	25978.2125
1660.25446	20898.3125
1663.53433	17476.8125
1666.81203	15457.0125
1670.08756	14273.8125
1673.36092	13573.2125
1676.63211	13111.5125
1679.90115	12796.9125
1683.16801	12533.0125
1686.43272	12346.2125
1689.69527	12183.4125
1692.95567	12019.3125
1696.2139	11862.7125
1699.46999	11713.1125
1702.72392	11594.1125
1705.97571	11628.1125
1709.22535	11712.7125
1712.47284	11746.3125
1715.71819	11748.6125
1718.96139	11738.0125
1722.20246	11673.1125
1725.44139	11592.3125
1728.67818	11506.4125
1731.91284	11422.0125
1735.14537	11320.0125
1738.37576	11255.7125
1741.60403	11217.8125
1744.83017	11171.0125
1748.05418	11118.0125
1751.27607	11100.0125
1754.49584	11028.1125
1757.71349	10950.6125
1760.92903	10873.1125
1764.14244	10843.8125
1767.35375	10827.8125
1770.56294	10796.2125
1773.77002	10765.7125
1776.97499	10767.6125
1780.17785	10807.8125
1783.37861	10785.7125
1786.57727	10793.2125
1789.77382	10782.5125
1792.96828	10783.6125
1796.16064	10734.9125
1799.3509	10734.3125
1802.53907	10703.8125
1805.72514	10686.3125
1808.90913	10678.6125
1812.09102	10635.4125
1815.27083	10594.5125
1818.44856	10597.9125
1821.6242	10546.0125
1824.79776	10528.8125
1827.96924	10541.6125
1831.13864	10501.5125
1834.30597	10509.8125
1837.47122	10504.0125
1840.6344	10484.4125
1843.7955	10487.1125
1846.95454	10506.4125
1850.11151	10501.4125
1853.26642	10476.5125
1856.41926	10491.5125
1859.57004	10468.4125
1862.71876	10465.1125
1865.86542	10488.9125
1869.01003	10476.7125
1872.15258	10486.8125
1875.29308	10492.8125
1878.43152	10490.7125
1881.56792	10514.0125
1884.70227	10494.6125
1887.83457	10499.6125
1890.96482	10485.2125
1894.09304	10486.8125
1897.21921	10508.4125
1900.34335	10493.6125
1903.46544	10489.4125
1906.58551	10462.0125
1909.70353	10446.2125
1912.81953	10461.8125
1915.93349	10446.6125
1919.04543	10405.5125
1922.15534	10384.2125
1925.26322	10326.7125
1928.36908	10298.3125
1931.47292	10260.5125
1934.57473	10234.1125
1937.67453	10203.5125
1940.77232	10175.1125
1943.86808	10135.0125
1946.96184	10086.8125
1950.05358	10033.7125
1953.14331	10016.1125
1956.23103	10002.9125
1959.31675	9966.9125
1962.40046	9936.4125
1965.48217	9932.3125
1968.56188	9899.1125
1971.63959	9879.8125
1974.7153	9831.2125
1977.78901	9823.2125
1980.86073	9791.2125
1983.93046	9725.6125
1986.99819	9688.7125
1990.06394	9680.3125
1993.1277	9630.3125
1996.18947	9605.2125
1999.24925	9573.1125
2002.30706	9535.9125
2005.36288	9496.1125
2008.41672	9483.1125
2011.46859	9441.2125
2014.51848	9423.0125
2017.56639	9391.0125
2020.61233	9380.9125
2023.6563	9348.7125
2026.6983	9318.2125
2029.73833	9305.7125
2032.7764	9259.1125
2035.8125	9272.9125
2038.84664	9252.6125
2041.87881	9283.3125
2044.90903	9247.0125
2047.93729	9223.5125
2050.96359	9219.3125
2053.98794	9221.7125
2057.01034	9207.6125
2060.03078	9212.9125
2063.04927	9204.1125
2066.06582	9167.5125
2069.08042	9150.6125
2072.09307	9143.2125
2075.10378	9118.5125
2078.11255	9133.6125
2081.11938	9108.9125
2084.12426	9084.5125
2087.12722	9099.0125
2090.12824	9087.8125
2093.12732	9103.4125
2096.12447	9088.9125
2099.11969	9084.3125
2102.11299	9104.5125
2105.10435	9073.0125
2108.09379	9090.5125
2111.08131	9109.7125
2114.0669	9071.6125
2117.05057	9109.1125
2120.03233	9135.4125
2123.01216	9150.5125
2125.99008	9166.8125
2128.96609	9155.0125
2131.94018	9148.9125
2134.91236	9150.8125
2137.88263	9154.5125
2140.851	9146.1125
2143.81746	9153.1125
2146.78201	9154.4125
2149.74466	9155.5125
2152.7054	9141.4125
2155.66425	9103.1125
2158.6212	9138.0125
2161.57625	9130.7125
2164.52941	9129.7125
2167.48067	9112.0125
2170.43004	9085.5125
2173.37752	9102.4125
2176.32311	9129.9125
2179.26681	9120.1125
2182.20863	9126.4125
2185.14856	9127.5125
2188.08661	9108.6125
2191.02278	9132.9125
2193.95707	9109.3125
2196.88948	9114.2125
2199.82001	9120.3125
2202.74867	9123.6125
2205.67545	9128.8125
2208.60037	9103.8125
2211.52341	9107.9125
2214.44458	9092.9125
2217.36388	9077.1125
2220.28132	9069.8125
2223.1969	9056.2125
2226.11061	9029.4125
2229.02246	9029.1125
2231.93245	9003.7125
2234.84058	8996.4125
2237.74686	8971.0125
2240.65128	8952.5125
2243.55385	8973.7125
2246.45456	8959.2125
2249.35343	8945.1125
2252.25044	8920.9125
2255.14561	8926.7125
2258.03893	8926.7125
2260.93041	8907.7125
2263.82004	8900.6125
2266.70783	8878.8125
2269.59378	8848.7125
2272.4779	8813.4125
2275.36017	8799.9125
2278.24061	8802.7125
2281.11922	8762.2125
2283.996	8744.7125
2286.87094	8749.9125
2289.74405	8718.6125
2292.61534	8710.1125
2295.4848	8689.0125
2298.35243	8725.1125
2301.21824	8723.9125
2304.08223	8708.6125
2306.94439	8719.7125
2309.80474	8754.0125
2312.66327	8734.1125
2315.51999	8721.6125
2318.37489	8746.4125
2321.22797	8725.1125
2324.07925	8738.8125
2326.92871	8715.9125
2329.77637	8711.6125
2332.62222	8728.5125
2335.46626	8714.1125
2338.3085	8693.8125
2341.14893	8710.0125
2343.98756	8753.7125
2346.8244	8769.3125
2349.65943	8773.9125
2352.49267	8777.5125
2355.32411	8776.5125
2358.15376	8801.7125
2360.98161	8777.3125
2363.80768	8804.8125
2366.63195	8778.5125
2369.45444	8758.1125
2372.27514	8759.5125
2375.09405	8742.2125
2377.91118	8719.9125
2380.72652	8682.6125
2383.54009	8645.2125
2386.35187	8610.4125
2389.16188	8585.8125
2391.97011	8549.3125
2394.77657	8550.8125
2397.58125	8543.1125
2400.38416	8514.9125
2403.18529	8505.1125
2405.98466	8482.4125
2408.78226	8451.5125
2411.57809	8432.5125
2414.37216	8417.3125
2417.16446	8414.6125
2419.955	8393.2125
2422.74378	8396.6125
2425.5308	8392.6125
2428.31606	8378.3125
2431.09956	8399.1125
2433.88131	8378.5125
2436.6613	8377.9125
2439.43954	8407.6125
2442.21603	8390.8125
2444.99077	8408.0125
2447.76377	8427.6125
2450.53501	8427.7125
2453.30451	8444.3125
2456.07226	8415.2125
2458.83827	8427.5125
2461.60254	8432.0125
2464.36507	8432.1125
2467.12586	8436.4125
2469.88492	8417.6125
2472.64224	8413.4125
2475.39782	8435.5125
2478.15167	8471.0125
2480.90379	8491.5125
2483.65417	8481.3125
2486.40283	8518.4125
2489.14976	8554.6125
2491.89497	8539.9125
2494.63845	8555.3125
2497.3802	8523.8125
2500.12024	8531.2125
2502.85855	8526.1125
2505.59514	8497.3125
2508.33002	8462.4125
2511.06318	8440.7125
2513.79462	8418.7125
2516.52435	8393.0125
2519.25237	8367.0125
2521.97867	8372.8125
2524.70327	8322.0125
2527.42616	8333.2125
2530.14734	8335.1125
2532.86681	8332.8125
2535.58458	8356.1125
2538.30065	8365.0125
2541.01501	8349.8125
2543.72768	8345.9125
2546.43864	8332.1125
2549.14791	8337.4125
2551.85548	8343.3125
2554.56136	8330.0125
2557.26554	8318.7125
2559.96803	8342.9125
2562.66883	8324.4125
2565.36794	8320.1125
2568.06536	8307.0125
2570.7611	8286.4125
2573.45514	8296.0125
2576.14751	8307.3125
2578.83819	8275.1125
2581.52719	8293.1125
2584.21451	8284.7125
2586.90015	8289.8125
2589.58411	8270.7125
2592.2664	8253.2125
2594.94701	8248.6125
2597.62594	8259.1125
2600.30321	8267.7125
2602.9788	8280.6125
2605.65273	8288.8125
2608.32498	8271.8125
2610.99557	8269.5125
2613.66449	8296.8125
2616.33175	8305.0125
2618.99734	8317.2125
2621.66128	8312.3125
2624.32355	8304.5125
2626.98416	8314.4125
2629.64311	8335.5125
2632.30041	8302.6125
2634.95605	8295.9125
2637.61004	8290.9125
2640.26238	8263.0125
2642.91306	8239.2125
2645.56209	8234.5125
2648.20948	8226.0125
2650.85521	8221.7125
2653.4993	8211.0125
2656.14175	8201.3125
2658.78255	8229.6125
2661.42171	8207.2125
2664.05923	8245.2125
2666.6951	8284.5125
2669.32934	8282.3125
2671.96194	8291.7125
2674.59291	8318.2125
2677.22224	8300.4125
2679.84993	8298.8125
2682.476	8264.5125
2685.10043	8265.3125
2687.72324	8246.7125
2690.34441	8250.6125
2692.96396	8237.2125
2695.58188	8239.4125
2698.19818	8212.4125
2700.81285	8218.8125
2703.4259	8175.2125
2706.03733	8131.4125
2708.64714	8173.1125
2711.25533	8215.8125
2713.86191	8210.8125
2716.46687	8258.6125
2719.07021	8239.8125
2721.67194	8279.9125
2724.27206	8261.7125
2726.87057	8261.8125
2729.46747	8270.5125
2732.06276	8273.9125
2734.65644	8247.6125
2737.24852	8243.1125
2739.83899	8227.7125
2742.42786	8248.4125
2745.01513	8221.8125
2747.60079	8227.8125
2750.18486	8216.2125
2752.76733	8233.0125
2755.3482	8216.0125
2757.92747	8219.9125
2760.50515	8217.0125
2763.08123	8201.5125
2765.65573	8202.1125
2768.22863	8198.8125
2770.79994	8177.0125
2773.36967	8200.2125
2775.9378	8170.9125
2778.50435	8187.7125
2781.06932	8190.6125
2783.6327	8211.3125
2786.1945	8211.4125
2788.75471	8198.5125
2791.31335	8181.9125
2793.87041	8182.1125
2796.42589	8158.5125
2798.97979	8158.7125
2801.53212	8169.4125
2804.08288	8169.0125
2806.63206	8130.9125
2809.17967	8118.6125
2811.72571	8130.5125
2814.27018	8125.7125
2816.81308	8145.1125
2819.35442	8162.7125
2821.89419	8132.6125
2824.43239	8161.5125
2826.96904	8153.0125
2829.50412	8155.6125
2832.03763	8137.7125
2834.56959	8136.0125
2837.1	8136.1125
2839.62884	8109.3125
2842.15613	8113.5125
2844.68186	8121.5125
2847.20604	8115.4125
2849.72867	8137.6125
2852.24974	8148.9125
2854.76927	8118.5125
2857.28724	8103.5125
2859.80367	8126.7125
2862.31855	8130.9125
2864.83189	8117.0125
2867.34368	8126.7125
2869.85393	8166.8125
2872.36264	8165.6125
2874.8698	8166.5125
2877.37543	8166.3125
2879.87952	8162.7125
2882.38207	8163.0125
2884.88308	8161.8125
2887.38256	8170.0125
2889.88051	8184.6125
2892.37692	8178.5125
2894.8718	8160.5125
2897.36515	8201.0125
2899.85698	8193.1125
2902.34727	8192.8125
2904.83604	8207.3125
2907.32328	8236.4125
2909.809	8211.8125
2912.29319	8255.2125
2914.77587	8235.6125
2917.25702	8240.4125
2919.73665	8209.4125
2922.21476	8206.3125
2924.69136	8184.4125
2927.16644	8196.0125
2929.64	8168.1125
2932.11205	8155.3125
2934.58258	8124.3125
2937.05161	8130.1125
2939.51912	8113.4125
2941.98513	8122.9125
2944.44962	8094.5125
2946.91261	8080.7125
2949.37409	8102.4125
2951.83407	8085.2125
2954.29254	8072.6125
2956.74951	8044.4125
2959.20498	8035.8125
2961.65895	8034.5125
2964.11142	8011.6125
2966.56239	7982.8125
2969.01186	7968.2125
2971.45984	7955.4125
2973.90632	7933.3125
2976.35131	7921.1125
2978.7948	7916.7125
2981.23681	7875.3125
2983.67732	7855.3125
2986.11635	7843.2125
2988.55388	7813.5125
2990.98993	7812.6125
2993.4245	7788.4125
2995.85758	7787.5125
2998.28917	7756.0125
3000.71928	7765.5125
3003.14791	7749.7125
3005.57506	7749.8125
3008.00073	7744.0125
3010.42493	7742.2125
3012.84764	7712.8125
3015.26888	7694.7125
3017.68865	7699.2125
3020.10694	7675.6125
3022.52376	7651.2125
3024.9391	7650.4125
3027.35298	7645.3125
3029.76539	7604.6125
3032.17632	7606.8125
3034.5858	7586.9125
3036.9938	7594.9125
3039.40034	7566.4125
3041.80542	7562.8125
3044.20903	7557.9125
3046.61118	7567.0125
3049.01187	7529.9125
3051.4111	7524.9125
3053.80888	7529.4125
3056.20519	7494.1125
3058.60005	7503.5125
3060.99345	7474.8125
3063.3854	7474.2125
3065.7759	7446.3125
3068.16494	7406.3125
3070.55254	7404.9125
3072.93868	7362.3125
3075.32338	7346.0125
3077.70662	7334.6125
3080.08842	7300.7125
3082.46878	7292.5125
3084.84769	7278.9125
3087.22515	7266.4125
3089.60118	7271.2125
3091.97576	7281.0125
3094.3489	7275.5125
3096.72061	7282.6125
3099.09087	7253.7125
3101.4597	7271.9125
3103.82709	7255.8125
3106.19305	7252.6125
3108.55757	7254.1125
3110.92066	7229.0125
3113.28232	7232.1125
3115.64255	7205.5125
3118.00134	7203.9125
3120.35871	7201.8125
3122.71466	7213.3125
3125.06917	7180.3125
3127.42226	7170.8125
3129.77393	7177.4125
3132.12417	7158.7125
3134.47299	7166.4125
3136.82039	7149.5125
3139.16636	7149.3125
3141.51092	7161.8125
3143.85406	7148.8125
3146.19579	7134.8125
3148.53609	7168.6125
3150.87499	7155.4125
3153.21246	7170.6125
3155.54853	7184.8125
3157.88318	7178.2125
3160.21642	7191.8125
3162.54826	7192.2125
3164.87868	7188.2125
3167.2077	7183.9125
3169.5353	7197.3125
3171.86151	7207.2125
3174.18631	7210.5125
3176.5097	7188.8125
3178.83169	7165.1125
3181.15228	7168.9125
3183.47147	7164.2125
3185.78926	7169.6125
3188.10565	7184.5125
3190.42065	7180.7125
3192.73424	7168.8125
3195.04645	7175.1125
3197.35725	7174.9125
3199.66667	7184.9125
3201.97469	7189.2125
3204.28132	7170.9125
3206.58656	7170.8125
3208.8904	7183.7125
3211.19287	7192.1125
3213.49394	7214.7125
3215.79363	7208.8125
3218.09193	7234.9125
3220.38884	7222.7125
3222.68438	7217.8125
3224.97853	7225.9125
3227.2713	7241.9125
3229.56269	7221.6125
3231.8527	7224.9125
3234.14133	7197.0125
3236.42858	7205.1125
3238.71446	7196.8125
3240.99896	7184.3125
3243.28209	7179.6125
3245.56384	7166.1125
3247.84423	7178.7125
3250.12324	7185.0125
3252.40088	7187.3125
3254.67715	7184.3125
3256.95205	7175.5125
3259.22558	7168.3125
3261.49775	7152.6125
3263.76855	7148.3125
3266.03799	7144.5125
3268.30606	7154.2125
3270.57277	7148.9125
3272.83812	7137.2125
3275.10211	7113.2125
3277.36474	7105.9125
3279.62601	7109.4125
3281.88593	7115.8125
3284.14448	7116.9125
3286.40168	7129.5125
3288.65753	7133.1125
3290.91202	7123.5125
3293.16516	7125.1125
3295.41695	7106.9125
3297.66738	7087.8125
3299.91647	7042.3125
3302.16421	6991.8125
3304.4106	6967.7125
3306.65564	6925.6125
3308.89933	6871.4125
3311.14169	6825.4125
3313.38269	6757.8125
3315.62236	6715.6125
3317.86068	6661.4125
3320.09766	6594.3125
3322.3333	6575.1125
3324.5676	6528.3125
3326.80056	6402.3125
3329.03219	6395.6125
3331.26248	2.2125
3333.49143	-0.6875
3335.71905	-0.0875
