Data from AgNPs_FTO_APTES_UA_50uM_CRN_20uM_R6G_10uM_NaF_0.1M_Addition_RamanShift__19__14-16-24-927.txt Node

Date: Mon Feb 21 14:16:24 GMT 2022
User: TCL
Spectrometer: QEP01345
Trigger mode: 4
Integration Time (sec): 7.000000E0
Scans to average: 10
Electric dark correction enabled: true
Nonlinearity correction enabled: false
Boxcar width: 0
XAxis mode: Raman Shifts
Number of Pixels in Spectrum: 1044
>>>>>Begin Spectral Data<<<<<
46.04893	1.2
50.45542	-1.1
54.85868	-0.8
59.25871	-2
63.6555	55.5
68.04907	62.1
72.43941	63
76.82654	68.1
81.21044	69.2
85.59113	69
89.96862	73.8
94.34289	79.1
98.71396	80.4
103.08183	86.9
107.4465	83.9
111.80798	81.8
116.16626	85
120.52136	86.3
124.87327	95.4
129.222	90.3
133.56755	95.1
137.90993	108.1
142.24913	113.7
146.58517	125.2
150.91804	141.6
155.24774	168.7
159.57429	202.1
163.89768	255.6
168.21792	345.3
172.53501	463.6
176.84895	641.8
181.15975	894.1
185.46741	1245.9
189.77193	1720.8
194.07331	2312.4
198.37157	2966.2
202.6667	3675.3
206.9587	4360.9
211.24758	5053
215.53334	5776
219.81599	6561.1
224.09553	7436.2
228.37195	8407.2
232.64527	9508
236.91549	10579.4
241.18261	11644
245.44663	12493.1
249.70755	13209
253.96539	13823
258.22014	14346.1
262.4718	14753
266.72039	15041.7
270.96589	15194.8
275.20832	15122
279.44768	14912.4
283.68397	14642.3
287.91719	14492.6
292.14735	14480.6
296.37445	14642.5
300.59849	14958.4
304.81948	15288.2
309.03742	15470.7
313.25231	15371.3
317.46415	14845.7
321.67296	14100.4
325.87872	13474
330.08145	13120
334.28114	13139.3
338.47781	13284.9
342.67145	13549.3
346.86207	13890.7
351.04966	14396.4
355.23424	15000.5
359.4158	15484.9
363.59435	15787.5
367.76989	15904.9
371.94243	15955.8
376.11196	15907.4
380.27849	15916.6
384.44203	15940.7
388.60257	15889.1
392.76012	15874.9
396.91468	16011.6
401.06626	16315.8
405.21485	16488.3
409.36047	16256
413.50311	15704
417.64277	15203.4
421.77947	14905.7
425.9132	14819.9
430.04396	14834.9
434.17176	14881
438.2966	15071.6
442.41849	15402.2
446.53742	15894.6
450.6534	16354.5
454.76644	16709.3
458.87653	16808.8
462.98368	16644.6
467.08789	16374.2
471.18916	16068.2
475.2875	15745.7
479.38291	15571.8
483.4754	15368.8
487.56496	15154.9
491.6516	14951
495.73531	14841.9
499.81612	14814.5
503.89401	14984.2
507.96899	15086.4
512.04106	15129.9
516.11023	15194.4
520.1765	15206.2
524.23987	15159.3
528.30034	15035.6
532.35792	14948
536.41261	14759.4
540.46441	14516.1
544.51333	14353.8
548.55936	14426.7
552.60252	14707.3
556.64279	15032.5
560.6802	15254.9
564.71473	15400.1
568.7464	15777.6
572.7752	16210.6
576.80114	16226
580.82422	16130.8
584.84444	16234.9
588.86181	16533
592.87633	16910.3
596.888	17134.5
600.89682	17147.3
604.9028	18218.1
608.90594	21536.4
612.90624	25488.5
616.90371	23786.9
620.89834	17907.3
624.89015	15326
628.87913	15000.4
632.86528	15112.8
636.84862	15189.5
640.82913	14944.8
644.80683	14320
648.78172	13828.9
652.75379	13751.1
656.72306	14102.9
660.68952	14604.8
664.65319	14470.9
668.61405	14004.8
672.57211	13871.1
676.52738	14030.3
680.47986	14039.7
684.42955	13864.3
688.37646	13698.7
692.32058	13670.1
696.26192	13740.1
700.20048	13900.2
704.13626	14003
708.06928	13919
711.99952	13791.5
715.927	13700.8
719.85171	13753.6
723.77365	13808.2
727.69284	13695.1
731.60928	13552.4
735.52295	13566.3
739.43388	13634.8
743.34206	13674.8
747.24749	13723.3
751.15017	13817.7
755.05012	14025.7
758.94733	14512.5
762.8418	15806.7
766.73354	18022.6
770.62254	20320.4
774.50882	21278.4
778.39237	20238.2
782.27321	17929.2
786.15132	15799
790.02671	14489.8
793.89938	13843.6
797.76935	13582.2
801.6366	13492
805.50115	13393.6
809.36299	13275.5
813.22213	13141
817.07857	13026.9
820.93231	12991.5
824.78336	12953.2
828.63172	12937.6
832.47738	12937.7
836.32036	12941
840.16066	12964.5
843.99827	12978.7
847.8332	12940.5
851.66546	12858.8
855.49504	12846.8
859.32195	12875.4
863.1462	12887.3
866.96777	12852.5
870.78668	12812.2
874.60293	12843.1
878.41652	12856.1
882.22745	12907.1
886.03573	13002.8
889.84136	12985.6
893.64433	12921.2
897.44466	12866.9
901.24235	12774
905.0374	12680.6
908.8298	12566
912.61957	12482.7
916.40671	12586.1
920.19121	12736
923.97308	12942.5
927.75233	13091.6
931.52895	13169.5
935.30295	13009.4
939.07433	12677.4
942.84309	12356.9
946.60924	12237.7
950.37278	12130.5
954.13371	12092.1
957.89203	12010.7
961.64774	11968.1
965.40086	11914.7
969.15137	11842.4
972.89929	11768.5
976.64461	11759.9
980.38733	11750.6
984.12747	11786.5
987.86502	11910.9
991.59999	12090.9
995.33237	12340.2
999.06217	12783.8
1002.78939	13337.2
1006.51404	13678.2
1010.23611	13879.7
1013.95561	14005.7
1017.67255	14059.5
1021.38692	13919.6
1025.09872	13657.4
1028.80796	13664
1032.51465	14019.3
1036.21877	14417.1
1039.92035	14504.7
1043.61937	14343.5
1047.31584	14004.4
1051.00976	13644.8
1054.70114	13420
1058.38998	13371.5
1062.07627	13377.8
1065.76003	13393.8
1069.44126	13461.4
1073.11995	13628
1076.79611	13863.7
1080.46974	14087.6
1084.14085	14350.4
1087.80943	14641.4
1091.47549	14771.8
1095.13903	14657.6
1098.80005	14306.8
1102.45857	13920
1106.11456	13731.2
1109.76805	13774.4
1113.41903	13981.4
1117.06751	14320.1
1120.71348	14743.9
1124.35696	15256
1127.99793	15713.9
1131.63641	15743.1
1135.2724	15381.8
1138.90589	14986.5
1142.5369	14638.8
1146.16542	14421.9
1149.79145	14294.9
1153.415	14295.8
1157.03607	14480.8
1160.65467	14854
1164.27079	15542.5
1167.88443	16557.4
1171.49561	18001.6
1175.10432	20003.8
1178.71056	22613.3
1182.31434	25008.2
1185.91565	26005.6
1189.51451	25609.5
1193.11091	24237.9
1196.70485	22555.7
1200.29634	21059.1
1203.88538	19801.9
1207.47197	18704.1
1211.05612	17767.3
1214.63782	17218.3
1218.21708	17096.5
1221.79391	17210.4
1225.36829	17352.1
1228.94024	17225.2
1232.50976	16859.2
1236.07685	16494.2
1239.6415	16298.6
1243.20374	16242.2
1246.76355	16304.7
1250.32093	16573.2
1253.8759	16989.8
1257.42845	17584.2
1260.97859	18241
1264.52631	18968.7
1268.07163	19704.1
1271.61453	20505.2
1275.15503	21241.7
1278.69312	21886.1
1282.22882	22437.6
1285.76211	22990.6
1289.29301	23677.6
1292.82151	24540.9
1296.34761	25671.8
1299.87133	27274.5
1303.39266	29515.5
1306.9116	32494.8
1310.42815	35501.7
1313.94233	37147.4
1317.45412	36490.4
1320.96354	34494.3
1324.47058	32386.5
1327.97525	30470.7
1331.47754	29224.7
1334.97747	28647.2
1338.47502	28479.9
1341.97022	28692.2
1345.46305	29152.1
1348.95352	29882.5
1352.44163	31077.6
1355.92738	33199.7
1359.41078	36412.4
1362.89183	39335.1
1366.37053	38214.1
1369.84688	33165.8
1373.32088	27919.7
1376.79254	24581.2
1380.26186	22929.6
1383.72883	22124.2
1387.19347	21540.2
1390.65578	21094.6
1394.11575	20816
1397.57339	20951.3
1401.0287	21299.4
1404.48168	21615.1
1407.93234	21668
1411.38068	21507.9
1414.82669	21144.4
1418.27039	20491.5
1421.71177	19869.7
1425.15083	19255.6
1428.58758	18955.7
1432.02203	19094.1
1435.45416	19460.2
1438.88399	19843.7
1442.31151	20090
1445.73673	20351.7
1449.15965	20607.3
1452.58027	20758.2
1455.9986	20836.1
1459.41463	21047.5
1462.82837	21414
1466.23982	21927.6
1469.64898	22375.7
1473.05586	22616.6
1476.46045	22611.9
1479.86276	22624.2
1483.26279	22578.3
1486.66054	22714.8
1490.05602	23136.8
1493.44922	23788.5
1496.84016	24739.6
1500.22882	26337.6
1503.61521	28737.5
1506.99934	31510
1510.38121	33685.6
1513.76081	33875
1517.13816	31829
1520.51324	28608.7
1523.88607	25745.4
1527.25665	23986.3
1530.62498	23009.2
1533.99105	22409.2
1537.35488	21992.4
1540.71647	21645.4
1544.07581	21261.2
1547.4329	20948.4
1550.78776	20695.8
1554.14038	20611
1557.49077	20671.1
1560.83892	20831.4
1564.18484	21146
1567.52853	21541
1570.86999	21950
1574.20922	22259
1577.54624	22252
1580.88103	21574.4
1584.2136	20766.8
1587.54395	20680.6
1590.87208	21482
1594.19801	23054.6
1597.52172	24811.2
1600.84321	25521.7
1604.16251	24489.3
1607.47959	22461.8
1610.79447	20318.7
1614.10715	18425.7
1617.41763	16868.4
1620.7259	15859.2
1624.03199	15386.4
1627.33587	15454
1630.63757	16009.6
1633.93707	17178.1
1637.23439	19011.8
1640.52951	21617.9
1643.82246	24841
1647.11321	27685.6
1650.40179	28817.7
1653.68819	26918.2
1656.97241	22861.8
1660.25446	18781.2
1663.53433	15921.8
1666.81203	14175.1
1670.08756	13188.8
1673.36092	12579.7
1676.63211	12187.2
1679.90115	11904.6
1683.16801	11667.1
1686.43272	11494.9
1689.69527	11348.9
1692.95567	11170.4
1696.2139	11045.7
1699.46999	10910.1
1702.72392	10829
1705.97571	10863.6
1709.22535	10911.8
1712.47284	10947.9
1715.71819	10955.9
1718.96139	10936.8
1722.20246	10880.4
1725.44139	10801.4
1728.67818	10753.2
1731.91284	10652.1
1735.14537	10588.8
1738.37576	10530.7
1741.60403	10492.7
1744.83017	10447
1748.05418	10435.7
1751.27607	10377.1
1754.49584	10312.9
1757.71349	10265.1
1760.92903	10167
1764.14244	10133.9
1767.35375	10144.2
1770.56294	10081.2
1773.77002	10084.1
1776.97499	10100.7
1780.17785	10119.4
1783.37861	10102.7
1786.57727	10089.6
1789.77382	10089.4
1792.96828	10063.1
1796.16064	10046.3
1799.3509	10040.2
1802.53907	10010.1
1805.72514	10006.2
1808.90913	9930.9
1812.09102	9927.6
1815.27083	9920.3
1818.44856	9914.2
1821.6242	9886.9
1824.79776	9887.2
1827.96924	9872.8
1831.13864	9842.5
1834.30597	9860.9
1837.47122	9855.6
1840.6344	9859.5
1843.7955	9856.3
1846.95454	9853.1
1850.11151	9847.6
1853.26642	9840.7
1856.41926	9833.2
1859.57004	9832.3
1862.71876	9821.2
1865.86542	9814.5
1869.01003	9809.2
1872.15258	9797.4
1875.29308	9802.3
1878.43152	9816.1
1881.56792	9806.6
1884.70227	9812.8
1887.83457	9796.6
1890.96482	9774.9
1894.09304	9756.8
1897.21921	9749.6
1900.34335	9768.4
1903.46544	9765.2
1906.58551	9738.9
1909.70353	9720.8
1912.81953	9733
1915.93349	9690
1919.04543	9655.4
1922.15534	9659.5
1925.26322	9595.6
1928.36908	9577.7
1931.47292	9520.4
1934.57473	9509
1937.67453	9462.4
1940.77232	9459.7
1943.86808	9405.7
1946.96184	9398.5
1950.05358	9354.8
1953.14331	9333.4
1956.23103	9305.2
1959.31675	9281
1962.40046	9256.9
1965.48217	9248.3
1968.56188	9216.1
1971.63959	9174.4
1974.7153	9161.8
1977.78901	9143.6
1980.86073	9092.5
1983.93046	9077.1
1986.99819	9030.6
1990.06394	9044.5
1993.1277	8996.5
1996.18947	8950.7
1999.24925	8936.8
2002.30706	8903.5
2005.36288	8859.2
2008.41672	8849.7
2011.46859	8829.3
2014.51848	8796.7
2017.56639	8778.7
2020.61233	8749.2
2023.6563	8751.9
2026.6983	8707.5
2029.73833	8679.7
2032.7764	8665.1
2035.8125	8668.5
2038.84664	8659.7
2041.87881	8652.5
2044.90903	8630.9
2047.93729	8613.3
2050.96359	8620.4
2053.98794	8598.1
2057.01034	8584
2060.03078	8612.8
2063.04927	8607.2
2066.06582	8571.2
2069.08042	8544
2072.09307	8543.8
2075.10378	8536.9
2078.11255	8507.6
2081.11938	8508
2084.12426	8489
2087.12722	8478.6
2090.12824	8491.6
2093.12732	8508.9
2096.12447	8483.6
2099.11969	8500.8
2102.11299	8508.2
2105.10435	8507.5
2108.09379	8517.1
2111.08131	8510.5
2114.0669	8510.2
2117.05057	8512.8
2120.03233	8551
2123.01216	8568.1
2125.99008	8554.8
2128.96609	8555.4
2131.94018	8548.5
2134.91236	8553.6
2137.88263	8552.8
2140.851	8546.8
2143.81746	8560.9
2146.78201	8554.1
2149.74466	8548.9
2152.7054	8544.4
2155.66425	8547
2158.6212	8569.3
2161.57625	8528.4
2164.52941	8542.6
2167.48067	8512.9
2170.43004	8505.8
2173.37752	8537.1
2176.32311	8515.5
2179.26681	8542.1
2182.20863	8520.5
2185.14856	8517.8
2188.08661	8580.5
2191.02278	8560.6
2193.95707	8536.4
2196.88948	8522
2199.82001	8518.2
2202.74867	8524.7
2205.67545	8514.4
2208.60037	8502.8
2211.52341	8506.6
2214.44458	8502.1
2217.36388	8479.7
2220.28132	8491.2
2223.1969	8462.2
2226.11061	8424
2229.02246	8409.1
2231.93245	8405
2234.84058	8389.5
2237.74686	8373.6
2240.65128	8363.7
2243.55385	8355.5
2246.45456	8357.9
2249.35343	8349.7
2252.25044	8327.8
2255.14561	8314.6
2258.03893	8334.3
2260.93041	8307.6
2263.82004	8293
2266.70783	8282.8
2269.59378	8253.8
2272.4779	8219.5
2275.36017	8211.8
2278.24061	8173.9
2281.11922	8156
2283.996	8173.8
2286.87094	8145.4
2289.74405	8140.6
2292.61534	8135.9
2295.4848	8121.1
2298.35243	8125.1
2301.21824	8138.2
2304.08223	8142.6
2306.94439	8131.8
2309.80474	8125
2312.66327	8133.9
2315.51999	8163.7
2318.37489	8155.2
2321.22797	8132.5
2324.07925	8118.3
2326.92871	8137.9
2329.77637	8121.4
2332.62222	8114.9
2335.46626	8107.1
2338.3085	8106.4
2341.14893	8131
2343.98756	8113.9
2346.8244	8139
2349.65943	8149.3
2352.49267	8155.4
2355.32411	8155.1
2358.15376	8150.3
2360.98161	8139.2
2363.80768	8155.4
2366.63195	8119.4
2369.45444	8127.6
2372.27514	8107.1
2375.09405	8109.7
2377.91118	8078.9
2380.72652	8072.1
2383.54009	8035
2386.35187	7995.6
2389.16188	7961.3
2391.97011	7957.5
2394.77657	7947.8
2397.58125	7938.6
2400.38416	7928.7
2403.18529	7926.2
2405.98466	7882.5
2408.78226	7870.4
2411.57809	7849.5
2414.37216	7862.5
2417.16446	7826.2
2419.955	7839.1
2422.74378	7804.9
2425.5308	7804.9
2428.31606	7824.9
2431.09956	7800.4
2433.88131	7792.7
2436.6613	7811.6
2439.43954	7819.8
2442.21603	7808.2
2444.99077	7819.5
2447.76377	7843.4
2450.53501	7836.2
2453.30451	7847.3
2456.07226	7814.5
2458.83827	7817.6
2461.60254	7834.5
2464.36507	7836.2
2467.12586	7829.8
2469.88492	7837.7
2472.64224	7827.2
2475.39782	7835
2478.15167	7838.7
2480.90379	7869.3
2483.65417	7860.5
2486.40283	7859.4
2489.14976	7915.9
2491.89497	7897.9
2494.63845	7891.2
2497.3802	7869
2500.12024	7888.5
2502.85855	7881.5
2505.59514	7864.1
2508.33002	7857.7
2511.06318	7838.3
2513.79462	7805.3
2516.52435	7813.7
2519.25237	7770.1
2521.97867	7768.2
2524.70327	7785.3
2527.42616	7757.6
2530.14734	7750.9
2532.86681	7759.2
2535.58458	7775.6
2538.30065	7757.3
2541.01501	7757.5
2543.72768	7761.9
2546.43864	7743.7
2549.14791	7740.8
2551.85548	7743.2
2554.56136	7724.7
2557.26554	7732
2559.96803	7741.3
2562.66883	7732.4
2565.36794	7707.6
2568.06536	7711.1
2570.7611	7708.5
2573.45514	7699.3
2576.14751	7704
2578.83819	7695.7
2581.52719	7697.3
2584.21451	7707.3
2586.90015	7683.7
2589.58411	7665.1
2592.2664	7678.2
2594.94701	7659.3
2597.62594	7674.6
2600.30321	7662.6
2602.9788	7683.5
2605.65273	7668.8
2608.32498	7681.8
2610.99557	7662.9
2613.66449	7677.7
2616.33175	7680.3
2618.99734	7682
2621.66128	7697.3
2624.32355	7673.7
2626.98416	7711.2
2629.64311	7684.3
2632.30041	7667.1
2634.95605	7676.2
2637.61004	7645.3
2640.26238	7645.4
2642.91306	7652.2
2645.56209	7620.9
2648.20948	7621.6
2650.85521	7608.9
2653.4993	7633.5
2656.14175	7631.7
2658.78255	7608.6
2661.42171	7622.3
2664.05923	7653
2666.6951	7664.4
2669.32934	7682.9
2671.96194	7682.4
2674.59291	7693.1
2677.22224	7677.9
2679.84993	7675.5
2682.476	7657.5
2685.10043	7649.9
2687.72324	7613
2690.34441	7639.2
2692.96396	7627.7
2695.58188	7622.2
2698.19818	7578.3
2700.81285	7597.7
2703.4259	7583.3
2706.03733	7526.3
2708.64714	7561.3
2711.25533	7600.1
2713.86191	7595.7
2716.46687	7619.6
2719.07021	7633.2
2721.67194	7647.4
2724.27206	7662.1
2726.87057	7667.5
2729.46747	7668
2732.06276	7663.5
2734.65644	7661.4
2737.24852	7634.3
2739.83899	7638.8
2742.42786	7646.4
2745.01513	7644.7
2747.60079	7632.9
2750.18486	7626.3
2752.76733	7638.4
2755.3482	7632.7
2757.92747	7607.4
2760.50515	7615.1
2763.08123	7606.9
2765.65573	7599.4
2768.22863	7596.6
2770.79994	7611.2
2773.36967	7575
2775.9378	7590.4
2778.50435	7577.6
2781.06932	7590.7
2783.6327	7612.1
2786.1945	7610.1
2788.75471	7597.7
2791.31335	7574.7
2793.87041	7572.9
2796.42589	7555.8
2798.97979	7556.7
2801.53212	7545.5
2804.08288	7550.5
2806.63206	7532.7
2809.17967	7513.1
2811.72571	7518
2814.27018	7508.6
2816.81308	7495.2
2819.35442	7525.8
2821.89419	7485.2
2824.43239	7514.7
2826.96904	7503.2
2829.50412	7517
2832.03763	7490.8
2834.56959	7510.1
2837.1	7491.7
2839.62884	7495.6
2842.15613	7465
2844.68186	7487.6
2847.20604	7484.4
2849.72867	7480.3
2852.24974	7491.6
2854.76927	7485.4
2857.28724	7454.6
2859.80367	7458.4
2862.31855	7487.1
2864.83189	7469.5
2867.34368	7476.7
2869.85393	7512.1
2872.36264	7486.5
2874.8698	7507.4
2877.37543	7498.8
2879.87952	7504.2
2882.38207	7503.8
2884.88308	7501
2887.38256	7495.9
2889.88051	7513.9
2892.37692	7511.8
2894.8718	7502.7
2897.36515	7543.9
2899.85698	7562.3
2902.34727	7554
2904.83604	7572.8
2907.32328	7594.4
2909.809	7598.3
2912.29319	7613.5
2914.77587	7633.4
2917.25702	7611.6
2919.73665	7612.6
2922.21476	7607.9
2924.69136	7576.4
2927.16644	7595.4
2929.64	7558.7
2932.11205	7539.5
2934.58258	7520
2937.05161	7511.9
2939.51912	7518.8
2941.98513	7504.4
2944.44962	7493.9
2946.91261	7470.6
2949.37409	7508
2951.83407	7482.9
2954.29254	7469
2956.74951	7444.5
2959.20498	7470.3
2961.65895	7441
2964.11142	7431.7
2966.56239	7406.5
2969.01186	7395
2971.45984	7359.5
2973.90632	7347.1
2976.35131	7317.4
2978.7948	7303.2
2981.23681	7298.2
2983.67732	7292.4
2986.11635	7263.5
2988.55388	7237
2990.98993	7236.7
2993.4245	7227.7
2995.85758	7205.9
2998.28917	7182.2
3000.71928	7206
3003.14791	7181.8
3005.57506	7193.5
3008.00073	7151.3
3010.42493	7149.5
3012.84764	7135.2
3015.26888	7117.6
3017.68865	7111.3
3020.10694	7108.9
3022.52376	7091.6
3024.9391	7061.9
3027.35298	7060.1
3029.76539	7052
3032.17632	7051.4
3034.5858	7039
3036.9938	7038.9
3039.40034	7016.7
3041.80542	7019.6
3044.20903	7009.2
3046.61118	7004.2
3049.01187	7017.2
3051.4111	6994.1
3053.80888	6988.8
3056.20519	6967.4
3058.60005	6949.8
3060.99345	6940.1
3063.3854	6935
3065.7759	6923.8
3068.16494	6913.2
3070.55254	6873.1
3072.93868	6850.2
3075.32338	6844.1
3077.70662	6833.6
3080.08842	6785.7
3082.46878	6798.5
3084.84769	6782.4
3087.22515	6790.1
3089.60118	6802.4
3091.97576	6800.5
3094.3489	6788.4
3096.72061	6783.9
3099.09087	6777.6
3101.4597	6777.2
3103.82709	6793.8
3106.19305	6779.1
3108.55757	6767.3
3110.92066	6758.1
3113.28232	6754.8
3115.64255	6740.8
3118.00134	6735
3120.35871	6738.5
3122.71466	6742
3125.06917	6688.2
3127.42226	6709.7
3129.77393	6711.4
3132.12417	6716.6
3134.47299	6698.7
3136.82039	6692.6
3139.16636	6692.3
3141.51092	6707
3143.85406	6703
3146.19579	6699
3148.53609	6690.3
3150.87499	6714
3153.21246	6704.4
3155.54853	6729.8
3157.88318	6726.9
3160.21642	6730.7
3162.54826	6727.5
3164.87868	6749.4
3167.2077	6728.8
3169.5353	6756.2
3171.86151	6769.4
3174.18631	6761.8
3176.5097	6754.8
3178.83169	6722.1
3181.15228	6730.8
3183.47147	6734.4
3185.78926	6733.7
3188.10565	6741.5
3190.42065	6737
3192.73424	6726.7
3195.04645	6750.7
3197.35725	6729.5
3199.66667	6724.4
3201.97469	6740.1
3204.28132	6742.9
3206.58656	6751
3208.8904	6753.6
3211.19287	6747.7
3213.49394	6758.8
3215.79363	6779.8
3218.09193	6778.4
3220.38884	6767.3
3222.68438	6752.4
3224.97853	6764.9
3227.2713	6764.1
3229.56269	6776.3
3231.8527	6764.4
3234.14133	6749.3
3236.42858	6766.5
3238.71446	6754.1
3240.99896	6723.8
3243.28209	6715.5
3245.56384	6707.2
3247.84423	6726.2
3250.12324	6729.5
3252.40088	6739.1
3254.67715	6727.8
3256.95205	6714.9
3259.22558	6707.7
3261.49775	6689
3263.76855	6707.8
3266.03799	6667.7
3268.30606	6689.3
3270.57277	6681.4
3272.83812	6702
3275.10211	6651.1
3277.36474	6644.6
3279.62601	6650.8
3281.88593	6646.4
3284.14448	6652.9
3286.40168	6666.8
3288.65753	6661.1
3290.91202	6663.9
3293.16516	6656.5
3295.41695	6640.9
3297.66738	6587.7
3299.91647	6563.6
3302.16421	6521.1
3304.4106	6517.9
3306.65564	6491.5
3308.89933	6429
3311.14169	6374.2
3313.38269	6330.1
3315.62236	6293.1
3317.86068	6233.9
3320.09766	6193.9
3322.3333	6151.7
3324.5676	6131.4
3326.80056	6004.7
3329.03219	5988.5
3331.26248	3.8
3333.49143	-0.7
3335.71905	0.3
