Data from AgNPs_FTO_APTES_UA_50uM_CRN_100uM_R6G_10uM_NaF_0.1M_Addition_RamanShift__7__15-24-05-022.txt Node

Date: Mon Feb 21 15:24:05 GMT 2022
User: TCL
Spectrometer: QEP01345
Trigger mode: 4
Integration Time (sec): 7.000000E0
Scans to average: 10
Electric dark correction enabled: true
Nonlinearity correction enabled: false
Boxcar width: 0
XAxis mode: Raman Shifts
Number of Pixels in Spectrum: 1044
>>>>>Begin Spectral Data<<<<<
46.04893	-0.4
50.45542	-0.3
54.85868	0.4
59.25871	-2.1
63.6555	53.7
68.04907	61.1
72.43941	62.2
76.82654	62.7
81.21044	67.7
85.59113	71.1
89.96862	72.7
94.34289	77.3
98.71396	76.4
103.08183	83.4
107.4465	84.1
111.80798	85.8
116.16626	83.2
120.52136	82.5
124.87327	91.4
129.222	92.3
133.56755	95.2
137.90993	100.2
142.24913	108.5
146.58517	116.5
150.91804	135.5
155.24774	156.9
159.57429	188.2
163.89768	236.7
168.21792	311
172.53501	417.5
176.84895	580.9
181.15975	822.7
185.46741	1137.3
189.77193	1564.4
194.07331	2096.1
198.37157	2696.4
202.6667	3337.1
206.9587	3961
211.24758	4598.1
215.53334	5197
219.81599	5849.6
224.09553	6573.3
228.37195	7394.2
232.64527	8279.7
236.91549	9225.2
241.18261	10138.9
245.44663	10989.9
249.70755	11758
253.96539	12415.4
258.22014	12946.7
262.4718	13371.7
266.72039	13672.2
270.96589	13847.7
275.20832	13855.5
279.44768	13720.4
283.68397	13567.4
287.91719	13429
292.14735	13327.6
296.37445	13309.9
300.59849	13385.4
304.81948	13448.2
309.03742	13459.7
313.25231	13405
317.46415	13222.9
321.67296	12969.9
325.87872	12716
330.08145	12658.7
334.28114	12653.7
338.47781	12755.7
342.67145	12907.9
346.86207	13123.8
351.04966	13373.8
355.23424	13660.1
359.4158	13908.2
363.59435	14056.9
367.76989	14159.7
371.94243	14253.9
376.11196	14310
380.27849	14355.8
384.44203	14443.8
388.60257	14554.1
392.76012	14647.3
396.91468	14782.9
401.06626	14966.8
405.21485	15110.6
409.36047	15031
413.50311	14768.9
417.64277	14611.6
421.77947	14516.6
425.9132	14542.8
430.04396	14590.3
434.17176	14652.9
438.2966	14797.6
442.41849	15028.4
446.53742	15352.3
450.6534	15720.2
454.76644	15937
458.87653	15997
462.98368	15962.8
467.08789	15838
471.18916	15666.4
475.2875	15453.3
479.38291	15240.6
483.4754	15077.5
487.56496	14925.3
491.6516	14835.4
495.73531	14782.1
499.81612	14776.4
503.89401	14898.5
507.96899	14937.8
512.04106	14968.2
516.11023	14957.3
520.1765	14919.1
524.23987	14851.8
528.30034	14789.4
532.35792	14739.5
536.41261	14624.6
540.46441	14495.7
544.51333	14427.2
548.55936	14515.9
552.60252	14706.6
556.64279	14985.9
560.6802	15192.4
564.71473	15215.6
568.7464	15324.9
572.7752	15575.8
576.80114	15799.3
580.82422	16078.9
584.84444	16497
588.86181	17014.8
592.87633	17637.7
596.888	17806.6
600.89682	17476
604.9028	17509.3
608.90594	18690.1
612.90624	20158.9
616.90371	19138.5
620.89834	16350.2
624.89015	15105.8
628.87913	14932.6
632.86528	15051.9
636.84862	15183.3
640.82913	15030.4
644.80683	14733.6
648.78172	14510
652.75379	14518.9
656.72306	14624.9
660.68952	14885.5
664.65319	14777.6
668.61405	14589.4
672.57211	14546.2
676.52738	14653.1
680.47986	14697.7
684.42955	14575.4
688.37646	14468.2
692.32058	14476.4
696.26192	14600.4
700.20048	14714
704.13626	14800.2
708.06928	14816.3
711.99952	14723.2
715.927	14692.9
719.85171	14746.7
723.77365	14750
727.69284	14621.9
731.60928	14490.7
735.52295	14471.2
739.43388	14501.5
743.34206	14532.7
747.24749	14567.9
751.15017	14658.2
755.05012	14814.1
758.94733	15139.7
762.8418	15748.5
766.73354	16821.8
770.62254	17892.7
774.50882	18286.4
778.39237	17640.5
782.27321	16560.2
786.15132	15603.9
790.02671	15006.9
793.89938	14659.6
797.76935	14514
801.6366	14430.7
805.50115	14399.6
809.36299	14335.8
813.22213	14215.4
817.07857	14200.4
820.93231	14160.4
824.78336	14100.8
828.63172	14085.2
832.47738	14053.7
836.32036	14104.4
840.16066	14112.7
843.99827	14069.8
847.8332	14072.3
851.66546	14076.2
855.49504	14082.3
859.32195	14106.5
863.1462	14086.6
866.96777	14068.8
870.78668	14064.7
874.60293	14100.8
878.41652	14151.7
882.22745	14192.8
886.03573	14257.7
889.84136	14247.6
893.64433	14194.5
897.44466	14144.4
901.24235	14129.7
905.0374	14053.8
908.8298	13993.6
912.61957	13980.2
916.40671	14053.4
920.19121	14170.6
923.97308	14300.9
927.75233	14342.2
931.52895	14285.7
935.30295	14154.6
939.07433	13941.9
942.84309	13775.8
946.60924	13690.2
950.37278	13633.4
954.13371	13658.4
957.89203	13603
961.64774	13594.8
965.40086	13602.3
969.15137	13574.5
972.89929	13585.8
976.64461	13519.8
980.38733	13518.5
984.12747	13540.1
987.86502	13619.3
991.59999	13708.6
995.33237	13819.9
999.06217	14017.3
1002.78939	14229.4
1006.51404	14456.3
1010.23611	14659.7
1013.95561	14808.6
1017.67255	14853.3
1021.38692	14760.4
1025.09872	14586.4
1028.80796	14463.8
1032.51465	14404
1036.21877	14505.7
1039.92035	14541.6
1043.61937	14549.3
1047.31584	14534
1051.00976	14505
1054.70114	14484.7
1058.38998	14513.1
1062.07627	14588.8
1065.76003	14726.9
1069.44126	14849.2
1073.11995	15023.4
1076.79611	15232
1080.46974	15370.3
1084.14085	15480.9
1087.80943	15590.8
1091.47549	15700.6
1095.13903	15683.5
1098.80005	15512.4
1102.45857	15230
1106.11456	15024.1
1109.76805	14949.5
1113.41903	14983.2
1117.06751	15077.9
1120.71348	15268.1
1124.35696	15460.8
1127.99793	15647.7
1131.63641	15777.2
1135.2724	15681.5
1138.90589	15561
1142.5369	15499
1146.16542	15452
1149.79145	15483.3
1153.415	15495.6
1157.03607	15613.6
1160.65467	15895.7
1164.27079	16349.4
1167.88443	17005.9
1171.49561	17774.6
1175.10432	18822.6
1178.71056	20126.1
1182.31434	21385.3
1185.91565	22049.2
1189.51451	21988.7
1193.11091	21549.2
1196.70485	20841.8
1200.29634	20056.3
1203.88538	19415.1
1207.47197	18827.3
1211.05612	18318.4
1214.63782	17897.8
1218.21708	17595.3
1221.79391	17423.7
1225.36829	17374.2
1228.94024	17313.5
1232.50976	17194.4
1236.07685	17013.6
1239.6415	16882.3
1243.20374	16853.2
1246.76355	16926.7
1250.32093	17043
1253.8759	17265.6
1257.42845	17638.2
1260.97859	18036.8
1264.52631	18476.2
1268.07163	18906.3
1271.61453	19292
1275.15503	19659.3
1278.69312	20031.9
1282.22882	20404.8
1285.76211	20901.7
1289.29301	21513.2
1292.82151	22214.5
1296.34761	23118
1299.87133	24143.2
1303.39266	25277.4
1306.9116	26469.2
1310.42815	27545.2
1313.94233	28113.7
1317.45412	27976.6
1320.96354	27224.9
1324.47058	26450.9
1327.97525	25732.7
1331.47754	25271.9
1334.97747	25016.8
1338.47502	24915.3
1341.97022	25030.1
1345.46305	25184.7
1348.95352	25515.9
1352.44163	25992
1355.92738	26880
1359.41078	28213.7
1362.89183	29330.4
1366.37053	28922.9
1369.84688	26692.2
1373.32088	23824
1376.79254	21841.5
1380.26186	20948.8
1383.72883	20602
1387.19347	20315.9
1390.65578	19964
1394.11575	19775.8
1397.57339	19769.3
1401.0287	19857.2
1404.48168	19949
1407.93234	19931.5
1411.38068	19750.6
1414.82669	19472
1418.27039	19063.5
1421.71177	18662.5
1425.15083	18260.5
1428.58758	18065.7
1432.02203	18163.5
1435.45416	18403.2
1438.88399	18734.1
1442.31151	18875
1445.73673	19013.4
1449.15965	19062.3
1452.58027	19112.5
1455.9986	19054.7
1459.41463	19139
1462.82837	19425.1
1466.23982	19772.1
1469.64898	20125.8
1473.05586	20409.9
1476.46045	20620.6
1479.86276	20688.7
1483.26279	20668.1
1486.66054	20724.3
1490.05602	20948.6
1493.44922	21316.9
1496.84016	21819.2
1500.22882	22572.5
1503.61521	23508.7
1506.99934	24542.2
1510.38121	25226.4
1513.76081	25194.6
1517.13816	24398.3
1520.51324	23252.9
1523.88607	22249.7
1527.25665	21730.1
1530.62498	21428.6
1533.99105	21162.5
1537.35488	20854.7
1540.71647	20507
1544.07581	20130.6
1547.4329	19685.9
1550.78776	19363.2
1554.14038	19160.3
1557.49077	19102.2
1560.83892	19129
1564.18484	19223.8
1567.52853	19383
1570.86999	19573.9
1574.20922	19790.5
1577.54624	19964.1
1580.88103	19745
1584.2136	19456.8
1587.54395	19568.4
1590.87208	20115.2
1594.19801	20991.1
1597.52172	21974.1
1600.84321	22403.6
1604.16251	21845.6
1607.47959	20707.5
1610.79447	19399.7
1614.10715	18134.8
1617.41763	17065
1620.7259	16303.1
1624.03199	15890.6
1627.33587	15844.4
1630.63757	16103.7
1633.93707	16809
1637.23439	18031.8
1640.52951	19896.7
1643.82246	22164.6
1647.11321	24098.7
1650.40179	24560.6
1653.68819	23137.9
1656.97241	20530.3
1660.25446	17956.1
1663.53433	16126.1
1666.81203	14957.7
1670.08756	14256.3
1673.36092	13878
1676.63211	13570.8
1679.90115	13379.8
1683.16801	13200.8
1686.43272	13111.9
1689.69527	12966
1692.95567	12835.3
1696.2139	12699.4
1699.46999	12533
1702.72392	12489.6
1705.97571	12522.7
1709.22535	12585.6
1712.47284	12644.7
1715.71819	12680.9
1718.96139	12643.5
1722.20246	12599.8
1725.44139	12589
1728.67818	12518.8
1731.91284	12454.9
1735.14537	12376.3
1738.37576	12342.2
1741.60403	12307
1744.83017	12244.2
1748.05418	12222.3
1751.27607	12177.3
1754.49584	12102
1757.71349	12075.3
1760.92903	12016.3
1764.14244	12030.1
1767.35375	12005.2
1770.56294	11962.6
1773.77002	11966.8
1776.97499	11971.5
1780.17785	11977.6
1783.37861	12015.1
1786.57727	12012.2
1789.77382	11998.4
1792.96828	11991.5
1796.16064	11952.3
1799.3509	11937.7
1802.53907	11911.3
1805.72514	11910
1808.90913	11852.5
1812.09102	11853.6
1815.27083	11828.9
1818.44856	11817.3
1821.6242	11800.7
1824.79776	11787.7
1827.96924	11804.7
1831.13864	11771.5
1834.30597	11747.4
1837.47122	11763.2
1840.6344	11763.8
1843.7955	11738.6
1846.95454	11742.8
1850.11151	11731.8
1853.26642	11700.6
1856.41926	11688.5
1859.57004	11701.3
1862.71876	11670.3
1865.86542	11660.8
1869.01003	11671.1
1872.15258	11642.9
1875.29308	11626.3
1878.43152	11618.8
1881.56792	11597.5
1884.70227	11582.2
1887.83457	11576.7
1890.96482	11568.6
1894.09304	11540
1897.21921	11538.2
1900.34335	11516.3
1903.46544	11508.7
1906.58551	11497.1
1909.70353	11463.5
1912.81953	11460.3
1915.93349	11458.8
1919.04543	11406.3
1922.15534	11412.3
1925.26322	11386.2
1928.36908	11368
1931.47292	11340.2
1934.57473	11315.6
1937.67453	11310.3
1940.77232	11280.5
1943.86808	11239.7
1946.96184	11231.7
1950.05358	11165.4
1953.14331	11166.3
1956.23103	11126.5
1959.31675	11083.6
1962.40046	11084.1
1965.48217	11064.7
1968.56188	11035.9
1971.63959	10999
1974.7153	10968.8
1977.78901	10915
1980.86073	10880
1983.93046	10843.7
1986.99819	10810.9
1990.06394	10787
1993.1277	10736.6
1996.18947	10716.4
1999.24925	10714.3
2002.30706	10664.3
2005.36288	10635.5
2008.41672	10598.8
2011.46859	10563.9
2014.51848	10542.7
2017.56639	10522.9
2020.61233	10483.9
2023.6563	10474.7
2026.6983	10446.3
2029.73833	10406.3
2032.7764	10367.6
2035.8125	10362.8
2038.84664	10374.7
2041.87881	10361.6
2044.90903	10319.2
2047.93729	10294.4
2050.96359	10308.6
2053.98794	10290.6
2057.01034	10288.1
2060.03078	10315.7
2063.04927	10274.4
2066.06582	10245.4
2069.08042	10227.4
2072.09307	10236.5
2075.10378	10235
2078.11255	10229.4
2081.11938	10232.8
2084.12426	10232.1
2087.12722	10229.2
2090.12824	10220.2
2093.12732	10218.6
2096.12447	10215.1
2099.11969	10207.9
2102.11299	10234.6
2105.10435	10218.9
2108.09379	10242.1
2111.08131	10236.6
2114.0669	10229.4
2117.05057	10215.5
2120.03233	10250.4
2123.01216	10271.8
2125.99008	10284.2
2128.96609	10283.6
2131.94018	10291.1
2134.91236	10313.8
2137.88263	10303.9
2140.851	10332.7
2143.81746	10340.3
2146.78201	10330.3
2149.74466	10323.8
2152.7054	10322.9
2155.66425	10303.4
2158.6212	10313.5
2161.57625	10316.4
2164.52941	10329.1
2167.48067	10304.4
2170.43004	10273.2
2173.37752	10291.8
2176.32311	10326
2179.26681	10309.8
2182.20863	10282.2
2185.14856	10304.1
2188.08661	10297.9
2191.02278	10310.2
2193.95707	10273.9
2196.88948	10273.2
2199.82001	10291.2
2202.74867	10286.7
2205.67545	10256.9
2208.60037	10250
2211.52341	10212.3
2214.44458	10226.3
2217.36388	10194.3
2220.28132	10156.9
2223.1969	10173.8
2226.11061	10157.5
2229.02246	10126.2
2231.93245	10115.3
2234.84058	10130.8
2237.74686	10080.4
2240.65128	10081
2243.55385	10063.7
2246.45456	10050.4
2249.35343	10026.1
2252.25044	10016.4
2255.14561	10014.6
2258.03893	10004.9
2260.93041	9974.7
2263.82004	9959.4
2266.70783	9970.4
2269.59378	9920.6
2272.4779	9916.6
2275.36017	9878.7
2278.24061	9854.1
2281.11922	9821.6
2283.996	9822.4
2286.87094	9806.8
2289.74405	9819.6
2292.61534	9766.4
2295.4848	9771.1
2298.35243	9771.1
2301.21824	9792.9
2304.08223	9776.5
2306.94439	9769.1
2309.80474	9769.4
2312.66327	9773.9
2315.51999	9762.2
2318.37489	9733.4
2321.22797	9719.6
2324.07925	9711.1
2326.92871	9678.4
2329.77637	9713.3
2332.62222	9686.1
2335.46626	9683.8
2338.3085	9643.3
2341.14893	9645.5
2343.98756	9645.8
2346.8244	9630.4
2349.65943	9620.7
2352.49267	9619.1
2355.32411	9635.4
2358.15376	9633.7
2360.98161	9637.5
2363.80768	9628.2
2366.63195	9617.3
2369.45444	9579.7
2372.27514	9603.5
2375.09405	9597.2
2377.91118	9598.7
2380.72652	9558.9
2383.54009	9539.6
2386.35187	9507.5
2389.16188	9470.5
2391.97011	9472.5
2394.77657	9441.9
2397.58125	9458.7
2400.38416	9451.9
2403.18529	9397.2
2405.98466	9410
2408.78226	9385.5
2411.57809	9386.5
2414.37216	9369
2417.16446	9363.5
2419.955	9348.5
2422.74378	9333.4
2425.5308	9352.4
2428.31606	9344.9
2431.09956	9339.3
2433.88131	9319.3
2436.6613	9310.6
2439.43954	9343
2442.21603	9320
2444.99077	9323.7
2447.76377	9342.4
2450.53501	9332
2453.30451	9320.6
2456.07226	9297.3
2458.83827	9285.5
2461.60254	9296.7
2464.36507	9299.5
2467.12586	9291.3
2469.88492	9310.9
2472.64224	9284.2
2475.39782	9250.6
2478.15167	9242.3
2480.90379	9285.3
2483.65417	9281.1
2486.40283	9268.7
2489.14976	9284.1
2491.89497	9268.5
2494.63845	9247.2
2497.3802	9237.4
2500.12024	9249.1
2502.85855	9254.6
2505.59514	9242.8
2508.33002	9220.2
2511.06318	9189.5
2513.79462	9192
2516.52435	9182.5
2519.25237	9162.6
2521.97867	9157.1
2524.70327	9151.9
2527.42616	9162
2530.14734	9152.4
2532.86681	9138.3
2535.58458	9150.6
2538.30065	9144.2
2541.01501	9151.1
2543.72768	9088.6
2546.43864	9115.3
2549.14791	9095.1
2551.85548	9069
2554.56136	9055.4
2557.26554	9075.7
2559.96803	9046.5
2562.66883	9039.7
2565.36794	9027.4
2568.06536	9024.6
2570.7611	8996.6
2573.45514	8986.9
2576.14751	9008.5
2578.83819	8975.7
2581.52719	8940.3
2584.21451	8953.6
2586.90015	8940.9
2589.58411	8920.4
2592.2664	8909.7
2594.94701	8888.9
2597.62594	8917.3
2600.30321	8881.4
2602.9788	8912.3
2605.65273	8886.7
2608.32498	8886.5
2610.99557	8889.7
2613.66449	8872.4
2616.33175	8865.2
2618.99734	8868.7
2621.66128	8869.7
2624.32355	8861.4
2626.98416	8840.6
2629.64311	8827.1
2632.30041	8801.6
2634.95605	8783.9
2637.61004	8763.2
2640.26238	8760
2642.91306	8769.2
2645.56209	8764.3
2648.20948	8754.4
2650.85521	8776
2653.4993	8774.4
2656.14175	8758.4
2658.78255	8763.1
2661.42171	8741.9
2664.05923	8796
2666.6951	8793.7
2669.32934	8816.2
2671.96194	8803.3
2674.59291	8790.3
2677.22224	8790.4
2679.84993	8764.2
2682.476	8771.2
2685.10043	8763.7
2687.72324	8760.6
2690.34441	8788.5
2692.96396	8780.4
2695.58188	8775.1
2698.19818	8754
2700.81285	8762.8
2703.4259	8757.9
2706.03733	8690.7
2708.64714	8724.8
2711.25533	8743
2713.86191	8765.7
2716.46687	8777.2
2719.07021	8767.5
2721.67194	8803.6
2724.27206	8788.1
2726.87057	8806.5
2729.46747	8823.6
2732.06276	8812.6
2734.65644	8805.8
2737.24852	8804.3
2739.83899	8773.4
2742.42786	8787.1
2745.01513	8767.4
2747.60079	8765.4
2750.18486	8764.2
2752.76733	8768.2
2755.3482	8719.3
2757.92747	8748.5
2760.50515	8726.2
2763.08123	8732.6
2765.65573	8704.6
2768.22863	8702.4
2770.79994	8670.9
2773.36967	8678.8
2775.9378	8648.9
2778.50435	8669.2
2781.06932	8648.4
2783.6327	8674.8
2786.1945	8670.6
2788.75471	8668.8
2791.31335	8638.7
2793.87041	8641.9
2796.42589	8589.5
2798.97979	8604.6
2801.53212	8581.6
2804.08288	8587.2
2806.63206	8556.1
2809.17967	8542.8
2811.72571	8513.8
2814.27018	8510.8
2816.81308	8473.8
2819.35442	8517.1
2821.89419	8494.5
2824.43239	8495.1
2826.96904	8493.7
2829.50412	8464.5
2832.03763	8421.6
2834.56959	8454.3
2837.1	8466.2
2839.62884	8459.4
2842.15613	8452.4
2844.68186	8463.7
2847.20604	8457.5
2849.72867	8459.4
2852.24974	8433.3
2854.76927	8427.3
2857.28724	8403.3
2859.80367	8432.7
2862.31855	8406.9
2864.83189	8392.1
2867.34368	8369
2869.85393	8405.4
2872.36264	8404.8
2874.8698	8382.6
2877.37543	8369.8
2879.87952	8367.2
2882.38207	8371.2
2884.88308	8370.9
2887.38256	8389.1
2889.88051	8373.4
2892.37692	8386.6
2894.8718	8377.6
2897.36515	8391.4
2899.85698	8396.8
2902.34727	8423.2
2904.83604	8398.6
2907.32328	8422.4
2909.809	8408.3
2912.29319	8437.4
2914.77587	8441.8
2917.25702	8419.7
2919.73665	8428.3
2922.21476	8418.4
2924.69136	8430.6
2927.16644	8424.5
2929.64	8423.1
2932.11205	8407.5
2934.58258	8381.3
2937.05161	8393.9
2939.51912	8392.8
2941.98513	8393.6
2944.44962	8361.5
2946.91261	8353.3
2949.37409	8361.2
2951.83407	8359.6
2954.29254	8324.8
2956.74951	8326.7
2959.20498	8295.6
2961.65895	8304.4
2964.11142	8291.7
2966.56239	8271.1
2969.01186	8287.3
2971.45984	8262.6
2973.90632	8260.8
2976.35131	8217.4
2978.7948	8220.9
2981.23681	8215.1
2983.67732	8206.4
2986.11635	8182
2988.55388	8156.5
2990.98993	8144.9
2993.4245	8135.3
2995.85758	8116.9
2998.28917	8110
3000.71928	8080.8
3003.14791	8058.4
3005.57506	8078.6
3008.00073	8050.2
3010.42493	8035.2
3012.84764	8042.6
3015.26888	8041.5
3017.68865	8029.1
3020.10694	8011.6
3022.52376	8008.5
3024.9391	7968.7
3027.35298	7952
3029.76539	7946.3
3032.17632	7955
3034.5858	7952.1
3036.9938	7925.2
3039.40034	7919.3
3041.80542	7913
3044.20903	7903.3
3046.61118	7911.4
3049.01187	7895
3051.4111	7893.4
3053.80888	7849.9
3056.20519	7861
3058.60005	7842.5
3060.99345	7840.2
3063.3854	7840.1
3065.7759	7796.7
3068.16494	7787.2
3070.55254	7764.6
3072.93868	7750.4
3075.32338	7720.3
3077.70662	7728.3
3080.08842	7704
3082.46878	7703.6
3084.84769	7689.8
3087.22515	7681.3
3089.60118	7678
3091.97576	7687.5
3094.3489	7695.4
3096.72061	7682.7
3099.09087	7691.4
3101.4597	7675
3103.82709	7682.7
3106.19305	7675.7
3108.55757	7687.4
3110.92066	7669.5
3113.28232	7647.3
3115.64255	7628.3
3118.00134	7623.7
3120.35871	7606.5
3122.71466	7604.5
3125.06917	7594.9
3127.42226	7566.1
3129.77393	7587.8
3132.12417	7560.9
3134.47299	7570.4
3136.82039	7562.8
3139.16636	7578.1
3141.51092	7567.5
3143.85406	7580.9
3146.19579	7588.7
3148.53609	7564.4
3150.87499	7561.4
3153.21246	7594.2
3155.54853	7628
3157.88318	7599.4
3160.21642	7609.5
3162.54826	7618.3
3164.87868	7599.2
3167.2077	7597.6
3169.5353	7614.1
3171.86151	7613.9
3174.18631	7603.1
3176.5097	7596.6
3178.83169	7585.6
3181.15228	7613.2
3183.47147	7570.6
3185.78926	7578.9
3188.10565	7556.6
3190.42065	7581.8
3192.73424	7562.5
3195.04645	7584
3197.35725	7550
3199.66667	7536.9
3201.97469	7539.7
3204.28132	7548.2
3206.58656	7551.1
3208.8904	7544
3211.19287	7554.7
3213.49394	7566.1
3215.79363	7579.8
3218.09193	7580.4
3220.38884	7556.2
3222.68438	7541.4
3224.97853	7549.1
3227.2713	7551.8
3229.56269	7532.2
3231.8527	7539.7
3234.14133	7521.5
3236.42858	7520.4
3238.71446	7513.7
3240.99896	7503.5
3243.28209	7468.8
3245.56384	7457.8
3247.84423	7492.2
3250.12324	7488.1
3252.40088	7455.8
3254.67715	7475.8
3256.95205	7472.3
3259.22558	7467.8
3261.49775	7448.9
3263.76855	7467.7
3266.03799	7435.5
3268.30606	7437.1
3270.57277	7421.4
3272.83812	7420.8
3275.10211	7396.6
3277.36474	7376.7
3279.62601	7378.5
3281.88593	7358.1
3284.14448	7361.2
3286.40168	7380.3
3288.65753	7362.1
3290.91202	7373.2
3293.16516	7354.3
3295.41695	7324.5
3297.66738	7300.5
3299.91647	7248.4
3302.16421	7209.3
3304.4106	7188.8
3306.65564	7140.5
3308.89933	7092
3311.14169	7054.3
3313.38269	6975.4
3315.62236	6923.9
3317.86068	6884
3320.09766	6816
3322.3333	6779.2
3324.5676	6759.8
3326.80056	6615.3
3329.03219	6603.9
3331.26248	2.8
3333.49143	-0.3
3335.71905	-0.4
