Data from AgNPs_FTO_APTES_UA_50uM_CRN_200uM_R6G_10uM_NaF_0.1M_Addition_RamanShift__4__15-59-05-066.txt Node

Date: Mon Feb 21 15:59:05 GMT 2022
User: TCL
Spectrometer: QEP01345
Trigger mode: 4
Integration Time (sec): 7.000000E0
Scans to average: 10
Electric dark correction enabled: true
Nonlinearity correction enabled: false
Boxcar width: 0
XAxis mode: Raman Shifts
Number of Pixels in Spectrum: 1044
>>>>>Begin Spectral Data<<<<<
46.04893	1.5625
50.45542	-0.3375
54.85868	0.2625
59.25871	-1.9375
63.6555	49.1625
68.04907	53.3625
72.43941	53.2625
76.82654	58.1625
81.21044	62.0625
85.59113	66.6625
89.96862	63.4625
94.34289	67.5625
98.71396	71.9625
103.08183	77.0625
107.4465	77.3625
111.80798	75.1625
116.16626	75.6625
120.52136	79.9625
124.87327	84.3625
129.222	80.1625
133.56755	86.5625
137.90993	93.9625
142.24913	100.9625
146.58517	110.6625
150.91804	126.3625
155.24774	149.9625
159.57429	178.0625
163.89768	231.2625
168.21792	302.7625
172.53501	410.5625
176.84895	561.9625
181.15975	799.3625
185.46741	1107.3625
189.77193	1530.1625
194.07331	2056.5625
198.37157	2634.4625
202.6667	3259.7625
206.9587	3882.3625
211.24758	4482.5625
215.53334	5087.5625
219.81599	5741.6625
224.09553	6447.1625
228.37195	7252.2625
232.64527	8141.7625
236.91549	9044.6625
241.18261	9934.8625
245.44663	10794.4625
249.70755	11485.7625
253.96539	12079.9625
258.22014	12599.9625
262.4718	12975.9625
266.72039	13264.6625
270.96589	13435.8625
275.20832	13397.8625
279.44768	13290.4625
283.68397	13085.1625
287.91719	12921.2625
292.14735	12825.2625
296.37445	12860.0625
300.59849	12953.6625
304.81948	13092.5625
309.03742	13188.6625
313.25231	13159.1625
317.46415	12901.8625
321.67296	12585.3625
325.87872	12289.0625
330.08145	12170.7625
334.28114	12161.9625
338.47781	12264.2625
342.67145	12405.9625
346.86207	12659.9625
351.04966	12985.7625
355.23424	13275.0625
359.4158	13552.1625
363.59435	13775.6625
367.76989	13899.9625
371.94243	13940.4625
376.11196	14003.1625
380.27849	14058.7625
384.44203	14137.4625
388.60257	14171.1625
392.76012	14244.4625
396.91468	14391.4625
401.06626	14608.6625
405.21485	14742.5625
409.36047	14621.2625
413.50311	14324.1625
417.64277	14080.7625
421.77947	13951.3625
425.9132	13925.1625
430.04396	13910.5625
434.17176	14014.2625
438.2966	14161.5625
442.41849	14439.3625
446.53742	14816.1625
450.6534	15211.9625
454.76644	15457.2625
458.87653	15504.4625
462.98368	15373.3625
467.08789	15194.9625
471.18916	14971.4625
475.2875	14693.9625
479.38291	14460.8625
483.4754	14321.3625
487.56496	14157.6625
491.6516	14033.0625
495.73531	13987.8625
499.81612	13989.4625
503.89401	14164.5625
507.96899	14171.8625
512.04106	14249.5625
516.11023	14242.8625
520.1765	14270.5625
524.23987	14221.9625
528.30034	14174.1625
532.35792	14133.8625
536.41261	13953.5625
540.46441	13806.5625
544.51333	13718.6625
548.55936	13798.4625
552.60252	14007.3625
556.64279	14292.5625
560.6802	14460.3625
564.71473	14467.7625
568.7464	14585.9625
572.7752	14804.1625
576.80114	14897.0625
580.82422	15075.2625
584.84444	15393.4625
588.86181	15956.4625
592.87633	16576.8625
596.888	16804.6625
600.89682	16543.6625
604.9028	16796.7625
608.90594	18407.0625
612.90624	20453.7625
616.90371	19456.9625
620.89834	16110.0625
624.89015	14603.3625
628.87913	14365.9625
632.86528	14457.6625
636.84862	14521.9625
640.82913	14320.1625
644.80683	13969.0625
648.78172	13756.4625
652.75379	13712.2625
656.72306	13891.5625
660.68952	14167.9625
664.65319	14076.6625
668.61405	13816.2625
672.57211	13749.4625
676.52738	13819.7625
680.47986	13844.9625
684.42955	13734.8625
688.37646	13666.3625
692.32058	13643.2625
696.26192	13797.5625
700.20048	13918.3625
704.13626	13970.4625
708.06928	13923.7625
711.99952	13797.4625
715.927	13819.4625
719.85171	13885.9625
723.77365	13885.9625
727.69284	13791.9625
731.60928	13683.3625
735.52295	13671.9625
739.43388	13679.3625
743.34206	13694.9625
747.24749	13781.8625
751.15017	13828.7625
755.05012	13973.7625
758.94733	14311.9625
762.8418	15019.8625
766.73354	16183.9625
770.62254	17466.1625
774.50882	18007.8625
778.39237	17406.5625
782.27321	16124.7625
786.15132	14947.0625
790.02671	14252.0625
793.89938	13895.1625
797.76935	13752.8625
801.6366	13683.4625
805.50115	13627.7625
809.36299	13551.6625
813.22213	13469.6625
817.07857	13379.0625
820.93231	13366.5625
824.78336	13315.5625
828.63172	13337.5625
832.47738	13343.4625
836.32036	13396.4625
840.16066	13426.9625
843.99827	13496.4625
847.8332	13432.8625
851.66546	13359.3625
855.49504	13366.6625
859.32195	13393.3625
863.1462	13380.8625
866.96777	13354.7625
870.78668	13296.7625
874.60293	13359.7625
878.41652	13368.1625
882.22745	13415.0625
886.03573	13484.5625
889.84136	13489.9625
893.64433	13416.5625
897.44466	13354.3625
901.24235	13306.4625
905.0374	13249.7625
908.8298	13208.2625
912.61957	13195.3625
916.40671	13254.2625
920.19121	13378.5625
923.97308	13508.4625
927.75233	13637.2625
931.52895	13627.0625
935.30295	13499.5625
939.07433	13296.6625
942.84309	13101.3625
946.60924	13014.9625
950.37278	12938.8625
954.13371	12899.2625
957.89203	12851.4625
961.64774	12798.4625
965.40086	12797.9625
969.15137	12787.6625
972.89929	12728.6625
976.64461	12763.7625
980.38733	12762.0625
984.12747	12836.8625
987.86502	12932.6625
991.59999	13077.6625
995.33237	13281.6625
999.06217	13607.0625
1002.78939	13983.7625
1006.51404	14177.0625
1010.23611	14287.4625
1013.95561	14385.4625
1017.67255	14436.8625
1021.38692	14339.7625
1025.09872	14224.6625
1028.80796	14214.2625
1032.51465	14499.8625
1036.21877	14803.0625
1039.92035	14971.1625
1043.61937	14835.1625
1047.31584	14569.2625
1051.00976	14239.9625
1054.70114	14014.3625
1058.38998	13947.7625
1062.07627	13936.8625
1065.76003	13964.6625
1069.44126	14039.6625
1073.11995	14176.5625
1076.79611	14345.8625
1080.46974	14493.5625
1084.14085	14667.6625
1087.80943	14802.3625
1091.47549	14941.0625
1095.13903	14851.5625
1098.80005	14640.3625
1102.45857	14413.7625
1106.11456	14261.7625
1109.76805	14261.8625
1113.41903	14377.5625
1117.06751	14481.7625
1120.71348	14718.2625
1124.35696	14937.0625
1127.99793	15154.8625
1131.63641	15258.6625
1135.2724	15080.8625
1138.90589	14874.7625
1142.5369	14765.0625
1146.16542	14653.3625
1149.79145	14605.7625
1153.415	14623.7625
1157.03607	14729.9625
1160.65467	15041.4625
1164.27079	15508.1625
1167.88443	16173.1625
1171.49561	17075.4625
1175.10432	18292.9625
1178.71056	19913.9625
1182.31434	21392.7625
1185.91565	22119.6625
1189.51451	21931.1625
1193.11091	21039.9625
1196.70485	20084.8625
1200.29634	19187.7625
1203.88538	18494.5625
1207.47197	17838.3625
1211.05612	17294.2625
1214.63782	16923.3625
1218.21708	16681.2625
1221.79391	16608.3625
1225.36829	16670.3625
1228.94024	16615.2625
1232.50976	16350.7625
1236.07685	16095.4625
1239.6415	15954.0625
1243.20374	15960.4625
1246.76355	16065.5625
1250.32093	16282.6625
1253.8759	16536.9625
1257.42845	16922.1625
1260.97859	17338.7625
1264.52631	17810.2625
1268.07163	18275.4625
1271.61453	18829.6625
1275.15503	19319.5625
1278.69312	19713.2625
1282.22882	20014.2625
1285.76211	20440.6625
1289.29301	20911.5625
1292.82151	21598.7625
1296.34761	22519.9625
1299.87133	23756.1625
1303.39266	25295.8625
1306.9116	27065.5625
1310.42815	28655.7625
1313.94233	29435.5625
1317.45412	28964.7625
1320.96354	27715.2625
1324.47058	26401.4625
1327.97525	25205.4625
1331.47754	24370.5625
1334.97747	23917.0625
1338.47502	23693.0625
1341.97022	23710.1625
1345.46305	23834.4625
1348.95352	24321.5625
1352.44163	25244.0625
1355.92738	26706.8625
1359.41078	28674.0625
1362.89183	30265.2625
1366.37053	29792.6625
1369.84688	26887.6625
1373.32088	23486.1625
1376.79254	21191.3625
1380.26186	20204.3625
1383.72883	19815.8625
1387.19347	19520.5625
1390.65578	19095.7625
1394.11575	18851.5625
1397.57339	18830.8625
1401.0287	19013.0625
1404.48168	19089.0625
1407.93234	19081.0625
1411.38068	18929.9625
1414.82669	18703.4625
1418.27039	18395.2625
1421.71177	18052.8625
1425.15083	17627.4625
1428.58758	17451.5625
1432.02203	17574.9625
1435.45416	17906.3625
1438.88399	18245.2625
1442.31151	18364.0625
1445.73673	18430.4625
1449.15965	18449.7625
1452.58027	18456.8625
1455.9986	18333.0625
1459.41463	18346.4625
1462.82837	18557.9625
1466.23982	18863.8625
1469.64898	19230.8625
1473.05586	19610.4625
1476.46045	19763.9625
1479.86276	19845.3625
1483.26279	19890.8625
1486.66054	19959.4625
1490.05602	20240.6625
1493.44922	20623.3625
1496.84016	21239.5625
1500.22882	22021.1625
1503.61521	23158.9625
1506.99934	24492.8625
1510.38121	25569.9625
1513.76081	25714.9625
1517.13816	24724.6625
1520.51324	23105.2625
1523.88607	21662.2625
1527.25665	20802.2625
1530.62498	20409.7625
1533.99105	20138.7625
1537.35488	19825.3625
1540.71647	19484.3625
1544.07581	19180.0625
1547.4329	18845.2625
1550.78776	18612.3625
1554.14038	18418.0625
1557.49077	18343.0625
1560.83892	18413.6625
1564.18484	18512.5625
1567.52853	18720.5625
1570.86999	18976.5625
1574.20922	19250.2625
1577.54624	19362.9625
1580.88103	19098.9625
1584.2136	18755.4625
1587.54395	18860.5625
1590.87208	19513.6625
1594.19801	20592.8625
1597.52172	21747.3625
1600.84321	22286.0625
1604.16251	21664.0625
1607.47959	20324.6625
1610.79447	18855.7625
1614.10715	17438.9625
1617.41763	16359.0625
1620.7259	15637.5625
1624.03199	15269.9625
1627.33587	15294.4625
1630.63757	15643.5625
1633.93707	16337.6625
1637.23439	17568.9625
1640.52951	19389.7625
1643.82246	21691.0625
1647.11321	23659.5625
1650.40179	24256.3625
1653.68819	22815.9625
1656.97241	20062.1625
1660.25446	17367.4625
1663.53433	15469.5625
1666.81203	14334.9625
1670.08756	13721.6625
1673.36092	13281.3625
1676.63211	13000.0625
1679.90115	12842.0625
1683.16801	12680.2625
1686.43272	12545.5625
1689.69527	12416.7625
1692.95567	12302.3625
1696.2139	12152.8625
1699.46999	12025.3625
1702.72392	11973.2625
1705.97571	12058.4625
1709.22535	12105.7625
1712.47284	12166.6625
1715.71819	12180.1625
1718.96139	12144.9625
1722.20246	12137.1625
1725.44139	12137.8625
1728.67818	12063.3625
1731.91284	11995.8625
1735.14537	11950.0625
1738.37576	11893.4625
1741.60403	11817.5625
1744.83017	11787.1625
1748.05418	11762.3625
1751.27607	11733.1625
1754.49584	11687.0625
1757.71349	11654.2625
1760.92903	11591.1625
1764.14244	11576.9625
1767.35375	11587.3625
1770.56294	11551.6625
1773.77002	11534.6625
1776.97499	11545.9625
1780.17785	11585.4625
1783.37861	11586.9625
1786.57727	11573.7625
1789.77382	11563.1625
1792.96828	11565.7625
1796.16064	11560.2625
1799.3509	11532.1625
1802.53907	11507.9625
1805.72514	11486.7625
1808.90913	11456.1625
1812.09102	11457.9625
1815.27083	11432.8625
1818.44856	11435.3625
1821.6242	11417.4625
1824.79776	11409.4625
1827.96924	11411.0625
1831.13864	11375.7625
1834.30597	11395.1625
1837.47122	11366.1625
1840.6344	11372.0625
1843.7955	11367.4625
1846.95454	11368.6625
1850.11151	11373.4625
1853.26642	11396.5625
1856.41926	11357.5625
1859.57004	11358.2625
1862.71876	11335.6625
1865.86542	11300.8625
1869.01003	11306.7625
1872.15258	11289.8625
1875.29308	11266.5625
1878.43152	11278.2625
1881.56792	11275.3625
1884.70227	11265.9625
1887.83457	11262.4625
1890.96482	11229.8625
1894.09304	11236.8625
1897.21921	11200.5625
1900.34335	11217.5625
1903.46544	11166.3625
1906.58551	11195.7625
1909.70353	11168.8625
1912.81953	11172.1625
1915.93349	11146.2625
1919.04543	11133.7625
1922.15534	11100.5625
1925.26322	11070.5625
1928.36908	11071.6625
1931.47292	11075.0625
1934.57473	11014.5625
1937.67453	11023.4625
1940.77232	11020.6625
1943.86808	10963.5625
1946.96184	10919.9625
1950.05358	10897.3625
1953.14331	10881.7625
1956.23103	10850.3625
1959.31675	10807.6625
1962.40046	10803.7625
1965.48217	10750.4625
1968.56188	10724.0625
1971.63959	10690.9625
1974.7153	10679.2625
1977.78901	10666.4625
1980.86073	10605.0625
1983.93046	10584.7625
1986.99819	10552.6625
1990.06394	10538.5625
1993.1277	10518.3625
1996.18947	10482.0625
1999.24925	10455.8625
2002.30706	10409.3625
2005.36288	10381.5625
2008.41672	10392.7625
2011.46859	10332.8625
2014.51848	10315.9625
2017.56639	10304.5625
2020.61233	10272.9625
2023.6563	10254.5625
2026.6983	10229.6625
2029.73833	10198.8625
2032.7764	10183.4625
2035.8125	10155.9625
2038.84664	10136.3625
2041.87881	10156.4625
2044.90903	10109.4625
2047.93729	10096.8625
2050.96359	10132.2625
2053.98794	10103.7625
2057.01034	10113.9625
2060.03078	10079.8625
2063.04927	10081.7625
2066.06582	10054.4625
2069.08042	10037.2625
2072.09307	10070.6625
2075.10378	10033.5625
2078.11255	10030.2625
2081.11938	10035.5625
2084.12426	10044.5625
2087.12722	10058.0625
2090.12824	10035.2625
2093.12732	10049.8625
2096.12447	10035.2625
2099.11969	10049.1625
2102.11299	10039.7625
2105.10435	10066.0625
2108.09379	10048.6625
2111.08131	10064.0625
2114.0669	10064.8625
2117.05057	10062.9625
2120.03233	10077.5625
2123.01216	10118.8625
2125.99008	10118.6625
2128.96609	10103.4625
2131.94018	10145.1625
2134.91236	10121.3625
2137.88263	10136.9625
2140.851	10138.9625
2143.81746	10173.8625
2146.78201	10185.6625
2149.74466	10157.5625
2152.7054	10157.2625
2155.66425	10136.1625
2158.6212	10147.2625
2161.57625	10168.4625
2164.52941	10156.8625
2167.48067	10151.5625
2170.43004	10159.0625
2173.37752	10141.3625
2176.32311	10168.2625
2179.26681	10157.0625
2182.20863	10134.0625
2185.14856	10169.1625
2188.08661	10191.0625
2191.02278	10187.5625
2193.95707	10173.6625
2196.88948	10170.8625
2199.82001	10189.6625
2202.74867	10159.7625
2205.67545	10158.2625
2208.60037	10146.0625
2211.52341	10129.9625
2214.44458	10126.1625
2217.36388	10119.4625
2220.28132	10095.6625
2223.1969	10093.2625
2226.11061	10060.3625
2229.02246	10044.3625
2231.93245	10035.8625
2234.84058	10047.3625
2237.74686	10018.1625
2240.65128	10026.4625
2243.55385	9978.9625
2246.45456	10001.0625
2249.35343	9982.4625
2252.25044	9979.8625
2255.14561	9995.6625
2258.03893	9966.3625
2260.93041	9919.5625
2263.82004	9928.8625
2266.70783	9899.8625
2269.59378	9885.1625
2272.4779	9868.4625
2275.36017	9872.8625
2278.24061	9824.5625
2281.11922	9811.5625
2283.996	9794.0625
2286.87094	9800.7625
2289.74405	9769.4625
2292.61534	9798.1625
2295.4848	9763.7625
2298.35243	9798.3625
2301.21824	9775.0625
2304.08223	9776.4625
2306.94439	9791.6625
2309.80474	9780.6625
2312.66327	9795.1625
2315.51999	9781.9625
2318.37489	9767.2625
2321.22797	9746.6625
2324.07925	9740.7625
2326.92871	9746.4625
2329.77637	9728.7625
2332.62222	9747.0625
2335.46626	9730.8625
2338.3085	9727.5625
2341.14893	9716.6625
2343.98756	9716.0625
2346.8244	9704.5625
2349.65943	9718.1625
2352.49267	9689.9625
2355.32411	9697.5625
2358.15376	9693.5625
2360.98161	9690.6625
2363.80768	9701.0625
2366.63195	9688.2625
2369.45444	9664.2625
2372.27514	9677.4625
2375.09405	9664.3625
2377.91118	9644.1625
2380.72652	9600.0625
2383.54009	9612.5625
2386.35187	9583.4625
2389.16188	9569.3625
2391.97011	9552.8625
2394.77657	9554.9625
2397.58125	9529.1625
2400.38416	9516.7625
2403.18529	9521.4625
2405.98466	9492.0625
2408.78226	9467.4625
2411.57809	9444.8625
2414.37216	9436.5625
2417.16446	9433.0625
2419.955	9410.4625
2422.74378	9431.8625
2425.5308	9403.6625
2428.31606	9411.5625
2431.09956	9433.7625
2433.88131	9400.7625
2436.6613	9411.7625
2439.43954	9403.3625
2442.21603	9402.9625
2444.99077	9408.3625
2447.76377	9424.1625
2450.53501	9412.6625
2453.30451	9409.5625
2456.07226	9408.8625
2458.83827	9396.5625
2461.60254	9396.2625
2464.36507	9401.6625
2467.12586	9400.9625
2469.88492	9377.6625
2472.64224	9421.8625
2475.39782	9383.6625
2478.15167	9388.3625
2480.90379	9401.8625
2483.65417	9397.1625
2486.40283	9400.3625
2489.14976	9415.3625
2491.89497	9436.3625
2494.63845	9442.2625
2497.3802	9432.7625
2500.12024	9441.4625
2502.85855	9424.8625
2505.59514	9416.6625
2508.33002	9391.4625
2511.06318	9382.9625
2513.79462	9373.6625
2516.52435	9371.4625
2519.25237	9326.3625
2521.97867	9334.9625
2524.70327	9318.8625
2527.42616	9348.0625
2530.14734	9321.0625
2532.86681	9343.3625
2535.58458	9344.4625
2538.30065	9345.8625
2541.01501	9325.7625
2543.72768	9299.4625
2546.43864	9291.6625
2549.14791	9278.4625
2551.85548	9266.8625
2554.56136	9262.5625
2557.26554	9269.4625
2559.96803	9259.1625
2562.66883	9249.7625
2565.36794	9235.0625
2568.06536	9238.1625
2570.7611	9238.3625
2573.45514	9207.4625
2576.14751	9208.1625
2578.83819	9201.3625
2581.52719	9170.3625
2584.21451	9199.3625
2586.90015	9193.6625
2589.58411	9157.8625
2592.2664	9157.7625
2594.94701	9154.8625
2597.62594	9153.9625
2600.30321	9160.4625
2602.9788	9157.2625
2605.65273	9141.6625
2608.32498	9168.6625
2610.99557	9136.7625
2613.66449	9152.6625
2616.33175	9140.9625
2618.99734	9147.2625
2621.66128	9151.0625
2624.32355	9100.4625
2626.98416	9113.1625
2629.64311	9114.2625
2632.30041	9123.1625
2634.95605	9090.0625
2637.61004	9070.4625
2640.26238	9063.4625
2642.91306	9075.0625
2645.56209	9062.1625
2648.20948	9048.0625
2650.85521	9054.9625
2653.4993	9034.6625
2656.14175	9032.2625
2658.78255	9048.8625
2661.42171	9040.9625
2664.05923	9073.7625
2666.6951	9084.1625
2669.32934	9106.8625
2671.96194	9095.5625
2674.59291	9083.0625
2677.22224	9099.9625
2679.84993	9103.6625
2682.476	9072.0625
2685.10043	9079.0625
2687.72324	9083.7625
2690.34441	9073.5625
2692.96396	9071.7625
2695.58188	9056.8625
2698.19818	9047.0625
2700.81285	9052.8625
2703.4259	9044.9625
2706.03733	8998.8625
2708.64714	9047.0625
2711.25533	9068.8625
2713.86191	9074.0625
2716.46687	9096.5625
2719.07021	9104.0625
2721.67194	9117.3625
2724.27206	9104.3625
2726.87057	9118.0625
2729.46747	9101.2625
2732.06276	9134.7625
2734.65644	9129.7625
2737.24852	9150.8625
2739.83899	9137.8625
2742.42786	9118.9625
2745.01513	9099.9625
2747.60079	9111.4625
2750.18486	9073.1625
2752.76733	9097.4625
2755.3482	9083.9625
2757.92747	9070.3625
2760.50515	9058.9625
2763.08123	9073.3625
2765.65573	9055.9625
2768.22863	9042.3625
2770.79994	9040.9625
2773.36967	9017.6625
2775.9378	9002.9625
2778.50435	9039.5625
2781.06932	9026.1625
2783.6327	9034.6625
2786.1945	9032.9625
2788.75471	9039.6625
2791.31335	9011.6625
2793.87041	9006.5625
2796.42589	8969.4625
2798.97979	8985.6625
2801.53212	8953.1625
2804.08288	8959.3625
2806.63206	8934.7625
2809.17967	8920.5625
2811.72571	8882.9625
2814.27018	8914.8625
2816.81308	8883.4625
2819.35442	8889.1625
2821.89419	8887.3625
2824.43239	8896.5625
2826.96904	8878.7625
2829.50412	8887.9625
2832.03763	8872.5625
2834.56959	8899.5625
2837.1	8897.7625
2839.62884	8863.5625
2842.15613	8876.1625
2844.68186	8904.3625
2847.20604	8894.3625
2849.72867	8892.4625
2852.24974	8894.1625
2854.76927	8874.1625
2857.28724	8868.8625
2859.80367	8859.7625
2862.31855	8899.9625
2864.83189	8881.3625
2867.34368	8853.2625
2869.85393	8871.5625
2872.36264	8871.3625
2874.8698	8864.7625
2877.37543	8861.0625
2879.87952	8872.4625
2882.38207	8860.5625
2884.88308	8867.4625
2887.38256	8887.8625
2889.88051	8888.9625
2892.37692	8887.1625
2894.8718	8883.2625
2897.36515	8909.8625
2899.85698	8902.1625
2902.34727	8926.5625
2904.83604	8938.1625
2907.32328	8947.6625
2909.809	8959.0625
2912.29319	8974.8625
2914.77587	8972.6625
2917.25702	8971.6625
2919.73665	8954.1625
2922.21476	8971.3625
2924.69136	8959.7625
2927.16644	8975.9625
2929.64	8942.6625
2932.11205	8925.4625
2934.58258	8891.4625
2937.05161	8934.1625
2939.51912	8925.9625
2941.98513	8933.4625
2944.44962	8900.1625
2946.91261	8875.0625
2949.37409	8891.7625
2951.83407	8881.2625
2954.29254	8878.4625
2956.74951	8860.7625
2959.20498	8844.4625
2961.65895	8806.6625
2964.11142	8840.7625
2966.56239	8811.4625
2969.01186	8815.6625
2971.45984	8806.1625
2973.90632	8782.3625
2976.35131	8749.2625
2978.7948	8761.2625
2981.23681	8724.0625
2983.67732	8721.7625
2986.11635	8721.7625
2988.55388	8698.4625
2990.98993	8717.3625
2993.4245	8678.4625
2995.85758	8649.5625
2998.28917	8632.6625
3000.71928	8626.6625
3003.14791	8606.7625
3005.57506	8615.1625
3008.00073	8593.4625
3010.42493	8573.7625
3012.84764	8579.7625
3015.26888	8563.3625
3017.68865	8575.7625
3020.10694	8552.5625
3022.52376	8533.8625
3024.9391	8519.7625
3027.35298	8532.8625
3029.76539	8513.4625
3032.17632	8517.6625
3034.5858	8505.9625
3036.9938	8485.8625
3039.40034	8490.9625
3041.80542	8501.5625
3044.20903	8457.9625
3046.61118	8466.6625
3049.01187	8456.8625
3051.4111	8473.7625
3053.80888	8461.2625
3056.20519	8452.2625
3058.60005	8440.4625
3060.99345	8432.2625
3063.3854	8426.2625
3065.7759	8412.2625
3068.16494	8369.7625
3070.55254	8340.8625
3072.93868	8325.1625
3075.32338	8326.7625
3077.70662	8320.7625
3080.08842	8297.9625
3082.46878	8311.4625
3084.84769	8295.6625
3087.22515	8259.4625
3089.60118	8278.3625
3091.97576	8261.4625
3094.3489	8279.5625
3096.72061	8295.2625
3099.09087	8278.7625
3101.4597	8286.8625
3103.82709	8313.9625
3106.19305	8308.5625
3108.55757	8297.3625
3110.92066	8286.5625
3113.28232	8269.2625
3115.64255	8239.8625
3118.00134	8252.0625
3120.35871	8230.8625
3122.71466	8225.0625
3125.06917	8230.8625
3127.42226	8206.5625
3129.77393	8206.6625
3132.12417	8195.0625
3134.47299	8195.3625
3136.82039	8182.8625
3139.16636	8171.2625
3141.51092	8191.4625
3143.85406	8189.1625
3146.19579	8203.9625
3148.53609	8217.2625
3150.87499	8224.3625
3153.21246	8254.1625
3155.54853	8284.0625
3157.88318	8284.0625
3160.21642	8270.2625
3162.54826	8272.5625
3164.87868	8273.2625
3167.2077	8260.0625
3169.5353	8258.2625
3171.86151	8266.8625
3174.18631	8298.7625
3176.5097	8267.3625
3178.83169	8240.0625
3181.15228	8263.5625
3183.47147	8233.7625
3185.78926	8268.8625
3188.10565	8239.8625
3190.42065	8245.4625
3192.73424	8237.3625
3195.04645	8241.8625
3197.35725	8236.7625
3199.66667	8245.9625
3201.97469	8242.5625
3204.28132	8240.6625
3206.58656	8236.6625
3208.8904	8249.1625
3211.19287	8253.3625
3213.49394	8268.3625
3215.79363	8248.4625
3218.09193	8302.8625
3220.38884	8255.4625
3222.68438	8253.6625
3224.97853	8286.7625
3227.2713	8266.8625
3229.56269	8238.2625
3231.8527	8255.7625
3234.14133	8232.7625
3236.42858	8228.2625
3238.71446	8260.0625
3240.99896	8217.4625
3243.28209	8212.0625
3245.56384	8185.5625
3247.84423	8199.4625
3250.12324	8190.0625
3252.40088	8198.5625
3254.67715	8188.4625
3256.95205	8169.4625
3259.22558	8194.1625
3261.49775	8213.2625
3263.76855	8178.5625
3266.03799	8177.1625
3268.30606	8172.6625
3270.57277	8161.7625
3272.83812	8147.9625
3275.10211	8142.5625
3277.36474	8125.3625
3279.62601	8112.0625
3281.88593	8099.8625
3284.14448	8111.9625
3286.40168	8104.7625
3288.65753	8088.0625
3290.91202	8091.0625
3293.16516	8099.2625
3295.41695	8102.4625
3297.66738	8046.8625
3299.91647	8021.3625
3302.16421	7958.8625
3304.4106	7946.3625
3306.65564	7894.7625
3308.89933	7842.6625
3311.14169	7800.7625
3313.38269	7699.9625
3315.62236	7676.2625
3317.86068	7619.3625
3320.09766	7550.3625
3322.3333	7511.3625
3324.5676	7500.6625
3326.80056	7356.5625
3329.03219	7332.1625
3331.26248	2.4625
3333.49143	-2.1375
3335.71905	-0.1375
