Data from AgNPs_FTO_APTES_UA_50uM_CRN_10uM_R6G_10uM_NaF_0.1M_Addition_RamanShift__18__13-34-24-883.txt Node

Date: Mon Feb 21 13:34:24 GMT 2022
User: TCL
Spectrometer: QEP01345
Trigger mode: 4
Integration Time (sec): 7.000000E0
Scans to average: 10
Electric dark correction enabled: true
Nonlinearity correction enabled: false
Boxcar width: 0
XAxis mode: Raman Shifts
Number of Pixels in Spectrum: 1044
>>>>>Begin Spectral Data<<<<<
46.04893	0.4375
50.45542	-1.4625
54.85868	0.3375
59.25871	-1.3625
63.6555	66.9375
68.04907	74.8375
72.43941	74.5375
76.82654	79.8375
81.21044	78.2375
85.59113	86.9375
89.96862	89.2375
94.34289	91.3375
98.71396	92.3375
103.08183	99.3375
107.4465	101.1375
111.80798	99.0375
116.16626	104.4375
120.52136	108.4375
124.87327	115.6375
129.222	120.4375
133.56755	121.9375
137.90993	138.4375
142.24913	142.9375
146.58517	163.7375
150.91804	187.0375
155.24774	227.5375
159.57429	284.9375
163.89768	358.9375
168.21792	484.5375
172.53501	665.2375
176.84895	931.0375
181.15975	1306.6375
185.46741	1831.1375
189.77193	2526.9375
194.07331	3359.2375
198.37157	4354.3375
202.6667	5352.9375
206.9587	6380.6375
211.24758	7427.4375
215.53334	8498.5375
219.81599	9665.2375
224.09553	11015.1375
228.37195	12512.3375
232.64527	14123.1375
236.91549	15757.9375
241.18261	17265.2375
245.44663	18502.1375
249.70755	19483.8375
253.96539	20243.3375
258.22014	20912.7375
262.4718	21548.1375
266.72039	22015.2375
270.96589	22250.2375
275.20832	22102.3375
279.44768	21788.9375
283.68397	21412.8375
287.91719	21147.2375
292.14735	21099.3375
296.37445	21415.4375
300.59849	22013.2375
304.81948	22639.0375
309.03742	23039.2375
313.25231	22927.9375
317.46415	22138.5375
321.67296	20871.8375
325.87872	19837.2375
330.08145	19350.8375
334.28114	19302.5375
338.47781	19558.5375
342.67145	19976.1375
346.86207	20591.3375
351.04966	21433.8375
355.23424	22450.9375
359.4158	23189.5375
363.59435	23656.5375
367.76989	23829.7375
371.94243	23850.3375
376.11196	23764.4375
380.27849	23767.2375
384.44203	23686.6375
388.60257	23629.7375
392.76012	23595.8375
396.91468	23734.4375
401.06626	24227.6375
405.21485	24479.6375
409.36047	24056.1375
413.50311	23078.4375
417.64277	22150.0375
421.77947	21656.8375
425.9132	21502.5375
430.04396	21562.8375
434.17176	21613.4375
438.2966	21934.9375
442.41849	22514.2375
446.53742	23285.4375
450.6534	24067.8375
454.76644	24547.6375
458.87653	24594.9375
462.98368	24350.7375
467.08789	24023.0375
471.18916	23562.1375
475.2875	23082.9375
479.38291	22702.4375
483.4754	22357.2375
487.56496	22053.1375
491.6516	21740.9375
495.73531	21548.0375
499.81612	21539.7375
503.89401	21769.6375
507.96899	21983.0375
512.04106	22059.3375
516.11023	22182.5375
520.1765	22143.4375
524.23987	22088.5375
528.30034	21883.2375
532.35792	21666.7375
536.41261	21333.8375
540.46441	20984.4375
544.51333	20791.8375
548.55936	20934.6375
552.60252	21372.9375
556.64279	22015.4375
560.6802	22474.3375
564.71473	22840.8375
568.7464	23609.5375
572.7752	24327.7375
576.80114	24272.8375
580.82422	24005.4375
584.84444	24087.9375
588.86181	24493.9375
592.87633	25176.3375
596.888	25501.7375
600.89682	25477.9375
604.9028	27098.6375
608.90594	32578.7375
612.90624	39159.1375
616.90371	36422.1375
620.89834	26708.6375
624.89015	22262.6375
628.87913	21569.6375
632.86528	21796.5375
636.84862	22156.0375
640.82913	21794.1375
644.80683	20847.9375
648.78172	20073.8375
652.75379	19956.0375
656.72306	20612.2375
660.68952	21493.5375
664.65319	21184.1375
668.61405	20347.9375
672.57211	20127.6375
676.52738	20314.7375
680.47986	20354.4375
684.42955	20115.4375
688.37646	19904.0375
692.32058	19935.9375
696.26192	20115.0375
700.20048	20378.8375
704.13626	20529.2375
708.06928	20386.4375
711.99952	20168.9375
715.927	20118.9375
719.85171	20213.5375
723.77365	20229.4375
727.69284	20042.0375
731.60928	19792.6375
735.52295	19770.4375
739.43388	19843.6375
743.34206	19952.6375
747.24749	20022.0375
751.15017	20151.4375
755.05012	20500.4375
758.94733	21393.2375
762.8418	23549.0375
766.73354	27217.9375
770.62254	30993.7375
774.50882	32420.2375
778.39237	30721.9375
782.27321	27071.0375
786.15132	23615.2375
790.02671	21407.6375
793.89938	20410.2375
797.76935	19905.1375
801.6366	19709.4375
805.50115	19575.9375
809.36299	19393.2375
813.22213	19176.0375
817.07857	19053.2375
820.93231	18985.2375
824.78336	18954.1375
828.63172	18913.2375
832.47738	18925.6375
836.32036	18876.5375
840.16066	18813.8375
843.99827	18804.9375
847.8332	18759.3375
851.66546	18743.8375
855.49504	18733.6375
859.32195	18784.1375
863.1462	18763.4375
866.96777	18706.9375
870.78668	18699.5375
874.60293	18730.8375
878.41652	18787.4375
882.22745	18896.3375
886.03573	19004.9375
889.84136	19021.2375
893.64433	18957.1375
897.44466	18888.6375
901.24235	18786.3375
905.0374	18606.2375
908.8298	18438.9375
912.61957	18362.1375
916.40671	18423.8375
920.19121	18633.8375
923.97308	18867.3375
927.75233	19049.4375
931.52895	19140.4375
935.30295	18906.1375
939.07433	18382.8375
942.84309	17975.8375
946.60924	17764.2375
950.37278	17661.0375
954.13371	17631.1375
957.89203	17567.5375
961.64774	17495.6375
965.40086	17443.1375
969.15137	17402.4375
972.89929	17311.6375
976.64461	17277.3375
980.38733	17303.5375
984.12747	17389.1375
987.86502	17491.8375
991.59999	17730.0375
995.33237	18088.4375
999.06217	18577.7375
1002.78939	19250.8375
1006.51404	19903.2375
1010.23611	20384.8375
1013.95561	20631.8375
1017.67255	20651.1375
1021.38692	20353.1375
1025.09872	19895.2375
1028.80796	19656.6375
1032.51465	19740.4375
1036.21877	19995.1375
1039.92035	20100.3375
1043.61937	20056.1375
1047.31584	19856.4375
1051.00976	19576.4375
1054.70114	19450.4375
1058.38998	19424.0375
1062.07627	19562.3375
1065.76003	19668.6375
1069.44126	19860.4375
1073.11995	20200.1375
1076.79611	20559.7375
1080.46974	20993.8375
1084.14085	21551.4375
1087.80943	22080.8375
1091.47549	22353.8375
1095.13903	22219.7375
1098.80005	21688.0375
1102.45857	21063.7375
1106.11456	20804.4375
1109.76805	20778.1375
1113.41903	21171.1375
1117.06751	21731.7375
1120.71348	22419.8375
1124.35696	23181.2375
1127.99793	23920.8375
1131.63641	23980.8375
1135.2724	23242.4375
1138.90589	22516.4375
1142.5369	22029.1375
1146.16542	21751.9375
1149.79145	21621.8375
1153.415	21673.2375
1157.03607	21890.1375
1160.65467	22493.0375
1164.27079	23592.8375
1167.88443	25206.5375
1171.49561	27455.8375
1175.10432	30670.6375
1178.71056	34893.7375
1182.31434	38775.0375
1185.91565	40336.7375
1189.51451	39464.2375
1193.11091	37420.1375
1196.70485	34974.3375
1200.29634	32754.5375
1203.88538	30847.3375
1207.47197	29021.0375
1211.05612	27522.4375
1214.63782	26686.0375
1218.21708	26274.1375
1221.79391	26282.1375
1225.36829	26431.0375
1228.94024	26228.1375
1232.50976	25703.6375
1236.07685	25103.5375
1239.6415	24751.4375
1243.20374	24657.9375
1246.76355	24783.3375
1250.32093	25085.8375
1253.8759	25710.8375
1257.42845	26610.4375
1260.97859	27720.8375
1264.52631	28956.0375
1268.07163	30200.5375
1271.61453	31332.2375
1275.15503	32337.0375
1278.69312	33118.5375
1282.22882	33852.1375
1285.76211	34807.7375
1289.29301	36087.8375
1292.82151	37747.4375
1296.34761	39729.8375
1299.87133	42349.7375
1303.39266	45993.4375
1306.9116	50740.7375
1310.42815	55475.6375
1313.94233	57887.6375
1317.45412	56762.0375
1320.96354	53733.7375
1324.47058	50595.1375
1327.97525	47799.8375
1331.47754	45981.5375
1334.97747	45064.1375
1338.47502	44902.4375
1341.97022	45248.2375
1345.46305	45986.5375
1348.95352	47205.6375
1352.44163	49093.2375
1355.92738	52318.6375
1359.41078	57670.2375
1362.89183	62680.9375
1366.37053	60895.9375
1369.84688	52290.3375
1373.32088	43768.3375
1376.79254	38626.6375
1380.26186	36175.0375
1383.72883	35001.7375
1387.19347	34258.5375
1390.65578	33538.2375
1394.11575	33095.5375
1397.57339	33200.8375
1401.0287	33508.3375
1404.48168	33792.7375
1407.93234	33816.4375
1411.38068	33481.3375
1414.82669	32795.4375
1418.27039	31888.0375
1421.71177	30811.6375
1425.15083	29865.2375
1428.58758	29499.0375
1432.02203	29789.0375
1435.45416	30472.1375
1438.88399	31128.6375
1442.31151	31486.3375
1445.73673	31907.7375
1449.15965	32292.0375
1452.58027	32487.3375
1455.9986	32642.6375
1459.41463	32929.7375
1462.82837	33582.0375
1466.23982	34381.1375
1469.64898	34977.9375
1473.05586	35261.2375
1476.46045	35215.1375
1479.86276	35025.2375
1483.26279	34933.5375
1486.66054	35195.2375
1490.05602	35763.2375
1493.44922	36843.8375
1496.84016	38477.7375
1500.22882	41280.8375
1503.61521	45477.6375
1506.99934	50430.1375
1510.38121	54261.9375
1513.76081	54494.6375
1517.13816	50789.8375
1520.51324	45145.7375
1523.88607	40208.8375
1527.25665	37327.2375
1530.62498	35894.3375
1533.99105	34987.4375
1537.35488	34325.5375
1540.71647	33618.5375
1544.07581	32898.6375
1547.4329	32280.7375
1550.78776	31831.9375
1554.14038	31665.3375
1557.49077	31792.5375
1560.83892	32154.3375
1564.18484	32833.3375
1567.52853	33703.7375
1570.86999	34536.0375
1574.20922	35183.3375
1577.54624	35083.4375
1580.88103	33947.9375
1584.2136	32585.7375
1587.54395	32385.3375
1590.87208	33613.9375
1594.19801	35965.9375
1597.52172	38593.8375
1600.84321	39426.9375
1604.16251	37693.4375
1607.47959	34611.3375
1610.79447	31480.0375
1614.10715	28520.6375
1617.41763	26021.1375
1620.7259	24322.6375
1624.03199	23493.2375
1627.33587	23562.3375
1630.63757	24402.9375
1633.93707	26318.8375
1637.23439	29555.1375
1640.52951	34277.9375
1643.82246	40059.2375
1647.11321	45265.8375
1650.40179	47251.4375
1653.68819	44037.9375
1656.97241	36925.7375
1660.25446	29843.6375
1663.53433	24859.3375
1666.81203	21864.8375
1670.08756	20103.1375
1673.36092	19022.8375
1676.63211	18345.8375
1679.90115	17858.0375
1683.16801	17484.5375
1686.43272	17200.6375
1689.69527	17023.1375
1692.95567	16777.2375
1696.2139	16578.1375
1699.46999	16423.2375
1702.72392	16361.1375
1705.97571	16341.2375
1709.22535	16387.3375
1712.47284	16416.8375
1715.71819	16394.2375
1718.96139	16333.9375
1722.20246	16240.1375
1725.44139	16106.7375
1728.67818	15995.5375
1731.91284	15844.3375
1735.14537	15751.7375
1738.37576	15646.8375
1741.60403	15577.8375
1744.83017	15525.0375
1748.05418	15455.4375
1751.27607	15391.9375
1754.49584	15312.3375
1757.71349	15230.2375
1760.92903	15200.5375
1764.14244	15127.4375
1767.35375	15071.6375
1770.56294	15011.0375
1773.77002	14968.7375
1776.97499	14964.9375
1780.17785	14975.8375
1783.37861	14960.1375
1786.57727	14913.9375
1789.77382	14897.8375
1792.96828	14883.4375
1796.16064	14837.3375
1799.3509	14803.8375
1802.53907	14760.7375
1805.72514	14731.9375
1808.90913	14698.5375
1812.09102	14662.9375
1815.27083	14653.5375
1818.44856	14603.2375
1821.6242	14573.7375
1824.79776	14592.8375
1827.96924	14573.6375
1831.13864	14543.3375
1834.30597	14552.8375
1837.47122	14590.9375
1840.6344	14550.1375
1843.7955	14550.9375
1846.95454	14557.2375
1850.11151	14576.5375
1853.26642	14513.2375
1856.41926	14526.9375
1859.57004	14514.6375
1862.71876	14511.9375
1865.86542	14481.9375
1869.01003	14466.6375
1872.15258	14442.3375
1875.29308	14442.8375
1878.43152	14430.3375
1881.56792	14441.2375
1884.70227	14415.4375
1887.83457	14422.5375
1890.96482	14434.7375
1894.09304	14371.2375
1897.21921	14332.1375
1900.34335	14341.6375
1903.46544	14356.4375
1906.58551	14325.8375
1909.70353	14284.5375
1912.81953	14248.6375
1915.93349	14203.7375
1919.04543	14171.0375
1922.15534	14122.4375
1925.26322	14081.5375
1928.36908	14055.6375
1931.47292	13954.5375
1934.57473	13930.6375
1937.67453	13889.5375
1940.77232	13840.2375
1943.86808	13766.9375
1946.96184	13738.5375
1950.05358	13692.2375
1953.14331	13657.2375
1956.23103	13633.6375
1959.31675	13551.3375
1962.40046	13559.8375
1965.48217	13515.1375
1968.56188	13494.7375
1971.63959	13475.9375
1974.7153	13448.2375
1977.78901	13368.8375
1980.86073	13327.0375
1983.93046	13273.3375
1986.99819	13224.8375
1990.06394	13186.4375
1993.1277	13140.9375
1996.18947	13070.6375
1999.24925	13037.6375
2002.30706	12994.5375
2005.36288	12944.6375
2008.41672	12897.3375
2011.46859	12861.2375
2014.51848	12845.9375
2017.56639	12827.0375
2020.61233	12780.8375
2023.6563	12743.4375
2026.6983	12725.1375
2029.73833	12708.1375
2032.7764	12681.4375
2035.8125	12624.5375
2038.84664	12616.1375
2041.87881	12591.0375
2044.90903	12541.6375
2047.93729	12571.8375
2050.96359	12563.8375
2053.98794	12504.7375
2057.01034	12525.8375
2060.03078	12530.9375
2063.04927	12486.6375
2066.06582	12475.9375
2069.08042	12444.8375
2072.09307	12460.8375
2075.10378	12423.3375
2078.11255	12397.1375
2081.11938	12405.5375
2084.12426	12378.8375
2087.12722	12412.8375
2090.12824	12390.7375
2093.12732	12415.1375
2096.12447	12402.4375
2099.11969	12407.0375
2102.11299	12429.1375
2105.10435	12431.0375
2108.09379	12445.4375
2111.08131	12430.9375
2114.0669	12431.0375
2117.05057	12455.9375
2120.03233	12456.9375
2123.01216	12457.3375
2125.99008	12477.4375
2128.96609	12481.3375
2131.94018	12507.1375
2134.91236	12519.8375
2137.88263	12510.1375
2140.851	12464.3375
2143.81746	12483.0375
2146.78201	12454.7375
2149.74466	12450.7375
2152.7054	12468.9375
2155.66425	12465.8375
2158.6212	12432.2375
2161.57625	12440.9375
2164.52941	12408.4375
2167.48067	12392.8375
2170.43004	12417.0375
2173.37752	12373.4375
2176.32311	12416.2375
2179.26681	12438.0375
2182.20863	12430.8375
2185.14856	12416.6375
2188.08661	12450.2375
2191.02278	12433.4375
2193.95707	12405.0375
2196.88948	12393.0375
2199.82001	12382.2375
2202.74867	12364.2375
2205.67545	12345.7375
2208.60037	12356.5375
2211.52341	12336.6375
2214.44458	12326.0375
2217.36388	12274.3375
2220.28132	12265.7375
2223.1969	12240.6375
2226.11061	12222.8375
2229.02246	12198.4375
2231.93245	12202.9375
2234.84058	12170.5375
2237.74686	12147.1375
2240.65128	12121.3375
2243.55385	12113.0375
2246.45456	12125.3375
2249.35343	12099.4375
2252.25044	12091.8375
2255.14561	12060.6375
2258.03893	12065.7375
2260.93041	12020.1375
2263.82004	12006.4375
2266.70783	11992.7375
2269.59378	11963.9375
2272.4779	11965.8375
2275.36017	11918.6375
2278.24061	11908.9375
2281.11922	11845.6375
2283.996	11842.2375
2286.87094	11829.3375
2289.74405	11810.7375
2292.61534	11779.5375
2295.4848	11743.3375
2298.35243	11778.4375
2301.21824	11769.7375
2304.08223	11756.5375
2306.94439	11772.0375
2309.80474	11757.3375
2312.66327	11777.5375
2315.51999	11744.0375
2318.37489	11747.5375
2321.22797	11726.8375
2324.07925	11735.2375
2326.92871	11680.3375
2329.77637	11697.4375
2332.62222	11662.3375
2335.46626	11686.6375
2338.3085	11681.7375
2341.14893	11693.1375
2343.98756	11691.3375
2346.8244	11716.9375
2349.65943	11717.7375
2352.49267	11749.6375
2355.32411	11768.3375
2358.15376	11747.3375
2360.98161	11722.2375
2363.80768	11714.1375
2366.63195	11737.5375
2369.45444	11753.6375
2372.27514	11734.9375
2375.09405	11745.5375
2377.91118	11697.9375
2380.72652	11655.8375
2383.54009	11607.5375
2386.35187	11553.9375
2389.16188	11496.0375
2391.97011	11487.6375
2394.77657	11456.3375
2397.58125	11449.0375
2400.38416	11435.7375
2403.18529	11409.7375
2405.98466	11403.8375
2408.78226	11376.9375
2411.57809	11368.5375
2414.37216	11332.1375
2417.16446	11329.5375
2419.955	11296.8375
2422.74378	11328.3375
2425.5308	11324.3375
2428.31606	11321.1375
2431.09956	11301.4375
2433.88131	11269.0375
2436.6613	11330.0375
2439.43954	11328.2375
2442.21603	11293.9375
2444.99077	11310.1375
2447.76377	11325.4375
2450.53501	11305.1375
2453.30451	11311.8375
2456.07226	11315.7375
2458.83827	11337.5375
2461.60254	11344.4375
2464.36507	11335.5375
2467.12586	11336.2375
2469.88492	11350.3375
2472.64224	11359.4375
2475.39782	11336.0375
2478.15167	11344.7375
2480.90379	11360.6375
2483.65417	11363.5375
2486.40283	11398.5375
2489.14976	11426.8375
2491.89497	11435.8375
2494.63845	11432.7375
2497.3802	11424.8375
2500.12024	11407.4375
2502.85855	11408.2375
2505.59514	11377.6375
2508.33002	11337.1375
2511.06318	11323.7375
2513.79462	11296.7375
2516.52435	11271.3375
2519.25237	11239.1375
2521.97867	11216.8375
2524.70327	11184.4375
2527.42616	11210.7375
2530.14734	11207.9375
2532.86681	11202.1375
2535.58458	11209.8375
2538.30065	11191.2375
2541.01501	11195.8375
2543.72768	11186.6375
2546.43864	11204.3375
2549.14791	11180.1375
2551.85548	11185.9375
2554.56136	11136.2375
2557.26554	11135.4375
2559.96803	11134.7375
2562.66883	11136.2375
2565.36794	11117.1375
2568.06536	11093.6375
2570.7611	11101.1375
2573.45514	11098.1375
2576.14751	11095.2375
2578.83819	11058.2375
2581.52719	11068.1375
2584.21451	11041.5375
2586.90015	11061.1375
2589.58411	11032.9375
2592.2664	11057.7375
2594.94701	11030.7375
2597.62594	11035.3375
2600.30321	11037.9375
2602.9788	11060.8375
2605.65273	11020.7375
2608.32498	11038.1375
2610.99557	11027.9375
2613.66449	11042.9375
2616.33175	11059.3375
2618.99734	11060.4375
2621.66128	11042.2375
2624.32355	11047.2375
2626.98416	11031.9375
2629.64311	11017.2375
2632.30041	11000.6375
2634.95605	11007.9375
2637.61004	10983.7375
2640.26238	10980.9375
2642.91306	10959.8375
2645.56209	10941.6375
2648.20948	10962.7375
2650.85521	10956.1375
2653.4993	10969.0375
2656.14175	10973.4375
2658.78255	10995.8375
2661.42171	11022.4375
2664.05923	11019.2375
2666.6951	11022.6375
2669.32934	11045.6375
2671.96194	11032.0375
2674.59291	11046.7375
2677.22224	11050.1375
2679.84993	11045.7375
2682.476	11046.6375
2685.10043	11024.7375
2687.72324	10984.2375
2690.34441	10981.6375
2692.96396	10958.3375
2695.58188	10981.7375
2698.19818	10951.6375
2700.81285	10979.6375
2703.4259	10959.9375
2706.03733	10902.2375
2708.64714	10929.9375
2711.25533	10980.8375
2713.86191	10999.4375
2716.46687	10992.5375
2719.07021	11015.3375
2721.67194	10993.4375
2724.27206	11002.1375
2726.87057	11014.6375
2729.46747	11016.8375
2732.06276	11052.2375
2734.65644	11057.4375
2737.24852	11055.3375
2739.83899	11035.9375
2742.42786	11047.3375
2745.01513	11029.7375
2747.60079	11008.6375
2750.18486	11001.8375
2752.76733	10992.2375
2755.3482	10957.2375
2757.92747	10974.9375
2760.50515	10982.8375
2763.08123	10944.6375
2765.65573	10922.7375
2768.22863	10926.8375
2770.79994	10928.1375
2773.36967	10931.1375
2775.9378	10935.0375
2778.50435	10939.2375
2781.06932	10929.7375
2783.6327	10972.4375
2786.1945	10955.5375
2788.75471	10929.4375
2791.31335	10928.7375
2793.87041	10904.9375
2796.42589	10903.0375
2798.97979	10894.4375
2801.53212	10884.4375
2804.08288	10864.8375
2806.63206	10853.6375
2809.17967	10836.7375
2811.72571	10814.9375
2814.27018	10819.3375
2816.81308	10786.7375
2819.35442	10764.7375
2821.89419	10781.5375
2824.43239	10770.9375
2826.96904	10801.6375
2829.50412	10764.1375
2832.03763	10748.1375
2834.56959	10758.2375
2837.1	10739.8375
2839.62884	10745.9375
2842.15613	10688.2375
2844.68186	10701.1375
2847.20604	10732.1375
2849.72867	10722.3375
2852.24974	10705.9375
2854.76927	10707.4375
2857.28724	10657.0375
2859.80367	10683.6375
2862.31855	10663.1375
2864.83189	10690.1375
2867.34368	10700.2375
2869.85393	10742.3375
2872.36264	10718.9375
2874.8698	10747.7375
2877.37543	10716.5375
2879.87952	10725.7375
2882.38207	10709.3375
2884.88308	10720.6375
2887.38256	10723.8375
2889.88051	10710.7375
2892.37692	10688.4375
2894.8718	10712.7375
2897.36515	10735.1375
2899.85698	10760.5375
2902.34727	10769.2375
2904.83604	10759.4375
2907.32328	10786.0375
2909.809	10780.8375
2912.29319	10829.5375
2914.77587	10819.3375
2917.25702	10805.6375
2919.73665	10801.8375
2922.21476	10816.4375
2924.69136	10822.0375
2927.16644	10799.6375
2929.64	10770.9375
2932.11205	10740.0375
2934.58258	10678.6375
2937.05161	10687.0375
2939.51912	10690.0375
2941.98513	10690.5375
2944.44962	10633.0375
2946.91261	10612.3375
2949.37409	10604.0375
2951.83407	10608.8375
2954.29254	10617.5375
2956.74951	10579.2375
2959.20498	10558.3375
2961.65895	10518.5375
2964.11142	10548.1375
2966.56239	10483.6375
2969.01186	10491.7375
2971.45984	10472.1375
2973.90632	10463.3375
2976.35131	10422.2375
2978.7948	10414.4375
2981.23681	10373.3375
2983.67732	10349.1375
2986.11635	10298.3375
2988.55388	10287.9375
2990.98993	10267.9375
2993.4245	10252.2375
2995.85758	10214.8375
2998.28917	10215.6375
3000.71928	10171.5375
3003.14791	10155.3375
3005.57506	10150.8375
3008.00073	10132.2375
3010.42493	10113.3375
3012.84764	10092.7375
3015.26888	10076.9375
3017.68865	10067.6375
3020.10694	10059.2375
3022.52376	10024.2375
3024.9391	10021.5375
3027.35298	9986.9375
3029.76539	9987.2375
3032.17632	9978.4375
3034.5858	9947.5375
3036.9938	9937.8375
3039.40034	9918.1375
3041.80542	9891.5375
3044.20903	9888.8375
3046.61118	9907.7375
3049.01187	9869.2375
3051.4111	9862.9375
3053.80888	9848.6375
3056.20519	9814.5375
3058.60005	9800.7375
3060.99345	9773.9375
3063.3854	9740.6375
3065.7759	9706.0375
3068.16494	9709.0375
3070.55254	9668.0375
3072.93868	9640.9375
3075.32338	9587.9375
3077.70662	9559.9375
3080.08842	9539.0375
3082.46878	9531.2375
3084.84769	9521.0375
3087.22515	9538.2375
3089.60118	9526.6375
3091.97576	9504.5375
3094.3489	9485.4375
3096.72061	9495.6375
3099.09087	9516.6375
3101.4597	9492.5375
3103.82709	9485.0375
3106.19305	9475.3375
3108.55757	9442.6375
3110.92066	9452.6375
3113.28232	9427.2375
3115.64255	9381.1375
3118.00134	9386.8375
3120.35871	9345.7375
3122.71466	9323.6375
3125.06917	9324.6375
3127.42226	9273.4375
3129.77393	9300.3375
3132.12417	9279.9375
3134.47299	9276.2375
3136.82039	9267.4375
3139.16636	9268.9375
3141.51092	9256.1375
3143.85406	9265.3375
3146.19579	9248.3375
3148.53609	9254.1375
3150.87499	9265.9375
3153.21246	9238.9375
3155.54853	9270.6375
3157.88318	9248.4375
3160.21642	9291.0375
3162.54826	9284.8375
3164.87868	9280.5375
3167.2077	9281.1375
3169.5353	9302.8375
3171.86151	9295.0375
3174.18631	9282.7375
3176.5097	9269.4375
3178.83169	9232.9375
3181.15228	9243.4375
3183.47147	9212.5375
3185.78926	9208.7375
3188.10565	9193.7375
3190.42065	9194.8375
3192.73424	9213.4375
3195.04645	9215.1375
3197.35725	9214.0375
3199.66667	9216.0375
3201.97469	9189.7375
3204.28132	9212.6375
3206.58656	9223.2375
3208.8904	9206.9375
3211.19287	9203.4375
3213.49394	9230.7375
3215.79363	9196.7375
3218.09193	9233.4375
3220.38884	9224.1375
3222.68438	9206.7375
3224.97853	9216.4375
3227.2713	9214.1375
3229.56269	9198.4375
3231.8527	9195.5375
3234.14133	9178.1375
3236.42858	9179.7375
3238.71446	9184.1375
3240.99896	9162.2375
3243.28209	9154.4375
3245.56384	9130.4375
3247.84423	9117.3375
3250.12324	9113.0375
3252.40088	9086.8375
3254.67715	9096.8375
3256.95205	9087.3375
3259.22558	9088.2375
3261.49775	9088.2375
3263.76855	9096.4375
3266.03799	9085.7375
3268.30606	9041.8375
3270.57277	9066.8375
3272.83812	9025.3375
3275.10211	9000.8375
3277.36474	9009.3375
3279.62601	9007.2375
3281.88593	9018.4375
3284.14448	9009.1375
3286.40168	9041.8375
3288.65753	9031.4375
3290.91202	9037.6375
3293.16516	8996.7375
3295.41695	8999.5375
3297.66738	8940.2375
3299.91647	8923.0375
3302.16421	8847.8375
3304.4106	8811.1375
3306.65564	8737.7375
3308.89933	8673.1375
3311.14169	8612.0375
3313.38269	8552.7375
3315.62236	8493.5375
3317.86068	8426.6375
3320.09766	8363.0375
3322.3333	8318.5375
3324.5676	8274.2375
3326.80056	8111.1375
3329.03219	8083.1375
3331.26248	2.3375
3333.49143	-0.3625
3335.71905	0.1375
