Data from AgNPs_FTO_APTES_UA_50uM_CRN_2uM_R6G_10uM_NaF_0.1M_Addition_RamanShift__14__12-10-24-776.txt Node

Date: Mon Feb 21 12:10:24 GMT 2022
User: TCL
Spectrometer: QEP01345
Trigger mode: 4
Integration Time (sec): 7.000000E0
Scans to average: 10
Electric dark correction enabled: true
Nonlinearity correction enabled: false
Boxcar width: 0
XAxis mode: Raman Shifts
Number of Pixels in Spectrum: 1044
>>>>>Begin Spectral Data<<<<<
46.04893	-0.0625
50.45542	-1.0625
54.85868	-1.3625
59.25871	-1.7625
63.6555	69.5375
68.04907	75.0375
72.43941	80.4375
76.82654	84.8375
81.21044	86.0375
85.59113	89.3375
89.96862	94.2375
94.34289	96.0375
98.71396	95.0375
103.08183	103.3375
107.4465	104.9375
111.80798	105.2375
116.16626	105.6375
120.52136	108.0375
124.87327	116.5375
129.222	116.6375
133.56755	123.3375
137.90993	134.5375
142.24913	144.2375
146.58517	159.2375
150.91804	182.9375
155.24774	219.0375
159.57429	273.9375
163.89768	347.7375
168.21792	460.6375
172.53501	632.7375
176.84895	890.6375
181.15975	1245.0375
185.46741	1746.3375
189.77193	2431.7375
194.07331	3252.7375
198.37157	4185.6375
202.6667	5176.8375
206.9587	6166.4375
211.24758	7131.8375
215.53334	8080.0375
219.81599	9111.1375
224.09553	10204.8375
228.37195	11422.9375
232.64527	12812.7375
236.91549	14240.4375
241.18261	15664.7375
245.44663	17067.6375
249.70755	18265.4375
253.96539	19398.6375
258.22014	20263.0375
262.4718	20966.8375
266.72039	21469.7375
270.96589	21711.7375
275.20832	21753.2375
279.44768	21663.0375
283.68397	21366.7375
287.91719	21146.2375
292.14735	20988.6375
296.37445	20933.6375
300.59849	20976.7375
304.81948	21060.9375
309.03742	21144.0375
313.25231	20954.0375
317.46415	20616.3375
321.67296	20199.7375
325.87872	19776.5375
330.08145	19596.3375
334.28114	19602.5375
338.47781	19761.4375
342.67145	19989.7375
346.86207	20281.2375
351.04966	20650.4375
355.23424	21081.2375
359.4158	21484.7375
363.59435	21759.5375
367.76989	21951.9375
371.94243	22107.3375
376.11196	22147.0375
380.27849	22227.4375
384.44203	22354.5375
388.60257	22434.6375
392.76012	22634.6375
396.91468	22873.6375
401.06626	23209.6375
405.21485	23414.3375
409.36047	23377.2375
413.50311	23051.6375
417.64277	22810.0375
421.77947	22724.3375
425.9132	22780.0375
430.04396	22841.6375
434.17176	22918.9375
438.2966	23072.7375
442.41849	23379.3375
446.53742	23785.9375
450.6534	24249.7375
454.76644	24599.4375
458.87653	24819.0375
462.98368	24839.4375
467.08789	24766.8375
471.18916	24547.9375
475.2875	24363.6375
479.38291	24231.2375
483.4754	24111.8375
487.56496	23997.6375
491.6516	23754.2375
495.73531	23530.4375
499.81612	23345.9375
503.89401	23435.0375
507.96899	23546.5375
512.04106	23543.3375
516.11023	23515.7375
520.1765	23382.4375
524.23987	23191.0375
528.30034	23075.7375
532.35792	22940.7375
536.41261	22787.3375
540.46441	22619.1375
544.51333	22578.7375
548.55936	22793.1375
552.60252	23120.6375
556.64279	23538.2375
560.6802	23876.0375
564.71473	24043.3375
568.7464	24441.9375
572.7752	25010.6375
576.80114	25573.7375
580.82422	26010.9375
584.84444	26414.8375
588.86181	26806.4375
592.87633	27066.8375
596.888	26935.9375
600.89682	26553.5375
604.9028	26942.4375
608.90594	28718.6375
612.90624	30673.8375
616.90371	29226.1375
620.89834	25438.7375
624.89015	23629.7375
628.87913	23413.7375
632.86528	23591.6375
636.84862	23717.3375
640.82913	23493.8375
644.80683	23050.7375
648.78172	22667.2375
652.75379	22656.4375
656.72306	22820.3375
660.68952	23252.1375
664.65319	23184.0375
668.61405	22906.5375
672.57211	22860.0375
676.52738	22963.1375
680.47986	22929.9375
684.42955	22844.6375
688.37646	22760.1375
692.32058	22848.2375
696.26192	23066.5375
700.20048	23257.9375
704.13626	23373.0375
708.06928	23438.6375
711.99952	23380.3375
715.927	23290.3375
719.85171	23327.1375
723.77365	23280.7375
727.69284	23053.1375
731.60928	22809.6375
735.52295	22670.6375
739.43388	22651.5375
743.34206	22720.9375
747.24749	22774.9375
751.15017	22985.9375
755.05012	23255.0375
758.94733	23749.0375
762.8418	24691.2375
766.73354	26161.7375
770.62254	27582.8375
774.50882	27921.4375
778.39237	27057.1375
782.27321	25594.4375
786.15132	24302.9375
790.02671	23468.6375
793.89938	23001.5375
797.76935	22772.9375
801.6366	22635.5375
805.50115	22577.7375
809.36299	22535.6375
813.22213	22416.9375
817.07857	22364.9375
820.93231	22365.2375
824.78336	22242.2375
828.63172	22221.2375
832.47738	22178.1375
836.32036	22168.4375
840.16066	22123.4375
843.99827	22136.5375
847.8332	22170.2375
851.66546	22197.4375
855.49504	22213.3375
859.32195	22213.3375
863.1462	22197.2375
866.96777	22148.2375
870.78668	22169.6375
874.60293	22207.3375
878.41652	22265.3375
882.22745	22288.9375
886.03573	22374.4375
889.84136	22387.7375
893.64433	22294.1375
897.44466	22262.1375
901.24235	22199.8375
905.0374	22156.2375
908.8298	22143.8375
912.61957	22116.8375
916.40671	22214.2375
920.19121	22343.5375
923.97308	22473.1375
927.75233	22519.0375
931.52895	22414.1375
935.30295	22178.3375
939.07433	21909.5375
942.84309	21627.2375
946.60924	21563.2375
950.37278	21515.1375
954.13371	21511.1375
957.89203	21438.1375
961.64774	21455.7375
965.40086	21439.7375
969.15137	21410.2375
972.89929	21329.4375
976.64461	21282.4375
980.38733	21272.2375
984.12747	21263.0375
987.86502	21397.8375
991.59999	21467.2375
995.33237	21615.0375
999.06217	21858.8375
1002.78939	22103.2375
1006.51404	22453.2375
1010.23611	22789.3375
1013.95561	23011.0375
1017.67255	22989.3375
1021.38692	22886.5375
1025.09872	22601.4375
1028.80796	22406.3375
1032.51465	22269.3375
1036.21877	22268.9375
1039.92035	22351.6375
1043.61937	22459.6375
1047.31584	22515.9375
1051.00976	22567.1375
1054.70114	22596.1375
1058.38998	22706.0375
1062.07627	22906.3375
1065.76003	23114.7375
1069.44126	23336.0375
1073.11995	23697.5375
1076.79611	24006.1375
1080.46974	24220.7375
1084.14085	24327.5375
1087.80943	24514.1375
1091.47549	24750.6375
1095.13903	24832.6375
1098.80005	24603.2375
1102.45857	24213.7375
1106.11456	23834.4375
1109.76805	23620.0375
1113.41903	23563.4375
1117.06751	23644.1375
1120.71348	23802.4375
1124.35696	24058.2375
1127.99793	24271.7375
1131.63641	24421.0375
1135.2724	24367.4375
1138.90589	24256.9375
1142.5369	24193.0375
1146.16542	24190.4375
1149.79145	24281.9375
1153.415	24437.0375
1157.03607	24608.5375
1160.65467	24990.9375
1164.27079	25703.8375
1167.88443	26607.8375
1171.49561	27718.6375
1175.10432	29167.4375
1178.71056	31034.2375
1182.31434	32642.8375
1185.91565	33571.3375
1189.51451	33770.6375
1193.11091	33362.2375
1196.70485	32495.2375
1200.29634	31533.8375
1203.88538	30645.6375
1207.47197	29988.7375
1211.05612	29467.1375
1214.63782	28978.9375
1218.21708	28422.9375
1221.79391	27868.1375
1225.36829	27536.1375
1228.94024	27261.1375
1232.50976	27087.6375
1236.07685	26950.5375
1239.6415	26826.2375
1243.20374	26802.8375
1246.76355	26916.3375
1250.32093	27168.9375
1253.8759	27504.8375
1257.42845	28045.7375
1260.97859	28742.2375
1264.52631	29463.4375
1268.07163	30135.8375
1271.61453	30739.5375
1275.15503	31305.7375
1278.69312	31932.7375
1282.22882	32510.8375
1285.76211	33261.3375
1289.29301	34134.1375
1292.82151	35159.5375
1296.34761	36324.2375
1299.87133	37702.1375
1303.39266	39180.0375
1306.9116	40693.2375
1310.42815	42034.5375
1313.94233	42785.5375
1317.45412	42699.6375
1320.96354	42291.4375
1324.47058	41779.5375
1327.97525	41375.3375
1331.47754	41163.6375
1334.97747	41128.5375
1338.47502	41089.5375
1341.97022	41203.2375
1345.46305	41219.5375
1348.95352	41256.2375
1352.44163	41339.6375
1355.92738	41543.6375
1359.41078	42459.2375
1362.89183	43511.2375
1366.37053	42934.5375
1369.84688	40155.3375
1373.32088	36745.2375
1376.79254	34268.6375
1380.26186	33113.0375
1383.72883	32758.8375
1387.19347	32522.3375
1390.65578	32234.0375
1394.11575	31912.1375
1397.57339	31928.6375
1401.0287	32102.7375
1404.48168	32232.1375
1407.93234	32242.5375
1411.38068	31856.2375
1414.82669	31275.0375
1418.27039	30466.2375
1421.71177	29620.5375
1425.15083	29022.8375
1428.58758	28712.2375
1432.02203	28762.9375
1435.45416	29201.8375
1438.88399	29732.6375
1442.31151	30141.9375
1445.73673	30377.4375
1449.15965	30675.2375
1452.58027	30821.5375
1455.9986	30934.8375
1459.41463	31150.6375
1462.82837	31525.0375
1466.23982	31990.1375
1469.64898	32348.6375
1473.05586	32575.2375
1476.46045	32602.5375
1479.86276	32583.2375
1483.26279	32546.2375
1486.66054	32620.8375
1490.05602	32846.9375
1493.44922	33350.5375
1496.84016	34154.4375
1500.22882	35198.5375
1503.61521	36569.5375
1506.99934	38030.5375
1510.38121	39072.8375
1513.76081	39176.2375
1517.13816	38220.0375
1520.51324	36685.7375
1523.88607	35386.7375
1527.25665	34599.0375
1530.62498	34148.3375
1533.99105	33838.6375
1537.35488	33392.3375
1540.71647	32794.8375
1544.07581	32127.4375
1547.4329	31514.0375
1550.78776	30909.7375
1554.14038	30672.1375
1557.49077	30560.4375
1560.83892	30549.5375
1564.18484	30716.0375
1567.52853	30925.0375
1570.86999	31260.4375
1574.20922	31628.0375
1577.54624	31911.8375
1580.88103	31790.5375
1584.2136	31663.8375
1587.54395	31967.6375
1590.87208	32814.6375
1594.19801	33991.6375
1597.52172	35187.5375
1600.84321	35433.3375
1604.16251	34315.9375
1607.47959	32590.6375
1610.79447	30718.6375
1614.10715	28814.1375
1617.41763	27182.2375
1620.7259	26007.5375
1624.03199	25308.2375
1627.33587	25189.3375
1630.63757	25659.7375
1633.93707	26759.9375
1637.23439	28744.3375
1640.52951	31561.2375
1643.82246	34875.7375
1647.11321	37665.5375
1650.40179	38466.9375
1653.68819	36671.8375
1656.97241	32886.0375
1660.25446	28915.7375
1663.53433	25897.2375
1666.81203	23923.7375
1670.08756	22691.1375
1673.36092	21943.9375
1676.63211	21482.9375
1679.90115	21088.9375
1683.16801	20817.7375
1686.43272	20626.9375
1689.69527	20458.3375
1692.95567	20275.0375
1696.2139	20133.1375
1699.46999	19953.9375
1702.72392	19900.5375
1705.97571	19944.8375
1709.22535	20000.7375
1712.47284	20000.0375
1715.71819	19994.7375
1718.96139	19996.4375
1722.20246	19950.5375
1725.44139	19858.1375
1728.67818	19777.2375
1731.91284	19683.4375
1735.14537	19588.2375
1738.37576	19541.2375
1741.60403	19481.6375
1744.83017	19391.4375
1748.05418	19270.7375
1751.27607	19228.3375
1754.49584	19106.1375
1757.71349	19057.5375
1760.92903	19031.1375
1764.14244	19003.8375
1767.35375	19013.5375
1770.56294	18960.5375
1773.77002	18948.6375
1776.97499	18995.3375
1780.17785	19006.2375
1783.37861	18987.8375
1786.57727	18975.9375
1789.77382	18976.1375
1792.96828	18965.5375
1796.16064	18943.3375
1799.3509	18863.7375
1802.53907	18821.1375
1805.72514	18820.5375
1808.90913	18754.3375
1812.09102	18699.2375
1815.27083	18690.0375
1818.44856	18678.2375
1821.6242	18676.2375
1824.79776	18652.4375
1827.96924	18618.0375
1831.13864	18626.4375
1834.30597	18586.3375
1837.47122	18625.7375
1840.6344	18631.1375
1843.7955	18566.2375
1846.95454	18568.0375
1850.11151	18592.8375
1853.26642	18551.3375
1856.41926	18538.1375
1859.57004	18538.6375
1862.71876	18504.2375
1865.86542	18482.5375
1869.01003	18473.7375
1872.15258	18441.8375
1875.29308	18401.5375
1878.43152	18384.4375
1881.56792	18396.8375
1884.70227	18336.7375
1887.83457	18309.9375
1890.96482	18267.6375
1894.09304	18230.2375
1897.21921	18233.2375
1900.34335	18213.6375
1903.46544	18160.0375
1906.58551	18141.2375
1909.70353	18127.4375
1912.81953	18110.4375
1915.93349	18083.0375
1919.04543	18077.1375
1922.15534	18050.8375
1925.26322	17954.6375
1928.36908	17964.0375
1931.47292	17909.7375
1934.57473	17868.7375
1937.67453	17824.7375
1940.77232	17793.3375
1943.86808	17787.1375
1946.96184	17685.9375
1950.05358	17663.0375
1953.14331	17612.1375
1956.23103	17542.7375
1959.31675	17493.8375
1962.40046	17447.3375
1965.48217	17384.2375
1968.56188	17334.9375
1971.63959	17291.0375
1974.7153	17225.6375
1977.78901	17154.0375
1980.86073	17137.1375
1983.93046	17112.9375
1986.99819	17024.6375
1990.06394	16984.1375
1993.1277	16947.8375
1996.18947	16914.5375
1999.24925	16815.3375
2002.30706	16762.9375
2005.36288	16721.3375
2008.41672	16678.7375
2011.46859	16619.1375
2014.51848	16564.1375
2017.56639	16531.9375
2020.61233	16476.4375
2023.6563	16479.8375
2026.6983	16435.5375
2029.73833	16411.6375
2032.7764	16340.9375
2035.8125	16269.5375
2038.84664	16306.8375
2041.87881	16266.7375
2044.90903	16212.5375
2047.93729	16176.2375
2050.96359	16166.1375
2053.98794	16134.3375
2057.01034	16136.7375
2060.03078	16121.4375
2063.04927	16069.1375
2066.06582	16112.5375
2069.08042	16071.0375
2072.09307	16065.3375
2075.10378	16065.6375
2078.11255	16036.7375
2081.11938	16060.9375
2084.12426	16073.2375
2087.12722	16039.2375
2090.12824	16035.4375
2093.12732	16076.0375
2096.12447	16035.9375
2099.11969	16035.9375
2102.11299	16059.1375
2105.10435	16062.6375
2108.09379	16052.1375
2111.08131	16089.7375
2114.0669	16105.1375
2117.05057	16085.1375
2120.03233	16115.1375
2123.01216	16129.5375
2125.99008	16133.1375
2128.96609	16158.0375
2131.94018	16159.2375
2134.91236	16149.0375
2137.88263	16149.3375
2140.851	16190.4375
2143.81746	16207.7375
2146.78201	16212.9375
2149.74466	16199.2375
2152.7054	16181.4375
2155.66425	16192.1375
2158.6212	16200.9375
2161.57625	16159.1375
2164.52941	16179.3375
2167.48067	16166.1375
2170.43004	16126.2375
2173.37752	16139.6375
2176.32311	16100.3375
2179.26681	16096.5375
2182.20863	16120.1375
2185.14856	16139.6375
2188.08661	16128.2375
2191.02278	16103.7375
2193.95707	16125.9375
2196.88948	16069.9375
2199.82001	16035.0375
2202.74867	16036.7375
2205.67545	16032.4375
2208.60037	15972.9375
2211.52341	15969.6375
2214.44458	15962.3375
2217.36388	15934.8375
2220.28132	15897.2375
2223.1969	15863.9375
2226.11061	15819.6375
2229.02246	15790.0375
2231.93245	15790.1375
2234.84058	15742.4375
2237.74686	15731.2375
2240.65128	15712.4375
2243.55385	15704.4375
2246.45456	15690.4375
2249.35343	15690.0375
2252.25044	15658.7375
2255.14561	15593.2375
2258.03893	15578.7375
2260.93041	15567.9375
2263.82004	15527.7375
2266.70783	15528.4375
2269.59378	15454.3375
2272.4779	15480.1375
2275.36017	15402.7375
2278.24061	15387.3375
2281.11922	15322.0375
2283.996	15306.4375
2286.87094	15316.9375
2289.74405	15260.6375
2292.61534	15242.1375
2295.4848	15219.2375
2298.35243	15198.8375
2301.21824	15192.2375
2304.08223	15202.0375
2306.94439	15200.7375
2309.80474	15162.4375
2312.66327	15134.0375
2315.51999	15128.0375
2318.37489	15133.2375
2321.22797	15073.4375
2324.07925	15079.0375
2326.92871	15049.9375
2329.77637	15028.6375
2332.62222	15026.9375
2335.46626	14976.7375
2338.3085	15005.4375
2341.14893	14954.9375
2343.98756	14958.7375
2346.8244	14969.4375
2349.65943	14943.8375
2352.49267	14917.9375
2355.32411	14932.7375
2358.15376	14911.7375
2360.98161	14869.2375
2363.80768	14899.4375
2366.63195	14869.6375
2369.45444	14866.8375
2372.27514	14846.4375
2375.09405	14814.2375
2377.91118	14812.6375
2380.72652	14763.1375
2383.54009	14746.7375
2386.35187	14743.6375
2389.16188	14702.7375
2391.97011	14669.6375
2394.77657	14632.3375
2397.58125	14599.2375
2400.38416	14575.7375
2403.18529	14576.7375
2405.98466	14606.1375
2408.78226	14528.2375
2411.57809	14505.7375
2414.37216	14502.4375
2417.16446	14516.7375
2419.955	14492.1375
2422.74378	14467.9375
2425.5308	14458.6375
2428.31606	14462.1375
2431.09956	14462.9375
2433.88131	14429.1375
2436.6613	14437.1375
2439.43954	14433.0375
2442.21603	14409.8375
2444.99077	14390.1375
2447.76377	14452.2375
2450.53501	14388.1375
2453.30451	14392.6375
2456.07226	14366.6375
2458.83827	14328.3375
2461.60254	14350.3375
2464.36507	14336.6375
2467.12586	14322.7375
2469.88492	14305.6375
2472.64224	14307.6375
2475.39782	14300.9375
2478.15167	14306.8375
2480.90379	14316.5375
2483.65417	14323.0375
2486.40283	14290.8375
2489.14976	14297.4375
2491.89497	14262.0375
2494.63845	14274.5375
2497.3802	14254.4375
2500.12024	14264.8375
2502.85855	14237.0375
2505.59514	14223.5375
2508.33002	14207.0375
2511.06318	14246.0375
2513.79462	14193.5375
2516.52435	14175.6375
2519.25237	14151.6375
2521.97867	14097.8375
2524.70327	14119.5375
2527.42616	14115.9375
2530.14734	14110.9375
2532.86681	14079.3375
2535.58458	14099.8375
2538.30065	14054.0375
2541.01501	14053.5375
2543.72768	14038.4375
2546.43864	14033.3375
2549.14791	14001.0375
2551.85548	13993.6375
2554.56136	13975.2375
2557.26554	13939.8375
2559.96803	13915.2375
2562.66883	13897.0375
2565.36794	13873.9375
2568.06536	13855.4375
2570.7611	13806.2375
2573.45514	13843.2375
2576.14751	13814.5375
2578.83819	13783.0375
2581.52719	13775.5375
2584.21451	13764.4375
2586.90015	13740.4375
2589.58411	13710.4375
2592.2664	13699.0375
2594.94701	13672.9375
2597.62594	13649.0375
2600.30321	13649.4375
2602.9788	13623.6375
2605.65273	13628.2375
2608.32498	13574.5375
2610.99557	13579.6375
2613.66449	13602.4375
2616.33175	13564.2375
2618.99734	13565.3375
2621.66128	13535.9375
2624.32355	13514.0375
2626.98416	13508.2375
2629.64311	13533.4375
2632.30041	13502.2375
2634.95605	13484.2375
2637.61004	13463.6375
2640.26238	13419.4375
2642.91306	13422.6375
2645.56209	13444.9375
2648.20948	13413.4375
2650.85521	13408.1375
2653.4993	13404.4375
2656.14175	13396.5375
2658.78255	13443.0375
2661.42171	13455.7375
2664.05923	13431.7375
2666.6951	13413.7375
2669.32934	13442.1375
2671.96194	13443.9375
2674.59291	13433.0375
2677.22224	13448.7375
2679.84993	13428.3375
2682.476	13404.5375
2685.10043	13445.1375
2687.72324	13428.0375
2690.34441	13447.3375
2692.96396	13429.8375
2695.58188	13410.2375
2698.19818	13385.7375
2700.81285	13412.1375
2703.4259	13358.2375
2706.03733	13303.7375
2708.64714	13377.3375
2711.25533	13426.3375
2713.86191	13407.8375
2716.46687	13418.0375
2719.07021	13428.8375
2721.67194	13425.1375
2724.27206	13440.3375
2726.87057	13441.4375
2729.46747	13455.5375
2732.06276	13465.7375
2734.65644	13454.4375
2737.24852	13464.9375
2739.83899	13460.8375
2742.42786	13465.9375
2745.01513	13407.0375
2747.60079	13413.6375
2750.18486	13391.8375
2752.76733	13381.7375
2755.3482	13387.1375
2757.92747	13368.4375
2760.50515	13338.2375
2763.08123	13348.3375
2765.65573	13302.3375
2768.22863	13276.8375
2770.79994	13281.4375
2773.36967	13292.6375
2775.9378	13258.4375
2778.50435	13245.2375
2781.06932	13219.5375
2783.6327	13208.4375
2786.1945	13220.9375
2788.75471	13213.3375
2791.31335	13157.9375
2793.87041	13138.1375
2796.42589	13112.4375
2798.97979	13098.0375
2801.53212	13096.5375
2804.08288	13079.4375
2806.63206	13012.8375
2809.17967	12985.1375
2811.72571	12971.0375
2814.27018	12923.8375
2816.81308	12931.5375
2819.35442	12892.9375
2821.89419	12902.5375
2824.43239	12865.5375
2826.96904	12836.3375
2829.50412	12814.7375
2832.03763	12810.7375
2834.56959	12788.8375
2837.1	12779.0375
2839.62884	12747.9375
2842.15613	12713.7375
2844.68186	12727.7375
2847.20604	12721.2375
2849.72867	12711.2375
2852.24974	12712.9375
2854.76927	12696.2375
2857.28724	12651.3375
2859.80367	12655.7375
2862.31855	12621.9375
2864.83189	12622.1375
2867.34368	12606.9375
2869.85393	12619.0375
2872.36264	12594.2375
2874.8698	12637.2375
2877.37543	12603.8375
2879.87952	12607.4375
2882.38207	12574.0375
2884.88308	12580.1375
2887.38256	12612.4375
2889.88051	12591.6375
2892.37692	12589.4375
2894.8718	12558.0375
2897.36515	12597.4375
2899.85698	12609.4375
2902.34727	12607.1375
2904.83604	12605.5375
2907.32328	12619.1375
2909.809	12608.2375
2912.29319	12656.0375
2914.77587	12611.8375
2917.25702	12629.0375
2919.73665	12591.3375
2922.21476	12623.8375
2924.69136	12602.2375
2927.16644	12582.8375
2929.64	12562.4375
2932.11205	12530.1375
2934.58258	12519.5375
2937.05161	12513.5375
2939.51912	12498.9375
2941.98513	12476.0375
2944.44962	12468.2375
2946.91261	12460.4375
2949.37409	12483.1375
2951.83407	12466.0375
2954.29254	12440.2375
2956.74951	12431.8375
2959.20498	12438.7375
2961.65895	12417.7375
2964.11142	12440.8375
2966.56239	12388.4375
2969.01186	12379.8375
2971.45984	12358.9375
2973.90632	12371.9375
2976.35131	12335.2375
2978.7948	12325.9375
2981.23681	12316.3375
2983.67732	12301.2375
2986.11635	12260.4375
2988.55388	12205.3375
2990.98993	12203.4375
2993.4245	12194.6375
2995.85758	12180.4375
2998.28917	12126.6375
3000.71928	12074.6375
3003.14791	12068.6375
3005.57506	12058.8375
3008.00073	12035.8375
3010.42493	11999.2375
3012.84764	11974.5375
3015.26888	11991.1375
3017.68865	11960.2375
3020.10694	11960.7375
3022.52376	11907.5375
3024.9391	11876.0375
3027.35298	11863.0375
3029.76539	11868.0375
3032.17632	11860.7375
3034.5858	11852.1375
3036.9938	11829.1375
3039.40034	11819.6375
3041.80542	11788.1375
3044.20903	11799.9375
3046.61118	11792.0375
3049.01187	11760.2375
3051.4111	11752.8375
3053.80888	11724.9375
3056.20519	11706.4375
3058.60005	11675.3375
3060.99345	11646.1375
3063.3854	11642.9375
3065.7759	11605.3375
3068.16494	11567.7375
3070.55254	11521.9375
3072.93868	11539.0375
3075.32338	11466.4375
3077.70662	11469.2375
3080.08842	11451.8375
3082.46878	11449.4375
3084.84769	11406.9375
3087.22515	11362.0375
3089.60118	11383.2375
3091.97576	11371.7375
3094.3489	11368.1375
3096.72061	11375.8375
3099.09087	11382.4375
3101.4597	11340.9375
3103.82709	11326.2375
3106.19305	11313.9375
3108.55757	11288.7375
3110.92066	11290.7375
3113.28232	11287.7375
3115.64255	11230.4375
3118.00134	11225.7375
3120.35871	11184.6375
3122.71466	11175.9375
3125.06917	11139.8375
3127.42226	11132.8375
3129.77393	11113.9375
3132.12417	11074.3375
3134.47299	11091.4375
3136.82039	11038.1375
3139.16636	11024.1375
3141.51092	11044.8375
3143.85406	11075.3375
3146.19579	11066.2375
3148.53609	11073.6375
3150.87499	11034.2375
3153.21246	11029.4375
3155.54853	11081.7375
3157.88318	11043.1375
3160.21642	11069.8375
3162.54826	11063.9375
3164.87868	11100.7375
3167.2077	11077.1375
3169.5353	11086.5375
3171.86151	11051.9375
3174.18631	11034.1375
3176.5097	11039.0375
3178.83169	11009.1375
3181.15228	10999.4375
3183.47147	10974.0375
3185.78926	10968.8375
3188.10565	10964.1375
3190.42065	10948.8375
3192.73424	10932.1375
3195.04645	10922.2375
3197.35725	10934.4375
3199.66667	10909.3375
3201.97469	10901.0375
3204.28132	10907.4375
3206.58656	10912.2375
3208.8904	10905.8375
3211.19287	10892.9375
3213.49394	10911.0375
3215.79363	10909.2375
3218.09193	10919.4375
3220.38884	10894.7375
3222.68438	10896.4375
3224.97853	10897.8375
3227.2713	10901.8375
3229.56269	10906.1375
3231.8527	10903.5375
3234.14133	10849.4375
3236.42858	10839.8375
3238.71446	10819.6375
3240.99896	10752.2375
3243.28209	10769.9375
3245.56384	10767.4375
3247.84423	10753.7375
3250.12324	10712.1375
3252.40088	10726.3375
3254.67715	10692.9375
3256.95205	10691.6375
3259.22558	10726.3375
3261.49775	10699.6375
3263.76855	10648.2375
3266.03799	10641.1375
3268.30606	10622.2375
3270.57277	10634.6375
3272.83812	10590.9375
3275.10211	10562.4375
3277.36474	10540.7375
3279.62601	10519.5375
3281.88593	10510.4375
3284.14448	10510.9375
3286.40168	10507.1375
3288.65753	10500.8375
3290.91202	10510.1375
3293.16516	10477.9375
3295.41695	10442.3375
3297.66738	10400.8375
3299.91647	10358.1375
3302.16421	10295.7375
3304.4106	10266.0375
3306.65564	10191.7375
3308.89933	10131.4375
3311.14169	10051.7375
3313.38269	9932.1375
3315.62236	9857.2375
3317.86068	9811.3375
3320.09766	9744.3375
3322.3333	9659.2375
3324.5676	9630.2375
3326.80056	9449.8375
3329.03219	9402.1375
3331.26248	3.9375
3333.49143	-0.1625
3335.71905	-0.4625
