Data from AgNPs_FTO_APTES_UA_50uM_CRN_0uM_R6G_10uM_NaF_0.1M_Addition_RamanShift__41__10-58-04-678.txt Node

Date: Mon Feb 21 10:58:04 GMT 2022
User: TCL
Spectrometer: QEP01345
Trigger mode: 4
Integration Time (sec): 7.000000E0
Scans to average: 10
Electric dark correction enabled: true
Nonlinearity correction enabled: false
Boxcar width: 0
XAxis mode: Raman Shifts
Number of Pixels in Spectrum: 1044
>>>>>Begin Spectral Data<<<<<
46.04893	0.7
50.45542	-1.3
54.85868	-1.2
59.25871	-1.6
63.6555	51.3
68.04907	57.3
72.43941	59.9
76.82654	62.1
81.21044	63.3
85.59113	68.7
89.96862	68.9
94.34289	77.2
98.71396	73.2
103.08183	77.2
107.4465	79.8
111.80798	80.2
116.16626	77.3
120.52136	81.9
124.87327	92.1
129.222	86.2
133.56755	90.2
137.90993	100.3
142.24913	108.4
146.58517	114.9
150.91804	130.5
155.24774	157.1
159.57429	190.2
163.89768	242.8
168.21792	328.2
172.53501	439.8
176.84895	614.7
181.15975	854.7
185.46741	1203.8
189.77193	1647.3
194.07331	2200.1
198.37157	2840.3
202.6667	3491.4
206.9587	4159.3
211.24758	4825.2
215.53334	5495
219.81599	6243.3
224.09553	7052.5
228.37195	7956.7
232.64527	8964.2
236.91549	9950.6
241.18261	10934.1
245.44663	11799.7
249.70755	12551.2
253.96539	13172.2
258.22014	13719.7
262.4718	14170.4
266.72039	14504.2
270.96589	14641.7
275.20832	14637.7
279.44768	14495.8
283.68397	14312
287.91719	14190.5
292.14735	14147.7
296.37445	14275.2
300.59849	14474.1
304.81948	14789
309.03742	15018
313.25231	14956.7
317.46415	14480.9
321.67296	13830.8
325.87872	13240.3
330.08145	12926.5
334.28114	12924
338.47781	13033.8
342.67145	13309.6
346.86207	13648.1
351.04966	14173.2
355.23424	14722.5
359.4158	15207.3
363.59435	15491.2
367.76989	15606.5
371.94243	15603
376.11196	15615.6
380.27849	15592.6
384.44203	15630.3
388.60257	15561.2
392.76012	15588.5
396.91468	15800
401.06626	16078.5
405.21485	16312.9
409.36047	16207.8
413.50311	15748.4
417.64277	15340.3
421.77947	15166.5
425.9132	15084
430.04396	15168.1
434.17176	15220.4
438.2966	15394.3
442.41849	15741.8
446.53742	16227.8
450.6534	16738.9
454.76644	17181
458.87653	17253.2
462.98368	17123
467.08789	16830.3
471.18916	16491.8
475.2875	16129.9
479.38291	15874
483.4754	15754.6
487.56496	15561.4
491.6516	15369.3
495.73531	15173.1
499.81612	15135.1
503.89401	15231.9
507.96899	15325.9
512.04106	15319.4
516.11023	15356.7
520.1765	15311.7
524.23987	15302.9
528.30034	15145.7
532.35792	14979
536.41261	14718
540.46441	14453.8
544.51333	14351.8
548.55936	14506.4
552.60252	14771.1
556.64279	15188.2
560.6802	15488.7
564.71473	15711.8
568.7464	16189.2
572.7752	16673.3
576.80114	16703.2
580.82422	16625.1
584.84444	16721.5
588.86181	16920.8
592.87633	17290.9
596.888	17500.7
600.89682	17494.5
604.9028	18313.4
608.90594	21157.1
612.90624	24806.4
616.90371	23741
620.89834	18373.2
624.89015	15853.4
628.87913	15446.5
632.86528	15496.3
636.84862	15448.8
640.82913	15129.4
644.80683	14601.3
648.78172	14164
652.75379	14080
656.72306	14415.9
660.68952	14891.5
664.65319	14862
668.61405	14458.2
672.57211	14285.1
676.52738	14304.3
680.47986	14281
684.42955	14190.1
688.37646	14168.3
692.32058	14237.1
696.26192	14396.8
700.20048	14566.6
704.13626	14628.1
708.06928	14593.7
711.99952	14450.7
715.927	14411.6
719.85171	14457.5
723.77365	14433.5
727.69284	14223.7
731.60928	14048.1
735.52295	14042.9
739.43388	14068.7
743.34206	14131.6
747.24749	14244.3
751.15017	14340.2
755.05012	14599.7
758.94733	15109.8
762.8418	16278.6
766.73354	18198.5
770.62254	20157.8
774.50882	20957
778.39237	20090.7
782.27321	18110.8
786.15132	16211.5
790.02671	15046
793.89938	14492.6
797.76935	14245.9
801.6366	14206
805.50115	14125.9
809.36299	14080.2
813.22213	13961.6
817.07857	13886.9
820.93231	13831.6
824.78336	13834.2
828.63172	13860.6
832.47738	13869.4
836.32036	13853.9
840.16066	13883.3
843.99827	13939
847.8332	13909
851.66546	13833.5
855.49504	13815.2
859.32195	13802.5
863.1462	13728.2
866.96777	13670.3
870.78668	13614.8
874.60293	13634.6
878.41652	13657.8
882.22745	13752.4
886.03573	13827.1
889.84136	13841.3
893.64433	13769.5
897.44466	13686.1
901.24235	13625.7
905.0374	13543.2
908.8298	13456.1
912.61957	13451.6
916.40671	13522
920.19121	13693.2
923.97308	13903.9
927.75233	14089.7
931.52895	14135
935.30295	13979.2
939.07433	13604.8
942.84309	13323.2
946.60924	13188.7
950.37278	13123.7
954.13371	13066.8
957.89203	12967.3
961.64774	12902.1
965.40086	12884.2
969.15137	12829
972.89929	12778.3
976.64461	12780
980.38733	12747
984.12747	12821.8
987.86502	12948.4
991.59999	13175.6
995.33237	13484.3
999.06217	14011.1
1002.78939	14590.3
1006.51404	15023.8
1010.23611	15263.2
1013.95561	15335.9
1017.67255	15382.7
1021.38692	15179.9
1025.09872	14985.5
1028.80796	15058.9
1032.51465	15519.5
1036.21877	15965.3
1039.92035	16012.5
1043.61937	15795.4
1047.31584	15342.9
1051.00976	14869.5
1054.70114	14543
1058.38998	14430.6
1062.07627	14488.1
1065.76003	14536
1069.44126	14601.6
1073.11995	14809.8
1076.79611	15046.1
1080.46974	15220.6
1084.14085	15502.1
1087.80943	15806.9
1091.47549	15923.3
1095.13903	15768.2
1098.80005	15398.8
1102.45857	14976.6
1106.11456	14743.9
1109.76805	14778.2
1113.41903	14934.6
1117.06751	15208.7
1120.71348	15572.8
1124.35696	15943
1127.99793	16321.5
1131.63641	16409.1
1135.2724	16068.5
1138.90589	15687.7
1142.5369	15407
1146.16542	15283.9
1149.79145	15181.8
1153.415	15214.4
1157.03607	15366.5
1160.65467	15714.2
1164.27079	16276
1167.88443	17226.2
1171.49561	18572.3
1175.10432	20510.6
1178.71056	23071.5
1182.31434	25364.5
1185.91565	26408.9
1189.51451	26200.5
1193.11091	25035.7
1196.70485	23557.5
1200.29634	22118.2
1203.88538	20957.3
1207.47197	19967.8
1211.05612	19104.1
1214.63782	18645.6
1218.21708	18580.5
1221.79391	18663.8
1225.36829	18807.8
1228.94024	18620.9
1232.50976	18231.3
1236.07685	17880.5
1239.6415	17664
1243.20374	17607.3
1246.76355	17664.6
1250.32093	17877.6
1253.8759	18323.5
1257.42845	18956.3
1260.97859	19587.9
1264.52631	20272.2
1268.07163	20952.3
1271.61453	21682.5
1275.15503	22381.5
1278.69312	23078.4
1282.22882	23663.2
1285.76211	24230.4
1289.29301	24898.2
1292.82151	25661.9
1296.34761	26787.7
1299.87133	28284.9
1303.39266	30371.2
1306.9116	33140.8
1310.42815	36127
1313.94233	38070
1317.45412	37863.4
1320.96354	36245.4
1324.47058	34249.7
1327.97525	32542.2
1331.47754	31426.5
1334.97747	30965.3
1338.47502	30926.1
1341.97022	31032.5
1345.46305	31073.7
1348.95352	31096.3
1352.44163	31622.1
1355.92738	33095.6
1359.41078	35980.2
1362.89183	38880.6
1366.37053	38390.2
1369.84688	34048.1
1373.32088	29188.6
1376.79254	25992.8
1380.26186	24426.6
1383.72883	23782.3
1387.19347	23327.2
1390.65578	22883.1
1394.11575	22696.3
1397.57339	22940.3
1401.0287	23383.4
1404.48168	23887.8
1407.93234	24238.8
1411.38068	24276.4
1414.82669	23894.9
1418.27039	23149.4
1421.71177	22266.6
1425.15083	21451
1428.58758	21035.8
1432.02203	21072.7
1435.45416	21406.7
1438.88399	21792.3
1442.31151	22032
1445.73673	22295.6
1449.15965	22530.1
1452.58027	22707.6
1455.9986	22738.2
1459.41463	22830.5
1462.82837	23154.4
1466.23982	23571.7
1469.64898	24005.4
1473.05586	24293.3
1476.46045	24376.9
1479.86276	24420.8
1483.26279	24478.8
1486.66054	24680.4
1490.05602	25123.1
1493.44922	25616.6
1496.84016	26233.1
1500.22882	27303.1
1503.61521	29003.7
1506.99934	31083.8
1510.38121	32931.3
1513.76081	33515.6
1517.13816	32204.2
1520.51324	29530.1
1523.88607	26989.8
1527.25665	25356.4
1530.62498	24502.4
1533.99105	24005.7
1537.35488	23657
1540.71647	23362.5
1544.07581	23070.3
1547.4329	22747.2
1550.78776	22396.5
1554.14038	22155.3
1557.49077	22090.9
1560.83892	22212.8
1564.18484	22398.7
1567.52853	22623.3
1570.86999	22854.7
1574.20922	23088.7
1577.54624	23165.6
1580.88103	22843.4
1584.2136	22359.6
1587.54395	22543.9
1590.87208	23648.3
1594.19801	25495
1597.52172	27559.3
1600.84321	28396.4
1604.16251	27316.4
1607.47959	25112.9
1610.79447	22583.7
1614.10715	20337.4
1617.41763	18600.6
1620.7259	17453.2
1624.03199	16929
1627.33587	16986
1630.63757	17560.1
1633.93707	18648.3
1637.23439	20377.5
1640.52951	22900.4
1643.82246	25807.1
1647.11321	28385.7
1650.40179	29377.1
1653.68819	27676.5
1656.97241	23900.2
1660.25446	19974.9
1663.53433	17148.4
1666.81203	15448.5
1670.08756	14413.2
1673.36092	13808.1
1676.63211	13420.6
1679.90115	13123.8
1683.16801	12891.9
1686.43272	12751.7
1689.69527	12598.1
1692.95567	12479.2
1696.2139	12279.1
1699.46999	12160.6
1702.72392	12094.7
1705.97571	12160.9
1709.22535	12210.1
1712.47284	12285
1715.71819	12323.2
1718.96139	12287.3
1722.20246	12234
1725.44139	12162.7
1728.67818	12086.5
1731.91284	12002.5
1735.14537	11964.5
1738.37576	11900.2
1741.60403	11858.4
1744.83017	11811.6
1748.05418	11736.4
1751.27607	11682.1
1754.49584	11611.2
1757.71349	11514.9
1760.92903	11491.1
1764.14244	11468.6
1767.35375	11492.8
1770.56294	11483.5
1773.77002	11462.6
1776.97499	11485.4
1780.17785	11532.1
1783.37861	11555
1786.57727	11538.8
1789.77382	11535.4
1792.96828	11527.1
1796.16064	11514.4
1799.3509	11533.5
1802.53907	11494.3
1805.72514	11462.1
1808.90913	11419.7
1812.09102	11390.5
1815.27083	11415
1818.44856	11396.9
1821.6242	11381.5
1824.79776	11367.7
1827.96924	11320.4
1831.13864	11315.4
1834.30597	11330
1837.47122	11316
1840.6344	11300.2
1843.7955	11313.9
1846.95454	11322.8
1850.11151	11325.1
1853.26642	11301.1
1856.41926	11329.3
1859.57004	11313.5
1862.71876	11306.4
1865.86542	11300.3
1869.01003	11331.7
1872.15258	11296.8
1875.29308	11313.2
1878.43152	11299.5
1881.56792	11340.7
1884.70227	11339.3
1887.83457	11322.6
1890.96482	11325.6
1894.09304	11318.7
1897.21921	11315.6
1900.34335	11301.9
1903.46544	11308.3
1906.58551	11303.9
1909.70353	11289.5
1912.81953	11266.5
1915.93349	11263.5
1919.04543	11251.5
1922.15534	11215.5
1925.26322	11198.9
1928.36908	11142.7
1931.47292	11112.3
1934.57473	11055.3
1937.67453	11036.5
1940.77232	11019.2
1943.86808	10981.7
1946.96184	10948.1
1950.05358	10903.5
1953.14331	10856
1956.23103	10812.9
1959.31675	10767.6
1962.40046	10741
1965.48217	10730.9
1968.56188	10731
1971.63959	10695.6
1974.7153	10685.8
1977.78901	10646.8
1980.86073	10560.4
1983.93046	10536.5
1986.99819	10507.8
1990.06394	10471.2
1993.1277	10482.1
1996.18947	10425.6
1999.24925	10372.6
2002.30706	10336.2
2005.36288	10322.9
2008.41672	10306.5
2011.46859	10263.2
2014.51848	10225
2017.56639	10213.9
2020.61233	10191.7
2023.6563	10184.3
2026.6983	10147.1
2029.73833	10136.3
2032.7764	10113.8
2035.8125	10089.4
2038.84664	10094.6
2041.87881	10083.6
2044.90903	10096.7
2047.93729	10046.9
2050.96359	10033
2053.98794	10024.3
2057.01034	10029.4
2060.03078	9990.7
2063.04927	9996.8
2066.06582	9974.3
2069.08042	9983.8
2072.09307	9974.2
2075.10378	9938.3
2078.11255	9956.4
2081.11938	9962.9
2084.12426	9962.1
2087.12722	9949.1
2090.12824	9944.7
2093.12732	9925.7
2096.12447	9929.9
2099.11969	9943.4
2102.11299	9937.5
2105.10435	9944.9
2108.09379	9937.5
2111.08131	9928.5
2114.0669	9924.4
2117.05057	9946
2120.03233	9962.3
2123.01216	9989.8
2125.99008	9995.6
2128.96609	10006.3
2131.94018	10007.1
2134.91236	9989.5
2137.88263	10000.9
2140.851	10008.3
2143.81746	10020.5
2146.78201	10004.9
2149.74466	10026.8
2152.7054	10015.3
2155.66425	9996.1
2158.6212	10031.1
2161.57625	9989.7
2164.52941	9998.4
2167.48067	10007.6
2170.43004	9988.1
2173.37752	9981.4
2176.32311	9985.3
2179.26681	9989.1
2182.20863	9988.3
2185.14856	10022.2
2188.08661	10006
2191.02278	10031.4
2193.95707	10023.9
2196.88948	10006
2199.82001	10001.3
2202.74867	10008.5
2205.67545	10002.9
2208.60037	10013.6
2211.52341	9999.5
2214.44458	9982.7
2217.36388	9942.9
2220.28132	9972.6
2223.1969	9940.7
2226.11061	9933.7
2229.02246	9918.3
2231.93245	9908.8
2234.84058	9861
2237.74686	9820.2
2240.65128	9852.3
2243.55385	9819.2
2246.45456	9819
2249.35343	9789.7
2252.25044	9796.1
2255.14561	9790.8
2258.03893	9749.8
2260.93041	9733.6
2263.82004	9702.9
2266.70783	9709.9
2269.59378	9698.1
2272.4779	9678.2
2275.36017	9643.9
2278.24061	9640.2
2281.11922	9608.8
2283.996	9629.9
2286.87094	9607.2
2289.74405	9557.1
2292.61534	9582.7
2295.4848	9594.1
2298.35243	9570.6
2301.21824	9575
2304.08223	9586.5
2306.94439	9579.7
2309.80474	9610.6
2312.66327	9607.3
2315.51999	9602.3
2318.37489	9625.1
2321.22797	9624.3
2324.07925	9608.5
2326.92871	9594.3
2329.77637	9575.6
2332.62222	9576.6
2335.46626	9566
2338.3085	9553.3
2341.14893	9590.7
2343.98756	9579.8
2346.8244	9616.7
2349.65943	9627.5
2352.49267	9611.9
2355.32411	9649.2
2358.15376	9622.8
2360.98161	9611.2
2363.80768	9586.3
2366.63195	9603.8
2369.45444	9570.2
2372.27514	9539.2
2375.09405	9532.7
2377.91118	9515.4
2380.72652	9478.1
2383.54009	9453.5
2386.35187	9438
2389.16188	9428.4
2391.97011	9408.2
2394.77657	9387.5
2397.58125	9375.5
2400.38416	9378.4
2403.18529	9350.1
2405.98466	9356.9
2408.78226	9311
2411.57809	9283.1
2414.37216	9265.3
2417.16446	9274.2
2419.955	9272.5
2422.74378	9258.2
2425.5308	9213.5
2428.31606	9233.2
2431.09956	9240.7
2433.88131	9213.1
2436.6613	9232.2
2439.43954	9242.9
2442.21603	9239.6
2444.99077	9233.1
2447.76377	9235.7
2450.53501	9235.2
2453.30451	9231.3
2456.07226	9229
2458.83827	9227.6
2461.60254	9196.8
2464.36507	9195.2
2467.12586	9187.1
2469.88492	9183.8
2472.64224	9210.2
2475.39782	9226.3
2478.15167	9212.5
2480.90379	9246.3
2483.65417	9266.4
2486.40283	9270.9
2489.14976	9289.9
2491.89497	9306.7
2494.63845	9296.4
2497.3802	9291.1
2500.12024	9309
2502.85855	9288.2
2505.59514	9289.7
2508.33002	9262.8
2511.06318	9256.3
2513.79462	9219.1
2516.52435	9215.2
2519.25237	9207.3
2521.97867	9200.8
2524.70327	9156.2
2527.42616	9170.3
2530.14734	9176.1
2532.86681	9171.6
2535.58458	9187.1
2538.30065	9178.5
2541.01501	9182.9
2543.72768	9172
2546.43864	9149.9
2549.14791	9153.1
2551.85548	9159.1
2554.56136	9133.4
2557.26554	9120.3
2559.96803	9101.2
2562.66883	9111.1
2565.36794	9096.1
2568.06536	9121.9
2570.7611	9109.7
2573.45514	9103.8
2576.14751	9106.8
2578.83819	9105.8
2581.52719	9098.5
2584.21451	9066.8
2586.90015	9079.5
2589.58411	9067.1
2592.2664	9076
2594.94701	9075.5
2597.62594	9096.3
2600.30321	9064.3
2602.9788	9073.1
2605.65273	9081
2608.32498	9089.8
2610.99557	9110.5
2613.66449	9083.1
2616.33175	9072.2
2618.99734	9078.6
2621.66128	9101.6
2624.32355	9103.6
2626.98416	9100.2
2629.64311	9091.2
2632.30041	9091.7
2634.95605	9061.8
2637.61004	9054.2
2640.26238	9039
2642.91306	9032.7
2645.56209	9021.9
2648.20948	9012.5
2650.85521	8971.3
2653.4993	8981.7
2656.14175	9008.4
2658.78255	9024
2661.42171	9015.6
2664.05923	9059.6
2666.6951	9048.3
2669.32934	9066
2671.96194	9069.3
2674.59291	9084.7
2677.22224	9072.1
2679.84993	9063.9
2682.476	9053.5
2685.10043	9067.2
2687.72324	9039.7
2690.34441	9041.7
2692.96396	9033.5
2695.58188	9022.9
2698.19818	9013
2700.81285	9009.9
2703.4259	8967.4
2706.03733	8876.3
2708.64714	8916.9
2711.25533	8978.5
2713.86191	9026.5
2716.46687	9038.4
2719.07021	9059.2
2721.67194	9082.6
2724.27206	9056.8
2726.87057	9054.6
2729.46747	9068
2732.06276	9082.1
2734.65644	9065.6
2737.24852	9082.4
2739.83899	9075.3
2742.42786	9038
2745.01513	9049.6
2747.60079	9075.4
2750.18486	9044.7
2752.76733	9025.2
2755.3482	9020.4
2757.92747	9002.8
2760.50515	9037.7
2763.08123	9007
2765.65573	9026.4
2768.22863	8999.8
2770.79994	9003.6
2773.36967	9011.7
2775.9378	9015.7
2778.50435	9037.4
2781.06932	9034.7
2783.6327	9020.9
2786.1945	9014.2
2788.75471	9021.9
2791.31335	8986.1
2793.87041	8961.9
2796.42589	8944.7
2798.97979	8938.1
2801.53212	8937.9
2804.08288	8913.5
2806.63206	8910.2
2809.17967	8908.9
2811.72571	8890.3
2814.27018	8876.9
2816.81308	8878.8
2819.35442	8894.4
2821.89419	8876.9
2824.43239	8874.7
2826.96904	8871.5
2829.50412	8879.7
2832.03763	8863
2834.56959	8880.8
2837.1	8829.6
2839.62884	8855.2
2842.15613	8830.7
2844.68186	8874.8
2847.20604	8863
2849.72867	8848.5
2852.24974	8853.1
2854.76927	8848.3
2857.28724	8802.8
2859.80367	8821.5
2862.31855	8822.3
2864.83189	8802.2
2867.34368	8830.1
2869.85393	8852.8
2872.36264	8836.6
2874.8698	8827.4
2877.37543	8833.1
2879.87952	8845.3
2882.38207	8850.6
2884.88308	8850.9
2887.38256	8853.4
2889.88051	8854
2892.37692	8831.5
2894.8718	8868.4
2897.36515	8850.9
2899.85698	8876.9
2902.34727	8897.8
2904.83604	8892.4
2907.32328	8912.1
2909.809	8891.2
2912.29319	8935.3
2914.77587	8953.1
2917.25702	8912.4
2919.73665	8906.8
2922.21476	8884
2924.69136	8889.1
2927.16644	8876.5
2929.64	8877.3
2932.11205	8868.5
2934.58258	8810.7
2937.05161	8838.4
2939.51912	8829.3
2941.98513	8811.1
2944.44962	8780.1
2946.91261	8772.8
2949.37409	8773.8
2951.83407	8783.3
2954.29254	8782
2956.74951	8767.8
2959.20498	8740.4
2961.65895	8734.8
2964.11142	8737.6
2966.56239	8711
2969.01186	8721
2971.45984	8684.9
2973.90632	8690.2
2976.35131	8665.8
2978.7948	8647.4
2981.23681	8626.7
2983.67732	8616.6
2986.11635	8599.9
2988.55388	8569.6
2990.98993	8538.8
2993.4245	8553.5
2995.85758	8534.9
2998.28917	8494.3
3000.71928	8470.4
3003.14791	8467.3
3005.57506	8470.2
3008.00073	8416.3
3010.42493	8403.8
3012.84764	8391.2
3015.26888	8382.8
3017.68865	8372.1
3020.10694	8387.7
3022.52376	8342.5
3024.9391	8337.6
3027.35298	8306.3
3029.76539	8328.2
3032.17632	8327.1
3034.5858	8308.7
3036.9938	8304.9
3039.40034	8292.7
3041.80542	8282.1
3044.20903	8258.6
3046.61118	8275.8
3049.01187	8236
3051.4111	8264.2
3053.80888	8233.9
3056.20519	8219
3058.60005	8219.3
3060.99345	8197.5
3063.3854	8161.7
3065.7759	8152.8
3068.16494	8138.3
3070.55254	8127.1
3072.93868	8076.4
3075.32338	8067.6
3077.70662	8037.8
3080.08842	8031.7
3082.46878	8024.7
3084.84769	7996.1
3087.22515	8021
3089.60118	8016.6
3091.97576	8012.4
3094.3489	8020.6
3096.72061	8005.4
3099.09087	8019.2
3101.4597	8016.9
3103.82709	8018.4
3106.19305	7992.5
3108.55757	7991.6
3110.92066	7958.1
3113.28232	7980.4
3115.64255	7916.9
3118.00134	7934.2
3120.35871	7908.2
3122.71466	7898.3
3125.06917	7904.1
3127.42226	7873.8
3129.77393	7899.5
3132.12417	7867.6
3134.47299	7873
3136.82039	7882.9
3139.16636	7868.9
3141.51092	7896.5
3143.85406	7883.5
3146.19579	7892.7
3148.53609	7867.9
3150.87499	7881.6
3153.21246	7880.4
3155.54853	7910.2
3157.88318	7876.6
3160.21642	7897.1
3162.54826	7885.7
3164.87868	7890.3
3167.2077	7913.5
3169.5353	7874.4
3171.86151	7889.5
3174.18631	7861.1
3176.5097	7869.1
3178.83169	7862.9
3181.15228	7874.6
3183.47147	7875.1
3185.78926	7862.2
3188.10565	7840.6
3190.42065	7848.9
3192.73424	7861.4
3195.04645	7832
3197.35725	7846.1
3199.66667	7857.8
3201.97469	7878.2
3204.28132	7875.3
3206.58656	7876.8
3208.8904	7899.1
3211.19287	7901.2
3213.49394	7885.9
3215.79363	7895.3
3218.09193	7919.9
3220.38884	7902.6
3222.68438	7861
3224.97853	7867.1
3227.2713	7877.3
3229.56269	7871.9
3231.8527	7921.7
3234.14133	7898.9
3236.42858	7887.6
3238.71446	7875.4
3240.99896	7856.1
3243.28209	7841.7
3245.56384	7845.8
3247.84423	7839.3
3250.12324	7818.8
3252.40088	7825.6
3254.67715	7836.5
3256.95205	7811.9
3259.22558	7803.2
3261.49775	7803.3
3263.76855	7816.1
3266.03799	7807
3268.30606	7777.1
3270.57277	7780.7
3272.83812	7754.4
3275.10211	7740.8
3277.36474	7737.7
3279.62601	7737.6
3281.88593	7728.1
3284.14448	7746.5
3286.40168	7726.4
3288.65753	7733
3290.91202	7721.4
3293.16516	7694.3
3295.41695	7696.1
3297.66738	7664.9
3299.91647	7607.6
3302.16421	7564.6
3304.4106	7537
3306.65564	7510.8
3308.89933	7455.2
3311.14169	7390.1
3313.38269	7349.1
3315.62236	7290.5
3317.86068	7256.2
3320.09766	7187.9
3322.3333	7164.9
3324.5676	7117.4
3326.80056	6968.9
3329.03219	6946.4
3331.26248	2.3
3333.49143	-0.4
3335.71905	-0.2
