Data from AgNPs_FTO_APTES_UA_50uM_CRN_5uM_R6G_10uM_NaF_0.1M_Addition_RamanShift__16__12-51-14-829.txt Node

Date: Mon Feb 21 12:51:14 GMT 2022
User: TCL
Spectrometer: QEP01345
Trigger mode: 4
Integration Time (sec): 7.000000E0
Scans to average: 10
Electric dark correction enabled: true
Nonlinearity correction enabled: false
Boxcar width: 0
XAxis mode: Raman Shifts
Number of Pixels in Spectrum: 1044
>>>>>Begin Spectral Data<<<<<
46.04893	0.0375
50.45542	-1.3625
54.85868	0.3375
59.25871	-2.5625
63.6555	50.3375
68.04907	57.3375
72.43941	57.8375
76.82654	63.5375
81.21044	64.0375
85.59113	64.9375
89.96862	71.8375
94.34289	74.8375
98.71396	71.7375
103.08183	79.6375
107.4465	76.2375
111.80798	81.1375
116.16626	81.6375
120.52136	84.4375
124.87327	89.1375
129.222	89.3375
133.56755	93.3375
137.90993	102.4375
142.24913	108.9375
146.58517	122.4375
150.91804	135.7375
155.24774	168.3375
159.57429	208.9375
163.89768	256.8375
168.21792	346.8375
172.53501	462.5375
176.84895	648.8375
181.15975	910.5375
185.46741	1274.0375
189.77193	1770.3375
194.07331	2369.9375
198.37157	3030.1375
202.6667	3754.7375
206.9587	4473.1375
211.24758	5201.7375
215.53334	5959.0375
219.81599	6812.7375
224.09553	7771.0375
228.37195	8851.0375
232.64527	9989.0375
236.91549	11146.0375
241.18261	12162.0375
245.44663	12986.0375
249.70755	13607.7375
253.96539	14109.8375
258.22014	14536.8375
262.4718	14955.4375
266.72039	15215.2375
270.96589	15310.4375
275.20832	15210.8375
279.44768	14953.6375
283.68397	14586.3375
287.91719	14394.2375
292.14735	14320.0375
296.37445	14555.0375
300.59849	15013.3375
304.81948	15568.4375
309.03742	15948.4375
313.25231	15861.6375
317.46415	15191.0375
321.67296	14184.5375
325.87872	13343.6375
330.08145	12934.4375
334.28114	12902.1375
338.47781	13110.2375
342.67145	13381.7375
346.86207	13824.6375
351.04966	14483.4375
355.23424	15267.1375
359.4158	15890.5375
363.59435	16258.2375
367.76989	16374.8375
371.94243	16325.5375
376.11196	16253.3375
380.27849	16212.1375
384.44203	16122.0375
388.60257	16011.3375
392.76012	15918.7375
396.91468	16030.6375
401.06626	16335.2375
405.21485	16555.1375
409.36047	16236.9375
413.50311	15431.5375
417.64277	14698.3375
421.77947	14298.9375
425.9132	14129.4375
430.04396	14071.6375
434.17176	14132.8375
438.2966	14291.3375
442.41849	14596.7375
446.53742	15037.6375
450.6534	15489.0375
454.76644	15732.6375
458.87653	15775.1375
462.98368	15708.2375
467.08789	15500.8375
471.18916	15241.7375
475.2875	14975.4375
479.38291	14744.4375
483.4754	14559.8375
487.56496	14352.8375
491.6516	14215.9375
495.73531	14085.2375
499.81612	14090.4375
503.89401	14232.4375
507.96899	14370.1375
512.04106	14499.1375
516.11023	14625.1375
520.1765	14673.6375
524.23987	14602.7375
528.30034	14436.0375
532.35792	14233.2375
536.41261	14032.1375
540.46441	13748.6375
544.51333	13613.3375
548.55936	13708.3375
552.60252	14006.5375
556.64279	14399.8375
560.6802	14691.8375
564.71473	14993.0375
568.7464	15596.4375
572.7752	16055.3375
576.80114	15852.7375
580.82422	15465.7375
584.84444	15401.1375
588.86181	15525.4375
592.87633	15775.0375
596.888	15919.2375
600.89682	16050.0375
604.9028	17441.3375
608.90594	21766.9375
612.90624	27132.9375
616.90371	25356.8375
620.89834	18055.3375
624.89015	14631.8375
628.87913	14056.5375
632.86528	14305.1375
636.84862	14597.9375
640.82913	14457.4375
644.80683	13772.8375
648.78172	13211.4375
652.75379	13154.2375
656.72306	13642.6375
660.68952	14308.3375
664.65319	14105.5375
668.61405	13474.2375
672.57211	13281.8375
676.52738	13384.7375
680.47986	13501.3375
684.42955	13470.5375
688.37646	13441.6375
692.32058	13464.0375
696.26192	13494.4375
700.20048	13564.4375
704.13626	13554.2375
708.06928	13405.0375
711.99952	13246.9375
715.927	13197.8375
719.85171	13233.8375
723.77365	13244.3375
727.69284	13098.1375
731.60928	12902.1375
735.52295	12864.6375
739.43388	12914.3375
743.34206	12996.2375
747.24749	13043.6375
751.15017	13079.5375
755.05012	13306.0375
758.94733	13961.4375
762.8418	15509.8375
766.73354	18187.2375
770.62254	20989.8375
774.50882	22184.2375
778.39237	21126.1375
782.27321	18425.6375
786.15132	15869.7375
790.02671	14196.2375
793.89938	13442.5375
797.76935	13075.1375
801.6366	12911.4375
805.50115	12797.4375
809.36299	12700.1375
813.22213	12586.9375
817.07857	12508.4375
820.93231	12491.0375
824.78336	12432.2375
828.63172	12443.2375
832.47738	12441.4375
836.32036	12391.8375
840.16066	12307.6375
843.99827	12291.4375
847.8332	12270.1375
851.66546	12250.5375
855.49504	12273.2375
859.32195	12293.1375
863.1462	12254.2375
866.96777	12260.6375
870.78668	12215.0375
874.60293	12211.9375
878.41652	12233.5375
882.22745	12350.6375
886.03573	12454.1375
889.84136	12432.6375
893.64433	12399.3375
897.44466	12369.7375
901.24235	12279.2375
905.0374	12202.8375
908.8298	12060.2375
912.61957	11962.9375
916.40671	11984.7375
920.19121	12095.1375
923.97308	12242.6375
927.75233	12381.3375
931.52895	12500.8375
935.30295	12347.9375
939.07433	11986.1375
942.84309	11700.5375
946.60924	11523.1375
950.37278	11436.6375
954.13371	11386.2375
957.89203	11372.1375
961.64774	11334.9375
965.40086	11320.4375
969.15137	11265.4375
972.89929	11244.2375
976.64461	11215.5375
980.38733	11200.0375
984.12747	11217.7375
987.86502	11276.6375
991.59999	11396.0375
995.33237	11554.9375
999.06217	11824.7375
1002.78939	12181.2375
1006.51404	12544.8375
1010.23611	12840.4375
1013.95561	12986.7375
1017.67255	12996.2375
1021.38692	12835.5375
1025.09872	12559.3375
1028.80796	12379.8375
1032.51465	12397.3375
1036.21877	12498.1375
1039.92035	12596.5375
1043.61937	12611.0375
1047.31584	12569.0375
1051.00976	12507.8375
1054.70114	12425.7375
1058.38998	12424.3375
1062.07627	12470.9375
1065.76003	12543.9375
1069.44126	12698.1375
1073.11995	12916.7375
1076.79611	13234.6375
1080.46974	13499.6375
1084.14085	13843.4375
1087.80943	14238.5375
1091.47549	14441.1375
1095.13903	14349.5375
1098.80005	13886.3375
1102.45857	13516.9375
1106.11456	13295.7375
1109.76805	13291.5375
1113.41903	13515.6375
1117.06751	13937.5375
1120.71348	14494.1375
1124.35696	15114.3375
1127.99793	15678.9375
1131.63641	15728.1375
1135.2724	15113.2375
1138.90589	14521.4375
1142.5369	14113.5375
1146.16542	13839.9375
1149.79145	13706.2375
1153.415	13672.2375
1157.03607	13790.7375
1160.65467	14123.6375
1164.27079	14770.9375
1167.88443	15744.9375
1171.49561	17169.4375
1175.10432	19314.8375
1178.71056	22193.8375
1182.31434	24824.6375
1185.91565	25800.9375
1189.51451	25169.7375
1193.11091	23703.1375
1196.70485	21999.3375
1200.29634	20599.7375
1203.88538	19405.2375
1207.47197	18133.7375
1211.05612	17106.1375
1214.63782	16421.6375
1218.21708	16129.1375
1221.79391	16089.7375
1225.36829	16138.3375
1228.94024	16051.1375
1232.50976	15752.6375
1236.07685	15473.0375
1239.6415	15328.7375
1243.20374	15278.9375
1246.76355	15297.6375
1250.32093	15498.9375
1253.8759	15880.0375
1257.42845	16445.8375
1260.97859	17158.1375
1264.52631	17964.0375
1268.07163	18751.7375
1271.61453	19479.5375
1275.15503	20052.8375
1278.69312	20496.9375
1282.22882	20842.3375
1285.76211	21431.1375
1289.29301	22302.4375
1292.82151	23301.9375
1296.34761	24545.8375
1299.87133	26158.2375
1303.39266	28544.5375
1306.9116	31707.3375
1310.42815	34934.5375
1313.94233	36354.2375
1317.45412	35298.0375
1320.96354	32953.0375
1324.47058	30682.5375
1327.97525	28728.0375
1331.47754	27421.3375
1334.97747	26828.3375
1338.47502	26655.7375
1341.97022	27006.2375
1345.46305	27726.0375
1348.95352	28886.2375
1352.44163	30497.2375
1355.92738	33049.5375
1359.41078	37122.5375
1362.89183	41217.4375
1366.37053	40291.2375
1369.84688	34094.7375
1373.32088	28000.5375
1376.79254	24403.5375
1380.26186	22525.6375
1383.72883	21564.6375
1387.19347	20840.9375
1390.65578	20267.4375
1394.11575	19890.7375
1397.57339	19759.5375
1401.0287	19797.9375
1404.48168	19851.0375
1407.93234	19749.6375
1411.38068	19515.5375
1414.82669	19121.5375
1418.27039	18703.7375
1421.71177	18154.7375
1425.15083	17718.6375
1428.58758	17458.4375
1432.02203	17615.7375
1435.45416	18049.1375
1438.88399	18349.4375
1442.31151	18514.4375
1445.73673	18699.9375
1449.15965	18939.6375
1452.58027	19112.4375
1455.9986	19191.3375
1459.41463	19336.8375
1462.82837	19665.3375
1466.23982	20098.0375
1469.64898	20438.5375
1473.05586	20620.3375
1476.46045	20538.2375
1479.86276	20476.8375
1483.26279	20616.3375
1486.66054	20925.1375
1490.05602	21483.6375
1493.44922	22386.2375
1496.84016	23839.0375
1500.22882	26257.6375
1503.61521	29771.5375
1506.99934	33874.8375
1510.38121	37110.1375
1513.76081	37439.5375
1517.13816	34535.0375
1520.51324	29948.8375
1523.88607	26026.3375
1527.25665	23544.5375
1530.62498	22210.3375
1533.99105	21393.1375
1537.35488	20813.5375
1540.71647	20301.0375
1544.07581	19824.2375
1547.4329	19510.8375
1550.78776	19341.4375
1554.14038	19316.0375
1557.49077	19475.8375
1560.83892	19836.1375
1564.18484	20419.4375
1567.52853	21202.2375
1570.86999	21902.5375
1574.20922	22401.5375
1577.54624	22347.4375
1580.88103	21391.9375
1584.2136	20168.2375
1587.54395	19681.5375
1590.87208	20094.3375
1594.19801	21247.8375
1597.52172	22649.9375
1600.84321	23048.7375
1604.16251	21949.3375
1607.47959	20252.4375
1610.79447	18527.3375
1614.10715	16939.2375
1617.41763	15582.0375
1620.7259	14685.2375
1624.03199	14208.4375
1627.33587	14244.7375
1630.63757	14729.6375
1633.93707	15814.4375
1637.23439	17578.8375
1640.52951	20280.1375
1643.82246	23768.1375
1647.11321	27429.1375
1650.40179	29426.1375
1653.68819	27909.9375
1656.97241	23499.1375
1660.25446	18844.7375
1663.53433	15590.2375
1666.81203	13647.5375
1670.08756	12546.1375
1673.36092	11863.8375
1676.63211	11441.8375
1679.90115	11154.6375
1683.16801	10906.0375
1686.43272	10759.7375
1689.69527	10619.3375
1692.95567	10484.7375
1696.2139	10312.4375
1699.46999	10189.7375
1702.72392	10123.4375
1705.97571	10178.0375
1709.22535	10202.8375
1712.47284	10249.3375
1715.71819	10215.8375
1718.96139	10184.2375
1722.20246	10123.7375
1725.44139	10036.3375
1728.67818	9930.6375
1731.91284	9845.7375
1735.14537	9748.0375
1738.37576	9694.5375
1741.60403	9618.2375
1744.83017	9576.2375
1748.05418	9511.5375
1751.27607	9467.9375
1754.49584	9402.6375
1757.71349	9338.5375
1760.92903	9257.6375
1764.14244	9211.7375
1767.35375	9195.9375
1770.56294	9151.0375
1773.77002	9147.4375
1776.97499	9140.2375
1780.17785	9198.3375
1783.37861	9192.2375
1786.57727	9168.6375
1789.77382	9139.7375
1792.96828	9161.4375
1796.16064	9133.1375
1799.3509	9093.6375
1802.53907	9060.2375
1805.72514	9047.0375
1808.90913	9031.6375
1812.09102	8975.0375
1815.27083	8966.2375
1818.44856	8938.3375
1821.6242	8934.3375
1824.79776	8929.8375
1827.96924	8941.2375
1831.13864	8924.5375
1834.30597	8905.0375
1837.47122	8921.6375
1840.6344	8891.6375
1843.7955	8892.3375
1846.95454	8896.2375
1850.11151	8889.3375
1853.26642	8872.2375
1856.41926	8868.2375
1859.57004	8848.3375
1862.71876	8856.0375
1865.86542	8872.4375
1869.01003	8824.2375
1872.15258	8832.8375
1875.29308	8804.5375
1878.43152	8797.7375
1881.56792	8824.6375
1884.70227	8803.2375
1887.83457	8776.2375
1890.96482	8790.4375
1894.09304	8732.4375
1897.21921	8739.7375
1900.34335	8732.7375
1903.46544	8728.9375
1906.58551	8726.0375
1909.70353	8711.8375
1912.81953	8693.3375
1915.93349	8702.6375
1919.04543	8629.9375
1922.15534	8608.5375
1925.26322	8577.4375
1928.36908	8526.0375
1931.47292	8487.5375
1934.57473	8432.2375
1937.67453	8449.5375
1940.77232	8383.2375
1943.86808	8361.9375
1946.96184	8360.3375
1950.05358	8328.2375
1953.14331	8311.8375
1956.23103	8265.7375
1959.31675	8254.4375
1962.40046	8236.7375
1965.48217	8215.3375
1968.56188	8211.1375
1971.63959	8170.7375
1974.7153	8147.2375
1977.78901	8134.8375
1980.86073	8118.2375
1983.93046	8056.2375
1986.99819	8007.0375
1990.06394	7999.6375
1993.1277	7983.4375
1996.18947	7938.7375
1999.24925	7901.3375
2002.30706	7891.7375
2005.36288	7866.6375
2008.41672	7850.6375
2011.46859	7809.7375
2014.51848	7795.8375
2017.56639	7752.3375
2020.61233	7735.2375
2023.6563	7726.6375
2026.6983	7712.0375
2029.73833	7679.4375
2032.7764	7681.3375
2035.8125	7665.9375
2038.84664	7647.5375
2041.87881	7651.1375
2044.90903	7609.2375
2047.93729	7609.8375
2050.96359	7594.4375
2053.98794	7590.4375
2057.01034	7574.2375
2060.03078	7578.1375
2063.04927	7545.0375
2066.06582	7584.1375
2069.08042	7538.9375
2072.09307	7563.0375
2075.10378	7524.3375
2078.11255	7525.0375
2081.11938	7531.9375
2084.12426	7515.6375
2087.12722	7525.9375
2090.12824	7524.7375
2093.12732	7515.5375
2096.12447	7536.4375
2099.11969	7510.8375
2102.11299	7501.3375
2105.10435	7547.2375
2108.09379	7541.2375
2111.08131	7554.5375
2114.0669	7535.2375
2117.05057	7569.3375
2120.03233	7564.9375
2123.01216	7541.4375
2125.99008	7558.4375
2128.96609	7566.1375
2131.94018	7566.1375
2134.91236	7560.9375
2137.88263	7572.3375
2140.851	7551.2375
2143.81746	7564.7375
2146.78201	7541.8375
2149.74466	7522.9375
2152.7054	7521.2375
2155.66425	7526.9375
2158.6212	7520.2375
2161.57625	7520.3375
2164.52941	7517.2375
2167.48067	7492.0375
2170.43004	7492.6375
2173.37752	7481.3375
2176.32311	7501.7375
2179.26681	7496.4375
2182.20863	7502.6375
2185.14856	7512.4375
2188.08661	7492.1375
2191.02278	7510.3375
2193.95707	7481.1375
2196.88948	7490.8375
2199.82001	7474.6375
2202.74867	7467.1375
2205.67545	7452.4375
2208.60037	7428.1375
2211.52341	7424.7375
2214.44458	7427.7375
2217.36388	7410.5375
2220.28132	7376.7375
2223.1969	7363.1375
2226.11061	7363.7375
2229.02246	7341.8375
2231.93245	7321.9375
2234.84058	7316.0375
2237.74686	7300.8375
2240.65128	7287.6375
2243.55385	7295.9375
2246.45456	7315.7375
2249.35343	7283.3375
2252.25044	7279.3375
2255.14561	7263.8375
2258.03893	7278.4375
2260.93041	7231.8375
2263.82004	7238.5375
2266.70783	7221.8375
2269.59378	7225.9375
2272.4779	7194.8375
2275.36017	7156.5375
2278.24061	7162.0375
2281.11922	7143.9375
2283.996	7140.0375
2286.87094	7121.9375
2289.74405	7107.9375
2292.61534	7069.9375
2295.4848	7078.5375
2298.35243	7076.6375
2301.21824	7068.4375
2304.08223	7081.0375
2306.94439	7064.5375
2309.80474	7051.9375
2312.66327	7044.9375
2315.51999	7050.9375
2318.37489	7041.3375
2321.22797	7025.8375
2324.07925	7020.2375
2326.92871	7027.6375
2329.77637	7008.5375
2332.62222	6992.6375
2335.46626	6977.7375
2338.3085	6996.3375
2341.14893	6988.8375
2343.98756	6991.0375
2346.8244	7012.2375
2349.65943	7006.2375
2352.49267	7033.3375
2355.32411	7030.8375
2358.15376	7041.7375
2360.98161	7039.8375
2363.80768	7042.4375
2366.63195	7061.5375
2369.45444	7047.9375
2372.27514	7041.3375
2375.09405	7036.7375
2377.91118	7012.0375
2380.72652	7001.5375
2383.54009	6957.2375
2386.35187	6955.8375
2389.16188	6924.9375
2391.97011	6886.2375
2394.77657	6872.8375
2397.58125	6854.3375
2400.38416	6835.8375
2403.18529	6818.9375
2405.98466	6809.1375
2408.78226	6791.6375
2411.57809	6817.2375
2414.37216	6781.4375
2417.16446	6778.7375
2419.955	6769.3375
2422.74378	6769.6375
2425.5308	6762.3375
2428.31606	6771.0375
2431.09956	6775.7375
2433.88131	6755.4375
2436.6613	6766.9375
2439.43954	6778.7375
2442.21603	6766.3375
2444.99077	6767.3375
2447.76377	6769.2375
2450.53501	6778.4375
2453.30451	6767.0375
2456.07226	6772.0375
2458.83827	6759.3375
2461.60254	6765.5375
2464.36507	6743.0375
2467.12586	6761.8375
2469.88492	6765.9375
2472.64224	6759.6375
2475.39782	6757.5375
2478.15167	6748.9375
2480.90379	6776.4375
2483.65417	6807.9375
2486.40283	6804.2375
2489.14976	6817.3375
2491.89497	6841.4375
2494.63845	6818.7375
2497.3802	6814.6375
2500.12024	6803.0375
2502.85855	6785.2375
2505.59514	6789.1375
2508.33002	6745.7375
2511.06318	6729.8375
2513.79462	6716.2375
2516.52435	6711.0375
2519.25237	6682.5375
2521.97867	6661.7375
2524.70327	6649.6375
2527.42616	6625.3375
2530.14734	6646.7375
2532.86681	6621.4375
2535.58458	6628.4375
2538.30065	6619.3375
2541.01501	6627.8375
2543.72768	6611.9375
2546.43864	6619.6375
2549.14791	6629.4375
2551.85548	6602.6375
2554.56136	6598.5375
2557.26554	6602.8375
2559.96803	6603.5375
2562.66883	6600.4375
2565.36794	6593.6375
2568.06536	6589.2375
2570.7611	6582.1375
2573.45514	6562.4375
2576.14751	6577.0375
2578.83819	6547.0375
2581.52719	6549.2375
2584.21451	6507.3375
2586.90015	6525.1375
2589.58411	6516.7375
2592.2664	6514.5375
2594.94701	6510.7375
2597.62594	6511.1375
2600.30321	6511.9375
2602.9788	6489.2375
2605.65273	6490.6375
2608.32498	6509.7375
2610.99557	6488.8375
2613.66449	6502.2375
2616.33175	6510.4375
2618.99734	6503.5375
2621.66128	6508.3375
2624.32355	6493.9375
2626.98416	6461.8375
2629.64311	6452.6375
2632.30041	6464.9375
2634.95605	6446.3375
2637.61004	6441.5375
2640.26238	6426.7375
2642.91306	6403.7375
2645.56209	6410.8375
2648.20948	6400.3375
2650.85521	6404.0375
2653.4993	6421.7375
2656.14175	6420.2375
2658.78255	6455.9375
2661.42171	6447.3375
2664.05923	6458.2375
2666.6951	6469.8375
2669.32934	6466.8375
2671.96194	6468.2375
2674.59291	6491.0375
2677.22224	6471.5375
2679.84993	6465.3375
2682.476	6450.5375
2685.10043	6460.6375
2687.72324	6456.6375
2690.34441	6448.5375
2692.96396	6444.4375
2695.58188	6424.8375
2698.19818	6411.0375
2700.81285	6443.2375
2703.4259	6404.3375
2706.03733	6341.0375
2708.64714	6383.3375
2711.25533	6408.2375
2713.86191	6435.7375
2716.46687	6445.8375
2719.07021	6434.5375
2721.67194	6453.5375
2724.27206	6451.7375
2726.87057	6465.5375
2729.46747	6467.2375
2732.06276	6471.5375
2734.65644	6444.0375
2737.24852	6451.2375
2739.83899	6437.2375
2742.42786	6441.2375
2745.01513	6437.9375
2747.60079	6449.3375
2750.18486	6405.6375
2752.76733	6413.4375
2755.3482	6386.5375
2757.92747	6396.6375
2760.50515	6385.9375
2763.08123	6383.9375
2765.65573	6385.1375
2768.22863	6375.5375
2770.79994	6370.8375
2773.36967	6369.6375
2775.9378	6374.6375
2778.50435	6367.4375
2781.06932	6355.6375
2783.6327	6367.6375
2786.1945	6365.6375
2788.75471	6360.3375
2791.31335	6366.5375
2793.87041	6349.2375
2796.42589	6336.6375
2798.97979	6320.6375
2801.53212	6316.1375
2804.08288	6300.7375
2806.63206	6309.7375
2809.17967	6313.4375
2811.72571	6294.2375
2814.27018	6306.2375
2816.81308	6292.5375
2819.35442	6295.6375
2821.89419	6278.2375
2824.43239	6315.2375
2826.96904	6287.3375
2829.50412	6301.1375
2832.03763	6288.8375
2834.56959	6281.2375
2837.1	6253.5375
2839.62884	6256.3375
2842.15613	6259.9375
2844.68186	6270.7375
2847.20604	6279.6375
2849.72867	6273.6375
2852.24974	6281.7375
2854.76927	6267.9375
2857.28724	6255.9375
2859.80367	6284.1375
2862.31855	6305.5375
2864.83189	6316.4375
2867.34368	6300.0375
2869.85393	6347.8375
2872.36264	6344.7375
2874.8698	6355.8375
2877.37543	6362.5375
2879.87952	6346.5375
2882.38207	6341.5375
2884.88308	6350.4375
2887.38256	6354.5375
2889.88051	6341.6375
2892.37692	6348.2375
2894.8718	6351.9375
2897.36515	6370.5375
2899.85698	6334.5375
2902.34727	6387.1375
2904.83604	6394.3375
2907.32328	6402.0375
2909.809	6396.4375
2912.29319	6410.5375
2914.77587	6382.0375
2917.25702	6395.2375
2919.73665	6395.0375
2922.21476	6424.5375
2924.69136	6404.6375
2927.16644	6374.0375
2929.64	6342.0375
2932.11205	6343.8375
2934.58258	6297.2375
2937.05161	6305.1375
2939.51912	6316.5375
2941.98513	6288.5375
2944.44962	6285.0375
2946.91261	6241.9375
2949.37409	6260.4375
2951.83407	6247.6375
2954.29254	6248.3375
2956.74951	6228.9375
2959.20498	6227.5375
2961.65895	6214.3375
2964.11142	6194.8375
2966.56239	6178.5375
2969.01186	6155.0375
2971.45984	6146.7375
2973.90632	6116.5375
2976.35131	6112.9375
2978.7948	6101.7375
2981.23681	6091.9375
2983.67732	6080.8375
2986.11635	6052.4375
2988.55388	6029.6375
2990.98993	6033.5375
2993.4245	6024.1375
2995.85758	6021.1375
2998.28917	6006.9375
3000.71928	5990.7375
3003.14791	5981.5375
3005.57506	5980.9375
3008.00073	5963.2375
3010.42493	5953.3375
3012.84764	5973.3375
3015.26888	5942.2375
3017.68865	5933.4375
3020.10694	5920.5375
3022.52376	5898.7375
3024.9391	5895.2375
3027.35298	5909.5375
3029.76539	5878.0375
3032.17632	5889.2375
3034.5858	5873.1375
3036.9938	5854.8375
3039.40034	5839.4375
3041.80542	5835.8375
3044.20903	5818.6375
3046.61118	5820.7375
3049.01187	5823.6375
3051.4111	5811.6375
3053.80888	5793.5375
3056.20519	5813.1375
3058.60005	5786.6375
3060.99345	5775.7375
3063.3854	5750.6375
3065.7759	5759.1375
3068.16494	5741.6375
3070.55254	5713.5375
3072.93868	5687.0375
3075.32338	5679.7375
3077.70662	5670.9375
3080.08842	5671.9375
3082.46878	5659.3375
3084.84769	5646.4375
3087.22515	5648.1375
3089.60118	5642.9375
3091.97576	5645.0375
3094.3489	5644.0375
3096.72061	5646.3375
3099.09087	5632.8375
3101.4597	5655.6375
3103.82709	5644.4375
3106.19305	5637.2375
3108.55757	5638.2375
3110.92066	5623.0375
3113.28232	5626.2375
3115.64255	5594.4375
3118.00134	5603.3375
3120.35871	5599.0375
3122.71466	5567.0375
3125.06917	5569.5375
3127.42226	5559.1375
3129.77393	5577.9375
3132.12417	5568.0375
3134.47299	5568.6375
3136.82039	5567.1375
3139.16636	5565.5375
3141.51092	5575.2375
3143.85406	5568.1375
3146.19579	5593.3375
3148.53609	5605.5375
3150.87499	5600.0375
3153.21246	5597.2375
3155.54853	5620.7375
3157.88318	5593.5375
3160.21642	5601.8375
3162.54826	5613.2375
3164.87868	5626.3375
3167.2077	5627.7375
3169.5353	5629.1375
3171.86151	5656.6375
3174.18631	5624.1375
3176.5097	5614.4375
3178.83169	5633.1375
3181.15228	5603.9375
3183.47147	5601.8375
3185.78926	5620.3375
3188.10565	5604.1375
3190.42065	5597.5375
3192.73424	5614.4375
3195.04645	5611.0375
3197.35725	5623.6375
3199.66667	5617.1375
3201.97469	5636.7375
3204.28132	5620.4375
3206.58656	5640.7375
3208.8904	5642.6375
3211.19287	5658.2375
3213.49394	5664.6375
3215.79363	5660.1375
3218.09193	5656.8375
3220.38884	5668.8375
3222.68438	5629.6375
3224.97853	5648.3375
3227.2713	5664.4375
3229.56269	5672.8375
3231.8527	5671.9375
3234.14133	5665.1375
3236.42858	5651.0375
3238.71446	5657.8375
3240.99896	5642.9375
3243.28209	5636.9375
3245.56384	5623.9375
3247.84423	5621.6375
3250.12324	5620.6375
3252.40088	5622.7375
3254.67715	5629.6375
3256.95205	5612.8375
3259.22558	5620.0375
3261.49775	5613.2375
3263.76855	5637.5375
3266.03799	5606.6375
3268.30606	5603.3375
3270.57277	5603.5375
3272.83812	5578.8375
3275.10211	5587.7375
3277.36474	5575.1375
3279.62601	5595.2375
3281.88593	5595.3375
3284.14448	5580.7375
3286.40168	5601.7375
3288.65753	5590.1375
3290.91202	5592.0375
3293.16516	5610.1375
3295.41695	5597.8375
3297.66738	5563.4375
3299.91647	5553.5375
3302.16421	5505.5375
3304.4106	5483.4375
3306.65564	5443.2375
3308.89933	5402.3375
3311.14169	5383.6375
3313.38269	5316.8375
3315.62236	5285.0375
3317.86068	5246.0375
3320.09766	5206.7375
3322.3333	5168.6375
3324.5676	5165.4375
3326.80056	5051.2375
3329.03219	5027.9375
3331.26248	1.4375
3333.49143	-0.1625
3335.71905	1.5375
