Data from AgNPs_FTO_APTES_UA_50uM_CRN_10uM_R6G_10uM_NaF_0.1M_Addition_RamanShift__27__13-44-54-897.txt Node

Date: Mon Feb 21 13:44:54 GMT 2022
User: TCL
Spectrometer: QEP01345
Trigger mode: 4
Integration Time (sec): 7.000000E0
Scans to average: 10
Electric dark correction enabled: true
Nonlinearity correction enabled: false
Boxcar width: 0
XAxis mode: Raman Shifts
Number of Pixels in Spectrum: 1044
>>>>>Begin Spectral Data<<<<<
46.04893	1.0375
50.45542	-1.1625
54.85868	-0.8625
59.25871	-0.7625
63.6555	68.7375
68.04907	75.4375
72.43941	75.5375
76.82654	77.8375
81.21044	84.1375
85.59113	87.3375
89.96862	88.4375
94.34289	94.1375
98.71396	95.8375
103.08183	101.4375
107.4465	105.4375
111.80798	105.7375
116.16626	103.8375
120.52136	109.2375
124.87327	118.0375
129.222	115.6375
133.56755	127.5375
137.90993	138.1375
142.24913	151.5375
146.58517	164.2375
150.91804	192.6375
155.24774	229.1375
159.57429	287.3375
163.89768	370.8375
168.21792	495.0375
172.53501	683.1375
176.84895	942.4375
181.15975	1323.8375
185.46741	1860.3375
189.77193	2588.4375
194.07331	3469.1375
198.37157	4476.3375
202.6667	5547.4375
206.9587	6648.4375
211.24758	7791.1375
215.53334	9031.4375
219.81599	10394.5375
224.09553	11972.7375
228.37195	13737.1375
232.64527	15653.5375
236.91549	17428.4375
241.18261	18965.6375
245.44663	20141.0375
249.70755	21001.7375
253.96539	21743.9375
258.22014	22388.2375
262.4718	22862.4375
266.72039	23128.6375
270.96589	23061.9375
275.20832	22672.9375
279.44768	22048.1375
283.68397	21470.2375
287.91719	21206.5375
292.14735	21381.9375
296.37445	22211.5375
300.59849	23583.8375
304.81948	25259.8375
309.03742	26567.8375
313.25231	26738.1375
317.46415	25198.3375
321.67296	22690.7375
325.87872	20525.5375
330.08145	19519.3375
334.28114	19553.6375
338.47781	20029.5375
342.67145	20825.8375
346.86207	22076.1375
351.04966	23962.1375
355.23424	26091.9375
359.4158	27599.5375
363.59435	28152.9375
367.76989	28129.8375
371.94243	27742.7375
376.11196	27310.2375
380.27849	26919.1375
384.44203	26348.2375
388.60257	25774.1375
392.76012	25433.0375
396.91468	25577.1375
401.06626	26307.9375
405.21485	26827.9375
409.36047	26028.9375
413.50311	24115.8375
417.64277	22261.8375
421.77947	21165.4375
425.9132	20694.2375
430.04396	20557.4375
434.17176	20693.2375
438.2966	21081.9375
442.41849	21821.1375
446.53742	22671.5375
450.6534	23518.3375
454.76644	23927.6375
458.87653	23929.1375
462.98368	23571.7375
467.08789	23014.0375
471.18916	22348.5375
475.2875	21561.2375
479.38291	20928.4375
483.4754	20428.0375
487.56496	20066.2375
491.6516	19750.1375
495.73531	19593.9375
499.81612	19663.0375
503.89401	20050.1375
507.96899	20458.8375
512.04106	20957.0375
516.11023	21511.3375
520.1765	21833.5375
524.23987	21832.1375
528.30034	21430.7375
532.35792	21002.5375
536.41261	20437.4375
540.46441	19831.5375
544.51333	19519.3375
548.55936	19643.4375
552.60252	20256.3375
556.64279	20996.5375
560.6802	21428.7375
564.71473	22117.5375
568.7464	23601.6375
572.7752	24216.0375
576.80114	22892.2375
580.82422	21508.6375
584.84444	21044.3375
588.86181	21135.6375
592.87633	21574.5375
596.888	22079.5375
600.89682	23137.7375
604.9028	27011.0375
608.90594	37884.1375
612.90624	51751.4375
616.90371	48490.8375
620.89834	30795.5375
624.89015	22770.9375
628.87913	21402.7375
632.86528	21820.6375
636.84862	22293.9375
640.82913	21596.4375
644.80683	19945.4375
648.78172	18811.5375
652.75379	18862.1375
656.72306	20087.2375
660.68952	21582.4375
664.65319	21100.1375
668.61405	19492.9375
672.57211	18787.0375
676.52738	18776.4375
680.47986	18759.3375
684.42955	18467.8375
688.37646	18300.4375
692.32058	18372.0375
696.26192	18613.3375
700.20048	18912.9375
704.13626	19130.3375
708.06928	19009.0375
711.99952	18709.7375
715.927	18687.6375
719.85171	18881.1375
723.77365	19015.2375
727.69284	18788.6375
731.60928	18520.6375
735.52295	18508.2375
739.43388	18625.2375
743.34206	18806.4375
747.24749	18855.0375
751.15017	19039.4375
755.05012	19546.7375
758.94733	21149.5375
762.8418	25063.8375
766.73354	31396.1375
770.62254	37251.3375
774.50882	39993.7375
778.39237	37890.6375
782.27321	31447.4375
786.15132	25027.8375
790.02671	21337.9375
793.89938	19628.6375
797.76935	18987.4375
801.6366	18703.4375
805.50115	18494.3375
809.36299	18381.1375
813.22213	18261.2375
817.07857	18220.7375
820.93231	18143.1375
824.78336	18254.6375
828.63172	18426.4375
832.47738	18489.5375
836.32036	18447.3375
840.16066	18257.6375
843.99827	18203.4375
847.8332	18101.3375
851.66546	18023.9375
855.49504	18016.5375
859.32195	17984.2375
863.1462	17868.7375
866.96777	17740.9375
870.78668	17759.4375
874.60293	17832.6375
878.41652	17948.7375
882.22745	18128.8375
886.03573	18305.5375
889.84136	18278.8375
893.64433	18133.8375
897.44466	18144.4375
901.24235	18154.1375
905.0374	17978.9375
908.8298	17773.2375
912.61957	17658.8375
916.40671	17702.5375
920.19121	17933.3375
923.97308	18278.7375
927.75233	18753.2375
931.52895	19180.2375
935.30295	18880.7375
939.07433	18045.3375
942.84309	17352.6375
946.60924	16967.1375
950.37278	16816.1375
954.13371	16651.8375
957.89203	16564.5375
961.64774	16520.1375
965.40086	16468.7375
969.15137	16370.3375
972.89929	16303.7375
976.64461	16287.3375
980.38733	16327.7375
984.12747	16416.3375
987.86502	16536.4375
991.59999	16839.2375
995.33237	17281.9375
999.06217	18026.1375
1002.78939	18967.1375
1006.51404	19732.4375
1010.23611	20283.0375
1013.95561	20556.1375
1017.67255	20461.8375
1021.38692	20144.7375
1025.09872	19764.6375
1028.80796	19828.1375
1032.51465	20392.7375
1036.21877	20920.6375
1039.92035	21100.8375
1043.61937	20875.2375
1047.31584	20349.0375
1051.00976	19771.2375
1054.70114	19307.1375
1058.38998	19110.4375
1062.07627	19095.7375
1065.76003	19114.1375
1069.44126	19218.5375
1073.11995	19488.1375
1076.79611	19946.6375
1080.46974	20698.6375
1084.14085	21716.1375
1087.80943	22656.4375
1091.47549	22811.8375
1095.13903	22169.3375
1098.80005	21070.6375
1102.45857	20298.1375
1106.11456	20071.6375
1109.76805	20517.3375
1113.41903	21422.5375
1117.06751	22775.9375
1120.71348	24591.8375
1124.35696	26603.7375
1127.99793	27869.1375
1131.63641	26932.4375
1135.2724	24755.5375
1138.90589	22993.5375
1142.5369	21949.9375
1146.16542	21186.4375
1149.79145	20798.4375
1153.415	20753.7375
1157.03607	20975.6375
1160.65467	21612.5375
1164.27079	22799.4375
1167.88443	24564.7375
1171.49561	27333.6375
1175.10432	31792.8375
1178.71056	37870.0375
1182.31434	42733.8375
1185.91565	44075.7375
1189.51451	42233.2375
1193.11091	38692.6375
1196.70485	35056.5375
1200.29634	32450.3375
1203.88538	30284.8375
1207.47197	27812.1375
1211.05612	25683.4375
1214.63782	24494.4375
1218.21708	24129.4375
1221.79391	24218.3375
1225.36829	24362.8375
1228.94024	24216.0375
1232.50976	23882.9375
1236.07685	23682.2375
1239.6415	23604.5375
1243.20374	23724.1375
1246.76355	23917.8375
1250.32093	24371.3375
1253.8759	25139.5375
1257.42845	26347.4375
1260.97859	27650.5375
1264.52631	28937.8375
1268.07163	30178.7375
1271.61453	31379.1375
1275.15503	32202.1375
1278.69312	32834.2375
1282.22882	33602.8375
1285.76211	34798.7375
1289.29301	36258.0375
1292.82151	37791.2375
1296.34761	39660.7375
1299.87133	42730.7375
1303.39266	48088.9375
1306.9116	56047.5375
1310.42815	64019.0375
1313.94233	66709.2375
1317.45412	62435.7375
1320.96354	55338.3375
1324.47058	48924.3375
1327.97525	44084.0375
1331.47754	41404.6375
1334.97747	40632.0375
1338.47502	41454.8375
1341.97022	43437.5375
1345.46305	46453.1375
1348.95352	50165.6375
1352.44163	54829.9375
1355.92738	62171.5375
1359.41078	73914.9375
1362.89183	83134.6375
1366.37053	77082.8375
1369.84688	61206.8375
1373.32088	48213.7375
1376.79254	40855.1375
1380.26186	36990.6375
1383.72883	34632.6375
1387.19347	32795.8375
1390.65578	31240.4375
1394.11575	30322.2375
1397.57339	30187.5375
1401.0287	30469.5375
1404.48168	30961.7375
1407.93234	31436.4375
1411.38068	31937.9375
1414.82669	32037.2375
1418.27039	31564.7375
1421.71177	30689.6375
1425.15083	29831.3375
1428.58758	29527.0375
1432.02203	29998.8375
1435.45416	30452.1375
1438.88399	30473.7375
1442.31151	30475.5375
1445.73673	30657.4375
1449.15965	31020.0375
1452.58027	30959.9375
1455.9986	30650.5375
1459.41463	30677.0375
1462.82837	31185.7375
1466.23982	32119.9375
1469.64898	33130.0375
1473.05586	33534.7375
1476.46045	33752.9375
1479.86276	34221.9375
1483.26279	35027.7375
1486.66054	36222.0375
1490.05602	38004.5375
1493.44922	40522.3375
1496.84016	44427.6375
1500.22882	50650.3375
1503.61521	59603.7375
1506.99934	69888.6375
1510.38121	77476.5375
1513.76081	77517.4375
1517.13816	69231.5375
1520.51324	57359.6375
1523.88607	47438.8375
1527.25665	41359.9375
1530.62498	38055.2375
1533.99105	36138.3375
1537.35488	34856.9375
1540.71647	34134.5375
1544.07581	33866.7375
1547.4329	33915.7375
1550.78776	33988.0375
1554.14038	34169.2375
1557.49077	34602.9375
1560.83892	35401.5375
1564.18484	36727.7375
1567.52853	38388.0375
1570.86999	39518.3375
1574.20922	39999.5375
1577.54624	39239.3375
1580.88103	36521.2375
1584.2136	33322.8375
1587.54395	32022.2375
1590.87208	32909.4375
1594.19801	35694.9375
1597.52172	39178.1375
1600.84321	40552.2375
1604.16251	38785.7375
1607.47959	35485.4375
1610.79447	31920.7375
1614.10715	28667.5375
1617.41763	26226.5375
1620.7259	24705.3375
1624.03199	24159.5375
1627.33587	24432.4375
1630.63757	25518.0375
1633.93707	27666.9375
1637.23439	30927.2375
1640.52951	35769.7375
1643.82246	42459.4375
1647.11321	49716.2375
1650.40179	53467.4375
1653.68819	49890.6375
1656.97241	40792.4375
1660.25446	32005.9375
1663.53433	26100.9375
1666.81203	22763.5375
1670.08756	20844.8375
1673.36092	19764.6375
1676.63211	18991.0375
1679.90115	18502.3375
1683.16801	18090.3375
1686.43272	17801.9375
1689.69527	17602.7375
1692.95567	17397.0375
1696.2139	17219.5375
1699.46999	17069.3375
1702.72392	17044.0375
1705.97571	17070.0375
1709.22535	17135.4375
1712.47284	17194.3375
1715.71819	17215.1375
1718.96139	17181.3375
1722.20246	17084.2375
1725.44139	16952.4375
1728.67818	16738.4375
1731.91284	16592.6375
1735.14537	16456.3375
1738.37576	16377.8375
1741.60403	16306.0375
1744.83017	16210.8375
1748.05418	16179.8375
1751.27607	16070.3375
1754.49584	15985.8375
1757.71349	15917.8375
1760.92903	15851.1375
1764.14244	15799.2375
1767.35375	15741.1375
1770.56294	15719.2375
1773.77002	15657.4375
1776.97499	15655.7375
1780.17785	15644.4375
1783.37861	15604.9375
1786.57727	15590.0375
1789.77382	15562.9375
1792.96828	15573.5375
1796.16064	15530.9375
1799.3509	15523.7375
1802.53907	15489.9375
1805.72514	15454.1375
1808.90913	15379.1375
1812.09102	15336.1375
1815.27083	15300.4375
1818.44856	15235.9375
1821.6242	15240.2375
1824.79776	15241.0375
1827.96924	15213.8375
1831.13864	15197.5375
1834.30597	15186.5375
1837.47122	15143.4375
1840.6344	15164.9375
1843.7955	15143.9375
1846.95454	15116.9375
1850.11151	15121.1375
1853.26642	15127.2375
1856.41926	15138.4375
1859.57004	15141.1375
1862.71876	15183.9375
1865.86542	15192.1375
1869.01003	15175.2375
1872.15258	15190.8375
1875.29308	15220.8375
1878.43152	15199.5375
1881.56792	15210.8375
1884.70227	15275.3375
1887.83457	15240.6375
1890.96482	15235.8375
1894.09304	15241.7375
1897.21921	15252.8375
1900.34335	15282.9375
1903.46544	15299.9375
1906.58551	15274.6375
1909.70353	15305.3375
1912.81953	15272.2375
1915.93349	15258.5375
1919.04543	15203.1375
1922.15534	15192.9375
1925.26322	15114.4375
1928.36908	15066.1375
1931.47292	14979.5375
1934.57473	14932.8375
1937.67453	14852.7375
1940.77232	14802.0375
1943.86808	14710.0375
1946.96184	14676.3375
1950.05358	14642.9375
1953.14331	14576.0375
1956.23103	14520.0375
1959.31675	14514.1375
1962.40046	14452.5375
1965.48217	14412.1375
1968.56188	14424.3375
1971.63959	14359.9375
1974.7153	14370.7375
1977.78901	14321.1375
1980.86073	14248.1375
1983.93046	14182.6375
1986.99819	14119.1375
1990.06394	14051.1375
1993.1277	14007.4375
1996.18947	13957.2375
1999.24925	13912.0375
2002.30706	13865.2375
2005.36288	13818.8375
2008.41672	13784.5375
2011.46859	13735.6375
2014.51848	13690.9375
2017.56639	13665.9375
2020.61233	13626.5375
2023.6563	13593.4375
2026.6983	13581.2375
2029.73833	13563.8375
2032.7764	13521.8375
2035.8125	13537.9375
2038.84664	13508.2375
2041.87881	13517.0375
2044.90903	13493.0375
2047.93729	13458.8375
2050.96359	13436.8375
2053.98794	13431.1375
2057.01034	13421.2375
2060.03078	13362.7375
2063.04927	13339.5375
2066.06582	13332.0375
2069.08042	13311.9375
2072.09307	13279.2375
2075.10378	13272.0375
2078.11255	13279.8375
2081.11938	13285.5375
2084.12426	13259.3375
2087.12722	13262.0375
2090.12824	13251.4375
2093.12732	13225.3375
2096.12447	13233.3375
2099.11969	13224.1375
2102.11299	13241.2375
2105.10435	13244.5375
2108.09379	13229.6375
2111.08131	13269.1375
2114.0669	13274.4375
2117.05057	13303.3375
2120.03233	13318.9375
2123.01216	13340.4375
2125.99008	13381.8375
2128.96609	13364.4375
2131.94018	13398.4375
2134.91236	13357.5375
2137.88263	13357.1375
2140.851	13338.8375
2143.81746	13359.3375
2146.78201	13340.4375
2149.74466	13349.0375
2152.7054	13340.8375
2155.66425	13306.5375
2158.6212	13289.1375
2161.57625	13290.5375
2164.52941	13309.9375
2167.48067	13285.8375
2170.43004	13287.5375
2173.37752	13280.0375
2176.32311	13308.1375
2179.26681	13329.4375
2182.20863	13305.2375
2185.14856	13324.2375
2188.08661	13308.9375
2191.02278	13325.2375
2193.95707	13302.3375
2196.88948	13275.2375
2199.82001	13292.4375
2202.74867	13314.3375
2205.67545	13323.8375
2208.60037	13308.8375
2211.52341	13309.2375
2214.44458	13274.8375
2217.36388	13230.6375
2220.28132	13214.3375
2223.1969	13183.5375
2226.11061	13185.6375
2229.02246	13146.9375
2231.93245	13124.5375
2234.84058	13088.6375
2237.74686	13073.3375
2240.65128	13072.3375
2243.55385	13031.1375
2246.45456	13044.5375
2249.35343	13043.4375
2252.25044	13055.2375
2255.14561	13071.2375
2258.03893	13063.0375
2260.93041	13089.0375
2263.82004	13061.9375
2266.70783	13046.4375
2269.59378	12989.1375
2272.4779	12969.7375
2275.36017	12927.7375
2278.24061	12923.8375
2281.11922	12869.9375
2283.996	12856.4375
2286.87094	12826.0375
2289.74405	12781.5375
2292.61534	12763.3375
2295.4848	12774.9375
2298.35243	12748.2375
2301.21824	12731.4375
2304.08223	12768.0375
2306.94439	12789.9375
2309.80474	12807.3375
2312.66327	12844.8375
2315.51999	12806.6375
2318.37489	12802.3375
2321.22797	12805.6375
2324.07925	12770.3375
2326.92871	12777.2375
2329.77637	12764.5375
2332.62222	12761.0375
2335.46626	12756.2375
2338.3085	12770.4375
2341.14893	12802.9375
2343.98756	12867.4375
2346.8244	12846.2375
2349.65943	12845.5375
2352.49267	12880.9375
2355.32411	12883.2375
2358.15376	12954.4375
2360.98161	12966.2375
2363.80768	12948.6375
2366.63195	12953.9375
2369.45444	12931.8375
2372.27514	12944.0375
2375.09405	12925.0375
2377.91118	12894.0375
2380.72652	12835.6375
2383.54009	12779.4375
2386.35187	12712.5375
2389.16188	12662.9375
2391.97011	12644.4375
2394.77657	12595.0375
2397.58125	12548.8375
2400.38416	12538.7375
2403.18529	12513.4375
2405.98466	12454.0375
2408.78226	12444.5375
2411.57809	12388.5375
2414.37216	12365.5375
2417.16446	12375.9375
2419.955	12374.0375
2422.74378	12350.6375
2425.5308	12339.8375
2428.31606	12377.1375
2431.09956	12338.5375
2433.88131	12357.8375
2436.6613	12379.0375
2439.43954	12403.6375
2442.21603	12412.0375
2444.99077	12380.9375
2447.76377	12403.8375
2450.53501	12427.2375
2453.30451	12444.3375
2456.07226	12455.3375
2458.83827	12446.5375
2461.60254	12460.1375
2464.36507	12446.1375
2467.12586	12450.7375
2469.88492	12440.7375
2472.64224	12444.2375
2475.39782	12467.8375
2478.15167	12469.1375
2480.90379	12546.3375
2483.65417	12618.0375
2486.40283	12654.7375
2489.14976	12690.9375
2491.89497	12696.9375
2494.63845	12744.5375
2497.3802	12693.1375
2500.12024	12686.9375
2502.85855	12643.1375
2505.59514	12641.2375
2508.33002	12594.6375
2511.06318	12516.6375
2513.79462	12446.2375
2516.52435	12410.9375
2519.25237	12334.2375
2521.97867	12301.6375
2524.70327	12308.6375
2527.42616	12278.2375
2530.14734	12318.4375
2532.86681	12290.6375
2535.58458	12321.7375
2538.30065	12317.1375
2541.01501	12310.3375
2543.72768	12316.5375
2546.43864	12291.8375
2549.14791	12324.6375
2551.85548	12306.4375
2554.56136	12325.3375
2557.26554	12293.4375
2559.96803	12294.3375
2562.66883	12273.8375
2565.36794	12280.5375
2568.06536	12287.8375
2570.7611	12266.6375
2573.45514	12258.3375
2576.14751	12272.4375
2578.83819	12246.3375
2581.52719	12262.5375
2584.21451	12229.6375
2586.90015	12254.4375
2589.58411	12208.1375
2592.2664	12207.5375
2594.94701	12239.7375
2597.62594	12248.8375
2600.30321	12248.1375
2602.9788	12235.8375
2605.65273	12219.5375
2608.32498	12231.4375
2610.99557	12232.2375
2613.66449	12272.1375
2616.33175	12282.8375
2618.99734	12307.9375
2621.66128	12325.2375
2624.32355	12310.9375
2626.98416	12290.8375
2629.64311	12262.5375
2632.30041	12271.8375
2634.95605	12238.0375
2637.61004	12225.1375
2640.26238	12205.2375
2642.91306	12181.8375
2645.56209	12177.3375
2648.20948	12147.0375
2650.85521	12124.2375
2653.4993	12133.3375
2656.14175	12163.7375
2658.78255	12183.8375
2661.42171	12174.0375
2664.05923	12200.1375
2666.6951	12234.1375
2669.32934	12269.6375
2671.96194	12258.7375
2674.59291	12286.1375
2677.22224	12302.8375
2679.84993	12279.9375
2682.476	12273.7375
2685.10043	12253.7375
2687.72324	12250.2375
2690.34441	12221.7375
2692.96396	12209.4375
2695.58188	12222.3375
2698.19818	12192.8375
2700.81285	12170.6375
2703.4259	12193.8375
2706.03733	12125.1375
2708.64714	12160.6375
2711.25533	12169.3375
2713.86191	12220.5375
2716.46687	12228.3375
2719.07021	12232.6375
2721.67194	12269.2375
2724.27206	12283.9375
2726.87057	12295.8375
2729.46747	12294.8375
2732.06276	12288.3375
2734.65644	12280.3375
2737.24852	12254.8375
2739.83899	12239.3375
2742.42786	12238.6375
2745.01513	12209.2375
2747.60079	12189.6375
2750.18486	12169.5375
2752.76733	12193.4375
2755.3482	12164.3375
2757.92747	12162.0375
2760.50515	12131.4375
2763.08123	12138.8375
2765.65573	12137.7375
2768.22863	12138.5375
2770.79994	12151.4375
2773.36967	12145.2375
2775.9378	12128.2375
2778.50435	12149.2375
2781.06932	12146.8375
2783.6327	12165.1375
2786.1945	12183.3375
2788.75471	12170.7375
2791.31335	12154.8375
2793.87041	12133.6375
2796.42589	12129.9375
2798.97979	12128.5375
2801.53212	12109.5375
2804.08288	12097.9375
2806.63206	12080.4375
2809.17967	12073.8375
2811.72571	12089.4375
2814.27018	12117.1375
2816.81308	12114.4375
2819.35442	12130.2375
2821.89419	12154.5375
2824.43239	12184.3375
2826.96904	12159.3375
2829.50412	12151.7375
2832.03763	12128.0375
2834.56959	12125.7375
2837.1	12159.8375
2839.62884	12123.0375
2842.15613	12112.8375
2844.68186	12127.9375
2847.20604	12154.2375
2849.72867	12163.4375
2852.24974	12155.9375
2854.76927	12145.4375
2857.28724	12166.0375
2859.80367	12158.4375
2862.31855	12204.5375
2864.83189	12188.4375
2867.34368	12224.3375
2869.85393	12267.9375
2872.36264	12217.4375
2874.8698	12244.2375
2877.37543	12225.9375
2879.87952	12236.9375
2882.38207	12214.1375
2884.88308	12199.2375
2887.38256	12195.5375
2889.88051	12184.3375
2892.37692	12186.4375
2894.8718	12188.0375
2897.36515	12209.5375
2899.85698	12208.3375
2902.34727	12231.6375
2904.83604	12248.7375
2907.32328	12241.9375
2909.809	12208.3375
2912.29319	12237.4375
2914.77587	12221.3375
2917.25702	12196.7375
2919.73665	12153.9375
2922.21476	12133.2375
2924.69136	12129.4375
2927.16644	12111.1375
2929.64	12066.6375
2932.11205	12027.5375
2934.58258	11968.1375
2937.05161	11967.8375
2939.51912	11978.1375
2941.98513	11987.5375
2944.44962	11990.9375
2946.91261	11936.8375
2949.37409	11953.8375
2951.83407	11929.7375
2954.29254	11926.1375
2956.74951	11910.4375
2959.20498	11897.5375
2961.65895	11863.6375
2964.11142	11864.6375
2966.56239	11847.9375
2969.01186	11807.1375
2971.45984	11781.7375
2973.90632	11741.6375
2976.35131	11709.9375
2978.7948	11676.0375
2981.23681	11681.9375
2983.67732	11673.3375
2986.11635	11610.0375
2988.55388	11573.0375
2990.98993	11579.7375
2993.4245	11559.3375
2995.85758	11553.1375
2998.28917	11508.9375
3000.71928	11510.3375
3003.14791	11498.5375
3005.57506	11482.2375
3008.00073	11466.4375
3010.42493	11442.0375
3012.84764	11405.3375
3015.26888	11407.5375
3017.68865	11373.8375
3020.10694	11384.2375
3022.52376	11322.8375
3024.9391	11305.1375
3027.35298	11286.3375
3029.76539	11235.9375
3032.17632	11225.9375
3034.5858	11168.7375
3036.9938	11177.4375
3039.40034	11142.8375
3041.80542	11137.7375
3044.20903	11142.4375
3046.61118	11118.4375
3049.01187	11077.7375
3051.4111	11070.2375
3053.80888	11063.7375
3056.20519	11039.2375
3058.60005	10996.2375
3060.99345	10970.7375
3063.3854	10949.8375
3065.7759	10892.6375
3068.16494	10877.7375
3070.55254	10801.4375
3072.93868	10762.2375
3075.32338	10738.7375
3077.70662	10724.0375
3080.08842	10687.3375
3082.46878	10685.3375
3084.84769	10651.8375
3087.22515	10628.0375
3089.60118	10636.4375
3091.97576	10624.6375
3094.3489	10647.2375
3096.72061	10629.1375
3099.09087	10592.0375
3101.4597	10590.5375
3103.82709	10604.7375
3106.19305	10599.0375
3108.55757	10571.9375
3110.92066	10562.9375
3113.28232	10533.3375
3115.64255	10509.5375
3118.00134	10478.1375
3120.35871	10498.5375
3122.71466	10435.6375
3125.06917	10418.4375
3127.42226	10407.6375
3129.77393	10425.7375
3132.12417	10417.3375
3134.47299	10417.1375
3136.82039	10397.9375
3139.16636	10404.1375
3141.51092	10384.4375
3143.85406	10398.3375
3146.19579	10380.8375
3148.53609	10357.1375
3150.87499	10394.4375
3153.21246	10398.7375
3155.54853	10428.9375
3157.88318	10394.5375
3160.21642	10413.7375
3162.54826	10444.4375
3164.87868	10411.6375
3167.2077	10409.3375
3169.5353	10396.9375
3171.86151	10382.8375
3174.18631	10387.7375
3176.5097	10343.2375
3178.83169	10341.2375
3181.15228	10357.1375
3183.47147	10319.3375
3185.78926	10331.4375
3188.10565	10330.1375
3190.42065	10343.0375
3192.73424	10344.2375
3195.04645	10359.1375
3197.35725	10324.8375
3199.66667	10346.1375
3201.97469	10348.3375
3204.28132	10373.4375
3206.58656	10377.9375
3208.8904	10397.2375
3211.19287	10412.7375
3213.49394	10422.8375
3215.79363	10432.8375
3218.09193	10467.4375
3220.38884	10434.3375
3222.68438	10427.5375
3224.97853	10438.9375
3227.2713	10436.1375
3229.56269	10409.6375
3231.8527	10418.8375
3234.14133	10410.2375
3236.42858	10409.4375
3238.71446	10399.9375
3240.99896	10381.5375
3243.28209	10373.9375
3245.56384	10374.2375
3247.84423	10381.6375
3250.12324	10357.7375
3252.40088	10345.4375
3254.67715	10354.0375
3256.95205	10347.0375
3259.22558	10333.5375
3261.49775	10314.4375
3263.76855	10351.6375
3266.03799	10342.9375
3268.30606	10326.1375
3270.57277	10330.3375
3272.83812	10309.7375
3275.10211	10289.1375
3277.36474	10280.4375
3279.62601	10248.9375
3281.88593	10271.3375
3284.14448	10272.5375
3286.40168	10306.1375
3288.65753	10287.1375
3290.91202	10272.9375
3293.16516	10259.5375
3295.41695	10241.6375
3297.66738	10180.8375
3299.91647	10158.1375
3302.16421	10082.2375
3304.4106	10024.7375
3306.65564	9953.5375
3308.89933	9898.9375
3311.14169	9818.7375
3313.38269	9708.8375
3315.62236	9649.8375
3317.86068	9585.6375
3320.09766	9473.3375
3322.3333	9425.8375
3324.5676	9377.2375
3326.80056	9219.3375
3329.03219	9152.8375
3331.26248	3.0375
3333.49143	-1.3625
3335.71905	0.3375
