Data from AgNPs_FTO_APTES_UA_50uM_CRN_20uM_R6G_10uM_NaF_0.1M_Addition_RamanShift__31__14-30-24-954.txt Node

Date: Mon Feb 21 14:30:24 GMT 2022
User: TCL
Spectrometer: QEP01345
Trigger mode: 4
Integration Time (sec): 7.000000E0
Scans to average: 10
Electric dark correction enabled: true
Nonlinearity correction enabled: false
Boxcar width: 0
XAxis mode: Raman Shifts
Number of Pixels in Spectrum: 1044
>>>>>Begin Spectral Data<<<<<
46.04893	0.6875
50.45542	-0.0125
54.85868	-0.2125
59.25871	-1.0125
63.6555	44.0875
68.04907	48.5875
72.43941	49.4875
76.82654	52.9875
81.21044	53.9875
85.59113	58.3875
89.96862	57.4875
94.34289	66.1875
98.71396	61.8875
103.08183	68.2875
107.4465	68.7875
111.80798	68.0875
116.16626	66.2875
120.52136	66.3875
124.87327	74.5875
129.222	68.3875
133.56755	73.0875
137.90993	78.6875
142.24913	83.7875
146.58517	83.0875
150.91804	98.9875
155.24774	115.9875
159.57429	132.0875
163.89768	166.4875
168.21792	215.4875
172.53501	287.5875
176.84895	400.2875
181.15975	546.6875
185.46741	760.8875
189.77193	1046.3875
194.07331	1389.4875
198.37157	1807.7875
202.6667	2220.9875
206.9587	2652.1875
211.24758	3095.1875
215.53334	3580.7875
219.81599	4120.5875
224.09553	4780.4875
228.37195	5510.2875
232.64527	6277.7875
236.91549	7061.1875
241.18261	7708.3875
245.44663	8182.1875
249.70755	8507.2875
253.96539	8724.3875
258.22014	8837.1875
262.4718	8941.0875
266.72039	9014.3875
270.96589	9010.8875
275.20832	8873.7875
279.44768	8642.8875
283.68397	8402.1875
287.91719	8285.8875
292.14735	8386.4875
296.37445	8844.6875
300.59849	9584.0875
304.81948	10467.8875
309.03742	11119.5875
313.25231	11177.1875
317.46415	10360.9875
321.67296	9021.7875
325.87872	7922.3875
330.08145	7450.4875
334.28114	7400.3875
338.47781	7647.2875
342.67145	8022.8875
346.86207	8652.2875
351.04966	9603.6875
355.23424	10682.9875
359.4158	11465.6875
363.59435	11754.0875
367.76989	11794.3875
371.94243	11627.2875
376.11196	11420.8875
380.27849	11212.9875
384.44203	10882.7875
388.60257	10486.4875
392.76012	10218.9875
396.91468	10273.9875
401.06626	10618.1875
405.21485	10877.2875
409.36047	10407.4875
413.50311	9359.4875
417.64277	8328.9875
421.77947	7736.8875
425.9132	7424.8875
430.04396	7300.0875
434.17176	7297.3875
438.2966	7495.9875
442.41849	7792.6875
446.53742	8125.1875
450.6534	8399.2875
454.76644	8520.7875
458.87653	8481.0875
462.98368	8305.0875
467.08789	8076.6875
471.18916	7752.7875
475.2875	7431.7875
479.38291	7153.3875
483.4754	6971.6875
487.56496	6842.8875
491.6516	6809.7875
495.73531	6807.9875
499.81612	6870.6875
503.89401	7084.0875
507.96899	7332.4875
512.04106	7659.2875
516.11023	7995.6875
520.1765	8230.5875
524.23987	8215.8875
528.30034	7899.2875
532.35792	7549.2875
536.41261	7205.3875
540.46441	6852.4875
544.51333	6618.9875
548.55936	6652.7875
552.60252	6919.3875
556.64279	7239.9875
560.6802	7381.8875
564.71473	7677.6875
568.7464	8407.9875
572.7752	8730.2875
576.80114	8086.9875
580.82422	7310.4875
584.84444	7017.2875
588.86181	6899.2875
592.87633	6916.3875
596.888	7051.9875
600.89682	7579.9875
604.9028	9524.1875
608.90594	14972.8875
612.90624	22481.7875
616.90371	21415.6875
620.89834	12268.4875
624.89015	8018.6875
628.87913	7211.4875
632.86528	7377.9875
636.84862	7728.1875
640.82913	7535.6875
644.80683	6815.8875
648.78172	6344.2875
652.75379	6400.9875
656.72306	7030.9875
660.68952	7810.4875
664.65319	7551.1875
668.61405	6673.9875
672.57211	6244.9875
676.52738	6200.5875
680.47986	6204.5875
684.42955	6068.7875
688.37646	5990.9875
692.32058	6022.9875
696.26192	6098.4875
700.20048	6242.1875
704.13626	6350.1875
708.06928	6311.1875
711.99952	6195.3875
715.927	6181.1875
719.85171	6265.9875
723.77365	6332.5875
727.69284	6253.2875
731.60928	6131.2875
735.52295	6142.1875
739.43388	6173.9875
743.34206	6226.3875
747.24749	6272.4875
751.15017	6300.2875
755.05012	6535.2875
758.94733	7213.7875
762.8418	8937.2875
766.73354	11868.0875
770.62254	14936.0875
774.50882	16757.1875
778.39237	16151.3875
782.27321	12919.5875
786.15132	9501.8875
790.02671	7589.3875
793.89938	6779.5875
797.76935	6465.1875
801.6366	6330.4875
805.50115	6248.2875
809.36299	6219.4875
813.22213	6159.1875
817.07857	6132.4875
820.93231	6106.5875
824.78336	6144.5875
828.63172	6189.2875
832.47738	6195.1875
836.32036	6145.7875
840.16066	6055.3875
843.99827	5986.3875
847.8332	5927.1875
851.66546	5930.0875
855.49504	5943.9875
859.32195	5942.4875
863.1462	5878.6875
866.96777	5836.9875
870.78668	5829.3875
874.60293	5875.3875
878.41652	5935.9875
882.22745	6039.9875
886.03573	6142.0875
889.84136	6106.9875
893.64433	6026.2875
897.44466	6028.9875
901.24235	6027.7875
905.0374	5962.8875
908.8298	5870.5875
912.61957	5795.0875
916.40671	5777.2875
920.19121	5842.6875
923.97308	5931.7875
927.75233	6171.3875
931.52895	6395.1875
935.30295	6304.4875
939.07433	5904.1875
942.84309	5573.6875
946.60924	5381.1875
950.37278	5270.2875
954.13371	5254.7875
957.89203	5216.3875
961.64774	5214.7875
965.40086	5171.8875
969.15137	5160.4875
972.89929	5135.1875
976.64461	5155.1875
980.38733	5143.6875
984.12747	5161.1875
987.86502	5166.4875
991.59999	5207.8875
995.33237	5301.8875
999.06217	5462.2875
1002.78939	5658.6875
1006.51404	5863.7875
1010.23611	6111.5875
1013.95561	6254.6875
1017.67255	6201.0875
1021.38692	6070.2875
1025.09872	5881.5875
1028.80796	5770.5875
1032.51465	5775.3875
1036.21877	5907.3875
1039.92035	6033.9875
1043.61937	6092.1875
1047.31584	6095.3875
1051.00976	6069.2875
1054.70114	5985.1875
1058.38998	5934.1875
1062.07627	5955.5875
1065.76003	5994.8875
1069.44126	6040.8875
1073.11995	6188.0875
1076.79611	6390.5875
1080.46974	6736.6875
1084.14085	7194.0875
1087.80943	7627.1875
1091.47549	7730.3875
1095.13903	7417.6875
1098.80005	6863.0875
1102.45857	6475.9875
1106.11456	6400.0875
1109.76805	6584.7875
1113.41903	7007.7875
1117.06751	7652.7875
1120.71348	8512.3875
1124.35696	9443.7875
1127.99793	10054.8875
1131.63641	9706.3875
1135.2724	8637.3875
1138.90589	7728.8875
1142.5369	7200.0875
1146.16542	6819.9875
1149.79145	6632.8875
1153.415	6561.4875
1157.03607	6626.7875
1160.65467	6869.9875
1164.27079	7286.9875
1167.88443	8013.5875
1171.49561	9230.1875
1175.10432	11339.0875
1178.71056	14134.0875
1182.31434	16124.8875
1185.91565	16320.4875
1189.51451	15283.1875
1193.11091	13546.6875
1196.70485	11789.4875
1200.29634	10692.0875
1203.88538	9873.6875
1207.47197	8795.6875
1211.05612	7850.4875
1214.63782	7297.1875
1218.21708	7065.4875
1221.79391	7006.5875
1225.36829	7033.2875
1228.94024	7049.4875
1232.50976	7046.4875
1236.07685	7085.3875
1239.6415	7123.7875
1243.20374	7196.2875
1246.76355	7269.1875
1250.32093	7405.3875
1253.8759	7625.4875
1257.42845	7998.5875
1260.97859	8462.1875
1264.52631	8942.8875
1268.07163	9451.3875
1271.61453	9880.1875
1275.15503	10162.4875
1278.69312	10181.3875
1282.22882	10268.6875
1285.76211	10657.8875
1289.29301	11253.7875
1292.82151	11831.4875
1296.34761	12487.8875
1299.87133	13656.3875
1303.39266	15756.8875
1306.9116	18983.6875
1310.42815	22281.9875
1313.94233	23508.5875
1317.45412	21686.3875
1320.96354	18647.6875
1324.47058	15704.0875
1327.97525	13443.3875
1331.47754	12192.2875
1334.97747	11769.6875
1338.47502	11944.4875
1341.97022	12743.7875
1345.46305	14213.7875
1348.95352	16328.0875
1352.44163	19073.5875
1355.92738	22914.5875
1359.41078	28416.8875
1362.89183	32635.5875
1366.37053	30288.9875
1369.84688	23758.6875
1373.32088	18010.6875
1376.79254	14338.5875
1380.26186	12264.3875
1383.72883	11100.2875
1387.19347	10191.7875
1390.65578	9321.8875
1394.11575	8708.7875
1397.57339	8406.1875
1401.0287	8331.5875
1404.48168	8348.0875
1407.93234	8444.1875
1411.38068	8550.7875
1414.82669	8688.9875
1418.27039	8716.5875
1421.71177	8590.7875
1425.15083	8438.4875
1428.58758	8367.2875
1432.02203	8508.3875
1435.45416	8626.5875
1438.88399	8628.0875
1442.31151	8558.1875
1445.73673	8644.6875
1449.15965	8698.0875
1452.58027	8657.4875
1455.9986	8521.1875
1459.41463	8465.4875
1462.82837	8629.9875
1466.23982	8960.7875
1469.64898	9282.8875
1473.05586	9465.5875
1476.46045	9617.8875
1479.86276	9879.0875
1483.26279	10329.1875
1486.66054	10931.3875
1490.05602	11804.2875
1493.44922	13094.0875
1496.84016	15193.7875
1500.22882	18512.9875
1503.61521	23014.7875
1506.99934	27807.7875
1510.38121	31486.0875
1513.76081	32006.5875
1517.13816	28475.1875
1520.51324	22637.1875
1523.88607	17590.7875
1527.25665	14410.6875
1530.62498	12668.4875
1533.99105	11657.6875
1537.35488	11022.4875
1540.71647	10701.7875
1544.07581	10661.4875
1547.4329	10758.8875
1550.78776	10856.2875
1554.14038	10979.9875
1557.49077	11158.9875
1560.83892	11567.8875
1564.18484	12283.5875
1567.52853	13211.0875
1570.86999	14002.9875
1574.20922	14379.3875
1577.54624	14145.1875
1580.88103	12720.2875
1584.2136	10887.0875
1587.54395	9805.1875
1590.87208	9671.6875
1594.19801	10351.4875
1597.52172	11462.0875
1600.84321	11932.4875
1604.16251	11323.9875
1607.47959	10337.6875
1610.79447	9325.3875
1614.10715	8348.2875
1617.41763	7607.0875
1620.7259	7188.7875
1624.03199	7004.5875
1627.33587	7072.2875
1630.63757	7372.9875
1633.93707	7896.3875
1637.23439	8846.5875
1640.52951	10401.6875
1643.82246	12789.4875
1647.11321	15928.8875
1650.40179	18263.2875
1653.68819	17579.3875
1656.97241	14227.9875
1660.25446	10689.6875
1663.53433	8342.1875
1666.81203	7077.8875
1670.08756	6362.9875
1673.36092	5958.1875
1676.63211	5695.3875
1679.90115	5525.2875
1683.16801	5370.4875
1686.43272	5256.9875
1689.69527	5160.8875
1692.95567	5059.7875
1696.2139	4960.1875
1699.46999	4832.5875
1702.72392	4808.1875
1705.97571	4869.0875
1709.22535	4937.6875
1712.47284	5021.6875
1715.71819	5055.6875
1718.96139	5074.8875
1722.20246	5052.4875
1725.44139	5012.2875
1728.67818	4940.0875
1731.91284	4859.8875
1735.14537	4812.7875
1738.37576	4748.1875
1741.60403	4714.2875
1744.83017	4664.1875
1748.05418	4642.0875
1751.27607	4586.3875
1754.49584	4542.4875
1757.71349	4478.3875
1760.92903	4423.8875
1764.14244	4394.3875
1767.35375	4379.8875
1770.56294	4369.4875
1773.77002	4339.2875
1776.97499	4348.0875
1780.17785	4380.4875
1783.37861	4386.8875
1786.57727	4383.6875
1789.77382	4379.6875
1792.96828	4379.9875
1796.16064	4385.9875
1799.3509	4355.1875
1802.53907	4369.9875
1805.72514	4343.0875
1808.90913	4319.9875
1812.09102	4289.8875
1815.27083	4287.6875
1818.44856	4279.1875
1821.6242	4246.9875
1824.79776	4256.4875
1827.96924	4246.5875
1831.13864	4218.4875
1834.30597	4210.0875
1837.47122	4210.6875
1840.6344	4198.5875
1843.7955	4188.7875
1846.95454	4177.0875
1850.11151	4177.3875
1853.26642	4173.4875
1856.41926	4175.0875
1859.57004	4166.8875
1862.71876	4182.5875
1865.86542	4164.4875
1869.01003	4176.8875
1872.15258	4168.5875
1875.29308	4185.2875
1878.43152	4182.3875
1881.56792	4172.6875
1884.70227	4175.8875
1887.83457	4169.9875
1890.96482	4184.4875
1894.09304	4177.4875
1897.21921	4181.4875
1900.34335	4163.6875
1903.46544	4173.9875
1906.58551	4179.1875
1909.70353	4161.2875
1912.81953	4185.7875
1915.93349	4191.6875
1919.04543	4165.2875
1922.15534	4155.4875
1925.26322	4137.1875
1928.36908	4114.9875
1931.47292	4113.1875
1934.57473	4088.1875
1937.67453	4068.6875
1940.77232	4036.2875
1943.86808	4000.6875
1946.96184	3999.8875
1950.05358	3960.9875
1953.14331	3963.9875
1956.23103	3956.4875
1959.31675	3942.0875
1962.40046	3942.3875
1965.48217	3936.7875
1968.56188	3927.9875
1971.63959	3920.6875
1974.7153	3914.8875
1977.78901	3904.4875
1980.86073	3878.5875
1983.93046	3846.9875
1986.99819	3822.4875
1990.06394	3817.8875
1993.1277	3794.6875
1996.18947	3792.3875
1999.24925	3765.5875
2002.30706	3750.3875
2005.36288	3743.1875
2008.41672	3739.1875
2011.46859	3691.8875
2014.51848	3701.5875
2017.56639	3683.7875
2020.61233	3671.2875
2023.6563	3676.2875
2026.6983	3632.5875
2029.73833	3632.4875
2032.7764	3612.6875
2035.8125	3614.6875
2038.84664	3630.2875
2041.87881	3613.6875
2044.90903	3603.2875
2047.93729	3583.6875
2050.96359	3584.4875
2053.98794	3576.7875
2057.01034	3573.4875
2060.03078	3571.7875
2063.04927	3562.8875
2066.06582	3555.3875
2069.08042	3556.7875
2072.09307	3531.0875
2075.10378	3535.3875
2078.11255	3530.8875
2081.11938	3537.3875
2084.12426	3514.8875
2087.12722	3529.3875
2090.12824	3532.0875
2093.12732	3523.4875
2096.12447	3530.8875
2099.11969	3522.7875
2102.11299	3532.1875
2105.10435	3523.2875
2108.09379	3524.7875
2111.08131	3524.6875
2114.0669	3529.5875
2117.05057	3535.5875
2120.03233	3548.3875
2123.01216	3559.9875
2125.99008	3566.2875
2128.96609	3554.1875
2131.94018	3551.5875
2134.91236	3543.7875
2137.88263	3556.4875
2140.851	3550.2875
2143.81746	3536.3875
2146.78201	3533.7875
2149.74466	3545.2875
2152.7054	3525.7875
2155.66425	3512.0875
2158.6212	3517.1875
2161.57625	3507.1875
2164.52941	3504.4875
2167.48067	3505.6875
2170.43004	3484.1875
2173.37752	3492.4875
2176.32311	3497.1875
2179.26681	3500.0875
2182.20863	3494.4875
2185.14856	3489.5875
2188.08661	3507.6875
2191.02278	3508.2875
2193.95707	3481.0875
2196.88948	3483.7875
2199.82001	3480.2875
2202.74867	3473.1875
2205.67545	3473.2875
2208.60037	3469.9875
2211.52341	3452.7875
2214.44458	3451.1875
2217.36388	3450.0875
2220.28132	3434.5875
2223.1969	3419.1875
2226.11061	3432.7875
2229.02246	3398.4875
2231.93245	3386.6875
2234.84058	3389.8875
2237.74686	3383.1875
2240.65128	3385.3875
2243.55385	3377.1875
2246.45456	3386.9875
2249.35343	3389.5875
2252.25044	3383.8875
2255.14561	3383.6875
2258.03893	3403.8875
2260.93041	3391.0875
2263.82004	3402.9875
2266.70783	3391.3875
2269.59378	3368.7875
2272.4779	3389.7875
2275.36017	3374.1875
2278.24061	3369.8875
2281.11922	3334.4875
2283.996	3339.1875
2286.87094	3335.5875
2289.74405	3323.8875
2292.61534	3304.1875
2295.4848	3295.7875
2298.35243	3274.1875
2301.21824	3278.9875
2304.08223	3277.6875
2306.94439	3279.3875
2309.80474	3281.5875
2312.66327	3274.4875
2315.51999	3275.5875
2318.37489	3281.7875
2321.22797	3268.9875
2324.07925	3261.3875
2326.92871	3252.0875
2329.77637	3263.5875
2332.62222	3257.8875
2335.46626	3243.5875
2338.3085	3235.7875
2341.14893	3255.0875
2343.98756	3250.1875
2346.8244	3269.7875
2349.65943	3275.6875
2352.49267	3283.4875
2355.32411	3308.9875
2358.15376	3317.5875
2360.98161	3338.3875
2363.80768	3337.2875
2366.63195	3358.0875
2369.45444	3381.5875
2372.27514	3365.0875
2375.09405	3368.2875
2377.91118	3347.1875
2380.72652	3335.7875
2383.54009	3305.2875
2386.35187	3284.2875
2389.16188	3258.1875
2391.97011	3225.4875
2394.77657	3214.7875
2397.58125	3186.1875
2400.38416	3191.9875
2403.18529	3173.1875
2405.98466	3150.4875
2408.78226	3146.4875
2411.57809	3137.5875
2414.37216	3135.6875
2417.16446	3127.1875
2419.955	3128.8875
2422.74378	3134.8875
2425.5308	3128.7875
2428.31606	3148.4875
2431.09956	3136.6875
2433.88131	3141.6875
2436.6613	3147.8875
2439.43954	3157.3875
2442.21603	3160.6875
2444.99077	3170.4875
2447.76377	3187.5875
2450.53501	3177.2875
2453.30451	3187.3875
2456.07226	3182.1875
2458.83827	3178.1875
2461.60254	3185.6875
2464.36507	3179.1875
2467.12586	3179.2875
2469.88492	3179.1875
2472.64224	3185.1875
2475.39782	3193.0875
2478.15167	3188.3875
2480.90379	3220.1875
2483.65417	3243.4875
2486.40283	3255.9875
2489.14976	3276.0875
2491.89497	3287.6875
2494.63845	3277.9875
2497.3802	3267.0875
2500.12024	3274.6875
2502.85855	3246.5875
2505.59514	3231.3875
2508.33002	3208.0875
2511.06318	3176.6875
2513.79462	3140.5875
2516.52435	3115.6875
2519.25237	3099.8875
2521.97867	3080.0875
2524.70327	3060.4875
2527.42616	3055.0875
2530.14734	3056.5875
2532.86681	3054.0875
2535.58458	3060.6875
2538.30065	3062.3875
2541.01501	3054.9875
2543.72768	3049.0875
2546.43864	3064.7875
2549.14791	3069.8875
2551.85548	3071.0875
2554.56136	3069.1875
2557.26554	3069.3875
2559.96803	3066.9875
2562.66883	3066.0875
2565.36794	3059.5875
2568.06536	3058.9875
2570.7611	3054.9875
2573.45514	3038.0875
2576.14751	3041.7875
2578.83819	3017.9875
2581.52719	3028.8875
2584.21451	3001.6875
2586.90015	3007.3875
2589.58411	2994.9875
2592.2664	3000.3875
2594.94701	2988.4875
2597.62594	3003.6875
2600.30321	2993.5875
2602.9788	2996.3875
2605.65273	2999.3875
2608.32498	2994.5875
2610.99557	2992.8875
2613.66449	3018.8875
2616.33175	3009.2875
2618.99734	3005.6875
2621.66128	2998.4875
2624.32355	2984.1875
2626.98416	2998.7875
2629.64311	2980.3875
2632.30041	2968.6875
2634.95605	2951.7875
2637.61004	2937.5875
2640.26238	2938.1875
2642.91306	2931.8875
2645.56209	2924.9875
2648.20948	2912.7875
2650.85521	2909.0875
2653.4993	2909.7875
2656.14175	2908.9875
2658.78255	2931.2875
2661.42171	2938.1875
2664.05923	2957.7875
2666.6951	2970.1875
2669.32934	2975.4875
2671.96194	2982.0875
2674.59291	2989.5875
2677.22224	2990.7875
2679.84993	2985.4875
2682.476	2983.4875
2685.10043	2985.2875
2687.72324	2973.7875
2690.34441	2980.3875
2692.96396	2967.6875
2695.58188	2985.7875
2698.19818	2960.3875
2700.81285	2950.4875
2703.4259	2927.2875
2706.03733	2906.6875
2708.64714	2918.5875
2711.25533	2959.6875
2713.86191	2969.9875
2716.46687	2984.8875
2719.07021	2994.9875
2721.67194	3010.0875
2724.27206	2995.5875
2726.87057	3000.6875
2729.46747	2997.4875
2732.06276	2989.7875
2734.65644	2978.8875
2737.24852	2975.9875
2739.83899	2972.5875
2742.42786	2962.0875
2745.01513	2949.8875
2747.60079	2948.7875
2750.18486	2935.0875
2752.76733	2928.6875
2755.3482	2930.6875
2757.92747	2933.3875
2760.50515	2920.3875
2763.08123	2921.1875
2765.65573	2904.7875
2768.22863	2913.6875
2770.79994	2897.5875
2773.36967	2901.2875
2775.9378	2904.1875
2778.50435	2897.0875
2781.06932	2902.3875
2783.6327	2911.4875
2786.1945	2913.2875
2788.75471	2913.1875
2791.31335	2909.3875
2793.87041	2917.9875
2796.42589	2905.8875
2798.97979	2922.8875
2801.53212	2926.4875
2804.08288	2932.2875
2806.63206	2936.7875
2809.17967	2937.7875
2811.72571	2949.2875
2814.27018	2947.6875
2816.81308	2969.6875
2819.35442	2991.5875
2821.89419	2987.6875
2824.43239	2999.9875
2826.96904	2995.7875
2829.50412	3012.1875
2832.03763	3016.0875
2834.56959	3015.7875
2837.1	3034.0875
2839.62884	3041.0875
2842.15613	3053.6875
2844.68186	3084.6875
2847.20604	3131.1875
2849.72867	3154.5875
2852.24974	3166.0875
2854.76927	3171.0875
2857.28724	3148.2875
2859.80367	3169.9875
2862.31855	3174.5875
2864.83189	3159.9875
2867.34368	3179.9875
2869.85393	3177.2875
2872.36264	3191.5875
2874.8698	3181.7875
2877.37543	3183.9875
2879.87952	3168.1875
2882.38207	3162.3875
2884.88308	3153.9875
2887.38256	3148.5875
2889.88051	3141.8875
2892.37692	3147.9875
2894.8718	3148.4875
2897.36515	3146.3875
2899.85698	3137.9875
2902.34727	3158.1875
2904.83604	3154.1875
2907.32328	3154.4875
2909.809	3142.4875
2912.29319	3157.6875
2914.77587	3142.9875
2917.25702	3139.1875
2919.73665	3134.5875
2922.21476	3127.9875
2924.69136	3114.7875
2927.16644	3121.3875
2929.64	3089.7875
2932.11205	3086.9875
2934.58258	3079.5875
2937.05161	3060.5875
2939.51912	3057.4875
2941.98513	3041.4875
2944.44962	3026.5875
2946.91261	2981.7875
2949.37409	2985.6875
2951.83407	2956.3875
2954.29254	2948.5875
2956.74951	2948.5875
2959.20498	2931.1875
2961.65895	2923.7875
2964.11142	2914.4875
2966.56239	2903.5875
2969.01186	2901.3875
2971.45984	2879.6875
2973.90632	2879.6875
2976.35131	2874.1875
2978.7948	2863.4875
2981.23681	2847.1875
2983.67732	2833.7875
2986.11635	2839.0875
2988.55388	2821.3875
2990.98993	2826.0875
2993.4245	2824.8875
2995.85758	2806.4875
2998.28917	2794.6875
3000.71928	2798.6875
3003.14791	2798.1875
3005.57506	2789.9875
3008.00073	2796.2875
3010.42493	2788.8875
3012.84764	2779.0875
3015.26888	2783.5875
3017.68865	2799.4875
3020.10694	2775.8875
3022.52376	2772.9875
3024.9391	2752.8875
3027.35298	2765.9875
3029.76539	2748.3875
3032.17632	2743.8875
3034.5858	2733.7875
3036.9938	2731.4875
3039.40034	2722.5875
3041.80542	2730.8875
3044.20903	2708.2875
3046.61118	2713.0875
3049.01187	2708.9875
3051.4111	2716.4875
3053.80888	2699.5875
3056.20519	2693.1875
3058.60005	2687.5875
3060.99345	2697.4875
3063.3854	2675.7875
3065.7759	2672.0875
3068.16494	2670.0875
3070.55254	2660.0875
3072.93868	2660.6875
3075.32338	2629.4875
3077.70662	2623.4875
3080.08842	2616.5875
3082.46878	2628.0875
3084.84769	2604.3875
3087.22515	2607.4875
3089.60118	2610.7875
3091.97576	2607.4875
3094.3489	2600.6875
3096.72061	2604.4875
3099.09087	2592.5875
3101.4597	2596.9875
3103.82709	2605.6875
3106.19305	2598.2875
3108.55757	2595.8875
3110.92066	2600.9875
3113.28232	2591.2875
3115.64255	2591.3875
3118.00134	2586.4875
3120.35871	2582.3875
3122.71466	2591.4875
3125.06917	2593.1875
3127.42226	2595.4875
3129.77393	2589.3875
3132.12417	2591.6875
3134.47299	2602.0875
3136.82039	2605.4875
3139.16636	2612.6875
3141.51092	2607.2875
3143.85406	2619.6875
3146.19579	2613.1875
3148.53609	2631.4875
3150.87499	2629.6875
3153.21246	2638.6875
3155.54853	2662.0875
3157.88318	2657.6875
3160.21642	2643.9875
3162.54826	2669.2875
3164.87868	2664.8875
3167.2077	2675.1875
3169.5353	2674.7875
3171.86151	2678.5875
3174.18631	2686.6875
3176.5097	2680.7875
3178.83169	2677.5875
3181.15228	2682.5875
3183.47147	2687.2875
3185.78926	2690.7875
3188.10565	2689.7875
3190.42065	2699.8875
3192.73424	2709.0875
3195.04645	2698.6875
3197.35725	2704.2875
3199.66667	2713.7875
3201.97469	2716.3875
3204.28132	2726.9875
3206.58656	2728.2875
3208.8904	2733.0875
3211.19287	2736.9875
3213.49394	2754.2875
3215.79363	2756.0875
3218.09193	2769.2875
3220.38884	2745.0875
3222.68438	2740.0875
3224.97853	2752.2875
3227.2713	2764.4875
3229.56269	2765.9875
3231.8527	2761.9875
3234.14133	2764.0875
3236.42858	2746.6875
3238.71446	2750.6875
3240.99896	2752.7875
3243.28209	2750.0875
3245.56384	2747.1875
3247.84423	2754.8875
3250.12324	2732.8875
3252.40088	2751.4875
3254.67715	2754.3875
3256.95205	2751.5875
3259.22558	2744.2875
3261.49775	2741.4875
3263.76855	2733.4875
3266.03799	2735.9875
3268.30606	2732.9875
3270.57277	2735.3875
3272.83812	2738.6875
3275.10211	2725.9875
3277.36474	2721.1875
3279.62601	2711.0875
3281.88593	2716.4875
3284.14448	2719.9875
3286.40168	2723.9875
3288.65753	2731.8875
3290.91202	2736.2875
3293.16516	2717.0875
3295.41695	2720.5875
3297.66738	2710.5875
3299.91647	2694.2875
3302.16421	2667.4875
3304.4106	2655.0875
3306.65564	2632.2875
3308.89933	2631.7875
3311.14169	2591.9875
3313.38269	2568.3875
3315.62236	2560.4875
3317.86068	2538.2875
3320.09766	2515.0875
3322.3333	2492.5875
3324.5676	2477.1875
3326.80056	2415.2875
3329.03219	2415.6875
3331.26248	-0.0125
3333.49143	-0.9125
3335.71905	1.0875
