Data from AgNPs_FTO_APTES_UA_50uM_CRN_200uM_R6G_10uM_NaF_0.1M_Addition_RamanShift__5__16-00-15-067.txt Node

Date: Mon Feb 21 16:00:15 GMT 2022
User: TCL
Spectrometer: QEP01345
Trigger mode: 4
Integration Time (sec): 7.000000E0
Scans to average: 10
Electric dark correction enabled: true
Nonlinearity correction enabled: false
Boxcar width: 0
XAxis mode: Raman Shifts
Number of Pixels in Spectrum: 1044
>>>>>Begin Spectral Data<<<<<
46.04893	-0.7
50.45542	-1.3
54.85868	-0.7
59.25871	-2.2
63.6555	50.8
68.04907	54.3
72.43941	51.3
76.82654	58.1
81.21044	62.7
85.59113	60.6
89.96862	65.7
94.34289	69.6
98.71396	68.6
103.08183	74.8
107.4465	75.4
111.80798	74.9
116.16626	76.4
120.52136	75.5
124.87327	83.3
129.222	81.8
133.56755	86.3
137.90993	91.1
142.24913	103.9
146.58517	112.3
150.91804	124.8
155.24774	150
159.57429	180.5
163.89768	227.4
168.21792	302.2
172.53501	399.7
176.84895	569.7
181.15975	801.2
185.46741	1122.1
189.77193	1536.1
194.07331	2055.1
198.37157	2643.8
202.6667	3260.1
206.9587	3890.5
211.24758	4497.6
215.53334	5091.4
219.81599	5750.5
224.09553	6484.5
228.37195	7257.6
232.64527	8153
236.91549	9046.4
241.18261	9986.4
245.44663	10810
249.70755	11526.1
253.96539	12120.1
258.22014	12611.9
262.4718	13024.1
266.72039	13304.6
270.96589	13468.8
275.20832	13459.1
279.44768	13333
283.68397	13129.9
287.91719	12978.3
292.14735	12883.1
296.37445	12881.3
300.59849	12999.3
304.81948	13126.7
309.03742	13226.4
313.25231	13154.7
317.46415	12918.7
321.67296	12601.3
325.87872	12306.4
330.08145	12221
334.28114	12192.5
338.47781	12269.8
342.67145	12434.8
346.86207	12665.7
351.04966	12955.6
355.23424	13300.6
359.4158	13585.3
363.59435	13762.1
367.76989	13892.5
371.94243	13984.1
376.11196	14017.1
380.27849	14074.9
384.44203	14144.9
388.60257	14215.2
392.76012	14282.7
396.91468	14419.5
401.06626	14609.8
405.21485	14722.8
409.36047	14614.1
413.50311	14336.4
417.64277	14073
421.77947	13972.4
425.9132	13937.5
430.04396	13973
434.17176	14036.2
438.2966	14197.5
442.41849	14457.3
446.53742	14854.6
450.6534	15241.5
454.76644	15524.4
458.87653	15539.3
462.98368	15425.8
467.08789	15229.8
471.18916	15000.2
475.2875	14713.7
479.38291	14476.8
483.4754	14314.1
487.56496	14190.1
491.6516	14071.6
495.73531	14035.5
499.81612	14042.8
503.89401	14140.4
507.96899	14214.7
512.04106	14258.7
516.11023	14284.6
520.1765	14266.3
524.23987	14244
528.30034	14193.4
532.35792	14102.5
536.41261	13975.5
540.46441	13793
544.51333	13745
548.55936	13809.4
552.60252	14052
556.64279	14301.2
560.6802	14472.9
564.71473	14513.7
568.7464	14621.7
572.7752	14797.3
576.80114	14960.2
580.82422	15104.6
584.84444	15457.5
588.86181	16029.3
592.87633	16649.6
596.888	16872.6
600.89682	16560.6
604.9028	16774.4
608.90594	18378.6
612.90624	20348.5
616.90371	19351.3
620.89834	16053.2
624.89015	14571.2
628.87913	14379.4
632.86528	14447.6
636.84862	14485.8
640.82913	14317.2
644.80683	13975.5
648.78172	13723
652.75379	13721.4
656.72306	13910.9
660.68952	14157.5
664.65319	14081.8
668.61405	13765.5
672.57211	13721
676.52738	13820.3
680.47986	13812.4
684.42955	13729.6
688.37646	13613.8
692.32058	13666.5
696.26192	13759.6
700.20048	13908.6
704.13626	13966.9
708.06928	13911.7
711.99952	13819.6
715.927	13805.1
719.85171	13889.5
723.77365	13925.4
727.69284	13792.7
731.60928	13644.3
735.52295	13659.3
739.43388	13673
743.34206	13710.6
747.24749	13744.5
751.15017	13827.7
755.05012	13953.5
758.94733	14296.8
762.8418	14992.2
766.73354	16201.3
770.62254	17433.9
774.50882	17961.8
778.39237	17347
782.27321	16075.7
786.15132	14900.9
790.02671	14222.9
793.89938	13883
797.76935	13737.2
801.6366	13688
805.50115	13632.6
809.36299	13553
813.22213	13449.5
817.07857	13386.8
820.93231	13333.4
824.78336	13297.5
828.63172	13312.9
832.47738	13310.9
836.32036	13354.4
840.16066	13408
843.99827	13438.9
847.8332	13386.7
851.66546	13344.3
855.49504	13316
859.32195	13358.5
863.1462	13334
866.96777	13304.3
870.78668	13315.9
874.60293	13312.2
878.41652	13324.5
882.22745	13391.4
886.03573	13465.7
889.84136	13448.4
893.64433	13379.6
897.44466	13326.3
901.24235	13275.5
905.0374	13197.1
908.8298	13152.9
912.61957	13153.3
916.40671	13239.4
920.19121	13337.1
923.97308	13468.6
927.75233	13563.6
931.52895	13580.2
935.30295	13446.8
939.07433	13246.5
942.84309	13046.7
946.60924	12956.2
950.37278	12915.7
954.13371	12827.6
957.89203	12797.1
961.64774	12753.7
965.40086	12718.3
969.15137	12687.7
972.89929	12689.1
976.64461	12671.2
980.38733	12702.9
984.12747	12751.9
987.86502	12843.9
991.59999	13018.2
995.33237	13203.4
999.06217	13535.6
1002.78939	13881.1
1006.51404	14050.4
1010.23611	14208.1
1013.95561	14292.6
1017.67255	14360.3
1021.38692	14253.2
1025.09872	14090.6
1028.80796	14137.2
1032.51465	14413.3
1036.21877	14729
1039.92035	14830
1043.61937	14707.9
1047.31584	14474
1051.00976	14142
1054.70114	13938.4
1058.38998	13842.5
1062.07627	13836.3
1065.76003	13897.3
1069.44126	13972.4
1073.11995	14101.4
1076.79611	14268.9
1080.46974	14420.2
1084.14085	14556.2
1087.80943	14725.7
1091.47549	14831.7
1095.13903	14769.1
1098.80005	14539.1
1102.45857	14325.3
1106.11456	14180.9
1109.76805	14163.5
1113.41903	14251
1117.06751	14403.6
1120.71348	14593.8
1124.35696	14839.3
1127.99793	15054.4
1131.63641	15154.4
1135.2724	14996.3
1138.90589	14785.5
1142.5369	14625.6
1146.16542	14574.1
1149.79145	14525.2
1153.415	14558.3
1157.03607	14652.5
1160.65467	14940.9
1164.27079	15434.6
1167.88443	16138.9
1171.49561	17031.3
1175.10432	18231.7
1178.71056	19798.6
1182.31434	21293.6
1185.91565	22000.8
1189.51451	21835.5
1193.11091	20996.2
1196.70485	20040
1200.29634	19165.9
1203.88538	18469.4
1207.47197	17818.6
1211.05612	17275.1
1214.63782	16837.7
1218.21708	16635.2
1221.79391	16578.1
1225.36829	16573.7
1228.94024	16530.9
1232.50976	16271.7
1236.07685	16048.2
1239.6415	15854.9
1243.20374	15861.6
1246.76355	15969.3
1250.32093	16175.2
1253.8759	16493.4
1257.42845	16831.1
1260.97859	17247.3
1264.52631	17670.1
1268.07163	18195.3
1271.61453	18701.6
1275.15503	19243
1278.69312	19623.1
1282.22882	19923.4
1285.76211	20299
1289.29301	20829.2
1292.82151	21545.5
1296.34761	22526
1299.87133	23708.9
1303.39266	25243
1306.9116	27037.8
1310.42815	28595.6
1313.94233	29366.7
1317.45412	28892.4
1320.96354	27688.4
1324.47058	26439.2
1327.97525	25237.6
1331.47754	24425.6
1334.97747	23981.7
1338.47502	23720.3
1341.97022	23712.9
1345.46305	23895.4
1348.95352	24332.8
1352.44163	25225.2
1355.92738	26656.9
1359.41078	28524.2
1362.89183	30108.6
1366.37053	29628.9
1369.84688	26744
1373.32088	23361.8
1376.79254	21160.3
1380.26186	20121.7
1383.72883	19741.6
1387.19347	19484.7
1390.65578	19073.7
1394.11575	18809.1
1397.57339	18858.4
1401.0287	18991.5
1404.48168	19079.7
1407.93234	19078.2
1411.38068	18953.7
1414.82669	18687.8
1418.27039	18334.2
1421.71177	17966.3
1425.15083	17571.4
1428.58758	17361.1
1432.02203	17480.5
1435.45416	17826.2
1438.88399	18151.8
1442.31151	18318.6
1445.73673	18390.4
1449.15965	18469.5
1452.58027	18401.4
1455.9986	18304.1
1459.41463	18309.7
1462.82837	18496.2
1466.23982	18859.8
1469.64898	19211.9
1473.05586	19534.8
1476.46045	19736.3
1479.86276	19827.1
1483.26279	19832.5
1486.66054	19902.6
1490.05602	20162.3
1493.44922	20582.3
1496.84016	21123.9
1500.22882	21910.1
1503.61521	23020.5
1506.99934	24323.9
1510.38121	25335.2
1513.76081	25487.3
1517.13816	24505
1520.51324	22907.7
1523.88607	21506.3
1527.25665	20734.8
1530.62498	20352.4
1533.99105	20113.6
1537.35488	19789.5
1540.71647	19469.5
1544.07581	19110.2
1547.4329	18774.4
1550.78776	18510.1
1554.14038	18359
1557.49077	18281.9
1560.83892	18316.2
1564.18484	18383.5
1567.52853	18579.2
1570.86999	18859.5
1574.20922	19147
1577.54624	19246.1
1580.88103	18989.4
1584.2136	18691.6
1587.54395	18800.9
1590.87208	19453.9
1594.19801	20493.7
1597.52172	21688.8
1600.84321	22197.8
1604.16251	21616.5
1607.47959	20230.9
1610.79447	18751.1
1614.10715	17358.6
1617.41763	16261.5
1620.7259	15528.1
1624.03199	15160.1
1627.33587	15171
1630.63757	15499.5
1633.93707	16241.1
1637.23439	17512.4
1640.52951	19352.6
1643.82246	21617.2
1647.11321	23590.4
1650.40179	24186.9
1653.68819	22726.1
1656.97241	19942.4
1660.25446	17302.8
1663.53433	15393.3
1666.81203	14222.3
1670.08756	13573.8
1673.36092	13137.5
1676.63211	12872
1679.90115	12687
1683.16801	12522.7
1686.43272	12419
1689.69527	12274.6
1692.95567	12176.8
1696.2139	12008.5
1699.46999	11885.2
1702.72392	11829.7
1705.97571	11892.7
1709.22535	11941.9
1712.47284	11982.4
1715.71819	12003.7
1718.96139	11997.3
1722.20246	11994.2
1725.44139	11947.3
1728.67818	11905.7
1731.91284	11839.9
1735.14537	11755.5
1738.37576	11750.8
1741.60403	11681.2
1744.83017	11613.5
1748.05418	11590.5
1751.27607	11570.3
1754.49584	11500.5
1757.71349	11471.4
1760.92903	11421.9
1764.14244	11412.3
1767.35375	11405.5
1770.56294	11375.1
1773.77002	11371.7
1776.97499	11378.6
1780.17785	11410.6
1783.37861	11432.9
1786.57727	11419.4
1789.77382	11426.3
1792.96828	11411.8
1796.16064	11375.9
1799.3509	11368.7
1802.53907	11342
1805.72514	11346.4
1808.90913	11304.6
1812.09102	11291.1
1815.27083	11258.3
1818.44856	11265.8
1821.6242	11243.7
1824.79776	11238.5
1827.96924	11233.7
1831.13864	11210.4
1834.30597	11215.1
1837.47122	11227
1840.6344	11195.2
1843.7955	11207.4
1846.95454	11194.8
1850.11151	11212.1
1853.26642	11192
1856.41926	11201.8
1859.57004	11157.8
1862.71876	11171.9
1865.86542	11148.5
1869.01003	11117.7
1872.15258	11129
1875.29308	11120.5
1878.43152	11075.6
1881.56792	11081.7
1884.70227	11081
1887.83457	11053
1890.96482	11068.8
1894.09304	11071.8
1897.21921	11038.5
1900.34335	11015.9
1903.46544	11009.5
1906.58551	10992.9
1909.70353	11013.8
1912.81953	10975.7
1915.93349	10951.7
1919.04543	10953.1
1922.15534	10945.6
1925.26322	10911
1928.36908	10879.9
1931.47292	10866.4
1934.57473	10839
1937.67453	10839.9
1940.77232	10828.1
1943.86808	10779.7
1946.96184	10767.1
1950.05358	10725.4
1953.14331	10706.7
1956.23103	10669.1
1959.31675	10626.3
1962.40046	10609.9
1965.48217	10578
1968.56188	10556.8
1971.63959	10530.7
1974.7153	10511
1977.78901	10476.6
1980.86073	10448
1983.93046	10410.2
1986.99819	10382.8
1990.06394	10375
1993.1277	10334.8
1996.18947	10326.2
1999.24925	10305
2002.30706	10243.3
2005.36288	10200.7
2008.41672	10179.5
2011.46859	10156
2014.51848	10165
2017.56639	10145.6
2020.61233	10079
2023.6563	10080.7
2026.6983	10065.4
2029.73833	10039.5
2032.7764	10027.7
2035.8125	10012.4
2038.84664	9998.6
2041.87881	9974.1
2044.90903	9966.2
2047.93729	9930.6
2050.96359	9917.3
2053.98794	9930.8
2057.01034	9901
2060.03078	9916
2063.04927	9892.7
2066.06582	9918.3
2069.08042	9859.2
2072.09307	9881.6
2075.10378	9890.4
2078.11255	9859.4
2081.11938	9878.7
2084.12426	9870.1
2087.12722	9861.9
2090.12824	9884.1
2093.12732	9855.5
2096.12447	9865.6
2099.11969	9853.6
2102.11299	9871.1
2105.10435	9882.4
2108.09379	9893.9
2111.08131	9878.7
2114.0669	9882.5
2117.05057	9902
2120.03233	9905.3
2123.01216	9926
2125.99008	9925.5
2128.96609	9946.6
2131.94018	9934.1
2134.91236	9967.2
2137.88263	9964.8
2140.851	9965.6
2143.81746	9986.6
2146.78201	9963
2149.74466	9968.3
2152.7054	9943
2155.66425	9990.5
2158.6212	9981.8
2161.57625	9994.8
2164.52941	9987.5
2167.48067	9962.5
2170.43004	9976
2173.37752	9993.3
2176.32311	9985.5
2179.26681	9961.9
2182.20863	9970.7
2185.14856	9980.5
2188.08661	10010.4
2191.02278	9988.1
2193.95707	10004
2196.88948	9969.6
2199.82001	9977
2202.74867	9985.5
2205.67545	9979.5
2208.60037	9955.5
2211.52341	9946.8
2214.44458	9942.9
2217.36388	9901.8
2220.28132	9906.6
2223.1969	9894.9
2226.11061	9896.5
2229.02246	9871.1
2231.93245	9840.3
2234.84058	9852.6
2237.74686	9822.5
2240.65128	9833.4
2243.55385	9815.9
2246.45456	9850.7
2249.35343	9809.8
2252.25044	9788.7
2255.14561	9789.8
2258.03893	9799.8
2260.93041	9762.5
2263.82004	9740.2
2266.70783	9719.3
2269.59378	9689.6
2272.4779	9684.7
2275.36017	9637.6
2278.24061	9646.1
2281.11922	9618.2
2283.996	9607.5
2286.87094	9609.7
2289.74405	9593.2
2292.61534	9581.4
2295.4848	9581.8
2298.35243	9586.1
2301.21824	9581
2304.08223	9606.9
2306.94439	9582.8
2309.80474	9614.3
2312.66327	9595.9
2315.51999	9587.1
2318.37489	9572.3
2321.22797	9578.5
2324.07925	9549.2
2326.92871	9532.7
2329.77637	9565.9
2332.62222	9542.2
2335.46626	9528.6
2338.3085	9537.1
2341.14893	9538.3
2343.98756	9547.9
2346.8244	9527.5
2349.65943	9531.6
2352.49267	9521
2355.32411	9519
2358.15376	9503.7
2360.98161	9523.7
2363.80768	9509.1
2366.63195	9531
2369.45444	9492.2
2372.27514	9481.8
2375.09405	9484.1
2377.91118	9472.7
2380.72652	9450.5
2383.54009	9421.8
2386.35187	9407.2
2389.16188	9382.4
2391.97011	9390
2394.77657	9350.7
2397.58125	9344.8
2400.38416	9355.2
2403.18529	9333.6
2405.98466	9315.7
2408.78226	9295.2
2411.57809	9273.8
2414.37216	9284.5
2417.16446	9256.8
2419.955	9251.9
2422.74378	9255.3
2425.5308	9224.4
2428.31606	9254.3
2431.09956	9250.3
2433.88131	9223.4
2436.6613	9226.6
2439.43954	9229.5
2442.21603	9209.1
2444.99077	9223.9
2447.76377	9260
2450.53501	9233.9
2453.30451	9222.4
2456.07226	9210.2
2458.83827	9203.7
2461.60254	9195.5
2464.36507	9217.8
2467.12586	9227.8
2469.88492	9225.2
2472.64224	9223.6
2475.39782	9212.2
2478.15167	9199.3
2480.90379	9222.4
2483.65417	9228.3
2486.40283	9223.8
2489.14976	9241.1
2491.89497	9234.4
2494.63845	9246.6
2497.3802	9222
2500.12024	9246.2
2502.85855	9233.1
2505.59514	9215.6
2508.33002	9224.8
2511.06318	9209.4
2513.79462	9189.7
2516.52435	9199.3
2519.25237	9165.7
2521.97867	9165.1
2524.70327	9163.2
2527.42616	9138.2
2530.14734	9158.9
2532.86681	9135
2535.58458	9141.6
2538.30065	9131.8
2541.01501	9135.9
2543.72768	9117.7
2546.43864	9099.1
2549.14791	9120.2
2551.85548	9082.9
2554.56136	9086.4
2557.26554	9073.2
2559.96803	9067
2562.66883	9056.9
2565.36794	9059.5
2568.06536	9064.8
2570.7611	9035.4
2573.45514	9039.9
2576.14751	9048.6
2578.83819	9019
2581.52719	9005.6
2584.21451	9020
2586.90015	9022.6
2589.58411	8998.2
2592.2664	9007.1
2594.94701	8982
2597.62594	8982
2600.30321	8974.2
2602.9788	8983.2
2605.65273	8982.8
2608.32498	8966.6
2610.99557	8949.9
2613.66449	8970
2616.33175	8971.4
2618.99734	8958.5
2621.66128	8949
2624.32355	8957.2
2626.98416	8949.2
2629.64311	8934.7
2632.30041	8919.7
2634.95605	8920.5
2637.61004	8906.7
2640.26238	8887.7
2642.91306	8896.1
2645.56209	8872.8
2648.20948	8870
2650.85521	8873.6
2653.4993	8876.4
2656.14175	8852.3
2658.78255	8876.3
2661.42171	8875.5
2664.05923	8909.6
2666.6951	8900.4
2669.32934	8927.3
2671.96194	8889.5
2674.59291	8915.5
2677.22224	8904.3
2679.84993	8899.1
2682.476	8902.4
2685.10043	8905.3
2687.72324	8882.3
2690.34441	8887.4
2692.96396	8891.8
2695.58188	8893.8
2698.19818	8885
2700.81285	8895.3
2703.4259	8879.3
2706.03733	8824.4
2708.64714	8857.2
2711.25533	8884.1
2713.86191	8874.2
2716.46687	8899.6
2719.07021	8932.8
2721.67194	8932.2
2724.27206	8941.9
2726.87057	8899.2
2729.46747	8939.2
2732.06276	8935.8
2734.65644	8953.9
2737.24852	8954.3
2739.83899	8954.6
2742.42786	8933.1
2745.01513	8914
2747.60079	8908.2
2750.18486	8919.4
2752.76733	8945.5
2755.3482	8876.4
2757.92747	8891.6
2760.50515	8874.2
2763.08123	8884.2
2765.65573	8859.1
2768.22863	8879.4
2770.79994	8863.9
2773.36967	8835
2775.9378	8834.5
2778.50435	8849.4
2781.06932	8866.1
2783.6327	8876.3
2786.1945	8863.7
2788.75471	8858.6
2791.31335	8840.8
2793.87041	8794.1
2796.42589	8810.1
2798.97979	8799.8
2801.53212	8788.2
2804.08288	8788
2806.63206	8734.8
2809.17967	8751.2
2811.72571	8745
2814.27018	8723.7
2816.81308	8711.3
2819.35442	8700.2
2821.89419	8699.9
2824.43239	8699
2826.96904	8684.1
2829.50412	8708.7
2832.03763	8693.5
2834.56959	8701.5
2837.1	8734.5
2839.62884	8701.3
2842.15613	8703.5
2844.68186	8729.2
2847.20604	8738.8
2849.72867	8720.5
2852.24974	8706.1
2854.76927	8709.6
2857.28724	8681.6
2859.80367	8707.7
2862.31855	8709.2
2864.83189	8685.1
2867.34368	8673.4
2869.85393	8697.5
2872.36264	8677.7
2874.8698	8685.4
2877.37543	8703.7
2879.87952	8701.6
2882.38207	8704.7
2884.88308	8685
2887.38256	8715.9
2889.88051	8700.2
2892.37692	8699.9
2894.8718	8694.5
2897.36515	8721.3
2899.85698	8736.7
2902.34727	8766.5
2904.83604	8759.2
2907.32328	8784
2909.809	8777.1
2912.29319	8779.7
2914.77587	8797.9
2917.25702	8788.2
2919.73665	8787.5
2922.21476	8779.5
2924.69136	8780
2927.16644	8802
2929.64	8774
2932.11205	8755.4
2934.58258	8733.2
2937.05161	8758.4
2939.51912	8750.3
2941.98513	8768.6
2944.44962	8727
2946.91261	8704.9
2949.37409	8734
2951.83407	8689.8
2954.29254	8703.5
2956.74951	8672.2
2959.20498	8655.4
2961.65895	8668.9
2964.11142	8641.9
2966.56239	8625
2969.01186	8624.9
2971.45984	8614.3
2973.90632	8617.3
2976.35131	8569.1
2978.7948	8589.2
2981.23681	8559.5
2983.67732	8566.1
2986.11635	8509.4
2988.55388	8530.3
2990.98993	8517.5
2993.4245	8503.7
2995.85758	8465.8
2998.28917	8464
3000.71928	8462.1
3003.14791	8421.5
3005.57506	8425
3008.00073	8401.8
3010.42493	8426.5
3012.84764	8405.7
3015.26888	8405.8
3017.68865	8393.7
3020.10694	8378.8
3022.52376	8385.8
3024.9391	8360.9
3027.35298	8354.2
3029.76539	8351.2
3032.17632	8337.9
3034.5858	8290.5
3036.9938	8315.7
3039.40034	8310.7
3041.80542	8289.9
3044.20903	8305.3
3046.61118	8289
3049.01187	8271.5
3051.4111	8300.2
3053.80888	8281.3
3056.20519	8263.2
3058.60005	8262.4
3060.99345	8240.7
3063.3854	8250.7
3065.7759	8219.7
3068.16494	8223.4
3070.55254	8167.6
3072.93868	8152.5
3075.32338	8156.8
3077.70662	8128.2
3080.08842	8124.6
3082.46878	8124.9
3084.84769	8121.2
3087.22515	8107.3
3089.60118	8085
3091.97576	8115.6
3094.3489	8114.3
3096.72061	8122.9
3099.09087	8129
3101.4597	8111.2
3103.82709	8146
3106.19305	8110.2
3108.55757	8091.1
3110.92066	8118.4
3113.28232	8081.1
3115.64255	8073
3118.00134	8058
3120.35871	8064.5
3122.71466	8059.9
3125.06917	8059.5
3127.42226	8043
3129.77393	8030.6
3132.12417	8016.6
3134.47299	8039.3
3136.82039	8031.3
3139.16636	8019.9
3141.51092	8034.8
3143.85406	8040.6
3146.19579	8042.8
3148.53609	8036
3150.87499	8051.6
3153.21246	8048.7
3155.54853	8104.2
3157.88318	8110.9
3160.21642	8090.5
3162.54826	8099.6
3164.87868	8076.1
3167.2077	8072.1
3169.5353	8085.2
3171.86151	8098.3
3174.18631	8081.3
3176.5097	8110.6
3178.83169	8082.4
3181.15228	8087.2
3183.47147	8075.2
3185.78926	8077.9
3188.10565	8059
3190.42065	8077.3
3192.73424	8067.6
3195.04645	8068.4
3197.35725	8049.8
3199.66667	8047
3201.97469	8084.5
3204.28132	8047.7
3206.58656	8069.7
3208.8904	8084.4
3211.19287	8086.7
3213.49394	8070.9
3215.79363	8116.7
3218.09193	8102.2
3220.38884	8094.7
3222.68438	8087.1
3224.97853	8092.5
3227.2713	8092.1
3229.56269	8093.6
3231.8527	8067.2
3234.14133	8063.3
3236.42858	8077.5
3238.71446	8073.9
3240.99896	8036.7
3243.28209	8057.4
3245.56384	8026.6
3247.84423	8044.3
3250.12324	8051.2
3252.40088	8045
3254.67715	8021.9
3256.95205	8022.5
3259.22558	8025
3261.49775	8027.8
3263.76855	8014.4
3266.03799	8021.3
3268.30606	8008.3
3270.57277	8012.5
3272.83812	7982.6
3275.10211	7954.4
3277.36474	7960.8
3279.62601	7947.1
3281.88593	7908.1
3284.14448	7936.4
3286.40168	7953.4
3288.65753	7937.6
3290.91202	7917.7
3293.16516	7927.2
3295.41695	7906.4
3297.66738	7893.6
3299.91647	7833.6
3302.16421	7808.2
3304.4106	7801
3306.65564	7728.6
3308.89933	7686
3311.14169	7634.3
3313.38269	7544.3
3315.62236	7514.9
3317.86068	7454
3320.09766	7411.4
3322.3333	7346.1
3324.5676	7327.8
3326.80056	7209.4
3329.03219	7164
3331.26248	4.7
3333.49143	-1.1
3335.71905	0.6
