Data from AgNPs_FTO_APTES_UA_50uM_CRN_500uM_R6G_10uM_NaF_0.1M_Addition_RamanShift__9__16-52-23-527.txt Node

Date: Mon Feb 21 16:52:23 GMT 2022
User: TCL
Spectrometer: QEP01345
Trigger mode: 4
Integration Time (sec): 7.000000E0
Scans to average: 10
Electric dark correction enabled: true
Nonlinearity correction enabled: false
Boxcar width: 0
XAxis mode: Raman Shifts
Number of Pixels in Spectrum: 1044
>>>>>Begin Spectral Data<<<<<
46.04893	-0.7
50.45542	0.1
54.85868	0.2
59.25871	-2.5
63.6555	44.6
68.04907	46.9
72.43941	52.5
76.82654	50.6
81.21044	56.4
85.59113	59.3
89.96862	61.3
94.34289	61.8
98.71396	63.4
103.08183	66.7
107.4465	65.8
111.80798	71
116.16626	68.1
120.52136	74.7
124.87327	73
129.222	76.3
133.56755	82.1
137.90993	82
142.24913	88.8
146.58517	96.4
150.91804	107.1
155.24774	130.4
159.57429	151
163.89768	194.3
168.21792	256.7
172.53501	343.2
176.84895	472.9
181.15975	670.8
185.46741	932.4
189.77193	1284.4
194.07331	1730.3
198.37157	2235.4
202.6667	2768.4
206.9587	3300.3
211.24758	3817.8
215.53334	4353.5
219.81599	4907
224.09553	5508.7
228.37195	6196.8
232.64527	6940.5
236.91549	7706.8
241.18261	8497.7
245.44663	9162.6
249.70755	9782.6
253.96539	10291.9
258.22014	10741.6
262.4718	11105.6
266.72039	11341.1
270.96589	11461.4
275.20832	11461.2
279.44768	11344
283.68397	11209.6
287.91719	11045.7
292.14735	11000
296.37445	10986.3
300.59849	11069.3
304.81948	11174.8
309.03742	11262.9
313.25231	11197.2
317.46415	11016.9
321.67296	10742.7
325.87872	10496.2
330.08145	10376.6
334.28114	10374
338.47781	10468.5
342.67145	10583.8
346.86207	10809
351.04966	11055.8
355.23424	11297.6
359.4158	11519.9
363.59435	11673.7
367.76989	11763.4
371.94243	11841.3
376.11196	11876.3
380.27849	11907.7
384.44203	11961.1
388.60257	11988.1
392.76012	12054.2
396.91468	12155.7
401.06626	12318.4
405.21485	12407.3
409.36047	12330.5
413.50311	12060.5
417.64277	11855.4
421.77947	11733.3
425.9132	11733.7
430.04396	11763.6
434.17176	11826.4
438.2966	11910.7
442.41849	12068.9
446.53742	12297.6
450.6534	12528.1
454.76644	12654.6
458.87653	12712.7
462.98368	12695
467.08789	12651.2
471.18916	12511.1
475.2875	12379.6
479.38291	12227.8
483.4754	12150.6
487.56496	12043.1
491.6516	11936
495.73531	11920.2
499.81612	11876.7
503.89401	11973
507.96899	12036.5
512.04106	12064.2
516.11023	12108.5
520.1765	12137.3
524.23987	12139.4
528.30034	12071.1
532.35792	12006
536.41261	11923.3
540.46441	11822
544.51333	11783.3
548.55936	11819
552.60252	11963.5
556.64279	12154.8
560.6802	12247.4
564.71473	12302.7
568.7464	12396.6
572.7752	12539.5
576.80114	12593.1
580.82422	12661.9
584.84444	12750.7
588.86181	12937.3
592.87633	13144.3
596.888	13236.5
600.89682	13243.6
604.9028	13630.9
608.90594	14972.1
612.90624	16728.8
616.90371	16044.3
620.89834	13468.4
624.89015	12244.3
628.87913	12070.6
632.86528	12159.4
636.84862	12275.1
640.82913	12246.9
644.80683	12026.7
648.78172	11798
652.75379	11783.4
656.72306	11903
660.68952	12093.7
664.65319	12040.2
668.61405	11829.6
672.57211	11765.1
676.52738	11840.8
680.47986	11859.9
684.42955	11806.6
688.37646	11726
692.32058	11723.2
696.26192	11775.1
700.20048	11838.7
704.13626	11865.6
708.06928	11870.4
711.99952	11840.4
715.927	11834.5
719.85171	11835.7
723.77365	11837.3
727.69284	11771
731.60928	11717.5
735.52295	11680.6
739.43388	11688.4
743.34206	11697.1
747.24749	11724.1
751.15017	11763.8
755.05012	11843.2
758.94733	12106.5
762.8418	12649
766.73354	13620.9
770.62254	14632.1
774.50882	15065.8
778.39237	14603.5
782.27321	13556.9
786.15132	12593.8
790.02671	12033.8
793.89938	11782.1
797.76935	11642.3
801.6366	11583.9
805.50115	11533.7
809.36299	11479.2
813.22213	11463.5
817.07857	11422.2
820.93231	11400.5
824.78336	11353.8
828.63172	11355
832.47738	11349.7
836.32036	11326.1
840.16066	11300.8
843.99827	11289.8
847.8332	11281.3
851.66546	11311.7
855.49504	11307.1
859.32195	11310.2
863.1462	11291.5
866.96777	11314.7
870.78668	11287.8
874.60293	11298.2
878.41652	11338.3
882.22745	11373.8
886.03573	11405.4
889.84136	11398.4
893.64433	11360.3
897.44466	11338.5
901.24235	11272.3
905.0374	11235.4
908.8298	11197.4
912.61957	11145.4
916.40671	11201.9
920.19121	11239.9
923.97308	11280.2
927.75233	11331.5
931.52895	11322.5
935.30295	11234
939.07433	11079.4
942.84309	10963.1
946.60924	10871.6
950.37278	10838.3
954.13371	10803.1
957.89203	10769.3
961.64774	10769
965.40086	10713.7
969.15137	10705.7
972.89929	10712.5
976.64461	10665.7
980.38733	10637.2
984.12747	10635
987.86502	10674.7
991.59999	10698.4
995.33237	10758.7
999.06217	10840.4
1002.78939	10947.4
1006.51404	11062.4
1010.23611	11211.6
1013.95561	11297.1
1017.67255	11350
1021.38692	11312.1
1025.09872	11187.8
1028.80796	11054.2
1032.51465	11014.7
1036.21877	11009.3
1039.92035	11030.7
1043.61937	11080.6
1047.31584	11128.2
1051.00976	11136.9
1054.70114	11160.7
1058.38998	11178.5
1062.07627	11222.5
1065.76003	11292.4
1069.44126	11314.9
1073.11995	11420.3
1076.79611	11517.5
1080.46974	11599.7
1084.14085	11692.5
1087.80943	11786.6
1091.47549	11840.3
1095.13903	11834.1
1098.80005	11692.2
1102.45857	11548.1
1106.11456	11433.6
1109.76805	11409
1113.41903	11476.6
1117.06751	11614.3
1120.71348	11803.5
1124.35696	11998.7
1127.99793	12218.4
1131.63641	12289.3
1135.2724	12105.4
1138.90589	11899.9
1142.5369	11781.9
1146.16542	11708.8
1149.79145	11645
1153.415	11633.7
1157.03607	11634.1
1160.65467	11802.6
1164.27079	12061.4
1167.88443	12440.9
1171.49561	12972.5
1175.10432	13742.7
1178.71056	14735.3
1182.31434	15647.9
1185.91565	16073.8
1189.51451	15975.3
1193.11091	15587.8
1196.70485	15038.7
1200.29634	14481.7
1203.88538	14041.6
1207.47197	13511.9
1211.05612	13099.4
1214.63782	12763.8
1218.21708	12578.7
1221.79391	12475.6
1225.36829	12453.8
1228.94024	12433.3
1232.50976	12400.8
1236.07685	12322.6
1239.6415	12286.1
1243.20374	12297.7
1246.76355	12330
1250.32093	12395.2
1253.8759	12545.7
1257.42845	12711.5
1260.97859	12936.8
1264.52631	13186.4
1268.07163	13389.9
1271.61453	13608.3
1275.15503	13801.3
1278.69312	13935.6
1282.22882	14077
1285.76211	14284.2
1289.29301	14626.6
1292.82151	15032.6
1296.34761	15505.8
1299.87133	16098.7
1303.39266	16865.8
1306.9116	17800.8
1310.42815	18781.1
1313.94233	19406.6
1317.45412	19180.2
1320.96354	18531.5
1324.47058	17812.9
1327.97525	17142.8
1331.47754	16622.3
1334.97747	16368.7
1338.47502	16341.9
1341.97022	16553.4
1345.46305	16911
1348.95352	17493.9
1352.44163	18186.1
1355.92738	19066.8
1359.41078	20298
1362.89183	21503
1366.37053	21205.1
1369.84688	19179.5
1373.32088	16820.4
1376.79254	15273.7
1380.26186	14533.7
1383.72883	14222.8
1387.19347	13963.2
1390.65578	13682
1394.11575	13446.9
1397.57339	13358.4
1401.0287	13299.1
1404.48168	13241.6
1407.93234	13210
1411.38068	13111.3
1414.82669	13004.9
1418.27039	12841.9
1421.71177	12638.5
1425.15083	12422
1428.58758	12298.9
1432.02203	12303.6
1435.45416	12395.9
1438.88399	12503.9
1442.31151	12581.8
1445.73673	12663.9
1449.15965	12696.2
1452.58027	12722.8
1455.9986	12711.9
1459.41463	12763.5
1462.82837	12891
1466.23982	13083.4
1469.64898	13257.7
1473.05586	13424
1476.46045	13526.8
1479.86276	13584.2
1483.26279	13636.3
1486.66054	13774.9
1490.05602	14013.2
1493.44922	14334.4
1496.84016	14932
1500.22882	15815.7
1503.61521	17037.4
1506.99934	18319.2
1510.38121	19300.7
1513.76081	19430.2
1517.13816	18456.5
1520.51324	17077.4
1523.88607	15781.7
1527.25665	15015.7
1530.62498	14633.7
1533.99105	14354
1537.35488	14168.1
1540.71647	13930.4
1544.07581	13720.2
1547.4329	13510.9
1550.78776	13348.1
1554.14038	13258.2
1557.49077	13285.4
1560.83892	13332.3
1564.18484	13493.5
1567.52853	13680.7
1570.86999	13898.1
1574.20922	14108.3
1577.54624	14169.1
1580.88103	13861.6
1584.2136	13376.3
1587.54395	13200.2
1590.87208	13258.2
1594.19801	13635.9
1597.52172	14192.1
1600.84321	14496.6
1604.16251	14245.6
1607.47959	13735.4
1610.79447	13157.5
1614.10715	12491.6
1617.41763	11872.2
1620.7259	11426.8
1624.03199	11175.1
1627.33587	11083.2
1630.63757	11195.2
1633.93707	11542.7
1637.23439	12132.5
1640.52951	13117.8
1643.82246	14395.7
1647.11321	15718.6
1650.40179	16389.4
1653.68819	15864.6
1656.97241	14376.5
1660.25446	12719.1
1663.53433	11511.5
1666.81203	10774.8
1670.08756	10308.9
1673.36092	10045.1
1676.63211	9858.4
1679.90115	9744.8
1683.16801	9610.3
1686.43272	9509.7
1689.69527	9448.2
1692.95567	9376.3
1696.2139	9306.4
1699.46999	9234.8
1702.72392	9212.3
1705.97571	9197.5
1709.22535	9167.5
1712.47284	9134
1715.71819	9147.2
1718.96139	9115.4
1722.20246	9115.3
1725.44139	9036.2
1728.67818	9002.2
1731.91284	8938.2
1735.14537	8925.3
1738.37576	8879.9
1741.60403	8832.8
1744.83017	8843.3
1748.05418	8820.4
1751.27607	8807.4
1754.49584	8804.5
1757.71349	8819.8
1760.92903	8799.5
1764.14244	8787.4
1767.35375	8748.3
1770.56294	8725.8
1773.77002	8686.9
1776.97499	8667.8
1780.17785	8642.2
1783.37861	8618.3
1786.57727	8623.7
1789.77382	8565.7
1792.96828	8542.3
1796.16064	8531
1799.3509	8503.9
1802.53907	8497.9
1805.72514	8471.9
1808.90913	8446.2
1812.09102	8421.7
1815.27083	8395.1
1818.44856	8351.8
1821.6242	8369.4
1824.79776	8349.5
1827.96924	8346.1
1831.13864	8346.9
1834.30597	8322.4
1837.47122	8305.3
1840.6344	8298.4
1843.7955	8297.7
1846.95454	8271.6
1850.11151	8265.2
1853.26642	8259.4
1856.41926	8247.9
1859.57004	8239.2
1862.71876	8232.8
1865.86542	8190.9
1869.01003	8199.4
1872.15258	8184.6
1875.29308	8198.5
1878.43152	8159.8
1881.56792	8179.7
1884.70227	8151.9
1887.83457	8149.6
1890.96482	8136.8
1894.09304	8121.6
1897.21921	8112.9
1900.34335	8089.3
1903.46544	8094
1906.58551	8095.8
1909.70353	8087.4
1912.81953	8030.3
1915.93349	8018.7
1919.04543	8007.1
1922.15534	7982.8
1925.26322	7952.2
1928.36908	7956.5
1931.47292	7939.1
1934.57473	7921
1937.67453	7910
1940.77232	7889.5
1943.86808	7868.9
1946.96184	7853.8
1950.05358	7822.9
1953.14331	7804.3
1956.23103	7787
1959.31675	7746.6
1962.40046	7721.4
1965.48217	7708.2
1968.56188	7695.4
1971.63959	7647
1974.7153	7610.8
1977.78901	7603.1
1980.86073	7576.3
1983.93046	7566
1986.99819	7523.2
1990.06394	7508.5
1993.1277	7477
1996.18947	7457.7
1999.24925	7424.3
2002.30706	7415.9
2005.36288	7399.6
2008.41672	7368.9
2011.46859	7357.8
2014.51848	7335
2017.56639	7318.1
2020.61233	7284.7
2023.6563	7276.5
2026.6983	7238.4
2029.73833	7218.9
2032.7764	7187.2
2035.8125	7192.8
2038.84664	7152.9
2041.87881	7139
2044.90903	7126.6
2047.93729	7086.2
2050.96359	7080.1
2053.98794	7074
2057.01034	7082.3
2060.03078	7076.3
2063.04927	7058.7
2066.06582	7063.5
2069.08042	7047
2072.09307	7034.4
2075.10378	7021.4
2078.11255	7024.6
2081.11938	7035.7
2084.12426	7015.7
2087.12722	7014.3
2090.12824	7001.3
2093.12732	7019
2096.12447	7011.2
2099.11969	7022.4
2102.11299	7014.1
2105.10435	7013.4
2108.09379	7016.6
2111.08131	7032.3
2114.0669	7013.3
2117.05057	7029.2
2120.03233	7029.6
2123.01216	7038.6
2125.99008	7032.6
2128.96609	7023.3
2131.94018	7038.8
2134.91236	7037.7
2137.88263	7051.8
2140.851	7038
2143.81746	7054.2
2146.78201	7041.7
2149.74466	7055.9
2152.7054	7049.1
2155.66425	7016.2
2158.6212	7010.3
2161.57625	7020.2
2164.52941	7021.4
2167.48067	7014.5
2170.43004	7016.1
2173.37752	6993.9
2176.32311	6984.4
2179.26681	6985.5
2182.20863	7000.6
2185.14856	7001.7
2188.08661	6990.8
2191.02278	6986.9
2193.95707	6967.1
2196.88948	6970.4
2199.82001	6951.9
2202.74867	6947.4
2205.67545	6947.6
2208.60037	6915.1
2211.52341	6921.6
2214.44458	6911.5
2217.36388	6885.6
2220.28132	6871.7
2223.1969	6863.2
2226.11061	6840.4
2229.02246	6826
2231.93245	6797.2
2234.84058	6784.7
2237.74686	6779.7
2240.65128	6775.9
2243.55385	6765.2
2246.45456	6757.5
2249.35343	6747.4
2252.25044	6750.8
2255.14561	6732.6
2258.03893	6725.9
2260.93041	6705
2263.82004	6698.6
2266.70783	6688.7
2269.59378	6662.9
2272.4779	6632.4
2275.36017	6635
2278.24061	6612.4
2281.11922	6602.5
2283.996	6583.3
2286.87094	6562.3
2289.74405	6560.3
2292.61534	6555
2295.4848	6565
2298.35243	6523.2
2301.21824	6545.3
2304.08223	6519.8
2306.94439	6520.7
2309.80474	6491.9
2312.66327	6493.1
2315.51999	6473.8
2318.37489	6488.8
2321.22797	6478.4
2324.07925	6450
2326.92871	6444.8
2329.77637	6435.8
2332.62222	6432.8
2335.46626	6434.5
2338.3085	6404.3
2341.14893	6393.8
2343.98756	6402.5
2346.8244	6389.8
2349.65943	6389.8
2352.49267	6370.3
2355.32411	6388.4
2358.15376	6378.7
2360.98161	6382.1
2363.80768	6365
2366.63195	6369.7
2369.45444	6379
2372.27514	6356.3
2375.09405	6365.3
2377.91118	6349.5
2380.72652	6347.9
2383.54009	6310.2
2386.35187	6297.4
2389.16188	6252.4
2391.97011	6258.9
2394.77657	6233.5
2397.58125	6223.3
2400.38416	6212.5
2403.18529	6194.6
2405.98466	6190.5
2408.78226	6177.8
2411.57809	6167.3
2414.37216	6157.8
2417.16446	6161.9
2419.955	6147
2422.74378	6137.5
2425.5308	6129.4
2428.31606	6132.5
2431.09956	6134.2
2433.88131	6119.5
2436.6613	6128.4
2439.43954	6116.3
2442.21603	6096.5
2444.99077	6082.8
2447.76377	6079.4
2450.53501	6087
2453.30451	6086.6
2456.07226	6074.3
2458.83827	6074.5
2461.60254	6069.4
2464.36507	6058.8
2467.12586	6033.4
2469.88492	6043.9
2472.64224	6052.9
2475.39782	6031.4
2478.15167	6044.3
2480.90379	6038.6
2483.65417	6046.3
2486.40283	6041.9
2489.14976	6042.5
2491.89497	6037.7
2494.63845	6038.1
2497.3802	6032.5
2500.12024	6023.6
2502.85855	6008.3
2505.59514	5992.2
2508.33002	5978.8
2511.06318	5970.1
2513.79462	5970.2
2516.52435	5951.3
2519.25237	5942.2
2521.97867	5913.6
2524.70327	5903.3
2527.42616	5909.8
2530.14734	5907.3
2532.86681	5897.9
2535.58458	5884.9
2538.30065	5875
2541.01501	5882.7
2543.72768	5863.9
2546.43864	5851.7
2549.14791	5826.6
2551.85548	5827.4
2554.56136	5820.8
2557.26554	5803.8
2559.96803	5797.7
2562.66883	5785.8
2565.36794	5784
2568.06536	5766.8
2570.7611	5748.9
2573.45514	5735.6
2576.14751	5724.7
2578.83819	5735.9
2581.52719	5725.4
2584.21451	5709.4
2586.90015	5696
2589.58411	5688
2592.2664	5668.1
2594.94701	5654.4
2597.62594	5626.4
2600.30321	5645
2602.9788	5625.2
2605.65273	5617.3
2608.32498	5623
2610.99557	5624.9
2613.66449	5607.9
2616.33175	5599.3
2618.99734	5599.7
2621.66128	5584.8
2624.32355	5575.7
2626.98416	5556.8
2629.64311	5540.6
2632.30041	5551.8
2634.95605	5539.1
2637.61004	5542
2640.26238	5523
2642.91306	5509.6
2645.56209	5517.6
2648.20948	5505.5
2650.85521	5494.9
2653.4993	5488.9
2656.14175	5511
2658.78255	5498.4
2661.42171	5490
2664.05923	5517.5
2666.6951	5495.2
2669.32934	5515.3
2671.96194	5502.9
2674.59291	5503.9
2677.22224	5499.4
2679.84993	5495.1
2682.476	5499.1
2685.10043	5499
2687.72324	5504.6
2690.34441	5477.3
2692.96396	5494
2695.58188	5485
2698.19818	5486.8
2700.81285	5493.4
2703.4259	5475.2
2706.03733	5478.5
2708.64714	5479.2
2711.25533	5486.6
2713.86191	5473.9
2716.46687	5493.1
2719.07021	5483.7
2721.67194	5489.3
2724.27206	5480.9
2726.87057	5482.2
2729.46747	5485.1
2732.06276	5488.5
2734.65644	5467.8
2737.24852	5491.6
2739.83899	5469.3
2742.42786	5447.1
2745.01513	5447
2747.60079	5448.5
2750.18486	5432.2
2752.76733	5433.2
2755.3482	5411.1
2757.92747	5397.9
2760.50515	5398.8
2763.08123	5417.7
2765.65573	5390.9
2768.22863	5400.2
2770.79994	5372.7
2773.36967	5353.8
2775.9378	5374.9
2778.50435	5360.6
2781.06932	5363.1
2783.6327	5354.3
2786.1945	5333.8
2788.75471	5320.8
2791.31335	5305.1
2793.87041	5322.4
2796.42589	5300.8
2798.97979	5288.5
2801.53212	5259.9
2804.08288	5262.5
2806.63206	5257.1
2809.17967	5236.6
2811.72571	5222.1
2814.27018	5242.4
2816.81308	5217.7
2819.35442	5209.9
2821.89419	5204.6
2824.43239	5223.1
2826.96904	5210.5
2829.50412	5179.2
2832.03763	5199.1
2834.56959	5180.7
2837.1	5176.5
2839.62884	5210.6
2842.15613	5209.4
2844.68186	5221.4
2847.20604	5212.3
2849.72867	5242.7
2852.24974	5234
2854.76927	5238
2857.28724	5223.4
2859.80367	5196.5
2862.31855	5198.4
2864.83189	5191.7
2867.34368	5192.2
2869.85393	5191.5
2872.36264	5175.5
2874.8698	5189.5
2877.37543	5171
2879.87952	5161.9
2882.38207	5153.5
2884.88308	5149.4
2887.38256	5170.2
2889.88051	5160.3
2892.37692	5159.4
2894.8718	5156.7
2897.36515	5183.8
2899.85698	5170.3
2902.34727	5166.7
2904.83604	5177
2907.32328	5193.2
2909.809	5189
2912.29319	5191.2
2914.77587	5198.1
2917.25702	5183.4
2919.73665	5207.2
2922.21476	5219.2
2924.69136	5195.1
2927.16644	5203.5
2929.64	5180.5
2932.11205	5171.5
2934.58258	5157.4
2937.05161	5170.7
2939.51912	5181
2941.98513	5154.1
2944.44962	5143.9
2946.91261	5113.3
2949.37409	5129.5
2951.83407	5124.1
2954.29254	5110.4
2956.74951	5082.9
2959.20498	5088.1
2961.65895	5091.6
2964.11142	5081
2966.56239	5052.9
2969.01186	5045.3
2971.45984	5041
2973.90632	5028.4
2976.35131	5012
2978.7948	5019.8
2981.23681	4988.5
2983.67732	4979.2
2986.11635	4981.9
2988.55388	4959.2
2990.98993	4948
2993.4245	4916
2995.85758	4934.8
2998.28917	4931.3
3000.71928	4904.2
3003.14791	4899.5
3005.57506	4896.2
3008.00073	4890
3010.42493	4869
3012.84764	4865
3015.26888	4851
3017.68865	4852.9
3020.10694	4848
3022.52376	4844.8
3024.9391	4811.4
3027.35298	4811.9
3029.76539	4822.7
3032.17632	4802.3
3034.5858	4808.5
3036.9938	4783.2
3039.40034	4770.9
3041.80542	4777.5
3044.20903	4763.5
3046.61118	4765.6
3049.01187	4766
3051.4111	4752.6
3053.80888	4740.4
3056.20519	4749.6
3058.60005	4739.2
3060.99345	4750.8
3063.3854	4735
3065.7759	4723
3068.16494	4713.5
3070.55254	4686.4
3072.93868	4686.4
3075.32338	4675.4
3077.70662	4659.1
3080.08842	4650.2
3082.46878	4638.4
3084.84769	4642.4
3087.22515	4661
3089.60118	4641.2
3091.97576	4650.7
3094.3489	4653.9
3096.72061	4666
3099.09087	4665.3
3101.4597	4639
3103.82709	4658.2
3106.19305	4656.3
3108.55757	4669.1
3110.92066	4640.4
3113.28232	4640.9
3115.64255	4618.1
3118.00134	4612.7
3120.35871	4610.7
3122.71466	4604.3
3125.06917	4586
3127.42226	4587.1
3129.77393	4584.2
3132.12417	4594.6
3134.47299	4591.2
3136.82039	4592.8
3139.16636	4592.5
3141.51092	4591.1
3143.85406	4600.9
3146.19579	4619.6
3148.53609	4601.6
3150.87499	4624.3
3153.21246	4626.6
3155.54853	4610
3157.88318	4622.9
3160.21642	4625.7
3162.54826	4635.4
3164.87868	4628.8
3167.2077	4622.2
3169.5353	4628.8
3171.86151	4638.9
3174.18631	4626.9
3176.5097	4623
3178.83169	4623.9
3181.15228	4614.8
3183.47147	4616.4
3185.78926	4608.3
3188.10565	4594.4
3190.42065	4597.2
3192.73424	4610.5
3195.04645	4612.9
3197.35725	4619.5
3199.66667	4621.7
3201.97469	4628.9
3204.28132	4622.6
3206.58656	4621.3
3208.8904	4628.5
3211.19287	4622.3
3213.49394	4637.1
3215.79363	4632.5
3218.09193	4638.9
3220.38884	4636.7
3222.68438	4643.6
3224.97853	4630
3227.2713	4637.5
3229.56269	4635.3
3231.8527	4634.9
3234.14133	4625.3
3236.42858	4592.2
3238.71446	4586.2
3240.99896	4578.9
3243.28209	4597.2
3245.56384	4575.6
3247.84423	4583.2
3250.12324	4578.5
3252.40088	4580.8
3254.67715	4569.5
3256.95205	4564.8
3259.22558	4573.9
3261.49775	4553.1
3263.76855	4543.1
3266.03799	4553.7
3268.30606	4543.7
3270.57277	4543.5
3272.83812	4544.2
3275.10211	4519.9
3277.36474	4505.8
3279.62601	4507.4
3281.88593	4495.8
3284.14448	4488.8
3286.40168	4497.7
3288.65753	4484.8
3290.91202	4495
3293.16516	4496.2
3295.41695	4472.6
3297.66738	4444.6
3299.91647	4421
3302.16421	4403.3
3304.4106	4372.7
3306.65564	4357.1
3308.89933	4363.3
3311.14169	4300.9
3313.38269	4274
3315.62236	4252.1
3317.86068	4219.7
3320.09766	4188.4
3322.3333	4158.5
3324.5676	4135.9
3326.80056	4066.7
3329.03219	4059.9
3331.26248	2.6
3333.49143	0.1
3335.71905	-0.4
