Data from AgNPs_FTO_APTES_UA_50uM_CRN_1uM_R6G_10uM_NaF_0.1M_Addition_RamanShift__12__11-29-34-721.txt Node

Date: Mon Feb 21 11:29:34 GMT 2022
User: TCL
Spectrometer: QEP01345
Trigger mode: 4
Integration Time (sec): 7.000000E0
Scans to average: 10
Electric dark correction enabled: true
Nonlinearity correction enabled: false
Boxcar width: 0
XAxis mode: Raman Shifts
Number of Pixels in Spectrum: 1044
>>>>>Begin Spectral Data<<<<<
46.04893	0.5
50.45542	-0.6
54.85868	-0.6
59.25871	-1.4
63.6555	56.2
68.04907	64.7
72.43941	65
76.82654	69.7
81.21044	70.8
85.59113	73.9
89.96862	74.4
94.34289	79.2
98.71396	82.1
103.08183	85.3
107.4465	86.9
111.80798	87.8
116.16626	87.1
120.52136	87.5
124.87327	96.9
129.222	97.3
133.56755	99.1
137.90993	111.6
142.24913	119.3
146.58517	133.7
150.91804	151.3
155.24774	178.7
159.57429	220
163.89768	278
168.21792	369.3
172.53501	508.1
176.84895	705.4
181.15975	983.1
185.46741	1380.3
189.77193	1904.1
194.07331	2557.7
198.37157	3310.1
202.6667	4072.6
206.9587	4851.1
211.24758	5628.2
215.53334	6375.8
219.81599	7177.8
224.09553	8043.1
228.37195	8987.8
232.64527	10082.7
236.91549	11198.5
241.18261	12351
245.44663	13460.1
249.70755	14451.9
253.96539	15304.8
258.22014	16022.5
262.4718	16566.5
266.72039	16932.1
270.96589	17096.5
275.20832	17063.1
279.44768	16963.4
283.68397	16736.1
287.91719	16571.6
292.14735	16480.7
296.37445	16390.3
300.59849	16386.8
304.81948	16374.1
309.03742	16390
313.25231	16326.8
317.46415	16117.6
321.67296	15829.3
325.87872	15558.3
330.08145	15424.7
334.28114	15413.1
338.47781	15484.7
342.67145	15640.9
346.86207	15867.3
351.04966	16144.2
355.23424	16363.4
359.4158	16627.6
363.59435	16801.4
367.76989	16972.1
371.94243	17045.6
376.11196	17031.4
380.27849	17055.1
384.44203	17092.8
388.60257	17213.1
392.76012	17370.3
396.91468	17665.3
401.06626	17966
405.21485	18189.2
409.36047	18124.8
413.50311	17914.1
417.64277	17797.7
421.77947	17813.6
425.9132	17899
430.04396	17999.8
434.17176	18040.7
438.2966	18108.1
442.41849	18294.4
446.53742	18630.6
450.6534	18997.3
454.76644	19280.7
458.87653	19392.4
462.98368	19406.9
467.08789	19384.8
471.18916	19246.1
475.2875	19054.4
479.38291	18941.2
483.4754	18913.7
487.56496	18851.5
491.6516	18653.3
495.73531	18460.7
499.81612	18293.8
503.89401	18333.6
507.96899	18420.1
512.04106	18409
516.11023	18351.2
520.1765	18243.5
524.23987	18100.6
528.30034	17908.2
532.35792	17806.8
536.41261	17657.3
540.46441	17504.5
544.51333	17548
548.55936	17684.2
552.60252	17948.1
556.64279	18248.5
560.6802	18529.1
564.71473	18731.3
568.7464	19085.2
572.7752	19651.2
576.80114	20406.6
580.82422	21099.6
584.84444	21638.1
588.86181	22228.8
592.87633	22827.1
596.888	22798.3
600.89682	22048.9
604.9028	21650
608.90594	22436.9
612.90624	23372.5
616.90371	22146.7
620.89834	19540.7
624.89015	18406.6
628.87913	18319.9
632.86528	18510.7
636.84862	18583.2
640.82913	18355.9
644.80683	17955.1
648.78172	17636.5
652.75379	17562.5
656.72306	17732.9
660.68952	17941.8
664.65319	17961.8
668.61405	17814.4
672.57211	17751.4
676.52738	17823.2
680.47986	17795
684.42955	17717.8
688.37646	17667.8
692.32058	17740.9
696.26192	17920.3
700.20048	18121.4
704.13626	18256.5
708.06928	18292.1
711.99952	18279.4
715.927	18235.2
719.85171	18194.1
723.77365	18110.6
727.69284	17866.9
731.60928	17621.7
735.52295	17516.3
739.43388	17463.6
743.34206	17512
747.24749	17619.8
751.15017	17815.1
755.05012	18088.2
758.94733	18490.5
762.8418	19214.6
766.73354	20246.3
770.62254	21194
774.50882	21326.4
778.39237	20629.6
782.27321	19556.8
786.15132	18719.6
790.02671	18145.6
793.89938	17789.1
797.76935	17620.5
801.6366	17544.7
805.50115	17475.7
809.36299	17430.7
813.22213	17339.3
817.07857	17283.1
820.93231	17303.1
824.78336	17226.1
828.63172	17174.4
832.47738	17131.3
836.32036	17112.2
840.16066	17083.6
843.99827	17117.9
847.8332	17101.6
851.66546	17176.5
855.49504	17153.9
859.32195	17197.9
863.1462	17173.2
866.96777	17116.5
870.78668	17129.9
874.60293	17172.5
878.41652	17178.8
882.22745	17215.7
886.03573	17266.7
889.84136	17275.4
893.64433	17240.1
897.44466	17224.9
901.24235	17220.4
905.0374	17174.4
908.8298	17137
912.61957	17142.3
916.40671	17282.7
920.19121	17465.7
923.97308	17637.7
927.75233	17655.3
931.52895	17493.6
935.30295	17236.4
939.07433	16971.8
942.84309	16798.2
946.60924	16662.2
950.37278	16591.9
954.13371	16587.3
957.89203	16582.4
961.64774	16559.5
965.40086	16542.6
969.15137	16527.6
972.89929	16473.6
976.64461	16451
980.38733	16381.8
984.12747	16406.5
987.86502	16453.1
991.59999	16536.3
995.33237	16671
999.06217	16855.7
1002.78939	17072.4
1006.51404	17337.6
1010.23611	17640.6
1013.95561	17788
1017.67255	17852.6
1021.38692	17737
1025.09872	17498.3
1028.80796	17279.6
1032.51465	17187.8
1036.21877	17185.3
1039.92035	17272.8
1043.61937	17369.8
1047.31584	17405.7
1051.00976	17437.7
1054.70114	17510.1
1058.38998	17612.3
1062.07627	17790
1065.76003	18001.1
1069.44126	18247.1
1073.11995	18548.3
1076.79611	18830.3
1080.46974	18949.6
1084.14085	19044.5
1087.80943	19197.6
1091.47549	19375
1095.13903	19495.8
1098.80005	19277.7
1102.45857	18850.2
1106.11456	18483.8
1109.76805	18278.7
1113.41903	18221.4
1117.06751	18202.3
1120.71348	18315.2
1124.35696	18466.5
1127.99793	18649.6
1131.63641	18765.9
1135.2724	18790.8
1138.90589	18775
1142.5369	18781.9
1146.16542	18893.9
1149.79145	19054.9
1153.415	19242.7
1157.03607	19401.7
1160.65467	19756
1164.27079	20346.8
1167.88443	21075.2
1171.49561	21944.8
1175.10432	23013.2
1178.71056	24294.3
1182.31434	25539.7
1185.91565	26308.5
1189.51451	26538.2
1193.11091	26324.5
1196.70485	25708.9
1200.29634	24942.3
1203.88538	24255.6
1207.47197	23924.7
1211.05612	23703.4
1214.63782	23439.4
1218.21708	22944.5
1221.79391	22335.8
1225.36829	21852.4
1228.94024	21566.6
1232.50976	21417.6
1236.07685	21293.2
1239.6415	21141.6
1243.20374	21133.2
1246.76355	21175.5
1250.32093	21346.9
1253.8759	21707.5
1257.42845	22192.2
1260.97859	22763.9
1264.52631	23421.2
1268.07163	24073.9
1271.61453	24650.8
1275.15503	25164
1278.69312	25751.7
1282.22882	26458.6
1285.76211	27241.7
1289.29301	28052.6
1292.82151	28987
1296.34761	30092.5
1299.87133	31350.7
1303.39266	32563.9
1306.9116	33585.9
1310.42815	34326.5
1313.94233	34670.4
1317.45412	34494.1
1320.96354	34177.4
1324.47058	33970.4
1327.97525	33800.6
1331.47754	33864
1334.97747	33884.8
1338.47502	33840
1341.97022	33865.9
1345.46305	33764.5
1348.95352	33566.4
1352.44163	33385.4
1355.92738	33391.3
1359.41078	33779.8
1362.89183	34347.4
1366.37053	34033.3
1369.84688	32235.5
1373.32088	29613.5
1376.79254	27696.2
1380.26186	26811.4
1383.72883	26625.7
1387.19347	26524.8
1390.65578	26253
1394.11575	26035
1397.57339	26084.1
1401.0287	26274.6
1404.48168	26395.5
1407.93234	26243.3
1411.38068	25839.4
1414.82669	25162.6
1418.27039	24387.3
1421.71177	23631.8
1425.15083	23040.8
1428.58758	22850.1
1432.02203	22972.9
1435.45416	23385.3
1438.88399	23887.6
1442.31151	24211.6
1445.73673	24470.9
1449.15965	24723.4
1452.58027	24882.6
1455.9986	24990.5
1459.41463	25296.1
1462.82837	25603.7
1466.23982	25994.7
1469.64898	26296.7
1473.05586	26429.1
1476.46045	26441.1
1479.86276	26397.7
1483.26279	26382.4
1486.66054	26443.1
1490.05602	26626.4
1493.44922	26998.5
1496.84016	27524.1
1500.22882	28197.5
1503.61521	28975.6
1506.99934	29718.2
1510.38121	30228.3
1513.76081	30240.9
1517.13816	29794.6
1520.51324	29140.4
1523.88607	28705.8
1527.25665	28471.5
1530.62498	28351.4
1533.99105	28007.3
1537.35488	27526.7
1540.71647	26818.6
1544.07581	26136.1
1547.4329	25449.6
1550.78776	24949.1
1554.14038	24635.3
1557.49077	24473.3
1560.83892	24440.5
1564.18484	24449.6
1567.52853	24514.1
1570.86999	24721
1574.20922	25089.1
1577.54624	25370.8
1580.88103	25490.3
1584.2136	25597.7
1587.54395	26123.2
1590.87208	26948.5
1594.19801	28068.6
1597.52172	29019.4
1600.84321	29031.9
1604.16251	27938.4
1607.47959	26300.9
1610.79447	24570.3
1614.10715	22940.4
1617.41763	21523.6
1620.7259	20548
1624.03199	20044.8
1627.33587	20024
1630.63757	20399.9
1633.93707	21456.7
1637.23439	23226
1640.52951	25789.5
1643.82246	28861.5
1647.11321	31385.6
1650.40179	31974.7
1653.68819	30130.9
1656.97241	26753.9
1660.25446	23291.9
1663.53433	20657.8
1666.81203	18926.5
1670.08756	17864.9
1673.36092	17261.8
1676.63211	16853.4
1679.90115	16578.8
1683.16801	16316.3
1686.43272	16146.5
1689.69527	16005.7
1692.95567	15834.5
1696.2139	15670.8
1699.46999	15564.9
1702.72392	15479.5
1705.97571	15493.7
1709.22535	15588.2
1712.47284	15583.2
1715.71819	15644.3
1718.96139	15587
1722.20246	15562.6
1725.44139	15505.8
1728.67818	15394.8
1731.91284	15340
1735.14537	15275.5
1738.37576	15220.9
1741.60403	15158.9
1744.83017	15096.3
1748.05418	15017.6
1751.27607	14960.9
1754.49584	14903.6
1757.71349	14825.4
1760.92903	14758.9
1764.14244	14737.5
1767.35375	14725.7
1770.56294	14721.9
1773.77002	14712.2
1776.97499	14749.5
1780.17785	14777.2
1783.37861	14795.4
1786.57727	14767.6
1789.77382	14771.4
1792.96828	14762.7
1796.16064	14744.8
1799.3509	14734.7
1802.53907	14671.6
1805.72514	14649.1
1808.90913	14626.1
1812.09102	14605
1815.27083	14567.9
1818.44856	14581.4
1821.6242	14532.4
1824.79776	14528
1827.96924	14552.6
1831.13864	14523.1
1834.30597	14531.5
1837.47122	14514.2
1840.6344	14532.1
1843.7955	14530.9
1846.95454	14510
1850.11151	14487.3
1853.26642	14481.3
1856.41926	14477.1
1859.57004	14436
1862.71876	14462.9
1865.86542	14441.2
1869.01003	14420.8
1872.15258	14389.3
1875.29308	14355.7
1878.43152	14341.3
1881.56792	14328.1
1884.70227	14305.8
1887.83457	14278.2
1890.96482	14241.2
1894.09304	14213.3
1897.21921	14210.1
1900.34335	14200.2
1903.46544	14166.5
1906.58551	14166.3
1909.70353	14134.4
1912.81953	14127.8
1915.93349	14110.3
1919.04543	14067.6
1922.15534	14033.4
1925.26322	14016.2
1928.36908	13976.2
1931.47292	13932.2
1934.57473	13892.1
1937.67453	13883.2
1940.77232	13853
1943.86808	13777.9
1946.96184	13771.1
1950.05358	13744.9
1953.14331	13721.6
1956.23103	13649.8
1959.31675	13607.8
1962.40046	13536.6
1965.48217	13536.2
1968.56188	13494
1971.63959	13471.9
1974.7153	13425.6
1977.78901	13390.1
1980.86073	13325.6
1983.93046	13292.7
1986.99819	13235.1
1990.06394	13210.4
1993.1277	13172.3
1996.18947	13164.7
1999.24925	13123.7
2002.30706	13060.2
2005.36288	13030.1
2008.41672	12993.3
2011.46859	12930.8
2014.51848	12905.3
2017.56639	12870.2
2020.61233	12838
2023.6563	12824.3
2026.6983	12771.6
2029.73833	12736.4
2032.7764	12715.3
2035.8125	12692.1
2038.84664	12655.2
2041.87881	12663.2
2044.90903	12628.2
2047.93729	12616.1
2050.96359	12601.5
2053.98794	12552.4
2057.01034	12532.2
2060.03078	12547.6
2063.04927	12522.7
2066.06582	12521.9
2069.08042	12518.5
2072.09307	12538.6
2075.10378	12509
2078.11255	12485.1
2081.11938	12492.5
2084.12426	12511.9
2087.12722	12519.5
2090.12824	12504.8
2093.12732	12508
2096.12447	12493.8
2099.11969	12474
2102.11299	12495.8
2105.10435	12511.5
2108.09379	12482.7
2111.08131	12504.1
2114.0669	12522.4
2117.05057	12549.8
2120.03233	12576.1
2123.01216	12575.9
2125.99008	12570.3
2128.96609	12590.5
2131.94018	12560.4
2134.91236	12577.7
2137.88263	12584.1
2140.851	12606.1
2143.81746	12602
2146.78201	12588.9
2149.74466	12611.5
2152.7054	12629.3
2155.66425	12608.9
2158.6212	12582.4
2161.57625	12579.8
2164.52941	12590
2167.48067	12571.2
2170.43004	12553.6
2173.37752	12546.3
2176.32311	12539.3
2179.26681	12564.3
2182.20863	12556.8
2185.14856	12555.8
2188.08661	12522.2
2191.02278	12512.1
2193.95707	12512.1
2196.88948	12524
2199.82001	12493.8
2202.74867	12475.6
2205.67545	12481
2208.60037	12452.1
2211.52341	12427.9
2214.44458	12428.2
2217.36388	12398.4
2220.28132	12369.4
2223.1969	12347.9
2226.11061	12355
2229.02246	12310.8
2231.93245	12321.7
2234.84058	12288.2
2237.74686	12242.1
2240.65128	12258.1
2243.55385	12233.4
2246.45456	12213.6
2249.35343	12193.6
2252.25044	12168.1
2255.14561	12170.5
2258.03893	12153.5
2260.93041	12086.1
2263.82004	12063.7
2266.70783	12063.6
2269.59378	12040.1
2272.4779	12009.2
2275.36017	11988.9
2278.24061	11965.1
2281.11922	11917.5
2283.996	11927.8
2286.87094	11924.4
2289.74405	11876.8
2292.61534	11868.1
2295.4848	11851.3
2298.35243	11825.1
2301.21824	11842
2304.08223	11839
2306.94439	11802.6
2309.80474	11787.1
2312.66327	11804.5
2315.51999	11760.9
2318.37489	11744.8
2321.22797	11747
2324.07925	11751.9
2326.92871	11708.5
2329.77637	11688.9
2332.62222	11690.4
2335.46626	11692.1
2338.3085	11647.4
2341.14893	11653.6
2343.98756	11633.2
2346.8244	11635.4
2349.65943	11635.4
2352.49267	11609.3
2355.32411	11634.8
2358.15376	11611.7
2360.98161	11597.2
2363.80768	11582
2366.63195	11569.9
2369.45444	11590
2372.27514	11564.3
2375.09405	11579.1
2377.91118	11531
2380.72652	11498.4
2383.54009	11476.7
2386.35187	11483
2389.16188	11464.7
2391.97011	11443.4
2394.77657	11420.4
2397.58125	11405.2
2400.38416	11395.2
2403.18529	11391
2405.98466	11375.2
2408.78226	11365.4
2411.57809	11338.7
2414.37216	11317.1
2417.16446	11332.5
2419.955	11311.8
2422.74378	11306.2
2425.5308	11283
2428.31606	11253.5
2431.09956	11246.1
2433.88131	11260.6
2436.6613	11282.7
2439.43954	11263.7
2442.21603	11248.3
2444.99077	11210.6
2447.76377	11215.1
2450.53501	11225.1
2453.30451	11225.2
2456.07226	11206.2
2458.83827	11189.4
2461.60254	11191.7
2464.36507	11167
2467.12586	11144.6
2469.88492	11160.4
2472.64224	11125.1
2475.39782	11146.6
2478.15167	11128.4
2480.90379	11137.7
2483.65417	11166.8
2486.40283	11134.5
2489.14976	11151.5
2491.89497	11133.4
2494.63845	11130.6
2497.3802	11108.7
2500.12024	11141.2
2502.85855	11131.8
2505.59514	11111.8
2508.33002	11091.4
2511.06318	11083.5
2513.79462	11107.5
2516.52435	11051.4
2519.25237	11032
2521.97867	11025.5
2524.70327	11016.1
2527.42616	11002.7
2530.14734	11014
2532.86681	11006.2
2535.58458	10991.8
2538.30065	11016.8
2541.01501	11009.5
2543.72768	10948.8
2546.43864	10939.1
2549.14791	10939.9
2551.85548	10946.2
2554.56136	10926.8
2557.26554	10879.3
2559.96803	10861.2
2562.66883	10839.1
2565.36794	10847.1
2568.06536	10826.2
2570.7611	10803.5
2573.45514	10785.7
2576.14751	10805.6
2578.83819	10789.1
2581.52719	10756.9
2584.21451	10746.6
2586.90015	10737.1
2589.58411	10724.4
2592.2664	10721.4
2594.94701	10706.8
2597.62594	10712
2600.30321	10685.9
2602.9788	10661.6
2605.65273	10662.7
2608.32498	10672
2610.99557	10662.1
2613.66449	10660.4
2616.33175	10647.8
2618.99734	10636.5
2621.66128	10602.3
2624.32355	10585.6
2626.98416	10596.2
2629.64311	10575.4
2632.30041	10564.7
2634.95605	10551.2
2637.61004	10555.7
2640.26238	10538.3
2642.91306	10534.8
2645.56209	10543.5
2648.20948	10514.9
2650.85521	10515.7
2653.4993	10511.4
2656.14175	10531.8
2658.78255	10554.7
2661.42171	10538.3
2664.05923	10546.2
2666.6951	10553.1
2669.32934	10576
2671.96194	10534.1
2674.59291	10562.3
2677.22224	10540.8
2679.84993	10521.6
2682.476	10537.5
2685.10043	10571
2687.72324	10562.9
2690.34441	10567.7
2692.96396	10533.6
2695.58188	10549.1
2698.19818	10528
2700.81285	10531.4
2703.4259	10488.1
2706.03733	10436.5
2708.64714	10441.9
2711.25533	10508.8
2713.86191	10538.5
2716.46687	10560.9
2719.07021	10580.6
2721.67194	10580.4
2724.27206	10581.5
2726.87057	10597.5
2729.46747	10595.7
2732.06276	10610
2734.65644	10583.3
2737.24852	10593.8
2739.83899	10577.6
2742.42786	10567
2745.01513	10585.3
2747.60079	10572.1
2750.18486	10522.5
2752.76733	10504.3
2755.3482	10494.3
2757.92747	10493.8
2760.50515	10482.7
2763.08123	10465.4
2765.65573	10444.5
2768.22863	10443.5
2770.79994	10427.6
2773.36967	10442.1
2775.9378	10415.3
2778.50435	10419.1
2781.06932	10400.2
2783.6327	10438.9
2786.1945	10403
2788.75471	10411.6
2791.31335	10388.1
2793.87041	10371.2
2796.42589	10350.4
2798.97979	10325.8
2801.53212	10267.8
2804.08288	10282.9
2806.63206	10263.4
2809.17967	10283.8
2811.72571	10209.1
2814.27018	10203.4
2816.81308	10186
2819.35442	10165.8
2821.89419	10159.2
2824.43239	10124.7
2826.96904	10121.1
2829.50412	10139.7
2832.03763	10072.3
2834.56959	10061.8
2837.1	10075.1
2839.62884	10090.4
2842.15613	10072.4
2844.68186	10087.9
2847.20604	10071.1
2849.72867	10046
2852.24974	10024.9
2854.76927	10014.9
2857.28724	9989.8
2859.80367	9972.4
2862.31855	9966
2864.83189	9947.9
2867.34368	9945.7
2869.85393	9959.7
2872.36264	9959.2
2874.8698	9954.7
2877.37543	9949.4
2879.87952	9949.4
2882.38207	9958.8
2884.88308	9931.7
2887.38256	9930.2
2889.88051	9921.8
2892.37692	9945.5
2894.8718	9947.6
2897.36515	9956
2899.85698	9941.6
2902.34727	9937.3
2904.83604	9947.3
2907.32328	9939.6
2909.809	9941.7
2912.29319	9962
2914.77587	9946.9
2917.25702	9961.1
2919.73665	9946.4
2922.21476	9950.6
2924.69136	9920.2
2927.16644	9937.5
2929.64	9899.4
2932.11205	9886.1
2934.58258	9881.8
2937.05161	9902.6
2939.51912	9883
2941.98513	9889.5
2944.44962	9858
2946.91261	9847.6
2949.37409	9864.4
2951.83407	9855.5
2954.29254	9847.1
2956.74951	9831.2
2959.20498	9836.8
2961.65895	9812.7
2964.11142	9793.5
2966.56239	9786.5
2969.01186	9811.5
2971.45984	9785.9
2973.90632	9805.9
2976.35131	9761.4
2978.7948	9722.6
2981.23681	9715.9
2983.67732	9718.6
2986.11635	9687.9
2988.55388	9665.8
2990.98993	9652.6
2993.4245	9630.6
2995.85758	9624.6
2998.28917	9591.1
3000.71928	9580
3003.14791	9548.4
3005.57506	9535
3008.00073	9511.8
3010.42493	9478.1
3012.84764	9482.7
3015.26888	9444.8
3017.68865	9450.3
3020.10694	9453.5
3022.52376	9395.8
3024.9391	9409.8
3027.35298	9394.7
3029.76539	9400.6
3032.17632	9402.3
3034.5858	9377.2
3036.9938	9390
3039.40034	9348.2
3041.80542	9342.9
3044.20903	9307.1
3046.61118	9311.8
3049.01187	9302.3
3051.4111	9290.4
3053.80888	9264.7
3056.20519	9229.7
3058.60005	9217
3060.99345	9221.3
3063.3854	9191.9
3065.7759	9174.1
3068.16494	9172.4
3070.55254	9117.3
3072.93868	9097.2
3075.32338	9060
3077.70662	9042.3
3080.08842	9010.3
3082.46878	9017.7
3084.84769	8992.4
3087.22515	9024.5
3089.60118	8987.6
3091.97576	8995.4
3094.3489	8991.3
3096.72061	9010.6
3099.09087	9015.2
3101.4597	8992.4
3103.82709	8971.6
3106.19305	8981.2
3108.55757	9008.6
3110.92066	8940.5
3113.28232	8947.8
3115.64255	8897
3118.00134	8908
3120.35871	8886.7
3122.71466	8845.9
3125.06917	8836.8
3127.42226	8812.7
3129.77393	8842.4
3132.12417	8817.7
3134.47299	8809.1
3136.82039	8799.4
3139.16636	8810
3141.51092	8804.1
3143.85406	8801.1
3146.19579	8816
3148.53609	8818.9
3150.87499	8788.2
3153.21246	8815.5
3155.54853	8818.4
3157.88318	8805.2
3160.21642	8808.1
3162.54826	8803.3
3164.87868	8826.5
3167.2077	8808
3169.5353	8813
3171.86151	8799.2
3174.18631	8781.5
3176.5097	8785.7
3178.83169	8736.7
3181.15228	8764.8
3183.47147	8732.7
3185.78926	8734.5
3188.10565	8712.4
3190.42065	8698.1
3192.73424	8688.9
3195.04645	8675
3197.35725	8667.8
3199.66667	8658.5
3201.97469	8690
3204.28132	8668
3206.58656	8697.5
3208.8904	8696.4
3211.19287	8704.1
3213.49394	8709.6
3215.79363	8685.2
3218.09193	8689.3
3220.38884	8658.7
3222.68438	8659.5
3224.97853	8662.7
3227.2713	8667.6
3229.56269	8675.5
3231.8527	8669.4
3234.14133	8653.4
3236.42858	8620
3238.71446	8607.8
3240.99896	8587
3243.28209	8606.4
3245.56384	8582.3
3247.84423	8575.4
3250.12324	8557.8
3252.40088	8549.5
3254.67715	8548.3
3256.95205	8523.4
3259.22558	8534.5
3261.49775	8511.9
3263.76855	8512.1
3266.03799	8483.4
3268.30606	8471.4
3270.57277	8463
3272.83812	8436.2
3275.10211	8427.2
3277.36474	8405.1
3279.62601	8407.1
3281.88593	8375.4
3284.14448	8402.3
3286.40168	8400.2
3288.65753	8371.1
3290.91202	8370.1
3293.16516	8355.8
3295.41695	8326
3297.66738	8280.3
3299.91647	8226.6
3302.16421	8189.6
3304.4106	8177.5
3306.65564	8123.3
3308.89933	8062
3311.14169	7984.9
3313.38269	7922.2
3315.62236	7887.6
3317.86068	7805
3320.09766	7763.8
3322.3333	7693.5
3324.5676	7647.7
3326.80056	7505
3329.03219	7482.2
3331.26248	2.3
3333.49143	-0.1
3335.71905	0.1
