Data from AgNPs_FTO_APTES_UA_50uM_CRN_0uM_R6G_10uM_NaF_0.1M_Addition_RamanShift__28__10-42-54-658.txt Node

Date: Mon Feb 21 10:42:54 GMT 2022
User: TCL
Spectrometer: QEP01345
Trigger mode: 4
Integration Time (sec): 7.000000E0
Scans to average: 10
Electric dark correction enabled: true
Nonlinearity correction enabled: false
Boxcar width: 0
XAxis mode: Raman Shifts
Number of Pixels in Spectrum: 1044
>>>>>Begin Spectral Data<<<<<
46.04893	0.5
50.45542	-1
54.85868	-0.8
59.25871	-1.6
63.6555	46
68.04907	51
72.43941	49.8
76.82654	55.2
81.21044	56.3
85.59113	61
89.96862	60.1
94.34289	66.9
98.71396	61.4
103.08183	69.8
107.4465	70.2
111.80798	70
116.16626	69.4
120.52136	71
124.87327	78.6
129.222	76.8
133.56755	77.5
137.90993	84
142.24913	91.7
146.58517	101.1
150.91804	117.4
155.24774	137.3
159.57429	169.4
163.89768	215.8
168.21792	282.4
172.53501	381.1
176.84895	528.8
181.15975	734.9
185.46741	1027.5
189.77193	1425.2
194.07331	1905.7
198.37157	2458.2
202.6667	3030.5
206.9587	3583.5
211.24758	4150.5
215.53334	4724.4
219.81599	5338.8
224.09553	5996.3
228.37195	6721.2
232.64527	7540.2
236.91549	8371.3
241.18261	9200.8
245.44663	9988.1
249.70755	10692.2
253.96539	11288.5
258.22014	11775.3
262.4718	12156.5
266.72039	12403.5
270.96589	12521.5
275.20832	12485
279.44768	12367.1
283.68397	12175.3
287.91719	12034.7
292.14735	11943.2
296.37445	11909.6
300.59849	11934.4
304.81948	12026.9
309.03742	12114.4
313.25231	12087.9
317.46415	11978.9
321.67296	11785.5
325.87872	11602.5
330.08145	11496.8
334.28114	11453.1
338.47781	11480.6
342.67145	11629
346.86207	11826.3
351.04966	12061.4
355.23424	12289
359.4158	12514.1
363.59435	12677.5
367.76989	12756.6
371.94243	12802.3
376.11196	12808.3
380.27849	12846.1
384.44203	12863.7
388.60257	12953.2
392.76012	13044.5
396.91468	13219.7
401.06626	13424.8
405.21485	13547.8
409.36047	13509.6
413.50311	13336.6
417.64277	13273.6
421.77947	13301.1
425.9132	13356.9
430.04396	13411.2
434.17176	13417.4
438.2966	13510.3
442.41849	13714
446.53742	14009.8
450.6534	14397.6
454.76644	14664.8
458.87653	14688.3
462.98368	14633.7
467.08789	14436.1
471.18916	14199.2
475.2875	13939.5
479.38291	13761.6
483.4754	13637.9
487.56496	13556.1
491.6516	13469.7
495.73531	13378.4
499.81612	13357.2
503.89401	13434.1
507.96899	13498.9
512.04106	13472.5
516.11023	13401.3
520.1765	13251.6
524.23987	13194.8
528.30034	13116.4
532.35792	13029.4
536.41261	12868.5
540.46441	12708.9
544.51333	12665.9
548.55936	12728.2
552.60252	12955.5
556.64279	13256.3
560.6802	13515.1
564.71473	13647.3
568.7464	13846.1
572.7752	14255.6
576.80114	14703.6
580.82422	15184.6
584.84444	15932.5
588.86181	16991.9
592.87633	17963.5
596.888	17956
600.89682	16870.7
604.9028	16184.7
608.90594	16872.3
612.90624	17941.9
616.90371	17016.1
620.89834	14574.4
624.89015	13413.1
628.87913	13256.5
632.86528	13367.7
636.84862	13367.5
640.82913	13129.8
644.80683	12800.3
648.78172	12662.3
652.75379	12657.1
656.72306	12827.2
660.68952	13030.3
664.65319	12969
668.61405	12737.7
672.57211	12725.5
676.52738	12831.7
680.47986	12838
684.42955	12675.9
688.37646	12617.7
692.32058	12690.7
696.26192	12908.3
700.20048	13082.9
704.13626	13226.9
708.06928	13202.7
711.99952	13178.7
715.927	13221.6
719.85171	13305.9
723.77365	13233.7
727.69284	13010
731.60928	12758.8
735.52295	12688.4
739.43388	12693
743.34206	12752.8
747.24749	12854.8
751.15017	12955.4
755.05012	13152.1
758.94733	13470.4
762.8418	14065.8
766.73354	14975.2
770.62254	15809.3
774.50882	15999.1
778.39237	15382.4
782.27321	14499.5
786.15132	13738.3
790.02671	13227.6
793.89938	12946.2
797.76935	12838.1
801.6366	12786.6
805.50115	12746.1
809.36299	12710.2
813.22213	12644.5
817.07857	12599.2
820.93231	12521.4
824.78336	12462.5
828.63172	12412.2
832.47738	12390.2
836.32036	12369.2
840.16066	12385.9
843.99827	12419.2
847.8332	12398.1
851.66546	12445.3
855.49504	12440.6
859.32195	12449
863.1462	12423
866.96777	12364.5
870.78668	12338.4
874.60293	12386.8
878.41652	12402
882.22745	12467.1
886.03573	12543.6
889.84136	12557.2
893.64433	12491.3
897.44466	12464.2
901.24235	12421.3
905.0374	12351.2
908.8298	12325.4
912.61957	12313.8
916.40671	12401.7
920.19121	12550.5
923.97308	12691.8
927.75233	12795.2
931.52895	12705.2
935.30295	12455.4
939.07433	12250
942.84309	12075.3
946.60924	11986
950.37278	11938.1
954.13371	11950
957.89203	11935.4
961.64774	11935.8
965.40086	11942.3
969.15137	11930.2
972.89929	11869.3
976.64461	11876.1
980.38733	11841.7
984.12747	11872.7
987.86502	11920.1
991.59999	11984.7
995.33237	12073.7
999.06217	12258.7
1002.78939	12487.5
1006.51404	12726
1010.23611	12981.2
1013.95561	13141.6
1017.67255	13201.1
1021.38692	13070.5
1025.09872	12848.9
1028.80796	12681.8
1032.51465	12634.1
1036.21877	12677.3
1039.92035	12752.3
1043.61937	12785.7
1047.31584	12781.5
1051.00976	12754.1
1054.70114	12749.9
1058.38998	12787.7
1062.07627	12891.4
1065.76003	12992.4
1069.44126	13148.7
1073.11995	13401.8
1076.79611	13656.1
1080.46974	13792.9
1084.14085	13884.9
1087.80943	14031.9
1091.47549	14178
1095.13903	14190.3
1098.80005	13933.3
1102.45857	13596.7
1106.11456	13315.7
1109.76805	13190.6
1113.41903	13191.4
1117.06751	13254.1
1120.71348	13394.2
1124.35696	13532.5
1127.99793	13672.2
1131.63641	13759.8
1135.2724	13726.4
1138.90589	13668.4
1142.5369	13674.8
1146.16542	13763.5
1149.79145	13859.9
1153.415	13953
1157.03607	14115.3
1160.65467	14416.4
1164.27079	14982.8
1167.88443	15680.9
1171.49561	16400.7
1175.10432	17372.6
1178.71056	18696.2
1182.31434	19842.6
1185.91565	20355.7
1189.51451	20153.7
1193.11091	19592.4
1196.70485	18919.6
1200.29634	18305.9
1203.88538	17821.2
1207.47197	17502.3
1211.05612	17308.1
1214.63782	17104.4
1218.21708	16684
1221.79391	16264.3
1225.36829	16047.9
1228.94024	15908.8
1232.50976	15731.7
1236.07685	15480.9
1239.6415	15281.2
1243.20374	15184.9
1246.76355	15221
1250.32093	15375.3
1253.8759	15670.1
1257.42845	16087.1
1260.97859	16531.1
1264.52631	17099.5
1268.07163	17586.4
1271.61453	18092.7
1275.15503	18572.3
1278.69312	19072.9
1282.22882	19735.1
1285.76211	20504.7
1289.29301	21413.8
1292.82151	22329.1
1296.34761	23464.8
1299.87133	24825
1303.39266	26131
1306.9116	27284.1
1310.42815	28129.4
1313.94233	28471.5
1317.45412	28117.8
1320.96354	27326.5
1324.47058	26655.6
1327.97525	26155.2
1331.47754	25806.2
1334.97747	25464.6
1338.47502	25003
1341.97022	24528
1345.46305	24127.7
1348.95352	23917.1
1352.44163	24230.1
1355.92738	25213.8
1359.41078	26725.8
1362.89183	28159.4
1366.37053	28343.6
1369.84688	26387.9
1373.32088	23383.1
1376.79254	21136
1380.26186	20229.8
1383.72883	20065.8
1387.19347	19890.7
1390.65578	19556.5
1394.11575	19356.4
1397.57339	19483.3
1401.0287	19788
1404.48168	20011.7
1407.93234	20016.4
1411.38068	19685.9
1414.82669	19112.9
1418.27039	18467.1
1421.71177	17880
1425.15083	17390.1
1428.58758	17185.7
1432.02203	17407.7
1435.45416	17856.5
1438.88399	18352.8
1442.31151	18576.9
1445.73673	18628
1449.15965	18633.1
1452.58027	18555.4
1455.9986	18437.5
1459.41463	18492.9
1462.82837	18760.9
1466.23982	19101.3
1469.64898	19468.9
1473.05586	19690.3
1476.46045	19821.6
1479.86276	19785.9
1483.26279	19760.5
1486.66054	19844.4
1490.05602	20030.3
1493.44922	20380.2
1496.84016	20678.3
1500.22882	21067.9
1503.61521	21582.6
1506.99934	22173.5
1510.38121	22590.4
1513.76081	22704.7
1517.13816	22279.2
1520.51324	21691.7
1523.88607	21142.4
1527.25665	20918.1
1530.62498	20874.6
1533.99105	20646.9
1537.35488	20267.1
1540.71647	19651.4
1544.07581	19064.1
1547.4329	18508.2
1550.78776	18049.2
1554.14038	17702.6
1557.49077	17583.2
1560.83892	17573.5
1564.18484	17614.7
1567.52853	17655.2
1570.86999	17879.2
1574.20922	18209.7
1577.54624	18444.3
1580.88103	18499.2
1584.2136	18600.5
1587.54395	19243
1590.87208	20273.8
1594.19801	21610.6
1597.52172	22739.3
1600.84321	22901.8
1604.16251	21822.1
1607.47959	19974.4
1610.79447	18126.1
1614.10715	16593.3
1617.41763	15450.3
1620.7259	14694.8
1624.03199	14405.7
1627.33587	14428.9
1630.63757	14850
1633.93707	15713.3
1637.23439	17282.1
1640.52951	19738.1
1643.82246	22784
1647.11321	25327.1
1650.40179	25777.8
1653.68819	23651.3
1656.97241	20241.2
1660.25446	17097.9
1663.53433	14883.4
1666.81203	13583.8
1670.08756	12831.1
1673.36092	12397.5
1676.63211	12131.7
1679.90115	11899.7
1683.16801	11766.1
1686.43272	11592.4
1689.69527	11488.7
1692.95567	11358.3
1696.2139	11216.6
1699.46999	11086.5
1702.72392	11034.3
1705.97571	11108.5
1709.22535	11164.4
1712.47284	11222.8
1715.71819	11252.4
1718.96139	11223.5
1722.20246	11212.4
1725.44139	11185.8
1728.67818	11125.8
1731.91284	11065.8
1735.14537	11000.7
1738.37576	10950.2
1741.60403	10902.2
1744.83017	10875.7
1748.05418	10807.8
1751.27607	10744.7
1754.49584	10690.5
1757.71349	10638.5
1760.92903	10554
1764.14244	10544.7
1767.35375	10580.4
1770.56294	10521.1
1773.77002	10574.6
1776.97499	10596.7
1780.17785	10657.5
1783.37861	10648.4
1786.57727	10656.9
1789.77382	10634.5
1792.96828	10662.1
1796.16064	10631.4
1799.3509	10597.7
1802.53907	10599.3
1805.72514	10594.6
1808.90913	10546.1
1812.09102	10527.1
1815.27083	10529.2
1818.44856	10515
1821.6242	10487.4
1824.79776	10500.5
1827.96924	10481.4
1831.13864	10491.3
1834.30597	10481.9
1837.47122	10474.7
1840.6344	10475.1
1843.7955	10472.5
1846.95454	10448.2
1850.11151	10442.6
1853.26642	10414.9
1856.41926	10424.5
1859.57004	10418.3
1862.71876	10403.7
1865.86542	10415.3
1869.01003	10382.5
1872.15258	10397
1875.29308	10367.5
1878.43152	10366.8
1881.56792	10359
1884.70227	10359
1887.83457	10340.6
1890.96482	10324.7
1894.09304	10279.6
1897.21921	10279.1
1900.34335	10264.5
1903.46544	10269.8
1906.58551	10243.1
1909.70353	10239.9
1912.81953	10225
1915.93349	10205.3
1919.04543	10176.2
1922.15534	10178.8
1925.26322	10139.2
1928.36908	10115.4
1931.47292	10094.6
1934.57473	10093
1937.67453	10080.9
1940.77232	10058.9
1943.86808	10035.7
1946.96184	10015.5
1950.05358	9989.4
1953.14331	9972.3
1956.23103	9933.3
1959.31675	9888.9
1962.40046	9865.7
1965.48217	9856.6
1968.56188	9833.2
1971.63959	9819.8
1974.7153	9778.2
1977.78901	9764.3
1980.86073	9713.4
1983.93046	9660.5
1986.99819	9636.6
1990.06394	9610.4
1993.1277	9614.8
1996.18947	9578.3
1999.24925	9549.4
2002.30706	9510.7
2005.36288	9527.6
2008.41672	9481.6
2011.46859	9447.9
2014.51848	9423.4
2017.56639	9416.1
2020.61233	9389.9
2023.6563	9369.1
2026.6983	9337.2
2029.73833	9313.6
2032.7764	9298.5
2035.8125	9251.3
2038.84664	9245.9
2041.87881	9252.9
2044.90903	9226.3
2047.93729	9219.6
2050.96359	9210.9
2053.98794	9173.6
2057.01034	9192.7
2060.03078	9188.9
2063.04927	9174.5
2066.06582	9163.1
2069.08042	9154.5
2072.09307	9175.4
2075.10378	9148.3
2078.11255	9149.1
2081.11938	9163
2084.12426	9178.2
2087.12722	9161.8
2090.12824	9161.6
2093.12732	9159.9
2096.12447	9173.7
2099.11969	9178.4
2102.11299	9174.3
2105.10435	9193.4
2108.09379	9159.1
2111.08131	9179.9
2114.0669	9187.1
2117.05057	9200.1
2120.03233	9208
2123.01216	9214.7
2125.99008	9234
2128.96609	9240
2131.94018	9250.8
2134.91236	9241.4
2137.88263	9250.3
2140.851	9273.3
2143.81746	9259.9
2146.78201	9261.3
2149.74466	9265.8
2152.7054	9264.5
2155.66425	9258.8
2158.6212	9265.3
2161.57625	9277.7
2164.52941	9263.8
2167.48067	9271.8
2170.43004	9236.5
2173.37752	9231.8
2176.32311	9224.6
2179.26681	9214.8
2182.20863	9224.2
2185.14856	9262.5
2188.08661	9266.5
2191.02278	9244.3
2193.95707	9235.2
2196.88948	9253.4
2199.82001	9213.8
2202.74867	9206.3
2205.67545	9187.4
2208.60037	9189.9
2211.52341	9182.3
2214.44458	9186.9
2217.36388	9139.3
2220.28132	9127.6
2223.1969	9104.4
2226.11061	9125
2229.02246	9101
2231.93245	9077.4
2234.84058	9058.8
2237.74686	9066.7
2240.65128	9068.5
2243.55385	9061.9
2246.45456	9032.6
2249.35343	9026.4
2252.25044	9001.8
2255.14561	9021.5
2258.03893	8994.8
2260.93041	8956.1
2263.82004	8906.4
2266.70783	8926.7
2269.59378	8900.2
2272.4779	8876.2
2275.36017	8883.4
2278.24061	8863.7
2281.11922	8836.1
2283.996	8831.4
2286.87094	8813.1
2289.74405	8803.3
2292.61534	8816.8
2295.4848	8814.8
2298.35243	8784.1
2301.21824	8764
2304.08223	8781.1
2306.94439	8785.6
2309.80474	8781.1
2312.66327	8765.1
2315.51999	8772.8
2318.37489	8788.3
2321.22797	8747.8
2324.07925	8731.7
2326.92871	8726.6
2329.77637	8724.9
2332.62222	8705.4
2335.46626	8705.4
2338.3085	8665.7
2341.14893	8664.3
2343.98756	8678.5
2346.8244	8710.5
2349.65943	8682.7
2352.49267	8680.7
2355.32411	8676.4
2358.15376	8684.6
2360.98161	8686.4
2363.80768	8653.2
2366.63195	8665.7
2369.45444	8638.8
2372.27514	8634.1
2375.09405	8620.2
2377.91118	8626.5
2380.72652	8606.5
2383.54009	8576.1
2386.35187	8573
2389.16188	8555.3
2391.97011	8559.2
2394.77657	8559.4
2397.58125	8512.9
2400.38416	8522.7
2403.18529	8506.9
2405.98466	8513.2
2408.78226	8487.8
2411.57809	8464.6
2414.37216	8446.7
2417.16446	8466.6
2419.955	8476.6
2422.74378	8461.2
2425.5308	8425.2
2428.31606	8447
2431.09956	8449.1
2433.88131	8456.9
2436.6613	8440.7
2439.43954	8430.4
2442.21603	8451
2444.99077	8427.5
2447.76377	8432.5
2450.53501	8424.2
2453.30451	8423.8
2456.07226	8409.7
2458.83827	8391.1
2461.60254	8408.9
2464.36507	8384.5
2467.12586	8374.1
2469.88492	8384.6
2472.64224	8386.3
2475.39782	8372.1
2478.15167	8352.5
2480.90379	8375.5
2483.65417	8390.8
2486.40283	8386.7
2489.14976	8402.7
2491.89497	8390.7
2494.63845	8363
2497.3802	8367.4
2500.12024	8396.7
2502.85855	8369.8
2505.59514	8362.6
2508.33002	8366.8
2511.06318	8340.2
2513.79462	8336.6
2516.52435	8331.2
2519.25237	8317
2521.97867	8318.3
2524.70327	8310.3
2527.42616	8310.7
2530.14734	8312.5
2532.86681	8302.4
2535.58458	8302.9
2538.30065	8295.2
2541.01501	8278.8
2543.72768	8248.3
2546.43864	8256.6
2549.14791	8238.4
2551.85548	8250.2
2554.56136	8222.2
2557.26554	8226
2559.96803	8199.1
2562.66883	8211.8
2565.36794	8200.2
2568.06536	8180.1
2570.7611	8193.5
2573.45514	8184.9
2576.14751	8182.5
2578.83819	8173.9
2581.52719	8141.4
2584.21451	8159.9
2586.90015	8119.9
2589.58411	8117.2
2592.2664	8123.4
2594.94701	8115.4
2597.62594	8127.4
2600.30321	8093.4
2602.9788	8092.4
2605.65273	8078.5
2608.32498	8109.6
2610.99557	8105.5
2613.66449	8105.3
2616.33175	8093.7
2618.99734	8081.8
2621.66128	8077.9
2624.32355	8051.6
2626.98416	8024.2
2629.64311	8042.3
2632.30041	8025.5
2634.95605	8024.9
2637.61004	7995.5
2640.26238	8007
2642.91306	8013.4
2645.56209	7994.4
2648.20948	7978
2650.85521	7958.4
2653.4993	7976.8
2656.14175	7981.4
2658.78255	8013.9
2661.42171	8024
2664.05923	8017.2
2666.6951	8025.1
2669.32934	8018.3
2671.96194	8043.7
2674.59291	8044.4
2677.22224	8025.7
2679.84993	8036
2682.476	8027.7
2685.10043	8043.4
2687.72324	8037.9
2690.34441	8019.7
2692.96396	8040.6
2695.58188	8048.5
2698.19818	8024.7
2700.81285	8009.4
2703.4259	7994.9
2706.03733	7924.5
2708.64714	7953.3
2711.25533	7998
2713.86191	8015.7
2716.46687	8046.1
2719.07021	8071.7
2721.67194	8100.1
2724.27206	8089.3
2726.87057	8062.6
2729.46747	8076.5
2732.06276	8084.7
2734.65644	8079.7
2737.24852	8085.6
2739.83899	8098.1
2742.42786	8066.1
2745.01513	8081
2747.60079	8077.4
2750.18486	8058.9
2752.76733	8057.2
2755.3482	8040.1
2757.92747	8023.9
2760.50515	8025.1
2763.08123	8011.7
2765.65573	8014.4
2768.22863	8033.6
2770.79994	7993.3
2773.36967	8020.9
2775.9378	8013.4
2778.50435	7999.7
2781.06932	8002.1
2783.6327	7993.6
2786.1945	7979.4
2788.75471	7980.8
2791.31335	7946.2
2793.87041	7942.1
2796.42589	7915.3
2798.97979	7901.6
2801.53212	7912.6
2804.08288	7904
2806.63206	7886.2
2809.17967	7869.5
2811.72571	7844.1
2814.27018	7847.2
2816.81308	7850.4
2819.35442	7830
2821.89419	7826.8
2824.43239	7784.7
2826.96904	7790.9
2829.50412	7772.8
2832.03763	7779
2834.56959	7798.7
2837.1	7772.1
2839.62884	7787.1
2842.15613	7780
2844.68186	7788.4
2847.20604	7787.8
2849.72867	7801
2852.24974	7790
2854.76927	7784
2857.28724	7734.3
2859.80367	7750.5
2862.31855	7741.1
2864.83189	7740
2867.34368	7732.8
2869.85393	7749.2
2872.36264	7739.3
2874.8698	7752
2877.37543	7759
2879.87952	7744.2
2882.38207	7735.3
2884.88308	7744.6
2887.38256	7778.3
2889.88051	7755.3
2892.37692	7755.2
2894.8718	7748.3
2897.36515	7764.2
2899.85698	7769
2902.34727	7780.5
2904.83604	7776.7
2907.32328	7794.5
2909.809	7786.9
2912.29319	7792.7
2914.77587	7818.5
2917.25702	7803.5
2919.73665	7773.5
2922.21476	7813.1
2924.69136	7797
2927.16644	7800.3
2929.64	7788.1
2932.11205	7755.5
2934.58258	7743.5
2937.05161	7761.2
2939.51912	7771.4
2941.98513	7754.6
2944.44962	7710
2946.91261	7698.7
2949.37409	7712.5
2951.83407	7699.6
2954.29254	7695.8
2956.74951	7676.3
2959.20498	7694.8
2961.65895	7688.1
2964.11142	7694.8
2966.56239	7668.7
2969.01186	7666.2
2971.45984	7631.4
2973.90632	7641
2976.35131	7628.7
2978.7948	7610.6
2981.23681	7621.7
2983.67732	7576.8
2986.11635	7551.3
2988.55388	7537.6
2990.98993	7510
2993.4245	7519.5
2995.85758	7515.1
2998.28917	7480.9
3000.71928	7473.3
3003.14791	7457.1
3005.57506	7452.7
3008.00073	7429.5
3010.42493	7418.9
3012.84764	7404.3
3015.26888	7416
3017.68865	7394.3
3020.10694	7384.6
3022.52376	7371.2
3024.9391	7351.7
3027.35298	7351.6
3029.76539	7351.6
3032.17632	7358.1
3034.5858	7338.9
3036.9938	7333.6
3039.40034	7337.5
3041.80542	7327.4
3044.20903	7284.1
3046.61118	7305.1
3049.01187	7298.5
3051.4111	7304.1
3053.80888	7285.2
3056.20519	7258.5
3058.60005	7267.3
3060.99345	7250.4
3063.3854	7247.8
3065.7759	7212.7
3068.16494	7220
3070.55254	7178
3072.93868	7167.4
3075.32338	7152.2
3077.70662	7149.6
3080.08842	7093.9
3082.46878	7111.5
3084.84769	7110.3
3087.22515	7121.1
3089.60118	7118.8
3091.97576	7094.7
3094.3489	7094.7
3096.72061	7112
3099.09087	7104.7
3101.4597	7113.1
3103.82709	7091.2
3106.19305	7093.4
3108.55757	7086.6
3110.92066	7073.6
3113.28232	7067.6
3115.64255	7049.9
3118.00134	7048.9
3120.35871	7038.2
3122.71466	7025.8
3125.06917	6986.8
3127.42226	6994
3129.77393	6986.1
3132.12417	6988.3
3134.47299	6989.8
3136.82039	6987
3139.16636	6985.3
3141.51092	6987.6
3143.85406	6993.3
3146.19579	7003
3148.53609	6986.2
3150.87499	6987.3
3153.21246	6992.5
3155.54853	7020.6
3157.88318	7001
3160.21642	7021.1
3162.54826	7017.8
3164.87868	7011.7
3167.2077	7034.4
3169.5353	7011.1
3171.86151	7029.8
3174.18631	6991.8
3176.5097	6999.4
3178.83169	6998.4
3181.15228	6996.2
3183.47147	6984.3
3185.78926	6971.2
3188.10565	6972.8
3190.42065	6961.9
3192.73424	6981
3195.04645	6935.4
3197.35725	6961.2
3199.66667	6957
3201.97469	6959.4
3204.28132	6957.6
3206.58656	6978.5
3208.8904	6976.4
3211.19287	7000.5
3213.49394	6977.7
3215.79363	7000.9
3218.09193	6982.4
3220.38884	6972
3222.68438	6956.1
3224.97853	6955.7
3227.2713	6983.1
3229.56269	6966.3
3231.8527	6984.3
3234.14133	6980
3236.42858	6954.9
3238.71446	6954.6
3240.99896	6937.4
3243.28209	6920.9
3245.56384	6923.9
3247.84423	6925.1
3250.12324	6895.9
3252.40088	6898.8
3254.67715	6878
3256.95205	6891
3259.22558	6883.7
3261.49775	6871.6
3263.76855	6863.9
3266.03799	6848.8
3268.30606	6837.1
3270.57277	6854.6
3272.83812	6813.9
3275.10211	6806.4
3277.36474	6804.7
3279.62601	6802.1
3281.88593	6801.8
3284.14448	6801.8
3286.40168	6787.7
3288.65753	6806.5
3290.91202	6794.2
3293.16516	6759.8
3295.41695	6762.9
3297.66738	6720
3299.91647	6693.2
3302.16421	6655.2
3304.4106	6641.2
3306.65564	6571.3
3308.89933	6542.8
3311.14169	6502.7
3313.38269	6429.6
3315.62236	6385.3
3317.86068	6343.3
3320.09766	6295.1
3322.3333	6262.5
3324.5676	6229.1
3326.80056	6113.2
3329.03219	6068.7
3331.26248	2.1
3333.49143	-0.9
3335.71905	0.4
