Data from AgNPs_FTO_APTES_UA_50uM_CRN_10uM_R6G_10uM_NaF_0.1M_Addition_RamanShift__12__13-27-24-874.txt Node

Date: Mon Feb 21 13:27:24 GMT 2022
User: TCL
Spectrometer: QEP01345
Trigger mode: 4
Integration Time (sec): 7.000000E0
Scans to average: 10
Electric dark correction enabled: true
Nonlinearity correction enabled: false
Boxcar width: 0
XAxis mode: Raman Shifts
Number of Pixels in Spectrum: 1044
>>>>>Begin Spectral Data<<<<<
46.04893	0.6375
50.45542	-1.4625
54.85868	-0.4625
59.25871	-2.6625
63.6555	62.5375
68.04907	65.9375
72.43941	65.0375
76.82654	71.4375
81.21044	73.0375
85.59113	80.0375
89.96862	80.0375
94.34289	81.1375
98.71396	85.0375
103.08183	90.9375
107.4465	89.1375
111.80798	89.2375
116.16626	92.3375
120.52136	93.8375
124.87327	102.6375
129.222	101.3375
133.56755	105.7375
137.90993	118.7375
142.24913	124.7375
146.58517	138.2375
150.91804	164.2375
155.24774	191.1375
159.57429	236.4375
163.89768	299.7375
168.21792	398.5375
172.53501	537.3375
176.84895	752.7375
181.15975	1051.8375
185.46741	1474.0375
189.77193	2037.7375
194.07331	2718.5375
198.37157	3521.4375
202.6667	4343.6375
206.9587	5177.7375
211.24758	5968.0375
215.53334	6744.7375
219.81599	7596.7375
224.09553	8519.1375
228.37195	9533.4375
232.64527	10687.3375
236.91549	11909.4375
241.18261	13122.3375
245.44663	14299.6375
249.70755	15325.2375
253.96539	16165.3375
258.22014	16853.3375
262.4718	17446.0375
266.72039	17796.0375
270.96589	17965.7375
275.20832	17938.5375
279.44768	17808.2375
283.68397	17556.4375
287.91719	17405.7375
292.14735	17218.2375
296.37445	17150.8375
300.59849	17095.7375
304.81948	17075.2375
309.03742	17086.9375
313.25231	16974.8375
317.46415	16760.8375
321.67296	16458.9375
325.87872	16217.6375
330.08145	16128.0375
334.28114	16157.0375
338.47781	16259.9375
342.67145	16472.5375
346.86207	16709.9375
351.04966	16985.1375
355.23424	17261.0375
359.4158	17561.9375
363.59435	17742.4375
367.76989	17844.3375
371.94243	17905.1375
376.11196	17922.5375
380.27849	17999.4375
384.44203	18027.1375
388.60257	18154.7375
392.76012	18328.9375
396.91468	18574.3375
401.06626	18840.5375
405.21485	19028.9375
409.36047	18946.8375
413.50311	18701.3375
417.64277	18510.1375
421.77947	18540.8375
425.9132	18607.8375
430.04396	18756.1375
434.17176	18847.9375
438.2966	19047.1375
442.41849	19271.7375
446.53742	19737.3375
450.6534	20165.1375
454.76644	20464.8375
458.87653	20555.2375
462.98368	20558.3375
467.08789	20447.8375
471.18916	20181.9375
475.2875	19969.9375
479.38291	19742.3375
483.4754	19662.1375
487.56496	19525.4375
491.6516	19345.4375
495.73531	19194.8375
499.81612	19103.1375
503.89401	19189.1375
507.96899	19252.4375
512.04106	19254.9375
516.11023	19236.6375
520.1765	19103.2375
524.23987	18990.4375
528.30034	18838.4375
532.35792	18709.1375
536.41261	18540.7375
540.46441	18392.4375
544.51333	18378.2375
548.55936	18551.9375
552.60252	18812.1375
556.64279	19185.1375
560.6802	19463.3375
564.71473	19610.2375
568.7464	19914.3375
572.7752	20469.7375
576.80114	21154.0375
580.82422	21738.5375
584.84444	22344.1375
588.86181	23100.8375
592.87633	24006.5375
596.888	24384.6375
600.89682	23780.9375
604.9028	23366.9375
608.90594	24259.3375
612.90624	25320.3375
616.90371	23771.2375
620.89834	20723.3375
624.89015	19370.3375
628.87913	19258.2375
632.86528	19473.0375
636.84862	19507.3375
640.82913	19208.9375
644.80683	18768.8375
648.78172	18501.8375
652.75379	18412.3375
656.72306	18626.0375
660.68952	18895.1375
664.65319	18831.8375
668.61405	18548.1375
672.57211	18553.9375
676.52738	18621.1375
680.47986	18696.7375
684.42955	18612.5375
688.37646	18591.7375
692.32058	18601.3375
696.26192	18742.1375
700.20048	18908.1375
704.13626	19051.5375
708.06928	19075.2375
711.99952	19012.5375
715.927	18929.8375
719.85171	18956.1375
723.77365	18873.3375
727.69284	18644.1375
731.60928	18431.3375
735.52295	18397.8375
739.43388	18379.2375
743.34206	18495.2375
747.24749	18578.8375
751.15017	18766.6375
755.05012	19041.7375
758.94733	19533.4375
762.8418	20377.0375
766.73354	21708.1375
770.62254	22877.7375
774.50882	23115.9375
778.39237	22208.0375
782.27321	20927.1375
786.15132	19830.4375
790.02671	19170.3375
793.89938	18742.2375
797.76935	18552.8375
801.6366	18389.5375
805.50115	18316.7375
809.36299	18229.0375
813.22213	18110.9375
817.07857	18092.8375
820.93231	18024.3375
824.78336	17965.7375
828.63172	17947.8375
832.47738	17881.7375
836.32036	17863.0375
840.16066	17866.1375
843.99827	17862.7375
847.8332	17881.9375
851.66546	17930.9375
855.49504	17950.4375
859.32195	17972.8375
863.1462	17928.1375
866.96777	17901.4375
870.78668	17913.4375
874.60293	17944.3375
878.41652	17918.1375
882.22745	18037.4375
886.03573	18087.4375
889.84136	18087.5375
893.64433	18068.5375
897.44466	18031.0375
901.24235	18039.8375
905.0374	17989.8375
908.8298	17973.6375
912.61957	17975.1375
916.40671	18064.3375
920.19121	18262.3375
923.97308	18475.2375
927.75233	18493.0375
931.52895	18340.9375
935.30295	18040.8375
939.07433	17784.9375
942.84309	17547.2375
946.60924	17457.9375
950.37278	17359.7375
954.13371	17370.7375
957.89203	17339.9375
961.64774	17348.7375
965.40086	17350.5375
969.15137	17333.0375
972.89929	17265.6375
976.64461	17235.7375
980.38733	17191.5375
984.12747	17199.0375
987.86502	17222.7375
991.59999	17354.3375
995.33237	17439.2375
999.06217	17709.8375
1002.78939	18024.2375
1006.51404	18390.1375
1010.23611	18760.9375
1013.95561	18979.4375
1017.67255	18991.4375
1021.38692	18856.4375
1025.09872	18540.0375
1028.80796	18248.8375
1032.51465	18143.9375
1036.21877	18131.2375
1039.92035	18173.0375
1043.61937	18235.6375
1047.31584	18291.7375
1051.00976	18344.2375
1054.70114	18442.2375
1058.38998	18534.2375
1062.07627	18717.0375
1065.76003	18906.0375
1069.44126	19172.8375
1073.11995	19495.5375
1076.79611	19731.9375
1080.46974	19879.0375
1084.14085	20043.4375
1087.80943	20267.4375
1091.47549	20462.9375
1095.13903	20544.7375
1098.80005	20322.0375
1102.45857	19903.4375
1106.11456	19576.3375
1109.76805	19365.3375
1113.41903	19345.7375
1117.06751	19438.2375
1120.71348	19602.6375
1124.35696	19842.6375
1127.99793	20045.5375
1131.63641	20189.8375
1135.2724	20184.2375
1138.90589	20134.5375
1142.5369	20162.6375
1146.16542	20257.1375
1149.79145	20445.5375
1153.415	20660.7375
1157.03607	20864.4375
1160.65467	21272.6375
1164.27079	21901.5375
1167.88443	22788.2375
1171.49561	23883.5375
1175.10432	25302.5375
1178.71056	27003.3375
1182.31434	28586.9375
1185.91565	29561.2375
1189.51451	29740.1375
1193.11091	29351.6375
1196.70485	28574.2375
1200.29634	27435.7375
1203.88538	26492.8375
1207.47197	25779.6375
1211.05612	25283.5375
1214.63782	24863.9375
1218.21708	24352.4375
1221.79391	23980.3375
1225.36829	23783.3375
1228.94024	23622.3375
1232.50976	23405.9375
1236.07685	23161.3375
1239.6415	22919.6375
1243.20374	22871.1375
1246.76355	22872.7375
1250.32093	23025.2375
1253.8759	23367.0375
1257.42845	23959.5375
1260.97859	24621.8375
1264.52631	25376.0375
1268.07163	26126.9375
1271.61453	26743.9375
1275.15503	27374.3375
1278.69312	28061.2375
1282.22882	28819.5375
1285.76211	29671.7375
1289.29301	30647.4375
1292.82151	31700.1375
1296.34761	33023.9375
1299.87133	34494.2375
1303.39266	35977.4375
1306.9116	37339.3375
1310.42815	38398.0375
1313.94233	38928.8375
1317.45412	38715.9375
1320.96354	38183.8375
1324.47058	37618.8375
1327.97525	37153.1375
1331.47754	36884.6375
1334.97747	36777.3375
1338.47502	36814.9375
1341.97022	36935.9375
1345.46305	37026.1375
1348.95352	37116.7375
1352.44163	37175.6375
1355.92738	37509.4375
1359.41078	38250.4375
1362.89183	39083.2375
1366.37053	38646.9375
1369.84688	36297.0375
1373.32088	33098.9375
1376.79254	30735.2375
1380.26186	29619.4375
1383.72883	29292.5375
1387.19347	29085.7375
1390.65578	28685.8375
1394.11575	28434.4375
1397.57339	28443.6375
1401.0287	28574.2375
1404.48168	28660.8375
1407.93234	28544.6375
1411.38068	28132.9375
1414.82669	27553.5375
1418.27039	26782.9375
1421.71177	26012.5375
1425.15083	25359.1375
1428.58758	25057.9375
1432.02203	25094.1375
1435.45416	25436.7375
1438.88399	25934.4375
1442.31151	26307.1375
1445.73673	26590.4375
1449.15965	26782.8375
1452.58027	27029.0375
1455.9986	27168.0375
1459.41463	27434.5375
1462.82837	27857.8375
1466.23982	28427.8375
1469.64898	28894.8375
1473.05586	29177.0375
1476.46045	29341.5375
1479.86276	29364.2375
1483.26279	29384.0375
1486.66054	29454.2375
1490.05602	29728.7375
1493.44922	30263.3375
1496.84016	30955.6375
1500.22882	31714.4375
1503.61521	32540.6375
1506.99934	33292.0375
1510.38121	33735.5375
1513.76081	33634.0375
1517.13816	32976.0375
1520.51324	32148.9375
1523.88607	31494.7375
1527.25665	31122.9375
1530.62498	30898.8375
1533.99105	30555.1375
1537.35488	30002.8375
1540.71647	29238.8375
1544.07581	28442.4375
1547.4329	27766.8375
1550.78776	27233.2375
1554.14038	26952.6375
1557.49077	26903.4375
1560.83892	26940.3375
1564.18484	27104.1375
1567.52853	27233.1375
1570.86999	27424.2375
1574.20922	27779.6375
1577.54624	28037.7375
1580.88103	27971.1375
1584.2136	27944.2375
1587.54395	28356.1375
1590.87208	29240.3375
1594.19801	30522.6375
1597.52172	31753.5375
1600.84321	31995.5375
1604.16251	30807.7375
1607.47959	28967.1375
1610.79447	27001.3375
1614.10715	25103.5375
1617.41763	23554.2375
1620.7259	22450.7375
1624.03199	21832.1375
1627.33587	21792.0375
1630.63757	22339.1375
1633.93707	23567.1375
1637.23439	25708.9375
1640.52951	28801.5375
1643.82246	32456.5375
1647.11321	35220.1375
1650.40179	35664.6375
1653.68819	33322.2375
1656.97241	29345.1375
1660.25446	25445.9375
1663.53433	22493.8375
1666.81203	20555.3375
1670.08756	19381.6375
1673.36092	18664.9375
1676.63211	18195.7375
1679.90115	17849.0375
1683.16801	17579.9375
1686.43272	17372.7375
1689.69527	17192.7375
1692.95567	17031.5375
1696.2139	16877.1375
1699.46999	16676.7375
1702.72392	16595.2375
1705.97571	16651.2375
1709.22535	16697.9375
1712.47284	16746.3375
1715.71819	16702.7375
1718.96139	16722.8375
1722.20246	16628.2375
1725.44139	16558.0375
1728.67818	16468.2375
1731.91284	16405.2375
1735.14537	16287.4375
1738.37576	16205.1375
1741.60403	16171.5375
1744.83017	16092.9375
1748.05418	16025.3375
1751.27607	15976.2375
1754.49584	15897.2375
1757.71349	15835.7375
1760.92903	15798.8375
1764.14244	15788.3375
1767.35375	15787.7375
1770.56294	15732.6375
1773.77002	15720.8375
1776.97499	15686.2375
1780.17785	15741.9375
1783.37861	15785.4375
1786.57727	15729.7375
1789.77382	15725.4375
1792.96828	15720.0375
1796.16064	15682.7375
1799.3509	15638.0375
1802.53907	15606.5375
1805.72514	15579.5375
1808.90913	15531.2375
1812.09102	15507.0375
1815.27083	15498.7375
1818.44856	15469.4375
1821.6242	15454.2375
1824.79776	15433.9375
1827.96924	15455.4375
1831.13864	15464.1375
1834.30597	15464.4375
1837.47122	15478.3375
1840.6344	15504.9375
1843.7955	15498.9375
1846.95454	15498.1375
1850.11151	15509.2375
1853.26642	15483.8375
1856.41926	15449.2375
1859.57004	15444.6375
1862.71876	15427.0375
1865.86542	15414.1375
1869.01003	15401.8375
1872.15258	15348.5375
1875.29308	15323.6375
1878.43152	15283.8375
1881.56792	15281.7375
1884.70227	15267.8375
1887.83457	15230.5375
1890.96482	15226.1375
1894.09304	15183.3375
1897.21921	15169.7375
1900.34335	15159.0375
1903.46544	15124.0375
1906.58551	15102.5375
1909.70353	15082.4375
1912.81953	15053.1375
1915.93349	14996.4375
1919.04543	14994.4375
1922.15534	14935.9375
1925.26322	14879.7375
1928.36908	14850.6375
1931.47292	14832.9375
1934.57473	14758.0375
1937.67453	14742.1375
1940.77232	14685.7375
1943.86808	14664.5375
1946.96184	14624.3375
1950.05358	14567.7375
1953.14331	14549.5375
1956.23103	14499.7375
1959.31675	14432.8375
1962.40046	14405.3375
1965.48217	14379.8375
1968.56188	14334.3375
1971.63959	14310.1375
1974.7153	14259.1375
1977.78901	14216.0375
1980.86073	14164.6375
1983.93046	14103.4375
1986.99819	14038.5375
1990.06394	14013.3375
1993.1277	14012.6375
1996.18947	13937.8375
1999.24925	13941.6375
2002.30706	13837.4375
2005.36288	13811.5375
2008.41672	13769.5375
2011.46859	13728.2375
2014.51848	13703.6375
2017.56639	13641.4375
2020.61233	13633.3375
2023.6563	13606.4375
2026.6983	13553.0375
2029.73833	13556.5375
2032.7764	13513.9375
2035.8125	13467.8375
2038.84664	13440.5375
2041.87881	13430.5375
2044.90903	13380.2375
2047.93729	13347.4375
2050.96359	13367.8375
2053.98794	13331.4375
2057.01034	13335.5375
2060.03078	13324.7375
2063.04927	13336.9375
2066.06582	13334.4375
2069.08042	13311.6375
2072.09307	13285.2375
2075.10378	13306.0375
2078.11255	13277.1375
2081.11938	13301.4375
2084.12426	13282.5375
2087.12722	13284.4375
2090.12824	13279.4375
2093.12732	13284.7375
2096.12447	13288.6375
2099.11969	13302.0375
2102.11299	13279.6375
2105.10435	13292.9375
2108.09379	13305.1375
2111.08131	13311.9375
2114.0669	13335.2375
2117.05057	13337.3375
2120.03233	13352.6375
2123.01216	13336.7375
2125.99008	13354.7375
2128.96609	13356.2375
2131.94018	13380.2375
2134.91236	13403.0375
2137.88263	13419.7375
2140.851	13378.8375
2143.81746	13408.5375
2146.78201	13379.0375
2149.74466	13386.6375
2152.7054	13372.2375
2155.66425	13376.9375
2158.6212	13369.5375
2161.57625	13370.6375
2164.52941	13365.8375
2167.48067	13328.5375
2170.43004	13324.4375
2173.37752	13306.9375
2176.32311	13312.5375
2179.26681	13320.5375
2182.20863	13338.1375
2185.14856	13306.4375
2188.08661	13313.5375
2191.02278	13314.8375
2193.95707	13284.0375
2196.88948	13287.2375
2199.82001	13270.8375
2202.74867	13238.7375
2205.67545	13213.9375
2208.60037	13186.9375
2211.52341	13170.8375
2214.44458	13142.4375
2217.36388	13134.5375
2220.28132	13104.5375
2223.1969	13049.9375
2226.11061	13062.0375
2229.02246	13011.0375
2231.93245	13010.3375
2234.84058	12998.9375
2237.74686	12966.6375
2240.65128	12995.8375
2243.55385	13003.9375
2246.45456	12979.0375
2249.35343	12964.9375
2252.25044	12914.8375
2255.14561	12868.7375
2258.03893	12871.0375
2260.93041	12852.6375
2263.82004	12827.7375
2266.70783	12805.9375
2269.59378	12758.0375
2272.4779	12729.9375
2275.36017	12711.2375
2278.24061	12691.0375
2281.11922	12628.3375
2283.996	12635.0375
2286.87094	12589.1375
2289.74405	12575.4375
2292.61534	12555.7375
2295.4848	12555.2375
2298.35243	12552.1375
2301.21824	12566.3375
2304.08223	12524.5375
2306.94439	12519.1375
2309.80474	12524.4375
2312.66327	12487.1375
2315.51999	12467.7375
2318.37489	12479.2375
2321.22797	12436.1375
2324.07925	12429.9375
2326.92871	12447.9375
2329.77637	12399.2375
2332.62222	12351.2375
2335.46626	12345.3375
2338.3085	12276.5375
2341.14893	12329.7375
2343.98756	12321.9375
2346.8244	12316.6375
2349.65943	12312.7375
2352.49267	12306.9375
2355.32411	12321.8375
2358.15376	12309.6375
2360.98161	12313.9375
2363.80768	12307.6375
2366.63195	12299.3375
2369.45444	12283.3375
2372.27514	12285.4375
2375.09405	12283.2375
2377.91118	12268.5375
2380.72652	12201.1375
2383.54009	12183.1375
2386.35187	12191.7375
2389.16188	12157.7375
2391.97011	12139.5375
2394.77657	12121.3375
2397.58125	12095.3375
2400.38416	12100.8375
2403.18529	12057.3375
2405.98466	12033.7375
2408.78226	12014.9375
2411.57809	12003.5375
2414.37216	11984.4375
2417.16446	11972.8375
2419.955	11987.8375
2422.74378	11972.1375
2425.5308	11996.9375
2428.31606	11954.5375
2431.09956	11954.9375
2433.88131	11941.6375
2436.6613	11936.7375
2439.43954	11935.4375
2442.21603	11921.1375
2444.99077	11912.0375
2447.76377	11935.5375
2450.53501	11904.6375
2453.30451	11911.6375
2456.07226	11884.1375
2458.83827	11904.9375
2461.60254	11895.6375
2464.36507	11881.8375
2467.12586	11858.1375
2469.88492	11865.0375
2472.64224	11857.8375
2475.39782	11838.7375
2478.15167	11822.7375
2480.90379	11858.3375
2483.65417	11835.9375
2486.40283	11819.8375
2489.14976	11877.2375
2491.89497	11815.1375
2494.63845	11820.9375
2497.3802	11806.5375
2500.12024	11824.1375
2502.85855	11807.2375
2505.59514	11781.6375
2508.33002	11792.8375
2511.06318	11776.0375
2513.79462	11772.9375
2516.52435	11781.0375
2519.25237	11741.9375
2521.97867	11747.7375
2524.70327	11731.6375
2527.42616	11733.2375
2530.14734	11713.0375
2532.86681	11726.6375
2535.58458	11697.0375
2538.30065	11683.3375
2541.01501	11649.5375
2543.72768	11662.5375
2546.43864	11627.3375
2549.14791	11618.1375
2551.85548	11617.1375
2554.56136	11580.1375
2557.26554	11581.6375
2559.96803	11559.2375
2562.66883	11573.3375
2565.36794	11567.7375
2568.06536	11562.4375
2570.7611	11536.1375
2573.45514	11519.5375
2576.14751	11497.8375
2578.83819	11474.8375
2581.52719	11469.2375
2584.21451	11447.3375
2586.90015	11431.0375
2589.58411	11419.3375
2592.2664	11398.7375
2594.94701	11388.1375
2597.62594	11423.4375
2600.30321	11388.9375
2602.9788	11360.2375
2605.65273	11345.3375
2608.32498	11339.6375
2610.99557	11336.4375
2613.66449	11353.0375
2616.33175	11324.0375
2618.99734	11342.7375
2621.66128	11315.7375
2624.32355	11279.7375
2626.98416	11267.8375
2629.64311	11281.2375
2632.30041	11315.2375
2634.95605	11279.8375
2637.61004	11269.5375
2640.26238	11243.4375
2642.91306	11228.6375
2645.56209	11204.3375
2648.20948	11225.5375
2650.85521	11228.5375
2653.4993	11243.4375
2656.14175	11212.6375
2658.78255	11249.4375
2661.42171	11256.1375
2664.05923	11273.1375
2666.6951	11250.4375
2669.32934	11288.9375
2671.96194	11273.9375
2674.59291	11287.7375
2677.22224	11283.4375
2679.84993	11301.4375
2682.476	11274.7375
2685.10043	11264.0375
2687.72324	11243.0375
2690.34441	11253.3375
2692.96396	11253.9375
2695.58188	11279.0375
2698.19818	11249.8375
2700.81285	11252.2375
2703.4259	11233.6375
2706.03733	11167.6375
2708.64714	11192.3375
2711.25533	11212.5375
2713.86191	11229.8375
2716.46687	11262.6375
2719.07021	11253.9375
2721.67194	11272.8375
2724.27206	11266.4375
2726.87057	11287.3375
2729.46747	11315.7375
2732.06276	11297.9375
2734.65644	11298.8375
2737.24852	11290.0375
2739.83899	11277.6375
2742.42786	11274.1375
2745.01513	11263.3375
2747.60079	11270.5375
2750.18486	11229.6375
2752.76733	11230.0375
2755.3482	11197.1375
2757.92747	11203.9375
2760.50515	11176.9375
2763.08123	11206.6375
2765.65573	11166.5375
2768.22863	11145.4375
2770.79994	11140.9375
2773.36967	11153.9375
2775.9378	11139.6375
2778.50435	11159.0375
2781.06932	11134.8375
2783.6327	11150.1375
2786.1945	11095.1375
2788.75471	11124.5375
2791.31335	11106.6375
2793.87041	11098.8375
2796.42589	11042.5375
2798.97979	11039.8375
2801.53212	11007.6375
2804.08288	11006.2375
2806.63206	11023.7375
2809.17967	10969.9375
2811.72571	10950.2375
2814.27018	10891.1375
2816.81308	10882.3375
2819.35442	10879.4375
2821.89419	10831.9375
2824.43239	10842.8375
2826.96904	10850.6375
2829.50412	10825.1375
2832.03763	10795.5375
2834.56959	10795.0375
2837.1	10798.6375
2839.62884	10766.2375
2842.15613	10764.4375
2844.68186	10736.4375
2847.20604	10754.0375
2849.72867	10783.7375
2852.24974	10757.2375
2854.76927	10720.2375
2857.28724	10705.6375
2859.80367	10707.1375
2862.31855	10693.6375
2864.83189	10689.3375
2867.34368	10675.7375
2869.85393	10703.9375
2872.36264	10661.9375
2874.8698	10661.9375
2877.37543	10627.2375
2879.87952	10639.1375
2882.38207	10646.9375
2884.88308	10642.0375
2887.38256	10658.0375
2889.88051	10634.5375
2892.37692	10670.5375
2894.8718	10657.3375
2897.36515	10675.3375
2899.85698	10664.0375
2902.34727	10672.0375
2904.83604	10706.4375
2907.32328	10697.1375
2909.809	10710.7375
2912.29319	10715.9375
2914.77587	10698.1375
2917.25702	10703.4375
2919.73665	10704.2375
2922.21476	10731.6375
2924.69136	10688.1375
2927.16644	10710.8375
2929.64	10688.7375
2932.11205	10665.5375
2934.58258	10618.9375
2937.05161	10658.7375
2939.51912	10656.2375
2941.98513	10650.4375
2944.44962	10629.2375
2946.91261	10560.3375
2949.37409	10600.4375
2951.83407	10559.2375
2954.29254	10573.5375
2956.74951	10554.3375
2959.20498	10543.0375
2961.65895	10516.8375
2964.11142	10555.0375
2966.56239	10539.3375
2969.01186	10513.8375
2971.45984	10476.9375
2973.90632	10447.3375
2976.35131	10443.1375
2978.7948	10430.6375
2981.23681	10434.7375
2983.67732	10403.3375
2986.11635	10378.1375
2988.55388	10357.6375
2990.98993	10327.3375
2993.4245	10334.1375
2995.85758	10308.6375
2998.28917	10270.3375
3000.71928	10263.1375
3003.14791	10204.9375
3005.57506	10217.1375
3008.00073	10162.7375
3010.42493	10157.9375
3012.84764	10159.6375
3015.26888	10126.8375
3017.68865	10117.2375
3020.10694	10075.5375
3022.52376	10088.4375
3024.9391	10062.6375
3027.35298	10053.9375
3029.76539	10041.8375
3032.17632	10028.8375
3034.5858	9993.0375
3036.9938	9995.6375
3039.40034	9997.6375
3041.80542	9987.5375
3044.20903	9959.4375
3046.61118	9983.2375
3049.01187	9924.3375
3051.4111	9940.8375
3053.80888	9958.1375
3056.20519	9942.9375
3058.60005	9905.3375
3060.99345	9866.1375
3063.3854	9872.1375
3065.7759	9826.5375
3068.16494	9807.3375
3070.55254	9765.9375
3072.93868	9731.3375
3075.32338	9736.5375
3077.70662	9698.6375
3080.08842	9678.2375
3082.46878	9671.9375
3084.84769	9656.9375
3087.22515	9654.6375
3089.60118	9671.6375
3091.97576	9655.9375
3094.3489	9659.1375
3096.72061	9634.2375
3099.09087	9645.2375
3101.4597	9628.3375
3103.82709	9627.5375
3106.19305	9609.2375
3108.55757	9611.6375
3110.92066	9586.2375
3113.28232	9571.2375
3115.64255	9552.4375
3118.00134	9512.6375
3120.35871	9513.3375
3122.71466	9502.1375
3125.06917	9456.9375
3127.42226	9473.7375
3129.77393	9448.6375
3132.12417	9448.4375
3134.47299	9463.8375
3136.82039	9427.8375
3139.16636	9429.4375
3141.51092	9430.6375
3143.85406	9433.5375
3146.19579	9412.4375
3148.53609	9433.6375
3150.87499	9401.5375
3153.21246	9426.3375
3155.54853	9442.3375
3157.88318	9427.4375
3160.21642	9485.1375
3162.54826	9443.3375
3164.87868	9447.7375
3167.2077	9427.3375
3169.5353	9440.8375
3171.86151	9456.2375
3174.18631	9434.7375
3176.5097	9415.3375
3178.83169	9401.2375
3181.15228	9419.0375
3183.47147	9341.1375
3185.78926	9367.9375
3188.10565	9338.7375
3190.42065	9320.9375
3192.73424	9325.2375
3195.04645	9335.3375
3197.35725	9338.9375
3199.66667	9341.7375
3201.97469	9323.7375
3204.28132	9310.9375
3206.58656	9339.4375
3208.8904	9322.1375
3211.19287	9323.7375
3213.49394	9351.6375
3215.79363	9327.3375
3218.09193	9298.8375
3220.38884	9335.6375
3222.68438	9320.7375
3224.97853	9301.9375
3227.2713	9288.6375
3229.56269	9313.7375
3231.8527	9278.9375
3234.14133	9272.7375
3236.42858	9257.7375
3238.71446	9256.4375
3240.99896	9210.7375
3243.28209	9220.3375
3245.56384	9192.8375
3247.84423	9180.0375
3250.12324	9179.6375
3252.40088	9155.8375
3254.67715	9156.6375
3256.95205	9166.3375
3259.22558	9180.1375
3261.49775	9162.0375
3263.76855	9129.8375
3266.03799	9116.6375
3268.30606	9104.5375
3270.57277	9073.6375
3272.83812	9074.2375
3275.10211	9060.6375
3277.36474	9046.3375
3279.62601	9015.2375
3281.88593	9012.1375
3284.14448	9014.4375
3286.40168	9009.6375
3288.65753	9011.2375
3290.91202	9006.0375
3293.16516	8984.4375
3295.41695	8982.4375
3297.66738	8927.3375
3299.91647	8875.0375
3302.16421	8819.8375
3304.4106	8790.7375
3306.65564	8721.5375
3308.89933	8657.0375
3311.14169	8612.1375
3313.38269	8535.4375
3315.62236	8481.8375
3317.86068	8380.1375
3320.09766	8321.8375
3322.3333	8282.1375
3324.5676	8237.3375
3326.80056	8092.2375
3329.03219	8037.2375
3331.26248	3.0375
3333.49143	-1.2625
3335.71905	1.3375
