Data from AgNPs_FTO_APTES_UA_50uM_CRN_1uM_R6G_10uM_NaF_0.1M_Addition_RamanShift__6__11-22-34-711.txt Node

Date: Mon Feb 21 11:22:34 GMT 2022
User: TCL
Spectrometer: QEP01345
Trigger mode: 4
Integration Time (sec): 7.000000E0
Scans to average: 10
Electric dark correction enabled: true
Nonlinearity correction enabled: false
Boxcar width: 0
XAxis mode: Raman Shifts
Number of Pixels in Spectrum: 1044
>>>>>Begin Spectral Data<<<<<
46.04893	-0.4625
50.45542	-0.3625
54.85868	-2.2625
59.25871	-0.8625
63.6555	63.4375
68.04907	72.6375
72.43941	72.5375
76.82654	73.4375
81.21044	77.6375
85.59113	83.6375
89.96862	83.0375
94.34289	86.4375
98.71396	87.0375
103.08183	94.0375
107.4465	92.6375
111.80798	94.3375
116.16626	94.9375
120.52136	97.1375
124.87327	107.1375
129.222	104.1375
133.56755	109.3375
137.90993	122.1375
142.24913	128.0375
146.58517	144.8375
150.91804	164.2375
155.24774	196.8375
159.57429	245.0375
163.89768	307.2375
168.21792	405.8375
172.53501	559.2375
176.84895	781.7375
181.15975	1094.6375
185.46741	1529.0375
189.77193	2116.6375
194.07331	2828.5375
198.37157	3635.5375
202.6667	4499.6375
206.9587	5355.7375
211.24758	6186.0375
215.53334	7023.2375
219.81599	7893.7375
224.09553	8876.4375
228.37195	9968.9375
232.64527	11174.9375
236.91549	12417.6375
241.18261	13658.2375
245.44663	14851.4375
249.70755	15895.2375
253.96539	16802.8375
258.22014	17569.6375
262.4718	18175.3375
266.72039	18580.8375
270.96589	18804.4375
275.20832	18791.6375
279.44768	18626.4375
283.68397	18372.9375
287.91719	18195.3375
292.14735	18038.7375
296.37445	17981.5375
300.59849	18009.0375
304.81948	18097.4375
309.03742	18147.1375
313.25231	18102.3375
317.46415	17904.7375
321.67296	17684.6375
325.87872	17425.3375
330.08145	17251.8375
334.28114	17251.9375
338.47781	17348.7375
342.67145	17554.5375
346.86207	17848.1375
351.04966	18177.0375
355.23424	18539.1375
359.4158	18833.1375
363.59435	19090.0375
367.76989	19321.0375
371.94243	19387.8375
376.11196	19444.5375
380.27849	19488.6375
384.44203	19562.3375
388.60257	19750.1375
392.76012	19880.2375
396.91468	20180.4375
401.06626	20518.6375
405.21485	20687.8375
409.36047	20615.6375
413.50311	20401.3375
417.64277	20336.5375
421.77947	20417.8375
425.9132	20478.1375
430.04396	20572.0375
434.17176	20644.5375
438.2966	20731.9375
442.41849	21071.2375
446.53742	21556.8375
450.6534	22165.9375
454.76644	22564.4375
458.87653	22707.6375
462.98368	22574.4375
467.08789	22349.9375
471.18916	22038.0375
475.2875	21640.0375
479.38291	21390.7375
483.4754	21225.7375
487.56496	21130.6375
491.6516	20875.2375
495.73531	20708.5375
499.81612	20567.7375
503.89401	20702.4375
507.96899	20744.2375
512.04106	20728.9375
516.11023	20638.2375
520.1765	20460.7375
524.23987	20371.1375
528.30034	20226.9375
532.35792	20081.9375
536.41261	19855.2375
540.46441	19625.9375
544.51333	19594.9375
548.55936	19755.7375
552.60252	20105.4375
556.64279	20570.1375
560.6802	20948.1375
564.71473	21158.5375
568.7464	21472.4375
572.7752	22077.0375
576.80114	22774.4375
580.82422	23499.7375
584.84444	24495.9375
588.86181	25803.0375
592.87633	27088.9375
596.888	27154.0375
600.89682	25748.1375
604.9028	24945.7375
608.90594	25988.0375
612.90624	27436.8375
616.90371	25936.4375
620.89834	22398.1375
624.89015	20767.1375
628.87913	20623.0375
632.86528	20761.9375
636.84862	20746.1375
640.82913	20351.1375
644.80683	19914.7375
648.78172	19629.2375
652.75379	19641.8375
656.72306	19861.8375
660.68952	20162.6375
664.65319	20083.8375
668.61405	19820.6375
672.57211	19820.0375
676.52738	19916.6375
680.47986	19911.8375
684.42955	19744.6375
688.37646	19660.4375
692.32058	19831.9375
696.26192	20122.5375
700.20048	20397.2375
704.13626	20573.7375
708.06928	20508.0375
711.99952	20457.8375
715.927	20517.1375
719.85171	20583.3375
723.77365	20530.5375
727.69284	20188.4375
731.60928	19879.0375
735.52295	19782.5375
739.43388	19770.4375
743.34206	19819.4375
747.24749	19972.7375
751.15017	20173.7375
755.05012	20463.3375
758.94733	20930.8375
762.8418	21808.0375
766.73354	23075.4375
770.62254	24236.2375
774.50882	24515.7375
778.39237	23554.5375
782.27321	22296.4375
786.15132	21176.5375
790.02671	20512.7375
793.89938	20109.1375
797.76935	19952.6375
801.6366	19851.3375
805.50115	19817.1375
809.36299	19758.8375
813.22213	19625.9375
817.07857	19559.1375
820.93231	19470.5375
824.78336	19367.8375
828.63172	19307.4375
832.47738	19249.0375
836.32036	19289.0375
840.16066	19350.3375
843.99827	19325.1375
847.8332	19327.8375
851.66546	19321.5375
855.49504	19372.0375
859.32195	19356.2375
863.1462	19321.7375
866.96777	19254.5375
870.78668	19250.7375
874.60293	19310.4375
878.41652	19369.4375
882.22745	19416.1375
886.03573	19469.6375
889.84136	19471.0375
893.64433	19397.5375
897.44466	19348.7375
901.24235	19275.8375
905.0374	19214.4375
908.8298	19133.8375
912.61957	19177.2375
916.40671	19298.6375
920.19121	19480.4375
923.97308	19749.6375
927.75233	19833.3375
931.52895	19719.3375
935.30295	19422.9375
939.07433	19116.3375
942.84309	18905.6375
946.60924	18763.1375
950.37278	18742.7375
954.13371	18772.5375
957.89203	18768.9375
961.64774	18747.3375
965.40086	18761.1375
969.15137	18697.2375
972.89929	18669.7375
976.64461	18655.5375
980.38733	18653.2375
984.12747	18677.7375
987.86502	18802.9375
991.59999	18918.5375
995.33237	19114.9375
999.06217	19429.3375
1002.78939	19870.4375
1006.51404	20278.7375
1010.23611	20655.7375
1013.95561	20931.5375
1017.67255	20966.0375
1021.38692	20704.7375
1025.09872	20399.4375
1028.80796	20141.2375
1032.51465	20194.9375
1036.21877	20310.9375
1039.92035	20417.7375
1043.61937	20443.1375
1047.31584	20362.7375
1051.00976	20193.3375
1054.70114	20167.4375
1058.38998	20225.0375
1062.07627	20383.3375
1065.76003	20569.9375
1069.44126	20802.6375
1073.11995	21203.9375
1076.79611	21581.4375
1080.46974	21768.4375
1084.14085	21918.6375
1087.80943	22167.8375
1091.47549	22358.8375
1095.13903	22390.2375
1098.80005	22100.8375
1102.45857	21541.3375
1106.11456	21234.3375
1109.76805	21010.1375
1113.41903	20937.9375
1117.06751	21063.7375
1120.71348	21198.5375
1124.35696	21401.0375
1127.99793	21588.0375
1131.63641	21749.7375
1135.2724	21760.0375
1138.90589	21703.8375
1142.5369	21747.3375
1146.16542	21839.0375
1149.79145	22044.9375
1153.415	22224.3375
1157.03607	22460.3375
1160.65467	23008.9375
1164.27079	23917.8375
1167.88443	25044.2375
1171.49561	26161.9375
1175.10432	27644.0375
1178.71056	29568.5375
1182.31434	31370.7375
1185.91565	32274.1375
1189.51451	32100.3375
1193.11091	31354.8375
1196.70485	30367.1375
1200.29634	29379.9375
1203.88538	28611.3375
1207.47197	28236.1375
1211.05612	27999.7375
1214.63782	27548.7375
1218.21708	26985.0375
1221.79391	26368.5375
1225.36829	25964.5375
1228.94024	25674.1375
1232.50976	25359.7375
1236.07685	24972.2375
1239.6415	24677.5375
1243.20374	24565.6375
1246.76355	24743.7375
1250.32093	25026.6375
1253.8759	25505.8375
1257.42845	26173.7375
1260.97859	26948.6375
1264.52631	27805.9375
1268.07163	28722.6375
1271.61453	29584.3375
1275.15503	30278.7375
1278.69312	31097.5375
1282.22882	31998.4375
1285.76211	33137.2375
1289.29301	34409.8375
1292.82151	35779.0375
1296.34761	37474.2375
1299.87133	39494.4375
1303.39266	41555.3375
1306.9116	43391.9375
1310.42815	44747.4375
1313.94233	45428.0375
1317.45412	45025.8375
1320.96354	44078.9375
1324.47058	43104.1375
1327.97525	42487.7375
1331.47754	42113.2375
1334.97747	41744.5375
1338.47502	41270.6375
1341.97022	40640.6375
1345.46305	39875.7375
1348.95352	39416.0375
1352.44163	39530.6375
1355.92738	40572.2375
1359.41078	42512.6375
1362.89183	44291.3375
1366.37053	44155.9375
1369.84688	41235.0375
1373.32088	36992.0375
1376.79254	33800.4375
1380.26186	32621.8375
1383.72883	32543.7375
1387.19347	32498.5375
1390.65578	32076.0375
1394.11575	31821.6375
1397.57339	31972.5375
1401.0287	32498.0375
1404.48168	32860.7375
1407.93234	32922.0375
1411.38068	32422.2375
1414.82669	31593.8375
1418.27039	30556.2375
1421.71177	29469.5375
1425.15083	28652.1375
1428.58758	28335.2375
1432.02203	28636.1375
1435.45416	29352.9375
1438.88399	30171.5375
1442.31151	30656.9375
1445.73673	30867.7375
1449.15965	30977.2375
1452.58027	30870.6375
1455.9986	30727.6375
1459.41463	30840.7375
1462.82837	31297.3375
1466.23982	31843.5375
1469.64898	32462.0375
1473.05586	32836.7375
1476.46045	32890.0375
1479.86276	32859.2375
1483.26279	32681.6375
1486.66054	32745.9375
1490.05602	32942.3375
1493.44922	33349.4375
1496.84016	33727.5375
1500.22882	34111.8375
1503.61521	34700.1375
1506.99934	35389.6375
1510.38121	35927.5375
1513.76081	35956.3375
1517.13816	35357.2375
1520.51324	34448.5375
1523.88607	33869.6375
1527.25665	33675.8375
1530.62498	33647.1375
1533.99105	33418.7375
1537.35488	32865.4375
1540.71647	32098.2375
1544.07581	31171.8375
1547.4329	30337.9375
1550.78776	29659.0375
1554.14038	29209.5375
1557.49077	28970.1375
1560.83892	28812.0375
1564.18484	28841.5375
1567.52853	28897.7375
1570.86999	29168.6375
1574.20922	29649.3375
1577.54624	30081.2375
1580.88103	30269.8375
1584.2136	30651.5375
1587.54395	31628.3375
1590.87208	33401.6375
1594.19801	35544.7375
1597.52172	37449.0375
1600.84321	37759.5375
1604.16251	35987.2375
1607.47959	33076.4375
1610.79447	30082.6375
1614.10715	27445.2375
1617.41763	25467.9375
1620.7259	24241.9375
1624.03199	23662.1375
1627.33587	23732.5375
1630.63757	24432.3375
1633.93707	26040.7375
1637.23439	28682.6375
1640.52951	32631.3375
1643.82246	37315.7375
1647.11321	41048.8375
1650.40179	41478.8375
1653.68819	38129.5375
1656.97241	32723.7375
1660.25446	27840.4375
1663.53433	24348.3375
1666.81203	22212.3375
1670.08756	20966.4375
1673.36092	20212.2375
1676.63211	19766.6375
1679.90115	19402.6375
1683.16801	19075.0375
1686.43272	18901.5375
1689.69527	18723.7375
1692.95567	18530.1375
1696.2139	18368.6375
1699.46999	18189.2375
1702.72392	18120.0375
1705.97571	18199.6375
1709.22535	18263.2375
1712.47284	18282.6375
1715.71819	18270.7375
1718.96139	18271.5375
1722.20246	18235.7375
1725.44139	18168.7375
1728.67818	18046.1375
1731.91284	17984.3375
1735.14537	17871.0375
1738.37576	17774.2375
1741.60403	17733.8375
1744.83017	17627.1375
1748.05418	17602.5375
1751.27607	17515.0375
1754.49584	17435.6375
1757.71349	17401.0375
1760.92903	17332.5375
1764.14244	17293.0375
1767.35375	17297.1375
1770.56294	17278.9375
1773.77002	17279.7375
1776.97499	17300.4375
1780.17785	17358.2375
1783.37861	17363.5375
1786.57727	17322.9375
1789.77382	17304.4375
1792.96828	17320.7375
1796.16064	17314.8375
1799.3509	17294.9375
1802.53907	17234.9375
1805.72514	17198.1375
1808.90913	17158.1375
1812.09102	17114.3375
1815.27083	17100.1375
1818.44856	17101.6375
1821.6242	17102.3375
1824.79776	17101.0375
1827.96924	17053.9375
1831.13864	17079.5375
1834.30597	17073.9375
1837.47122	17055.2375
1840.6344	17074.6375
1843.7955	17098.4375
1846.95454	17062.2375
1850.11151	17028.8375
1853.26642	17018.1375
1856.41926	17005.3375
1859.57004	17012.0375
1862.71876	16991.1375
1865.86542	17002.2375
1869.01003	16981.0375
1872.15258	16937.5375
1875.29308	16925.9375
1878.43152	16901.6375
1881.56792	16901.8375
1884.70227	16868.6375
1887.83457	16865.0375
1890.96482	16865.9375
1894.09304	16799.5375
1897.21921	16775.6375
1900.34335	16755.2375
1903.46544	16766.8375
1906.58551	16770.8375
1909.70353	16724.5375
1912.81953	16721.5375
1915.93349	16671.3375
1919.04543	16671.0375
1922.15534	16651.6375
1925.26322	16581.8375
1928.36908	16550.1375
1931.47292	16499.7375
1934.57473	16448.9375
1937.67453	16455.5375
1940.77232	16393.7375
1943.86808	16365.7375
1946.96184	16342.2375
1950.05358	16322.4375
1953.14331	16246.9375
1956.23103	16189.2375
1959.31675	16145.1375
1962.40046	16114.6375
1965.48217	16066.7375
1968.56188	16046.8375
1971.63959	16017.9375
1974.7153	15988.3375
1977.78901	15955.4375
1980.86073	15854.1375
1983.93046	15814.6375
1986.99819	15754.7375
1990.06394	15733.5375
1993.1277	15731.3375
1996.18947	15660.9375
1999.24925	15617.2375
2002.30706	15575.2375
2005.36288	15538.7375
2008.41672	15506.0375
2011.46859	15455.9375
2014.51848	15400.5375
2017.56639	15366.6375
2020.61233	15335.7375
2023.6563	15336.2375
2026.6983	15279.3375
2029.73833	15234.4375
2032.7764	15200.1375
2035.8125	15167.6375
2038.84664	15167.7375
2041.87881	15165.3375
2044.90903	15165.9375
2047.93729	15110.3375
2050.96359	15065.6375
2053.98794	15043.7375
2057.01034	15076.1375
2060.03078	15026.3375
2063.04927	15033.3375
2066.06582	15002.4375
2069.08042	15013.7375
2072.09307	15037.3375
2075.10378	15013.3375
2078.11255	15004.1375
2081.11938	15028.1375
2084.12426	15015.7375
2087.12722	15037.3375
2090.12824	15025.0375
2093.12732	15028.4375
2096.12447	14999.0375
2099.11969	15007.8375
2102.11299	15044.3375
2105.10435	15025.8375
2108.09379	15033.1375
2111.08131	15057.7375
2114.0669	15055.0375
2117.05057	15090.4375
2120.03233	15118.9375
2123.01216	15136.7375
2125.99008	15109.4375
2128.96609	15145.8375
2131.94018	15139.0375
2134.91236	15149.2375
2137.88263	15181.4375
2140.851	15169.7375
2143.81746	15202.8375
2146.78201	15145.8375
2149.74466	15194.3375
2152.7054	15174.4375
2155.66425	15186.5375
2158.6212	15184.4375
2161.57625	15172.1375
2164.52941	15162.9375
2167.48067	15186.5375
2170.43004	15163.5375
2173.37752	15145.7375
2176.32311	15145.1375
2179.26681	15171.1375
2182.20863	15162.4375
2185.14856	15173.6375
2188.08661	15170.3375
2191.02278	15173.6375
2193.95707	15179.0375
2196.88948	15152.1375
2199.82001	15142.9375
2202.74867	15121.0375
2205.67545	15107.4375
2208.60037	15096.0375
2211.52341	15062.8375
2214.44458	15072.2375
2217.36388	15043.2375
2220.28132	15044.2375
2223.1969	14981.5375
2226.11061	14982.7375
2229.02246	14951.2375
2231.93245	14969.1375
2234.84058	14919.2375
2237.74686	14899.2375
2240.65128	14908.5375
2243.55385	14877.9375
2246.45456	14871.0375
2249.35343	14836.5375
2252.25044	14817.7375
2255.14561	14794.3375
2258.03893	14775.4375
2260.93041	14690.6375
2263.82004	14698.2375
2266.70783	14719.9375
2269.59378	14657.9375
2272.4779	14607.6375
2275.36017	14632.1375
2278.24061	14604.2375
2281.11922	14557.3375
2283.996	14569.8375
2286.87094	14520.6375
2289.74405	14495.7375
2292.61534	14513.2375
2295.4848	14484.1375
2298.35243	14484.9375
2301.21824	14455.8375
2304.08223	14478.0375
2306.94439	14490.2375
2309.80474	14447.8375
2312.66327	14448.1375
2315.51999	14439.0375
2318.37489	14445.0375
2321.22797	14422.5375
2324.07925	14411.6375
2326.92871	14390.6375
2329.77637	14388.3375
2332.62222	14373.6375
2335.46626	14368.4375
2338.3085	14324.8375
2341.14893	14340.6375
2343.98756	14347.5375
2346.8244	14337.2375
2349.65943	14337.3375
2352.49267	14329.7375
2355.32411	14328.8375
2358.15376	14345.8375
2360.98161	14299.0375
2363.80768	14293.2375
2366.63195	14287.4375
2369.45444	14276.1375
2372.27514	14253.1375
2375.09405	14256.1375
2377.91118	14218.6375
2380.72652	14183.9375
2383.54009	14163.5375
2386.35187	14139.8375
2389.16188	14109.1375
2391.97011	14121.0375
2394.77657	14108.9375
2397.58125	14097.3375
2400.38416	14090.0375
2403.18529	14055.0375
2405.98466	14081.4375
2408.78226	14056.3375
2411.57809	14007.6375
2414.37216	14000.6375
2417.16446	13996.2375
2419.955	13977.4375
2422.74378	13985.6375
2425.5308	13951.2375
2428.31606	13961.0375
2431.09956	13924.1375
2433.88131	13964.6375
2436.6613	13953.1375
2439.43954	13954.4375
2442.21603	13957.9375
2444.99077	13923.6375
2447.76377	13933.6375
2450.53501	13923.0375
2453.30451	13923.8375
2456.07226	13905.6375
2458.83827	13921.3375
2461.60254	13903.1375
2464.36507	13879.7375
2467.12586	13862.4375
2469.88492	13886.9375
2472.64224	13858.0375
2475.39782	13880.8375
2478.15167	13884.1375
2480.90379	13860.4375
2483.65417	13906.5375
2486.40283	13920.4375
2489.14976	13911.6375
2491.89497	13907.9375
2494.63845	13871.9375
2497.3802	13873.3375
2500.12024	13897.2375
2502.85855	13877.7375
2505.59514	13889.0375
2508.33002	13851.0375
2511.06318	13854.5375
2513.79462	13851.1375
2516.52435	13818.1375
2519.25237	13785.4375
2521.97867	13777.8375
2524.70327	13793.9375
2527.42616	13795.5375
2530.14734	13796.1375
2532.86681	13776.6375
2535.58458	13798.5375
2538.30065	13786.4375
2541.01501	13776.5375
2543.72768	13747.4375
2546.43864	13743.1375
2549.14791	13720.2375
2551.85548	13772.2375
2554.56136	13720.7375
2557.26554	13704.7375
2559.96803	13663.1375
2562.66883	13639.1375
2565.36794	13648.9375
2568.06536	13606.0375
2570.7611	13608.8375
2573.45514	13601.7375
2576.14751	13614.3375
2578.83819	13612.7375
2581.52719	13605.4375
2584.21451	13542.4375
2586.90015	13582.6375
2589.58411	13542.7375
2592.2664	13554.5375
2594.94701	13562.8375
2597.62594	13555.9375
2600.30321	13502.7375
2602.9788	13511.3375
2605.65273	13516.9375
2608.32498	13534.1375
2610.99557	13508.4375
2613.66449	13486.7375
2616.33175	13478.4375
2618.99734	13501.5375
2621.66128	13468.4375
2624.32355	13440.2375
2626.98416	13446.9375
2629.64311	13444.8375
2632.30041	13426.8375
2634.95605	13383.9375
2637.61004	13413.7375
2640.26238	13358.7375
2642.91306	13395.6375
2645.56209	13402.9375
2648.20948	13365.4375
2650.85521	13353.4375
2653.4993	13374.5375
2656.14175	13379.6375
2658.78255	13412.7375
2661.42171	13404.8375
2664.05923	13445.5375
2666.6951	13454.8375
2669.32934	13458.9375
2671.96194	13468.9375
2674.59291	13447.0375
2677.22224	13441.4375
2679.84993	13409.7375
2682.476	13435.5375
2685.10043	13454.7375
2687.72324	13455.3375
2690.34441	13432.7375
2692.96396	13434.5375
2695.58188	13422.3375
2698.19818	13432.3375
2700.81285	13436.1375
2703.4259	13392.4375
2706.03733	13311.0375
2708.64714	13371.6375
2711.25533	13433.5375
2713.86191	13456.4375
2716.46687	13492.3375
2719.07021	13534.3375
2721.67194	13518.3375
2724.27206	13568.6375
2726.87057	13561.7375
2729.46747	13562.2375
2732.06276	13565.9375
2734.65644	13544.5375
2737.24852	13551.9375
2739.83899	13541.9375
2742.42786	13561.0375
2745.01513	13563.8375
2747.60079	13547.7375
2750.18486	13544.4375
2752.76733	13489.4375
2755.3482	13468.9375
2757.92747	13490.1375
2760.50515	13463.8375
2763.08123	13459.3375
2765.65573	13436.8375
2768.22863	13434.9375
2770.79994	13416.5375
2773.36967	13435.5375
2775.9378	13409.9375
2778.50435	13410.5375
2781.06932	13401.5375
2783.6327	13409.1375
2786.1945	13428.9375
2788.75471	13404.6375
2791.31335	13378.0375
2793.87041	13357.5375
2796.42589	13353.9375
2798.97979	13302.1375
2801.53212	13285.2375
2804.08288	13276.5375
2806.63206	13238.9375
2809.17967	13241.8375
2811.72571	13213.6375
2814.27018	13197.5375
2816.81308	13136.1375
2819.35442	13152.9375
2821.89419	13108.0375
2824.43239	13100.0375
2826.96904	13081.7375
2829.50412	13088.6375
2832.03763	13044.8375
2834.56959	13060.6375
2837.1	13038.2375
2839.62884	13032.4375
2842.15613	13032.0375
2844.68186	13052.8375
2847.20604	13029.0375
2849.72867	13016.6375
2852.24974	13002.0375
2854.76927	12987.5375
2857.28724	12945.1375
2859.80367	12938.3375
2862.31855	12910.9375
2864.83189	12909.5375
2867.34368	12923.0375
2869.85393	12924.7375
2872.36264	12898.3375
2874.8698	12920.5375
2877.37543	12925.4375
2879.87952	12922.1375
2882.38207	12911.2375
2884.88308	12900.4375
2887.38256	12958.9375
2889.88051	12952.2375
2892.37692	12948.1375
2894.8718	12933.6375
2897.36515	12938.5375
2899.85698	12932.8375
2902.34727	12977.6375
2904.83604	12971.6375
2907.32328	12987.0375
2909.809	12947.9375
2912.29319	13013.2375
2914.77587	13005.3375
2917.25702	12991.5375
2919.73665	12963.4375
2922.21476	12986.1375
2924.69136	12961.9375
2927.16644	12971.9375
2929.64	12945.2375
2932.11205	12948.6375
2934.58258	12905.4375
2937.05161	12924.9375
2939.51912	12929.4375
2941.98513	12907.2375
2944.44962	12905.8375
2946.91261	12867.1375
2949.37409	12896.7375
2951.83407	12890.3375
2954.29254	12882.7375
2956.74951	12871.1375
2959.20498	12879.9375
2961.65895	12834.2375
2964.11142	12840.8375
2966.56239	12810.0375
2969.01186	12829.7375
2971.45984	12812.7375
2973.90632	12824.3375
2976.35131	12787.1375
2978.7948	12743.2375
2981.23681	12759.0375
2983.67732	12735.5375
2986.11635	12697.6375
2988.55388	12660.3375
2990.98993	12627.1375
2993.4245	12595.1375
2995.85758	12597.7375
2998.28917	12553.6375
3000.71928	12572.6375
3003.14791	12519.5375
3005.57506	12477.9375
3008.00073	12461.0375
3010.42493	12442.5375
3012.84764	12440.1375
3015.26888	12416.0375
3017.68865	12408.6375
3020.10694	12374.0375
3022.52376	12366.9375
3024.9391	12340.4375
3027.35298	12347.8375
3029.76539	12331.4375
3032.17632	12349.3375
3034.5858	12316.6375
3036.9938	12309.7375
3039.40034	12299.0375
3041.80542	12289.8375
3044.20903	12258.5375
3046.61118	12254.0375
3049.01187	12211.0375
3051.4111	12184.0375
3053.80888	12186.9375
3056.20519	12195.0375
3058.60005	12137.1375
3060.99345	12112.8375
3063.3854	12097.8375
3065.7759	12048.7375
3068.16494	12065.0375
3070.55254	12010.3375
3072.93868	11984.4375
3075.32338	11933.7375
3077.70662	11883.4375
3080.08842	11876.0375
3082.46878	11883.2375
3084.84769	11856.3375
3087.22515	11873.8375
3089.60118	11884.4375
3091.97576	11852.2375
3094.3489	11866.4375
3096.72061	11883.2375
3099.09087	11883.9375
3101.4597	11849.2375
3103.82709	11828.0375
3106.19305	11849.2375
3108.55757	11836.3375
3110.92066	11782.6375
3113.28232	11769.4375
3115.64255	11782.2375
3118.00134	11747.0375
3120.35871	11716.7375
3122.71466	11693.1375
3125.06917	11655.3375
3127.42226	11642.6375
3129.77393	11646.7375
3132.12417	11616.6375
3134.47299	11615.8375
3136.82039	11631.6375
3139.16636	11609.2375
3141.51092	11608.3375
3143.85406	11628.3375
3146.19579	11611.2375
3148.53609	11630.6375
3150.87499	11641.2375
3153.21246	11620.8375
3155.54853	11620.2375
3157.88318	11617.5375
3160.21642	11635.5375
3162.54826	11606.9375
3164.87868	11624.5375
3167.2077	11601.0375
3169.5353	11613.4375
3171.86151	11606.6375
3174.18631	11569.9375
3176.5097	11574.1375
3178.83169	11568.3375
3181.15228	11570.7375
3183.47147	11546.8375
3185.78926	11514.7375
3188.10565	11500.8375
3190.42065	11474.6375
3192.73424	11481.8375
3195.04645	11465.1375
3197.35725	11471.9375
3199.66667	11465.4375
3201.97469	11477.7375
3204.28132	11453.3375
3206.58656	11474.2375
3208.8904	11490.6375
3211.19287	11475.4375
3213.49394	11486.2375
3215.79363	11500.6375
3218.09193	11493.5375
3220.38884	11446.0375
3222.68438	11448.2375
3224.97853	11427.9375
3227.2713	11459.9375
3229.56269	11472.4375
3231.8527	11490.6375
3234.14133	11442.0375
3236.42858	11404.3375
3238.71446	11395.5375
3240.99896	11376.6375
3243.28209	11376.2375
3245.56384	11349.8375
3247.84423	11382.2375
3250.12324	11359.6375
3252.40088	11330.2375
3254.67715	11309.1375
3256.95205	11276.7375
3259.22558	11289.2375
3261.49775	11259.6375
3263.76855	11260.0375
3266.03799	11239.6375
3268.30606	11249.0375
3270.57277	11213.7375
3272.83812	11177.5375
3275.10211	11185.2375
3277.36474	11140.4375
3279.62601	11148.0375
3281.88593	11136.1375
3284.14448	11143.4375
3286.40168	11146.1375
3288.65753	11150.8375
3290.91202	11119.1375
3293.16516	11081.6375
3295.41695	11071.0375
3297.66738	11027.8375
3299.91647	10949.7375
3302.16421	10896.5375
3304.4106	10879.8375
3306.65564	10776.8375
3308.89933	10721.1375
3311.14169	10631.2375
3313.38269	10558.5375
3315.62236	10490.7375
3317.86068	10426.2375
3320.09766	10336.5375
3322.3333	10229.5375
3324.5676	10213.7375
3326.80056	10026.9375
3329.03219	9989.8375
3331.26248	3.4375
3333.49143	-0.3625
3335.71905	1.6375
