Data from AgNPs_FTO_APTES_UA_50uM_CRN_5uM_R6G_10uM_NaF_0.1M_Addition_RamanShift__30__13-07-34-849.txt Node

Date: Mon Feb 21 13:07:34 GMT 2022
User: TCL
Spectrometer: QEP01345
Trigger mode: 4
Integration Time (sec): 7.000000E0
Scans to average: 10
Electric dark correction enabled: true
Nonlinearity correction enabled: false
Boxcar width: 0
XAxis mode: Raman Shifts
Number of Pixels in Spectrum: 1044
>>>>>Begin Spectral Data<<<<<
46.04893	1.275
50.45542	-1.225
54.85868	-0.125
59.25871	-0.825
63.6555	45.475
68.04907	51.075
72.43941	51.575
76.82654	54.375
81.21044	56.675
85.59113	60.375
89.96862	59.675
94.34289	67.075
98.71396	66.975
103.08183	71.575
107.4465	71.275
111.80798	72.175
116.16626	72.175
120.52136	70.275
124.87327	81.575
129.222	78.175
133.56755	80.775
137.90993	90.375
142.24913	95.175
146.58517	103.275
150.91804	111.775
155.24774	134.475
159.57429	161.675
163.89768	205.975
168.21792	273.875
172.53501	366.575
176.84895	506.075
181.15975	699.475
185.46741	987.075
189.77193	1360.975
194.07331	1842.975
198.37157	2367.675
202.6667	2935.975
206.9587	3513.175
211.24758	4117.475
215.53334	4750.775
219.81599	5517.275
224.09553	6419.375
228.37195	7410.275
232.64527	8481.375
236.91549	9511.075
241.18261	10317.575
245.44663	10941.175
249.70755	11376.675
253.96539	11668.075
258.22014	11868.875
262.4718	11958.775
266.72039	11921.375
270.96589	11745.975
275.20832	11430.575
279.44768	11020.475
283.68397	10640.875
287.91719	10461.175
292.14735	10636.275
296.37445	11226.875
300.59849	12269.075
304.81948	13543.475
309.03742	14551.575
313.25231	14672.375
317.46415	13628.875
321.67296	11780.275
325.87872	10281.275
330.08145	9625.775
334.28114	9668.875
338.47781	10008.675
342.67145	10545.275
346.86207	11399.775
351.04966	12770.475
355.23424	14297.775
359.4158	15366.675
363.59435	15733.975
367.76989	15605.875
371.94243	15308.675
376.11196	14893.075
380.27849	14505.975
384.44203	14016.975
388.60257	13494.275
392.76012	13134.475
396.91468	13144.375
401.06626	13587.475
405.21485	13862.575
409.36047	13230.975
413.50311	11833.275
417.64277	10517.275
421.77947	9678.475
425.9132	9269.975
430.04396	9088.275
434.17176	9146.375
438.2966	9364.875
442.41849	9751.175
446.53742	10223.075
450.6534	10553.275
454.76644	10675.775
458.87653	10546.275
462.98368	10309.875
467.08789	10002.475
471.18916	9598.575
475.2875	9145.275
479.38291	8772.775
483.4754	8544.675
487.56496	8395.075
491.6516	8337.075
495.73531	8306.275
499.81612	8418.975
503.89401	8653.375
507.96899	8976.375
512.04106	9403.075
516.11023	9868.675
520.1765	10195.975
524.23987	10162.775
528.30034	9834.775
532.35792	9462.775
536.41261	9063.175
540.46441	8602.175
544.51333	8338.575
548.55936	8355.775
552.60252	8667.175
556.64279	9064.775
560.6802	9267.675
564.71473	9811.675
568.7464	10848.775
572.7752	11204.975
576.80114	10081.075
580.82422	9011.275
584.84444	8503.175
588.86181	8382.275
592.87633	8398.275
596.888	8653.575
600.89682	9424.875
604.9028	12171.275
608.90594	19630.575
612.90624	29508.875
616.90371	27809.275
620.89834	15788.375
624.89015	10215.975
628.87913	9250.075
632.86528	9587.675
636.84862	10020.575
640.82913	9649.875
644.80683	8591.975
648.78172	7895.475
652.75379	7960.575
656.72306	8829.775
660.68952	9824.975
664.65319	9425.575
668.61405	8274.975
672.57211	7709.975
676.52738	7681.375
680.47986	7644.975
684.42955	7446.375
688.37646	7365.775
692.32058	7422.975
696.26192	7552.275
700.20048	7785.175
704.13626	7910.475
708.06928	7801.475
711.99952	7666.475
715.927	7645.975
719.85171	7784.675
723.77365	7865.475
727.69284	7748.975
731.60928	7622.775
735.52295	7572.975
739.43388	7622.475
743.34206	7691.475
747.24749	7720.475
751.15017	7758.375
755.05012	8071.575
758.94733	9140.675
762.8418	11743.675
766.73354	15777.075
770.62254	19511.875
774.50882	21633.175
778.39237	20998.675
782.27321	16821.575
786.15132	12182.675
790.02671	9534.775
793.89938	8436.375
797.76935	7975.475
801.6366	7806.975
805.50115	7689.275
809.36299	7656.375
813.22213	7566.175
817.07857	7532.775
820.93231	7509.775
824.78336	7564.075
828.63172	7668.575
832.47738	7711.975
836.32036	7593.275
840.16066	7441.875
843.99827	7340.775
847.8332	7293.075
851.66546	7254.275
855.49504	7309.875
859.32195	7281.475
863.1462	7199.575
866.96777	7167.175
870.78668	7154.275
874.60293	7181.575
878.41652	7295.975
882.22745	7458.775
886.03573	7578.175
889.84136	7559.375
893.64433	7482.275
897.44466	7506.775
901.24235	7514.375
905.0374	7413.675
908.8298	7214.375
912.61957	7086.475
916.40671	7060.575
920.19121	7116.575
923.97308	7268.175
927.75233	7584.375
931.52895	7943.575
935.30295	7770.475
939.07433	7232.675
942.84309	6781.575
946.60924	6547.475
950.37278	6417.375
954.13371	6401.275
957.89203	6361.975
961.64774	6357.075
965.40086	6326.475
969.15137	6307.675
972.89929	6292.575
976.64461	6279.475
980.38733	6281.175
984.12747	6283.575
987.86502	6331.175
991.59999	6386.075
995.33237	6512.175
999.06217	6720.875
1002.78939	6968.575
1006.51404	7256.875
1010.23611	7529.975
1013.95561	7652.575
1017.67255	7604.875
1021.38692	7391.275
1025.09872	7199.575
1028.80796	7066.075
1032.51465	7111.675
1036.21877	7260.975
1039.92035	7430.375
1043.61937	7539.175
1047.31584	7507.275
1051.00976	7424.775
1054.70114	7334.675
1058.38998	7258.875
1062.07627	7276.575
1065.76003	7302.875
1069.44126	7383.275
1073.11995	7560.175
1076.79611	7857.275
1080.46974	8407.275
1084.14085	9095.975
1087.80943	9639.875
1091.47549	9743.475
1095.13903	9261.275
1098.80005	8526.175
1102.45857	8034.275
1106.11456	7989.075
1109.76805	8262.675
1113.41903	8885.975
1117.06751	9844.875
1120.71348	11194.075
1124.35696	12785.575
1127.99793	13672.075
1131.63641	12851.375
1135.2724	11108.775
1138.90589	9832.275
1142.5369	9014.875
1146.16542	8525.975
1149.79145	8245.775
1153.415	8133.975
1157.03607	8231.975
1160.65467	8575.075
1164.27079	9125.775
1167.88443	10060.275
1171.49561	11596.175
1175.10432	14215.975
1178.71056	17804.475
1182.31434	20460.075
1185.91565	20810.575
1189.51451	19399.375
1193.11091	17270.175
1196.70485	15209.575
1200.29634	13904.175
1203.88538	12769.475
1207.47197	11265.575
1211.05612	9910.475
1214.63782	9087.575
1218.21708	8715.675
1221.79391	8597.175
1225.36829	8606.575
1228.94024	8623.175
1232.50976	8629.675
1236.07685	8656.275
1239.6415	8765.975
1243.20374	8869.975
1246.76355	8942.675
1250.32093	9124.275
1253.8759	9414.975
1257.42845	9953.175
1260.97859	10587.775
1264.52631	11310.375
1268.07163	11949.475
1271.61453	12441.775
1275.15503	12646.675
1278.69312	12678.775
1282.22882	12934.975
1285.76211	13581.075
1289.29301	14447.175
1292.82151	15242.275
1296.34761	16142.275
1299.87133	17753.375
1303.39266	20826.675
1306.9116	25509.675
1310.42815	29965.575
1313.94233	30841.275
1317.45412	27552.875
1320.96354	22961.875
1324.47058	18989.175
1327.97525	16166.175
1331.47754	14720.875
1334.97747	14371.375
1338.47502	14849.275
1341.97022	16253.275
1345.46305	18573.775
1348.95352	21559.175
1352.44163	25183.675
1355.92738	30579.675
1359.41078	38350.375
1362.89183	43355.575
1366.37053	39015.375
1369.84688	29890.375
1373.32088	22642.675
1376.79254	18328.975
1380.26186	15780.975
1383.72883	14083.075
1387.19347	12671.575
1390.65578	11483.975
1394.11575	10667.875
1397.57339	10255.775
1401.0287	10163.075
1404.48168	10147.475
1407.93234	10245.875
1411.38068	10440.775
1414.82669	10659.875
1418.27039	10709.775
1421.71177	10563.475
1425.15083	10376.975
1428.58758	10440.075
1432.02203	10689.675
1435.45416	10794.775
1438.88399	10700.075
1442.31151	10631.275
1445.73673	10659.975
1449.15965	10744.975
1452.58027	10658.375
1455.9986	10466.975
1459.41463	10448.675
1462.82837	10694.175
1466.23982	11181.475
1469.64898	11574.875
1473.05586	11702.475
1476.46045	11829.575
1479.86276	12122.775
1483.26279	12673.275
1486.66054	13521.175
1490.05602	14798.075
1493.44922	16678.475
1496.84016	19778.575
1500.22882	24529.975
1503.61521	31019.875
1506.99934	37955.375
1510.38121	42826.875
1513.76081	42563.775
1517.13816	36697.475
1520.51324	28612.175
1523.88607	21982.075
1527.25665	17951.475
1530.62498	15794.375
1533.99105	14535.875
1537.35488	13758.275
1540.71647	13413.475
1544.07581	13426.675
1547.4329	13600.075
1550.78776	13857.575
1554.14038	14044.775
1557.49077	14223.575
1560.83892	14723.875
1564.18484	15744.075
1567.52853	17089.475
1570.86999	18186.275
1574.20922	18634.475
1577.54624	18073.375
1580.88103	15978.375
1584.2136	13564.175
1587.54395	12125.275
1590.87208	12026.875
1594.19801	12926.775
1597.52172	14296.975
1600.84321	14753.475
1604.16251	13939.075
1607.47959	12735.875
1610.79447	11385.375
1614.10715	10209.775
1617.41763	9352.175
1620.7259	8869.775
1624.03199	8712.175
1627.33587	8838.575
1630.63757	9250.975
1633.93707	10071.775
1637.23439	11458.775
1640.52951	13781.975
1643.82246	17365.475
1647.11321	21730.975
1650.40179	24400.175
1653.68819	22878.775
1656.97241	18114.775
1660.25446	13490.575
1663.53433	10460.475
1666.81203	8797.775
1670.08756	7911.575
1673.36092	7359.675
1676.63211	7049.175
1679.90115	6832.275
1683.16801	6613.675
1686.43272	6496.675
1689.69527	6385.775
1692.95567	6265.675
1696.2139	6154.975
1699.46999	6041.175
1702.72392	6027.875
1705.97571	6102.875
1709.22535	6155.275
1712.47284	6231.875
1715.71819	6232.975
1718.96139	6253.675
1722.20246	6209.775
1725.44139	6114.575
1728.67818	6030.375
1731.91284	5932.975
1735.14537	5846.875
1738.37576	5806.175
1741.60403	5744.675
1744.83017	5700.575
1748.05418	5653.875
1751.27607	5598.475
1754.49584	5537.275
1757.71349	5451.675
1760.92903	5400.475
1764.14244	5374.775
1767.35375	5364.775
1770.56294	5301.375
1773.77002	5261.075
1776.97499	5283.875
1780.17785	5304.575
1783.37861	5310.875
1786.57727	5295.875
1789.77382	5294.775
1792.96828	5279.775
1796.16064	5283.975
1799.3509	5261.275
1802.53907	5271.475
1805.72514	5222.475
1808.90913	5213.175
1812.09102	5177.075
1815.27083	5174.475
1818.44856	5145.975
1821.6242	5122.975
1824.79776	5115.475
1827.96924	5099.175
1831.13864	5085.375
1834.30597	5068.275
1837.47122	5070.375
1840.6344	5045.175
1843.7955	5028.175
1846.95454	5031.575
1850.11151	5010.675
1853.26642	5016.275
1856.41926	5013.075
1859.57004	5024.875
1862.71876	5024.675
1865.86542	5030.175
1869.01003	5031.075
1872.15258	5021.875
1875.29308	5021.675
1878.43152	5039.875
1881.56792	5032.375
1884.70227	5029.075
1887.83457	5034.975
1890.96482	5039.975
1894.09304	5006.775
1897.21921	5036.075
1900.34335	5026.975
1903.46544	5032.475
1906.58551	5029.875
1909.70353	5035.875
1912.81953	5040.075
1915.93349	5034.875
1919.04543	5025.275
1922.15534	5004.875
1925.26322	4990.175
1928.36908	4950.175
1931.47292	4910.175
1934.57473	4882.975
1937.67453	4840.375
1940.77232	4836.075
1943.86808	4815.375
1946.96184	4789.675
1950.05358	4770.075
1953.14331	4767.575
1956.23103	4741.875
1959.31675	4725.575
1962.40046	4703.175
1965.48217	4709.875
1968.56188	4719.375
1971.63959	4729.175
1974.7153	4698.975
1977.78901	4670.775
1980.86073	4642.375
1983.93046	4633.975
1986.99819	4581.975
1990.06394	4551.175
1993.1277	4554.075
1996.18947	4529.275
1999.24925	4510.175
2002.30706	4479.275
2005.36288	4465.375
2008.41672	4447.675
2011.46859	4433.375
2014.51848	4411.175
2017.56639	4405.275
2020.61233	4376.275
2023.6563	4374.175
2026.6983	4348.875
2029.73833	4356.975
2032.7764	4340.875
2035.8125	4323.075
2038.84664	4322.975
2041.87881	4310.075
2044.90903	4316.575
2047.93729	4305.875
2050.96359	4287.875
2053.98794	4271.175
2057.01034	4276.775
2060.03078	4270.275
2063.04927	4253.975
2066.06582	4250.275
2069.08042	4232.575
2072.09307	4238.275
2075.10378	4235.275
2078.11255	4227.075
2081.11938	4237.075
2084.12426	4235.375
2087.12722	4227.475
2090.12824	4234.775
2093.12732	4229.575
2096.12447	4219.375
2099.11969	4220.775
2102.11299	4211.075
2105.10435	4226.275
2108.09379	4226.075
2111.08131	4231.175
2114.0669	4226.875
2117.05057	4242.775
2120.03233	4253.475
2123.01216	4251.475
2125.99008	4268.775
2128.96609	4268.975
2131.94018	4284.675
2134.91236	4264.675
2137.88263	4264.175
2140.851	4258.675
2143.81746	4243.375
2146.78201	4222.075
2149.74466	4226.475
2152.7054	4206.275
2155.66425	4188.575
2158.6212	4201.975
2161.57625	4194.475
2164.52941	4200.575
2167.48067	4171.375
2170.43004	4172.675
2173.37752	4183.175
2176.32311	4181.575
2179.26681	4194.775
2182.20863	4186.575
2185.14856	4201.675
2188.08661	4180.275
2191.02278	4176.175
2193.95707	4187.375
2196.88948	4173.975
2199.82001	4158.075
2202.74867	4153.575
2205.67545	4144.475
2208.60037	4144.075
2211.52341	4134.575
2214.44458	4146.275
2217.36388	4129.675
2220.28132	4105.875
2223.1969	4097.275
2226.11061	4093.875
2229.02246	4078.875
2231.93245	4076.475
2234.84058	4069.775
2237.74686	4050.975
2240.65128	4058.275
2243.55385	4045.075
2246.45456	4063.675
2249.35343	4063.275
2252.25044	4062.175
2255.14561	4067.675
2258.03893	4095.175
2260.93041	4077.675
2263.82004	4073.675
2266.70783	4088.975
2269.59378	4079.475
2272.4779	4059.375
2275.36017	4039.075
2278.24061	4065.675
2281.11922	4043.775
2283.996	4018.575
2286.87094	4008.875
2289.74405	3971.175
2292.61534	3974.475
2295.4848	3952.775
2298.35243	3944.775
2301.21824	3934.475
2304.08223	3930.575
2306.94439	3942.975
2309.80474	3937.575
2312.66327	3938.075
2315.51999	3929.075
2318.37489	3934.975
2321.22797	3923.175
2324.07925	3916.775
2326.92871	3915.075
2329.77637	3901.275
2332.62222	3897.475
2335.46626	3898.375
2338.3085	3902.075
2341.14893	3898.575
2343.98756	3921.175
2346.8244	3925.875
2349.65943	3932.375
2352.49267	3938.175
2355.32411	3980.875
2358.15376	3993.175
2360.98161	4016.875
2363.80768	4019.475
2366.63195	4032.675
2369.45444	4053.975
2372.27514	4061.375
2375.09405	4070.275
2377.91118	4047.175
2380.72652	4012.075
2383.54009	3990.575
2386.35187	3951.575
2389.16188	3923.175
2391.97011	3921.475
2394.77657	3876.175
2397.58125	3847.375
2400.38416	3829.075
2403.18529	3825.875
2405.98466	3806.975
2408.78226	3801.375
2411.57809	3781.675
2414.37216	3786.975
2417.16446	3774.175
2419.955	3773.375
2422.74378	3782.475
2425.5308	3767.375
2428.31606	3789.175
2431.09956	3781.175
2433.88131	3794.375
2436.6613	3802.475
2439.43954	3804.975
2442.21603	3813.675
2444.99077	3813.375
2447.76377	3825.775
2450.53501	3832.475
2453.30451	3830.775
2456.07226	3835.775
2458.83827	3822.775
2461.60254	3831.675
2464.36507	3824.275
2467.12586	3828.575
2469.88492	3814.975
2472.64224	3829.675
2475.39782	3842.875
2478.15167	3856.775
2480.90379	3878.175
2483.65417	3909.375
2486.40283	3936.675
2489.14976	3967.175
2491.89497	3985.775
2494.63845	3976.775
2497.3802	3976.575
2500.12024	3963.575
2502.85855	3928.775
2505.59514	3895.975
2508.33002	3857.575
2511.06318	3830.375
2513.79462	3787.075
2516.52435	3759.775
2519.25237	3733.975
2521.97867	3707.575
2524.70327	3683.975
2527.42616	3675.875
2530.14734	3675.875
2532.86681	3680.075
2535.58458	3680.375
2538.30065	3690.775
2541.01501	3684.975
2543.72768	3687.075
2546.43864	3691.775
2549.14791	3684.275
2551.85548	3700.575
2554.56136	3707.275
2557.26554	3702.675
2559.96803	3699.275
2562.66883	3704.275
2565.36794	3698.275
2568.06536	3685.175
2570.7611	3680.275
2573.45514	3664.775
2576.14751	3666.475
2578.83819	3655.375
2581.52719	3643.175
2584.21451	3645.875
2586.90015	3617.175
2589.58411	3629.175
2592.2664	3630.775
2594.94701	3619.675
2597.62594	3618.575
2600.30321	3614.275
2602.9788	3618.075
2605.65273	3623.475
2608.32498	3606.575
2610.99557	3620.275
2613.66449	3630.375
2616.33175	3637.675
2618.99734	3632.775
2621.66128	3622.575
2624.32355	3614.275
2626.98416	3616.075
2629.64311	3594.275
2632.30041	3597.775
2634.95605	3582.275
2637.61004	3565.775
2640.26238	3559.575
2642.91306	3546.775
2645.56209	3534.375
2648.20948	3518.175
2650.85521	3529.675
2653.4993	3528.875
2656.14175	3529.075
2658.78255	3566.375
2661.42171	3568.975
2664.05923	3574.175
2666.6951	3588.775
2669.32934	3605.675
2671.96194	3616.275
2674.59291	3606.975
2677.22224	3621.075
2679.84993	3621.675
2682.476	3607.175
2685.10043	3614.575
2687.72324	3596.475
2690.34441	3591.375
2692.96396	3603.975
2695.58188	3597.175
2698.19818	3591.575
2700.81285	3608.575
2703.4259	3564.675
2706.03733	3499.075
2708.64714	3525.075
2711.25533	3577.675
2713.86191	3607.575
2716.46687	3612.775
2719.07021	3626.375
2721.67194	3638.575
2724.27206	3627.975
2726.87057	3643.475
2729.46747	3638.475
2732.06276	3623.675
2734.65644	3613.575
2737.24852	3598.775
2739.83899	3597.975
2742.42786	3606.675
2745.01513	3575.475
2747.60079	3579.275
2750.18486	3556.475
2752.76733	3544.775
2755.3482	3542.575
2757.92747	3528.275
2760.50515	3538.675
2763.08123	3531.875
2765.65573	3518.775
2768.22863	3518.175
2770.79994	3514.075
2773.36967	3534.275
2775.9378	3533.175
2778.50435	3530.975
2781.06932	3526.375
2783.6327	3535.375
2786.1945	3546.675
2788.75471	3549.375
2791.31335	3560.675
2793.87041	3567.575
2796.42589	3561.275
2798.97979	3579.375
2801.53212	3583.275
2804.08288	3588.775
2806.63206	3601.075
2809.17967	3619.275
2811.72571	3620.475
2814.27018	3648.375
2816.81308	3644.575
2819.35442	3670.575
2821.89419	3694.075
2824.43239	3704.475
2826.96904	3714.775
2829.50412	3715.175
2832.03763	3715.275
2834.56959	3703.075
2837.1	3719.275
2839.62884	3718.175
2842.15613	3725.075
2844.68186	3755.975
2847.20604	3778.275
2849.72867	3787.175
2852.24974	3820.075
2854.76927	3809.375
2857.28724	3813.975
2859.80367	3842.075
2862.31855	3846.975
2864.83189	3860.975
2867.34368	3860.475
2869.85393	3893.275
2872.36264	3900.075
2874.8698	3897.875
2877.37543	3872.775
2879.87952	3876.775
2882.38207	3857.975
2884.88308	3845.175
2887.38256	3832.475
2889.88051	3805.075
2892.37692	3829.475
2894.8718	3818.675
2897.36515	3823.075
2899.85698	3826.475
2902.34727	3836.175
2904.83604	3809.075
2907.32328	3821.275
2909.809	3809.675
2912.29319	3796.275
2914.77587	3790.675
2917.25702	3767.875
2919.73665	3772.275
2922.21476	3761.475
2924.69136	3741.475
2927.16644	3743.775
2929.64	3715.975
2932.11205	3704.175
2934.58258	3694.975
2937.05161	3678.775
2939.51912	3682.575
2941.98513	3652.075
2944.44962	3631.275
2946.91261	3617.075
2949.37409	3615.475
2951.83407	3594.875
2954.29254	3590.575
2956.74951	3570.075
2959.20498	3559.275
2961.65895	3550.475
2964.11142	3543.075
2966.56239	3532.175
2969.01186	3516.875
2971.45984	3495.675
2973.90632	3510.775
2976.35131	3476.675
2978.7948	3476.975
2981.23681	3460.175
2983.67732	3453.575
2986.11635	3451.775
2988.55388	3417.875
2990.98993	3420.075
2993.4245	3420.175
2995.85758	3416.775
2998.28917	3421.575
3000.71928	3421.075
3003.14791	3409.575
3005.57506	3400.675
3008.00073	3396.075
3010.42493	3406.975
3012.84764	3389.675
3015.26888	3375.375
3017.68865	3390.675
3020.10694	3380.175
3022.52376	3375.075
3024.9391	3362.075
3027.35298	3360.175
3029.76539	3357.175
3032.17632	3338.475
3034.5858	3329.775
3036.9938	3314.475
3039.40034	3306.775
3041.80542	3299.475
3044.20903	3288.875
3046.61118	3285.075
3049.01187	3275.075
3051.4111	3272.375
3053.80888	3264.275
3056.20519	3254.975
3058.60005	3246.675
3060.99345	3239.275
3063.3854	3216.275
3065.7759	3225.175
3068.16494	3205.075
3070.55254	3204.375
3072.93868	3192.875
3075.32338	3179.375
3077.70662	3167.075
3080.08842	3166.475
3082.46878	3168.475
3084.84769	3156.375
3087.22515	3155.675
3089.60118	3146.775
3091.97576	3144.575
3094.3489	3142.575
3096.72061	3144.775
3099.09087	3144.975
3101.4597	3137.375
3103.82709	3143.675
3106.19305	3132.075
3108.55757	3151.975
3110.92066	3130.375
3113.28232	3136.975
3115.64255	3132.075
3118.00134	3134.275
3120.35871	3137.275
3122.71466	3124.675
3125.06917	3117.275
3127.42226	3130.875
3129.77393	3134.075
3132.12417	3146.475
3134.47299	3147.675
3136.82039	3161.375
3139.16636	3158.575
3141.51092	3164.975
3143.85406	3171.075
3146.19579	3178.475
3148.53609	3195.375
3150.87499	3199.475
3153.21246	3203.075
3155.54853	3212.975
3157.88318	3206.875
3160.21642	3224.475
3162.54826	3233.275
3164.87868	3241.575
3167.2077	3230.775
3169.5353	3244.875
3171.86151	3256.275
3174.18631	3248.375
3176.5097	3252.075
3178.83169	3251.975
3181.15228	3243.975
3183.47147	3254.175
3185.78926	3245.175
3188.10565	3246.675
3190.42065	3270.675
3192.73424	3279.875
3195.04645	3284.175
3197.35725	3300.375
3199.66667	3305.175
3201.97469	3299.775
3204.28132	3316.375
3206.58656	3329.875
3208.8904	3332.175
3211.19287	3340.175
3213.49394	3357.175
3215.79363	3364.675
3218.09193	3378.775
3220.38884	3367.775
3222.68438	3355.775
3224.97853	3374.375
3227.2713	3398.275
3229.56269	3382.275
3231.8527	3383.375
3234.14133	3393.675
3236.42858	3388.975
3238.71446	3396.375
3240.99896	3357.775
3243.28209	3369.975
3245.56384	3371.175
3247.84423	3367.375
3250.12324	3385.275
3252.40088	3382.475
3254.67715	3367.475
3256.95205	3381.275
3259.22558	3384.875
3261.49775	3387.875
3263.76855	3373.875
3266.03799	3359.975
3268.30606	3360.475
3270.57277	3356.575
3272.83812	3363.275
3275.10211	3344.775
3277.36474	3346.475
3279.62601	3347.875
3281.88593	3334.175
3284.14448	3344.375
3286.40168	3350.975
3288.65753	3348.775
3290.91202	3356.675
3293.16516	3355.675
3295.41695	3350.575
3297.66738	3327.175
3299.91647	3323.975
3302.16421	3289.075
3304.4106	3275.875
3306.65564	3250.375
3308.89933	3223.475
3311.14169	3188.775
3313.38269	3155.375
3315.62236	3137.275
3317.86068	3106.675
3320.09766	3092.475
3322.3333	3056.075
3324.5676	3045.675
3326.80056	2982.975
3329.03219	2953.075
3331.26248	0.675
3333.49143	-1.425
3335.71905	0.575
