Data from AgNPs_FTO_APTES_UA_50uM_CRN_2uM_R6G_10uM_NaF_0.1M_Addition_RamanShift__17__12-13-54-780.txt Node

Date: Mon Feb 21 12:13:54 GMT 2022
User: TCL
Spectrometer: QEP01345
Trigger mode: 4
Integration Time (sec): 7.000000E0
Scans to average: 10
Electric dark correction enabled: true
Nonlinearity correction enabled: false
Boxcar width: 0
XAxis mode: Raman Shifts
Number of Pixels in Spectrum: 1044
>>>>>Begin Spectral Data<<<<<
46.04893	-0.5125
50.45542	0.2875
54.85868	-1.2125
59.25871	-1.8125
63.6555	73.4875
68.04907	78.3875
72.43941	80.5875
76.82654	87.3875
81.21044	88.4875
85.59113	93.0875
89.96862	95.5875
94.34289	104.2875
98.71396	100.6875
103.08183	103.4875
107.4465	107.1875
111.80798	107.5875
116.16626	110.4875
120.52136	115.4875
124.87327	123.4875
129.222	126.6875
133.56755	131.8875
137.90993	144.8875
142.24913	154.5875
146.58517	173.4875
150.91804	199.8875
155.24774	241.2875
159.57429	297.7875
163.89768	379.8875
168.21792	507.2875
172.53501	694.4875
176.84895	977.9875
181.15975	1367.4875
185.46741	1922.7875
189.77193	2640.7875
194.07331	3541.1875
198.37157	4572.5875
202.6667	5648.7875
206.9587	6712.9875
211.24758	7763.4875
215.53334	8878.6875
219.81599	9983.5875
224.09553	11294.3875
228.37195	12716.0875
232.64527	14284.3875
236.91549	15917.6875
241.18261	17488.1875
245.44663	18893.1875
249.70755	20131.7875
253.96539	21139.5875
258.22014	22043.7875
262.4718	22839.7875
266.72039	23377.5875
270.96589	23640.1875
275.20832	23658.0875
279.44768	23476.0875
283.68397	23178.9875
287.91719	22937.7875
292.14735	22843.8875
296.37445	22941.8875
300.59849	23191.6875
304.81948	23476.9875
309.03742	23704.6875
313.25231	23558.0875
317.46415	22991.4875
321.67296	22118.1875
325.87872	21353.2875
330.08145	21006.3875
334.28114	20993.7875
338.47781	21174.9875
342.67145	21520.1875
346.86207	21980.0875
351.04966	22579.5875
355.23424	23343.9875
359.4158	23932.2875
363.59435	24329.1875
367.76989	24537.6875
371.94243	24636.5875
376.11196	24678.8875
380.27849	24711.7875
384.44203	24758.6875
388.60257	24819.9875
392.76012	24880.5875
396.91468	25144.7875
401.06626	25546.0875
405.21485	25793.8875
409.36047	25639.4875
413.50311	25040.3875
417.64277	24437.7875
421.77947	24236.9875
425.9132	24157.8875
430.04396	24182.1875
434.17176	24309.1875
438.2966	24483.3875
442.41849	24940.3875
446.53742	25595.4875
450.6534	26319.3875
454.76644	26835.0875
458.87653	27039.7875
462.98368	26939.1875
467.08789	26621.5875
471.18916	26257.9875
475.2875	25827.6875
479.38291	25589.4875
483.4754	25342.8875
487.56496	25090.4875
491.6516	24810.9875
495.73531	24500.2875
499.81612	24381.2875
503.89401	24535.7875
507.96899	24604.9875
512.04106	24666.4875
516.11023	24588.3875
520.1765	24519.3875
524.23987	24363.5875
528.30034	24191.4875
532.35792	23987.8875
536.41261	23730.7875
540.46441	23429.4875
544.51333	23322.0875
548.55936	23519.3875
552.60252	24003.5875
556.64279	24588.1875
560.6802	25021.9875
564.71473	25351.2875
568.7464	25918.0875
572.7752	26507.7875
576.80114	26707.5875
580.82422	26806.8875
584.84444	26957.4875
588.86181	27325.2875
592.87633	27718.0875
596.888	27762.4875
600.89682	27702.0875
604.9028	28820.9875
608.90594	32629.0875
612.90624	37095.7875
616.90371	34975.7875
620.89834	28011.3875
624.89015	24734.7875
628.87913	24247.9875
632.86528	24377.3875
636.84862	24504.2875
640.82913	24154.7875
644.80683	23427.9875
648.78172	22875.7875
652.75379	22786.1875
656.72306	23241.2875
660.68952	23841.4875
664.65319	23752.1875
668.61405	23185.0875
672.57211	23007.2875
676.52738	23076.0875
680.47986	23125.0875
684.42955	22912.4875
688.37646	22834.5875
692.32058	22930.4875
696.26192	23222.3875
700.20048	23479.2875
704.13626	23593.7875
708.06928	23493.9875
711.99952	23303.0875
715.927	23264.1875
719.85171	23374.9875
723.77365	23372.3875
727.69284	23142.0875
731.60928	22862.7875
735.52295	22713.5875
739.43388	22730.9875
743.34206	22789.6875
747.24749	22896.9875
751.15017	23098.1875
755.05012	23405.2875
758.94733	24129.7875
762.8418	25704.0875
766.73354	28292.4875
770.62254	30868.1875
774.50882	31685.7875
778.39237	30326.2875
782.27321	27653.2875
786.15132	25310.5875
790.02671	23849.6875
793.89938	23111.2875
797.76935	22832.8875
801.6366	22711.3875
805.50115	22644.8875
809.36299	22500.1875
813.22213	22351.1875
817.07857	22265.9875
820.93231	22178.5875
824.78336	22092.0875
828.63172	22056.0875
832.47738	22005.1875
836.32036	21987.5875
840.16066	22018.4875
843.99827	22032.6875
847.8332	22004.6875
851.66546	21947.5875
855.49504	21972.0875
859.32195	21945.2875
863.1462	21935.0875
866.96777	21832.6875
870.78668	21821.7875
874.60293	21863.9875
878.41652	21877.1875
882.22745	21968.5875
886.03573	22079.9875
889.84136	22086.2875
893.64433	21970.0875
897.44466	21877.1875
901.24235	21778.9875
905.0374	21662.6875
908.8298	21532.6875
912.61957	21510.0875
916.40671	21599.9875
920.19121	21833.1875
923.97308	22042.8875
927.75233	22158.2875
931.52895	22138.6875
935.30295	21895.5875
939.07433	21536.7875
942.84309	21152.3875
946.60924	21019.4875
950.37278	20942.9875
954.13371	20909.2875
957.89203	20837.6875
961.64774	20819.9875
965.40086	20758.6875
969.15137	20731.6875
972.89929	20652.6875
976.64461	20599.8875
980.38733	20572.3875
984.12747	20649.8875
987.86502	20830.5875
991.59999	21061.6875
995.33237	21381.3875
999.06217	21910.5875
1002.78939	22507.5875
1006.51404	22985.8875
1010.23611	23371.1875
1013.95561	23603.4875
1017.67255	23580.5875
1021.38692	23358.2875
1025.09872	23006.2875
1028.80796	22868.1875
1032.51465	23051.9875
1036.21877	23338.2875
1039.92035	23491.8875
1043.61937	23366.9875
1047.31584	23109.4875
1051.00976	22771.1875
1054.70114	22608.0875
1058.38998	22632.4875
1062.07627	22767.8875
1065.76003	22945.3875
1069.44126	23100.6875
1073.11995	23472.5875
1076.79611	23852.9875
1080.46974	24159.6875
1084.14085	24474.9875
1087.80943	24890.9875
1091.47549	25168.6875
1095.13903	25076.7875
1098.80005	24669.5875
1102.45857	24169.2875
1106.11456	23815.3875
1109.76805	23669.9875
1113.41903	23821.5875
1117.06751	24136.6875
1120.71348	24587.3875
1124.35696	25010.9875
1127.99793	25464.0875
1131.63641	25570.7875
1135.2724	25225.3875
1138.90589	24774.9875
1142.5369	24547.2875
1146.16542	24388.2875
1149.79145	24392.1875
1153.415	24537.3875
1157.03607	24726.9875
1160.65467	25235.2875
1164.27079	26227.8875
1167.88443	27632.5875
1171.49561	29436.6875
1175.10432	32002.9875
1178.71056	35295.9875
1182.31434	38284.8875
1185.91565	39596.2875
1189.51451	39275.0875
1193.11091	37817.8875
1196.70485	35972.5875
1200.29634	34238.9875
1203.88538	32855.7875
1207.47197	31602.0875
1211.05612	30572.0875
1214.63782	29899.5875
1218.21708	29488.0875
1221.79391	29257.9875
1225.36829	29182.5875
1228.94024	28966.6875
1232.50976	28473.1875
1236.07685	28029.2875
1239.6415	27790.3875
1243.20374	27766.7875
1246.76355	27891.1875
1250.32093	28234.3875
1253.8759	28800.3875
1257.42845	29635.4875
1260.97859	30564.4875
1264.52631	31621.3875
1268.07163	32616.6875
1271.61453	33578.8875
1275.15503	34539.4875
1278.69312	35324.3875
1282.22882	36007.1875
1285.76211	36828.9875
1289.29301	37834.1875
1292.82151	39152.0875
1296.34761	40787.6875
1299.87133	42914.9875
1303.39266	45747.4875
1306.9116	49007.5875
1310.42815	52540.1875
1313.94233	54637.6875
1317.45412	54378.2875
1320.96354	52721.3875
1324.47058	50836.0875
1327.97525	49131.0875
1331.47754	48051.4875
1334.97747	47579.6875
1338.47502	47458.3875
1341.97022	47497.1875
1345.46305	47451.5875
1348.95352	47497.6875
1352.44163	48117.5875
1355.92738	49719.2875
1359.41078	52922.7875
1362.89183	56203.1875
1366.37053	55246.6875
1369.84688	49495.2875
1373.32088	43218.3875
1376.79254	39038.0875
1380.26186	37160.6875
1383.72883	36473.9875
1387.19347	36116.9875
1390.65578	35567.8875
1394.11575	35222.8875
1397.57339	35428.3875
1401.0287	35876.8875
1404.48168	36343.7875
1407.93234	36526.4875
1411.38068	36324.7875
1414.82669	35641.7875
1418.27039	34581.6875
1421.71177	33474.6875
1425.15083	32484.1875
1428.58758	31957.3875
1432.02203	32145.5875
1435.45416	32808.8875
1438.88399	33489.2875
1442.31151	34044.0875
1445.73673	34419.8875
1449.15965	34840.7875
1452.58027	35073.7875
1455.9986	35025.4875
1459.41463	35236.2875
1462.82837	35820.5875
1466.23982	36516.8875
1469.64898	37101.0875
1473.05586	37465.8875
1476.46045	37422.3875
1479.86276	37263.1875
1483.26279	37127.0875
1486.66054	37173.6875
1490.05602	37529.2875
1493.44922	38159.5875
1496.84016	39105.5875
1500.22882	40746.4875
1503.61521	43211.1875
1506.99934	46291.7875
1510.38121	48714.9875
1513.76081	49186.5875
1517.13816	46988.2875
1520.51324	43399.8875
1523.88607	40191.8875
1527.25665	38209.9875
1530.62498	37251.2875
1533.99105	36807.6875
1537.35488	36399.7875
1540.71647	35861.9875
1544.07581	35325.9875
1547.4329	34699.8875
1550.78776	34149.0875
1554.14038	33814.7875
1557.49077	33735.2875
1560.83892	33858.0875
1564.18484	34117.2875
1567.52853	34635.3875
1570.86999	35157.3875
1574.20922	35606.3875
1577.54624	35788.2875
1580.88103	35265.0875
1584.2136	34684.2875
1587.54395	34971.3875
1590.87208	36378.1875
1594.19801	38632.7875
1597.52172	41038.7875
1600.84321	41773.5875
1604.16251	40156.8875
1607.47959	37290.4875
1610.79447	34231.4875
1614.10715	31341.9875
1617.41763	28917.4875
1620.7259	27266.7875
1624.03199	26421.6875
1627.33587	26357.3875
1630.63757	27108.9875
1633.93707	28790.1875
1637.23439	31670.6875
1640.52951	35715.4875
1643.82246	40524.3875
1647.11321	44656.9875
1650.40179	45874.7875
1653.68819	42982.4875
1656.97241	37101.8875
1660.25446	31180.9875
1663.53433	26944.7875
1666.81203	24335.1875
1670.08756	22733.8875
1673.36092	21789.0875
1676.63211	21173.2875
1679.90115	20722.0875
1683.16801	20370.6875
1686.43272	20127.4875
1689.69527	19951.6875
1692.95567	19757.8875
1696.2139	19558.0875
1699.46999	19394.1875
1702.72392	19313.4875
1705.97571	19352.5875
1709.22535	19376.2875
1712.47284	19408.1875
1715.71819	19403.8875
1718.96139	19364.5875
1722.20246	19281.3875
1725.44139	19173.7875
1728.67818	19057.8875
1731.91284	18973.9875
1735.14537	18836.6875
1738.37576	18765.8875
1741.60403	18704.2875
1744.83017	18599.8875
1748.05418	18525.6875
1751.27607	18407.1875
1754.49584	18315.4875
1757.71349	18240.9875
1760.92903	18212.0875
1764.14244	18190.5875
1767.35375	18178.2875
1770.56294	18178.1875
1773.77002	18116.8875
1776.97499	18172.7875
1780.17785	18159.9875
1783.37861	18148.4875
1786.57727	18120.9875
1789.77382	18111.0875
1792.96828	18095.2875
1796.16064	18071.1875
1799.3509	18030.0875
1802.53907	17967.3875
1805.72514	17912.8875
1808.90913	17859.7875
1812.09102	17836.9875
1815.27083	17794.5875
1818.44856	17824.6875
1821.6242	17804.6875
1824.79776	17735.4875
1827.96924	17729.3875
1831.13864	17710.1875
1834.30597	17730.8875
1837.47122	17732.1875
1840.6344	17710.7875
1843.7955	17685.6875
1846.95454	17664.7875
1850.11151	17682.6875
1853.26642	17698.8875
1856.41926	17688.2875
1859.57004	17672.8875
1862.71876	17665.2875
1865.86542	17642.0875
1869.01003	17643.1875
1872.15258	17612.6875
1875.29308	17592.3875
1878.43152	17601.6875
1881.56792	17576.8875
1884.70227	17571.6875
1887.83457	17539.2875
1890.96482	17543.2875
1894.09304	17482.0875
1897.21921	17464.6875
1900.34335	17493.1875
1903.46544	17435.8875
1906.58551	17401.5875
1909.70353	17399.0875
1912.81953	17364.9875
1915.93349	17342.1875
1919.04543	17308.1875
1922.15534	17302.5875
1925.26322	17233.3875
1928.36908	17191.3875
1931.47292	17117.8875
1934.57473	17091.0875
1937.67453	17023.8875
1940.77232	17005.9875
1943.86808	16945.4875
1946.96184	16888.7875
1950.05358	16854.9875
1953.14331	16775.0875
1956.23103	16733.8875
1959.31675	16676.1875
1962.40046	16654.4875
1965.48217	16567.4875
1968.56188	16556.8875
1971.63959	16510.8875
1974.7153	16458.7875
1977.78901	16403.0875
1980.86073	16395.9875
1983.93046	16358.3875
1986.99819	16271.3875
1990.06394	16214.2875
1993.1277	16192.0875
1996.18947	16119.5875
1999.24925	16049.9875
2002.30706	15996.9875
2005.36288	15956.7875
2008.41672	15904.3875
2011.46859	15889.0875
2014.51848	15849.3875
2017.56639	15787.6875
2020.61233	15747.3875
2023.6563	15698.2875
2026.6983	15682.7875
2029.73833	15683.4875
2032.7764	15630.7875
2035.8125	15584.2875
2038.84664	15546.7875
2041.87881	15568.0875
2044.90903	15487.7875
2047.93729	15485.8875
2050.96359	15437.4875
2053.98794	15451.1875
2057.01034	15437.1875
2060.03078	15410.2875
2063.04927	15390.2875
2066.06582	15381.4875
2069.08042	15381.5875
2072.09307	15390.2875
2075.10378	15344.2875
2078.11255	15332.2875
2081.11938	15368.9875
2084.12426	15365.0875
2087.12722	15333.0875
2090.12824	15326.9875
2093.12732	15332.4875
2096.12447	15329.3875
2099.11969	15337.9875
2102.11299	15313.9875
2105.10435	15357.8875
2108.09379	15345.2875
2111.08131	15374.3875
2114.0669	15403.8875
2117.05057	15410.1875
2120.03233	15380.8875
2123.01216	15421.2875
2125.99008	15405.0875
2128.96609	15438.6875
2131.94018	15432.0875
2134.91236	15429.1875
2137.88263	15430.2875
2140.851	15482.7875
2143.81746	15454.1875
2146.78201	15481.4875
2149.74466	15481.4875
2152.7054	15461.1875
2155.66425	15498.9875
2158.6212	15466.2875
2161.57625	15442.3875
2164.52941	15464.3875
2167.48067	15467.3875
2170.43004	15407.6875
2173.37752	15414.9875
2176.32311	15386.2875
2179.26681	15399.9875
2182.20863	15444.4875
2185.14856	15442.7875
2188.08661	15451.0875
2191.02278	15435.5875
2193.95707	15432.5875
2196.88948	15410.7875
2199.82001	15364.5875
2202.74867	15372.2875
2205.67545	15375.4875
2208.60037	15335.0875
2211.52341	15282.7875
2214.44458	15319.2875
2217.36388	15288.9875
2220.28132	15256.7875
2223.1969	15264.0875
2226.11061	15219.2875
2229.02246	15201.0875
2231.93245	15156.6875
2234.84058	15135.0875
2237.74686	15103.1875
2240.65128	15070.9875
2243.55385	15046.6875
2246.45456	15055.9875
2249.35343	15031.5875
2252.25044	14986.6875
2255.14561	14991.2875
2258.03893	14983.3875
2260.93041	14953.8875
2263.82004	14915.9875
2266.70783	14909.2875
2269.59378	14867.2875
2272.4779	14852.0875
2275.36017	14811.8875
2278.24061	14791.9875
2281.11922	14723.2875
2283.996	14747.8875
2286.87094	14703.9875
2289.74405	14677.3875
2292.61534	14667.8875
2295.4848	14629.2875
2298.35243	14615.5875
2301.21824	14630.6875
2304.08223	14636.4875
2306.94439	14616.7875
2309.80474	14606.4875
2312.66327	14657.4875
2315.51999	14621.3875
2318.37489	14629.9875
2321.22797	14600.4875
2324.07925	14614.3875
2326.92871	14564.9875
2329.77637	14589.8875
2332.62222	14551.8875
2335.46626	14547.0875
2338.3085	14510.2875
2341.14893	14523.8875
2343.98756	14550.8875
2346.8244	14566.4875
2349.65943	14580.5875
2352.49267	14543.2875
2355.32411	14563.5875
2358.15376	14533.1875
2360.98161	14553.3875
2363.80768	14523.2875
2366.63195	14518.3875
2369.45444	14507.5875
2372.27514	14461.7875
2375.09405	14455.4875
2377.91118	14434.5875
2380.72652	14395.5875
2383.54009	14370.8875
2386.35187	14334.1875
2389.16188	14288.4875
2391.97011	14250.0875
2394.77657	14262.7875
2397.58125	14223.6875
2400.38416	14249.4875
2403.18529	14180.7875
2405.98466	14152.7875
2408.78226	14128.9875
2411.57809	14105.2875
2414.37216	14124.7875
2417.16446	14098.9875
2419.955	14063.1875
2422.74378	14066.5875
2425.5308	14037.1875
2428.31606	14056.8875
2431.09956	14068.7875
2433.88131	14041.2875
2436.6613	14069.3875
2439.43954	14058.5875
2442.21603	14028.7875
2444.99077	14028.9875
2447.76377	14057.1875
2450.53501	14060.3875
2453.30451	14060.9875
2456.07226	14047.9875
2458.83827	14038.2875
2461.60254	14048.0875
2464.36507	13996.1875
2467.12586	13994.3875
2469.88492	14001.0875
2472.64224	14002.1875
2475.39782	13983.4875
2478.15167	14014.8875
2480.90379	14051.3875
2483.65417	14086.4875
2486.40283	14067.5875
2489.14976	14054.4875
2491.89497	14085.9875
2494.63845	14076.6875
2497.3802	14057.8875
2500.12024	14095.8875
2502.85855	14048.7875
2505.59514	14038.8875
2508.33002	13989.9875
2511.06318	14002.6875
2513.79462	14008.2875
2516.52435	13965.6875
2519.25237	13916.5875
2521.97867	13914.1875
2524.70327	13925.9875
2527.42616	13916.5875
2530.14734	13897.6875
2532.86681	13876.3875
2535.58458	13895.0875
2538.30065	13882.7875
2541.01501	13900.0875
2543.72768	13865.9875
2546.43864	13839.2875
2549.14791	13858.1875
2551.85548	13853.5875
2554.56136	13834.9875
2557.26554	13810.0875
2559.96803	13800.6875
2562.66883	13802.4875
2565.36794	13752.8875
2568.06536	13723.2875
2570.7611	13751.5875
2573.45514	13742.3875
2576.14751	13722.8875
2578.83819	13696.3875
2581.52719	13714.1875
2584.21451	13687.3875
2586.90015	13714.7875
2589.58411	13632.9875
2592.2664	13645.9875
2594.94701	13636.5875
2597.62594	13647.3875
2600.30321	13640.4875
2602.9788	13636.3875
2605.65273	13604.7875
2608.32498	13633.7875
2610.99557	13626.8875
2613.66449	13613.6875
2616.33175	13589.1875
2618.99734	13602.5875
2621.66128	13616.6875
2624.32355	13607.8875
2626.98416	13596.1875
2629.64311	13585.3875
2632.30041	13609.3875
2634.95605	13575.9875
2637.61004	13550.8875
2640.26238	13530.3875
2642.91306	13534.2875
2645.56209	13530.1875
2648.20948	13499.5875
2650.85521	13481.7875
2653.4993	13514.5875
2656.14175	13513.6875
2658.78255	13561.9875
2661.42171	13569.9875
2664.05923	13553.1875
2666.6951	13587.9875
2669.32934	13580.7875
2671.96194	13572.2875
2674.59291	13572.6875
2677.22224	13568.7875
2679.84993	13592.8875
2682.476	13564.1875
2685.10043	13573.9875
2687.72324	13568.2875
2690.34441	13550.9875
2692.96396	13561.8875
2695.58188	13520.4875
2698.19818	13515.3875
2700.81285	13508.4875
2703.4259	13452.3875
2706.03733	13389.4875
2708.64714	13442.2875
2711.25533	13526.3875
2713.86191	13534.3875
2716.46687	13561.5875
2719.07021	13581.0875
2721.67194	13599.1875
2724.27206	13604.6875
2726.87057	13627.6875
2729.46747	13609.7875
2732.06276	13624.8875
2734.65644	13634.6875
2737.24852	13644.1875
2739.83899	13587.4875
2742.42786	13609.4875
2745.01513	13586.0875
2747.60079	13587.5875
2750.18486	13561.5875
2752.76733	13554.9875
2755.3482	13563.9875
2757.92747	13563.8875
2760.50515	13534.3875
2763.08123	13509.4875
2765.65573	13487.7875
2768.22863	13517.5875
2770.79994	13519.8875
2773.36967	13513.7875
2775.9378	13484.8875
2778.50435	13497.2875
2781.06932	13466.7875
2783.6327	13464.4875
2786.1945	13469.5875
2788.75471	13478.0875
2791.31335	13410.1875
2793.87041	13427.8875
2796.42589	13406.6875
2798.97979	13365.8875
2801.53212	13355.9875
2804.08288	13348.1875
2806.63206	13322.5875
2809.17967	13302.5875
2811.72571	13226.8875
2814.27018	13234.0875
2816.81308	13236.0875
2819.35442	13224.7875
2821.89419	13230.6875
2824.43239	13198.5875
2826.96904	13185.0875
2829.50412	13176.0875
2832.03763	13143.0875
2834.56959	13150.8875
2837.1	13122.0875
2839.62884	13099.8875
2842.15613	13054.6875
2844.68186	13086.9875
2847.20604	13058.1875
2849.72867	13076.7875
2852.24974	13072.5875
2854.76927	13028.8875
2857.28724	13019.4875
2859.80367	13024.2875
2862.31855	13014.2875
2864.83189	13023.4875
2867.34368	12998.3875
2869.85393	13018.5875
2872.36264	13050.7875
2874.8698	13044.6875
2877.37543	13050.9875
2879.87952	13057.5875
2882.38207	13036.8875
2884.88308	13030.0875
2887.38256	13018.8875
2889.88051	13033.5875
2892.37692	13041.8875
2894.8718	13006.8875
2897.36515	13039.3875
2899.85698	13064.9875
2902.34727	13076.3875
2904.83604	13069.0875
2907.32328	13103.3875
2909.809	13116.5875
2912.29319	13122.1875
2914.77587	13127.6875
2917.25702	13124.4875
2919.73665	13111.0875
2922.21476	13102.6875
2924.69136	13087.3875
2927.16644	13102.9875
2929.64	13057.1875
2932.11205	13013.5875
2934.58258	12986.1875
2937.05161	12966.0875
2939.51912	12969.3875
2941.98513	12971.2875
2944.44962	12953.9875
2946.91261	12912.3875
2949.37409	12955.0875
2951.83407	12915.5875
2954.29254	12927.2875
2956.74951	12917.0875
2959.20498	12897.5875
2961.65895	12878.9875
2964.11142	12875.9875
2966.56239	12863.3875
2969.01186	12837.5875
2971.45984	12834.4875
2973.90632	12821.0875
2976.35131	12777.4875
2978.7948	12751.6875
2981.23681	12741.9875
2983.67732	12722.2875
2986.11635	12678.8875
2988.55388	12651.5875
2990.98993	12649.7875
2993.4245	12630.5875
2995.85758	12583.7875
2998.28917	12535.9875
3000.71928	12529.7875
3003.14791	12509.0875
3005.57506	12461.6875
3008.00073	12452.3875
3010.42493	12431.5875
3012.84764	12412.4875
3015.26888	12408.8875
3017.68865	12409.5875
3020.10694	12375.1875
3022.52376	12326.7875
3024.9391	12306.9875
3027.35298	12314.6875
3029.76539	12281.4875
3032.17632	12305.1875
3034.5858	12250.3875
3036.9938	12294.6875
3039.40034	12271.3875
3041.80542	12241.6875
3044.20903	12223.9875
3046.61118	12213.2875
3049.01187	12179.7875
3051.4111	12168.6875
3053.80888	12132.0875
3056.20519	12123.2875
3058.60005	12102.8875
3060.99345	12056.7875
3063.3854	12047.5875
3065.7759	12015.2875
3068.16494	12001.0875
3070.55254	11935.6875
3072.93868	11918.3875
3075.32338	11867.1875
3077.70662	11870.3875
3080.08842	11846.7875
3082.46878	11842.7875
3084.84769	11808.7875
3087.22515	11814.3875
3089.60118	11760.3875
3091.97576	11767.8875
3094.3489	11758.0875
3096.72061	11769.1875
3099.09087	11797.0875
3101.4597	11727.0875
3103.82709	11726.1875
3106.19305	11722.8875
3108.55757	11715.6875
3110.92066	11660.2875
3113.28232	11675.5875
3115.64255	11630.2875
3118.00134	11620.9875
3120.35871	11558.0875
3122.71466	11555.8875
3125.06917	11542.1875
3127.42226	11522.7875
3129.77393	11505.3875
3132.12417	11473.4875
3134.47299	11474.6875
3136.82039	11449.8875
3139.16636	11434.2875
3141.51092	11440.6875
3143.85406	11448.1875
3146.19579	11432.0875
3148.53609	11456.5875
3150.87499	11452.1875
3153.21246	11409.9875
3155.54853	11448.5875
3157.88318	11418.5875
3160.21642	11469.0875
3162.54826	11464.7875
3164.87868	11483.4875
3167.2077	11455.2875
3169.5353	11489.1875
3171.86151	11465.3875
3174.18631	11449.0875
3176.5097	11430.1875
3178.83169	11402.1875
3181.15228	11397.9875
3183.47147	11376.8875
3185.78926	11374.4875
3188.10565	11344.1875
3190.42065	11366.8875
3192.73424	11360.6875
3195.04645	11340.7875
3197.35725	11353.6875
3199.66667	11346.5875
3201.97469	11336.0875
3204.28132	11300.9875
3206.58656	11336.4875
3208.8904	11342.6875
3211.19287	11337.6875
3213.49394	11322.9875
3215.79363	11332.2875
3218.09193	11369.2875
3220.38884	11352.4875
3222.68438	11307.0875
3224.97853	11338.9875
3227.2713	11371.7875
3229.56269	11369.6875
3231.8527	11349.7875
3234.14133	11291.4875
3236.42858	11279.4875
3238.71446	11276.0875
3240.99896	11256.1875
3243.28209	11225.5875
3245.56384	11220.9875
3247.84423	11201.8875
3250.12324	11182.9875
3252.40088	11190.0875
3254.67715	11164.6875
3256.95205	11158.8875
3259.22558	11173.9875
3261.49775	11157.4875
3263.76855	11175.1875
3266.03799	11132.0875
3268.30606	11130.9875
3270.57277	11099.7875
3272.83812	11080.0875
3275.10211	11066.3875
3277.36474	11060.3875
3279.62601	11028.8875
3281.88593	10996.3875
3284.14448	11011.1875
3286.40168	11029.0875
3288.65753	11041.4875
3290.91202	11025.7875
3293.16516	11002.4875
3295.41695	10969.2875
3297.66738	10907.8875
3299.91647	10856.6875
3302.16421	10814.3875
3304.4106	10763.9875
3306.65564	10715.8875
3308.89933	10640.6875
3311.14169	10548.1875
3313.38269	10447.8875
3315.62236	10371.2875
3317.86068	10321.9875
3320.09766	10222.0875
3322.3333	10144.4875
3324.5676	10121.8875
3326.80056	9937.2875
3329.03219	9894.3875
3331.26248	2.8875
3333.49143	-1.0125
3335.71905	0.6875
