Data from AgNPs_FTO_APTES_UA_50uM_CRN_0uM_R6G_10uM_NaF_0.1M_Addition_RamanShift__34__10-49-54-667.txt Node

Date: Mon Feb 21 10:49:54 GMT 2022
User: TCL
Spectrometer: QEP01345
Trigger mode: 4
Integration Time (sec): 7.000000E0
Scans to average: 10
Electric dark correction enabled: true
Nonlinearity correction enabled: false
Boxcar width: 0
XAxis mode: Raman Shifts
Number of Pixels in Spectrum: 1044
>>>>>Begin Spectral Data<<<<<
46.04893	1.4375
50.45542	-1.3625
54.85868	-0.8625
59.25871	-0.8625
63.6555	44.1375
68.04907	48.8375
72.43941	51.4375
76.82654	54.5375
81.21044	54.8375
85.59113	57.5375
89.96862	59.6375
94.34289	63.0375
98.71396	60.4375
103.08183	67.8375
107.4465	68.1375
111.80798	67.2375
116.16626	66.6375
120.52136	69.0375
124.87327	77.9375
129.222	71.2375
133.56755	77.6375
137.90993	86.3375
142.24913	91.2375
146.58517	102.5375
150.91804	115.9375
155.24774	137.4375
159.57429	167.2375
163.89768	216.0375
168.21792	281.3375
172.53501	382.3375
176.84895	538.4375
181.15975	746.1375
185.46741	1046.0375
189.77193	1437.1375
194.07331	1937.9375
198.37157	2499.7375
202.6667	3093.5375
206.9587	3687.7375
211.24758	4254.0375
215.53334	4840.0375
219.81599	5426.7375
224.09553	6125.3375
228.37195	6847.9375
232.64527	7687.7375
236.91549	8539.7375
241.18261	9395.7375
245.44663	10229.6375
249.70755	10921.7375
253.96539	11566.0375
258.22014	12097.2375
262.4718	12492.2375
266.72039	12724.9375
270.96589	12862.5375
275.20832	12847.1375
279.44768	12723.5375
283.68397	12555.9375
287.91719	12425.3375
292.14735	12328.7375
296.37445	12272.4375
300.59849	12298.5375
304.81948	12340.4375
309.03742	12372.1375
313.25231	12313.1375
317.46415	12111.8375
321.67296	11832.8375
325.87872	11571.9375
330.08145	11412.5375
334.28114	11375.9375
338.47781	11433.7375
342.67145	11557.3375
346.86207	11701.9375
351.04966	11956.1375
355.23424	12214.6375
359.4158	12444.4375
363.59435	12590.0375
367.76989	12709.0375
371.94243	12718.0375
376.11196	12745.8375
380.27849	12746.2375
384.44203	12792.1375
388.60257	12836.5375
392.76012	12948.0375
396.91468	13099.5375
401.06626	13298.6375
405.21485	13474.6375
409.36047	13393.4375
413.50311	13210.8375
417.64277	13070.6375
421.77947	13053.6375
425.9132	13073.1375
430.04396	13131.8375
434.17176	13123.5375
438.2966	13199.3375
442.41849	13383.1375
446.53742	13630.4375
450.6534	13889.1375
454.76644	14138.2375
458.87653	14228.9375
462.98368	14246.8375
467.08789	14165.3375
471.18916	14059.2375
475.2875	13931.0375
479.38291	13812.6375
483.4754	13788.8375
487.56496	13724.7375
491.6516	13571.5375
495.73531	13441.5375
499.81612	13322.3375
503.89401	13385.9375
507.96899	13424.1375
512.04106	13445.0375
516.11023	13341.3375
520.1765	13287.9375
524.23987	13168.0375
528.30034	13075.9375
532.35792	12916.5375
536.41261	12819.5375
540.46441	12704.6375
544.51333	12635.7375
548.55936	12762.2375
552.60252	13001.3375
556.64279	13264.6375
560.6802	13500.2375
564.71473	13672.0375
568.7464	13924.4375
572.7752	14412.3375
576.80114	14813.6375
580.82422	15199.2375
584.84444	15540.3375
588.86181	15934.8375
592.87633	16270.6375
596.888	16132.0375
600.89682	15637.9375
604.9028	15577.3375
608.90594	16529.7375
612.90624	17728.1375
616.90371	16885.4375
620.89834	14454.0375
624.89015	13323.2375
628.87913	13153.7375
632.86528	13261.2375
636.84862	13328.2375
640.82913	13153.6375
644.80683	12848.7375
648.78172	12656.8375
652.75379	12619.7375
656.72306	12756.8375
660.68952	12943.4375
664.65319	12916.5375
668.61405	12734.5375
672.57211	12686.2375
676.52738	12762.4375
680.47986	12755.9375
684.42955	12677.3375
688.37646	12643.6375
692.32058	12682.8375
696.26192	12786.7375
700.20048	12918.5375
704.13626	12986.2375
708.06928	13066.2375
711.99952	13049.1375
715.927	13029.8375
719.85171	13040.0375
723.77365	12985.5375
727.69284	12781.5375
731.60928	12606.4375
735.52295	12527.5375
739.43388	12543.5375
743.34206	12556.9375
747.24749	12622.4375
751.15017	12702.5375
755.05012	12911.9375
758.94733	13244.9375
762.8418	13876.1375
766.73354	14789.7375
770.62254	15693.3375
774.50882	15872.3375
778.39237	15292.8375
782.27321	14405.2375
786.15132	13627.6375
790.02671	13074.6375
793.89938	12780.4375
797.76935	12644.6375
801.6366	12567.3375
805.50115	12543.4375
809.36299	12513.7375
813.22213	12419.9375
817.07857	12386.3375
820.93231	12374.7375
824.78336	12343.2375
828.63172	12280.8375
832.47738	12242.6375
836.32036	12226.2375
840.16066	12187.8375
843.99827	12189.9375
847.8332	12204.4375
851.66546	12222.3375
855.49504	12232.7375
859.32195	12255.4375
863.1462	12253.6375
866.96777	12211.7375
870.78668	12191.8375
874.60293	12235.8375
878.41652	12235.8375
882.22745	12311.4375
886.03573	12327.4375
889.84136	12354.4375
893.64433	12329.1375
897.44466	12347.9375
901.24235	12309.2375
905.0374	12286.6375
908.8298	12213.0375
912.61957	12215.9375
916.40671	12287.0375
920.19121	12422.6375
923.97308	12524.7375
927.75233	12556.7375
931.52895	12469.7375
935.30295	12318.5375
939.07433	12077.5375
942.84309	11899.8375
946.60924	11811.4375
950.37278	11751.6375
954.13371	11749.5375
957.89203	11693.4375
961.64774	11695.3375
965.40086	11702.0375
969.15137	11696.7375
972.89929	11631.9375
976.64461	11603.4375
980.38733	11582.5375
984.12747	11595.8375
987.86502	11622.2375
991.59999	11668.7375
995.33237	11721.0375
999.06217	11870.6375
1002.78939	12035.1375
1006.51404	12220.7375
1010.23611	12406.8375
1013.95561	12555.6375
1017.67255	12598.7375
1021.38692	12489.3375
1025.09872	12323.6375
1028.80796	12156.6375
1032.51465	12088.3375
1036.21877	12088.9375
1039.92035	12131.0375
1043.61937	12181.4375
1047.31584	12258.8375
1051.00976	12263.7375
1054.70114	12290.3375
1058.38998	12377.6375
1062.07627	12460.4375
1065.76003	12592.1375
1069.44126	12745.5375
1073.11995	12960.1375
1076.79611	13211.2375
1080.46974	13277.7375
1084.14085	13385.8375
1087.80943	13497.8375
1091.47549	13612.8375
1095.13903	13683.1375
1098.80005	13520.2375
1102.45857	13220.4375
1106.11456	12971.6375
1109.76805	12780.8375
1113.41903	12754.6375
1117.06751	12772.7375
1120.71348	12922.2375
1124.35696	13062.8375
1127.99793	13225.6375
1131.63641	13308.4375
1135.2724	13277.5375
1138.90589	13199.9375
1142.5369	13171.6375
1146.16542	13218.4375
1149.79145	13294.7375
1153.415	13384.9375
1157.03607	13525.6375
1160.65467	13797.5375
1164.27079	14240.4375
1167.88443	14838.3375
1171.49561	15522.2375
1175.10432	16487.5375
1178.71056	17637.5375
1182.31434	18712.0375
1185.91565	19259.1375
1189.51451	19303.3375
1193.11091	19049.6375
1196.70485	18407.0375
1200.29634	17786.0375
1203.88538	17209.9375
1207.47197	16825.6375
1211.05612	16548.6375
1214.63782	16285.8375
1218.21708	15932.7375
1221.79391	15559.1375
1225.36829	15324.4375
1228.94024	15153.2375
1232.50976	15038.5375
1236.07685	14896.1375
1239.6415	14742.2375
1243.20374	14702.3375
1246.76355	14699.9375
1250.32093	14847.3375
1253.8759	15050.1375
1257.42845	15439.1375
1260.97859	15885.4375
1264.52631	16354.4375
1268.07163	16806.9375
1271.61453	17227.6375
1275.15503	17648.4375
1278.69312	18066.3375
1282.22882	18565.2375
1285.76211	19152.1375
1289.29301	19780.5375
1292.82151	20537.7375
1296.34761	21424.2375
1299.87133	22413.6375
1303.39266	23395.1375
1306.9116	24398.0375
1310.42815	25202.2375
1313.94233	25642.1375
1317.45412	25534.3375
1320.96354	25155.0375
1324.47058	24832.5375
1327.97525	24523.2375
1331.47754	24398.6375
1334.97747	24181.8375
1338.47502	23977.9375
1341.97022	23822.1375
1345.46305	23608.7375
1348.95352	23511.1375
1352.44163	23503.9375
1355.92738	23794.9375
1359.41078	24501.7375
1362.89183	25420.3375
1366.37053	25314.3375
1369.84688	23674.6375
1373.32088	21412.8375
1376.79254	19739.6375
1380.26186	18992.0375
1383.72883	18743.5375
1387.19347	18581.2375
1390.65578	18345.2375
1394.11575	18230.1375
1397.57339	18258.7375
1401.0287	18440.6375
1404.48168	18556.2375
1407.93234	18493.8375
1411.38068	18136.8375
1414.82669	17648.2375
1418.27039	17050.1375
1421.71177	16501.1375
1425.15083	16058.0375
1428.58758	15843.5375
1432.02203	15945.6375
1435.45416	16291.2375
1438.88399	16634.5375
1442.31151	16913.4375
1445.73673	17091.2375
1449.15965	17210.9375
1452.58027	17327.1375
1455.9986	17388.9375
1459.41463	17510.0375
1462.82837	17684.7375
1466.23982	17899.1375
1469.64898	18105.0375
1473.05586	18210.2375
1476.46045	18218.5375
1479.86276	18140.7375
1483.26279	18138.9375
1486.66054	18245.3375
1490.05602	18440.7375
1493.44922	18808.4375
1496.84016	19262.5375
1500.22882	19956.2375
1503.61521	20745.0375
1506.99934	21573.1375
1510.38121	22219.5375
1513.76081	22330.0375
1517.13816	21902.1375
1520.51324	21071.2375
1523.88607	20313.5375
1527.25665	19846.0375
1530.62498	19582.3375
1533.99105	19345.4375
1537.35488	18984.0375
1540.71647	18555.3375
1544.07581	17975.1375
1547.4329	17521.2375
1550.78776	17129.6375
1554.14038	16907.8375
1557.49077	16818.7375
1560.83892	16875.3375
1564.18484	16926.1375
1567.52853	17097.6375
1570.86999	17319.6375
1574.20922	17600.8375
1577.54624	17805.2375
1580.88103	17862.3375
1584.2136	17816.6375
1587.54395	18113.4375
1590.87208	18724.6375
1594.19801	19539.1375
1597.52172	20285.8375
1600.84321	20314.9375
1604.16251	19462.2375
1607.47959	18156.7375
1610.79447	16842.0375
1614.10715	15627.6375
1617.41763	14638.0375
1620.7259	13942.1375
1624.03199	13576.7375
1627.33587	13599.6375
1630.63757	13891.1375
1633.93707	14640.0375
1637.23439	15877.8375
1640.52951	17776.7375
1643.82246	20076.9375
1647.11321	21906.2375
1650.40179	22503.0375
1653.68819	21238.5375
1656.97241	18670.0375
1660.25446	16042.3375
1663.53433	14081.5375
1666.81203	12814.3375
1670.08756	12093.0375
1673.36092	11636.8375
1676.63211	11370.7375
1679.90115	11129.9375
1683.16801	11000.0375
1686.43272	10870.1375
1689.69527	10749.2375
1692.95567	10610.7375
1696.2139	10451.5375
1699.46999	10360.0375
1702.72392	10296.4375
1705.97571	10352.0375
1709.22535	10409.3375
1712.47284	10468.1375
1715.71819	10475.5375
1718.96139	10470.1375
1722.20246	10449.0375
1725.44139	10401.7375
1728.67818	10360.4375
1731.91284	10291.6375
1735.14537	10246.0375
1738.37576	10208.6375
1741.60403	10169.7375
1744.83017	10112.9375
1748.05418	10080.7375
1751.27607	9990.9375
1754.49584	9954.4375
1757.71349	9876.3375
1760.92903	9865.7375
1764.14244	9825.1375
1767.35375	9827.1375
1770.56294	9812.8375
1773.77002	9799.9375
1776.97499	9858.5375
1780.17785	9874.5375
1783.37861	9900.7375
1786.57727	9911.5375
1789.77382	9886.8375
1792.96828	9919.8375
1796.16064	9895.8375
1799.3509	9854.6375
1802.53907	9807.3375
1805.72514	9815.5375
1808.90913	9778.2375
1812.09102	9769.3375
1815.27083	9748.1375
1818.44856	9758.7375
1821.6242	9729.8375
1824.79776	9718.4375
1827.96924	9713.7375
1831.13864	9689.6375
1834.30597	9697.4375
1837.47122	9683.2375
1840.6344	9676.1375
1843.7955	9672.8375
1846.95454	9672.9375
1850.11151	9662.6375
1853.26642	9627.9375
1856.41926	9654.2375
1859.57004	9632.5375
1862.71876	9619.9375
1865.86542	9594.0375
1869.01003	9605.5375
1872.15258	9589.0375
1875.29308	9569.8375
1878.43152	9561.7375
1881.56792	9533.0375
1884.70227	9530.5375
1887.83457	9512.4375
1890.96482	9480.4375
1894.09304	9461.7375
1897.21921	9452.4375
1900.34335	9430.2375
1903.46544	9416.2375
1906.58551	9404.7375
1909.70353	9400.1375
1912.81953	9383.3375
1915.93349	9371.0375
1919.04543	9322.4375
1922.15534	9331.4375
1925.26322	9305.2375
1928.36908	9280.5375
1931.47292	9244.4375
1934.57473	9238.8375
1937.67453	9205.3375
1940.77232	9184.0375
1943.86808	9203.5375
1946.96184	9174.3375
1950.05358	9129.0375
1953.14331	9091.2375
1956.23103	9057.0375
1959.31675	9026.8375
1962.40046	9017.0375
1965.48217	8981.6375
1968.56188	8962.1375
1971.63959	8924.8375
1974.7153	8904.9375
1977.78901	8870.2375
1980.86073	8853.4375
1983.93046	8810.8375
1986.99819	8769.9375
1990.06394	8747.1375
1993.1277	8731.5375
1996.18947	8701.4375
1999.24925	8669.7375
2002.30706	8643.4375
2005.36288	8627.7375
2008.41672	8601.4375
2011.46859	8575.4375
2014.51848	8566.3375
2017.56639	8517.0375
2020.61233	8527.5375
2023.6563	8489.9375
2026.6983	8439.0375
2029.73833	8449.7375
2032.7764	8439.5375
2035.8125	8400.3375
2038.84664	8371.6375
2041.87881	8363.8375
2044.90903	8335.6375
2047.93729	8329.0375
2050.96359	8308.9375
2053.98794	8311.3375
2057.01034	8307.1375
2060.03078	8295.1375
2063.04927	8280.7375
2066.06582	8284.7375
2069.08042	8281.9375
2072.09307	8285.4375
2075.10378	8252.8375
2078.11255	8269.5375
2081.11938	8275.5375
2084.12426	8280.9375
2087.12722	8266.6375
2090.12824	8239.3375
2093.12732	8248.6375
2096.12447	8256.5375
2099.11969	8252.4375
2102.11299	8262.8375
2105.10435	8256.1375
2108.09379	8262.5375
2111.08131	8261.9375
2114.0669	8283.3375
2117.05057	8279.3375
2120.03233	8271.9375
2123.01216	8291.2375
2125.99008	8300.3375
2128.96609	8297.9375
2131.94018	8318.3375
2134.91236	8309.7375
2137.88263	8311.3375
2140.851	8299.8375
2143.81746	8304.5375
2146.78201	8301.3375
2149.74466	8280.9375
2152.7054	8299.0375
2155.66425	8278.3375
2158.6212	8292.6375
2161.57625	8286.8375
2164.52941	8284.4375
2167.48067	8270.9375
2170.43004	8251.5375
2173.37752	8247.8375
2176.32311	8236.5375
2179.26681	8268.4375
2182.20863	8246.8375
2185.14856	8255.0375
2188.08661	8246.8375
2191.02278	8253.3375
2193.95707	8238.5375
2196.88948	8235.7375
2199.82001	8222.7375
2202.74867	8202.7375
2205.67545	8200.8375
2208.60037	8179.3375
2211.52341	8159.7375
2214.44458	8156.9375
2217.36388	8144.0375
2220.28132	8152.5375
2223.1969	8112.9375
2226.11061	8080.7375
2229.02246	8095.5375
2231.93245	8074.1375
2234.84058	8052.8375
2237.74686	8026.3375
2240.65128	8042.0375
2243.55385	8024.9375
2246.45456	8005.7375
2249.35343	7990.6375
2252.25044	7975.8375
2255.14561	7973.4375
2258.03893	7949.8375
2260.93041	7901.2375
2263.82004	7907.7375
2266.70783	7900.7375
2269.59378	7875.3375
2272.4779	7889.4375
2275.36017	7850.3375
2278.24061	7844.5375
2281.11922	7829.7375
2283.996	7824.1375
2286.87094	7780.9375
2289.74405	7766.0375
2292.61534	7772.9375
2295.4848	7777.5375
2298.35243	7763.6375
2301.21824	7725.9375
2304.08223	7749.2375
2306.94439	7731.8375
2309.80474	7719.0375
2312.66327	7717.3375
2315.51999	7734.2375
2318.37489	7710.0375
2321.22797	7694.6375
2324.07925	7688.6375
2326.92871	7665.4375
2329.77637	7652.5375
2332.62222	7646.3375
2335.46626	7633.1375
2338.3085	7625.1375
2341.14893	7608.3375
2343.98756	7617.1375
2346.8244	7617.7375
2349.65943	7615.6375
2352.49267	7579.5375
2355.32411	7600.6375
2358.15376	7607.7375
2360.98161	7601.8375
2363.80768	7588.5375
2366.63195	7591.7375
2369.45444	7579.2375
2372.27514	7554.5375
2375.09405	7544.4375
2377.91118	7533.9375
2380.72652	7539.9375
2383.54009	7500.3375
2386.35187	7501.9375
2389.16188	7475.8375
2391.97011	7469.9375
2394.77657	7465.0375
2397.58125	7444.6375
2400.38416	7430.9375
2403.18529	7413.4375
2405.98466	7422.6375
2408.78226	7401.2375
2411.57809	7389.7375
2414.37216	7363.0375
2417.16446	7372.5375
2419.955	7365.9375
2422.74378	7373.2375
2425.5308	7357.7375
2428.31606	7363.0375
2431.09956	7351.1375
2433.88131	7344.2375
2436.6613	7363.4375
2439.43954	7328.5375
2442.21603	7331.9375
2444.99077	7317.3375
2447.76377	7326.9375
2450.53501	7318.6375
2453.30451	7312.3375
2456.07226	7310.0375
2458.83827	7294.9375
2461.60254	7282.8375
2464.36507	7264.3375
2467.12586	7259.7375
2469.88492	7251.5375
2472.64224	7254.3375
2475.39782	7240.7375
2478.15167	7254.9375
2480.90379	7270.1375
2483.65417	7248.2375
2486.40283	7240.4375
2489.14976	7263.8375
2491.89497	7255.8375
2494.63845	7228.9375
2497.3802	7221.3375
2500.12024	7229.9375
2502.85855	7231.6375
2505.59514	7216.2375
2508.33002	7218.5375
2511.06318	7212.3375
2513.79462	7186.3375
2516.52435	7194.1375
2519.25237	7162.7375
2521.97867	7151.9375
2524.70327	7135.9375
2527.42616	7155.7375
2530.14734	7149.5375
2532.86681	7141.2375
2535.58458	7139.2375
2538.30065	7135.5375
2541.01501	7128.6375
2543.72768	7109.5375
2546.43864	7104.0375
2549.14791	7106.6375
2551.85548	7095.4375
2554.56136	7083.5375
2557.26554	7066.9375
2559.96803	7043.9375
2562.66883	7039.4375
2565.36794	7033.3375
2568.06536	7037.3375
2570.7611	7016.5375
2573.45514	6997.8375
2576.14751	7007.6375
2578.83819	6990.4375
2581.52719	6985.3375
2584.21451	6967.2375
2586.90015	6942.6375
2589.58411	6936.4375
2592.2664	6932.0375
2594.94701	6944.4375
2597.62594	6914.2375
2600.30321	6933.0375
2602.9788	6905.9375
2605.65273	6891.4375
2608.32498	6912.8375
2610.99557	6914.2375
2613.66449	6894.1375
2616.33175	6884.8375
2618.99734	6883.0375
2621.66128	6849.1375
2624.32355	6840.6375
2626.98416	6846.0375
2629.64311	6845.7375
2632.30041	6835.9375
2634.95605	6816.6375
2637.61004	6808.7375
2640.26238	6806.9375
2642.91306	6819.8375
2645.56209	6806.5375
2648.20948	6773.2375
2650.85521	6760.3375
2653.4993	6783.7375
2656.14175	6784.7375
2658.78255	6805.4375
2661.42171	6796.5375
2664.05923	6809.2375
2666.6951	6816.6375
2669.32934	6814.3375
2671.96194	6808.2375
2674.59291	6830.8375
2677.22224	6810.0375
2679.84993	6816.3375
2682.476	6798.1375
2685.10043	6808.8375
2687.72324	6809.0375
2690.34441	6816.2375
2692.96396	6795.3375
2695.58188	6812.4375
2698.19818	6799.3375
2700.81285	6801.7375
2703.4259	6743.8375
2706.03733	6661.2375
2708.64714	6696.0375
2711.25533	6763.4375
2713.86191	6793.3375
2716.46687	6809.1375
2719.07021	6805.7375
2721.67194	6817.4375
2724.27206	6829.0375
2726.87057	6817.5375
2729.46747	6810.7375
2732.06276	6820.9375
2734.65644	6794.0375
2737.24852	6815.4375
2739.83899	6801.9375
2742.42786	6811.1375
2745.01513	6777.6375
2747.60079	6811.6375
2750.18486	6777.4375
2752.76733	6783.1375
2755.3482	6740.9375
2757.92747	6747.0375
2760.50515	6732.4375
2763.08123	6731.2375
2765.65573	6729.0375
2768.22863	6725.1375
2770.79994	6702.2375
2773.36967	6725.9375
2775.9378	6714.5375
2778.50435	6701.8375
2781.06932	6721.2375
2783.6327	6689.8375
2786.1945	6693.8375
2788.75471	6682.6375
2791.31335	6662.2375
2793.87041	6630.0375
2796.42589	6660.5375
2798.97979	6637.3375
2801.53212	6608.7375
2804.08288	6599.9375
2806.63206	6594.2375
2809.17967	6570.0375
2811.72571	6564.2375
2814.27018	6553.9375
2816.81308	6549.6375
2819.35442	6529.9375
2821.89419	6519.5375
2824.43239	6512.8375
2826.96904	6504.9375
2829.50412	6486.5375
2832.03763	6477.9375
2834.56959	6502.2375
2837.1	6473.0375
2839.62884	6477.3375
2842.15613	6470.6375
2844.68186	6474.5375
2847.20604	6486.3375
2849.72867	6465.6375
2852.24974	6479.4375
2854.76927	6465.3375
2857.28724	6426.3375
2859.80367	6445.4375
2862.31855	6436.0375
2864.83189	6439.3375
2867.34368	6424.4375
2869.85393	6439.2375
2872.36264	6439.2375
2874.8698	6420.9375
2877.37543	6443.9375
2879.87952	6425.5375
2882.38207	6427.6375
2884.88308	6448.9375
2887.38256	6424.6375
2889.88051	6421.2375
2892.37692	6432.8375
2894.8718	6431.2375
2897.36515	6428.4375
2899.85698	6442.1375
2902.34727	6434.2375
2904.83604	6437.1375
2907.32328	6432.7375
2909.809	6427.6375
2912.29319	6473.7375
2914.77587	6456.7375
2917.25702	6465.1375
2919.73665	6447.0375
2922.21476	6455.8375
2924.69136	6448.5375
2927.16644	6465.1375
2929.64	6426.3375
2932.11205	6425.4375
2934.58258	6393.1375
2937.05161	6398.0375
2939.51912	6408.0375
2941.98513	6385.2375
2944.44962	6364.8375
2946.91261	6357.9375
2949.37409	6361.0375
2951.83407	6369.1375
2954.29254	6358.7375
2956.74951	6350.6375
2959.20498	6323.7375
2961.65895	6334.7375
2964.11142	6324.3375
2966.56239	6312.3375
2969.01186	6313.1375
2971.45984	6297.5375
2973.90632	6286.5375
2976.35131	6279.3375
2978.7948	6273.9375
2981.23681	6252.8375
2983.67732	6249.6375
2986.11635	6234.4375
2988.55388	6208.3375
2990.98993	6202.0375
2993.4245	6200.9375
2995.85758	6185.8375
2998.28917	6152.0375
3000.71928	6165.7375
3003.14791	6106.0375
3005.57506	6112.7375
3008.00073	6111.1375
3010.42493	6100.1375
3012.84764	6089.1375
3015.26888	6081.9375
3017.68865	6066.5375
3020.10694	6067.3375
3022.52376	6060.5375
3024.9391	6042.6375
3027.35298	6016.5375
3029.76539	6015.5375
3032.17632	6043.5375
3034.5858	6025.0375
3036.9938	6016.1375
3039.40034	6010.2375
3041.80542	5986.1375
3044.20903	5973.0375
3046.61118	5987.4375
3049.01187	5984.2375
3051.4111	5972.4375
3053.80888	5942.1375
3056.20519	5950.8375
3058.60005	5931.6375
3060.99345	5928.8375
3063.3854	5920.1375
3065.7759	5903.8375
3068.16494	5885.2375
3070.55254	5884.1375
3072.93868	5848.5375
3075.32338	5843.9375
3077.70662	5821.7375
3080.08842	5815.1375
3082.46878	5827.4375
3084.84769	5806.5375
3087.22515	5819.6375
3089.60118	5807.8375
3091.97576	5804.5375
3094.3489	5790.8375
3096.72061	5815.9375
3099.09087	5822.4375
3101.4597	5806.4375
3103.82709	5796.2375
3106.19305	5787.3375
3108.55757	5777.7375
3110.92066	5790.0375
3113.28232	5785.9375
3115.64255	5764.9375
3118.00134	5765.3375
3120.35871	5726.1375
3122.71466	5719.6375
3125.06917	5728.0375
3127.42226	5707.1375
3129.77393	5698.1375
3132.12417	5695.1375
3134.47299	5691.8375
3136.82039	5689.9375
3139.16636	5709.8375
3141.51092	5701.0375
3143.85406	5708.7375
3146.19579	5720.4375
3148.53609	5723.2375
3150.87499	5693.6375
3153.21246	5718.9375
3155.54853	5716.2375
3157.88318	5696.6375
3160.21642	5717.2375
3162.54826	5732.3375
3164.87868	5715.8375
3167.2077	5737.6375
3169.5353	5718.8375
3171.86151	5711.6375
3174.18631	5703.4375
3176.5097	5705.0375
3178.83169	5679.4375
3181.15228	5697.5375
3183.47147	5691.0375
3185.78926	5685.9375
3188.10565	5680.1375
3190.42065	5676.5375
3192.73424	5689.5375
3195.04645	5670.8375
3197.35725	5672.8375
3199.66667	5665.6375
3201.97469	5685.0375
3204.28132	5677.8375
3206.58656	5678.4375
3208.8904	5682.3375
3211.19287	5689.7375
3213.49394	5699.2375
3215.79363	5697.4375
3218.09193	5682.3375
3220.38884	5662.1375
3222.68438	5660.0375
3224.97853	5647.9375
3227.2713	5690.2375
3229.56269	5698.3375
3231.8527	5679.9375
3234.14133	5672.4375
3236.42858	5650.8375
3238.71446	5632.9375
3240.99896	5639.9375
3243.28209	5618.7375
3245.56384	5617.3375
3247.84423	5627.0375
3250.12324	5595.7375
3252.40088	5602.7375
3254.67715	5589.9375
3256.95205	5594.5375
3259.22558	5584.8375
3261.49775	5576.1375
3263.76855	5589.8375
3266.03799	5554.6375
3268.30606	5557.9375
3270.57277	5551.8375
3272.83812	5538.6375
3275.10211	5520.4375
3277.36474	5509.3375
3279.62601	5529.6375
3281.88593	5530.1375
3284.14448	5527.7375
3286.40168	5518.4375
3288.65753	5488.3375
3290.91202	5495.6375
3293.16516	5487.5375
3295.41695	5469.8375
3297.66738	5434.0375
3299.91647	5424.7375
3302.16421	5384.4375
3304.4106	5362.6375
3306.65564	5318.6375
3308.89933	5269.0375
3311.14169	5247.9375
3313.38269	5187.2375
3315.62236	5156.8375
3317.86068	5133.8375
3320.09766	5080.1375
3322.3333	5049.4375
3324.5676	5029.0375
3326.80056	4911.2375
3329.03219	4888.7375
3331.26248	1.9375
3333.49143	-1.0625
3335.71905	-0.0625
