Data from AgNPs_FTO_APTES_UA_50uM_CRN_2uM_R6G_10uM_NaF_0.1M_Addition_RamanShift__11__12-06-54-771.txt Node

Date: Mon Feb 21 12:06:54 GMT 2022
User: TCL
Spectrometer: QEP01345
Trigger mode: 4
Integration Time (sec): 7.000000E0
Scans to average: 10
Electric dark correction enabled: true
Nonlinearity correction enabled: false
Boxcar width: 0
XAxis mode: Raman Shifts
Number of Pixels in Spectrum: 1044
>>>>>Begin Spectral Data<<<<<
46.04893	0.1375
50.45542	-0.8625
54.85868	-0.5625
59.25871	-1.2625
63.6555	68.3375
68.04907	74.9375
72.43941	78.5375
76.82654	80.9375
81.21044	84.8375
85.59113	89.5375
89.96862	90.4375
94.34289	96.7375
98.71396	97.2375
103.08183	101.8375
107.4465	102.8375
111.80798	103.5375
116.16626	103.5375
120.52136	105.1375
124.87327	115.8375
129.222	117.2375
133.56755	120.9375
137.90993	133.1375
142.24913	139.6375
146.58517	156.9375
150.91804	179.5375
155.24774	220.1375
159.57429	270.5375
163.89768	341.4375
168.21792	456.1375
172.53501	613.9375
176.84895	853.8375
181.15975	1203.0375
185.46741	1696.4375
189.77193	2346.3375
194.07331	3136.8375
198.37157	4038.7375
202.6667	5014.3375
206.9587	5971.7375
211.24758	6879.2375
215.53334	7816.5375
219.81599	8763.7375
224.09553	9843.1375
228.37195	11022.1375
232.64527	12339.2375
236.91549	13689.6375
241.18261	15099.4375
245.44663	16469.7375
249.70755	17683.3375
253.96539	18766.3375
258.22014	19649.4375
262.4718	20335.8375
266.72039	20785.6375
270.96589	20990.8375
275.20832	21009.0375
279.44768	20838.0375
283.68397	20663.4375
287.91719	20448.0375
292.14735	20322.5375
296.37445	20197.3375
300.59849	20174.5375
304.81948	20234.5375
309.03742	20254.0375
313.25231	20145.1375
317.46415	19932.7375
321.67296	19588.2375
325.87872	19332.3375
330.08145	19179.7375
334.28114	19181.2375
338.47781	19349.7375
342.67145	19514.1375
346.86207	19763.3375
351.04966	20100.7375
355.23424	20437.8375
359.4158	20784.4375
363.59435	21028.1375
367.76989	21164.6375
371.94243	21305.6375
376.11196	21377.1375
380.27849	21390.6375
384.44203	21497.0375
388.60257	21592.1375
392.76012	21809.8375
396.91468	22138.6375
401.06626	22517.2375
405.21485	22760.5375
409.36047	22721.6375
413.50311	22505.2375
417.64277	22290.5375
421.77947	22307.0375
425.9132	22371.0375
430.04396	22518.5375
434.17176	22611.5375
438.2966	22780.4375
442.41849	22981.3375
446.53742	23403.1375
450.6534	23854.4375
454.76644	24170.9375
458.87653	24319.5375
462.98368	24326.6375
467.08789	24298.7375
471.18916	24125.2375
475.2875	23877.4375
479.38291	23755.2375
483.4754	23637.4375
487.56496	23550.9375
491.6516	23332.7375
495.73531	23110.8375
499.81612	22957.1375
503.89401	23036.8375
507.96899	23108.5375
512.04106	23154.0375
516.11023	23108.9375
520.1765	22948.5375
524.23987	22867.2375
528.30034	22677.3375
532.35792	22548.6375
536.41261	22360.0375
540.46441	22208.4375
544.51333	22233.8375
548.55936	22390.6375
552.60252	22700.0375
556.64279	23082.0375
560.6802	23381.4375
564.71473	23610.4375
568.7464	23980.6375
572.7752	24575.8375
576.80114	25289.4375
580.82422	25999.2375
584.84444	26605.3375
588.86181	27298.6375
592.87633	28007.9375
596.888	28038.4375
600.89682	27300.6375
604.9028	27063.4375
608.90594	28121.4375
612.90624	29380.4375
616.90371	27910.1375
620.89834	24748.1375
624.89015	23410.6375
628.87913	23302.7375
632.86528	23506.0375
636.84862	23587.9375
640.82913	23291.5375
644.80683	22880.8375
648.78172	22530.1375
652.75379	22473.8375
656.72306	22645.9375
660.68952	22941.2375
664.65319	22960.5375
668.61405	22756.8375
672.57211	22702.7375
676.52738	22759.5375
680.47986	22809.2375
684.42955	22650.6375
688.37646	22617.2375
692.32058	22733.1375
696.26192	22961.7375
700.20048	23150.2375
704.13626	23284.2375
708.06928	23364.1375
711.99952	23371.1375
715.927	23259.5375
719.85171	23245.2375
723.77365	23143.8375
727.69284	22863.0375
731.60928	22655.6375
735.52295	22502.4375
739.43388	22480.0375
743.34206	22559.9375
747.24749	22670.5375
751.15017	22831.2375
755.05012	23183.7375
758.94733	23621.2375
762.8418	24487.0375
766.73354	25742.7375
770.62254	26920.7375
774.50882	27095.2375
778.39237	26235.7375
782.27321	24990.7375
786.15132	23936.5375
790.02671	23251.3375
793.89938	22862.3375
797.76935	22626.7375
801.6366	22554.0375
805.50115	22437.5375
809.36299	22384.2375
813.22213	22334.7375
817.07857	22309.3375
820.93231	22257.5375
824.78336	22170.3375
828.63172	22153.0375
832.47738	22125.9375
836.32036	22080.9375
840.16066	22100.3375
843.99827	22101.5375
847.8332	22091.0375
851.66546	22144.7375
855.49504	22116.4375
859.32195	22232.2375
863.1462	22208.8375
866.96777	22180.1375
870.78668	22135.6375
874.60293	22147.4375
878.41652	22218.8375
882.22745	22281.4375
886.03573	22342.7375
889.84136	22326.0375
893.64433	22295.4375
897.44466	22246.0375
901.24235	22196.1375
905.0374	22152.9375
908.8298	22145.3375
912.61957	22138.2375
916.40671	22258.3375
920.19121	22509.6375
923.97308	22714.7375
927.75233	22740.2375
931.52895	22542.2375
935.30295	22252.6375
939.07433	21935.1375
942.84309	21724.6375
946.60924	21583.2375
950.37278	21557.3375
954.13371	21556.1375
957.89203	21583.6375
961.64774	21513.6375
965.40086	21524.9375
969.15137	21521.0375
972.89929	21400.2375
976.64461	21398.9375
980.38733	21350.3375
984.12747	21366.6375
987.86502	21437.6375
991.59999	21520.1375
995.33237	21671.8375
999.06217	21930.7375
1002.78939	22211.5375
1006.51404	22561.9375
1010.23611	22893.1375
1013.95561	23113.2375
1017.67255	23185.5375
1021.38692	22980.5375
1025.09872	22725.4375
1028.80796	22525.1375
1032.51465	22393.7375
1036.21877	22459.1375
1039.92035	22475.9375
1043.61937	22553.0375
1047.31584	22635.0375
1051.00976	22680.1375
1054.70114	22729.0375
1058.38998	22862.9375
1062.07627	23048.7375
1065.76003	23304.7375
1069.44126	23584.8375
1073.11995	24006.8375
1076.79611	24312.9375
1080.46974	24468.5375
1084.14085	24574.5375
1087.80943	24792.3375
1091.47549	24947.5375
1095.13903	25031.6375
1098.80005	24840.2375
1102.45857	24374.2375
1106.11456	23952.5375
1109.76805	23708.5375
1113.41903	23572.1375
1117.06751	23661.0375
1120.71348	23808.4375
1124.35696	23971.4375
1127.99793	24188.6375
1131.63641	24365.0375
1135.2724	24312.3375
1138.90589	24248.5375
1142.5369	24314.2375
1146.16542	24396.6375
1149.79145	24574.5375
1153.415	24751.9375
1157.03607	24903.1375
1160.65467	25302.3375
1164.27079	26001.1375
1167.88443	26859.1375
1171.49561	27848.6375
1175.10432	29105.5375
1178.71056	30713.2375
1182.31434	32180.6375
1185.91565	33032.5375
1189.51451	33231.2375
1193.11091	33017.5375
1196.70485	32230.7375
1200.29634	31417.7375
1203.88538	30662.2375
1207.47197	30154.8375
1211.05612	29808.8375
1214.63782	29463.7375
1218.21708	28846.2375
1221.79391	28234.3375
1225.36829	27737.3375
1228.94024	27466.7375
1232.50976	27338.1375
1236.07685	27158.3375
1239.6415	26999.9375
1243.20374	27001.2375
1246.76355	27158.4375
1250.32093	27406.0375
1253.8759	27753.8375
1257.42845	28327.1375
1260.97859	28987.2375
1264.52631	29732.3375
1268.07163	30412.3375
1271.61453	31051.5375
1275.15503	31664.1375
1278.69312	32330.2375
1282.22882	33128.7375
1285.76211	33936.3375
1289.29301	34884.5375
1292.82151	35890.0375
1296.34761	37128.9375
1299.87133	38482.7375
1303.39266	39859.6375
1306.9116	41125.0375
1310.42815	42143.3375
1313.94233	42565.8375
1317.45412	42391.9375
1320.96354	41940.3375
1324.47058	41578.7375
1327.97525	41393.9375
1331.47754	41293.0375
1334.97747	41293.9375
1338.47502	41321.8375
1341.97022	41351.2375
1345.46305	41360.2375
1348.95352	41309.2375
1352.44163	41179.8375
1355.92738	41387.9375
1359.41078	42022.4375
1362.89183	42750.0375
1366.37053	42347.7375
1369.84688	40051.9375
1373.32088	36920.7375
1376.79254	34536.4375
1380.26186	33525.3375
1383.72883	33193.5375
1387.19347	33024.4375
1390.65578	32669.4375
1394.11575	32363.0375
1397.57339	32368.5375
1401.0287	32550.0375
1404.48168	32670.1375
1407.93234	32586.0375
1411.38068	32225.7375
1414.82669	31520.0375
1418.27039	30668.0375
1421.71177	29838.5375
1425.15083	29239.5375
1428.58758	28952.0375
1432.02203	29110.1375
1435.45416	29521.9375
1438.88399	30055.0375
1442.31151	30451.8375
1445.73673	30707.7375
1449.15965	30938.3375
1452.58027	31122.8375
1455.9986	31308.5375
1459.41463	31504.2375
1462.82837	31949.5375
1466.23982	32447.3375
1469.64898	32876.7375
1473.05586	33171.9375
1476.46045	33222.2375
1479.86276	33242.1375
1483.26279	33200.7375
1486.66054	33269.0375
1490.05602	33462.0375
1493.44922	33951.2375
1496.84016	34624.1375
1500.22882	35404.9375
1503.61521	36380.6375
1506.99934	37272.5375
1510.38121	37906.4375
1513.76081	37902.1375
1517.13816	37234.4375
1520.51324	36394.1375
1523.88607	35709.8375
1527.25665	35388.8375
1530.62498	35131.6375
1533.99105	34792.8375
1537.35488	34230.6375
1540.71647	33541.0375
1544.07581	32782.9375
1547.4329	32104.1375
1550.78776	31459.8375
1554.14038	31117.2375
1557.49077	30953.8375
1560.83892	30877.3375
1564.18484	30978.9375
1567.52853	31008.5375
1570.86999	31238.3375
1574.20922	31647.5375
1577.54624	31954.4375
1580.88103	31988.0375
1584.2136	32011.8375
1587.54395	32525.1375
1590.87208	33496.0375
1594.19801	34812.8375
1597.52172	36046.9375
1600.84321	36173.0375
1604.16251	35030.1375
1607.47959	33242.3375
1610.79447	31202.8375
1614.10715	29326.5375
1617.41763	27669.8375
1620.7259	26537.8375
1624.03199	25881.4375
1627.33587	25795.9375
1630.63757	26225.6375
1633.93707	27405.0375
1637.23439	29427.5375
1640.52951	32379.8375
1643.82246	35900.3375
1647.11321	38743.6375
1650.40179	39440.4375
1653.68819	37428.1375
1656.97241	33595.5375
1660.25446	29540.5375
1663.53433	26548.4375
1666.81203	24607.3375
1670.08756	23391.3375
1673.36092	22591.1375
1676.63211	22101.2375
1679.90115	21778.9375
1683.16801	21515.0375
1686.43272	21298.3375
1689.69527	21122.0375
1692.95567	20921.9375
1696.2139	20765.1375
1699.46999	20599.2375
1702.72392	20533.1375
1705.97571	20586.6375
1709.22535	20666.8375
1712.47284	20683.1375
1715.71819	20717.3375
1718.96139	20666.9375
1722.20246	20585.4375
1725.44139	20514.9375
1728.67818	20431.6375
1731.91284	20349.3375
1735.14537	20268.1375
1738.37576	20155.7375
1741.60403	20111.4375
1744.83017	20027.6375
1748.05418	19974.1375
1751.27607	19872.1375
1754.49584	19814.5375
1757.71349	19786.0375
1760.92903	19707.2375
1764.14244	19675.2375
1767.35375	19699.4375
1770.56294	19662.7375
1773.77002	19656.6375
1776.97499	19684.4375
1780.17785	19714.9375
1783.37861	19720.7375
1786.57727	19693.5375
1789.77382	19672.1375
1792.96828	19674.1375
1796.16064	19669.8375
1799.3509	19588.1375
1802.53907	19574.6375
1805.72514	19508.0375
1808.90913	19460.9375
1812.09102	19416.1375
1815.27083	19425.3375
1818.44856	19408.6375
1821.6242	19379.4375
1824.79776	19365.3375
1827.96924	19311.8375
1831.13864	19324.8375
1834.30597	19358.5375
1837.47122	19330.5375
1840.6344	19317.6375
1843.7955	19299.6375
1846.95454	19288.0375
1850.11151	19283.0375
1853.26642	19272.3375
1856.41926	19289.6375
1859.57004	19265.2375
1862.71876	19247.9375
1865.86542	19206.9375
1869.01003	19156.1375
1872.15258	19180.7375
1875.29308	19134.4375
1878.43152	19124.4375
1881.56792	19099.1375
1884.70227	19099.1375
1887.83457	19090.9375
1890.96482	19028.1375
1894.09304	18982.5375
1897.21921	18977.0375
1900.34335	18971.3375
1903.46544	18892.6375
1906.58551	18895.7375
1909.70353	18863.2375
1912.81953	18863.4375
1915.93349	18855.3375
1919.04543	18801.9375
1922.15534	18745.5375
1925.26322	18735.3375
1928.36908	18712.2375
1931.47292	18668.3375
1934.57473	18593.3375
1937.67453	18584.7375
1940.77232	18547.1375
1943.86808	18482.2375
1946.96184	18441.5375
1950.05358	18376.8375
1953.14331	18361.6375
1956.23103	18295.3375
1959.31675	18243.1375
1962.40046	18141.3375
1965.48217	18112.1375
1968.56188	18088.0375
1971.63959	18033.2375
1974.7153	18016.0375
1977.78901	17962.5375
1980.86073	17882.8375
1983.93046	17847.4375
1986.99819	17776.8375
1990.06394	17715.9375
1993.1277	17692.5375
1996.18947	17654.8375
1999.24925	17571.8375
2002.30706	17517.0375
2005.36288	17507.0375
2008.41672	17414.7375
2011.46859	17387.2375
2014.51848	17318.3375
2017.56639	17272.6375
2020.61233	17241.4375
2023.6563	17199.7375
2026.6983	17182.5375
2029.73833	17098.1375
2032.7764	17086.9375
2035.8125	17017.5375
2038.84664	17035.9375
2041.87881	17002.5375
2044.90903	16948.6375
2047.93729	16932.3375
2050.96359	16896.4375
2053.98794	16848.6375
2057.01034	16879.7375
2060.03078	16866.7375
2063.04927	16846.6375
2066.06582	16837.1375
2069.08042	16823.9375
2072.09307	16833.2375
2075.10378	16818.6375
2078.11255	16831.6375
2081.11938	16857.2375
2084.12426	16781.6375
2087.12722	16806.8375
2090.12824	16764.9375
2093.12732	16804.6375
2096.12447	16803.2375
2099.11969	16798.2375
2102.11299	16773.0375
2105.10435	16790.4375
2108.09379	16771.0375
2111.08131	16806.4375
2114.0669	16803.9375
2117.05057	16839.7375
2120.03233	16830.5375
2123.01216	16844.3375
2125.99008	16899.8375
2128.96609	16920.9375
2131.94018	16904.8375
2134.91236	16889.9375
2137.88263	16903.4375
2140.851	16957.1375
2143.81746	16963.6375
2146.78201	16985.9375
2149.74466	16951.9375
2152.7054	16927.4375
2155.66425	16910.3375
2158.6212	16913.5375
2161.57625	16917.5375
2164.52941	16946.4375
2167.48067	16944.5375
2170.43004	16914.6375
2173.37752	16913.2375
2176.32311	16911.0375
2179.26681	16878.5375
2182.20863	16892.9375
2185.14856	16916.8375
2188.08661	16883.8375
2191.02278	16888.6375
2193.95707	16850.6375
2196.88948	16875.1375
2199.82001	16828.8375
2202.74867	16833.2375
2205.67545	16815.8375
2208.60037	16800.0375
2211.52341	16732.1375
2214.44458	16736.0375
2217.36388	16697.9375
2220.28132	16683.6375
2223.1969	16641.0375
2226.11061	16592.4375
2229.02246	16560.1375
2231.93245	16571.3375
2234.84058	16575.7375
2237.74686	16521.0375
2240.65128	16521.4375
2243.55385	16506.9375
2246.45456	16482.4375
2249.35343	16458.7375
2252.25044	16436.8375
2255.14561	16388.1375
2258.03893	16352.7375
2260.93041	16319.3375
2263.82004	16292.1375
2266.70783	16286.5375
2269.59378	16232.1375
2272.4779	16213.6375
2275.36017	16165.8375
2278.24061	16142.4375
2281.11922	16124.4375
2283.996	16115.4375
2286.87094	16072.7375
2289.74405	16053.8375
2292.61534	16031.2375
2295.4848	16008.2375
2298.35243	16025.8375
2301.21824	15969.3375
2304.08223	15989.4375
2306.94439	15955.0375
2309.80474	15907.8375
2312.66327	15933.5375
2315.51999	15910.2375
2318.37489	15919.6375
2321.22797	15891.5375
2324.07925	15860.6375
2326.92871	15826.6375
2329.77637	15802.0375
2332.62222	15795.8375
2335.46626	15779.4375
2338.3085	15776.4375
2341.14893	15760.2375
2343.98756	15740.8375
2346.8244	15747.3375
2349.65943	15768.7375
2352.49267	15711.0375
2355.32411	15719.0375
2358.15376	15708.8375
2360.98161	15702.9375
2363.80768	15688.9375
2366.63195	15687.5375
2369.45444	15663.8375
2372.27514	15649.4375
2375.09405	15632.3375
2377.91118	15620.1375
2380.72652	15568.1375
2383.54009	15559.1375
2386.35187	15552.4375
2389.16188	15504.0375
2391.97011	15511.7375
2394.77657	15466.9375
2397.58125	15440.4375
2400.38416	15431.9375
2403.18529	15404.7375
2405.98466	15387.9375
2408.78226	15400.3375
2411.57809	15325.7375
2414.37216	15328.7375
2417.16446	15308.1375
2419.955	15317.4375
2422.74378	15301.9375
2425.5308	15245.9375
2428.31606	15280.8375
2431.09956	15258.7375
2433.88131	15231.2375
2436.6613	15261.5375
2439.43954	15262.4375
2442.21603	15256.7375
2444.99077	15236.1375
2447.76377	15219.9375
2450.53501	15182.7375
2453.30451	15190.9375
2456.07226	15169.5375
2458.83827	15144.2375
2461.60254	15150.7375
2464.36507	15081.0375
2467.12586	15082.1375
2469.88492	15099.3375
2472.64224	15103.5375
2475.39782	15052.1375
2478.15167	15068.9375
2480.90379	15114.2375
2483.65417	15061.4375
2486.40283	15084.2375
2489.14976	15095.8375
2491.89497	15084.8375
2494.63845	15045.4375
2497.3802	15058.2375
2500.12024	15046.9375
2502.85855	15073.9375
2505.59514	15057.4375
2508.33002	15024.1375
2511.06318	15030.2375
2513.79462	15038.9375
2516.52435	14983.8375
2519.25237	14970.3375
2521.97867	14928.2375
2524.70327	14946.6375
2527.42616	14955.9375
2530.14734	14926.9375
2532.86681	14902.7375
2535.58458	14901.7375
2538.30065	14892.6375
2541.01501	14874.6375
2543.72768	14853.9375
2546.43864	14840.1375
2549.14791	14852.1375
2551.85548	14826.6375
2554.56136	14794.0375
2557.26554	14752.0375
2559.96803	14739.5375
2562.66883	14680.0375
2565.36794	14672.1375
2568.06536	14672.1375
2570.7611	14690.4375
2573.45514	14631.3375
2576.14751	14625.7375
2578.83819	14568.2375
2581.52719	14612.0375
2584.21451	14586.7375
2586.90015	14561.6375
2589.58411	14525.5375
2592.2664	14518.5375
2594.94701	14490.3375
2597.62594	14502.1375
2600.30321	14470.9375
2602.9788	14463.8375
2605.65273	14384.2375
2608.32498	14431.9375
2610.99557	14411.0375
2613.66449	14409.6375
2616.33175	14367.3375
2618.99734	14379.3375
2621.66128	14325.7375
2624.32355	14312.5375
2626.98416	14326.3375
2629.64311	14312.8375
2632.30041	14312.1375
2634.95605	14271.3375
2637.61004	14257.3375
2640.26238	14245.2375
2642.91306	14230.9375
2645.56209	14252.7375
2648.20948	14228.4375
2650.85521	14238.2375
2653.4993	14229.0375
2656.14175	14251.5375
2658.78255	14288.3375
2661.42171	14245.6375
2664.05923	14257.1375
2666.6951	14264.4375
2669.32934	14274.2375
2671.96194	14274.6375
2674.59291	14301.0375
2677.22224	14261.5375
2679.84993	14304.4375
2682.476	14284.7375
2685.10043	14291.7375
2687.72324	14280.9375
2690.34441	14259.6375
2692.96396	14265.9375
2695.58188	14295.0375
2698.19818	14248.0375
2700.81285	14254.8375
2703.4259	14233.2375
2706.03733	14146.6375
2708.64714	14199.9375
2711.25533	14251.6375
2713.86191	14272.7375
2716.46687	14299.7375
2719.07021	14328.0375
2721.67194	14311.3375
2724.27206	14299.3375
2726.87057	14306.9375
2729.46747	14291.2375
2732.06276	14330.9375
2734.65644	14340.4375
2737.24852	14307.1375
2739.83899	14295.8375
2742.42786	14295.2375
2745.01513	14280.0375
2747.60079	14241.9375
2750.18486	14249.9375
2752.76733	14226.9375
2755.3482	14208.0375
2757.92747	14192.0375
2760.50515	14184.0375
2763.08123	14185.8375
2765.65573	14174.0375
2768.22863	14139.5375
2770.79994	14153.1375
2773.36967	14137.7375
2775.9378	14133.1375
2778.50435	14078.5375
2781.06932	14088.3375
2783.6327	14100.9375
2786.1945	14101.3375
2788.75471	14070.7375
2791.31335	14030.1375
2793.87041	13993.6375
2796.42589	13947.1375
2798.97979	13970.0375
2801.53212	13942.3375
2804.08288	13957.1375
2806.63206	13905.2375
2809.17967	13878.5375
2811.72571	13846.7375
2814.27018	13816.0375
2816.81308	13765.9375
2819.35442	13755.4375
2821.89419	13733.7375
2824.43239	13712.2375
2826.96904	13695.2375
2829.50412	13668.9375
2832.03763	13688.0375
2834.56959	13669.4375
2837.1	13647.0375
2839.62884	13657.1375
2842.15613	13579.6375
2844.68186	13580.5375
2847.20604	13579.3375
2849.72867	13579.9375
2852.24974	13573.5375
2854.76927	13567.6375
2857.28724	13476.6375
2859.80367	13477.9375
2862.31855	13489.9375
2864.83189	13456.2375
2867.34368	13449.8375
2869.85393	13465.5375
2872.36264	13431.5375
2874.8698	13450.0375
2877.37543	13458.2375
2879.87952	13423.0375
2882.38207	13423.7375
2884.88308	13397.1375
2887.38256	13405.6375
2889.88051	13398.3375
2892.37692	13429.5375
2894.8718	13395.3375
2897.36515	13421.6375
2899.85698	13375.8375
2902.34727	13429.2375
2904.83604	13406.1375
2907.32328	13420.8375
2909.809	13411.6375
2912.29319	13446.6375
2914.77587	13470.0375
2917.25702	13445.5375
2919.73665	13426.0375
2922.21476	13420.1375
2924.69136	13411.3375
2927.16644	13438.1375
2929.64	13387.2375
2932.11205	13408.9375
2934.58258	13362.0375
2937.05161	13358.8375
2939.51912	13344.7375
2941.98513	13356.9375
2944.44962	13332.1375
2946.91261	13290.3375
2949.37409	13350.7375
2951.83407	13326.5375
2954.29254	13301.3375
2956.74951	13272.1375
2959.20498	13271.1375
2961.65895	13290.2375
2964.11142	13285.9375
2966.56239	13269.3375
2969.01186	13294.6375
2971.45984	13235.9375
2973.90632	13214.9375
2976.35131	13215.5375
2978.7948	13174.9375
2981.23681	13162.7375
2983.67732	13151.5375
2986.11635	13110.9375
2988.55388	13100.3375
2990.98993	13059.2375
2993.4245	13033.0375
2995.85758	13021.4375
2998.28917	12970.4375
3000.71928	12939.5375
3003.14791	12904.5375
3005.57506	12885.9375
3008.00073	12857.8375
3010.42493	12843.4375
3012.84764	12827.0375
3015.26888	12822.0375
3017.68865	12803.7375
3020.10694	12805.3375
3022.52376	12763.9375
3024.9391	12742.1375
3027.35298	12741.1375
3029.76539	12740.8375
3032.17632	12703.0375
3034.5858	12675.3375
3036.9938	12660.5375
3039.40034	12665.2375
3041.80542	12642.2375
3044.20903	12607.3375
3046.61118	12624.5375
3049.01187	12572.4375
3051.4111	12582.8375
3053.80888	12553.7375
3056.20519	12525.0375
3058.60005	12502.6375
3060.99345	12462.4375
3063.3854	12440.0375
3065.7759	12403.5375
3068.16494	12395.0375
3070.55254	12365.7375
3072.93868	12315.8375
3075.32338	12267.8375
3077.70662	12283.1375
3080.08842	12246.7375
3082.46878	12262.9375
3084.84769	12223.9375
3087.22515	12203.8375
3089.60118	12188.3375
3091.97576	12185.8375
3094.3489	12195.7375
3096.72061	12219.7375
3099.09087	12178.0375
3101.4597	12176.1375
3103.82709	12165.6375
3106.19305	12128.7375
3108.55757	12136.7375
3110.92066	12071.6375
3113.28232	12083.9375
3115.64255	12047.1375
3118.00134	12033.1375
3120.35871	12005.0375
3122.71466	11980.5375
3125.06917	11971.2375
3127.42226	11923.7375
3129.77393	11933.7375
3132.12417	11888.1375
3134.47299	11900.3375
3136.82039	11854.5375
3139.16636	11868.7375
3141.51092	11890.0375
3143.85406	11888.5375
3146.19579	11923.6375
3148.53609	11887.5375
3150.87499	11889.1375
3153.21246	11887.8375
3155.54853	11927.0375
3157.88318	11881.0375
3160.21642	11908.8375
3162.54826	11887.2375
3164.87868	11904.3375
3167.2077	11908.3375
3169.5353	11888.8375
3171.86151	11867.9375
3174.18631	11840.2375
3176.5097	11869.7375
3178.83169	11828.0375
3181.15228	11808.6375
3183.47147	11771.2375
3185.78926	11761.0375
3188.10565	11753.3375
3190.42065	11738.7375
3192.73424	11703.7375
3195.04645	11705.2375
3197.35725	11668.2375
3199.66667	11699.0375
3201.97469	11701.9375
3204.28132	11683.3375
3206.58656	11694.3375
3208.8904	11698.2375
3211.19287	11699.8375
3213.49394	11683.0375
3215.79363	11700.8375
3218.09193	11714.5375
3220.38884	11676.8375
3222.68438	11698.7375
3224.97853	11685.4375
3227.2713	11703.0375
3229.56269	11656.8375
3231.8527	11672.7375
3234.14133	11652.9375
3236.42858	11594.1375
3238.71446	11569.9375
3240.99896	11555.7375
3243.28209	11533.5375
3245.56384	11520.9375
3247.84423	11489.4375
3250.12324	11485.6375
3252.40088	11481.0375
3254.67715	11479.7375
3256.95205	11465.9375
3259.22558	11476.0375
3261.49775	11451.6375
3263.76855	11476.1375
3266.03799	11430.1375
3268.30606	11403.0375
3270.57277	11400.8375
3272.83812	11348.0375
3275.10211	11329.1375
3277.36474	11319.6375
3279.62601	11308.6375
3281.88593	11277.3375
3284.14448	11294.3375
3286.40168	11323.4375
3288.65753	11291.6375
3290.91202	11278.2375
3293.16516	11259.2375
3295.41695	11203.7375
3297.66738	11130.8375
3299.91647	11103.9375
3302.16421	11046.0375
3304.4106	11001.0375
3306.65564	10886.4375
3308.89933	10836.6375
3311.14169	10710.4375
3313.38269	10654.3375
3315.62236	10588.8375
3317.86068	10492.1375
3320.09766	10422.6375
3322.3333	10361.8375
3324.5676	10321.8375
3326.80056	10135.3375
3329.03219	10067.2375
3331.26248	3.4375
3333.49143	-1.3625
3335.71905	0.0375
