Data from AgNPs_FTO_APTES_UA_50uM_CRN_2uM_R6G_10uM_NaF_0.1M_Addition_RamanShift__2__11-56-24-757.txt Node

Date: Mon Feb 21 11:56:24 GMT 2022
User: TCL
Spectrometer: QEP01345
Trigger mode: 4
Integration Time (sec): 7.000000E0
Scans to average: 10
Electric dark correction enabled: true
Nonlinearity correction enabled: false
Boxcar width: 0
XAxis mode: Raman Shifts
Number of Pixels in Spectrum: 1044
>>>>>Begin Spectral Data<<<<<
46.04893	-0.7625
50.45542	-2.4625
54.85868	-0.6625
59.25871	-0.8625
63.6555	71.2375
68.04907	81.1375
72.43941	82.3375
76.82654	84.9375
81.21044	89.3375
85.59113	93.0375
89.96862	92.5375
94.34289	98.7375
98.71396	98.4375
103.08183	106.3375
107.4465	104.3375
111.80798	107.1375
116.16626	106.4375
120.52136	110.4375
124.87327	122.5375
129.222	121.4375
133.56755	127.9375
137.90993	138.7375
142.24913	150.9375
146.58517	163.2375
150.91804	190.9375
155.24774	225.7375
159.57429	279.8375
163.89768	360.2375
168.21792	471.6375
172.53501	638.0375
176.84895	899.5375
181.15975	1268.3375
185.46741	1776.9375
189.77193	2459.8375
194.07331	3290.9375
198.37157	4239.8375
202.6667	5232.8375
206.9587	6233.5375
211.24758	7193.1375
215.53334	8180.7375
219.81599	9242.8375
224.09553	10367.0375
228.37195	11666.5375
232.64527	13074.7375
236.91549	14547.1375
241.18261	16000.2375
245.44663	17360.7375
249.70755	18568.2375
253.96539	19658.9375
258.22014	20560.8375
262.4718	21291.7375
266.72039	21815.8375
270.96589	22076.7375
275.20832	22073.5375
279.44768	21862.6375
283.68397	21584.4375
287.91719	21359.1375
292.14735	21160.8375
296.37445	21173.7375
300.59849	21235.5375
304.81948	21347.5375
309.03742	21495.7375
313.25231	21390.4375
317.46415	21164.5375
321.67296	20789.5375
325.87872	20484.2375
330.08145	20353.4375
334.28114	20412.5375
338.47781	20529.3375
342.67145	20781.9375
346.86207	21127.4375
351.04966	21599.2375
355.23424	22086.2375
359.4158	22486.2375
363.59435	22817.6375
367.76989	23041.2375
371.94243	23160.8375
376.11196	23297.2375
380.27849	23385.3375
384.44203	23564.1375
388.60257	23689.4375
392.76012	23871.0375
396.91468	24141.2375
401.06626	24455.9375
405.21485	24718.6375
409.36047	24642.8375
413.50311	24394.7375
417.64277	24166.4375
421.77947	24144.9375
425.9132	24189.0375
430.04396	24275.2375
434.17176	24401.4375
438.2966	24667.0375
442.41849	25184.6375
446.53742	25925.4375
450.6534	26760.9375
454.76644	27300.4375
458.87653	27454.0375
462.98368	27165.4375
467.08789	26750.2375
471.18916	26239.4375
475.2875	25749.6375
479.38291	25392.2375
483.4754	25180.7375
487.56496	24978.6375
491.6516	24781.6375
495.73531	24591.2375
499.81612	24515.9375
503.89401	24617.0375
507.96899	24666.2375
512.04106	24628.5375
516.11023	24505.1375
520.1765	24465.3375
524.23987	24406.2375
528.30034	24351.6375
532.35792	24268.2375
536.41261	24031.9375
540.46441	23751.5375
544.51333	23653.6375
548.55936	23712.3375
552.60252	24090.7375
556.64279	24648.1375
560.6802	25132.6375
564.71473	25350.6375
568.7464	25643.0375
572.7752	26168.1375
576.80114	26562.5375
580.82422	27011.0375
584.84444	27837.4375
588.86181	29079.4375
592.87633	30438.1375
596.888	30785.4375
600.89682	29829.6375
604.9028	29533.7375
608.90594	31445.8375
612.90624	33928.7375
616.90371	32250.3375
620.89834	27598.6375
624.89015	25416.1375
628.87913	25075.3375
632.86528	25113.9375
636.84862	25008.5375
640.82913	24591.9375
644.80683	24075.9375
648.78172	23706.0375
652.75379	23731.8375
656.72306	24090.4375
660.68952	24532.0375
664.65319	24451.0375
668.61405	24032.4375
672.57211	24006.8375
676.52738	24161.5375
680.47986	24144.0375
684.42955	23886.8375
688.37646	23824.2375
692.32058	24000.8375
696.26192	24387.0375
700.20048	24761.3375
704.13626	24934.9375
708.06928	24796.5375
711.99952	24590.9375
715.927	24643.9375
719.85171	24805.0375
723.77365	24789.7375
727.69284	24472.9375
731.60928	24158.3375
735.52295	24088.9375
739.43388	24117.9375
743.34206	24232.2375
747.24749	24321.6375
751.15017	24475.6375
755.05012	24708.9375
758.94733	25302.2375
762.8418	26290.6375
766.73354	27878.3375
770.62254	29477.1375
774.50882	29930.4375
778.39237	29048.3375
782.27321	27415.8375
786.15132	25940.8375
790.02671	24966.0375
793.89938	24523.0375
797.76935	24330.4375
801.6366	24250.1375
805.50115	24241.0375
809.36299	24126.4375
813.22213	24006.4375
817.07857	23900.4375
820.93231	23796.6375
824.78336	23784.4375
828.63172	23722.0375
832.47738	23737.3375
836.32036	23828.9375
840.16066	23904.5375
843.99827	24013.9375
847.8332	23970.3375
851.66546	23901.0375
855.49504	23871.1375
859.32195	23855.7375
863.1462	23782.7375
866.96777	23750.9375
870.78668	23704.7375
874.60293	23790.4375
878.41652	23857.7375
882.22745	23929.9375
886.03573	24035.0375
889.84136	24016.7375
893.64433	23933.4375
897.44466	23834.7375
901.24235	23696.5375
905.0374	23578.6375
908.8298	23596.3375
912.61957	23587.9375
916.40671	23716.7375
920.19121	23943.8375
923.97308	24202.8375
927.75233	24379.2375
931.52895	24341.3375
935.30295	24091.1375
939.07433	23729.9375
942.84309	23461.3375
946.60924	23398.3375
950.37278	23344.0375
954.13371	23382.0375
957.89203	23263.0375
961.64774	23189.3375
965.40086	23165.8375
969.15137	23174.7375
972.89929	23140.2375
976.64461	23179.6375
980.38733	23211.1375
984.12747	23278.3375
987.86502	23516.2375
991.59999	23793.4375
995.33237	24199.7375
999.06217	24752.7375
1002.78939	25433.5375
1006.51404	25960.9375
1010.23611	26302.4375
1013.95561	26486.9375
1017.67255	26468.8375
1021.38692	26259.8375
1025.09872	25970.5375
1028.80796	25931.1375
1032.51465	26382.9375
1036.21877	26875.7375
1039.92035	27104.8375
1043.61937	26912.4375
1047.31584	26468.0375
1051.00976	25884.4375
1054.70114	25481.5375
1058.38998	25398.1375
1062.07627	25418.7375
1065.76003	25525.5375
1069.44126	25740.8375
1073.11995	26089.3375
1076.79611	26473.3375
1080.46974	26742.0375
1084.14085	27021.1375
1087.80943	27268.6375
1091.47549	27410.7375
1095.13903	27387.8375
1098.80005	26992.3375
1102.45857	26531.5375
1106.11456	26234.6375
1109.76805	26119.9375
1113.41903	26190.8375
1117.06751	26336.6375
1120.71348	26567.0375
1124.35696	26774.7375
1127.99793	27051.6375
1131.63641	27183.9375
1135.2724	27066.4375
1138.90589	26879.4375
1142.5369	26811.2375
1146.16542	26874.4375
1149.79145	26979.2375
1153.415	27115.5375
1157.03607	27342.7375
1160.65467	27864.8375
1164.27079	28920.4375
1167.88443	30151.0375
1171.49561	31667.2375
1175.10432	33729.7375
1178.71056	36412.9375
1182.31434	38966.3375
1185.91565	40034.4375
1189.51451	39634.7375
1193.11091	38291.3375
1196.70485	36712.1375
1200.29634	35406.6375
1203.88538	34357.9375
1207.47197	33748.9375
1211.05612	33095.6375
1214.63782	32585.0375
1218.21708	32193.7375
1221.79391	31940.8375
1225.36829	31853.3375
1228.94024	31603.1375
1232.50976	31107.6375
1236.07685	30473.9375
1239.6415	30084.7375
1243.20374	30065.0375
1246.76355	30297.1375
1250.32093	30671.3375
1253.8759	31307.6375
1257.42845	32090.6375
1260.97859	32867.0375
1264.52631	33817.5375
1268.07163	34914.7375
1271.61453	35930.9375
1275.15503	36802.1375
1278.69312	37702.8375
1282.22882	38665.5375
1285.76211	39642.3375
1289.29301	40930.1375
1292.82151	42342.9375
1296.34761	44177.5375
1299.87133	46473.2375
1303.39266	49171.6375
1306.9116	52081.1375
1310.42815	54599.3375
1313.94233	55988.7375
1317.45412	55588.1375
1320.96354	53938.5375
1324.47058	52128.7375
1327.97525	50416.7375
1331.47754	49353.4375
1334.97747	48744.0375
1338.47502	48169.7375
1341.97022	47334.5375
1345.46305	46517.2375
1348.95352	46125.7375
1352.44163	46762.7375
1355.92738	48909.5375
1359.41078	52147.0375
1362.89183	54860.2375
1366.37053	54478.6375
1369.84688	50296.8375
1373.32088	44697.7375
1376.79254	40757.2375
1380.26186	39209.7375
1383.72883	39033.0375
1387.19347	38744.2375
1390.65578	38079.9375
1394.11575	37664.6375
1397.57339	37841.0375
1401.0287	38369.2375
1404.48168	38859.0375
1407.93234	39095.2375
1411.38068	38851.4375
1414.82669	38195.0375
1418.27039	37207.3375
1421.71177	36082.1375
1425.15083	35085.5375
1428.58758	34694.2375
1432.02203	35002.9375
1435.45416	35795.4375
1438.88399	36694.0375
1442.31151	37144.4375
1445.73673	37393.0375
1449.15965	37480.2375
1452.58027	37368.0375
1455.9986	37007.2375
1459.41463	36878.7375
1462.82837	37254.2375
1466.23982	38022.8375
1469.64898	38840.4375
1473.05586	39492.0375
1476.46045	39843.7375
1479.86276	39966.5375
1483.26279	39877.5375
1486.66054	39919.6375
1490.05602	40193.2375
1493.44922	40636.1375
1496.84016	40910.4375
1500.22882	41270.4375
1503.61521	42138.6375
1506.99934	43271.4375
1510.38121	44250.5375
1513.76081	44481.3375
1517.13816	43481.6375
1520.51324	41812.9375
1523.88607	40249.1375
1527.25665	39458.5375
1530.62498	39129.9375
1533.99105	38972.1375
1537.35488	38565.3375
1540.71647	38033.3375
1544.07581	37247.3375
1547.4329	36541.5375
1550.78776	35848.2375
1554.14038	35274.7375
1557.49077	35027.2375
1560.83892	34851.5375
1564.18484	34883.6375
1567.52853	35070.7375
1570.86999	35436.4375
1574.20922	35966.8375
1577.54624	36336.7375
1580.88103	36312.6375
1584.2136	36467.7375
1587.54395	37538.0375
1590.87208	39670.7375
1594.19801	42414.9375
1597.52172	45018.2375
1600.84321	45906.7375
1604.16251	44132.8375
1607.47959	40748.1375
1610.79447	36952.6375
1614.10715	33719.5375
1617.41763	31352.5375
1620.7259	29944.6375
1624.03199	29352.4375
1627.33587	29485.9375
1630.63757	30362.6375
1633.93707	32147.9375
1637.23439	34909.4375
1640.52951	39151.4375
1643.82246	44146.7375
1647.11321	48097.4375
1650.40179	48691.7375
1653.68819	44980.3375
1656.97241	39021.6375
1660.25446	33558.0375
1663.53433	29763.7375
1666.81203	27519.0375
1670.08756	26214.3375
1673.36092	25371.6375
1676.63211	24864.4375
1679.90115	24510.1375
1683.16801	24174.3375
1686.43272	23965.8375
1689.69527	23794.4375
1692.95567	23627.2375
1696.2139	23432.0375
1699.46999	23268.4375
1702.72392	23184.5375
1705.97571	23220.4375
1709.22535	23300.7375
1712.47284	23345.4375
1715.71819	23372.1375
1718.96139	23359.7375
1722.20246	23294.8375
1725.44139	23238.3375
1728.67818	23072.8375
1731.91284	22991.3375
1735.14537	22896.8375
1738.37576	22854.1375
1741.60403	22736.9375
1744.83017	22657.0375
1748.05418	22606.0375
1751.27607	22544.2375
1754.49584	22484.6375
1757.71349	22436.3375
1760.92903	22363.5375
1764.14244	22378.7375
1767.35375	22374.9375
1770.56294	22356.3375
1773.77002	22337.8375
1776.97499	22359.6375
1780.17785	22400.2375
1783.37861	22396.1375
1786.57727	22359.6375
1789.77382	22360.1375
1792.96828	22371.0375
1796.16064	22347.2375
1799.3509	22286.8375
1802.53907	22241.6375
1805.72514	22192.1375
1808.90913	22151.2375
1812.09102	22175.6375
1815.27083	22138.1375
1818.44856	22137.0375
1821.6242	22105.6375
1824.79776	22093.0375
1827.96924	22077.0375
1831.13864	22106.2375
1834.30597	22105.5375
1837.47122	22115.1375
1840.6344	22057.1375
1843.7955	22078.3375
1846.95454	22059.0375
1850.11151	22025.5375
1853.26642	21978.8375
1856.41926	21956.5375
1859.57004	22001.0375
1862.71876	21952.5375
1865.86542	21979.2375
1869.01003	21972.5375
1872.15258	21969.4375
1875.29308	21982.0375
1878.43152	21957.7375
1881.56792	21932.8375
1884.70227	21950.1375
1887.83457	21940.7375
1890.96482	21913.9375
1894.09304	21862.3375
1897.21921	21785.3375
1900.34335	21776.6375
1903.46544	21798.6375
1906.58551	21794.7375
1909.70353	21779.3375
1912.81953	21773.2375
1915.93349	21722.7375
1919.04543	21668.6375
1922.15534	21681.7375
1925.26322	21662.9375
1928.36908	21560.4375
1931.47292	21577.1375
1934.57473	21530.1375
1937.67453	21487.8375
1940.77232	21471.2375
1943.86808	21401.1375
1946.96184	21356.9375
1950.05358	21294.8375
1953.14331	21226.6375
1956.23103	21169.3375
1959.31675	21126.6375
1962.40046	21070.9375
1965.48217	21027.5375
1968.56188	21017.2375
1971.63959	20957.7375
1974.7153	20898.7375
1977.78901	20836.1375
1980.86073	20802.7375
1983.93046	20734.0375
1986.99819	20625.4375
1990.06394	20567.1375
1993.1277	20560.2375
1996.18947	20508.5375
1999.24925	20464.8375
2002.30706	20388.9375
2005.36288	20367.1375
2008.41672	20296.8375
2011.46859	20265.1375
2014.51848	20206.8375
2017.56639	20141.6375
2020.61233	20111.8375
2023.6563	20100.9375
2026.6983	20091.6375
2029.73833	20040.3375
2032.7764	19960.8375
2035.8125	19961.7375
2038.84664	19966.3375
2041.87881	19949.1375
2044.90903	19908.1375
2047.93729	19898.0375
2050.96359	19840.9375
2053.98794	19833.2375
2057.01034	19807.2375
2060.03078	19804.3375
2063.04927	19760.1375
2066.06582	19782.8375
2069.08042	19759.7375
2072.09307	19718.9375
2075.10378	19775.3375
2078.11255	19761.9375
2081.11938	19759.1375
2084.12426	19707.4375
2087.12722	19727.3375
2090.12824	19731.7375
2093.12732	19739.5375
2096.12447	19736.4375
2099.11969	19724.2375
2102.11299	19760.1375
2105.10435	19743.2375
2108.09379	19758.4375
2111.08131	19815.4375
2114.0669	19801.6375
2117.05057	19862.3375
2120.03233	19847.2375
2123.01216	19881.4375
2125.99008	19951.7375
2128.96609	19945.6375
2131.94018	19967.4375
2134.91236	19952.7375
2137.88263	19997.3375
2140.851	20043.3375
2143.81746	20079.5375
2146.78201	20042.4375
2149.74466	20086.5375
2152.7054	20052.8375
2155.66425	20077.2375
2158.6212	20037.6375
2161.57625	20035.5375
2164.52941	20077.9375
2167.48067	20061.9375
2170.43004	20037.6375
2173.37752	20078.4375
2176.32311	20042.1375
2179.26681	20057.3375
2182.20863	20071.6375
2185.14856	20117.4375
2188.08661	20091.6375
2191.02278	20078.6375
2193.95707	20081.6375
2196.88948	20084.8375
2199.82001	20084.4375
2202.74867	20063.5375
2205.67545	20072.4375
2208.60037	20048.9375
2211.52341	20030.4375
2214.44458	20022.0375
2217.36388	19953.0375
2220.28132	19930.9375
2223.1969	19877.4375
2226.11061	19869.5375
2229.02246	19854.2375
2231.93245	19854.2375
2234.84058	19804.2375
2237.74686	19796.2375
2240.65128	19802.0375
2243.55385	19777.8375
2246.45456	19766.9375
2249.35343	19702.9375
2252.25044	19728.3375
2255.14561	19683.8375
2258.03893	19663.0375
2260.93041	19636.8375
2263.82004	19571.3375
2266.70783	19538.7375
2269.59378	19534.2375
2272.4779	19493.7375
2275.36017	19473.5375
2278.24061	19395.9375
2281.11922	19382.0375
2283.996	19388.9375
2286.87094	19366.5375
2289.74405	19356.3375
2292.61534	19340.2375
2295.4848	19368.5375
2298.35243	19330.2375
2301.21824	19306.8375
2304.08223	19358.9375
2306.94439	19286.9375
2309.80474	19315.9375
2312.66327	19351.4375
2315.51999	19347.4375
2318.37489	19352.4375
2321.22797	19343.6375
2324.07925	19338.8375
2326.92871	19262.9375
2329.77637	19283.3375
2332.62222	19256.4375
2335.46626	19252.5375
2338.3085	19258.8375
2341.14893	19274.8375
2343.98756	19284.1375
2346.8244	19269.3375
2349.65943	19299.4375
2352.49267	19276.7375
2355.32411	19239.0375
2358.15376	19233.1375
2360.98161	19224.4375
2363.80768	19200.8375
2366.63195	19201.7375
2369.45444	19150.5375
2372.27514	19129.7375
2375.09405	19138.9375
2377.91118	19067.9375
2380.72652	19030.7375
2383.54009	19014.0375
2386.35187	19001.1375
2389.16188	18971.3375
2391.97011	18966.9375
2394.77657	18937.9375
2397.58125	18919.2375
2400.38416	18895.9375
2403.18529	18883.1375
2405.98466	18897.5375
2408.78226	18835.8375
2411.57809	18785.3375
2414.37216	18776.7375
2417.16446	18803.8375
2419.955	18770.8375
2422.74378	18766.4375
2425.5308	18680.8375
2428.31606	18703.8375
2431.09956	18666.5375
2433.88131	18698.6375
2436.6613	18719.0375
2439.43954	18718.8375
2442.21603	18739.9375
2444.99077	18710.1375
2447.76377	18725.9375
2450.53501	18704.3375
2453.30451	18702.0375
2456.07226	18695.5375
2458.83827	18704.1375
2461.60254	18707.9375
2464.36507	18671.6375
2467.12586	18649.3375
2469.88492	18671.2375
2472.64224	18684.7375
2475.39782	18651.4375
2478.15167	18675.7375
2480.90379	18714.0375
2483.65417	18763.2375
2486.40283	18740.4375
2489.14976	18739.7375
2491.89497	18733.1375
2494.63845	18729.7375
2497.3802	18717.5375
2500.12024	18727.9375
2502.85855	18737.0375
2505.59514	18728.0375
2508.33002	18737.9375
2511.06318	18707.0375
2513.79462	18687.8375
2516.52435	18630.1375
2519.25237	18641.2375
2521.97867	18567.0375
2524.70327	18596.0375
2527.42616	18589.7375
2530.14734	18592.6375
2532.86681	18610.1375
2535.58458	18599.8375
2538.30065	18611.2375
2541.01501	18607.5375
2543.72768	18595.3375
2546.43864	18557.2375
2549.14791	18528.8375
2551.85548	18532.1375
2554.56136	18501.8375
2557.26554	18457.7375
2559.96803	18445.2375
2562.66883	18434.9375
2565.36794	18462.2375
2568.06536	18436.9375
2570.7611	18414.9375
2573.45514	18389.9375
2576.14751	18414.8375
2578.83819	18357.3375
2581.52719	18360.1375
2584.21451	18346.7375
2586.90015	18345.9375
2589.58411	18296.3375
2592.2664	18342.9375
2594.94701	18326.4375
2597.62594	18332.8375
2600.30321	18298.4375
2602.9788	18294.3375
2605.65273	18274.0375
2608.32498	18304.8375
2610.99557	18302.2375
2613.66449	18288.3375
2616.33175	18257.1375
2618.99734	18230.1375
2621.66128	18236.5375
2624.32355	18208.0375
2626.98416	18209.1375
2629.64311	18190.9375
2632.30041	18196.4375
2634.95605	18158.2375
2637.61004	18168.9375
2640.26238	18148.6375
2642.91306	18152.4375
2645.56209	18139.3375
2648.20948	18120.9375
2650.85521	18093.0375
2653.4993	18061.6375
2656.14175	18135.4375
2658.78255	18145.0375
2661.42171	18174.3375
2664.05923	18203.5375
2666.6951	18215.4375
2669.32934	18278.6375
2671.96194	18215.7375
2674.59291	18231.3375
2677.22224	18208.5375
2679.84993	18230.6375
2682.476	18224.6375
2685.10043	18235.0375
2687.72324	18204.9375
2690.34441	18198.6375
2692.96396	18214.5375
2695.58188	18189.0375
2698.19818	18194.6375
2700.81285	18200.7375
2703.4259	18181.4375
2706.03733	18100.1375
2708.64714	18160.7375
2711.25533	18233.2375
2713.86191	18271.6375
2716.46687	18308.8375
2719.07021	18330.9375
2721.67194	18385.4375
2724.27206	18355.4375
2726.87057	18332.4375
2729.46747	18351.3375
2732.06276	18341.8375
2734.65644	18334.2375
2737.24852	18362.5375
2739.83899	18350.0375
2742.42786	18357.8375
2745.01513	18334.9375
2747.60079	18342.6375
2750.18486	18272.9375
2752.76733	18306.0375
2755.3482	18249.6375
2757.92747	18271.0375
2760.50515	18201.7375
2763.08123	18274.7375
2765.65573	18243.0375
2768.22863	18243.4375
2770.79994	18226.7375
2773.36967	18213.9375
2775.9378	18224.5375
2778.50435	18196.3375
2781.06932	18199.2375
2783.6327	18223.7375
2786.1945	18200.1375
2788.75471	18220.8375
2791.31335	18189.2375
2793.87041	18173.8375
2796.42589	18092.0375
2798.97979	18069.1375
2801.53212	18015.9375
2804.08288	18008.6375
2806.63206	18032.4375
2809.17967	17992.3375
2811.72571	17960.7375
2814.27018	17915.3375
2816.81308	17903.2375
2819.35442	17874.8375
2821.89419	17875.1375
2824.43239	17833.7375
2826.96904	17830.8375
2829.50412	17834.8375
2832.03763	17790.8375
2834.56959	17809.9375
2837.1	17747.7375
2839.62884	17776.9375
2842.15613	17776.5375
2844.68186	17788.9375
2847.20604	17758.2375
2849.72867	17770.2375
2852.24974	17727.5375
2854.76927	17712.4375
2857.28724	17664.3375
2859.80367	17642.8375
2862.31855	17630.4375
2864.83189	17604.3375
2867.34368	17615.5375
2869.85393	17662.0375
2872.36264	17669.3375
2874.8698	17604.7375
2877.37543	17642.1375
2879.87952	17619.8375
2882.38207	17626.0375
2884.88308	17614.0375
2887.38256	17678.5375
2889.88051	17674.5375
2892.37692	17693.8375
2894.8718	17662.4375
2897.36515	17659.2375
2899.85698	17670.9375
2902.34727	17704.9375
2904.83604	17752.8375
2907.32328	17729.0375
2909.809	17750.3375
2912.29319	17777.2375
2914.77587	17773.8375
2917.25702	17764.2375
2919.73665	17736.7375
2922.21476	17751.3375
2924.69136	17742.6375
2927.16644	17763.1375
2929.64	17686.3375
2932.11205	17723.2375
2934.58258	17645.0375
2937.05161	17683.0375
2939.51912	17654.2375
2941.98513	17626.9375
2944.44962	17614.4375
2946.91261	17601.9375
2949.37409	17627.0375
2951.83407	17653.9375
2954.29254	17659.2375
2956.74951	17658.9375
2959.20498	17676.1375
2961.65895	17642.7375
2964.11142	17634.1375
2966.56239	17590.0375
2969.01186	17588.5375
2971.45984	17594.2375
2973.90632	17615.8375
2976.35131	17564.8375
2978.7948	17494.2375
2981.23681	17498.4375
2983.67732	17437.4375
2986.11635	17416.2375
2988.55388	17381.8375
2990.98993	17347.0375
2993.4245	17363.8375
2995.85758	17354.7375
2998.28917	17316.8375
3000.71928	17298.6375
3003.14791	17249.2375
3005.57506	17227.9375
3008.00073	17177.4375
3010.42493	17165.9375
3012.84764	17129.4375
3015.26888	17150.9375
3017.68865	17130.0375
3020.10694	17105.7375
3022.52376	17051.3375
3024.9391	17029.2375
3027.35298	17038.2375
3029.76539	17041.7375
3032.17632	17038.3375
3034.5858	16996.3375
3036.9938	16986.3375
3039.40034	16935.9375
3041.80542	16940.0375
3044.20903	16880.6375
3046.61118	16927.4375
3049.01187	16913.5375
3051.4111	16916.4375
3053.80888	16862.7375
3056.20519	16868.8375
3058.60005	16828.6375
3060.99345	16809.5375
3063.3854	16753.6375
3065.7759	16702.8375
3068.16494	16700.3375
3070.55254	16618.5375
3072.93868	16590.4375
3075.32338	16510.9375
3077.70662	16519.5375
3080.08842	16488.2375
3082.46878	16465.9375
3084.84769	16472.1375
3087.22515	16467.1375
3089.60118	16471.7375
3091.97576	16460.0375
3094.3489	16453.1375
3096.72061	16490.9375
3099.09087	16469.1375
3101.4597	16482.3375
3103.82709	16435.4375
3106.19305	16421.0375
3108.55757	16451.4375
3110.92066	16394.9375
3113.28232	16398.3375
3115.64255	16336.6375
3118.00134	16351.9375
3120.35871	16308.3375
3122.71466	16237.8375
3125.06917	16240.7375
3127.42226	16195.3375
3129.77393	16225.2375
3132.12417	16191.4375
3134.47299	16186.2375
3136.82039	16177.1375
3139.16636	16184.3375
3141.51092	16195.3375
3143.85406	16193.5375
3146.19579	16214.7375
3148.53609	16229.1375
3150.87499	16228.2375
3153.21246	16211.0375
3155.54853	16206.4375
3157.88318	16197.0375
3160.21642	16200.4375
3162.54826	16219.7375
3164.87868	16233.4375
3167.2077	16210.8375
3169.5353	16219.3375
3171.86151	16218.3375
3174.18631	16171.1375
3176.5097	16151.0375
3178.83169	16193.5375
3181.15228	16185.3375
3183.47147	16114.9375
3185.78926	16085.8375
3188.10565	16077.3375
3190.42065	16065.5375
3192.73424	16024.1375
3195.04645	16001.9375
3197.35725	16013.4375
3199.66667	16032.5375
3201.97469	16056.0375
3204.28132	16048.6375
3206.58656	16076.7375
3208.8904	16092.2375
3211.19287	16091.5375
3213.49394	16099.1375
3215.79363	16097.2375
3218.09193	16123.2375
3220.38884	16054.1375
3222.68438	16104.4375
3224.97853	16087.5375
3227.2713	16089.6375
3229.56269	16094.6375
3231.8527	16131.9375
3234.14133	16032.7375
3236.42858	16002.4375
3238.71446	15992.9375
3240.99896	15977.3375
3243.28209	15984.8375
3245.56384	15983.3375
3247.84423	16007.3375
3250.12324	15942.1375
3252.40088	15928.9375
3254.67715	15923.7375
3256.95205	15916.8375
3259.22558	15895.1375
3261.49775	15875.1375
3263.76855	15854.0375
3266.03799	15826.1375
3268.30606	15814.4375
3270.57277	15808.8375
3272.83812	15786.6375
3275.10211	15724.5375
3277.36474	15701.8375
3279.62601	15688.6375
3281.88593	15713.9375
3284.14448	15739.1375
3286.40168	15737.0375
3288.65753	15705.0375
3290.91202	15700.8375
3293.16516	15673.4375
3295.41695	15667.0375
3297.66738	15556.3375
3299.91647	15474.2375
3302.16421	15393.2375
3304.4106	15349.4375
3306.65564	15218.9375
3308.89933	15110.3375
3311.14169	14997.7375
3313.38269	14901.5375
3315.62236	14834.9375
3317.86068	14757.8375
3320.09766	14643.4375
3322.3333	14535.3375
3324.5676	14485.4375
3326.80056	14229.7375
3329.03219	14165.1375
3331.26248	3.2375
3333.49143	-0.6625
3335.71905	1.1375
