Data from AgNPs_FTO_APTES_UA_50uM_CRN_0uM_R6G_10uM_NaF_0.1M_Addition_RamanShift__49__11-07-24-691.txt Node

Date: Mon Feb 21 11:07:24 GMT 2022
User: TCL
Spectrometer: QEP01345
Trigger mode: 4
Integration Time (sec): 7.000000E0
Scans to average: 10
Electric dark correction enabled: true
Nonlinearity correction enabled: false
Boxcar width: 0
XAxis mode: Raman Shifts
Number of Pixels in Spectrum: 1044
>>>>>Begin Spectral Data<<<<<
46.04893	0.8625
50.45542	-0.4375
54.85868	-2.2375
59.25871	-1.0375
63.6555	40.8625
68.04907	45.8625
72.43941	45.0625
76.82654	50.3625
81.21044	55.5625
85.59113	56.2625
89.96862	57.1625
94.34289	63.7625
98.71396	62.2625
103.08183	67.3625
107.4465	65.6625
111.80798	66.2625
116.16626	64.2625
120.52136	61.5625
124.87327	72.4625
129.222	66.0625
133.56755	68.3625
137.90993	78.0625
142.24913	79.2625
146.58517	83.4625
150.91804	96.4625
155.24774	106.1625
159.57429	128.1625
163.89768	157.4625
168.21792	206.9625
172.53501	270.5625
176.84895	378.8625
181.15975	517.5625
185.46741	723.3625
189.77193	996.5625
194.07331	1318.6625
198.37157	1698.6625
202.6667	2094.3625
206.9587	2494.6625
211.24758	2880.7625
215.53334	3299.5625
219.81599	3742.3625
224.09553	4245.7625
228.37195	4816.2625
232.64527	5440.0625
236.91549	6069.6625
241.18261	6665.2625
245.44663	7195.8625
249.70755	7624.6625
253.96539	7969.5625
258.22014	8246.8625
262.4718	8440.6625
266.72039	8599.8625
270.96589	8659.0625
275.20832	8599.7625
279.44768	8523.6625
283.68397	8366.3625
287.91719	8286.4625
292.14735	8304.3625
296.37445	8423.3625
300.59849	8694.5625
304.81948	9044.1625
309.03742	9291.1625
313.25231	9306.5625
317.46415	8935.4625
321.67296	8317.3625
325.87872	7802.7625
330.08145	7563.4625
334.28114	7548.8625
338.47781	7675.1625
342.67145	7879.7625
346.86207	8197.0625
351.04966	8660.2625
355.23424	9199.6625
359.4158	9656.7625
363.59435	9875.7625
367.76989	9940.2625
371.94243	9893.3625
376.11196	9828.4625
380.27849	9757.1625
384.44203	9643.1625
388.60257	9533.1625
392.76012	9470.9625
396.91468	9538.1625
401.06626	9804.8625
405.21485	10012.1625
409.36047	9869.0625
413.50311	9413.6625
417.64277	8988.4625
421.77947	8707.7625
425.9132	8616.4625
430.04396	8585.5625
434.17176	8645.7625
438.2966	8796.4625
442.41849	9040.7625
446.53742	9383.6625
450.6534	9665.9625
454.76644	9837.9625
458.87653	9871.1625
462.98368	9756.7625
467.08789	9562.7625
471.18916	9313.7625
475.2875	9062.0625
479.38291	8848.4625
483.4754	8728.5625
487.56496	8614.5625
491.6516	8544.1625
495.73531	8503.1625
499.81612	8509.4625
503.89401	8615.7625
507.96899	8694.2625
512.04106	8813.7625
516.11023	8951.7625
520.1765	9020.6625
524.23987	9009.9625
528.30034	8909.3625
532.35792	8747.5625
536.41261	8530.2625
540.46441	8336.7625
544.51333	8226.3625
548.55936	8272.4625
552.60252	8425.4625
556.64279	8618.9625
560.6802	8740.3625
564.71473	8885.1625
568.7464	9231.5625
572.7752	9496.4625
576.80114	9351.1625
580.82422	9109.6625
584.84444	9036.8625
588.86181	9067.6625
592.87633	9178.1625
596.888	9318.2625
600.89682	9553.0625
604.9028	10464.2625
608.90594	13091.4625
612.90624	16615.5625
616.90371	16083.4625
620.89834	11615.5625
624.89015	9411.7625
628.87913	9023.2625
632.86528	9046.3625
636.84862	9133.6625
640.82913	8959.4625
644.80683	8537.1625
648.78172	8246.8625
652.75379	8233.2625
656.72306	8534.5625
660.68952	8990.0625
664.65319	8937.3625
668.61405	8516.1625
672.57211	8266.4625
676.52738	8247.2625
680.47986	8231.7625
684.42955	8150.8625
688.37646	8151.8625
692.32058	8184.3625
696.26192	8261.9625
700.20048	8362.0625
704.13626	8445.0625
708.06928	8455.1625
711.99952	8354.1625
715.927	8301.2625
719.85171	8354.7625
723.77365	8338.1625
727.69284	8241.0625
731.60928	8179.3625
735.52295	8193.3625
739.43388	8203.3625
743.34206	8277.6625
747.24749	8359.4625
751.15017	8415.5625
755.05012	8588.0625
758.94733	8973.9625
762.8418	9885.7625
766.73354	11409.7625
770.62254	12938.2625
774.50882	13757.6625
778.39237	13320.2625
782.27321	11708.7625
786.15132	10012.0625
790.02671	9001.7625
793.89938	8572.6625
797.76935	8390.2625
801.6366	8328.2625
805.50115	8321.4625
809.36299	8298.8625
813.22213	8272.8625
817.07857	8245.1625
820.93231	8221.6625
824.78336	8204.4625
828.63172	8234.0625
832.47738	8254.4625
836.32036	8243.2625
840.16066	8213.0625
843.99827	8225.2625
847.8332	8190.2625
851.66546	8154.1625
855.49504	8129.3625
859.32195	8117.2625
863.1462	8088.5625
866.96777	8054.8625
870.78668	8022.9625
874.60293	8054.1625
878.41652	8109.1625
882.22745	8179.3625
886.03573	8223.1625
889.84136	8192.2625
893.64433	8148.2625
897.44466	8124.7625
901.24235	8091.8625
905.0374	8057.9625
908.8298	8007.4625
912.61957	7968.4625
916.40671	7994.8625
920.19121	8086.0625
923.97308	8158.6625
927.75233	8286.6625
931.52895	8329.0625
935.30295	8253.5625
939.07433	8022.0625
942.84309	7809.6625
946.60924	7718.2625
950.37278	7652.8625
954.13371	7605.9625
957.89203	7574.1625
961.64774	7532.3625
965.40086	7534.1625
969.15137	7517.5625
972.89929	7488.8625
976.64461	7491.6625
980.38733	7483.7625
984.12747	7490.2625
987.86502	7549.4625
991.59999	7615.8625
995.33237	7764.4625
999.06217	7971.5625
1002.78939	8252.5625
1006.51404	8454.5625
1010.23611	8614.3625
1013.95561	8753.5625
1017.67255	8766.8625
1021.38692	8642.9625
1025.09872	8465.7625
1028.80796	8440.1625
1032.51465	8568.8625
1036.21877	8694.4625
1039.92035	8798.8625
1043.61937	8754.7625
1047.31584	8655.8625
1051.00976	8480.6625
1054.70114	8413.3625
1058.38998	8391.5625
1062.07627	8407.2625
1065.76003	8455.0625
1069.44126	8521.9625
1073.11995	8650.9625
1076.79611	8774.4625
1080.46974	8882.0625
1084.14085	9082.3625
1087.80943	9298.2625
1091.47549	9349.9625
1095.13903	9184.2625
1098.80005	8903.8625
1102.45857	8592.2625
1106.11456	8477.0625
1109.76805	8537.9625
1113.41903	8714.5625
1117.06751	8993.7625
1120.71348	9397.4625
1124.35696	9826.0625
1127.99793	10201.6625
1131.63641	10114.1625
1135.2724	9667.5625
1138.90589	9257.3625
1142.5369	9004.4625
1146.16542	8810.8625
1149.79145	8712.8625
1153.415	8687.2625
1157.03607	8772.7625
1160.65467	8927.8625
1164.27079	9210.6625
1167.88443	9698.4625
1171.49561	10466.3625
1175.10432	11738.5625
1178.71056	13368.7625
1182.31434	14633.1625
1185.91565	15066.8625
1189.51451	14743.1625
1193.11091	13979.5625
1196.70485	13003.3625
1200.29634	12237.0625
1203.88538	11553.9625
1207.47197	10841.0625
1211.05612	10240.5625
1214.63782	9939.2625
1218.21708	9830.0625
1221.79391	9883.7625
1225.36829	9961.3625
1228.94024	9989.7625
1232.50976	9943.7625
1236.07685	9927.8625
1239.6415	9889.5625
1243.20374	9893.6625
1246.76355	9910.6625
1250.32093	10018.9625
1253.8759	10255.5625
1257.42845	10567.6625
1260.97859	10887.9625
1264.52631	11217.9625
1268.07163	11494.5625
1271.61453	11792.2625
1275.15503	12048.6625
1278.69312	12284.2625
1282.22882	12493.5625
1285.76211	12839.9625
1289.29301	13262.6625
1292.82151	13657.4625
1296.34761	14162.4625
1299.87133	14862.8625
1303.39266	16043.0625
1306.9116	17746.3625
1310.42815	19644.1625
1313.94233	20634.0625
1317.45412	20138.1625
1320.96354	18790.5625
1324.47058	17304.4625
1327.97525	16129.4625
1331.47754	15523.6625
1334.97747	15317.6625
1338.47502	15512.5625
1341.97022	15917.5625
1345.46305	16407.3625
1348.95352	17112.0625
1352.44163	18104.4625
1355.92738	19714.7625
1359.41078	22176.8625
1362.89183	24148.9625
1366.37053	23274.7625
1369.84688	20146.4625
1373.32088	17065.2625
1376.79254	14981.8625
1380.26186	13770.5625
1383.72883	13091.7625
1387.19347	12542.3625
1390.65578	12104.7625
1394.11575	11807.1625
1397.57339	11731.8625
1401.0287	11883.0625
1404.48168	12047.1625
1407.93234	12257.7625
1411.38068	12437.7625
1414.82669	12429.7625
1418.27039	12187.3625
1421.71177	11864.2625
1425.15083	11566.5625
1428.58758	11459.5625
1432.02203	11558.3625
1435.45416	11652.4625
1438.88399	11674.0625
1442.31151	11650.3625
1445.73673	11689.2625
1449.15965	11714.4625
1452.58027	11702.5625
1455.9986	11631.8625
1459.41463	11623.0625
1462.82837	11728.2625
1466.23982	11939.5625
1469.64898	12202.7625
1473.05586	12348.3625
1476.46045	12487.3625
1479.86276	12697.0625
1483.26279	12957.7625
1486.66054	13310.3625
1490.05602	13781.0625
1493.44922	14460.3625
1496.84016	15367.8625
1500.22882	16725.8625
1503.61521	18531.0625
1506.99934	20395.9625
1510.38121	21877.8625
1513.76081	22158.6625
1517.13816	20840.3625
1520.51324	18407.9625
1523.88607	16162.6625
1527.25665	14746.5625
1530.62498	13955.5625
1533.99105	13491.4625
1537.35488	13203.6625
1540.71647	13102.5625
1544.07581	13000.7625
1547.4329	12946.1625
1550.78776	12812.4625
1554.14038	12709.0625
1557.49077	12633.0625
1560.83892	12744.2625
1564.18484	12995.6625
1567.52853	13340.6625
1570.86999	13623.4625
1574.20922	13790.3625
1577.54624	13718.6625
1580.88103	13141.7625
1584.2136	12380.4625
1587.54395	12091.3625
1590.87208	12392.5625
1594.19801	13277.8625
1597.52172	14339.7625
1600.84321	14915.2625
1604.16251	14501.6625
1607.47959	13514.6625
1610.79447	12328.0625
1614.10715	11230.7625
1617.41763	10394.3625
1620.7259	9892.4625
1624.03199	9677.4625
1627.33587	9704.5625
1630.63757	9954.4625
1633.93707	10449.2625
1637.23439	11303.9625
1640.52951	12423.0625
1643.82246	13812.4625
1647.11321	15297.3625
1650.40179	16118.1625
1653.68819	15425.3625
1656.97241	13417.0625
1660.25446	11263.8625
1663.53433	9782.6625
1666.81203	8877.1625
1670.08756	8374.6625
1673.36092	8079.6625
1676.63211	7896.7625
1679.90115	7751.0625
1683.16801	7627.7625
1686.43272	7569.7625
1689.69527	7465.9625
1692.95567	7376.8625
1696.2139	7261.6625
1699.46999	7138.5625
1702.72392	7116.5625
1705.97571	7179.1625
1709.22535	7280.8625
1712.47284	7340.1625
1715.71819	7381.4625
1718.96139	7366.0625
1722.20246	7379.7625
1725.44139	7340.0625
1728.67818	7289.5625
1731.91284	7241.4625
1735.14537	7198.5625
1738.37576	7152.2625
1741.60403	7126.6625
1744.83017	7090.1625
1748.05418	7035.8625
1751.27607	7009.5625
1754.49584	6950.2625
1757.71349	6862.3625
1760.92903	6825.3625
1764.14244	6820.8625
1767.35375	6836.6625
1770.56294	6799.5625
1773.77002	6822.1625
1776.97499	6858.0625
1780.17785	6889.7625
1783.37861	6904.5625
1786.57727	6896.2625
1789.77382	6911.2625
1792.96828	6932.6625
1796.16064	6923.4625
1799.3509	6916.3625
1802.53907	6879.4625
1805.72514	6879.1625
1808.90913	6864.5625
1812.09102	6841.9625
1815.27083	6837.0625
1818.44856	6817.1625
1821.6242	6829.1625
1824.79776	6791.5625
1827.96924	6793.2625
1831.13864	6789.5625
1834.30597	6782.5625
1837.47122	6764.7625
1840.6344	6767.5625
1843.7955	6767.7625
1846.95454	6760.1625
1850.11151	6747.2625
1853.26642	6748.8625
1856.41926	6740.5625
1859.57004	6753.2625
1862.71876	6761.3625
1865.86542	6763.5625
1869.01003	6760.3625
1872.15258	6751.1625
1875.29308	6757.7625
1878.43152	6772.8625
1881.56792	6777.8625
1884.70227	6787.8625
1887.83457	6766.3625
1890.96482	6773.9625
1894.09304	6761.0625
1897.21921	6763.4625
1900.34335	6778.2625
1903.46544	6766.9625
1906.58551	6764.8625
1909.70353	6768.4625
1912.81953	6773.5625
1915.93349	6770.3625
1919.04543	6774.8625
1922.15534	6761.6625
1925.26322	6739.0625
1928.36908	6713.5625
1931.47292	6691.5625
1934.57473	6664.4625
1937.67453	6667.1625
1940.77232	6632.1625
1943.86808	6603.3625
1946.96184	6577.3625
1950.05358	6543.3625
1953.14331	6505.2625
1956.23103	6488.0625
1959.31675	6453.7625
1962.40046	6433.8625
1965.48217	6417.6625
1968.56188	6423.6625
1971.63959	6406.6625
1974.7153	6388.4625
1977.78901	6357.5625
1980.86073	6328.6625
1983.93046	6300.6625
1986.99819	6269.5625
1990.06394	6277.3625
1993.1277	6262.2625
1996.18947	6232.9625
1999.24925	6208.2625
2002.30706	6192.3625
2005.36288	6184.5625
2008.41672	6175.9625
2011.46859	6139.0625
2014.51848	6128.6625
2017.56639	6095.1625
2020.61233	6082.6625
2023.6563	6091.5625
2026.6983	6052.7625
2029.73833	6050.3625
2032.7764	6013.8625
2035.8125	6002.6625
2038.84664	6011.8625
2041.87881	5993.3625
2044.90903	5993.1625
2047.93729	5961.7625
2050.96359	5967.9625
2053.98794	5958.9625
2057.01034	5957.3625
2060.03078	5925.2625
2063.04927	5924.3625
2066.06582	5940.2625
2069.08042	5908.0625
2072.09307	5920.8625
2075.10378	5904.5625
2078.11255	5891.0625
2081.11938	5904.1625
2084.12426	5900.6625
2087.12722	5899.5625
2090.12824	5908.1625
2093.12732	5907.1625
2096.12447	5897.1625
2099.11969	5897.5625
2102.11299	5903.1625
2105.10435	5903.4625
2108.09379	5885.2625
2111.08131	5887.5625
2114.0669	5906.1625
2117.05057	5912.1625
2120.03233	5913.4625
2123.01216	5922.0625
2125.99008	5916.7625
2128.96609	5923.8625
2131.94018	5920.2625
2134.91236	5923.8625
2137.88263	5921.3625
2140.851	5923.4625
2143.81746	5933.0625
2146.78201	5928.1625
2149.74466	5917.2625
2152.7054	5933.0625
2155.66425	5919.0625
2158.6212	5920.3625
2161.57625	5907.8625
2164.52941	5895.7625
2167.48067	5910.8625
2170.43004	5903.4625
2173.37752	5883.9625
2176.32311	5907.8625
2179.26681	5907.6625
2182.20863	5887.8625
2185.14856	5907.7625
2188.08661	5914.0625
2191.02278	5920.6625
2193.95707	5892.4625
2196.88948	5891.9625
2199.82001	5888.1625
2202.74867	5898.4625
2205.67545	5877.1625
2208.60037	5869.7625
2211.52341	5851.8625
2214.44458	5844.7625
2217.36388	5853.7625
2220.28132	5839.0625
2223.1969	5823.1625
2226.11061	5812.6625
2229.02246	5792.4625
2231.93245	5785.8625
2234.84058	5771.6625
2237.74686	5751.2625
2240.65128	5743.8625
2243.55385	5743.0625
2246.45456	5748.7625
2249.35343	5729.4625
2252.25044	5744.0625
2255.14561	5744.6625
2258.03893	5722.4625
2260.93041	5705.2625
2263.82004	5682.6625
2266.70783	5681.4625
2269.59378	5688.9625
2272.4779	5674.2625
2275.36017	5654.1625
2278.24061	5654.8625
2281.11922	5622.7625
2283.996	5607.3625
2286.87094	5617.8625
2289.74405	5598.1625
2292.61534	5598.7625
2295.4848	5602.4625
2298.35243	5576.7625
2301.21824	5557.5625
2304.08223	5566.9625
2306.94439	5564.9625
2309.80474	5572.5625
2312.66327	5575.2625
2315.51999	5551.7625
2318.37489	5568.0625
2321.22797	5566.4625
2324.07925	5552.1625
2326.92871	5553.7625
2329.77637	5539.7625
2332.62222	5518.8625
2335.46626	5519.4625
2338.3085	5500.5625
2341.14893	5504.4625
2343.98756	5527.8625
2346.8244	5539.3625
2349.65943	5538.7625
2352.49267	5554.2625
2355.32411	5551.1625
2358.15376	5539.8625
2360.98161	5558.2625
2363.80768	5538.5625
2366.63195	5531.1625
2369.45444	5535.9625
2372.27514	5516.6625
2375.09405	5497.2625
2377.91118	5502.1625
2380.72652	5472.9625
2383.54009	5462.8625
2386.35187	5446.0625
2389.16188	5427.0625
2391.97011	5417.7625
2394.77657	5411.2625
2397.58125	5401.3625
2400.38416	5388.8625
2403.18529	5364.0625
2405.98466	5363.8625
2408.78226	5354.1625
2411.57809	5329.0625
2414.37216	5312.0625
2417.16446	5307.7625
2419.955	5314.7625
2422.74378	5328.0625
2425.5308	5293.2625
2428.31606	5301.8625
2431.09956	5295.4625
2433.88131	5295.4625
2436.6613	5300.4625
2439.43954	5300.6625
2442.21603	5284.0625
2444.99077	5291.8625
2447.76377	5312.9625
2450.53501	5279.6625
2453.30451	5276.8625
2456.07226	5281.4625
2458.83827	5274.7625
2461.60254	5269.6625
2464.36507	5265.2625
2467.12586	5243.2625
2469.88492	5254.0625
2472.64224	5257.1625
2475.39782	5257.8625
2478.15167	5245.9625
2480.90379	5282.0625
2483.65417	5287.2625
2486.40283	5299.7625
2489.14976	5324.9625
2491.89497	5310.8625
2494.63845	5308.3625
2497.3802	5297.7625
2500.12024	5294.0625
2502.85855	5286.4625
2505.59514	5275.4625
2508.33002	5261.9625
2511.06318	5260.0625
2513.79462	5238.1625
2516.52435	5219.4625
2519.25237	5209.2625
2521.97867	5193.6625
2524.70327	5170.8625
2527.42616	5176.6625
2530.14734	5168.4625
2532.86681	5180.3625
2535.58458	5182.5625
2538.30065	5172.9625
2541.01501	5174.4625
2543.72768	5153.0625
2546.43864	5149.5625
2549.14791	5161.0625
2551.85548	5146.1625
2554.56136	5129.7625
2557.26554	5133.3625
2559.96803	5110.7625
2562.66883	5112.0625
2565.36794	5114.8625
2568.06536	5105.0625
2570.7611	5096.5625
2573.45514	5085.8625
2576.14751	5092.7625
2578.83819	5089.0625
2581.52719	5083.0625
2584.21451	5060.6625
2586.90015	5058.9625
2589.58411	5055.6625
2592.2664	5056.6625
2594.94701	5057.4625
2597.62594	5069.1625
2600.30321	5038.9625
2602.9788	5040.6625
2605.65273	5041.6625
2608.32498	5056.9625
2610.99557	5051.3625
2613.66449	5048.2625
2616.33175	5039.7625
2618.99734	5053.6625
2621.66128	5038.8625
2624.32355	5037.0625
2626.98416	5025.4625
2629.64311	5044.9625
2632.30041	5027.2625
2634.95605	5020.3625
2637.61004	5019.3625
2640.26238	5004.3625
2642.91306	5001.4625
2645.56209	4966.4625
2648.20948	4970.4625
2650.85521	4960.5625
2653.4993	4964.1625
2656.14175	4974.9625
2658.78255	4981.7625
2661.42171	4967.5625
2664.05923	4987.1625
2666.6951	4988.2625
2669.32934	4999.0625
2671.96194	5015.2625
2674.59291	5005.3625
2677.22224	4998.0625
2679.84993	5003.3625
2682.476	5013.0625
2685.10043	5040.9625
2687.72324	5007.7625
2690.34441	5013.7625
2692.96396	5014.5625
2695.58188	5011.8625
2698.19818	4993.8625
2700.81285	4984.3625
2703.4259	4961.5625
2706.03733	4881.7625
2708.64714	4914.7625
2711.25533	4975.9625
2713.86191	4992.1625
2716.46687	5024.0625
2719.07021	5026.4625
2721.67194	5020.0625
2724.27206	5015.0625
2726.87057	5028.2625
2729.46747	5027.7625
2732.06276	5030.4625
2734.65644	5027.7625
2737.24852	5035.5625
2739.83899	5013.0625
2742.42786	5026.5625
2745.01513	5006.0625
2747.60079	4991.8625
2750.18486	4996.3625
2752.76733	4994.7625
2755.3482	4991.3625
2757.92747	4968.4625
2760.50515	4972.8625
2763.08123	4974.0625
2765.65573	4969.6625
2768.22863	4969.7625
2770.79994	4955.3625
2773.36967	4964.9625
2775.9378	4969.0625
2778.50435	4979.0625
2781.06932	4973.5625
2783.6327	4951.4625
2786.1945	4969.4625
2788.75471	4976.6625
2791.31335	4957.0625
2793.87041	4967.6625
2796.42589	4956.8625
2798.97979	4954.2625
2801.53212	4933.8625
2804.08288	4943.2625
2806.63206	4946.9625
2809.17967	4936.4625
2811.72571	4926.4625
2814.27018	4934.9625
2816.81308	4934.6625
2819.35442	4934.6625
2821.89419	4933.5625
2824.43239	4944.5625
2826.96904	4948.3625
2829.50412	4944.1625
2832.03763	4928.0625
2834.56959	4935.5625
2837.1	4943.9625
2839.62884	4945.2625
2842.15613	4953.6625
2844.68186	4989.4625
2847.20604	4981.5625
2849.72867	5004.6625
2852.24974	4997.2625
2854.76927	4984.1625
2857.28724	4960.0625
2859.80367	4962.6625
2862.31855	4960.6625
2864.83189	4958.0625
2867.34368	4945.9625
2869.85393	4983.3625
2872.36264	4972.4625
2874.8698	4976.5625
2877.37543	4962.4625
2879.87952	4966.4625
2882.38207	4957.2625
2884.88308	4957.1625
2887.38256	4944.1625
2889.88051	4942.6625
2892.37692	4954.7625
2894.8718	4947.5625
2897.36515	4951.5625
2899.85698	4944.2625
2902.34727	4947.8625
2904.83604	4949.4625
2907.32328	4952.9625
2909.809	4948.2625
2912.29319	4963.6625
2914.77587	4951.4625
2917.25702	4923.5625
2919.73665	4906.4625
2922.21476	4916.7625
2924.69136	4903.0625
2927.16644	4911.6625
2929.64	4904.0625
2932.11205	4895.5625
2934.58258	4872.6625
2937.05161	4865.2625
2939.51912	4873.2625
2941.98513	4846.8625
2944.44962	4817.6625
2946.91261	4808.8625
2949.37409	4820.5625
2951.83407	4808.3625
2954.29254	4785.2625
2956.74951	4790.5625
2959.20498	4764.5625
2961.65895	4766.7625
2964.11142	4752.8625
2966.56239	4725.0625
2969.01186	4734.5625
2971.45984	4728.3625
2973.90632	4729.9625
2976.35131	4693.3625
2978.7948	4681.9625
2981.23681	4686.4625
2983.67732	4663.4625
2986.11635	4666.6625
2988.55388	4653.5625
2990.98993	4638.5625
2993.4245	4619.9625
2995.85758	4604.9625
2998.28917	4596.9625
3000.71928	4600.6625
3003.14791	4578.6625
3005.57506	4564.8625
3008.00073	4555.3625
3010.42493	4539.4625
3012.84764	4547.1625
3015.26888	4518.5625
3017.68865	4523.8625
3020.10694	4528.4625
3022.52376	4523.8625
3024.9391	4500.4625
3027.35298	4497.9625
3029.76539	4497.1625
3032.17632	4492.8625
3034.5858	4480.5625
3036.9938	4475.6625
3039.40034	4475.4625
3041.80542	4453.0625
3044.20903	4449.4625
3046.61118	4456.6625
3049.01187	4441.6625
3051.4111	4440.4625
3053.80888	4435.4625
3056.20519	4429.5625
3058.60005	4430.1625
3060.99345	4421.4625
3063.3854	4381.6625
3065.7759	4376.6625
3068.16494	4379.9625
3070.55254	4356.9625
3072.93868	4339.5625
3075.32338	4332.8625
3077.70662	4315.5625
3080.08842	4303.4625
3082.46878	4303.8625
3084.84769	4299.7625
3087.22515	4295.8625
3089.60118	4299.0625
3091.97576	4293.9625
3094.3489	4282.7625
3096.72061	4294.6625
3099.09087	4294.7625
3101.4597	4289.0625
3103.82709	4283.9625
3106.19305	4272.0625
3108.55757	4296.6625
3110.92066	4262.1625
3113.28232	4276.4625
3115.64255	4272.1625
3118.00134	4259.8625
3120.35871	4239.4625
3122.71466	4237.9625
3125.06917	4223.2625
3127.42226	4244.0625
3129.77393	4233.0625
3132.12417	4220.2625
3134.47299	4233.4625
3136.82039	4220.1625
3139.16636	4225.7625
3141.51092	4237.1625
3143.85406	4252.8625
3146.19579	4233.4625
3148.53609	4237.1625
3150.87499	4242.9625
3153.21246	4252.7625
3155.54853	4251.7625
3157.88318	4250.0625
3160.21642	4271.5625
3162.54826	4265.7625
3164.87868	4253.4625
3167.2077	4266.9625
3169.5353	4281.1625
3171.86151	4257.3625
3174.18631	4266.9625
3176.5097	4259.9625
3178.83169	4255.7625
3181.15228	4254.0625
3183.47147	4260.2625
3185.78926	4258.3625
3188.10565	4259.6625
3190.42065	4245.8625
3192.73424	4248.5625
3195.04645	4253.2625
3197.35725	4258.2625
3199.66667	4263.3625
3201.97469	4253.4625
3204.28132	4261.3625
3206.58656	4278.0625
3208.8904	4280.7625
3211.19287	4275.3625
3213.49394	4281.7625
3215.79363	4277.9625
3218.09193	4280.4625
3220.38884	4266.5625
3222.68438	4251.9625
3224.97853	4279.0625
3227.2713	4268.2625
3229.56269	4279.3625
3231.8527	4286.4625
3234.14133	4279.5625
3236.42858	4267.4625
3238.71446	4283.1625
3240.99896	4259.2625
3243.28209	4254.0625
3245.56384	4244.8625
3247.84423	4237.2625
3250.12324	4243.3625
3252.40088	4237.8625
3254.67715	4232.3625
3256.95205	4239.1625
3259.22558	4245.2625
3261.49775	4223.6625
3263.76855	4217.5625
3266.03799	4221.3625
3268.30606	4204.8625
3270.57277	4195.0625
3272.83812	4184.1625
3275.10211	4181.4625
3277.36474	4173.8625
3279.62601	4167.8625
3281.88593	4179.8625
3284.14448	4165.6625
3286.40168	4189.8625
3288.65753	4171.6625
3290.91202	4164.2625
3293.16516	4150.2625
3295.41695	4146.6625
3297.66738	4110.4625
3299.91647	4108.7625
3302.16421	4083.1625
3304.4106	4058.4625
3306.65564	4042.3625
3308.89933	4017.9625
3311.14169	3974.1625
3313.38269	3934.1625
3315.62236	3915.6625
3317.86068	3884.7625
3320.09766	3858.8625
3322.3333	3832.1625
3324.5676	3815.2625
3326.80056	3723.6625
3329.03219	3716.5625
3331.26248	1.2625
3333.49143	0.0625
3335.71905	0.5625
