Data from AgNPs_FTO_APTES_UA_50uM_CRN_5uM_R6G_10uM_NaF_0.1M_Addition_RamanShift__25__13-01-44-842.txt Node

Date: Mon Feb 21 13:01:44 GMT 2022
User: TCL
Spectrometer: QEP01345
Trigger mode: 4
Integration Time (sec): 7.000000E0
Scans to average: 10
Electric dark correction enabled: true
Nonlinearity correction enabled: false
Boxcar width: 0
XAxis mode: Raman Shifts
Number of Pixels in Spectrum: 1044
>>>>>Begin Spectral Data<<<<<
46.04893	0.8
50.45542	-0.1
54.85868	-1.1
59.25871	-1.5
63.6555	59.2
68.04907	65.8
72.43941	65
76.82654	72.2
81.21044	71.9
85.59113	81.9
89.96862	77.8
94.34289	82.8
98.71396	82.8
103.08183	89.6
107.4465	95
111.80798	94.3
116.16626	92.8
120.52136	95.3
124.87327	103.9
129.222	103.3
133.56755	107.6
137.90993	120.3
142.24913	128.2
146.58517	144.1
150.91804	163.1
155.24774	199.8
159.57429	244.7
163.89768	313
168.21792	423.6
172.53501	571.8
176.84895	798.6
181.15975	1125.1
185.46741	1563.2
189.77193	2180.2
194.07331	2923.8
198.37157	3775.1
202.6667	4697.1
206.9587	5620.9
211.24758	6594.2
215.53334	7659.3
219.81599	8854.8
224.09553	10242.1
228.37195	11789.8
232.64527	13413.1
236.91549	14944.5
241.18261	16202
245.44663	17133.3
249.70755	17790
253.96539	18292.7
258.22014	18786.3
262.4718	19189
266.72039	19358.7
270.96589	19208.5
275.20832	18801.2
279.44768	18241.3
283.68397	17718.7
287.91719	17423.7
292.14735	17573.5
296.37445	18334.6
300.59849	19658.6
304.81948	21254.1
309.03742	22469.9
313.25231	22623.6
317.46415	21265.9
321.67296	18930.2
325.87872	16936.1
330.08145	16079.2
334.28114	16114.5
338.47781	16537.8
342.67145	17227.4
346.86207	18313.6
351.04966	20010.2
355.23424	21909
359.4158	23341.3
363.59435	23857.1
367.76989	23774.3
371.94243	23378.7
376.11196	22904
380.27849	22467.7
384.44203	21944.7
388.60257	21395.8
392.76012	21021.9
396.91468	21130.9
401.06626	21725.7
405.21485	22124.1
409.36047	21388.9
413.50311	19652
417.64277	17946.7
421.77947	16940.6
425.9132	16482.2
430.04396	16272.9
434.17176	16319
438.2966	16611.5
442.41849	17152.8
446.53742	17818.2
450.6534	18416.1
454.76644	18638.4
458.87653	18610.8
462.98368	18368.5
467.08789	17933
471.18916	17417
475.2875	16821.6
479.38291	16323.6
483.4754	15932.5
487.56496	15669.1
491.6516	15467.9
495.73531	15415.9
499.81612	15497.1
503.89401	15771.7
507.96899	16160.1
512.04106	16593.3
516.11023	17118.9
520.1765	17455.8
524.23987	17433.9
528.30034	17155.5
532.35792	16737
536.41261	16294.1
540.46441	15739.1
544.51333	15445.4
548.55936	15547.7
552.60252	16038.8
556.64279	16639
560.6802	16980.9
564.71473	17697.7
568.7464	19007
572.7752	19435.4
576.80114	18089.4
580.82422	16800.4
584.84444	16267.5
588.86181	16198.9
592.87633	16431.8
596.888	16825
600.89682	17839.6
604.9028	21373.7
608.90594	31086.5
612.90624	43616.4
616.90371	40979.9
620.89834	25451.4
624.89015	18247.8
628.87913	17018.9
632.86528	17460.6
636.84862	17994.5
640.82913	17413.5
644.80683	15917.3
648.78172	14875.6
652.75379	14871.6
656.72306	15953
660.68952	17295.3
664.65319	16868
668.61405	15424.3
672.57211	14812.3
676.52738	14785.7
680.47986	14803.9
684.42955	14553.9
688.37646	14443.4
692.32058	14509.7
696.26192	14652.5
700.20048	14923.9
704.13626	15014.8
708.06928	14874.4
711.99952	14616
715.927	14580.6
719.85171	14777.3
723.77365	14871.6
727.69284	14729
731.60928	14475.1
735.52295	14449.7
739.43388	14498
743.34206	14624.9
747.24749	14742.8
751.15017	14799.2
755.05012	15218.6
758.94733	16591.8
762.8418	20065.8
766.73354	25715.5
770.62254	30844.7
774.50882	33224.5
778.39237	31591.7
782.27321	25988.9
786.15132	20241.5
790.02671	16935.2
793.89938	15434.4
797.76935	14852
801.6366	14587
805.50115	14447.9
809.36299	14369.3
813.22213	14265.6
817.07857	14170.2
820.93231	14184.4
824.78336	14228.5
828.63172	14394.8
832.47738	14449.9
836.32036	14349.2
840.16066	14219.3
843.99827	14117.7
847.8332	14049.9
851.66546	13975.5
855.49504	13992.4
859.32195	13947.2
863.1462	13872
866.96777	13799
870.78668	13779.4
874.60293	13793.9
878.41652	13909.5
882.22745	14104
886.03573	14243.7
889.84136	14223.5
893.64433	14130.8
897.44466	14115.2
901.24235	14093.5
905.0374	13964.7
908.8298	13725.3
912.61957	13584.3
916.40671	13608.6
920.19121	13781.5
923.97308	14006
927.75233	14469.3
931.52895	14926.2
935.30295	14703.9
939.07433	13935.9
942.84309	13342.3
946.60924	13024.4
950.37278	12861.9
954.13371	12754.8
957.89203	12652.8
961.64774	12616.1
965.40086	12573.1
969.15137	12548.4
972.89929	12493.6
976.64461	12467.8
980.38733	12491.2
984.12747	12525.8
987.86502	12645.5
991.59999	12806.9
995.33237	13148.4
999.06217	13648.2
1002.78939	14318
1006.51404	14934.2
1010.23611	15295.6
1013.95561	15458.2
1017.67255	15406.9
1021.38692	15188.8
1025.09872	14931.3
1028.80796	14929.9
1032.51465	15311.5
1036.21877	15697.2
1039.92035	15818.2
1043.61937	15727.8
1047.31584	15416.7
1051.00976	14990.7
1054.70114	14686.3
1058.38998	14512.3
1062.07627	14539.4
1065.76003	14536.7
1069.44126	14616.8
1073.11995	14849.4
1076.79611	15246.6
1080.46974	15884.4
1084.14085	16791.4
1087.80943	17584
1091.47549	17728.1
1095.13903	17163.8
1098.80005	16178.9
1102.45857	15505.1
1106.11456	15423.6
1109.76805	15748.5
1113.41903	16564.7
1117.06751	17799.1
1120.71348	19480.9
1124.35696	21366.2
1127.99793	22534
1131.63641	21625.9
1135.2724	19597.8
1138.90589	17951.8
1142.5369	16954.5
1146.16542	16272.2
1149.79145	15876.4
1153.415	15772.2
1157.03607	15908.3
1160.65467	16411.6
1164.27079	17308.7
1167.88443	18728.5
1171.49561	20928.1
1175.10432	24607.5
1178.71056	29598.5
1182.31434	33674
1185.91565	34672.4
1189.51451	32901.8
1193.11091	29909
1196.70485	26870.6
1200.29634	24856.7
1203.88538	23161.9
1207.47197	21111.5
1211.05612	19273
1214.63782	18212.2
1218.21708	17817.9
1221.79391	17830.5
1225.36829	17931.9
1228.94024	17894.9
1232.50976	17613.2
1236.07685	17467.3
1239.6415	17446.1
1243.20374	17490.2
1246.76355	17709.5
1250.32093	18035.1
1253.8759	18663.6
1257.42845	19463.4
1260.97859	20498.2
1264.52631	21572.7
1268.07163	22661.9
1271.61453	23543.7
1275.15503	24226
1278.69312	24637.6
1282.22882	25201
1285.76211	26194.9
1289.29301	27446.8
1292.82151	28710.8
1296.34761	30079.5
1299.87133	32583.1
1303.39266	37156.7
1306.9116	43989
1310.42815	50712.4
1313.94233	52567
1317.45412	48327.4
1320.96354	41947.4
1324.47058	36234.7
1327.97525	32161.1
1331.47754	29856.2
1334.97747	29163.2
1338.47502	29751.5
1341.97022	31433.9
1345.46305	34257
1348.95352	37844
1352.44163	42167.9
1355.92738	48922.7
1359.41078	59346.2
1362.89183	67679.7
1366.37053	62557.4
1369.84688	48640.4
1373.32088	37533.4
1376.79254	31454.6
1380.26186	28087.2
1383.72883	25887.4
1387.19347	24207.6
1390.65578	22844.9
1394.11575	22016.3
1397.57339	21710.3
1401.0287	21805.9
1404.48168	22023.9
1407.93234	22196.4
1411.38068	22363.9
1414.82669	22474.8
1418.27039	22329.2
1421.71177	21831.5
1425.15083	21305.8
1428.58758	21197.7
1432.02203	21580.6
1435.45416	21869.3
1438.88399	21802.2
1442.31151	21653.8
1445.73673	21777.9
1449.15965	21991.3
1452.58027	22014.8
1455.9986	21798.2
1459.41463	21781.5
1462.82837	22199.1
1466.23982	22948.1
1469.64898	23612.5
1473.05586	23887.5
1476.46045	23955.9
1479.86276	24261
1483.26279	24929.2
1486.66054	26014.6
1490.05602	27588.7
1493.44922	29962.3
1496.84016	33708.5
1500.22882	39616.7
1503.61521	48025.7
1506.99934	57542.5
1510.38121	64329.1
1513.76081	63998.8
1517.13816	56201.8
1520.51324	45509.4
1523.88607	36805.8
1527.25665	31411
1530.62498	28482.1
1533.99105	26777.2
1537.35488	25699.2
1540.71647	25050.7
1544.07581	24837
1547.4329	24921.8
1550.78776	25184.2
1554.14038	25516.6
1557.49077	25943.6
1560.83892	26631.3
1564.18484	27953.5
1567.52853	29498.3
1570.86999	30676.2
1574.20922	31178.7
1577.54624	30498.3
1580.88103	27939.6
1584.2136	24945.3
1587.54395	23453.3
1590.87208	23870.9
1594.19801	25724.4
1597.52172	28163.3
1600.84321	29012.5
1604.16251	27612.2
1607.47959	25278.6
1610.79447	22840.1
1614.10715	20657.1
1617.41763	18970.6
1620.7259	17972.9
1624.03199	17626.3
1627.33587	17867.1
1630.63757	18714.2
1633.93707	20282.7
1637.23439	22747
1640.52951	26482.7
1643.82246	31933.7
1647.11321	38180.5
1650.40179	41734.6
1653.68819	39013.6
1656.97241	31597.6
1660.25446	24374.6
1663.53433	19739.9
1666.81203	17119.9
1670.08756	15627.9
1673.36092	14743.8
1676.63211	14185.3
1679.90115	13818.7
1683.16801	13536.8
1686.43272	13288.6
1689.69527	13082.7
1692.95567	12922.3
1696.2139	12768.4
1699.46999	12615.8
1702.72392	12584.8
1705.97571	12623.1
1709.22535	12693.3
1712.47284	12728.8
1715.71819	12740.1
1718.96139	12697.3
1722.20246	12649
1725.44139	12481.1
1728.67818	12352.6
1731.91284	12202.8
1735.14537	12120.1
1738.37576	12017.8
1741.60403	11975.3
1744.83017	11933.7
1748.05418	11850.5
1751.27607	11774.3
1754.49584	11720
1757.71349	11638.3
1760.92903	11535.6
1764.14244	11496
1767.35375	11470.4
1770.56294	11397
1773.77002	11380.2
1776.97499	11375.8
1780.17785	11378.9
1783.37861	11366.2
1786.57727	11342.5
1789.77382	11325.4
1792.96828	11316.8
1796.16064	11311
1799.3509	11294.5
1802.53907	11264.2
1805.72514	11251.3
1808.90913	11187.4
1812.09102	11169.7
1815.27083	11146.4
1818.44856	11106.3
1821.6242	11074
1824.79776	11060.7
1827.96924	11055.5
1831.13864	11060.5
1834.30597	11016.9
1837.47122	10978.1
1840.6344	10977
1843.7955	10963.5
1846.95454	10949.7
1850.11151	10960.7
1853.26642	10942.8
1856.41926	10948.8
1859.57004	10952.7
1862.71876	10967.9
1865.86542	10971.6
1869.01003	10969
1872.15258	10969.6
1875.29308	11016.6
1878.43152	11000.4
1881.56792	11009
1884.70227	11010.2
1887.83457	11003
1890.96482	10995.1
1894.09304	11000.3
1897.21921	10973.8
1900.34335	11007.5
1903.46544	11019.7
1906.58551	10994
1909.70353	11003.4
1912.81953	11010.4
1915.93349	10990.4
1919.04543	10955
1922.15534	10935.2
1925.26322	10921.5
1928.36908	10863.6
1931.47292	10779.9
1934.57473	10738.6
1937.67453	10663.2
1940.77232	10637.2
1943.86808	10601.9
1946.96184	10585.1
1950.05358	10523.4
1953.14331	10506.2
1956.23103	10467.1
1959.31675	10424.6
1962.40046	10435.7
1965.48217	10416.3
1968.56188	10402.1
1971.63959	10368
1974.7153	10324.8
1977.78901	10310.1
1980.86073	10236.4
1983.93046	10210.6
1986.99819	10167
1990.06394	10105.6
1993.1277	10065.3
1996.18947	10028
1999.24925	10007.1
2002.30706	9955.9
2005.36288	9947.9
2008.41672	9915.3
2011.46859	9879.2
2014.51848	9855.3
2017.56639	9825.2
2020.61233	9780.9
2023.6563	9773
2026.6983	9750.5
2029.73833	9734.9
2032.7764	9706.9
2035.8125	9696.4
2038.84664	9675
2041.87881	9667.5
2044.90903	9657.5
2047.93729	9624.4
2050.96359	9617.2
2053.98794	9628.3
2057.01034	9597.2
2060.03078	9596
2063.04927	9557.9
2066.06582	9564.2
2069.08042	9524.3
2072.09307	9530.7
2075.10378	9508.3
2078.11255	9526.5
2081.11938	9515.3
2084.12426	9505.3
2087.12722	9504
2090.12824	9499.4
2093.12732	9478.6
2096.12447	9477.9
2099.11969	9484.5
2102.11299	9501.1
2105.10435	9498
2108.09379	9504.6
2111.08131	9526.9
2114.0669	9509.9
2117.05057	9524
2120.03233	9562.9
2123.01216	9556.3
2125.99008	9580.2
2128.96609	9600.7
2131.94018	9584
2134.91236	9589
2137.88263	9596.5
2140.851	9590.8
2143.81746	9576.4
2146.78201	9569.2
2149.74466	9549.9
2152.7054	9541.6
2155.66425	9535.8
2158.6212	9528.3
2161.57625	9521.9
2164.52941	9515.6
2167.48067	9501.8
2170.43004	9494.5
2173.37752	9515.5
2176.32311	9530.6
2179.26681	9519.8
2182.20863	9536.5
2185.14856	9559.8
2188.08661	9528.5
2191.02278	9526.9
2193.95707	9501.5
2196.88948	9511.8
2199.82001	9517.8
2202.74867	9518.5
2205.67545	9479.6
2208.60037	9496.1
2211.52341	9513.8
2214.44458	9486.6
2217.36388	9452.3
2220.28132	9457
2223.1969	9422.3
2226.11061	9403.5
2229.02246	9414.7
2231.93245	9393.7
2234.84058	9368.9
2237.74686	9342.4
2240.65128	9327.3
2243.55385	9350.5
2246.45456	9358.7
2249.35343	9343.9
2252.25044	9344
2255.14561	9344.9
2258.03893	9381.6
2260.93041	9365
2263.82004	9364.6
2266.70783	9346.1
2269.59378	9311.7
2272.4779	9308
2275.36017	9268
2278.24061	9267.8
2281.11922	9234.6
2283.996	9209.8
2286.87094	9204.5
2289.74405	9161.8
2292.61534	9153.6
2295.4848	9140.7
2298.35243	9133.1
2301.21824	9141.4
2304.08223	9124
2306.94439	9147.6
2309.80474	9117.5
2312.66327	9144.2
2315.51999	9140.9
2318.37489	9161.8
2321.22797	9155
2324.07925	9124.1
2326.92871	9120.8
2329.77637	9108.7
2332.62222	9094.8
2335.46626	9103.3
2338.3085	9120.5
2341.14893	9134.7
2343.98756	9168.7
2346.8244	9157.8
2349.65943	9198.9
2352.49267	9224.2
2355.32411	9230.2
2358.15376	9265
2360.98161	9277.2
2363.80768	9265.7
2366.63195	9289.8
2369.45444	9290.4
2372.27514	9265.8
2375.09405	9267.3
2377.91118	9246.5
2380.72652	9180.8
2383.54009	9137
2386.35187	9114.3
2389.16188	9055.1
2391.97011	9046.3
2394.77657	8993.5
2397.58125	8975.1
2400.38416	8945.2
2403.18529	8917.6
2405.98466	8907.9
2408.78226	8898.1
2411.57809	8864.6
2414.37216	8842.3
2417.16446	8831.9
2419.955	8822.6
2422.74378	8801.1
2425.5308	8838.4
2428.31606	8814.5
2431.09956	8835.4
2433.88131	8791.6
2436.6613	8839.8
2439.43954	8833
2442.21603	8840.2
2444.99077	8852.4
2447.76377	8863.8
2450.53501	8869.1
2453.30451	8876.1
2456.07226	8862.1
2458.83827	8860.4
2461.60254	8871.2
2464.36507	8877.6
2467.12586	8867.9
2469.88492	8871.6
2472.64224	8887.3
2475.39782	8886.1
2478.15167	8902.9
2480.90379	8944.4
2483.65417	8989.3
2486.40283	9036.5
2489.14976	9075
2491.89497	9085.9
2494.63845	9106.9
2497.3802	9052.8
2500.12024	9049.6
2502.85855	9025.7
2505.59514	8974.4
2508.33002	8937.9
2511.06318	8884.5
2513.79462	8850.3
2516.52435	8823.8
2519.25237	8787.4
2521.97867	8757.5
2524.70327	8737.9
2527.42616	8703.8
2530.14734	8693.2
2532.86681	8701.9
2535.58458	8708
2538.30065	8722
2541.01501	8723.7
2543.72768	8703.2
2546.43864	8737.3
2549.14791	8705.4
2551.85548	8733.8
2554.56136	8719
2557.26554	8707.6
2559.96803	8721.5
2562.66883	8737.6
2565.36794	8713.3
2568.06536	8704.6
2570.7611	8722.4
2573.45514	8690.1
2576.14751	8665.5
2578.83819	8664.7
2581.52719	8651.4
2584.21451	8632.5
2586.90015	8627.5
2589.58411	8616.2
2592.2664	8625.9
2594.94701	8639.7
2597.62594	8644.8
2600.30321	8639.8
2602.9788	8640.7
2605.65273	8645.5
2608.32498	8656.3
2610.99557	8640.7
2613.66449	8658.3
2616.33175	8688.1
2618.99734	8685.1
2621.66128	8666.7
2624.32355	8679.7
2626.98416	8658.4
2629.64311	8666.4
2632.30041	8635.4
2634.95605	8622.2
2637.61004	8598.3
2640.26238	8592.5
2642.91306	8557.6
2645.56209	8543.5
2648.20948	8528
2650.85521	8532.2
2653.4993	8530.1
2656.14175	8544.3
2658.78255	8584.8
2661.42171	8594.7
2664.05923	8609.3
2666.6951	8635.7
2669.32934	8650.6
2671.96194	8642.6
2674.59291	8682
2677.22224	8672.3
2679.84993	8682.9
2682.476	8647.2
2685.10043	8657.9
2687.72324	8619.1
2690.34441	8628.2
2692.96396	8599.6
2695.58188	8587.5
2698.19818	8608.2
2700.81285	8606.2
2703.4259	8570.1
2706.03733	8519.8
2708.64714	8519.1
2711.25533	8583.9
2713.86191	8600.3
2716.46687	8605.3
2719.07021	8620.2
2721.67194	8644.4
2724.27206	8649.9
2726.87057	8669.9
2729.46747	8655.9
2732.06276	8625.8
2734.65644	8621.9
2737.24852	8620.7
2739.83899	8605.8
2742.42786	8586.7
2745.01513	8582
2747.60079	8561.5
2750.18486	8557.5
2752.76733	8534.3
2755.3482	8534.7
2757.92747	8517.3
2760.50515	8506.8
2763.08123	8528.6
2765.65573	8499.9
2768.22863	8495.3
2770.79994	8506.2
2773.36967	8519
2775.9378	8528.2
2778.50435	8518.1
2781.06932	8516.6
2783.6327	8533.2
2786.1945	8538.6
2788.75471	8525.3
2791.31335	8511.8
2793.87041	8526
2796.42589	8508
2798.97979	8513.3
2801.53212	8501.2
2804.08288	8490.7
2806.63206	8508.1
2809.17967	8521.6
2811.72571	8518.2
2814.27018	8525.2
2816.81308	8534.6
2819.35442	8574.2
2821.89419	8565.8
2824.43239	8597.3
2826.96904	8606.4
2829.50412	8597.3
2832.03763	8584.5
2834.56959	8566
2837.1	8546.3
2839.62884	8547.2
2842.15613	8547.4
2844.68186	8556.6
2847.20604	8557.5
2849.72867	8594.3
2852.24974	8601.5
2854.76927	8591.4
2857.28724	8589.5
2859.80367	8636.2
2862.31855	8687.8
2864.83189	8683.2
2867.34368	8694.2
2869.85393	8738.2
2872.36264	8743
2874.8698	8742.1
2877.37543	8713.3
2879.87952	8691.9
2882.38207	8690.9
2884.88308	8683.4
2887.38256	8689.8
2889.88051	8683.7
2892.37692	8712.1
2894.8718	8687.9
2897.36515	8698.9
2899.85698	8685.4
2902.34727	8700.1
2904.83604	8717.1
2907.32328	8734.9
2909.809	8734.2
2912.29319	8702.1
2914.77587	8687.4
2917.25702	8665.9
2919.73665	8649.6
2922.21476	8633.1
2924.69136	8623.1
2927.16644	8596.7
2929.64	8574.6
2932.11205	8554.2
2934.58258	8499.6
2937.05161	8495.7
2939.51912	8525.6
2941.98513	8510
2944.44962	8498.9
2946.91261	8441.4
2949.37409	8479
2951.83407	8466.3
2954.29254	8461.9
2956.74951	8450.2
2959.20498	8446.7
2961.65895	8400.6
2964.11142	8404.4
2966.56239	8366.9
2969.01186	8345.8
2971.45984	8316
2973.90632	8311.3
2976.35131	8288
2978.7948	8246.9
2981.23681	8232.9
2983.67732	8250.6
2986.11635	8223.7
2988.55388	8157.1
2990.98993	8173
2993.4245	8185.2
2995.85758	8161.5
2998.28917	8141
3000.71928	8146.8
3003.14791	8132.8
3005.57506	8140.1
3008.00073	8112.7
3010.42493	8106.1
3012.84764	8122.1
3015.26888	8101.1
3017.68865	8074.8
3020.10694	8092.6
3022.52376	8049
3024.9391	8026
3027.35298	8021
3029.76539	8016.6
3032.17632	7994.9
3034.5858	7948.3
3036.9938	7961.2
3039.40034	7927.5
3041.80542	7904.9
3044.20903	7887.2
3046.61118	7892.7
3049.01187	7880.7
3051.4111	7860.1
3053.80888	7860.2
3056.20519	7837.1
3058.60005	7812.4
3060.99345	7795.5
3063.3854	7763.6
3065.7759	7742.7
3068.16494	7714.5
3070.55254	7701.8
3072.93868	7662.5
3075.32338	7633.4
3077.70662	7661.8
3080.08842	7588.5
3082.46878	7606.7
3084.84769	7583.8
3087.22515	7567.3
3089.60118	7591.7
3091.97576	7558
3094.3489	7560.5
3096.72061	7569.8
3099.09087	7562.5
3101.4597	7568.5
3103.82709	7569.5
3106.19305	7552.3
3108.55757	7574.2
3110.92066	7547.1
3113.28232	7531.9
3115.64255	7515.1
3118.00134	7500.7
3120.35871	7491.1
3122.71466	7484.4
3125.06917	7461.2
3127.42226	7459.3
3129.77393	7493.5
3132.12417	7460.3
3134.47299	7486
3136.82039	7456.6
3139.16636	7483.3
3141.51092	7465.1
3143.85406	7468.4
3146.19579	7494.6
3148.53609	7479.2
3150.87499	7500.4
3153.21246	7506.1
3155.54853	7528.8
3157.88318	7520
3160.21642	7545.4
3162.54826	7525.8
3164.87868	7534.1
3167.2077	7531.3
3169.5353	7535.1
3171.86151	7522.9
3174.18631	7520.3
3176.5097	7526.3
3178.83169	7504.6
3181.15228	7510.4
3183.47147	7505.3
3185.78926	7507.4
3188.10565	7477.4
3190.42065	7488.3
3192.73424	7519.7
3195.04645	7510.8
3197.35725	7545.1
3199.66667	7539.1
3201.97469	7572.4
3204.28132	7535.4
3206.58656	7592.3
3208.8904	7594.7
3211.19287	7615.1
3213.49394	7618.3
3215.79363	7627.9
3218.09193	7633.2
3220.38884	7646.8
3222.68438	7663.6
3224.97853	7661.4
3227.2713	7652.4
3229.56269	7663.6
3231.8527	7658.6
3234.14133	7655.9
3236.42858	7654.8
3238.71446	7654.7
3240.99896	7635.3
3243.28209	7621.2
3245.56384	7629
3247.84423	7630.3
3250.12324	7636.6
3252.40088	7624.6
3254.67715	7639.4
3256.95205	7623
3259.22558	7635.1
3261.49775	7629.5
3263.76855	7621.7
3266.03799	7601.7
3268.30606	7595
3270.57277	7622.1
3272.83812	7592.8
3275.10211	7570.5
3277.36474	7571.6
3279.62601	7616.9
3281.88593	7589.6
3284.14448	7574.4
3286.40168	7596.9
3288.65753	7603.9
3290.91202	7594.4
3293.16516	7599.9
3295.41695	7571.9
3297.66738	7556.1
3299.91647	7505.6
3302.16421	7471.4
3304.4106	7402.8
3306.65564	7373.4
3308.89933	7306.2
3311.14169	7273.4
3313.38269	7198.3
3315.62236	7144.3
3317.86068	7087.5
3320.09766	7035.2
3322.3333	6985.3
3324.5676	6951.4
3326.80056	6811.9
3329.03219	6758.2
3331.26248	1.8
3333.49143	-1.3
3335.71905	0.5
