Data from AgNPs_FTO_APTES_UA_50uM_CRN_100uM_R6G_10uM_NaF_0.1M_Addition_RamanShift__9__15-26-25-025.txt Node

Date: Mon Feb 21 15:26:25 GMT 2022
User: TCL
Spectrometer: QEP01345
Trigger mode: 4
Integration Time (sec): 7.000000E0
Scans to average: 10
Electric dark correction enabled: true
Nonlinearity correction enabled: false
Boxcar width: 0
XAxis mode: Raman Shifts
Number of Pixels in Spectrum: 1044
>>>>>Begin Spectral Data<<<<<
46.04893	0.1375
50.45542	0.5375
54.85868	0.2375
59.25871	-2.5625
63.6555	52.1375
68.04907	60.1375
72.43941	57.1375
76.82654	66.3375
81.21044	66.4375
85.59113	68.6375
89.96862	72.2375
94.34289	74.3375
98.71396	75.5375
103.08183	84.2375
107.4465	82.0375
111.80798	80.2375
116.16626	79.4375
120.52136	81.2375
124.87327	87.0375
129.222	88.4375
133.56755	93.1375
137.90993	94.5375
142.24913	104.0375
146.58517	110.2375
150.91804	128.2375
155.24774	146.5375
159.57429	176.2375
163.89768	220.7375
168.21792	287.2375
172.53501	392.4375
176.84895	534.3375
181.15975	754.8375
185.46741	1058.5375
189.77193	1451.4375
194.07331	1934.6375
198.37157	2492.7375
202.6667	3090.9375
206.9587	3675.9375
211.24758	4244.5375
215.53334	4806.2375
219.81599	5413.9375
224.09553	6071.4375
228.37195	6781.7375
232.64527	7618.0375
236.91549	8472.4375
241.18261	9328.1375
245.44663	10145.4375
249.70755	10837.7375
253.96539	11478.1375
258.22014	11983.2375
262.4718	12349.3375
266.72039	12628.7375
270.96589	12756.8375
275.20832	12805.3375
279.44768	12676.3375
283.68397	12546.1375
287.91719	12398.5375
292.14735	12341.8375
296.37445	12292.6375
300.59849	12334.8375
304.81948	12393.1375
309.03742	12405.1375
313.25231	12339.5375
317.46415	12199.2375
321.67296	11935.1375
325.87872	11742.1375
330.08145	11668.7375
334.28114	11652.0375
338.47781	11724.9375
342.67145	11887.4375
346.86207	12093.8375
351.04966	12311.8375
355.23424	12549.9375
359.4158	12748.8375
363.59435	12904.0375
367.76989	12988.0375
371.94243	13055.7375
376.11196	13131.3375
380.27849	13175.5375
384.44203	13234.4375
388.60257	13304.1375
392.76012	13437.6375
396.91468	13558.6375
401.06626	13741.7375
405.21485	13848.4375
409.36047	13802.8375
413.50311	13589.0375
417.64277	13420.7375
421.77947	13340.6375
425.9132	13373.6375
430.04396	13421.7375
434.17176	13471.1375
438.2966	13587.5375
442.41849	13773.8375
446.53742	14041.9375
450.6534	14308.7375
454.76644	14517.2375
458.87653	14597.8375
462.98368	14566.0375
467.08789	14492.9375
471.18916	14383.5375
475.2875	14182.3375
479.38291	14036.4375
483.4754	13894.0375
487.56496	13801.3375
491.6516	13686.9375
495.73531	13641.1375
499.81612	13639.4375
503.89401	13743.0375
507.96899	13832.0375
512.04106	13830.9375
516.11023	13799.6375
520.1765	13772.7375
524.23987	13717.5375
528.30034	13624.6375
532.35792	13610.3375
536.41261	13526.9375
540.46441	13408.6375
544.51333	13377.8375
548.55936	13482.8375
552.60252	13646.4375
556.64279	13894.2375
560.6802	14022.8375
564.71473	14061.9375
568.7464	14135.9375
572.7752	14338.4375
576.80114	14569.5375
580.82422	14799.5375
584.84444	15115.0375
588.86181	15505.9375
592.87633	15905.7375
596.888	16041.3375
600.89682	15866.3375
604.9028	15974.3375
608.90594	17050.0375
612.90624	18333.3375
616.90371	17464.2375
620.89834	15031.0375
624.89015	13956.0375
628.87913	13807.7375
632.86528	13930.6375
636.84862	14063.7375
640.82913	13940.3375
644.80683	13678.5375
648.78172	13480.1375
652.75379	13455.0375
656.72306	13619.5375
660.68952	13817.6375
664.65319	13727.7375
668.61405	13558.2375
672.57211	13534.4375
676.52738	13611.9375
680.47986	13624.1375
684.42955	13573.9375
688.37646	13469.1375
692.32058	13479.1375
696.26192	13550.8375
700.20048	13649.0375
704.13626	13726.0375
708.06928	13751.0375
711.99952	13677.6375
715.927	13640.3375
719.85171	13681.4375
723.77365	13689.8375
727.69284	13552.8375
731.60928	13471.9375
735.52295	13441.6375
739.43388	13458.1375
743.34206	13459.8375
747.24749	13516.0375
751.15017	13591.2375
755.05012	13764.3375
758.94733	14031.9375
762.8418	14566.8375
766.73354	15524.6375
770.62254	16446.8375
774.50882	16757.3375
778.39237	16229.8375
782.27321	15274.4375
786.15132	14423.7375
790.02671	13877.6375
793.89938	13616.7375
797.76935	13475.2375
801.6366	13403.4375
805.50115	13366.4375
809.36299	13294.4375
813.22213	13218.0375
817.07857	13169.2375
820.93231	13173.3375
824.78336	13102.1375
828.63172	13091.6375
832.47738	13070.9375
836.32036	13077.6375
840.16066	13078.6375
843.99827	13096.6375
847.8332	13056.9375
851.66546	13089.3375
855.49504	13094.7375
859.32195	13104.9375
863.1462	13100.9375
866.96777	13093.3375
870.78668	13065.4375
874.60293	13104.0375
878.41652	13151.4375
882.22745	13206.2375
886.03573	13240.5375
889.84136	13220.5375
893.64433	13189.7375
897.44466	13180.9375
901.24235	13111.4375
905.0374	13096.0375
908.8298	13056.2375
912.61957	13045.5375
916.40671	13098.5375
920.19121	13176.0375
923.97308	13275.4375
927.75233	13308.0375
931.52895	13297.6375
935.30295	13113.8375
939.07433	12941.7375
942.84309	12826.3375
946.60924	12728.5375
950.37278	12703.5375
954.13371	12682.7375
957.89203	12658.3375
961.64774	12638.8375
965.40086	12627.1375
969.15137	12605.2375
972.89929	12589.0375
976.64461	12591.0375
980.38733	12539.6375
984.12747	12572.8375
987.86502	12628.9375
991.59999	12675.6375
995.33237	12769.6375
999.06217	12911.6375
1002.78939	13047.3375
1006.51404	13248.8375
1010.23611	13430.5375
1013.95561	13606.3375
1017.67255	13626.2375
1021.38692	13586.1375
1025.09872	13415.1375
1028.80796	13287.5375
1032.51465	13252.7375
1036.21877	13255.3375
1039.92035	13326.3375
1043.61937	13310.9375
1047.31584	13335.6375
1051.00976	13345.8375
1054.70114	13368.2375
1058.38998	13371.5375
1062.07627	13478.6375
1065.76003	13601.2375
1069.44126	13686.0375
1073.11995	13895.0375
1076.79611	14022.5375
1080.46974	14144.8375
1084.14085	14250.9375
1087.80943	14323.6375
1091.47549	14403.3375
1095.13903	14420.5375
1098.80005	14266.2375
1102.45857	14050.4375
1106.11456	13872.6375
1109.76805	13778.3375
1113.41903	13784.2375
1117.06751	13902.0375
1120.71348	14036.7375
1124.35696	14204.4375
1127.99793	14353.5375
1131.63641	14453.0375
1135.2724	14389.2375
1138.90589	14316.8375
1142.5369	14227.0375
1146.16542	14195.0375
1149.79145	14225.5375
1153.415	14230.7375
1157.03607	14283.6375
1160.65467	14532.1375
1164.27079	14920.7375
1167.88443	15449.8375
1171.49561	16106.3375
1175.10432	16956.2375
1178.71056	18074.0375
1182.31434	19109.4375
1185.91565	19700.8375
1189.51451	19746.5375
1193.11091	19421.1375
1196.70485	18865.0375
1200.29634	18236.2375
1203.88538	17627.3375
1207.47197	17106.5375
1211.05612	16619.7375
1214.63782	16251.4375
1218.21708	15977.0375
1221.79391	15804.7375
1225.36829	15720.5375
1228.94024	15687.3375
1232.50976	15597.9375
1236.07685	15514.3375
1239.6415	15429.2375
1243.20374	15404.4375
1246.76355	15459.8375
1250.32093	15548.9375
1253.8759	15733.1375
1257.42845	16028.4375
1260.97859	16338.1375
1264.52631	16728.6375
1268.07163	17074.7375
1271.61453	17418.8375
1275.15503	17704.0375
1278.69312	17978.0375
1282.22882	18296.0375
1285.76211	18676.9375
1289.29301	19173.1375
1292.82151	19711.7375
1296.34761	20374.4375
1299.87133	21238.0375
1303.39266	22119.7375
1306.9116	23060.0375
1310.42815	23957.8375
1313.94233	24446.1375
1317.45412	24306.1375
1320.96354	23792.3375
1324.47058	23212.4375
1327.97525	22681.7375
1331.47754	22330.7375
1334.97747	22183.7375
1338.47502	22186.8375
1341.97022	22313.7375
1345.46305	22592.3375
1348.95352	22915.8375
1352.44163	23338.6375
1355.92738	23979.5375
1359.41078	24923.9375
1362.89183	25812.7375
1366.37053	25468.3375
1369.84688	23606.1375
1373.32088	21270.1375
1376.79254	19570.4375
1380.26186	18751.2375
1383.72883	18401.4375
1387.19347	18171.3375
1390.65578	17857.2375
1394.11575	17671.7375
1397.57339	17601.0375
1401.0287	17653.7375
1404.48168	17716.3375
1407.93234	17656.0375
1411.38068	17580.5375
1414.82669	17306.5375
1418.27039	16994.3375
1421.71177	16656.2375
1425.15083	16313.5375
1428.58758	16162.4375
1432.02203	16190.4375
1435.45416	16359.0375
1438.88399	16585.4375
1442.31151	16742.7375
1445.73673	16823.0375
1449.15965	16908.7375
1452.58027	16960.8375
1455.9986	16952.1375
1459.41463	17084.6375
1462.82837	17286.5375
1466.23982	17613.0375
1469.64898	17887.5375
1473.05586	18158.8375
1476.46045	18309.5375
1479.86276	18410.8375
1483.26279	18417.8375
1486.66054	18485.6375
1490.05602	18689.2375
1493.44922	19059.8375
1496.84016	19581.2375
1500.22882	20279.3375
1503.61521	21168.2375
1506.99934	22093.3375
1510.38121	22730.2375
1513.76081	22689.0375
1517.13816	21929.8375
1520.51324	20904.8375
1523.88607	20076.5375
1527.25665	19535.2375
1530.62498	19304.5375
1533.99105	19053.9375
1537.35488	18742.2375
1540.71647	18451.8375
1544.07581	18108.6375
1547.4329	17764.7375
1550.78776	17475.3375
1554.14038	17324.8375
1557.49077	17263.4375
1560.83892	17309.1375
1564.18484	17394.1375
1567.52853	17522.4375
1570.86999	17683.0375
1574.20922	17924.6375
1577.54624	18000.4375
1580.88103	17747.8375
1584.2136	17477.0375
1587.54395	17483.6375
1590.87208	17857.3375
1594.19801	18498.0375
1597.52172	19294.8375
1600.84321	19664.8375
1604.16251	19262.6375
1607.47959	18391.0375
1610.79447	17366.8375
1614.10715	16387.3375
1617.41763	15472.7375
1620.7259	14825.1375
1624.03199	14449.6375
1627.33587	14373.0375
1630.63757	14530.0375
1633.93707	15082.0375
1637.23439	16060.6375
1640.52951	17504.4375
1643.82246	19299.2375
1647.11321	20891.2375
1650.40179	21395.5375
1653.68819	20382.8375
1656.97241	18308.0375
1660.25446	16239.0375
1663.53433	14658.3375
1666.81203	13656.0375
1670.08756	13069.8375
1673.36092	12667.9375
1676.63211	12440.4375
1679.90115	12226.7375
1683.16801	12082.3375
1686.43272	12005.7375
1689.69527	11882.1375
1692.95567	11731.0375
1696.2139	11592.8375
1699.46999	11460.0375
1702.72392	11391.5375
1705.97571	11455.4375
1709.22535	11532.0375
1712.47284	11581.6375
1715.71819	11585.0375
1718.96139	11597.5375
1722.20246	11572.8375
1725.44139	11538.3375
1728.67818	11491.5375
1731.91284	11408.6375
1735.14537	11350.1375
1738.37576	11319.6375
1741.60403	11273.1375
1744.83017	11204.2375
1748.05418	11218.7375
1751.27607	11195.2375
1754.49584	11132.8375
1757.71349	11067.9375
1760.92903	11027.9375
1764.14244	11009.3375
1767.35375	11010.3375
1770.56294	10972.0375
1773.77002	10944.3375
1776.97499	10955.2375
1780.17785	10991.9375
1783.37861	11010.2375
1786.57727	10985.6375
1789.77382	10977.6375
1792.96828	10976.9375
1796.16064	10965.5375
1799.3509	10926.6375
1802.53907	10904.6375
1805.72514	10905.0375
1808.90913	10860.5375
1812.09102	10849.9375
1815.27083	10841.4375
1818.44856	10832.6375
1821.6242	10811.5375
1824.79776	10769.2375
1827.96924	10805.0375
1831.13864	10755.3375
1834.30597	10767.6375
1837.47122	10748.8375
1840.6344	10745.6375
1843.7955	10738.2375
1846.95454	10744.9375
1850.11151	10727.8375
1853.26642	10723.3375
1856.41926	10707.6375
1859.57004	10703.2375
1862.71876	10667.6375
1865.86542	10668.9375
1869.01003	10677.5375
1872.15258	10628.9375
1875.29308	10629.1375
1878.43152	10628.3375
1881.56792	10601.9375
1884.70227	10606.0375
1887.83457	10569.0375
1890.96482	10563.0375
1894.09304	10550.2375
1897.21921	10528.4375
1900.34335	10527.0375
1903.46544	10508.5375
1906.58551	10494.6375
1909.70353	10488.2375
1912.81953	10461.5375
1915.93349	10466.5375
1919.04543	10431.3375
1922.15534	10436.7375
1925.26322	10374.9375
1928.36908	10362.2375
1931.47292	10337.8375
1934.57473	10299.6375
1937.67453	10295.2375
1940.77232	10275.7375
1943.86808	10259.2375
1946.96184	10228.9375
1950.05358	10201.2375
1953.14331	10170.0375
1956.23103	10134.4375
1959.31675	10099.6375
1962.40046	10080.8375
1965.48217	10075.1375
1968.56188	10018.3375
1971.63959	10022.2375
1974.7153	9988.7375
1977.78901	9951.9375
1980.86073	9914.9375
1983.93046	9882.1375
1986.99819	9816.8375
1990.06394	9805.1375
1993.1277	9783.3375
1996.18947	9761.3375
1999.24925	9752.8375
2002.30706	9699.3375
2005.36288	9685.2375
2008.41672	9662.4375
2011.46859	9599.8375
2014.51848	9595.9375
2017.56639	9554.2375
2020.61233	9518.9375
2023.6563	9528.9375
2026.6983	9502.6375
2029.73833	9462.8375
2032.7764	9449.0375
2035.8125	9399.7375
2038.84664	9408.7375
2041.87881	9412.6375
2044.90903	9379.9375
2047.93729	9366.7375
2050.96359	9376.5375
2053.98794	9350.4375
2057.01034	9357.7375
2060.03078	9351.6375
2063.04927	9363.7375
2066.06582	9335.9375
2069.08042	9306.6375
2072.09307	9292.5375
2075.10378	9286.7375
2078.11255	9291.5375
2081.11938	9308.9375
2084.12426	9285.1375
2087.12722	9303.3375
2090.12824	9261.8375
2093.12732	9266.6375
2096.12447	9255.4375
2099.11969	9284.0375
2102.11299	9270.4375
2105.10435	9282.0375
2108.09379	9275.1375
2111.08131	9291.7375
2114.0669	9279.9375
2117.05057	9271.7375
2120.03233	9286.9375
2123.01216	9330.1375
2125.99008	9340.5375
2128.96609	9316.5375
2131.94018	9333.7375
2134.91236	9344.9375
2137.88263	9332.8375
2140.851	9340.1375
2143.81746	9349.3375
2146.78201	9369.6375
2149.74466	9370.2375
2152.7054	9354.5375
2155.66425	9353.2375
2158.6212	9350.7375
2161.57625	9320.0375
2164.52941	9325.8375
2167.48067	9309.1375
2170.43004	9319.8375
2173.37752	9313.3375
2176.32311	9310.7375
2179.26681	9331.5375
2182.20863	9300.4375
2185.14856	9301.2375
2188.08661	9328.5375
2191.02278	9326.3375
2193.95707	9315.3375
2196.88948	9301.9375
2199.82001	9297.3375
2202.74867	9299.2375
2205.67545	9286.7375
2208.60037	9237.7375
2211.52341	9223.4375
2214.44458	9237.2375
2217.36388	9195.5375
2220.28132	9191.7375
2223.1969	9179.9375
2226.11061	9149.9375
2229.02246	9136.7375
2231.93245	9112.6375
2234.84058	9112.5375
2237.74686	9101.2375
2240.65128	9085.1375
2243.55385	9090.6375
2246.45456	9075.6375
2249.35343	9086.0375
2252.25044	9055.0375
2255.14561	9046.6375
2258.03893	9028.5375
2260.93041	8980.6375
2263.82004	8959.0375
2266.70783	8972.9375
2269.59378	8950.0375
2272.4779	8914.7375
2275.36017	8887.9375
2278.24061	8885.6375
2281.11922	8852.3375
2283.996	8856.0375
2286.87094	8835.6375
2289.74405	8820.5375
2292.61534	8832.4375
2295.4848	8809.9375
2298.35243	8821.0375
2301.21824	8799.4375
2304.08223	8805.7375
2306.94439	8795.3375
2309.80474	8789.6375
2312.66327	8772.2375
2315.51999	8769.5375
2318.37489	8755.6375
2321.22797	8744.9375
2324.07925	8748.6375
2326.92871	8732.7375
2329.77637	8711.2375
2332.62222	8690.8375
2335.46626	8690.0375
2338.3085	8663.6375
2341.14893	8667.5375
2343.98756	8681.2375
2346.8244	8672.1375
2349.65943	8681.4375
2352.49267	8659.1375
2355.32411	8635.3375
2358.15376	8638.3375
2360.98161	8657.3375
2363.80768	8639.5375
2366.63195	8623.7375
2369.45444	8628.9375
2372.27514	8602.7375
2375.09405	8598.0375
2377.91118	8604.3375
2380.72652	8569.5375
2383.54009	8566.0375
2386.35187	8556.5375
2389.16188	8503.4375
2391.97011	8486.5375
2394.77657	8486.8375
2397.58125	8468.5375
2400.38416	8451.5375
2403.18529	8434.9375
2405.98466	8445.0375
2408.78226	8414.1375
2411.57809	8421.3375
2414.37216	8422.5375
2417.16446	8389.4375
2419.955	8374.0375
2422.74378	8391.1375
2425.5308	8384.5375
2428.31606	8357.8375
2431.09956	8365.5375
2433.88131	8339.2375
2436.6613	8352.9375
2439.43954	8377.8375
2442.21603	8329.1375
2444.99077	8339.6375
2447.76377	8369.2375
2450.53501	8332.8375
2453.30451	8326.2375
2456.07226	8324.0375
2458.83827	8300.4375
2461.60254	8302.4375
2464.36507	8295.0375
2467.12586	8291.3375
2469.88492	8292.9375
2472.64224	8293.5375
2475.39782	8309.0375
2478.15167	8281.9375
2480.90379	8267.5375
2483.65417	8275.6375
2486.40283	8273.1375
2489.14976	8287.7375
2491.89497	8258.8375
2494.63845	8244.1375
2497.3802	8231.3375
2500.12024	8247.5375
2502.85855	8228.3375
2505.59514	8239.1375
2508.33002	8232.2375
2511.06318	8219.5375
2513.79462	8215.3375
2516.52435	8217.5375
2519.25237	8186.8375
2521.97867	8175.2375
2524.70327	8170.4375
2527.42616	8143.7375
2530.14734	8162.6375
2532.86681	8145.2375
2535.58458	8145.7375
2538.30065	8158.8375
2541.01501	8133.9375
2543.72768	8107.0375
2546.43864	8106.3375
2549.14791	8095.8375
2551.85548	8074.4375
2554.56136	8071.2375
2557.26554	8060.8375
2559.96803	8044.2375
2562.66883	8054.5375
2565.36794	8043.9375
2568.06536	8035.4375
2570.7611	8014.1375
2573.45514	7996.4375
2576.14751	8019.1375
2578.83819	7965.4375
2581.52719	7960.2375
2584.21451	7936.7375
2586.90015	7944.9375
2589.58411	7925.9375
2592.2664	7922.7375
2594.94701	7898.2375
2597.62594	7890.6375
2600.30321	7875.9375
2602.9788	7898.5375
2605.65273	7877.3375
2608.32498	7869.7375
2610.99557	7875.7375
2613.66449	7867.4375
2616.33175	7871.5375
2618.99734	7867.0375
2621.66128	7848.5375
2624.32355	7852.1375
2626.98416	7842.9375
2629.64311	7813.2375
2632.30041	7796.4375
2634.95605	7788.9375
2637.61004	7759.2375
2640.26238	7745.5375
2642.91306	7773.1375
2645.56209	7756.2375
2648.20948	7759.7375
2650.85521	7744.5375
2653.4993	7766.2375
2656.14175	7750.4375
2658.78255	7751.3375
2661.42171	7725.3375
2664.05923	7770.0375
2666.6951	7775.7375
2669.32934	7807.6375
2671.96194	7764.6375
2674.59291	7780.2375
2677.22224	7769.5375
2679.84993	7771.7375
2682.476	7764.6375
2685.10043	7760.8375
2687.72324	7751.9375
2690.34441	7764.7375
2692.96396	7765.3375
2695.58188	7769.3375
2698.19818	7755.3375
2700.81285	7738.6375
2703.4259	7709.3375
2706.03733	7668.1375
2708.64714	7683.0375
2711.25533	7711.8375
2713.86191	7739.9375
2716.46687	7754.1375
2719.07021	7768.8375
2721.67194	7758.3375
2724.27206	7772.5375
2726.87057	7770.3375
2729.46747	7782.7375
2732.06276	7775.4375
2734.65644	7771.5375
2737.24852	7763.8375
2739.83899	7742.8375
2742.42786	7766.9375
2745.01513	7727.9375
2747.60079	7740.8375
2750.18486	7728.1375
2752.76733	7729.4375
2755.3482	7729.2375
2757.92747	7699.0375
2760.50515	7701.8375
2763.08123	7676.3375
2765.65573	7686.2375
2768.22863	7684.7375
2770.79994	7654.4375
2773.36967	7649.2375
2775.9378	7642.2375
2778.50435	7611.8375
2781.06932	7620.9375
2783.6327	7635.9375
2786.1945	7643.9375
2788.75471	7630.6375
2791.31335	7583.6375
2793.87041	7595.3375
2796.42589	7566.8375
2798.97979	7573.6375
2801.53212	7532.5375
2804.08288	7553.6375
2806.63206	7512.1375
2809.17967	7503.8375
2811.72571	7474.1375
2814.27018	7471.3375
2816.81308	7465.5375
2819.35442	7487.9375
2821.89419	7469.9375
2824.43239	7461.5375
2826.96904	7452.5375
2829.50412	7439.6375
2832.03763	7433.5375
2834.56959	7438.4375
2837.1	7437.1375
2839.62884	7432.5375
2842.15613	7424.3375
2844.68186	7441.4375
2847.20604	7442.4375
2849.72867	7435.8375
2852.24974	7413.6375
2854.76927	7418.4375
2857.28724	7388.9375
2859.80367	7390.7375
2862.31855	7385.8375
2864.83189	7386.7375
2867.34368	7353.3375
2869.85393	7384.0375
2872.36264	7355.6375
2874.8698	7378.7375
2877.37543	7378.8375
2879.87952	7352.9375
2882.38207	7365.9375
2884.88308	7349.6375
2887.38256	7362.8375
2889.88051	7357.2375
2892.37692	7357.1375
2894.8718	7366.1375
2897.36515	7366.0375
2899.85698	7379.4375
2902.34727	7376.8375
2904.83604	7387.1375
2907.32328	7411.1375
2909.809	7411.4375
2912.29319	7399.3375
2914.77587	7396.8375
2917.25702	7392.6375
2919.73665	7410.0375
2922.21476	7413.7375
2924.69136	7401.9375
2927.16644	7403.9375
2929.64	7380.9375
2932.11205	7381.8375
2934.58258	7349.1375
2937.05161	7351.1375
2939.51912	7371.6375
2941.98513	7373.3375
2944.44962	7338.6375
2946.91261	7336.5375
2949.37409	7327.0375
2951.83407	7314.3375
2954.29254	7308.6375
2956.74951	7307.4375
2959.20498	7288.4375
2961.65895	7281.5375
2964.11142	7267.8375
2966.56239	7232.5375
2969.01186	7263.7375
2971.45984	7244.0375
2973.90632	7229.5375
2976.35131	7213.0375
2978.7948	7193.9375
2981.23681	7199.7375
2983.67732	7183.4375
2986.11635	7149.3375
2988.55388	7134.5375
2990.98993	7113.0375
2993.4245	7108.2375
2995.85758	7091.1375
2998.28917	7079.7375
3000.71928	7084.4375
3003.14791	7056.3375
3005.57506	7067.7375
3008.00073	7055.0375
3010.42493	7017.3375
3012.84764	7046.3375
3015.26888	7014.6375
3017.68865	6998.5375
3020.10694	6993.7375
3022.52376	6982.7375
3024.9391	6974.8375
3027.35298	6978.9375
3029.76539	6967.6375
3032.17632	6965.4375
3034.5858	6943.3375
3036.9938	6934.3375
3039.40034	6938.1375
3041.80542	6911.7375
3044.20903	6915.7375
3046.61118	6912.7375
3049.01187	6911.2375
3051.4111	6904.5375
3053.80888	6886.5375
3056.20519	6874.4375
3058.60005	6829.2375
3060.99345	6838.8375
3063.3854	6828.4375
3065.7759	6818.3375
3068.16494	6813.2375
3070.55254	6784.0375
3072.93868	6771.5375
3075.32338	6747.8375
3077.70662	6752.0375
3080.08842	6723.8375
3082.46878	6704.9375
3084.84769	6707.6375
3087.22515	6709.2375
3089.60118	6720.3375
3091.97576	6699.0375
3094.3489	6703.0375
3096.72061	6725.5375
3099.09087	6723.1375
3101.4597	6725.0375
3103.82709	6713.2375
3106.19305	6697.9375
3108.55757	6718.3375
3110.92066	6698.0375
3113.28232	6685.1375
3115.64255	6671.2375
3118.00134	6662.4375
3120.35871	6652.2375
3122.71466	6657.3375
3125.06917	6637.3375
3127.42226	6651.2375
3129.77393	6634.3375
3132.12417	6630.1375
3134.47299	6622.1375
3136.82039	6635.2375
3139.16636	6641.1375
3141.51092	6632.5375
3143.85406	6613.7375
3146.19579	6614.2375
3148.53609	6629.7375
3150.87499	6632.7375
3153.21246	6632.3375
3155.54853	6665.9375
3157.88318	6645.7375
3160.21642	6655.7375
3162.54826	6645.5375
3164.87868	6659.8375
3167.2077	6652.9375
3169.5353	6657.6375
3171.86151	6668.9375
3174.18631	6648.7375
3176.5097	6643.5375
3178.83169	6658.0375
3181.15228	6646.7375
3183.47147	6616.1375
3185.78926	6642.5375
3188.10565	6629.6375
3190.42065	6625.2375
3192.73424	6618.8375
3195.04645	6624.0375
3197.35725	6617.2375
3199.66667	6600.2375
3201.97469	6625.8375
3204.28132	6610.5375
3206.58656	6613.4375
3208.8904	6591.0375
3211.19287	6627.9375
3213.49394	6629.3375
3215.79363	6634.4375
3218.09193	6626.1375
3220.38884	6606.1375
3222.68438	6628.1375
3224.97853	6615.4375
3227.2713	6589.4375
3229.56269	6615.0375
3231.8527	6592.1375
3234.14133	6594.8375
3236.42858	6591.0375
3238.71446	6572.5375
3240.99896	6578.8375
3243.28209	6552.2375
3245.56384	6533.5375
3247.84423	6519.3375
3250.12324	6554.4375
3252.40088	6539.2375
3254.67715	6527.5375
3256.95205	6518.8375
3259.22558	6514.4375
3261.49775	6502.0375
3263.76855	6512.4375
3266.03799	6502.5375
3268.30606	6477.8375
3270.57277	6485.9375
3272.83812	6490.1375
3275.10211	6471.0375
3277.36474	6453.2375
3279.62601	6439.7375
3281.88593	6432.1375
3284.14448	6452.8375
3286.40168	6451.3375
3288.65753	6446.8375
3290.91202	6422.5375
3293.16516	6427.7375
3295.41695	6410.7375
3297.66738	6374.3375
3299.91647	6362.0375
3302.16421	6296.0375
3304.4106	6264.7375
3306.65564	6218.4375
3308.89933	6172.4375
3311.14169	6137.7375
3313.38269	6075.6375
3315.62236	6056.2375
3317.86068	6006.1375
3320.09766	5971.6375
3322.3333	5922.2375
3324.5676	5902.4375
3326.80056	5780.4375
3329.03219	5758.6375
3331.26248	3.0375
3333.49143	-1.3625
3335.71905	-0.1625
