Data from AgNPs_FTO_APTES_UA_50uM_CRN_1000uM_R6G_10uM_NaF_0.1M_Addition_RamanShift__19__17-48-23-598.txt Node

Date: Mon Feb 21 17:48:23 GMT 2022
User: TCL
Spectrometer: QEP01345
Trigger mode: 4
Integration Time (sec): 7.000000E0
Scans to average: 10
Electric dark correction enabled: true
Nonlinearity correction enabled: false
Boxcar width: 0
XAxis mode: Raman Shifts
Number of Pixels in Spectrum: 1044
>>>>>Begin Spectral Data<<<<<
46.04893	-0.9625
50.45542	-0.9625
54.85868	-0.6625
59.25871	-2.4625
63.6555	55.3375
68.04907	58.9375
72.43941	63.1375
76.82654	63.9375
81.21044	70.3375
85.59113	69.2375
89.96862	71.7375
94.34289	71.0375
98.71396	77.0375
103.08183	79.1375
107.4465	85.6375
111.80798	85.9375
116.16626	84.8375
120.52136	89.4375
124.87327	90.3375
129.222	99.4375
133.56755	101.1375
137.90993	107.5375
142.24913	113.4375
146.58517	128.7375
150.91804	146.1375
155.24774	178.8375
159.57429	212.2375
163.89768	283.6375
168.21792	375.8375
172.53501	506.0375
176.84895	707.6375
181.15975	1001.0375
185.46741	1408.0375
189.77193	1937.9375
194.07331	2604.0375
198.37157	3377.1375
202.6667	4167.6375
206.9587	4984.1375
211.24758	5774.5375
215.53334	6577.4375
219.81599	7421.8375
224.09553	8348.6375
228.37195	9416.9375
232.64527	10539.4375
236.91549	11743.6375
241.18261	12934.8375
245.44663	13964.4375
249.70755	14884.7375
253.96539	15698.3375
258.22014	16345.6375
262.4718	16929.2375
266.72039	17305.4375
270.96589	17431.2375
275.20832	17441.4375
279.44768	17242.7375
283.68397	16960.1375
287.91719	16723.3375
292.14735	16613.9375
296.37445	16652.3375
300.59849	16822.2375
304.81948	17003.9375
309.03742	17109.1375
313.25231	17015.6375
317.46415	16642.1375
321.67296	16130.5375
325.87872	15724.0375
330.08145	15537.8375
334.28114	15568.0375
338.47781	15709.9375
342.67145	15936.8375
346.86207	16256.9375
351.04966	16665.9375
355.23424	17174.2375
359.4158	17589.0375
363.59435	17880.1375
367.76989	18086.8375
371.94243	18149.3375
376.11196	18261.9375
380.27849	18318.6375
384.44203	18377.9375
388.60257	18381.5375
392.76012	18400.4375
396.91468	18499.5375
401.06626	18694.1375
405.21485	18855.9375
409.36047	18740.3375
413.50311	18339.5375
417.64277	17961.8375
421.77947	17825.1375
425.9132	17793.1375
430.04396	17871.7375
434.17176	18037.7375
438.2966	18243.3375
442.41849	18624.0375
446.53742	19143.9375
450.6534	19651.5375
454.76644	19993.3375
458.87653	20033.9375
462.98368	19825.0375
467.08789	19530.1375
471.18916	19197.9375
475.2875	18944.1375
479.38291	18685.1375
483.4754	18531.5375
487.56496	18366.1375
491.6516	18164.7375
495.73531	18032.9375
499.81612	17990.2375
503.89401	18082.1375
507.96899	18200.4375
512.04106	18281.7375
516.11023	18351.5375
520.1765	18415.0375
524.23987	18364.6375
528.30034	18274.6375
532.35792	18177.9375
536.41261	18052.9375
540.46441	17835.8375
544.51333	17766.9375
548.55936	17770.1375
552.60252	18018.5375
556.64279	18339.8375
560.6802	18573.2375
564.71473	18666.0375
568.7464	18907.3375
572.7752	19178.7375
576.80114	19129.3375
580.82422	18998.9375
584.84444	19076.4375
588.86181	19478.4375
592.87633	20021.1375
596.888	20296.7375
600.89682	20094.9375
604.9028	20599.9375
608.90594	22893.6375
612.90624	25837.5375
616.90371	24791.8375
620.89834	20487.9375
624.89015	18426.2375
628.87913	18015.3375
632.86528	18133.5375
636.84862	18269.5375
640.82913	18183.4375
644.80683	17780.8375
648.78172	17422.6375
652.75379	17376.3375
656.72306	17638.6375
660.68952	17983.7375
664.65319	17911.0375
668.61405	17562.2375
672.57211	17543.9375
676.52738	17692.7375
680.47986	17734.7375
684.42955	17633.7375
688.37646	17422.4375
692.32058	17374.9375
696.26192	17441.9375
700.20048	17548.9375
704.13626	17591.7375
708.06928	17535.7375
711.99952	17407.9375
715.927	17326.8375
719.85171	17366.8375
723.77365	17416.2375
727.69284	17322.6375
731.60928	17237.5375
735.52295	17258.6375
739.43388	17278.1375
743.34206	17299.8375
747.24749	17282.2375
751.15017	17306.5375
755.05012	17444.0375
758.94733	17842.5375
762.8418	18683.3375
766.73354	20197.1375
770.62254	21845.4375
774.50882	22688.4375
778.39237	21947.9375
782.27321	20175.9375
786.15132	18546.7375
790.02671	17568.4375
793.89938	17088.0375
797.76935	16924.6375
801.6366	16827.8375
805.50115	16768.8375
809.36299	16716.0375
813.22213	16591.9375
817.07857	16589.9375
820.93231	16513.8375
824.78336	16497.1375
828.63172	16451.4375
832.47738	16429.2375
836.32036	16417.1375
840.16066	16376.8375
843.99827	16318.9375
847.8332	16348.8375
851.66546	16355.6375
855.49504	16349.6375
859.32195	16386.2375
863.1462	16424.7375
866.96777	16408.3375
870.78668	16400.0375
874.60293	16352.1375
878.41652	16354.9375
882.22745	16361.8375
886.03573	16416.7375
889.84136	16419.7375
893.64433	16334.3375
897.44466	16238.1375
901.24235	16131.7375
905.0374	16043.5375
908.8298	15970.7375
912.61957	15862.1375
916.40671	15934.7375
920.19121	16033.7375
923.97308	16140.3375
927.75233	16172.3375
931.52895	16228.3375
935.30295	16090.6375
939.07433	15847.4375
942.84309	15651.0375
946.60924	15477.9375
950.37278	15413.5375
954.13371	15341.9375
957.89203	15296.4375
961.64774	15239.2375
965.40086	15165.5375
969.15137	15132.8375
972.89929	15054.6375
976.64461	14996.2375
980.38733	14954.5375
984.12747	14998.4375
987.86502	15062.2375
991.59999	15160.8375
995.33237	15303.1375
999.06217	15557.1375
1002.78939	15804.4375
1006.51404	16035.5375
1010.23611	16209.4375
1013.95561	16347.7375
1017.67255	16368.9375
1021.38692	16229.3375
1025.09872	16015.7375
1028.80796	15802.9375
1032.51465	15918.4375
1036.21877	16029.7375
1039.92035	16075.1375
1043.61937	16042.4375
1047.31584	15958.3375
1051.00976	15842.2375
1054.70114	15768.0375
1058.38998	15722.0375
1062.07627	15714.5375
1065.76003	15746.8375
1069.44126	15804.4375
1073.11995	15850.3375
1076.79611	15963.5375
1080.46974	16062.8375
1084.14085	16207.3375
1087.80943	16393.4375
1091.47549	16516.5375
1095.13903	16470.6375
1098.80005	16224.6375
1102.45857	15992.8375
1106.11456	15894.7375
1109.76805	15969.2375
1113.41903	16160.3375
1117.06751	16419.3375
1120.71348	16751.6375
1124.35696	17077.1375
1127.99793	17411.5375
1131.63641	17513.7375
1135.2724	17199.1375
1138.90589	16885.9375
1142.5369	16586.7375
1146.16542	16388.2375
1149.79145	16332.9375
1153.415	16283.4375
1157.03607	16426.3375
1160.65467	16652.2375
1164.27079	17118.9375
1167.88443	17849.2375
1171.49561	18760.2375
1175.10432	20113.0375
1178.71056	21843.3375
1182.31434	23417.9375
1185.91565	24065.6375
1189.51451	23658.7375
1193.11091	22704.2375
1196.70485	21688.3375
1200.29634	20737.1375
1203.88538	19996.0375
1207.47197	19312.8375
1211.05612	18645.0375
1214.63782	18307.2375
1218.21708	18194.9375
1221.79391	18200.9375
1225.36829	18147.3375
1228.94024	17993.8375
1232.50976	17681.8375
1236.07685	17489.4375
1239.6415	17382.6375
1243.20374	17400.0375
1246.76355	17453.9375
1250.32093	17595.9375
1253.8759	17845.6375
1257.42845	18231.4375
1260.97859	18554.4375
1264.52631	18913.8375
1268.07163	19364.6375
1271.61453	19695.5375
1275.15503	20126.1375
1278.69312	20444.2375
1282.22882	20701.8375
1285.76211	21067.9375
1289.29301	21581.9375
1292.82151	22270.8375
1296.34761	23143.7375
1299.87133	24301.3375
1303.39266	25748.7375
1306.9116	27677.0375
1310.42815	29736.0375
1313.94233	31009.0375
1317.45412	30644.2375
1320.96354	29352.1375
1324.47058	27890.0375
1327.97525	26571.5375
1331.47754	25725.5375
1334.97747	25348.2375
1338.47502	25395.3375
1341.97022	25739.9375
1345.46305	26073.0375
1348.95352	26651.5375
1352.44163	27583.6375
1355.92738	29138.8375
1359.41078	31363.2375
1362.89183	33461.5375
1366.37053	32873.7375
1369.84688	29145.3375
1373.32088	25077.2375
1376.79254	22555.5375
1380.26186	21378.0375
1383.72883	20953.1375
1387.19347	20653.1375
1390.65578	20281.8375
1394.11575	20112.1375
1397.57339	20175.3375
1401.0287	20457.1375
1404.48168	20762.9375
1407.93234	20946.6375
1411.38068	20930.6375
1414.82669	20705.8375
1418.27039	20277.5375
1421.71177	19698.3375
1425.15083	19120.2375
1428.58758	18768.6375
1432.02203	18789.3375
1435.45416	19060.1375
1438.88399	19332.9375
1442.31151	19629.2375
1445.73673	19834.1375
1449.15965	20001.8375
1452.58027	20050.9375
1455.9986	20018.5375
1459.41463	19993.0375
1462.82837	20254.0375
1466.23982	20567.6375
1469.64898	20952.8375
1473.05586	21194.9375
1476.46045	21323.6375
1479.86276	21336.6375
1483.26279	21275.8375
1486.66054	21287.2375
1490.05602	21434.7375
1493.44922	21664.6375
1496.84016	22018.4375
1500.22882	22861.1375
1503.61521	24293.7375
1506.99934	26086.6375
1510.38121	27694.3375
1513.76081	28128.5375
1517.13816	26853.6375
1520.51324	24667.2375
1523.88607	22684.9375
1527.25665	21439.2375
1530.62498	20860.2375
1533.99105	20567.0375
1537.35488	20364.8375
1540.71647	20207.3375
1544.07581	20027.2375
1547.4329	19858.7375
1550.78776	19638.7375
1554.14038	19549.6375
1557.49077	19533.4375
1560.83892	19612.8375
1564.18484	19744.4375
1567.52853	19968.4375
1570.86999	20213.4375
1574.20922	20456.8375
1577.54624	20525.4375
1580.88103	20093.6375
1584.2136	19514.8375
1587.54395	19401.3375
1590.87208	19861.9375
1594.19801	20869.6375
1597.52172	22236.4375
1600.84321	23040.9375
1604.16251	22659.6375
1607.47959	21447.5375
1610.79447	19893.9375
1614.10715	18324.4375
1617.41763	17104.3375
1620.7259	16268.7375
1624.03199	15872.4375
1627.33587	15774.1375
1630.63757	16039.7375
1633.93707	16772.0375
1637.23439	17954.2375
1640.52951	19741.4375
1643.82246	22033.2375
1647.11321	24255.6375
1650.40179	25196.9375
1653.68819	24003.2375
1656.97241	21162.5375
1660.25446	18246.8375
1663.53433	16271.7375
1666.81203	15008.8375
1670.08756	14253.2375
1673.36092	13788.9375
1676.63211	13466.0375
1679.90115	13249.7375
1683.16801	13069.1375
1686.43272	12926.6375
1689.69527	12773.1375
1692.95567	12690.1375
1696.2139	12614.6375
1699.46999	12520.7375
1702.72392	12465.0375
1705.97571	12456.7375
1709.22535	12457.6375
1712.47284	12384.1375
1715.71819	12405.6375
1718.96139	12335.3375
1722.20246	12302.5375
1725.44139	12238.6375
1728.67818	12199.3375
1731.91284	12146.9375
1735.14537	12054.2375
1738.37576	11999.9375
1741.60403	11963.6375
1744.83017	11963.1375
1748.05418	11926.0375
1751.27607	11953.9375
1754.49584	11904.3375
1757.71349	11893.6375
1760.92903	11842.2375
1764.14244	11801.3375
1767.35375	11755.6375
1770.56294	11691.9375
1773.77002	11657.4375
1776.97499	11621.7375
1780.17785	11603.6375
1783.37861	11566.5375
1786.57727	11524.0375
1789.77382	11500.9375
1792.96828	11472.9375
1796.16064	11449.1375
1799.3509	11411.9375
1802.53907	11375.7375
1805.72514	11347.3375
1808.90913	11323.6375
1812.09102	11282.2375
1815.27083	11260.9375
1818.44856	11238.9375
1821.6242	11213.3375
1824.79776	11170.9375
1827.96924	11153.3375
1831.13864	11155.8375
1834.30597	11139.9375
1837.47122	11127.6375
1840.6344	11113.7375
1843.7955	11077.1375
1846.95454	11058.2375
1850.11151	11047.3375
1853.26642	11042.6375
1856.41926	11025.6375
1859.57004	11029.8375
1862.71876	11027.4375
1865.86542	11002.5375
1869.01003	11016.0375
1872.15258	10987.6375
1875.29308	10990.9375
1878.43152	10986.2375
1881.56792	10972.3375
1884.70227	10963.8375
1887.83457	10970.2375
1890.96482	10942.9375
1894.09304	10896.5375
1897.21921	10915.9375
1900.34335	10907.1375
1903.46544	10890.8375
1906.58551	10870.1375
1909.70353	10862.5375
1912.81953	10862.4375
1915.93349	10832.3375
1919.04543	10773.2375
1922.15534	10729.4375
1925.26322	10737.8375
1928.36908	10695.8375
1931.47292	10675.1375
1934.57473	10627.8375
1937.67453	10637.3375
1940.77232	10615.3375
1943.86808	10572.5375
1946.96184	10518.0375
1950.05358	10499.0375
1953.14331	10456.1375
1956.23103	10417.2375
1959.31675	10393.6375
1962.40046	10353.2375
1965.48217	10335.9375
1968.56188	10303.7375
1971.63959	10288.8375
1974.7153	10250.0375
1977.78901	10207.9375
1980.86073	10169.3375
1983.93046	10144.9375
1986.99819	10110.1375
1990.06394	10072.0375
1993.1277	10037.8375
1996.18947	10020.9375
1999.24925	9983.9375
2002.30706	9944.8375
2005.36288	9912.6375
2008.41672	9897.7375
2011.46859	9872.1375
2014.51848	9813.8375
2017.56639	9810.1375
2020.61233	9778.0375
2023.6563	9739.5375
2026.6983	9720.0375
2029.73833	9694.2375
2032.7764	9664.1375
2035.8125	9639.4375
2038.84664	9621.9375
2041.87881	9612.1375
2044.90903	9559.0375
2047.93729	9554.4375
2050.96359	9559.0375
2053.98794	9538.8375
2057.01034	9528.8375
2060.03078	9517.5375
2063.04927	9482.5375
2066.06582	9506.6375
2069.08042	9482.1375
2072.09307	9446.8375
2075.10378	9449.2375
2078.11255	9422.2375
2081.11938	9433.6375
2084.12426	9442.6375
2087.12722	9446.5375
2090.12824	9414.2375
2093.12732	9398.2375
2096.12447	9417.0375
2099.11969	9395.4375
2102.11299	9415.5375
2105.10435	9394.6375
2108.09379	9391.8375
2111.08131	9404.9375
2114.0669	9406.7375
2117.05057	9431.7375
2120.03233	9405.2375
2123.01216	9419.7375
2125.99008	9413.2375
2128.96609	9429.0375
2131.94018	9465.0375
2134.91236	9434.3375
2137.88263	9422.3375
2140.851	9410.3375
2143.81746	9426.3375
2146.78201	9424.4375
2149.74466	9419.6375
2152.7054	9412.4375
2155.66425	9413.5375
2158.6212	9418.0375
2161.57625	9411.8375
2164.52941	9413.6375
2167.48067	9380.1375
2170.43004	9382.2375
2173.37752	9365.0375
2176.32311	9351.3375
2179.26681	9371.2375
2182.20863	9377.6375
2185.14856	9357.6375
2188.08661	9366.4375
2191.02278	9366.6375
2193.95707	9352.6375
2196.88948	9354.9375
2199.82001	9354.3375
2202.74867	9313.4375
2205.67545	9315.1375
2208.60037	9336.4375
2211.52341	9290.2375
2214.44458	9269.4375
2217.36388	9259.7375
2220.28132	9237.1375
2223.1969	9223.7375
2226.11061	9194.3375
2229.02246	9168.3375
2231.93245	9172.3375
2234.84058	9131.7375
2237.74686	9111.2375
2240.65128	9099.8375
2243.55385	9091.9375
2246.45456	9077.3375
2249.35343	9047.0375
2252.25044	9037.3375
2255.14561	9045.9375
2258.03893	9018.4375
2260.93041	8997.9375
2263.82004	8986.2375
2266.70783	8992.4375
2269.59378	8936.7375
2272.4779	8933.7375
2275.36017	8893.5375
2278.24061	8866.9375
2281.11922	8836.4375
2283.996	8820.8375
2286.87094	8817.6375
2289.74405	8807.0375
2292.61534	8770.1375
2295.4848	8759.2375
2298.35243	8784.2375
2301.21824	8757.9375
2304.08223	8753.9375
2306.94439	8748.2375
2309.80474	8735.2375
2312.66327	8733.3375
2315.51999	8737.6375
2318.37489	8707.6375
2321.22797	8698.5375
2324.07925	8692.2375
2326.92871	8677.5375
2329.77637	8679.4375
2332.62222	8648.1375
2335.46626	8637.3375
2338.3085	8628.1375
2341.14893	8613.2375
2343.98756	8623.6375
2346.8244	8613.6375
2349.65943	8600.0375
2352.49267	8600.7375
2355.32411	8575.0375
2358.15376	8591.7375
2360.98161	8593.7375
2363.80768	8586.7375
2366.63195	8585.7375
2369.45444	8574.7375
2372.27514	8547.3375
2375.09405	8561.0375
2377.91118	8513.4375
2380.72652	8486.7375
2383.54009	8485.1375
2386.35187	8446.4375
2389.16188	8413.0375
2391.97011	8403.3375
2394.77657	8406.8375
2397.58125	8334.9375
2400.38416	8327.1375
2403.18529	8321.8375
2405.98466	8311.8375
2408.78226	8312.5375
2411.57809	8269.5375
2414.37216	8260.7375
2417.16446	8272.7375
2419.955	8266.8375
2422.74378	8257.4375
2425.5308	8225.1375
2428.31606	8220.6375
2431.09956	8192.6375
2433.88131	8200.7375
2436.6613	8210.1375
2439.43954	8212.3375
2442.21603	8168.4375
2444.99077	8180.2375
2447.76377	8174.8375
2450.53501	8178.6375
2453.30451	8162.3375
2456.07226	8159.2375
2458.83827	8151.6375
2461.60254	8144.4375
2464.36507	8121.6375
2467.12586	8137.9375
2469.88492	8143.8375
2472.64224	8112.6375
2475.39782	8118.2375
2478.15167	8122.2375
2480.90379	8116.9375
2483.65417	8130.6375
2486.40283	8138.8375
2489.14976	8127.5375
2491.89497	8150.5375
2494.63845	8139.9375
2497.3802	8127.6375
2500.12024	8123.8375
2502.85855	8091.9375
2505.59514	8089.4375
2508.33002	8077.2375
2511.06318	8051.6375
2513.79462	8028.5375
2516.52435	8023.3375
2519.25237	8001.0375
2521.97867	7986.8375
2524.70327	7966.1375
2527.42616	7949.5375
2530.14734	7965.3375
2532.86681	7948.5375
2535.58458	7958.7375
2538.30065	7939.2375
2541.01501	7955.2375
2543.72768	7919.0375
2546.43864	7903.5375
2549.14791	7892.3375
2551.85548	7877.0375
2554.56136	7844.2375
2557.26554	7864.8375
2559.96803	7851.0375
2562.66883	7822.9375
2565.36794	7838.8375
2568.06536	7803.8375
2570.7611	7799.3375
2573.45514	7795.7375
2576.14751	7781.5375
2578.83819	7761.6375
2581.52719	7756.3375
2584.21451	7737.4375
2586.90015	7733.3375
2589.58411	7710.4375
2592.2664	7715.2375
2594.94701	7692.6375
2597.62594	7680.1375
2600.30321	7679.8375
2602.9788	7660.1375
2605.65273	7644.2375
2608.32498	7658.1375
2610.99557	7645.6375
2613.66449	7658.2375
2616.33175	7632.1375
2618.99734	7650.9375
2621.66128	7631.5375
2624.32355	7618.9375
2626.98416	7604.4375
2629.64311	7600.7375
2632.30041	7606.4375
2634.95605	7588.5375
2637.61004	7577.4375
2640.26238	7559.4375
2642.91306	7554.6375
2645.56209	7550.1375
2648.20948	7571.1375
2650.85521	7541.7375
2653.4993	7538.1375
2656.14175	7539.2375
2658.78255	7543.0375
2661.42171	7535.9375
2664.05923	7570.1375
2666.6951	7536.5375
2669.32934	7536.9375
2671.96194	7564.0375
2674.59291	7546.9375
2677.22224	7531.8375
2679.84993	7542.6375
2682.476	7530.6375
2685.10043	7528.6375
2687.72324	7509.8375
2690.34441	7514.3375
2692.96396	7489.8375
2695.58188	7508.2375
2698.19818	7513.9375
2700.81285	7515.7375
2703.4259	7495.5375
2706.03733	7495.4375
2708.64714	7492.5375
2711.25533	7503.3375
2713.86191	7517.0375
2716.46687	7515.8375
2719.07021	7515.9375
2721.67194	7494.2375
2724.27206	7496.5375
2726.87057	7518.2375
2729.46747	7515.1375
2732.06276	7510.0375
2734.65644	7508.9375
2737.24852	7500.9375
2739.83899	7497.0375
2742.42786	7491.8375
2745.01513	7478.0375
2747.60079	7449.5375
2750.18486	7460.2375
2752.76733	7455.9375
2755.3482	7430.4375
2757.92747	7438.7375
2760.50515	7413.6375
2763.08123	7393.8375
2765.65573	7377.7375
2768.22863	7403.8375
2770.79994	7391.8375
2773.36967	7382.2375
2775.9378	7373.5375
2778.50435	7388.1375
2781.06932	7394.7375
2783.6327	7352.9375
2786.1945	7361.9375
2788.75471	7358.2375
2791.31335	7352.8375
2793.87041	7356.7375
2796.42589	7319.5375
2798.97979	7300.9375
2801.53212	7294.3375
2804.08288	7285.0375
2806.63206	7284.3375
2809.17967	7253.0375
2811.72571	7252.7375
2814.27018	7256.7375
2816.81308	7240.4375
2819.35442	7237.6375
2821.89419	7212.1375
2824.43239	7233.2375
2826.96904	7219.4375
2829.50412	7221.9375
2832.03763	7214.9375
2834.56959	7201.7375
2837.1	7191.1375
2839.62884	7199.9375
2842.15613	7188.1375
2844.68186	7213.2375
2847.20604	7194.9375
2849.72867	7218.6375
2852.24974	7212.4375
2854.76927	7208.4375
2857.28724	7208.8375
2859.80367	7209.2375
2862.31855	7197.5375
2864.83189	7187.4375
2867.34368	7168.8375
2869.85393	7163.8375
2872.36264	7169.6375
2874.8698	7154.8375
2877.37543	7149.5375
2879.87952	7169.1375
2882.38207	7152.6375
2884.88308	7160.8375
2887.38256	7172.4375
2889.88051	7172.2375
2892.37692	7181.6375
2894.8718	7199.5375
2897.36515	7184.3375
2899.85698	7184.4375
2902.34727	7202.7375
2904.83604	7204.3375
2907.32328	7230.9375
2909.809	7239.4375
2912.29319	7248.4375
2914.77587	7234.8375
2917.25702	7247.4375
2919.73665	7261.8375
2922.21476	7263.9375
2924.69136	7258.2375
2927.16644	7260.9375
2929.64	7242.4375
2932.11205	7242.4375
2934.58258	7205.5375
2937.05161	7209.2375
2939.51912	7195.8375
2941.98513	7183.4375
2944.44962	7171.5375
2946.91261	7154.1375
2949.37409	7161.5375
2951.83407	7148.8375
2954.29254	7156.8375
2956.74951	7122.7375
2959.20498	7102.3375
2961.65895	7090.7375
2964.11142	7084.8375
2966.56239	7078.3375
2969.01186	7047.3375
2971.45984	7003.9375
2973.90632	7007.1375
2976.35131	6989.1375
2978.7948	6963.5375
2981.23681	6955.1375
2983.67732	6932.6375
2986.11635	6909.9375
2988.55388	6903.4375
2990.98993	6885.7375
2993.4245	6875.2375
2995.85758	6843.9375
2998.28917	6832.3375
3000.71928	6814.9375
3003.14791	6829.8375
3005.57506	6816.3375
3008.00073	6777.6375
3010.42493	6790.9375
3012.84764	6751.1375
3015.26888	6754.7375
3017.68865	6742.4375
3020.10694	6726.3375
3022.52376	6709.6375
3024.9391	6702.6375
3027.35298	6677.5375
3029.76539	6666.4375
3032.17632	6675.1375
3034.5858	6643.7375
3036.9938	6643.7375
3039.40034	6632.8375
3041.80542	6633.5375
3044.20903	6617.2375
3046.61118	6621.2375
3049.01187	6597.6375
3051.4111	6603.0375
3053.80888	6597.8375
3056.20519	6577.4375
3058.60005	6557.8375
3060.99345	6542.3375
3063.3854	6536.4375
3065.7759	6502.9375
3068.16494	6493.4375
3070.55254	6464.3375
3072.93868	6464.3375
3075.32338	6434.2375
3077.70662	6432.8375
3080.08842	6408.2375
3082.46878	6390.8375
3084.84769	6404.6375
3087.22515	6384.0375
3089.60118	6396.1375
3091.97576	6403.4375
3094.3489	6409.6375
3096.72061	6416.7375
3099.09087	6397.0375
3101.4597	6398.5375
3103.82709	6372.8375
3106.19305	6397.9375
3108.55757	6375.7375
3110.92066	6373.6375
3113.28232	6345.8375
3115.64255	6339.1375
3118.00134	6337.6375
3120.35871	6303.1375
3122.71466	6302.2375
3125.06917	6298.4375
3127.42226	6279.4375
3129.77393	6283.2375
3132.12417	6276.5375
3134.47299	6290.0375
3136.82039	6287.5375
3139.16636	6293.6375
3141.51092	6284.8375
3143.85406	6274.2375
3146.19579	6279.9375
3148.53609	6291.0375
3150.87499	6297.1375
3153.21246	6306.7375
3155.54853	6309.9375
3157.88318	6286.3375
3160.21642	6322.2375
3162.54826	6316.9375
3164.87868	6324.3375
3167.2077	6317.1375
3169.5353	6337.2375
3171.86151	6308.2375
3174.18631	6294.1375
3176.5097	6276.0375
3178.83169	6300.9375
3181.15228	6303.0375
3183.47147	6271.0375
3185.78926	6270.2375
3188.10565	6268.6375
3190.42065	6270.7375
3192.73424	6286.6375
3195.04645	6259.6375
3197.35725	6292.3375
3199.66667	6296.2375
3201.97469	6298.3375
3204.28132	6300.1375
3206.58656	6301.8375
3208.8904	6298.8375
3211.19287	6297.3375
3213.49394	6290.2375
3215.79363	6298.6375
3218.09193	6313.4375
3220.38884	6294.8375
3222.68438	6306.4375
3224.97853	6317.2375
3227.2713	6327.8375
3229.56269	6329.1375
3231.8527	6302.4375
3234.14133	6284.5375
3236.42858	6263.2375
3238.71446	6246.2375
3240.99896	6233.8375
3243.28209	6247.7375
3245.56384	6223.1375
3247.84423	6256.0375
3250.12324	6243.3375
3252.40088	6226.3375
3254.67715	6225.8375
3256.95205	6216.1375
3259.22558	6211.9375
3261.49775	6215.5375
3263.76855	6180.3375
3266.03799	6183.4375
3268.30606	6174.7375
3270.57277	6170.2375
3272.83812	6170.7375
3275.10211	6182.0375
3277.36474	6152.1375
3279.62601	6141.2375
3281.88593	6127.3375
3284.14448	6147.8375
3286.40168	6141.8375
3288.65753	6145.1375
3290.91202	6137.7375
3293.16516	6117.3375
3295.41695	6097.3375
3297.66738	6074.9375
3299.91647	6046.2375
3302.16421	6030.0375
3304.4106	5993.5375
3306.65564	5951.5375
3308.89933	5921.5375
3311.14169	5879.1375
3313.38269	5826.9375
3315.62236	5782.6375
3317.86068	5732.1375
3320.09766	5712.1375
3322.3333	5666.8375
3324.5676	5659.6375
3326.80056	5556.4375
3329.03219	5514.3375
3331.26248	3.8375
3333.49143	0.8375
3335.71905	-0.6625
