Data from AgNPs_FTO_APTES_UA_50uM_CRN_50uM_R6G_10uM_NaF_0.1M_Addition_RamanShift__14__14-49-04-978.txt Node

Date: Mon Feb 21 14:49:04 GMT 2022
User: TCL
Spectrometer: QEP01345
Trigger mode: 4
Integration Time (sec): 7.000000E0
Scans to average: 10
Electric dark correction enabled: true
Nonlinearity correction enabled: false
Boxcar width: 0
XAxis mode: Raman Shifts
Number of Pixels in Spectrum: 1044
>>>>>Begin Spectral Data<<<<<
46.04893	0.2375
50.45542	-0.6625
54.85868	-1.0625
59.25871	-2.0625
63.6555	52.1375
68.04907	59.5375
72.43941	60.7375
76.82654	62.1375
81.21044	63.3375
85.59113	68.8375
89.96862	68.6375
94.34289	74.5375
98.71396	78.2375
103.08183	83.1375
107.4465	80.8375
111.80798	83.1375
116.16626	80.7375
120.52136	81.8375
124.87327	88.7375
129.222	86.8375
133.56755	88.8375
137.90993	94.3375
142.24913	102.3375
146.58517	107.4375
150.91804	124.8375
155.24774	143.7375
159.57429	174.0375
163.89768	218.0375
168.21792	289.1375
172.53501	384.0375
176.84895	537.3375
181.15975	740.9375
185.46741	1038.9375
189.77193	1433.7375
194.07331	1929.0375
198.37157	2497.1375
202.6667	3087.9375
206.9587	3687.5375
211.24758	4258.0375
215.53334	4844.3375
219.81599	5448.4375
224.09553	6100.1375
228.37195	6823.8375
232.64527	7644.8375
236.91549	8501.0375
241.18261	9376.4375
245.44663	10208.8375
249.70755	10931.7375
253.96539	11582.8375
258.22014	12096.0375
262.4718	12507.8375
266.72039	12793.7375
270.96589	12924.9375
275.20832	12921.5375
279.44768	12830.0375
283.68397	12643.7375
287.91719	12503.1375
292.14735	12368.5375
296.37445	12338.7375
300.59849	12342.5375
304.81948	12410.1375
309.03742	12415.0375
313.25231	12320.6375
317.46415	12112.9375
321.67296	11852.5375
325.87872	11595.5375
330.08145	11524.8375
334.28114	11554.1375
338.47781	11630.7375
342.67145	11779.1375
346.86207	11992.3375
351.04966	12241.0375
355.23424	12482.2375
359.4158	12724.9375
363.59435	12892.1375
367.76989	13040.8375
371.94243	13127.1375
376.11196	13210.3375
380.27849	13253.7375
384.44203	13332.5375
388.60257	13380.5375
392.76012	13452.2375
396.91468	13575.5375
401.06626	13742.8375
405.21485	13902.7375
409.36047	13839.5375
413.50311	13614.0375
417.64277	13410.2375
421.77947	13264.4375
425.9132	13244.3375
430.04396	13288.6375
434.17176	13349.5375
438.2966	13429.5375
442.41849	13563.4375
446.53742	13775.4375
450.6534	13953.8375
454.76644	14094.2375
458.87653	14216.7375
462.98368	14240.1375
467.08789	14200.6375
471.18916	14148.0375
475.2875	13978.0375
479.38291	13872.7375
483.4754	13784.9375
487.56496	13709.5375
491.6516	13668.0375
495.73531	13668.5375
499.81612	13677.6375
503.89401	13769.8375
507.96899	13884.3375
512.04106	13928.9375
516.11023	13941.7375
520.1765	13897.3375
524.23987	13858.4375
528.30034	13780.8375
532.35792	13693.6375
536.41261	13644.2375
540.46441	13576.1375
544.51333	13540.2375
548.55936	13593.2375
552.60252	13752.4375
556.64279	13921.2375
560.6802	13984.8375
564.71473	13994.2375
568.7464	14042.2375
572.7752	14200.7375
576.80114	14294.8375
580.82422	14380.8375
584.84444	14550.1375
588.86181	14608.5375
592.87633	14645.9375
596.888	14652.7375
600.89682	14821.1375
604.9028	15368.9375
608.90594	16798.4375
612.90624	18442.6375
616.90371	17681.2375
620.89834	15259.4375
624.89015	14079.1375
628.87913	13888.9375
632.86528	13985.7375
636.84862	14134.1375
640.82913	14081.1375
644.80683	13828.7375
648.78172	13651.5375
652.75379	13637.2375
656.72306	13769.1375
660.68952	14013.5375
664.65319	14006.0375
668.61405	13828.5375
672.57211	13840.7375
676.52738	13889.8375
680.47986	13907.6375
684.42955	13862.0375
688.37646	13797.8375
692.32058	13789.2375
696.26192	13869.1375
700.20048	13930.5375
704.13626	13973.7375
708.06928	13970.0375
711.99952	13907.9375
715.927	13847.1375
719.85171	13881.0375
723.77365	13842.1375
727.69284	13788.6375
731.60928	13691.6375
735.52295	13637.9375
739.43388	13652.6375
743.34206	13689.6375
747.24749	13722.3375
751.15017	13756.2375
755.05012	13861.2375
758.94733	14116.4375
762.8418	14619.4375
766.73354	15499.4375
770.62254	16525.5375
774.50882	16966.5375
778.39237	16514.5375
782.27321	15555.8375
786.15132	14683.1375
790.02671	14124.7375
793.89938	13836.6375
797.76935	13669.9375
801.6366	13589.1375
805.50115	13540.8375
809.36299	13499.0375
813.22213	13429.5375
817.07857	13392.4375
820.93231	13370.0375
824.78336	13405.8375
828.63172	13375.7375
832.47738	13340.3375
836.32036	13376.1375
840.16066	13367.9375
843.99827	13345.4375
847.8332	13364.1375
851.66546	13335.9375
855.49504	13336.5375
859.32195	13387.6375
863.1462	13369.1375
866.96777	13395.2375
870.78668	13378.6375
874.60293	13390.0375
878.41652	13418.1375
882.22745	13469.8375
886.03573	13504.4375
889.84136	13500.9375
893.64433	13455.1375
897.44466	13443.3375
901.24235	13450.9375
905.0374	13402.8375
908.8298	13365.5375
912.61957	13337.9375
916.40671	13365.8375
920.19121	13398.9375
923.97308	13474.9375
927.75233	13500.6375
931.52895	13491.4375
935.30295	13446.1375
939.07433	13293.4375
942.84309	13158.4375
946.60924	13062.7375
950.37278	13030.7375
954.13371	12993.8375
957.89203	12989.3375
961.64774	12958.6375
965.40086	12949.7375
969.15137	12919.2375
972.89929	12883.2375
976.64461	12889.2375
980.38733	12878.9375
984.12747	12885.8375
987.86502	12925.5375
991.59999	12954.1375
995.33237	13011.8375
999.06217	13124.4375
1002.78939	13235.1375
1006.51404	13379.5375
1010.23611	13534.4375
1013.95561	13620.0375
1017.67255	13636.9375
1021.38692	13610.1375
1025.09872	13488.4375
1028.80796	13391.8375
1032.51465	13358.6375
1036.21877	13392.1375
1039.92035	13390.3375
1043.61937	13439.4375
1047.31584	13518.0375
1051.00976	13553.0375
1054.70114	13567.4375
1058.38998	13622.5375
1062.07627	13678.5375
1065.76003	13787.6375
1069.44126	13851.1375
1073.11995	14000.1375
1076.79611	14173.0375
1080.46974	14276.4375
1084.14085	14353.8375
1087.80943	14426.5375
1091.47549	14482.2375
1095.13903	14484.2375
1098.80005	14356.9375
1102.45857	14185.3375
1106.11456	14050.4375
1109.76805	13990.8375
1113.41903	13962.2375
1117.06751	14055.1375
1120.71348	14173.4375
1124.35696	14317.3375
1127.99793	14473.6375
1131.63641	14557.5375
1135.2724	14468.6375
1138.90589	14303.2375
1142.5369	14184.8375
1146.16542	14133.0375
1149.79145	14072.1375
1153.415	14054.0375
1157.03607	14145.4375
1160.65467	14263.7375
1164.27079	14537.2375
1167.88443	14903.4375
1171.49561	15446.6375
1175.10432	16210.4375
1178.71056	17206.1375
1182.31434	18090.8375
1185.91565	18683.7375
1189.51451	18786.5375
1193.11091	18488.6375
1196.70485	18007.4375
1200.29634	17354.7375
1203.88538	16805.5375
1207.47197	16264.1375
1211.05612	15744.6375
1214.63782	15381.4375
1218.21708	15158.1375
1221.79391	15023.5375
1225.36829	14971.3375
1228.94024	14941.0375
1232.50976	14943.4375
1236.07685	14951.8375
1239.6415	14967.1375
1243.20374	14978.6375
1246.76355	15033.8375
1250.32093	15082.9375
1253.8759	15177.7375
1257.42845	15427.3375
1260.97859	15684.8375
1264.52631	16004.3375
1268.07163	16308.9375
1271.61453	16567.6375
1275.15503	16754.5375
1278.69312	16911.6375
1282.22882	17074.3375
1285.76211	17256.9375
1289.29301	17500.1375
1292.82151	17771.6375
1296.34761	18108.4375
1299.87133	18565.0375
1303.39266	19205.7375
1306.9116	19999.7375
1310.42815	20821.4375
1313.94233	21334.9375
1317.45412	21267.1375
1320.96354	20853.0375
1324.47058	20439.0375
1327.97525	20007.5375
1331.47754	19812.7375
1334.97747	19761.7375
1338.47502	19883.7375
1341.97022	20183.3375
1345.46305	20602.4375
1348.95352	21035.3375
1352.44163	21484.9375
1355.92738	22032.5375
1359.41078	22861.1375
1362.89183	23672.4375
1366.37053	23406.4375
1369.84688	21663.3375
1373.32088	19676.8375
1376.79254	18204.9375
1380.26186	17387.6375
1383.72883	16950.4375
1387.19347	16633.7375
1390.65578	16249.5375
1394.11575	15977.4375
1397.57339	15823.1375
1401.0287	15736.2375
1404.48168	15731.1375
1407.93234	15785.6375
1411.38068	15772.5375
1414.82669	15681.4375
1418.27039	15578.0375
1421.71177	15407.7375
1425.15083	15200.5375
1428.58758	15095.1375
1432.02203	15028.2375
1435.45416	15049.9375
1438.88399	15188.2375
1442.31151	15269.0375
1445.73673	15319.2375
1449.15965	15403.9375
1452.58027	15513.9375
1455.9986	15570.6375
1459.41463	15652.5375
1462.82837	15819.6375
1466.23982	16089.7375
1469.64898	16358.4375
1473.05586	16562.2375
1476.46045	16747.2375
1479.86276	16879.9375
1483.26279	16981.0375
1486.66054	17110.5375
1490.05602	17357.0375
1493.44922	17714.6375
1496.84016	18387.5375
1500.22882	19267.1375
1503.61521	20424.9375
1506.99934	21605.0375
1510.38121	22409.1375
1513.76081	22349.2375
1517.13816	21439.1375
1520.51324	20173.2375
1523.88607	18931.1375
1527.25665	18113.4375
1530.62498	17661.5375
1533.99105	17312.0375
1537.35488	17076.0375
1540.71647	16863.7375
1544.07581	16674.8375
1547.4329	16537.6375
1550.78776	16411.8375
1554.14038	16365.9375
1557.49077	16404.5375
1560.83892	16531.2375
1564.18484	16701.1375
1567.52853	16893.2375
1570.86999	17101.5375
1574.20922	17247.6375
1577.54624	17233.4375
1580.88103	16857.5375
1584.2136	16421.0375
1587.54395	16170.7375
1590.87208	16201.6375
1594.19801	16551.0375
1597.52172	17099.4375
1600.84321	17322.8375
1604.16251	17087.9375
1607.47959	16661.8375
1610.79447	16130.5375
1614.10715	15463.2375
1617.41763	14884.5375
1620.7259	14368.8375
1624.03199	14057.0375
1627.33587	13949.3375
1630.63757	14058.2375
1633.93707	14352.2375
1637.23439	14899.4375
1640.52951	15806.2375
1643.82246	16904.5375
1647.11321	18062.4375
1650.40179	18779.8375
1653.68819	18415.0375
1656.97241	17070.8375
1660.25446	15509.4375
1663.53433	14265.7375
1666.81203	13436.3375
1670.08756	12937.6375
1673.36092	12611.1375
1676.63211	12420.3375
1679.90115	12283.9375
1683.16801	12148.6375
1686.43272	12067.9375
1689.69527	11980.3375
1692.95567	11862.7375
1696.2139	11723.7375
1699.46999	11610.9375
1702.72392	11550.3375
1705.97571	11637.1375
1709.22535	11714.4375
1712.47284	11760.5375
1715.71819	11782.1375
1718.96139	11769.0375
1722.20246	11748.4375
1725.44139	11714.9375
1728.67818	11669.3375
1731.91284	11608.7375
1735.14537	11561.0375
1738.37576	11523.8375
1741.60403	11484.4375
1744.83017	11428.4375
1748.05418	11405.4375
1751.27607	11385.1375
1754.49584	11324.5375
1757.71349	11278.6375
1760.92903	11232.9375
1764.14244	11237.1375
1767.35375	11204.8375
1770.56294	11164.5375
1773.77002	11144.7375
1776.97499	11177.3375
1780.17785	11198.5375
1783.37861	11207.3375
1786.57727	11200.6375
1789.77382	11187.0375
1792.96828	11160.8375
1796.16064	11152.3375
1799.3509	11144.8375
1802.53907	11106.5375
1805.72514	11086.1375
1808.90913	11041.9375
1812.09102	11039.8375
1815.27083	11038.2375
1818.44856	11035.3375
1821.6242	11016.8375
1824.79776	10999.1375
1827.96924	10973.7375
1831.13864	10960.7375
1834.30597	10965.0375
1837.47122	10970.1375
1840.6344	10951.6375
1843.7955	10942.0375
1846.95454	10936.9375
1850.11151	10954.8375
1853.26642	10946.8375
1856.41926	10942.3375
1859.57004	10915.2375
1862.71876	10898.6375
1865.86542	10892.7375
1869.01003	10892.3375
1872.15258	10855.9375
1875.29308	10852.7375
1878.43152	10846.3375
1881.56792	10837.1375
1884.70227	10775.9375
1887.83457	10774.5375
1890.96482	10752.4375
1894.09304	10722.9375
1897.21921	10719.6375
1900.34335	10704.1375
1903.46544	10695.9375
1906.58551	10690.3375
1909.70353	10690.0375
1912.81953	10644.0375
1915.93349	10640.9375
1919.04543	10632.1375
1922.15534	10623.0375
1925.26322	10580.6375
1928.36908	10551.3375
1931.47292	10543.4375
1934.57473	10509.2375
1937.67453	10486.0375
1940.77232	10475.4375
1943.86808	10440.5375
1946.96184	10413.9375
1950.05358	10383.8375
1953.14331	10343.9375
1956.23103	10329.3375
1959.31675	10290.0375
1962.40046	10265.7375
1965.48217	10242.3375
1968.56188	10203.7375
1971.63959	10184.8375
1974.7153	10150.9375
1977.78901	10128.5375
1980.86073	10078.8375
1983.93046	10038.1375
1986.99819	9994.6375
1990.06394	9997.5375
1993.1277	9968.0375
1996.18947	9931.0375
1999.24925	9913.8375
2002.30706	9879.7375
2005.36288	9835.5375
2008.41672	9828.8375
2011.46859	9777.0375
2014.51848	9762.1375
2017.56639	9731.8375
2020.61233	9689.2375
2023.6563	9676.5375
2026.6983	9654.2375
2029.73833	9629.7375
2032.7764	9601.0375
2035.8125	9549.7375
2038.84664	9567.3375
2041.87881	9555.0375
2044.90903	9523.3375
2047.93729	9499.1375
2050.96359	9496.5375
2053.98794	9500.0375
2057.01034	9480.5375
2060.03078	9472.4375
2063.04927	9473.0375
2066.06582	9449.6375
2069.08042	9441.7375
2072.09307	9428.6375
2075.10378	9441.9375
2078.11255	9428.0375
2081.11938	9422.6375
2084.12426	9402.3375
2087.12722	9409.8375
2090.12824	9432.8375
2093.12732	9413.0375
2096.12447	9416.5375
2099.11969	9416.8375
2102.11299	9435.9375
2105.10435	9450.3375
2108.09379	9422.5375
2111.08131	9432.5375
2114.0669	9412.9375
2117.05057	9401.1375
2120.03233	9421.7375
2123.01216	9477.8375
2125.99008	9494.7375
2128.96609	9475.6375
2131.94018	9478.9375
2134.91236	9486.1375
2137.88263	9487.4375
2140.851	9513.6375
2143.81746	9507.9375
2146.78201	9499.2375
2149.74466	9501.2375
2152.7054	9493.2375
2155.66425	9483.1375
2158.6212	9506.5375
2161.57625	9482.6375
2164.52941	9488.1375
2167.48067	9465.9375
2170.43004	9473.2375
2173.37752	9474.7375
2176.32311	9459.4375
2179.26681	9470.8375
2182.20863	9453.1375
2185.14856	9458.0375
2188.08661	9472.3375
2191.02278	9465.8375
2193.95707	9445.0375
2196.88948	9449.5375
2199.82001	9425.6375
2202.74867	9453.6375
2205.67545	9423.6375
2208.60037	9402.7375
2211.52341	9376.3375
2214.44458	9363.5375
2217.36388	9316.9375
2220.28132	9333.7375
2223.1969	9327.0375
2226.11061	9279.4375
2229.02246	9261.0375
2231.93245	9264.2375
2234.84058	9237.4375
2237.74686	9226.2375
2240.65128	9201.0375
2243.55385	9198.0375
2246.45456	9208.3375
2249.35343	9177.3375
2252.25044	9184.5375
2255.14561	9174.0375
2258.03893	9169.5375
2260.93041	9120.5375
2263.82004	9128.4375
2266.70783	9129.6375
2269.59378	9083.1375
2272.4779	9064.6375
2275.36017	9045.8375
2278.24061	9000.7375
2281.11922	8979.5375
2283.996	8983.1375
2286.87094	8968.1375
2289.74405	8957.5375
2292.61534	8932.9375
2295.4848	8914.0375
2298.35243	8924.1375
2301.21824	8935.7375
2304.08223	8923.2375
2306.94439	8904.3375
2309.80474	8890.7375
2312.66327	8908.3375
2315.51999	8875.5375
2318.37489	8842.1375
2321.22797	8850.5375
2324.07925	8840.8375
2326.92871	8836.2375
2329.77637	8812.1375
2332.62222	8798.1375
2335.46626	8799.8375
2338.3085	8770.1375
2341.14893	8759.1375
2343.98756	8756.6375
2346.8244	8742.0375
2349.65943	8740.8375
2352.49267	8760.4375
2355.32411	8747.4375
2358.15376	8748.1375
2360.98161	8735.3375
2363.80768	8714.0375
2366.63195	8723.1375
2369.45444	8720.6375
2372.27514	8712.2375
2375.09405	8693.5375
2377.91118	8688.1375
2380.72652	8668.2375
2383.54009	8642.4375
2386.35187	8643.3375
2389.16188	8601.0375
2391.97011	8597.0375
2394.77657	8578.8375
2397.58125	8550.1375
2400.38416	8551.0375
2403.18529	8525.1375
2405.98466	8525.5375
2408.78226	8500.3375
2411.57809	8481.5375
2414.37216	8477.3375
2417.16446	8473.5375
2419.955	8462.5375
2422.74378	8452.4375
2425.5308	8459.1375
2428.31606	8446.2375
2431.09956	8441.9375
2433.88131	8422.5375
2436.6613	8424.2375
2439.43954	8409.5375
2442.21603	8412.0375
2444.99077	8391.8375
2447.76377	8437.9375
2450.53501	8428.8375
2453.30451	8412.2375
2456.07226	8378.0375
2458.83827	8369.7375
2461.60254	8361.1375
2464.36507	8350.4375
2467.12586	8366.1375
2469.88492	8357.8375
2472.64224	8348.6375
2475.39782	8299.8375
2478.15167	8332.6375
2480.90379	8325.3375
2483.65417	8322.3375
2486.40283	8319.2375
2489.14976	8354.8375
2491.89497	8315.9375
2494.63845	8313.5375
2497.3802	8282.6375
2500.12024	8298.1375
2502.85855	8305.3375
2505.59514	8269.1375
2508.33002	8269.7375
2511.06318	8252.0375
2513.79462	8227.6375
2516.52435	8223.3375
2519.25237	8218.8375
2521.97867	8200.5375
2524.70327	8185.8375
2527.42616	8190.1375
2530.14734	8193.4375
2532.86681	8168.1375
2535.58458	8171.9375
2538.30065	8170.7375
2541.01501	8151.8375
2543.72768	8134.6375
2546.43864	8137.5375
2549.14791	8121.7375
2551.85548	8087.5375
2554.56136	8080.0375
2557.26554	8055.5375
2559.96803	8055.5375
2562.66883	8035.2375
2565.36794	8046.5375
2568.06536	8030.5375
2570.7611	7990.5375
2573.45514	7997.6375
2576.14751	7996.6375
2578.83819	7967.2375
2581.52719	7953.8375
2584.21451	7921.1375
2586.90015	7935.8375
2589.58411	7913.4375
2592.2664	7901.5375
2594.94701	7867.7375
2597.62594	7868.1375
2600.30321	7877.4375
2602.9788	7861.7375
2605.65273	7854.3375
2608.32498	7867.3375
2610.99557	7823.0375
2613.66449	7840.0375
2616.33175	7842.3375
2618.99734	7830.9375
2621.66128	7830.3375
2624.32355	7775.1375
2626.98416	7806.7375
2629.64311	7770.7375
2632.30041	7759.2375
2634.95605	7745.7375
2637.61004	7721.0375
2640.26238	7718.4375
2642.91306	7713.7375
2645.56209	7706.4375
2648.20948	7716.6375
2650.85521	7689.9375
2653.4993	7705.2375
2656.14175	7685.9375
2658.78255	7698.8375
2661.42171	7688.0375
2664.05923	7699.4375
2666.6951	7703.9375
2669.32934	7725.9375
2671.96194	7708.3375
2674.59291	7716.2375
2677.22224	7704.0375
2679.84993	7720.8375
2682.476	7701.8375
2685.10043	7691.6375
2687.72324	7686.3375
2690.34441	7706.6375
2692.96396	7699.4375
2695.58188	7683.5375
2698.19818	7665.6375
2700.81285	7678.5375
2703.4259	7661.7375
2706.03733	7602.8375
2708.64714	7625.2375
2711.25533	7643.1375
2713.86191	7649.3375
2716.46687	7672.5375
2719.07021	7683.0375
2721.67194	7693.8375
2724.27206	7674.2375
2726.87057	7678.0375
2729.46747	7679.9375
2732.06276	7689.2375
2734.65644	7677.9375
2737.24852	7672.5375
2739.83899	7671.6375
2742.42786	7658.1375
2745.01513	7643.9375
2747.60079	7644.4375
2750.18486	7631.2375
2752.76733	7640.6375
2755.3482	7624.0375
2757.92747	7617.5375
2760.50515	7597.6375
2763.08123	7600.0375
2765.65573	7572.4375
2768.22863	7570.0375
2770.79994	7552.4375
2773.36967	7536.6375
2775.9378	7517.2375
2778.50435	7510.3375
2781.06932	7518.9375
2783.6327	7501.6375
2786.1945	7506.9375
2788.75471	7524.8375
2791.31335	7485.9375
2793.87041	7453.4375
2796.42589	7441.2375
2798.97979	7447.4375
2801.53212	7410.5375
2804.08288	7434.5375
2806.63206	7406.5375
2809.17967	7387.7375
2811.72571	7364.2375
2814.27018	7340.3375
2816.81308	7343.4375
2819.35442	7337.6375
2821.89419	7338.5375
2824.43239	7337.9375
2826.96904	7309.0375
2829.50412	7324.3375
2832.03763	7321.9375
2834.56959	7311.9375
2837.1	7282.6375
2839.62884	7283.4375
2842.15613	7270.8375
2844.68186	7293.7375
2847.20604	7258.6375
2849.72867	7252.0375
2852.24974	7265.4375
2854.76927	7238.2375
2857.28724	7228.1375
2859.80367	7220.4375
2862.31855	7201.7375
2864.83189	7201.6375
2867.34368	7197.0375
2869.85393	7207.0375
2872.36264	7206.8375
2874.8698	7193.2375
2877.37543	7203.3375
2879.87952	7186.7375
2882.38207	7192.7375
2884.88308	7168.7375
2887.38256	7184.5375
2889.88051	7182.5375
2892.37692	7168.1375
2894.8718	7182.6375
2897.36515	7173.3375
2899.85698	7178.0375
2902.34727	7188.7375
2904.83604	7177.8375
2907.32328	7196.4375
2909.809	7198.8375
2912.29319	7205.5375
2914.77587	7210.2375
2917.25702	7207.3375
2919.73665	7197.0375
2922.21476	7195.5375
2924.69136	7194.9375
2927.16644	7207.1375
2929.64	7203.2375
2932.11205	7181.7375
2934.58258	7153.6375
2937.05161	7170.9375
2939.51912	7171.9375
2941.98513	7166.4375
2944.44962	7155.1375
2946.91261	7117.9375
2949.37409	7127.4375
2951.83407	7143.4375
2954.29254	7151.3375
2956.74951	7115.2375
2959.20498	7115.0375
2961.65895	7107.2375
2964.11142	7108.0375
2966.56239	7072.7375
2969.01186	7068.4375
2971.45984	7072.9375
2973.90632	7065.7375
2976.35131	7052.3375
2978.7948	7041.8375
2981.23681	7028.9375
2983.67732	7014.7375
2986.11635	6992.7375
2988.55388	6976.4375
2990.98993	6979.1375
2993.4245	6972.7375
2995.85758	6946.2375
2998.28917	6927.7375
3000.71928	6938.8375
3003.14791	6897.9375
3005.57506	6886.7375
3008.00073	6873.0375
3010.42493	6886.7375
3012.84764	6880.2375
3015.26888	6872.5375
3017.68865	6855.6375
3020.10694	6870.6375
3022.52376	6834.9375
3024.9391	6836.5375
3027.35298	6800.4375
3029.76539	6808.1375
3032.17632	6794.7375
3034.5858	6793.6375
3036.9938	6767.3375
3039.40034	6786.0375
3041.80542	6745.8375
3044.20903	6741.7375
3046.61118	6748.1375
3049.01187	6743.1375
3051.4111	6751.5375
3053.80888	6719.7375
3056.20519	6715.8375
3058.60005	6711.7375
3060.99345	6688.4375
3063.3854	6682.2375
3065.7759	6671.7375
3068.16494	6672.5375
3070.55254	6640.1375
3072.93868	6627.4375
3075.32338	6605.3375
3077.70662	6598.7375
3080.08842	6581.5375
3082.46878	6583.7375
3084.84769	6570.2375
3087.22515	6563.0375
3089.60118	6583.0375
3091.97576	6565.7375
3094.3489	6562.1375
3096.72061	6567.0375
3099.09087	6559.0375
3101.4597	6566.9375
3103.82709	6566.2375
3106.19305	6566.6375
3108.55757	6573.6375
3110.92066	6557.0375
3113.28232	6554.6375
3115.64255	6522.3375
3118.00134	6515.6375
3120.35871	6518.3375
3122.71466	6502.6375
3125.06917	6506.4375
3127.42226	6504.1375
3129.77393	6493.0375
3132.12417	6488.6375
3134.47299	6499.3375
3136.82039	6479.4375
3139.16636	6495.1375
3141.51092	6489.6375
3143.85406	6464.3375
3146.19579	6483.2375
3148.53609	6492.2375
3150.87499	6471.0375
3153.21246	6492.2375
3155.54853	6514.2375
3157.88318	6514.4375
3160.21642	6522.1375
3162.54826	6516.5375
3164.87868	6510.3375
3167.2077	6525.3375
3169.5353	6521.2375
3171.86151	6526.2375
3174.18631	6536.9375
3176.5097	6510.1375
3178.83169	6512.5375
3181.15228	6502.2375
3183.47147	6503.8375
3185.78926	6499.2375
3188.10565	6482.2375
3190.42065	6498.7375
3192.73424	6481.5375
3195.04645	6479.5375
3197.35725	6468.3375
3199.66667	6461.8375
3201.97469	6482.6375
3204.28132	6459.1375
3206.58656	6479.0375
3208.8904	6455.9375
3211.19287	6484.5375
3213.49394	6483.7375
3215.79363	6504.1375
3218.09193	6506.2375
3220.38884	6483.3375
3222.68438	6463.3375
3224.97853	6465.5375
3227.2713	6470.7375
3229.56269	6451.6375
3231.8527	6457.1375
3234.14133	6447.5375
3236.42858	6441.0375
3238.71446	6434.2375
3240.99896	6431.8375
3243.28209	6409.2375
3245.56384	6400.2375
3247.84423	6411.3375
3250.12324	6395.1375
3252.40088	6396.8375
3254.67715	6401.9375
3256.95205	6387.1375
3259.22558	6416.5375
3261.49775	6386.8375
3263.76855	6389.5375
3266.03799	6382.0375
3268.30606	6364.2375
3270.57277	6361.2375
3272.83812	6333.1375
3275.10211	6329.7375
3277.36474	6313.7375
3279.62601	6314.3375
3281.88593	6318.0375
3284.14448	6306.1375
3286.40168	6304.6375
3288.65753	6299.8375
3290.91202	6306.2375
3293.16516	6296.4375
3295.41695	6274.6375
3297.66738	6234.1375
3299.91647	6203.9375
3302.16421	6182.7375
3304.4106	6147.6375
3306.65564	6093.7375
3308.89933	6077.0375
3311.14169	6017.9375
3313.38269	5967.7375
3315.62236	5934.1375
3317.86068	5881.3375
3320.09766	5833.3375
3322.3333	5806.9375
3324.5676	5782.8375
3326.80056	5691.0375
3329.03219	5632.4375
3331.26248	2.9375
3333.49143	0.3375
3335.71905	-0.2625
