Data from AgNPs_FTO_APTES_UA_50uM_CRN_50uM_R6G_10uM_NaF_0.1M_Addition_RamanShift__0__14-32-44-957.txt Node

Date: Mon Feb 21 14:32:44 GMT 2022
User: TCL
Spectrometer: QEP01345
Trigger mode: 4
Integration Time (sec): 7.000000E0
Scans to average: 10
Electric dark correction enabled: true
Nonlinearity correction enabled: false
Boxcar width: 0
XAxis mode: Raman Shifts
Number of Pixels in Spectrum: 1044
>>>>>Begin Spectral Data<<<<<
46.04893	0.8875
50.45542	-0.7125
54.85868	-0.8125
59.25871	-2.3125
63.6555	47.2875
68.04907	56.2875
72.43941	55.8875
76.82654	60.4875
81.21044	63.7875
85.59113	65.5875
89.96862	65.8875
94.34289	72.0875
98.71396	71.9875
103.08183	74.9875
107.4465	75.1875
111.80798	78.6875
116.16626	75.2875
120.52136	77.1875
124.87327	85.9875
129.222	80.8875
133.56755	83.8875
137.90993	92.9875
142.24913	97.3875
146.58517	106.8875
150.91804	123.3875
155.24774	150.2875
159.57429	177.3875
163.89768	223.2875
168.21792	298.3875
172.53501	402.3875
176.84895	558.4875
181.15975	780.9875
185.46741	1093.2875
189.77193	1506.0875
194.07331	2010.6875
198.37157	2601.3875
202.6667	3217.8875
206.9587	3833.9875
211.24758	4436.4875
215.53334	5059.9875
219.81599	5722.4875
224.09553	6491.6875
228.37195	7300.7875
232.64527	8229.8875
236.91549	9154.5875
241.18261	10001.5875
245.44663	10792.9875
249.70755	11477.5875
253.96539	12033.5875
258.22014	12593.3875
262.4718	13013.7875
266.72039	13356.9875
270.96589	13491.3875
275.20832	13420.7875
279.44768	13220.5875
283.68397	13004.4875
287.91719	12783.7875
292.14735	12705.6875
296.37445	12766.2875
300.59849	12981.7875
304.81948	13246.5875
309.03742	13445.3875
313.25231	13454.1875
317.46415	13183.3875
321.67296	12760.2875
325.87872	12389.5875
330.08145	12255.4875
334.28114	12287.2875
338.47781	12420.3875
342.67145	12606.7875
346.86207	12879.9875
351.04966	13281.4875
355.23424	13745.8875
359.4158	14086.1875
363.59435	14276.9875
367.76989	14414.3875
371.94243	14473.0875
376.11196	14501.3875
380.27849	14560.6875
384.44203	14608.3875
388.60257	14641.4875
392.76012	14596.1875
396.91468	14710.6875
401.06626	14950.2875
405.21485	15134.8875
409.36047	14995.5875
413.50311	14614.9875
417.64277	14280.1875
421.77947	14143.2875
425.9132	14158.2875
430.04396	14192.6875
434.17176	14287.4875
438.2966	14467.8875
442.41849	14834.9875
446.53742	15355.9875
450.6534	15848.7875
454.76644	16155.8875
458.87653	16138.8875
462.98368	15872.9875
467.08789	15529.3875
471.18916	15189.6875
475.2875	14856.3875
479.38291	14587.6875
483.4754	14404.0875
487.56496	14224.7875
491.6516	14150.0875
495.73531	14076.0875
499.81612	14073.0875
503.89401	14187.0875
507.96899	14263.7875
512.04106	14265.4875
516.11023	14291.4875
520.1765	14321.9875
524.23987	14370.8875
528.30034	14350.6875
532.35792	14296.5875
536.41261	14125.1875
540.46441	13881.2875
544.51333	13738.1875
548.55936	13773.3875
552.60252	14020.3875
556.64279	14339.9875
560.6802	14558.1875
564.71473	14692.1875
568.7464	14893.7875
572.7752	15120.6875
576.80114	15084.8875
580.82422	15085.7875
584.84444	15413.6875
588.86181	16098.1875
592.87633	17076.5875
596.888	17666.0875
600.89682	17516.5875
604.9028	17798.0875
608.90594	19986.1875
612.90624	22832.5875
616.90371	21607.5875
620.89834	17102.5875
624.89015	15058.1875
628.87913	14745.3875
632.86528	14803.6875
636.84862	14815.3875
640.82913	14550.1875
644.80683	14087.9875
648.78172	13773.9875
652.75379	13800.3875
656.72306	14149.8875
660.68952	14544.8875
664.65319	14452.1875
668.61405	14033.9875
672.57211	13938.3875
676.52738	13995.5875
680.47986	13952.7875
684.42955	13815.9875
688.37646	13743.6875
692.32058	13853.4875
696.26192	14099.1875
700.20048	14316.3875
704.13626	14449.7875
708.06928	14348.2875
711.99952	14215.0875
715.927	14189.7875
719.85171	14260.9875
723.77365	14269.4875
727.69284	14073.0875
731.60928	13906.5875
735.52295	13926.2875
739.43388	13976.4875
743.34206	14042.4875
747.24749	14070.2875
751.15017	14097.4875
755.05012	14250.0875
758.94733	14636.4875
762.8418	15530.8875
766.73354	16980.9875
770.62254	18555.8875
774.50882	19306.4875
778.39237	18720.0875
782.27321	17228.3875
786.15132	15743.3875
790.02671	14792.7875
793.89938	14312.0875
797.76935	14157.5875
801.6366	14047.7875
805.50115	14016.6875
809.36299	13957.0875
813.22213	13883.8875
817.07857	13838.7875
820.93231	13794.1875
824.78336	13801.9875
828.63172	13843.1875
832.47738	13858.1875
836.32036	13895.4875
840.16066	13955.7875
843.99827	13962.9875
847.8332	13946.7875
851.66546	13875.4875
855.49504	13850.9875
859.32195	13869.9875
863.1462	13856.8875
866.96777	13797.3875
870.78668	13776.7875
874.60293	13802.5875
878.41652	13813.5875
882.22745	13919.5875
886.03573	13988.5875
889.84136	13999.5875
893.64433	13893.6875
897.44466	13864.5875
901.24235	13842.3875
905.0374	13793.8875
908.8298	13698.1875
912.61957	13677.5875
916.40671	13725.9875
920.19121	13832.7875
923.97308	14021.7875
927.75233	14158.7875
931.52895	14264.2875
935.30295	14164.8875
939.07433	13901.8875
942.84309	13650.3875
946.60924	13573.8875
950.37278	13533.7875
954.13371	13481.3875
957.89203	13430.5875
961.64774	13380.7875
965.40086	13358.5875
969.15137	13351.0875
972.89929	13346.9875
976.64461	13398.6875
980.38733	13423.7875
984.12747	13540.8875
987.86502	13637.6875
991.59999	13841.0875
995.33237	14065.7875
999.06217	14445.1875
1002.78939	14875.7875
1006.51404	15068.2875
1010.23611	15231.2875
1013.95561	15380.4875
1017.67255	15420.1875
1021.38692	15221.3875
1025.09872	14998.4875
1028.80796	15065.4875
1032.51465	15357.4875
1036.21877	15718.6875
1039.92035	15803.7875
1043.61937	15659.5875
1047.31584	15408.4875
1051.00976	15039.8875
1054.70114	14820.9875
1058.38998	14724.0875
1062.07627	14695.1875
1065.76003	14753.2875
1069.44126	14786.8875
1073.11995	15036.2875
1076.79611	15231.8875
1080.46974	15491.0875
1084.14085	15747.7875
1087.80943	15980.3875
1091.47549	16097.8875
1095.13903	15948.8875
1098.80005	15620.6875
1102.45857	15352.2875
1106.11456	15219.7875
1109.76805	15279.1875
1113.41903	15397.1875
1117.06751	15609.7875
1120.71348	15907.5875
1124.35696	16235.5875
1127.99793	16508.2875
1131.63641	16519.1875
1135.2724	16197.8875
1138.90589	15860.4875
1142.5369	15634.4875
1146.16542	15541.6875
1149.79145	15513.9875
1153.415	15524.1875
1157.03607	15619.8875
1160.65467	15875.5875
1164.27079	16391.0875
1167.88443	17123.0875
1171.49561	18201.1875
1175.10432	19775.8875
1178.71056	21921.1875
1182.31434	23795.3875
1185.91565	24516.5875
1189.51451	23972.1875
1193.11091	22751.8875
1196.70485	21401.8875
1200.29634	20407.2875
1203.88538	19598.1875
1207.47197	18809.9875
1211.05612	18164.9875
1214.63782	17756.4875
1218.21708	17689.8875
1221.79391	17863.5875
1225.36829	18009.7875
1228.94024	17961.4875
1232.50976	17628.0875
1236.07685	17276.3875
1239.6415	17078.5875
1243.20374	17063.6875
1246.76355	17208.5875
1250.32093	17418.2875
1253.8759	17784.3875
1257.42845	18244.3875
1260.97859	18809.1875
1264.52631	19393.7875
1268.07163	19978.4875
1271.61453	20548.3875
1275.15503	21002.9875
1278.69312	21357.7875
1282.22882	21722.3875
1285.76211	22267.8875
1289.29301	22961.4875
1292.82151	23803.2875
1296.34761	24831.2875
1299.87133	26216.9875
1303.39266	28074.3875
1306.9116	30472.4875
1310.42815	32753.2875
1313.94233	34022.0875
1317.45412	33379.4875
1320.96354	31507.7875
1324.47058	29423.6875
1327.97525	27568.6875
1331.47754	26286.0875
1334.97747	25633.0875
1338.47502	25332.8875
1341.97022	25214.7875
1345.46305	25310.5875
1348.95352	26004.9875
1352.44163	27313.2875
1355.92738	29576.2875
1359.41078	32764.8875
1362.89183	35519.4875
1366.37053	35089.5875
1369.84688	31170.4875
1373.32088	26626.4875
1376.79254	23777.0875
1380.26186	22521.2875
1383.72883	22158.9875
1387.19347	21701.2875
1390.65578	21064.0875
1394.11575	20660.0875
1397.57339	20621.5875
1401.0287	20826.3875
1404.48168	20990.7875
1407.93234	21007.1875
1411.38068	20888.2875
1414.82669	20655.4875
1418.27039	20248.5875
1421.71177	19802.6875
1425.15083	19366.6875
1428.58758	19243.9875
1432.02203	19472.9875
1435.45416	19939.5875
1438.88399	20260.3875
1442.31151	20372.3875
1445.73673	20486.9875
1449.15965	20474.5875
1452.58027	20305.3875
1455.9986	20020.6875
1459.41463	19843.4875
1462.82837	20065.1875
1466.23982	20526.4875
1469.64898	21045.4875
1473.05586	21490.1875
1476.46045	21824.4875
1479.86276	22051.9875
1483.26279	22243.6875
1486.66054	22371.7875
1490.05602	22723.0875
1493.44922	23187.7875
1496.84016	23776.8875
1500.22882	24585.3875
1503.61521	25937.7875
1506.99934	27665.5875
1510.38121	29190.7875
1513.76081	29515.3875
1517.13816	28262.5875
1520.51324	26023.8875
1523.88607	23993.6875
1527.25665	22718.7875
1530.62498	22120.8875
1533.99105	21740.0875
1537.35488	21344.4875
1540.71647	20982.2875
1544.07581	20642.4875
1547.4329	20310.4875
1550.78776	20001.6875
1554.14038	19846.4875
1557.49077	19761.5875
1560.83892	19820.0875
1564.18484	20036.7875
1567.52853	20392.5875
1570.86999	20782.1875
1574.20922	21139.9875
1577.54624	21249.5875
1580.88103	20770.3875
1584.2136	20297.1875
1587.54395	20445.9875
1590.87208	21336.6875
1594.19801	22901.0875
1597.52172	24629.3875
1600.84321	25365.0875
1604.16251	24547.5875
1607.47959	22633.6875
1610.79447	20520.8875
1614.10715	18674.4875
1617.41763	17445.7875
1620.7259	16753.2875
1624.03199	16518.3875
1627.33587	16651.0875
1630.63757	17147.3875
1633.93707	18078.8875
1637.23439	19623.6875
1640.52951	22037.6875
1643.82246	25107.9875
1647.11321	27960.9875
1650.40179	28911.7875
1653.68819	27023.4875
1656.97241	23359.4875
1660.25446	19914.6875
1663.53433	17564.8875
1666.81203	16179.0875
1670.08756	15371.6875
1673.36092	14874.0875
1676.63211	14494.7875
1679.90115	14260.3875
1683.16801	14089.4875
1686.43272	13995.4875
1689.69527	13951.0875
1692.95567	13921.5875
1696.2139	14032.7875
1699.46999	14115.3875
1702.72392	14085.2875
1705.97571	13953.9875
1709.22535	13771.2875
1712.47284	13699.1875
1715.71819	13615.6875
1718.96139	13587.9875
1722.20246	13509.3875
1725.44139	13451.7875
1728.67818	13409.1875
1731.91284	13315.0875
1735.14537	13271.8875
1738.37576	13245.0875
1741.60403	13184.9875
1744.83017	13190.9875
1748.05418	13189.5875
1751.27607	13211.4875
1754.49584	13278.4875
1757.71349	13322.9875
1760.92903	13392.6875
1764.14244	13364.3875
1767.35375	13356.1875
1770.56294	13299.1875
1773.77002	13225.5875
1776.97499	13116.9875
1780.17785	13035.5875
1783.37861	12981.0875
1786.57727	12948.9875
1789.77382	12916.3875
1792.96828	12875.1875
1796.16064	12842.0875
1799.3509	12843.4875
1802.53907	12818.0875
1805.72514	12769.4875
1808.90913	12780.2875
1812.09102	12742.8875
1815.27083	12710.9875
1818.44856	12708.4875
1821.6242	12679.4875
1824.79776	12673.7875
1827.96924	12687.0875
1831.13864	12640.8875
1834.30597	12632.4875
1837.47122	12632.9875
1840.6344	12617.1875
1843.7955	12606.2875
1846.95454	12606.7875
1850.11151	12628.7875
1853.26642	12593.6875
1856.41926	12601.9875
1859.57004	12586.7875
1862.71876	12590.3875
1865.86542	12568.2875
1869.01003	12577.0875
1872.15258	12550.0875
1875.29308	12537.5875
1878.43152	12552.8875
1881.56792	12552.7875
1884.70227	12535.8875
1887.83457	12552.3875
1890.96482	12533.8875
1894.09304	12523.2875
1897.21921	12514.4875
1900.34335	12508.9875
1903.46544	12488.8875
1906.58551	12475.4875
1909.70353	12496.4875
1912.81953	12476.1875
1915.93349	12470.3875
1919.04543	12491.9875
1922.15534	12452.4875
1925.26322	12425.2875
1928.36908	12393.1875
1931.47292	12368.2875
1934.57473	12352.5875
1937.67453	12329.8875
1940.77232	12309.7875
1943.86808	12244.9875
1946.96184	12237.8875
1950.05358	12203.9875
1953.14331	12182.3875
1956.23103	12153.5875
1959.31675	12132.7875
1962.40046	12120.2875
1965.48217	12064.8875
1968.56188	12044.8875
1971.63959	12029.0875
1974.7153	11993.0875
1977.78901	11935.1875
1980.86073	11932.1875
1983.93046	11847.9875
1986.99819	11839.9875
1990.06394	11838.7875
1993.1277	11824.4875
1996.18947	11748.1875
1999.24925	11734.0875
2002.30706	11687.8875
2005.36288	11658.6875
2008.41672	11642.0875
2011.46859	11608.1875
2014.51848	11574.6875
2017.56639	11551.9875
2020.61233	11501.6875
2023.6563	11503.6875
2026.6983	11491.7875
2029.73833	11434.4875
2032.7764	11417.5875
2035.8125	11390.0875
2038.84664	11439.9875
2041.87881	11423.1875
2044.90903	11390.3875
2047.93729	11359.6875
2050.96359	11395.4875
2053.98794	11393.9875
2057.01034	11366.1875
2060.03078	11349.5875
2063.04927	11359.7875
2066.06582	11317.8875
2069.08042	11294.5875
2072.09307	11296.7875
2075.10378	11291.3875
2078.11255	11312.0875
2081.11938	11305.7875
2084.12426	11273.0875
2087.12722	11303.1875
2090.12824	11287.8875
2093.12732	11296.7875
2096.12447	11304.6875
2099.11969	11322.9875
2102.11299	11309.0875
2105.10435	11346.3875
2108.09379	11337.7875
2111.08131	11353.9875
2114.0669	11311.4875
2117.05057	11333.5875
2120.03233	11366.6875
2123.01216	11394.3875
2125.99008	11404.7875
2128.96609	11402.9875
2131.94018	11429.0875
2134.91236	11432.6875
2137.88263	11416.0875
2140.851	11445.5875
2143.81746	11459.8875
2146.78201	11472.9875
2149.74466	11466.3875
2152.7054	11462.7875
2155.66425	11451.1875
2158.6212	11447.6875
2161.57625	11476.8875
2164.52941	11473.4875
2167.48067	11456.4875
2170.43004	11436.7875
2173.37752	11466.2875
2176.32311	11450.8875
2179.26681	11448.8875
2182.20863	11479.0875
2185.14856	11481.3875
2188.08661	11482.8875
2191.02278	11488.9875
2193.95707	11476.3875
2196.88948	11466.0875
2199.82001	11466.0875
2202.74867	11493.7875
2205.67545	11486.9875
2208.60037	11444.1875
2211.52341	11454.1875
2214.44458	11431.3875
2217.36388	11420.8875
2220.28132	11427.6875
2223.1969	11398.8875
2226.11061	11378.1875
2229.02246	11357.0875
2231.93245	11340.2875
2234.84058	11322.6875
2237.74686	11312.9875
2240.65128	11305.3875
2243.55385	11320.3875
2246.45456	11327.4875
2249.35343	11306.9875
2252.25044	11258.5875
2255.14561	11230.2875
2258.03893	11268.2875
2260.93041	11287.3875
2263.82004	11266.8875
2266.70783	11217.8875
2269.59378	11202.4875
2272.4779	11158.8875
2275.36017	11127.2875
2278.24061	11116.4875
2281.11922	11072.0875
2283.996	11074.0875
2286.87094	11063.5875
2289.74405	11037.8875
2292.61534	11023.7875
2295.4848	11020.2875
2298.35243	11039.9875
2301.21824	11034.1875
2304.08223	11026.9875
2306.94439	11037.2875
2309.80474	11064.9875
2312.66327	11087.1875
2315.51999	11056.3875
2318.37489	11031.5875
2321.22797	11008.2875
2324.07925	11037.4875
2326.92871	11012.7875
2329.77637	11046.1875
2332.62222	10995.2875
2335.46626	10995.9875
2338.3085	10978.9875
2341.14893	10971.3875
2343.98756	10973.2875
2346.8244	10977.1875
2349.65943	10991.5875
2352.49267	10975.8875
2355.32411	10966.5875
2358.15376	10947.2875
2360.98161	10976.7875
2363.80768	10966.7875
2366.63195	10947.2875
2369.45444	10884.7875
2372.27514	10942.6875
2375.09405	10910.2875
2377.91118	10913.6875
2380.72652	10904.5875
2383.54009	10852.7875
2386.35187	10840.9875
2389.16188	10802.3875
2391.97011	10789.3875
2394.77657	10768.5875
2397.58125	10759.9875
2400.38416	10759.5875
2403.18529	10731.9875
2405.98466	10731.6875
2408.78226	10696.3875
2411.57809	10676.8875
2414.37216	10697.0875
2417.16446	10661.1875
2419.955	10667.8875
2422.74378	10669.7875
2425.5308	10624.2875
2428.31606	10636.8875
2431.09956	10632.4875
2433.88131	10618.1875
2436.6613	10632.2875
2439.43954	10613.3875
2442.21603	10627.5875
2444.99077	10640.6875
2447.76377	10650.8875
2450.53501	10639.4875
2453.30451	10646.8875
2456.07226	10595.4875
2458.83827	10588.7875
2461.60254	10614.7875
2464.36507	10616.2875
2467.12586	10633.2875
2469.88492	10630.9875
2472.64224	10638.0875
2475.39782	10672.8875
2478.15167	10665.5875
2480.90379	10646.4875
2483.65417	10651.3875
2486.40283	10663.9875
2489.14976	10675.4875
2491.89497	10651.6875
2494.63845	10701.8875
2497.3802	10692.9875
2500.12024	10674.5875
2502.85855	10666.1875
2505.59514	10623.0875
2508.33002	10581.4875
2511.06318	10582.8875
2513.79462	10575.1875
2516.52435	10552.3875
2519.25237	10524.0875
2521.97867	10521.0875
2524.70327	10527.7875
2527.42616	10513.4875
2530.14734	10522.9875
2532.86681	10509.4875
2535.58458	10505.9875
2538.30065	10497.3875
2541.01501	10508.6875
2543.72768	10469.7875
2546.43864	10491.1875
2549.14791	10480.0875
2551.85548	10453.1875
2554.56136	10464.0875
2557.26554	10429.7875
2559.96803	10430.3875
2562.66883	10451.3875
2565.36794	10418.0875
2568.06536	10434.8875
2570.7611	10390.8875
2573.45514	10401.7875
2576.14751	10407.1875
2578.83819	10372.8875
2581.52719	10340.1875
2584.21451	10338.0875
2586.90015	10325.5875
2589.58411	10318.0875
2592.2664	10306.0875
2594.94701	10288.0875
2597.62594	10310.2875
2600.30321	10292.3875
2602.9788	10300.0875
2605.65273	10312.8875
2608.32498	10319.2875
2610.99557	10310.3875
2613.66449	10302.9875
2616.33175	10306.2875
2618.99734	10292.3875
2621.66128	10283.7875
2624.32355	10303.0875
2626.98416	10279.5875
2629.64311	10260.8875
2632.30041	10236.0875
2634.95605	10193.7875
2637.61004	10185.5875
2640.26238	10187.5875
2642.91306	10186.1875
2645.56209	10182.9875
2648.20948	10156.0875
2650.85521	10152.2875
2653.4993	10188.3875
2656.14175	10167.4875
2658.78255	10134.5875
2661.42171	10149.2875
2664.05923	10201.7875
2666.6951	10200.4875
2669.32934	10242.0875
2671.96194	10232.4875
2674.59291	10228.9875
2677.22224	10239.3875
2679.84993	10234.2875
2682.476	10195.9875
2685.10043	10205.5875
2687.72324	10185.8875
2690.34441	10204.6875
2692.96396	10187.0875
2695.58188	10188.3875
2698.19818	10168.3875
2700.81285	10181.7875
2703.4259	10236.4875
2706.03733	10402.2875
2708.64714	10286.8875
2711.25533	10276.4875
2713.86191	10256.6875
2716.46687	10246.8875
2719.07021	10263.9875
2721.67194	10254.3875
2724.27206	10236.4875
2726.87057	10238.5875
2729.46747	10247.0875
2732.06276	10242.8875
2734.65644	10241.6875
2737.24852	10231.9875
2739.83899	10209.8875
2742.42786	10213.2875
2745.01513	10189.6875
2747.60079	10211.8875
2750.18486	10206.0875
2752.76733	10216.2875
2755.3482	10189.3875
2757.92747	10169.6875
2760.50515	10163.6875
2763.08123	10173.1875
2765.65573	10153.2875
2768.22863	10120.2875
2770.79994	10129.3875
2773.36967	10093.1875
2775.9378	10112.6875
2778.50435	10095.2875
2781.06932	10108.4875
2783.6327	10148.0875
2786.1945	10133.8875
2788.75471	10121.0875
2791.31335	10079.7875
2793.87041	10090.1875
2796.42589	10044.9875
2798.97979	10034.0875
2801.53212	10030.7875
2804.08288	10042.2875
2806.63206	10021.2875
2809.17967	9982.8875
2811.72571	9977.6875
2814.27018	9966.2875
2816.81308	9953.3875
2819.35442	9949.5875
2821.89419	9961.3875
2824.43239	9948.8875
2826.96904	9951.8875
2829.50412	9943.0875
2832.03763	9961.7875
2834.56959	9933.4875
2837.1	9945.1875
2839.62884	9916.5875
2842.15613	9906.0875
2844.68186	9909.5875
2847.20604	9912.3875
2849.72867	9932.4875
2852.24974	9932.5875
2854.76927	9949.2875
2857.28724	9968.5875
2859.80367	9951.3875
2862.31855	9908.3875
2864.83189	9885.4875
2867.34368	9857.8875
2869.85393	9900.0875
2872.36264	9893.8875
2874.8698	9874.8875
2877.37543	9875.3875
2879.87952	9877.9875
2882.38207	9889.8875
2884.88308	9870.6875
2887.38256	9865.4875
2889.88051	9878.1875
2892.37692	9896.5875
2894.8718	9894.8875
2897.36515	9916.4875
2899.85698	9895.6875
2902.34727	9923.4875
2904.83604	9935.5875
2907.32328	9952.2875
2909.809	9960.2875
2912.29319	9965.5875
2914.77587	9964.2875
2917.25702	9981.8875
2919.73665	9946.3875
2922.21476	9955.9875
2924.69136	9947.5875
2927.16644	9949.6875
2929.64	9939.9875
2932.11205	9920.1875
2934.58258	9873.4875
2937.05161	9882.4875
2939.51912	9888.3875
2941.98513	9891.0875
2944.44962	9848.5875
2946.91261	9813.3875
2949.37409	9843.9875
2951.83407	9835.6875
2954.29254	9842.6875
2956.74951	9834.4875
2959.20498	9834.5875
2961.65895	9797.3875
2964.11142	9788.3875
2966.56239	9780.5875
2969.01186	9769.3875
2971.45984	9754.7875
2973.90632	9750.2875
2976.35131	9740.2875
2978.7948	9709.3875
2981.23681	9697.6875
2983.67732	9670.0875
2986.11635	9621.0875
2988.55388	9613.6875
2990.98993	9582.5875
2993.4245	9590.6875
2995.85758	9588.4875
2998.28917	9540.1875
3000.71928	9572.5875
3003.14791	9553.8875
3005.57506	9546.3875
3008.00073	9509.2875
3010.42493	9508.0875
3012.84764	9484.1875
3015.26888	9512.6875
3017.68865	9462.6875
3020.10694	9469.3875
3022.52376	9428.8875
3024.9391	9435.8875
3027.35298	9402.1875
3029.76539	9404.6875
3032.17632	9414.3875
3034.5858	9391.8875
3036.9938	9373.2875
3039.40034	9377.3875
3041.80542	9370.2875
3044.20903	9371.9875
3046.61118	9360.8875
3049.01187	9345.7875
3051.4111	9333.7875
3053.80888	9329.2875
3056.20519	9328.8875
3058.60005	9283.4875
3060.99345	9287.7875
3063.3854	9290.9875
3065.7759	9261.5875
3068.16494	9232.0875
3070.55254	9189.9875
3072.93868	9165.7875
3075.32338	9140.8875
3077.70662	9131.0875
3080.08842	9129.4875
3082.46878	9127.7875
3084.84769	9082.2875
3087.22515	9089.4875
3089.60118	9095.8875
3091.97576	9107.2875
3094.3489	9104.0875
3096.72061	9089.4875
3099.09087	9071.5875
3101.4597	9095.2875
3103.82709	9077.3875
3106.19305	9070.9875
3108.55757	9066.6875
3110.92066	9041.7875
3113.28232	9057.1875
3115.64255	8993.1875
3118.00134	9011.7875
3120.35871	8996.3875
3122.71466	9004.9875
3125.06917	8982.9875
3127.42226	8987.1875
3129.77393	8983.7875
3132.12417	8977.0875
3134.47299	8965.3875
3136.82039	8944.5875
3139.16636	8979.6875
3141.51092	8971.6875
3143.85406	8945.2875
3146.19579	8952.9875
3148.53609	8962.4875
3150.87499	8946.7875
3153.21246	8930.2875
3155.54853	8964.0875
3157.88318	8946.5875
3160.21642	8971.1875
3162.54826	8963.7875
3164.87868	8974.7875
3167.2077	8961.5875
3169.5353	8992.9875
3171.86151	8997.7875
3174.18631	8963.9875
3176.5097	8955.3875
3178.83169	8963.1875
3181.15228	8951.9875
3183.47147	8950.1875
3185.78926	8947.3875
3188.10565	8919.4875
3190.42065	8953.9875
3192.73424	8916.5875
3195.04645	8930.2875
3197.35725	8925.7875
3199.66667	8917.0875
3201.97469	8927.8875
3204.28132	8899.7875
3206.58656	8897.7875
3208.8904	8902.0875
3211.19287	8917.1875
3213.49394	8935.7875
3215.79363	8943.0875
3218.09193	8947.8875
3220.38884	8997.4875
3222.68438	9007.1875
3224.97853	8961.9875
3227.2713	8946.9875
3229.56269	8922.8875
3231.8527	8923.7875
3234.14133	8888.7875
3236.42858	8898.4875
3238.71446	8870.7875
3240.99896	8858.3875
3243.28209	8842.2875
3245.56384	8820.8875
3247.84423	8851.5875
3250.12324	8828.9875
3252.40088	8839.0875
3254.67715	8842.4875
3256.95205	8807.0875
3259.22558	8822.8875
3261.49775	8822.4875
3263.76855	8798.7875
3266.03799	8795.0875
3268.30606	8789.9875
3270.57277	8791.4875
3272.83812	8758.1875
3275.10211	8766.0875
3277.36474	8736.1875
3279.62601	8740.4875
3281.88593	8728.0875
3284.14448	8747.6875
3286.40168	8729.4875
3288.65753	8743.7875
3290.91202	8728.3875
3293.16516	8748.6875
3295.41695	8706.3875
3297.66738	8664.9875
3299.91647	8631.9875
3302.16421	8563.0875
3304.4106	8526.4875
3306.65564	8479.8875
3308.89933	8424.9875
3311.14169	8397.1875
3313.38269	8333.3875
3315.62236	8275.6875
3317.86068	8178.5875
3320.09766	8126.4875
3322.3333	8092.6875
3324.5676	8095.7875
3326.80056	8010.6875
3329.03219	7934.2875
3331.26248	2.2875
3333.49143	-0.5125
3335.71905	0.7875
