Data from AgNPs_FTO_APTES_UA_50uM_CRN_1uM_R6G_10uM_NaF_0.1M_Addition_RamanShift__18__11-36-34-730.txt Node

Date: Mon Feb 21 11:36:34 GMT 2022
User: TCL
Spectrometer: QEP01345
Trigger mode: 4
Integration Time (sec): 7.000000E0
Scans to average: 10
Electric dark correction enabled: true
Nonlinearity correction enabled: false
Boxcar width: 0
XAxis mode: Raman Shifts
Number of Pixels in Spectrum: 1044
>>>>>Begin Spectral Data<<<<<
46.04893	0.6875
50.45542	-1.0125
54.85868	-0.2125
59.25871	-1.7125
63.6555	61.4875
68.04907	69.6875
72.43941	70.3875
76.82654	72.2875
81.21044	78.6875
85.59113	81.5875
89.96862	85.6875
94.34289	85.4875
98.71396	84.5875
103.08183	89.4875
107.4465	88.8875
111.80798	91.9875
116.16626	93.6875
120.52136	93.2875
124.87327	104.0875
129.222	103.6875
133.56755	111.3875
137.90993	121.1875
142.24913	126.4875
146.58517	139.4875
150.91804	160.8875
155.24774	192.0875
159.57429	236.7875
163.89768	307.0875
168.21792	405.4875
172.53501	549.1875
176.84895	771.3875
181.15975	1074.8875
185.46741	1520.8875
189.77193	2074.7875
194.07331	2790.6875
198.37157	3565.2875
202.6667	4413.7875
206.9587	5254.5875
211.24758	6082.4875
215.53334	6922.6875
219.81599	7841.2875
224.09553	8865.6875
228.37195	9982.9875
232.64527	11213.9875
236.91549	12484.4875
241.18261	13707.3875
245.44663	14816.3875
249.70755	15742.5875
253.96539	16565.0875
258.22014	17292.5875
262.4718	17885.4875
266.72039	18274.7875
270.96589	18468.1875
275.20832	18454.8875
279.44768	18301.3875
283.68397	18078.7875
287.91719	17934.9875
292.14735	17888.9875
296.37445	17962.1875
300.59849	18166.5875
304.81948	18390.9875
309.03742	18597.7875
313.25231	18468.6875
317.46415	18010.0875
321.67296	17324.8875
325.87872	16716.6875
330.08145	16430.9875
334.28114	16358.3875
338.47781	16490.9875
342.67145	16720.0875
346.86207	17110.1875
351.04966	17605.3875
355.23424	18145.3875
359.4158	18613.7875
363.59435	18913.7875
367.76989	19088.6875
371.94243	19161.8875
376.11196	19198.3875
380.27849	19206.5875
384.44203	19244.5875
388.60257	19274.4875
392.76012	19410.8875
396.91468	19640.2875
401.06626	19952.3875
405.21485	20194.2875
409.36047	20019.3875
413.50311	19559.3875
417.64277	19151.3875
421.77947	18951.0875
425.9132	18947.3875
430.04396	18963.9875
434.17176	19034.6875
438.2966	19192.6875
442.41849	19583.8875
446.53742	20097.2875
450.6534	20711.8875
454.76644	21160.0875
458.87653	21337.8875
462.98368	21259.2875
467.08789	21016.8875
471.18916	20666.8875
475.2875	20307.4875
479.38291	20093.1875
483.4754	19981.7875
487.56496	19751.3875
491.6516	19479.4875
495.73531	19189.9875
499.81612	19079.9875
503.89401	19178.2875
507.96899	19250.1875
512.04106	19277.1875
516.11023	19197.0875
520.1765	19098.7875
524.23987	18995.6875
528.30034	18833.0875
532.35792	18638.3875
536.41261	18380.7875
540.46441	18131.9875
544.51333	18046.9875
548.55936	18180.4875
552.60252	18616.7875
556.64279	19139.3875
560.6802	19564.8875
564.71473	19800.7875
568.7464	20315.5875
572.7752	20883.9875
576.80114	21159.3875
580.82422	21273.2875
584.84444	21484.0875
588.86181	21801.4875
592.87633	22104.1875
596.888	22183.0875
600.89682	21956.9875
604.9028	22742.4875
608.90594	25675.9875
612.90624	29151.2875
616.90371	27605.5875
620.89834	21943.5875
624.89015	19271.6875
628.87913	18866.5875
632.86528	18933.5875
636.84862	19015.1875
640.82913	18722.2875
644.80683	18149.0875
648.78172	17670.0875
652.75379	17608.0875
656.72306	17898.5875
660.68952	18418.2875
664.65319	18297.8875
668.61405	17872.0875
672.57211	17714.8875
676.52738	17774.7875
680.47986	17794.7875
684.42955	17668.0875
688.37646	17629.0875
692.32058	17706.1875
696.26192	17947.9875
700.20048	18160.9875
704.13626	18231.4875
708.06928	18165.1875
711.99952	17989.8875
715.927	17945.6875
719.85171	18070.4875
723.77365	18033.0875
727.69284	17818.3875
731.60928	17565.5875
735.52295	17494.3875
739.43388	17499.0875
743.34206	17580.7875
747.24749	17663.8875
751.15017	17803.3875
755.05012	18097.0875
758.94733	18673.5875
762.8418	19964.4875
766.73354	22056.9875
770.62254	24072.5875
774.50882	24742.1875
778.39237	23625.0875
782.27321	21535.2875
786.15132	19608.4875
790.02671	18468.8875
793.89938	17874.5875
797.76935	17636.9875
801.6366	17569.5875
805.50115	17474.9875
809.36299	17378.8875
813.22213	17212.2875
817.07857	17160.6875
820.93231	17074.9875
824.78336	16995.9875
828.63172	16945.9875
832.47738	16930.3875
836.32036	16902.2875
840.16066	16953.4875
843.99827	16954.3875
847.8332	16922.9875
851.66546	16916.6875
855.49504	16888.4875
859.32195	16891.9875
863.1462	16835.6875
866.96777	16736.6875
870.78668	16721.5875
874.60293	16779.7875
878.41652	16817.3875
882.22745	16866.8875
886.03573	16947.0875
889.84136	16937.1875
893.64433	16871.0875
897.44466	16823.1875
901.24235	16708.2875
905.0374	16630.6875
908.8298	16503.5875
912.61957	16475.4875
916.40671	16614.3875
920.19121	16771.1875
923.97308	16963.4875
927.75233	17090.5875
931.52895	17064.2875
935.30295	16867.9875
939.07433	16520.5875
942.84309	16192.0875
946.60924	16092.0875
950.37278	16031.6875
954.13371	15996.8875
957.89203	15978.0875
961.64774	15896.9875
965.40086	15856.4875
969.15137	15817.6875
972.89929	15732.3875
976.64461	15729.8875
980.38733	15727.5875
984.12747	15759.7875
987.86502	15885.4875
991.59999	16129.9875
995.33237	16411.0875
999.06217	16909.9875
1002.78939	17398.9875
1006.51404	17825.2875
1010.23611	18148.2875
1013.95561	18356.6875
1017.67255	18345.8875
1021.38692	18147.2875
1025.09872	17822.2875
1028.80796	17709.1875
1032.51465	17933.9875
1036.21877	18197.0875
1039.92035	18318.1875
1043.61937	18189.7875
1047.31584	17922.8875
1051.00976	17637.0875
1054.70114	17468.8875
1058.38998	17455.8875
1062.07627	17584.0875
1065.76003	17694.5875
1069.44126	17859.8875
1073.11995	18157.9875
1076.79611	18481.2875
1080.46974	18700.9875
1084.14085	18971.4875
1087.80943	19347.3875
1091.47549	19549.9875
1095.13903	19490.2875
1098.80005	19158.5875
1102.45857	18691.7875
1106.11456	18351.6875
1109.76805	18240.9875
1113.41903	18339.5875
1117.06751	18594.7875
1120.71348	18914.7875
1124.35696	19306.6875
1127.99793	19684.3875
1131.63641	19762.1875
1135.2724	19540.2875
1138.90589	19209.1875
1142.5369	18981.0875
1146.16542	18921.2875
1149.79145	18957.4875
1153.415	19086.3875
1157.03607	19337.9875
1160.65467	19772.0875
1164.27079	20632.3875
1167.88443	21816.2875
1171.49561	23369.7875
1175.10432	25463.0875
1178.71056	28244.1875
1182.31434	30859.2875
1185.91565	32034.2875
1189.51451	31801.5875
1193.11091	30638.7875
1196.70485	29065.6875
1200.29634	27575.9875
1203.88538	26340.7875
1207.47197	25399.4875
1211.05612	24552.3875
1214.63782	23987.5875
1218.21708	23671.8875
1221.79391	23463.2875
1225.36829	23390.7875
1228.94024	23119.1875
1232.50976	22701.0875
1236.07685	22316.4875
1239.6415	22010.9875
1243.20374	21940.7875
1246.76355	22016.3875
1250.32093	22332.8875
1253.8759	22854.1875
1257.42845	23570.3875
1260.97859	24370.0875
1264.52631	25261.5875
1268.07163	26192.2875
1271.61453	27086.3875
1275.15503	27851.2875
1278.69312	28596.8875
1282.22882	29302.7875
1285.76211	30006.2875
1289.29301	30914.5875
1292.82151	32063.9875
1296.34761	33531.6875
1299.87133	35450.4875
1303.39266	37817.9875
1306.9116	40752.2875
1310.42815	43683.4875
1313.94233	45533.1875
1317.45412	45471.6875
1320.96354	44207.2875
1324.47058	42600.6875
1327.97525	41182.7875
1331.47754	40248.3875
1334.97747	39870.0875
1338.47502	39662.4875
1341.97022	39548.5875
1345.46305	39343.2875
1348.95352	39056.3875
1352.44163	39292.3875
1355.92738	40500.7875
1359.41078	43115.9875
1362.89183	45760.6875
1366.37053	45143.9875
1369.84688	40523.8875
1373.32088	35292.1875
1376.79254	31810.1875
1380.26186	30297.3875
1383.72883	29882.1875
1387.19347	29553.0875
1390.65578	29125.3875
1394.11575	28958.7875
1397.57339	29177.8875
1401.0287	29720.8875
1404.48168	30192.6875
1407.93234	30407.5875
1411.38068	30090.3875
1414.82669	29373.4875
1418.27039	28319.8875
1421.71177	27231.6875
1425.15083	26272.2875
1428.58758	25817.1875
1432.02203	25954.2875
1435.45416	26511.1875
1438.88399	27229.0875
1442.31151	27754.9875
1445.73673	28149.9875
1449.15965	28537.3875
1452.58027	28734.2875
1455.9986	28798.3875
1459.41463	29030.2875
1462.82837	29475.1875
1466.23982	30066.5875
1469.64898	30528.3875
1473.05586	30800.7875
1476.46045	30764.5875
1479.86276	30607.2875
1483.26279	30419.4875
1486.66054	30335.0875
1490.05602	30559.7875
1493.44922	31023.1875
1496.84016	31665.0875
1500.22882	32907.1875
1503.61521	34730.7875
1506.99934	36976.1875
1510.38121	38861.2875
1513.76081	39289.4875
1517.13816	37675.8875
1520.51324	34971.3875
1523.88607	32495.7875
1527.25665	31002.3875
1530.62498	30320.5875
1533.99105	29947.2875
1537.35488	29586.2875
1540.71647	29156.7875
1544.07581	28647.2875
1547.4329	28096.3875
1550.78776	27565.2875
1554.14038	27244.6875
1557.49077	27150.6875
1560.83892	27166.3875
1564.18484	27375.7875
1567.52853	27716.1875
1570.86999	28132.2875
1574.20922	28539.9875
1577.54624	28769.4875
1580.88103	28463.4875
1584.2136	28169.6875
1587.54395	28574.0875
1590.87208	29874.6875
1594.19801	32032.4875
1597.52172	34155.5875
1600.84321	34794.2875
1604.16251	33323.3875
1607.47959	30649.4875
1610.79447	27816.7875
1614.10715	25214.1875
1617.41763	23010.9875
1620.7259	21614.2875
1624.03199	20914.7875
1627.33587	20858.9875
1630.63757	21553.6875
1633.93707	23054.0875
1637.23439	25547.3875
1640.52951	29097.5875
1643.82246	33270.1875
1647.11321	36642.4875
1650.40179	37596.6875
1653.68819	35025.3875
1656.97241	30042.0875
1660.25446	25046.3875
1663.53433	21345.9875
1666.81203	19104.7875
1670.08756	17750.8875
1673.36092	16949.0875
1676.63211	16402.2875
1679.90115	16032.9875
1683.16801	15715.8875
1686.43272	15520.5875
1689.69527	15307.1875
1692.95567	15125.4875
1696.2139	14938.8875
1699.46999	14817.6875
1702.72392	14715.4875
1705.97571	14771.0875
1709.22535	14836.8875
1712.47284	14836.5875
1715.71819	14895.2875
1718.96139	14837.8875
1722.20246	14774.5875
1725.44139	14690.9875
1728.67818	14583.6875
1731.91284	14494.1875
1735.14537	14390.5875
1738.37576	14317.8875
1741.60403	14266.1875
1744.83017	14189.0875
1748.05418	14128.9875
1751.27607	14054.1875
1754.49584	13983.8875
1757.71349	13896.8875
1760.92903	13816.5875
1764.14244	13813.6875
1767.35375	13819.6875
1770.56294	13769.9875
1773.77002	13764.2875
1776.97499	13800.2875
1780.17785	13837.4875
1783.37861	13820.5875
1786.57727	13808.6875
1789.77382	13819.6875
1792.96828	13817.7875
1796.16064	13775.5875
1799.3509	13760.3875
1802.53907	13703.1875
1805.72514	13690.1875
1808.90913	13668.0875
1812.09102	13607.3875
1815.27083	13607.6875
1818.44856	13593.0875
1821.6242	13561.3875
1824.79776	13542.0875
1827.96924	13553.9875
1831.13864	13570.3875
1834.30597	13567.8875
1837.47122	13570.0875
1840.6344	13529.7875
1843.7955	13547.3875
1846.95454	13540.6875
1850.11151	13517.7875
1853.26642	13500.1875
1856.41926	13499.3875
1859.57004	13513.1875
1862.71876	13483.6875
1865.86542	13454.4875
1869.01003	13456.7875
1872.15258	13463.5875
1875.29308	13457.4875
1878.43152	13437.9875
1881.56792	13453.0875
1884.70227	13446.0875
1887.83457	13436.6875
1890.96482	13403.9875
1894.09304	13391.1875
1897.21921	13368.3875
1900.34335	13375.5875
1903.46544	13353.7875
1906.58551	13352.4875
1909.70353	13334.7875
1912.81953	13302.9875
1915.93349	13260.2875
1919.04543	13240.9875
1922.15534	13219.1875
1925.26322	13174.3875
1928.36908	13111.2875
1931.47292	13053.2875
1934.57473	13020.9875
1937.67453	13019.8875
1940.77232	12972.2875
1943.86808	12921.8875
1946.96184	12892.2875
1950.05358	12860.3875
1953.14331	12793.6875
1956.23103	12754.0875
1959.31675	12711.2875
1962.40046	12673.7875
1965.48217	12653.1875
1968.56188	12642.2875
1971.63959	12602.7875
1974.7153	12596.9875
1977.78901	12554.6875
1980.86073	12497.0875
1983.93046	12430.9875
1986.99819	12374.0875
1990.06394	12340.0875
1993.1277	12348.4875
1996.18947	12287.5875
1999.24925	12258.3875
2002.30706	12215.2875
2005.36288	12176.6875
2008.41672	12150.2875
2011.46859	12136.3875
2014.51848	12088.1875
2017.56639	12042.9875
2020.61233	12062.3875
2023.6563	12013.7875
2026.6983	11984.4875
2029.73833	11949.4875
2032.7764	11933.9875
2035.8125	11913.3875
2038.84664	11916.7875
2041.87881	11890.5875
2044.90903	11864.6875
2047.93729	11840.8875
2050.96359	11824.8875
2053.98794	11789.2875
2057.01034	11818.6875
2060.03078	11760.2875
2063.04927	11761.9875
2066.06582	11756.7875
2069.08042	11748.2875
2072.09307	11764.4875
2075.10378	11747.7875
2078.11255	11735.8875
2081.11938	11720.5875
2084.12426	11718.1875
2087.12722	11723.0875
2090.12824	11708.5875
2093.12732	11715.3875
2096.12447	11694.3875
2099.11969	11716.4875
2102.11299	11725.7875
2105.10435	11716.3875
2108.09379	11720.4875
2111.08131	11710.3875
2114.0669	11734.1875
2117.05057	11776.3875
2120.03233	11770.5875
2123.01216	11767.8875
2125.99008	11781.7875
2128.96609	11800.1875
2131.94018	11782.2875
2134.91236	11793.2875
2137.88263	11792.5875
2140.851	11825.1875
2143.81746	11807.1875
2146.78201	11818.3875
2149.74466	11824.6875
2152.7054	11786.2875
2155.66425	11795.9875
2158.6212	11797.7875
2161.57625	11797.4875
2164.52941	11792.1875
2167.48067	11796.3875
2170.43004	11762.5875
2173.37752	11760.1875
2176.32311	11778.2875
2179.26681	11752.5875
2182.20863	11751.5875
2185.14856	11775.7875
2188.08661	11762.1875
2191.02278	11780.3875
2193.95707	11769.7875
2196.88948	11756.5875
2199.82001	11775.5875
2202.74867	11755.3875
2205.67545	11727.1875
2208.60037	11709.9875
2211.52341	11721.2875
2214.44458	11698.6875
2217.36388	11690.8875
2220.28132	11684.7875
2223.1969	11647.1875
2226.11061	11632.0875
2229.02246	11626.9875
2231.93245	11620.9875
2234.84058	11574.4875
2237.74686	11540.8875
2240.65128	11506.1875
2243.55385	11503.5875
2246.45456	11490.8875
2249.35343	11459.5875
2252.25044	11457.7875
2255.14561	11471.6875
2258.03893	11436.4875
2260.93041	11404.3875
2263.82004	11404.0875
2266.70783	11382.5875
2269.59378	11359.8875
2272.4779	11343.0875
2275.36017	11284.5875
2278.24061	11299.7875
2281.11922	11279.0875
2283.996	11269.2875
2286.87094	11238.1875
2289.74405	11205.6875
2292.61534	11216.2875
2295.4848	11206.9875
2298.35243	11200.6875
2301.21824	11174.8875
2304.08223	11207.4875
2306.94439	11217.7875
2309.80474	11212.4875
2312.66327	11188.5875
2315.51999	11189.6875
2318.37489	11210.1875
2321.22797	11208.2875
2324.07925	11189.7875
2326.92871	11172.9875
2329.77637	11154.2875
2332.62222	11157.2875
2335.46626	11143.1875
2338.3085	11140.5875
2341.14893	11154.0875
2343.98756	11198.0875
2346.8244	11178.4875
2349.65943	11150.2875
2352.49267	11150.7875
2355.32411	11177.9875
2358.15376	11177.0875
2360.98161	11158.6875
2363.80768	11132.3875
2366.63195	11163.1875
2369.45444	11117.7875
2372.27514	11096.8875
2375.09405	11078.7875
2377.91118	11049.4875
2380.72652	11040.6875
2383.54009	11001.6875
2386.35187	10997.8875
2389.16188	10957.5875
2391.97011	10963.3875
2394.77657	10952.5875
2397.58125	10911.7875
2400.38416	10922.3875
2403.18529	10885.4875
2405.98466	10893.6875
2408.78226	10869.8875
2411.57809	10842.0875
2414.37216	10826.0875
2417.16446	10818.7875
2419.955	10814.5875
2422.74378	10810.3875
2425.5308	10802.3875
2428.31606	10775.8875
2431.09956	10770.9875
2433.88131	10779.9875
2436.6613	10798.5875
2439.43954	10784.3875
2442.21603	10771.5875
2444.99077	10765.3875
2447.76377	10773.7875
2450.53501	10777.3875
2453.30451	10778.9875
2456.07226	10762.1875
2458.83827	10789.7875
2461.60254	10775.7875
2464.36507	10759.3875
2467.12586	10765.8875
2469.88492	10721.8875
2472.64224	10753.0875
2475.39782	10771.8875
2478.15167	10748.5875
2480.90379	10763.7875
2483.65417	10822.3875
2486.40283	10835.2875
2489.14976	10835.2875
2491.89497	10818.4875
2494.63845	10819.0875
2497.3802	10817.6875
2500.12024	10832.9875
2502.85855	10819.1875
2505.59514	10816.1875
2508.33002	10803.4875
2511.06318	10787.6875
2513.79462	10740.9875
2516.52435	10729.4875
2519.25237	10714.5875
2521.97867	10713.4875
2524.70327	10683.1875
2527.42616	10696.4875
2530.14734	10688.3875
2532.86681	10692.8875
2535.58458	10701.4875
2538.30065	10692.6875
2541.01501	10696.7875
2543.72768	10697.0875
2546.43864	10669.0875
2549.14791	10680.9875
2551.85548	10677.9875
2554.56136	10656.9875
2557.26554	10645.5875
2559.96803	10602.7875
2562.66883	10632.5875
2565.36794	10590.8875
2568.06536	10582.7875
2570.7611	10595.4875
2573.45514	10577.2875
2576.14751	10625.0875
2578.83819	10584.9875
2581.52719	10582.2875
2584.21451	10568.9875
2586.90015	10576.4875
2589.58411	10539.5875
2592.2664	10562.5875
2594.94701	10559.1875
2597.62594	10548.3875
2600.30321	10545.8875
2602.9788	10549.3875
2605.65273	10552.4875
2608.32498	10519.2875
2610.99557	10539.6875
2613.66449	10527.8875
2616.33175	10530.0875
2618.99734	10522.9875
2621.66128	10523.2875
2624.32355	10523.0875
2626.98416	10519.0875
2629.64311	10534.8875
2632.30041	10516.3875
2634.95605	10509.3875
2637.61004	10491.2875
2640.26238	10493.0875
2642.91306	10499.8875
2645.56209	10471.0875
2648.20948	10468.1875
2650.85521	10470.0875
2653.4993	10444.8875
2656.14175	10469.7875
2658.78255	10516.7875
2661.42171	10511.7875
2664.05923	10509.6875
2666.6951	10513.5875
2669.32934	10550.0875
2671.96194	10508.5875
2674.59291	10543.9875
2677.22224	10521.0875
2679.84993	10515.8875
2682.476	10495.4875
2685.10043	10527.9875
2687.72324	10541.7875
2690.34441	10513.9875
2692.96396	10494.5875
2695.58188	10490.5875
2698.19818	10458.3875
2700.81285	10466.5875
2703.4259	10426.6875
2706.03733	10377.4875
2708.64714	10420.3875
2711.25533	10467.9875
2713.86191	10502.6875
2716.46687	10534.2875
2719.07021	10549.5875
2721.67194	10559.6875
2724.27206	10559.3875
2726.87057	10559.9875
2729.46747	10569.6875
2732.06276	10559.7875
2734.65644	10560.2875
2737.24852	10556.2875
2739.83899	10576.5875
2742.42786	10565.3875
2745.01513	10550.6875
2747.60079	10565.8875
2750.18486	10535.0875
2752.76733	10525.6875
2755.3482	10511.9875
2757.92747	10493.6875
2760.50515	10474.4875
2763.08123	10485.1875
2765.65573	10461.0875
2768.22863	10514.6875
2770.79994	10465.2875
2773.36967	10480.9875
2775.9378	10470.0875
2778.50435	10432.6875
2781.06932	10486.0875
2783.6327	10505.0875
2786.1945	10493.2875
2788.75471	10479.1875
2791.31335	10447.5875
2793.87041	10461.6875
2796.42589	10420.6875
2798.97979	10404.1875
2801.53212	10367.9875
2804.08288	10351.7875
2806.63206	10353.1875
2809.17967	10331.4875
2811.72571	10322.5875
2814.27018	10324.2875
2816.81308	10320.6875
2819.35442	10288.9875
2821.89419	10276.6875
2824.43239	10275.8875
2826.96904	10257.1875
2829.50412	10272.0875
2832.03763	10238.7875
2834.56959	10241.5875
2837.1	10227.6875
2839.62884	10207.3875
2842.15613	10205.2875
2844.68186	10227.7875
2847.20604	10210.0875
2849.72867	10201.9875
2852.24974	10202.0875
2854.76927	10178.0875
2857.28724	10143.7875
2859.80367	10141.3875
2862.31855	10145.7875
2864.83189	10152.1875
2867.34368	10127.0875
2869.85393	10191.3875
2872.36264	10194.0875
2874.8698	10158.9875
2877.37543	10171.0875
2879.87952	10185.1875
2882.38207	10178.4875
2884.88308	10169.0875
2887.38256	10187.0875
2889.88051	10183.9875
2892.37692	10184.3875
2894.8718	10174.0875
2897.36515	10168.9875
2899.85698	10204.3875
2902.34727	10211.5875
2904.83604	10209.4875
2907.32328	10234.2875
2909.809	10211.0875
2912.29319	10263.1875
2914.77587	10249.8875
2917.25702	10244.6875
2919.73665	10248.5875
2922.21476	10242.5875
2924.69136	10210.6875
2927.16644	10243.1875
2929.64	10196.6875
2932.11205	10168.8875
2934.58258	10156.6875
2937.05161	10155.6875
2939.51912	10145.8875
2941.98513	10127.0875
2944.44962	10132.5875
2946.91261	10090.5875
2949.37409	10108.3875
2951.83407	10109.6875
2954.29254	10098.9875
2956.74951	10091.1875
2959.20498	10077.9875
2961.65895	10062.5875
2964.11142	10040.4875
2966.56239	10008.6875
2969.01186	10030.3875
2971.45984	10019.4875
2973.90632	9997.3875
2976.35131	9983.9875
2978.7948	9962.7875
2981.23681	9952.7875
2983.67732	9912.3875
2986.11635	9910.2875
2988.55388	9883.5875
2990.98993	9881.7875
2993.4245	9832.3875
2995.85758	9828.3875
2998.28917	9806.4875
3000.71928	9756.7875
3003.14791	9778.3875
3005.57506	9758.3875
3008.00073	9702.0875
3010.42493	9713.0875
3012.84764	9684.9875
3015.26888	9715.7875
3017.68865	9666.2875
3020.10694	9662.4875
3022.52376	9619.7875
3024.9391	9613.0875
3027.35298	9590.1875
3029.76539	9616.3875
3032.17632	9593.9875
3034.5858	9603.5875
3036.9938	9578.3875
3039.40034	9580.8875
3041.80542	9537.0875
3044.20903	9529.3875
3046.61118	9536.6875
3049.01187	9526.7875
3051.4111	9500.6875
3053.80888	9483.3875
3056.20519	9467.7875
3058.60005	9438.4875
3060.99345	9425.5875
3063.3854	9424.4875
3065.7759	9377.8875
3068.16494	9394.2875
3070.55254	9316.0875
3072.93868	9287.5875
3075.32338	9280.8875
3077.70662	9240.0875
3080.08842	9228.2875
3082.46878	9221.8875
3084.84769	9191.8875
3087.22515	9205.4875
3089.60118	9189.3875
3091.97576	9208.9875
3094.3489	9190.9875
3096.72061	9208.8875
3099.09087	9209.0875
3101.4597	9195.0875
3103.82709	9191.8875
3106.19305	9165.6875
3108.55757	9164.4875
3110.92066	9144.5875
3113.28232	9133.7875
3115.64255	9129.5875
3118.00134	9108.2875
3120.35871	9087.9875
3122.71466	9063.1875
3125.06917	9045.1875
3127.42226	9045.6875
3129.77393	9045.1875
3132.12417	9006.5875
3134.47299	9012.7875
3136.82039	9015.6875
3139.16636	9023.8875
3141.51092	8988.9875
3143.85406	9016.6875
3146.19579	9035.0875
3148.53609	9031.2875
3150.87499	9041.4875
3153.21246	9022.6875
3155.54853	9008.6875
3157.88318	9006.9875
3160.21642	9033.9875
3162.54826	9007.8875
3164.87868	9038.3875
3167.2077	9001.1875
3169.5353	9031.4875
3171.86151	9029.1875
3174.18631	9024.5875
3176.5097	8973.9875
3178.83169	8983.5875
3181.15228	8972.6875
3183.47147	8967.3875
3185.78926	8981.5875
3188.10565	8938.7875
3190.42065	8929.0875
3192.73424	8896.4875
3195.04645	8922.5875
3197.35725	8935.9875
3199.66667	8924.5875
3201.97469	8942.1875
3204.28132	8936.5875
3206.58656	8968.0875
3208.8904	8960.2875
3211.19287	8979.0875
3213.49394	8948.9875
3215.79363	8969.3875
3218.09193	8978.9875
3220.38884	8932.8875
3222.68438	8933.5875
3224.97853	8949.7875
3227.2713	8942.5875
3229.56269	8955.1875
3231.8527	8984.6875
3234.14133	8938.4875
3236.42858	8924.1875
3238.71446	8892.5875
3240.99896	8899.1875
3243.28209	8884.9875
3245.56384	8890.9875
3247.84423	8875.1875
3250.12324	8860.3875
3252.40088	8834.1875
3254.67715	8847.8875
3256.95205	8817.3875
3259.22558	8818.1875
3261.49775	8811.6875
3263.76855	8803.4875
3266.03799	8778.9875
3268.30606	8782.9875
3270.57277	8766.7875
3272.83812	8746.8875
3275.10211	8741.2875
3277.36474	8726.0875
3279.62601	8699.3875
3281.88593	8716.1875
3284.14448	8732.0875
3286.40168	8735.5875
3288.65753	8713.9875
3290.91202	8722.6875
3293.16516	8695.9875
3295.41695	8674.1875
3297.66738	8627.0875
3299.91647	8591.4875
3302.16421	8543.5875
3304.4106	8534.7875
3306.65564	8468.2875
3308.89933	8391.1875
3311.14169	8321.5875
3313.38269	8276.2875
3315.62236	8233.0875
3317.86068	8166.0875
3320.09766	8084.6875
3322.3333	8037.6875
3324.5676	8004.2875
3326.80056	7858.0875
3329.03219	7831.0875
3331.26248	2.2875
3333.49143	-1.1125
3335.71905	-0.2125
