Data from AgNPs_FTO_APTES_UA_50uM_CRN_0uM_R6G_10uM_NaF_0.1M_Addition_RamanShift__31__10-46-24-663.txt Node

Date: Mon Feb 21 10:46:24 GMT 2022
User: TCL
Spectrometer: QEP01345
Trigger mode: 4
Integration Time (sec): 7.000000E0
Scans to average: 10
Electric dark correction enabled: true
Nonlinearity correction enabled: false
Boxcar width: 0
XAxis mode: Raman Shifts
Number of Pixels in Spectrum: 1044
>>>>>Begin Spectral Data<<<<<
46.04893	0.2375
50.45542	-0.4625
54.85868	0.1375
59.25871	-1.7625
63.6555	42.0375
68.04907	48.1375
72.43941	49.5375
76.82654	54.0375
81.21044	57.1375
85.59113	57.9375
89.96862	58.6375
94.34289	65.5375
98.71396	61.2375
103.08183	65.8375
107.4465	68.0375
111.80798	66.2375
116.16626	68.1375
120.52136	68.0375
124.87327	77.0375
129.222	73.1375
133.56755	80.3375
137.90993	87.6375
142.24913	89.8375
146.58517	100.2375
150.91804	114.4375
155.24774	135.6375
159.57429	161.2375
163.89768	208.8375
168.21792	280.4375
172.53501	374.5375
176.84895	524.6375
181.15975	728.3375
185.46741	1023.7375
189.77193	1400.9375
194.07331	1884.9375
198.37157	2417.9375
202.6667	3001.0375
206.9587	3585.1375
211.24758	4148.4375
215.53334	4689.6375
219.81599	5278.7375
224.09553	5926.2375
228.37195	6633.9375
232.64527	7438.7375
236.91549	8264.4375
241.18261	9124.1375
245.44663	9903.5375
249.70755	10630.3375
253.96539	11235.3375
258.22014	11736.3375
262.4718	12108.2375
266.72039	12315.3375
270.96589	12421.3375
275.20832	12390.6375
279.44768	12274.5375
283.68397	12111.7375
287.91719	11944.4375
292.14735	11872.8375
296.37445	11792.8375
300.59849	11781.9375
304.81948	11816.5375
309.03742	11848.9375
313.25231	11813.8375
317.46415	11693.6375
321.67296	11492.8375
325.87872	11297.9375
330.08145	11178.5375
334.28114	11161.8375
338.47781	11189.1375
342.67145	11296.6375
346.86207	11490.6375
351.04966	11678.9375
355.23424	11865.3375
359.4158	12062.4375
363.59435	12186.5375
367.76989	12278.7375
371.94243	12310.6375
376.11196	12307.4375
380.27849	12278.6375
384.44203	12290.9375
388.60257	12359.4375
392.76012	12472.7375
396.91468	12663.5375
401.06626	12890.8375
405.21485	12989.5375
409.36047	12964.6375
413.50311	12822.5375
417.64277	12729.6375
421.77947	12762.3375
425.9132	12818.4375
430.04396	12882.0375
434.17176	12897.4375
438.2966	12945.3375
442.41849	13078.0375
446.53742	13329.1375
450.6534	13604.2375
454.76644	13817.6375
458.87653	13909.0375
462.98368	13878.2375
467.08789	13797.7375
471.18916	13664.2375
475.2875	13480.8375
479.38291	13344.3375
483.4754	13316.0375
487.56496	13211.9375
491.6516	13165.1375
495.73531	13023.3375
499.81612	12938.3375
503.89401	12992.0375
507.96899	13048.5375
512.04106	13081.7375
516.11023	12988.3375
520.1765	12862.3375
524.23987	12759.3375
528.30034	12647.4375
532.35792	12568.3375
536.41261	12442.9375
540.46441	12318.5375
544.51333	12279.6375
548.55936	12376.2375
552.60252	12564.7375
556.64279	12822.8375
560.6802	13031.2375
564.71473	13181.3375
568.7464	13394.8375
572.7752	13878.8375
576.80114	14422.4375
580.82422	14933.5375
584.84444	15539.1375
588.86181	16306.9375
592.87633	17137.4375
596.888	17162.2375
600.89682	16239.5375
604.9028	15617.1375
608.90594	16104.1375
612.90624	16856.4375
616.90371	15952.2375
620.89834	13918.0375
624.89015	12979.2375
628.87913	12905.8375
632.86528	13061.8375
636.84862	13082.1375
640.82913	12860.5375
644.80683	12531.0375
648.78172	12323.6375
652.75379	12315.3375
656.72306	12437.1375
660.68952	12620.6375
664.65319	12590.6375
668.61405	12413.6375
672.57211	12399.8375
676.52738	12456.9375
680.47986	12437.4375
684.42955	12392.3375
688.37646	12288.8375
692.32058	12358.7375
696.26192	12501.3375
700.20048	12639.4375
704.13626	12744.7375
708.06928	12813.1375
711.99952	12823.3375
715.927	12813.3375
719.85171	12807.7375
723.77365	12704.7375
727.69284	12494.1375
731.60928	12294.0375
735.52295	12212.3375
739.43388	12215.9375
743.34206	12252.7375
747.24749	12347.5375
751.15017	12475.8375
755.05012	12696.3375
758.94733	12983.0375
762.8418	13519.2375
766.73354	14375.3375
770.62254	15138.8375
774.50882	15234.1375
778.39237	14654.5375
782.27321	13834.1375
786.15132	13177.1375
790.02671	12751.6375
793.89938	12454.6375
797.76935	12318.8375
801.6366	12287.0375
805.50115	12229.1375
809.36299	12199.1375
813.22213	12136.8375
817.07857	12110.8375
820.93231	12079.5375
824.78336	12013.7375
828.63172	11973.5375
832.47738	11940.2375
836.32036	11920.6375
840.16066	11903.0375
843.99827	11915.7375
847.8332	11956.9375
851.66546	11971.3375
855.49504	11998.1375
859.32195	12014.7375
863.1462	11972.8375
866.96777	11942.1375
870.78668	11946.7375
874.60293	11979.9375
878.41652	11962.5375
882.22745	12025.9375
886.03573	12074.2375
889.84136	12096.8375
893.64433	12067.1375
897.44466	12046.3375
901.24235	12027.9375
905.0374	12008.2375
908.8298	11975.3375
912.61957	11991.5375
916.40671	12071.1375
920.19121	12242.8375
923.97308	12355.6375
927.75233	12435.0375
931.52895	12324.8375
935.30295	12105.1375
939.07433	11845.3375
942.84309	11696.3375
946.60924	11591.1375
950.37278	11549.3375
954.13371	11507.2375
957.89203	11501.7375
961.64774	11489.9375
965.40086	11515.6375
969.15137	11479.3375
972.89929	11461.8375
976.64461	11396.1375
980.38733	11369.4375
984.12747	11347.6375
987.86502	11397.0375
991.59999	11438.6375
995.33237	11525.1375
999.06217	11658.3375
1002.78939	11821.5375
1006.51404	12018.6375
1010.23611	12221.9375
1013.95561	12394.6375
1017.67255	12439.1375
1021.38692	12356.0375
1025.09872	12167.8375
1028.80796	11975.7375
1032.51465	11901.7375
1036.21877	11901.4375
1039.92035	11945.0375
1043.61937	12033.4375
1047.31584	12081.9375
1051.00976	12123.2375
1054.70114	12140.0375
1058.38998	12223.6375
1062.07627	12330.0375
1065.76003	12438.6375
1069.44126	12628.5375
1073.11995	12876.7375
1076.79611	13121.8375
1080.46974	13226.5375
1084.14085	13294.3375
1087.80943	13395.4375
1091.47549	13515.4375
1095.13903	13579.2375
1098.80005	13421.3375
1102.45857	13095.7375
1106.11456	12761.9375
1109.76805	12588.5375
1113.41903	12551.0375
1117.06751	12591.6375
1120.71348	12686.8375
1124.35696	12791.8375
1127.99793	12933.9375
1131.63641	13041.5375
1135.2724	13043.1375
1138.90589	13023.5375
1142.5369	13045.5375
1146.16542	13110.5375
1149.79145	13214.1375
1153.415	13360.3375
1157.03607	13478.0375
1160.65467	13774.0375
1164.27079	14194.9375
1167.88443	14776.5375
1171.49561	15400.4375
1175.10432	16228.0375
1178.71056	17239.5375
1182.31434	18199.6375
1185.91565	18678.4375
1189.51451	18708.2375
1193.11091	18448.5375
1196.70485	17964.5375
1200.29634	17378.4375
1203.88538	16922.6375
1207.47197	16658.5375
1211.05612	16507.3375
1214.63782	16298.8375
1218.21708	15933.3375
1221.79391	15484.5375
1225.36829	15184.2375
1228.94024	14993.1375
1232.50976	14886.0375
1236.07685	14696.8375
1239.6415	14571.1375
1243.20374	14522.9375
1246.76355	14529.5375
1250.32093	14661.8375
1253.8759	14883.4375
1257.42845	15275.8375
1260.97859	15711.7375
1264.52631	16218.3375
1268.07163	16672.1375
1271.61453	17085.5375
1275.15503	17547.6375
1278.69312	18022.8375
1282.22882	18651.2375
1285.76211	19306.2375
1289.29301	20051.4375
1292.82151	20808.2375
1296.34761	21751.2375
1299.87133	22810.7375
1303.39266	23790.1375
1306.9116	24660.2375
1310.42815	25206.1375
1313.94233	25441.9375
1317.45412	25181.3375
1320.96354	24743.8375
1324.47058	24377.4375
1327.97525	24147.8375
1331.47754	24062.3375
1334.97747	23869.1375
1338.47502	23557.8375
1341.97022	23370.0375
1345.46305	23117.0375
1348.95352	23058.0375
1352.44163	23083.0375
1355.92738	23457.1375
1359.41078	24255.5375
1362.89183	25083.0375
1366.37053	25125.6375
1369.84688	23686.2375
1373.32088	21458.2375
1376.79254	19707.0375
1380.26186	18925.8375
1383.72883	18718.9375
1387.19347	18560.3375
1390.65578	18320.6375
1394.11575	18157.3375
1397.57339	18224.7375
1401.0287	18434.0375
1404.48168	18556.7375
1407.93234	18475.0375
1411.38068	18109.9375
1414.82669	17605.7375
1418.27039	16991.7375
1421.71177	16445.1375
1425.15083	16003.2375
1428.58758	15843.5375
1432.02203	15977.9375
1435.45416	16333.0375
1438.88399	16708.5375
1442.31151	16936.9375
1445.73673	17023.7375
1449.15965	17145.6375
1452.58027	17225.6375
1455.9986	17265.3375
1459.41463	17370.3375
1462.82837	17625.8375
1466.23982	17905.1375
1469.64898	18158.2375
1473.05586	18288.7375
1476.46045	18317.5375
1479.86276	18297.4375
1483.26279	18334.3375
1486.66054	18373.8375
1490.05602	18624.0375
1493.44922	18933.9375
1496.84016	19363.4375
1500.22882	19872.5375
1503.61521	20469.8375
1506.99934	20918.1375
1510.38121	21290.7375
1513.76081	21322.9375
1517.13816	21010.6375
1520.51324	20577.3375
1523.88607	20189.9375
1527.25665	20017.8375
1530.62498	19938.0375
1533.99105	19684.6375
1537.35488	19235.0375
1540.71647	18694.7375
1544.07581	18089.7375
1547.4329	17543.2375
1550.78776	17151.1375
1554.14038	16891.7375
1557.49077	16796.9375
1560.83892	16749.2375
1564.18484	16781.3375
1567.52853	16857.1375
1570.86999	17048.7375
1574.20922	17320.2375
1577.54624	17528.0375
1580.88103	17609.6375
1584.2136	17724.9375
1587.54395	18135.0375
1590.87208	18903.5375
1594.19801	19849.9375
1597.52172	20624.8375
1600.84321	20588.9375
1604.16251	19667.8375
1607.47959	18270.3375
1610.79447	16900.3375
1614.10715	15629.7375
1617.41763	14629.1375
1620.7259	13959.8375
1624.03199	13630.2375
1627.33587	13636.8375
1630.63757	13962.7375
1633.93707	14739.5375
1637.23439	16089.0375
1640.52951	18167.7375
1643.82246	20694.3375
1647.11321	22810.7375
1650.40179	23297.1375
1653.68819	21694.6375
1656.97241	18882.5375
1660.25446	16151.7375
1663.53433	14159.4375
1666.81203	12908.6375
1670.08756	12179.0375
1673.36092	11767.5375
1676.63211	11468.4375
1679.90115	11272.1375
1683.16801	11123.0375
1686.43272	10976.2375
1689.69527	10869.7375
1692.95567	10730.8375
1696.2139	10607.1375
1699.46999	10462.0375
1702.72392	10412.6375
1705.97571	10466.0375
1709.22535	10535.3375
1712.47284	10614.3375
1715.71819	10604.1375
1718.96139	10601.9375
1722.20246	10601.1375
1725.44139	10568.6375
1728.67818	10507.5375
1731.91284	10449.2375
1735.14537	10421.2375
1738.37576	10340.9375
1741.60403	10320.8375
1744.83017	10271.3375
1748.05418	10233.4375
1751.27607	10171.4375
1754.49584	10122.4375
1757.71349	10016.4375
1760.92903	9975.4375
1764.14244	9938.3375
1767.35375	9957.9375
1770.56294	9947.2375
1773.77002	9984.6375
1776.97499	10019.7375
1780.17785	10054.1375
1783.37861	10067.9375
1786.57727	10049.1375
1789.77382	10048.1375
1792.96828	10053.4375
1796.16064	10039.5375
1799.3509	10003.2375
1802.53907	9971.2375
1805.72514	9941.8375
1808.90913	9947.0375
1812.09102	9923.8375
1815.27083	9915.0375
1818.44856	9904.7375
1821.6242	9886.8375
1824.79776	9873.4375
1827.96924	9862.0375
1831.13864	9835.3375
1834.30597	9848.0375
1837.47122	9854.9375
1840.6344	9826.4375
1843.7955	9840.4375
1846.95454	9854.5375
1850.11151	9829.4375
1853.26642	9821.4375
1856.41926	9806.0375
1859.57004	9827.0375
1862.71876	9784.4375
1865.86542	9795.0375
1869.01003	9789.6375
1872.15258	9757.2375
1875.29308	9729.2375
1878.43152	9741.9375
1881.56792	9721.8375
1884.70227	9714.5375
1887.83457	9713.1375
1890.96482	9682.4375
1894.09304	9662.8375
1897.21921	9669.4375
1900.34335	9651.3375
1903.46544	9618.1375
1906.58551	9619.7375
1909.70353	9593.4375
1912.81953	9582.7375
1915.93349	9581.1375
1919.04543	9556.2375
1922.15534	9532.4375
1925.26322	9495.4375
1928.36908	9492.2375
1931.47292	9468.7375
1934.57473	9451.0375
1937.67453	9429.6375
1940.77232	9413.7375
1943.86808	9386.3375
1946.96184	9372.8375
1950.05358	9325.2375
1953.14331	9324.9375
1956.23103	9264.6375
1959.31675	9256.7375
1962.40046	9201.8375
1965.48217	9211.1375
1968.56188	9177.8375
1971.63959	9151.5375
1974.7153	9099.6375
1977.78901	9087.3375
1980.86073	9058.8375
1983.93046	9025.0375
1986.99819	8993.7375
1990.06394	8976.5375
1993.1277	8967.3375
1996.18947	8928.7375
1999.24925	8888.7375
2002.30706	8857.0375
2005.36288	8867.3375
2008.41672	8846.1375
2011.46859	8821.8375
2014.51848	8784.1375
2017.56639	8724.0375
2020.61233	8729.6375
2023.6563	8704.9375
2026.6983	8676.5375
2029.73833	8664.0375
2032.7764	8663.2375
2035.8125	8622.4375
2038.84664	8605.7375
2041.87881	8594.6375
2044.90903	8573.5375
2047.93729	8567.0375
2050.96359	8538.5375
2053.98794	8534.5375
2057.01034	8523.1375
2060.03078	8519.8375
2063.04927	8487.5375
2066.06582	8527.1375
2069.08042	8521.5375
2072.09307	8503.7375
2075.10378	8507.1375
2078.11255	8506.9375
2081.11938	8510.5375
2084.12426	8515.7375
2087.12722	8519.7375
2090.12824	8512.7375
2093.12732	8511.5375
2096.12447	8500.6375
2099.11969	8511.6375
2102.11299	8498.8375
2105.10435	8498.8375
2108.09379	8530.8375
2111.08131	8517.5375
2114.0669	8529.7375
2117.05057	8522.3375
2120.03233	8523.4375
2123.01216	8553.9375
2125.99008	8551.9375
2128.96609	8571.4375
2131.94018	8551.1375
2134.91236	8555.8375
2137.88263	8566.1375
2140.851	8566.7375
2143.81746	8588.8375
2146.78201	8582.6375
2149.74466	8578.1375
2152.7054	8570.4375
2155.66425	8563.2375
2158.6212	8572.7375
2161.57625	8550.1375
2164.52941	8556.7375
2167.48067	8566.9375
2170.43004	8536.6375
2173.37752	8540.2375
2176.32311	8529.8375
2179.26681	8517.6375
2182.20863	8532.5375
2185.14856	8549.3375
2188.08661	8524.0375
2191.02278	8516.0375
2193.95707	8510.4375
2196.88948	8518.6375
2199.82001	8499.8375
2202.74867	8499.8375
2205.67545	8473.6375
2208.60037	8464.0375
2211.52341	8470.0375
2214.44458	8432.6375
2217.36388	8416.3375
2220.28132	8425.3375
2223.1969	8395.9375
2226.11061	8395.3375
2229.02246	8381.2375
2231.93245	8369.4375
2234.84058	8344.4375
2237.74686	8344.1375
2240.65128	8321.9375
2243.55385	8342.6375
2246.45456	8300.8375
2249.35343	8282.9375
2252.25044	8277.2375
2255.14561	8271.0375
2258.03893	8257.9375
2260.93041	8215.4375
2263.82004	8187.7375
2266.70783	8182.5375
2269.59378	8176.3375
2272.4779	8171.3375
2275.36017	8147.3375
2278.24061	8144.3375
2281.11922	8108.5375
2283.996	8127.8375
2286.87094	8095.0375
2289.74405	8078.2375
2292.61534	8071.3375
2295.4848	8073.5375
2298.35243	8047.8375
2301.21824	8039.2375
2304.08223	8050.2375
2306.94439	8049.8375
2309.80474	8017.9375
2312.66327	8037.7375
2315.51999	7991.2375
2318.37489	7999.2375
2321.22797	8016.8375
2324.07925	7990.7375
2326.92871	7968.9375
2329.77637	7977.5375
2332.62222	7932.3375
2335.46626	7959.6375
2338.3085	7926.6375
2341.14893	7917.9375
2343.98756	7920.9375
2346.8244	7925.3375
2349.65943	7906.3375
2352.49267	7934.7375
2355.32411	7916.7375
2358.15376	7926.7375
2360.98161	7908.5375
2363.80768	7902.6375
2366.63195	7900.3375
2369.45444	7909.7375
2372.27514	7884.6375
2375.09405	7861.4375
2377.91118	7858.7375
2380.72652	7858.6375
2383.54009	7807.5375
2386.35187	7817.9375
2389.16188	7788.5375
2391.97011	7797.5375
2394.77657	7789.0375
2397.58125	7752.4375
2400.38416	7743.0375
2403.18529	7772.1375
2405.98466	7749.6375
2408.78226	7717.0375
2411.57809	7717.1375
2414.37216	7700.3375
2417.16446	7724.6375
2419.955	7706.2375
2422.74378	7694.2375
2425.5308	7691.4375
2428.31606	7679.8375
2431.09956	7694.8375
2433.88131	7680.4375
2436.6613	7671.2375
2439.43954	7684.1375
2442.21603	7667.6375
2444.99077	7645.7375
2447.76377	7651.2375
2450.53501	7643.2375
2453.30451	7648.3375
2456.07226	7640.7375
2458.83827	7646.4375
2461.60254	7621.3375
2464.36507	7591.2375
2467.12586	7600.0375
2469.88492	7594.1375
2472.64224	7598.3375
2475.39782	7601.2375
2478.15167	7575.9375
2480.90379	7604.3375
2483.65417	7601.0375
2486.40283	7590.5375
2489.14976	7605.9375
2491.89497	7586.2375
2494.63845	7570.6375
2497.3802	7562.6375
2500.12024	7569.6375
2502.85855	7603.9375
2505.59514	7554.6375
2508.33002	7561.0375
2511.06318	7555.6375
2513.79462	7552.9375
2516.52435	7517.1375
2519.25237	7531.9375
2521.97867	7512.6375
2524.70327	7500.5375
2527.42616	7491.9375
2530.14734	7499.6375
2532.86681	7522.2375
2535.58458	7512.1375
2538.30065	7491.3375
2541.01501	7481.0375
2543.72768	7476.5375
2546.43864	7465.0375
2549.14791	7437.7375
2551.85548	7447.5375
2554.56136	7427.9375
2557.26554	7432.1375
2559.96803	7391.1375
2562.66883	7387.9375
2565.36794	7401.8375
2568.06536	7382.3375
2570.7611	7391.1375
2573.45514	7371.5375
2576.14751	7372.2375
2578.83819	7327.4375
2581.52719	7333.9375
2584.21451	7320.6375
2586.90015	7324.0375
2589.58411	7312.6375
2592.2664	7289.3375
2594.94701	7307.4375
2597.62594	7285.5375
2600.30321	7290.6375
2602.9788	7293.1375
2605.65273	7269.5375
2608.32498	7296.3375
2610.99557	7277.0375
2613.66449	7263.4375
2616.33175	7252.9375
2618.99734	7272.1375
2621.66128	7233.0375
2624.32355	7219.5375
2626.98416	7210.7375
2629.64311	7215.0375
2632.30041	7193.5375
2634.95605	7186.3375
2637.61004	7183.8375
2640.26238	7181.0375
2642.91306	7175.9375
2645.56209	7187.3375
2648.20948	7176.9375
2650.85521	7167.6375
2653.4993	7157.7375
2656.14175	7174.1375
2658.78255	7178.1375
2661.42171	7178.7375
2664.05923	7168.5375
2666.6951	7192.4375
2669.32934	7197.5375
2671.96194	7211.6375
2674.59291	7191.9375
2677.22224	7180.8375
2679.84993	7190.5375
2682.476	7201.6375
2685.10043	7194.4375
2687.72324	7201.2375
2690.34441	7192.9375
2692.96396	7185.1375
2695.58188	7206.7375
2698.19818	7177.1375
2700.81285	7188.6375
2703.4259	7159.1375
2706.03733	7067.4375
2708.64714	7105.6375
2711.25533	7158.4375
2713.86191	7165.7375
2716.46687	7214.8375
2719.07021	7190.4375
2721.67194	7224.0375
2724.27206	7202.8375
2726.87057	7218.4375
2729.46747	7214.4375
2732.06276	7215.1375
2734.65644	7209.9375
2737.24852	7199.3375
2739.83899	7206.6375
2742.42786	7218.1375
2745.01513	7181.3375
2747.60079	7200.8375
2750.18486	7187.3375
2752.76733	7176.2375
2755.3482	7176.1375
2757.92747	7144.6375
2760.50515	7138.3375
2763.08123	7149.9375
2765.65573	7129.2375
2768.22863	7132.9375
2770.79994	7109.5375
2773.36967	7129.0375
2775.9378	7105.4375
2778.50435	7113.5375
2781.06932	7124.7375
2783.6327	7105.7375
2786.1945	7075.3375
2788.75471	7093.2375
2791.31335	7070.1375
2793.87041	7053.8375
2796.42589	7038.9375
2798.97979	7038.0375
2801.53212	7020.4375
2804.08288	7027.6375
2806.63206	7016.6375
2809.17967	6991.4375
2811.72571	6970.9375
2814.27018	6959.3375
2816.81308	6944.1375
2819.35442	6940.6375
2821.89419	6943.4375
2824.43239	6930.6375
2826.96904	6911.2375
2829.50412	6904.7375
2832.03763	6902.6375
2834.56959	6895.4375
2837.1	6862.9375
2839.62884	6886.0375
2842.15613	6889.9375
2844.68186	6880.5375
2847.20604	6905.0375
2849.72867	6900.2375
2852.24974	6898.1375
2854.76927	6864.9375
2857.28724	6823.5375
2859.80367	6839.3375
2862.31855	6850.0375
2864.83189	6842.4375
2867.34368	6827.5375
2869.85393	6835.8375
2872.36264	6845.0375
2874.8698	6845.0375
2877.37543	6838.5375
2879.87952	6845.8375
2882.38207	6832.1375
2884.88308	6836.7375
2887.38256	6839.1375
2889.88051	6853.0375
2892.37692	6849.9375
2894.8718	6839.1375
2897.36515	6865.6375
2899.85698	6860.6375
2902.34727	6863.0375
2904.83604	6865.1375
2907.32328	6855.4375
2909.809	6861.4375
2912.29319	6858.0375
2914.77587	6881.6375
2917.25702	6882.6375
2919.73665	6866.6375
2922.21476	6864.8375
2924.69136	6871.5375
2927.16644	6854.7375
2929.64	6856.7375
2932.11205	6839.2375
2934.58258	6812.8375
2937.05161	6828.4375
2939.51912	6829.5375
2941.98513	6823.3375
2944.44962	6814.7375
2946.91261	6793.2375
2949.37409	6803.5375
2951.83407	6783.0375
2954.29254	6783.0375
2956.74951	6766.5375
2959.20498	6786.3375
2961.65895	6754.8375
2964.11142	6759.0375
2966.56239	6753.5375
2969.01186	6744.5375
2971.45984	6732.3375
2973.90632	6712.6375
2976.35131	6715.0375
2978.7948	6712.5375
2981.23681	6682.8375
2983.67732	6665.6375
2986.11635	6640.4375
2988.55388	6612.9375
2990.98993	6606.4375
2993.4245	6623.2375
2995.85758	6596.2375
2998.28917	6576.7375
3000.71928	6564.9375
3003.14791	6551.8375
3005.57506	6550.4375
3008.00073	6528.9375
3010.42493	6529.1375
3012.84764	6505.2375
3015.26888	6507.9375
3017.68865	6511.5375
3020.10694	6488.5375
3022.52376	6476.8375
3024.9391	6444.2375
3027.35298	6442.9375
3029.76539	6441.6375
3032.17632	6450.0375
3034.5858	6442.4375
3036.9938	6434.0375
3039.40034	6442.5375
3041.80542	6418.3375
3044.20903	6387.6375
3046.61118	6417.2375
3049.01187	6402.8375
3051.4111	6383.1375
3053.80888	6377.7375
3056.20519	6383.1375
3058.60005	6354.4375
3060.99345	6359.3375
3063.3854	6342.2375
3065.7759	6330.2375
3068.16494	6313.3375
3070.55254	6281.5375
3072.93868	6275.0375
3075.32338	6254.5375
3077.70662	6232.1375
3080.08842	6223.8375
3082.46878	6237.0375
3084.84769	6212.2375
3087.22515	6238.0375
3089.60118	6235.4375
3091.97576	6211.5375
3094.3489	6216.7375
3096.72061	6220.8375
3099.09087	6225.0375
3101.4597	6219.1375
3103.82709	6203.0375
3106.19305	6193.2375
3108.55757	6217.0375
3110.92066	6186.3375
3113.28232	6182.1375
3115.64255	6175.4375
3118.00134	6164.7375
3120.35871	6152.7375
3122.71466	6140.0375
3125.06917	6124.5375
3127.42226	6117.5375
3129.77393	6109.9375
3132.12417	6121.9375
3134.47299	6108.5375
3136.82039	6093.8375
3139.16636	6111.1375
3141.51092	6109.6375
3143.85406	6101.3375
3146.19579	6113.6375
3148.53609	6122.0375
3150.87499	6119.0375
3153.21246	6121.6375
3155.54853	6125.8375
3157.88318	6141.3375
3160.21642	6132.0375
3162.54826	6144.5375
3164.87868	6133.0375
3167.2077	6129.2375
3169.5353	6150.8375
3171.86151	6142.3375
3174.18631	6142.4375
3176.5097	6120.9375
3178.83169	6112.4375
3181.15228	6124.8375
3183.47147	6089.7375
3185.78926	6116.4375
3188.10565	6085.2375
3190.42065	6096.1375
3192.73424	6072.1375
3195.04645	6086.2375
3197.35725	6074.6375
3199.66667	6068.6375
3201.97469	6078.2375
3204.28132	6080.2375
3206.58656	6085.4375
3208.8904	6091.7375
3211.19287	6094.1375
3213.49394	6110.0375
3215.79363	6109.5375
3218.09193	6121.2375
3220.38884	6075.7375
3222.68438	6064.0375
3224.97853	6076.6375
3227.2713	6089.0375
3229.56269	6076.7375
3231.8527	6097.0375
3234.14133	6080.4375
3236.42858	6056.4375
3238.71446	6055.1375
3240.99896	6023.0375
3243.28209	6031.3375
3245.56384	6023.3375
3247.84423	6048.6375
3250.12324	6023.7375
3252.40088	6004.4375
3254.67715	6015.2375
3256.95205	5998.9375
3259.22558	5991.5375
3261.49775	5978.5375
3263.76855	5970.1375
3266.03799	5950.5375
3268.30606	5968.2375
3270.57277	5967.6375
3272.83812	5933.6375
3275.10211	5917.5375
3277.36474	5922.6375
3279.62601	5912.5375
3281.88593	5911.7375
3284.14448	5905.9375
3286.40168	5921.2375
3288.65753	5912.6375
3290.91202	5904.1375
3293.16516	5878.2375
3295.41695	5873.4375
3297.66738	5836.2375
3299.91647	5792.9375
3302.16421	5762.5375
3304.4106	5736.0375
3306.65564	5708.5375
3308.89933	5672.1375
3311.14169	5628.3375
3313.38269	5569.3375
3315.62236	5550.3375
3317.86068	5515.1375
3320.09766	5467.3375
3322.3333	5421.7375
3324.5676	5402.5375
3326.80056	5282.6375
3329.03219	5280.1375
3331.26248	1.8375
3333.49143	-1.0625
3335.71905	0.2375
