Data from AgNPs_FTO_APTES_UA_50uM_CRN_1000uM_R6G_10uM_NaF_0.1M_Addition_RamanShift__9__17-36-43-584.txt Node

Date: Mon Feb 21 17:36:43 GMT 2022
User: TCL
Spectrometer: QEP01345
Trigger mode: 4
Integration Time (sec): 7.000000E0
Scans to average: 10
Electric dark correction enabled: true
Nonlinearity correction enabled: false
Boxcar width: 0
XAxis mode: Raman Shifts
Number of Pixels in Spectrum: 1044
>>>>>Begin Spectral Data<<<<<
46.04893	-0.7625
50.45542	-1.2625
54.85868	-0.2625
59.25871	-0.7625
63.6555	44.4375
68.04907	44.7375
72.43941	50.4375
76.82654	48.4375
81.21044	52.5375
85.59113	53.9375
89.96862	60.0375
94.34289	58.2375
98.71396	56.1375
103.08183	60.3375
107.4465	62.6375
111.80798	63.4375
116.16626	67.2375
120.52136	66.8375
124.87327	68.5375
129.222	72.5375
133.56755	76.7375
137.90993	74.2375
142.24913	79.3375
146.58517	89.4375
150.91804	96.0375
155.24774	112.7375
159.57429	132.4375
163.89768	166.2375
168.21792	220.8375
172.53501	294.5375
176.84895	413.8375
181.15975	573.6375
185.46741	803.7375
189.77193	1122.7375
194.07331	1502.5375
198.37157	1935.4375
202.6667	2401.1375
206.9587	2857.4375
211.24758	3314.0375
215.53334	3787.6375
219.81599	4251.3375
224.09553	4779.2375
228.37195	5329.6375
232.64527	5972.4375
236.91549	6652.6375
241.18261	7316.6375
245.44663	7927.7375
249.70755	8497.9375
253.96539	8946.3375
258.22014	9325.9375
262.4718	9631.8375
266.72039	9785.9375
270.96589	9874.3375
275.20832	9834.8375
279.44768	9746.8375
283.68397	9565.4375
287.91719	9415.4375
292.14735	9325.0375
296.37445	9278.2375
300.59849	9250.0375
304.81948	9302.1375
309.03742	9309.0375
313.25231	9276.7375
317.46415	9154.2375
321.67296	8994.5375
325.87872	8829.3375
330.08145	8759.1375
334.28114	8748.4375
338.47781	8795.0375
342.67145	8886.5375
346.86207	9016.5375
351.04966	9161.7375
355.23424	9357.7375
359.4158	9509.6375
363.59435	9623.5375
367.76989	9721.4375
371.94243	9770.0375
376.11196	9824.4375
380.27849	9836.4375
384.44203	9899.5375
388.60257	10000.3375
392.76012	10067.4375
396.91468	10166.6375
401.06626	10270.5375
405.21485	10355.5375
409.36047	10305.7375
413.50311	10182.9375
417.64277	10024.1375
421.77947	9960.5375
425.9132	9970.4375
430.04396	10020.9375
434.17176	10083.9375
438.2966	10151.5375
442.41849	10251.0375
446.53742	10380.9375
450.6534	10559.1375
454.76644	10659.9375
458.87653	10740.7375
462.98368	10725.6375
467.08789	10709.6375
471.18916	10645.6375
475.2875	10536.4375
479.38291	10458.5375
483.4754	10406.0375
487.56496	10325.5375
491.6516	10281.3375
495.73531	10253.5375
499.81612	10249.0375
503.89401	10279.0375
507.96899	10336.6375
512.04106	10386.4375
516.11023	10401.5375
520.1765	10428.3375
524.23987	10374.2375
528.30034	10313.4375
532.35792	10254.3375
536.41261	10202.1375
540.46441	10131.3375
544.51333	10143.5375
548.55936	10195.2375
552.60252	10280.2375
556.64279	10413.9375
560.6802	10500.0375
564.71473	10529.8375
568.7464	10594.6375
572.7752	10701.6375
576.80114	10784.3375
580.82422	10824.9375
584.84444	10899.4375
588.86181	11050.0375
592.87633	11149.8375
596.888	11240.7375
600.89682	11255.2375
604.9028	11520.6375
608.90594	12378.1375
612.90624	13409.4375
616.90371	12997.2375
620.89834	11376.1375
624.89015	10548.5375
628.87913	10403.8375
632.86528	10486.6375
636.84862	10591.1375
640.82913	10509.1375
644.80683	10377.8375
648.78172	10255.0375
652.75379	10242.4375
656.72306	10344.3375
660.68952	10495.6375
664.65319	10488.5375
668.61405	10392.5375
672.57211	10397.1375
676.52738	10489.1375
680.47986	10538.2375
684.42955	10527.1375
688.37646	10498.4375
692.32058	10477.8375
696.26192	10465.5375
700.20048	10471.7375
704.13626	10482.1375
708.06928	10463.6375
711.99952	10389.8375
715.927	10344.4375
719.85171	10369.3375
723.77365	10363.8375
727.69284	10279.5375
731.60928	10241.0375
735.52295	10218.7375
739.43388	10228.0375
743.34206	10225.3375
747.24749	10273.2375
751.15017	10289.4375
755.05012	10360.5375
758.94733	10546.3375
762.8418	10929.4375
766.73354	11507.3375
770.62254	12173.1375
774.50882	12493.4375
778.39237	12145.2375
782.27321	11468.7375
786.15132	10867.5375
790.02671	10468.5375
793.89938	10254.9375
797.76935	10169.9375
801.6366	10109.3375
805.50115	10068.1375
809.36299	10023.5375
813.22213	9997.0375
817.07857	9962.4375
820.93231	9945.4375
824.78336	9966.6375
828.63172	9920.5375
832.47738	9898.2375
836.32036	9907.3375
840.16066	9869.6375
843.99827	9863.1375
847.8332	9865.1375
851.66546	9888.0375
855.49504	9919.6375
859.32195	9899.6375
863.1462	9897.4375
866.96777	9888.0375
870.78668	9887.9375
874.60293	9899.7375
878.41652	9925.6375
882.22745	9922.0375
886.03573	9961.3375
889.84136	9974.4375
893.64433	9954.6375
897.44466	9949.7375
901.24235	9883.5375
905.0374	9878.9375
908.8298	9882.6375
912.61957	9798.2375
916.40671	9858.5375
920.19121	9899.6375
923.97308	9959.3375
927.75233	9937.8375
931.52895	9900.5375
935.30295	9833.3375
939.07433	9737.3375
942.84309	9645.6375
946.60924	9567.7375
950.37278	9516.1375
954.13371	9496.1375
957.89203	9476.7375
961.64774	9477.3375
965.40086	9445.5375
969.15137	9413.9375
972.89929	9386.7375
976.64461	9393.9375
980.38733	9358.5375
984.12747	9315.8375
987.86502	9362.2375
991.59999	9358.0375
995.33237	9395.4375
999.06217	9455.1375
1002.78939	9519.7375
1006.51404	9598.5375
1010.23611	9697.0375
1013.95561	9764.5375
1017.67255	9806.7375
1021.38692	9775.6375
1025.09872	9722.0375
1028.80796	9643.3375
1032.51465	9599.6375
1036.21877	9579.0375
1039.92035	9571.7375
1043.61937	9647.2375
1047.31584	9659.1375
1051.00976	9717.4375
1054.70114	9728.7375
1058.38998	9757.3375
1062.07627	9777.4375
1065.76003	9829.3375
1069.44126	9836.1375
1073.11995	9913.3375
1076.79611	9961.5375
1080.46974	10025.4375
1084.14085	10072.2375
1087.80943	10097.4375
1091.47549	10161.8375
1095.13903	10181.3375
1098.80005	10088.4375
1102.45857	9975.7375
1106.11456	9893.1375
1109.76805	9845.5375
1113.41903	9896.7375
1117.06751	9957.8375
1120.71348	10098.3375
1124.35696	10226.2375
1127.99793	10364.7375
1131.63641	10428.8375
1135.2724	10350.8375
1138.90589	10213.9375
1142.5369	10122.6375
1146.16542	10081.9375
1149.79145	10037.7375
1153.415	10094.2375
1157.03607	10101.9375
1160.65467	10207.5375
1164.27079	10368.9375
1167.88443	10647.1375
1171.49561	10991.8375
1175.10432	11449.3375
1178.71056	12062.5375
1182.31434	12688.9375
1185.91565	13041.5375
1189.51451	13097.9375
1193.11091	12925.6375
1196.70485	12654.8375
1200.29634	12305.5375
1203.88538	11938.8375
1207.47197	11592.7375
1211.05612	11237.4375
1214.63782	10969.9375
1218.21708	10829.8375
1221.79391	10759.8375
1225.36829	10712.9375
1228.94024	10674.7375
1232.50976	10643.9375
1236.07685	10643.3375
1239.6415	10624.3375
1243.20374	10620.8375
1246.76355	10651.2375
1250.32093	10677.7375
1253.8759	10778.2375
1257.42845	10896.7375
1260.97859	11028.1375
1264.52631	11192.1375
1268.07163	11344.3375
1271.61453	11462.7375
1275.15503	11609.4375
1278.69312	11720.1375
1282.22882	11792.2375
1285.76211	11947.6375
1289.29301	12154.0375
1292.82151	12383.3375
1296.34761	12713.7375
1299.87133	13078.7375
1303.39266	13529.5375
1306.9116	14107.3375
1310.42815	14621.7375
1313.94233	14957.0375
1317.45412	14900.7375
1320.96354	14559.3375
1324.47058	14216.4375
1327.97525	13868.1375
1331.47754	13597.7375
1334.97747	13506.5375
1338.47502	13518.4375
1341.97022	13753.7375
1345.46305	14044.8375
1348.95352	14409.4375
1352.44163	14844.7375
1355.92738	15319.2375
1359.41078	15942.3375
1362.89183	16590.6375
1366.37053	16447.1375
1369.84688	15230.6375
1373.32088	13752.0375
1376.79254	12717.5375
1380.26186	12181.2375
1383.72883	11946.2375
1387.19347	11748.6375
1390.65578	11538.4375
1394.11575	11377.2375
1397.57339	11293.3375
1401.0287	11229.7375
1404.48168	11205.2375
1407.93234	11161.2375
1411.38068	11117.0375
1414.82669	11006.0375
1418.27039	10889.7375
1421.71177	10730.3375
1425.15083	10565.7375
1428.58758	10441.2375
1432.02203	10373.6375
1435.45416	10386.8375
1438.88399	10453.0375
1442.31151	10480.9375
1445.73673	10546.2375
1449.15965	10604.2375
1452.58027	10634.2375
1455.9986	10615.7375
1459.41463	10662.3375
1462.82837	10789.2375
1466.23982	10924.6375
1469.64898	11058.1375
1473.05586	11182.6375
1476.46045	11276.3375
1479.86276	11331.7375
1483.26279	11376.0375
1486.66054	11448.0375
1490.05602	11592.8375
1493.44922	11835.0375
1496.84016	12199.9375
1500.22882	12773.0375
1503.61521	13542.9375
1506.99934	14284.6375
1510.38121	14836.1375
1513.76081	14876.4375
1517.13816	14350.3375
1520.51324	13553.6375
1523.88607	12817.3375
1527.25665	12356.9375
1530.62498	12143.1375
1533.99105	11992.2375
1537.35488	11847.7375
1540.71647	11725.4375
1544.07581	11564.9375
1547.4329	11433.7375
1550.78776	11313.8375
1554.14038	11214.9375
1557.49077	11210.0375
1560.83892	11199.0375
1564.18484	11270.4375
1567.52853	11396.2375
1570.86999	11537.7375
1574.20922	11681.1375
1577.54624	11728.0375
1580.88103	11563.6375
1584.2136	11249.2375
1587.54395	11088.0375
1590.87208	11100.0375
1594.19801	11330.5375
1597.52172	11671.4375
1600.84321	11897.6375
1604.16251	11774.2375
1607.47959	11476.5375
1610.79447	11070.6375
1614.10715	10649.2375
1617.41763	10202.4375
1620.7259	9876.8375
1624.03199	9622.9375
1627.33587	9511.0375
1630.63757	9536.5375
1633.93707	9726.3375
1637.23439	10040.4375
1640.52951	10613.9375
1643.82246	11388.7375
1647.11321	12251.0375
1650.40179	12723.8375
1653.68819	12556.4375
1656.97241	11725.7375
1660.25446	10708.9375
1663.53433	9883.2375
1666.81203	9324.0375
1670.08756	8922.5375
1673.36092	8689.1375
1676.63211	8507.2375
1679.90115	8422.7375
1683.16801	8329.4375
1686.43272	8248.3375
1689.69527	8171.6375
1692.95567	8114.1375
1696.2139	8053.0375
1699.46999	8005.3375
1702.72392	7961.7375
1705.97571	7963.6375
1709.22535	7950.6375
1712.47284	7956.6375
1715.71819	7948.6375
1718.96139	7919.8375
1722.20246	7881.2375
1725.44139	7864.8375
1728.67818	7824.2375
1731.91284	7796.6375
1735.14537	7731.8375
1738.37576	7706.2375
1741.60403	7668.1375
1744.83017	7664.1375
1748.05418	7656.3375
1751.27607	7635.6375
1754.49584	7638.1375
1757.71349	7653.9375
1760.92903	7627.2375
1764.14244	7632.3375
1767.35375	7598.3375
1770.56294	7571.2375
1773.77002	7535.2375
1776.97499	7514.5375
1780.17785	7463.3375
1783.37861	7443.1375
1786.57727	7426.5375
1789.77382	7384.0375
1792.96828	7373.9375
1796.16064	7338.0375
1799.3509	7335.1375
1802.53907	7314.6375
1805.72514	7252.5375
1808.90913	7258.2375
1812.09102	7233.5375
1815.27083	7207.5375
1818.44856	7203.4375
1821.6242	7192.1375
1824.79776	7161.5375
1827.96924	7135.1375
1831.13864	7142.7375
1834.30597	7131.7375
1837.47122	7128.1375
1840.6344	7090.7375
1843.7955	7089.8375
1846.95454	7076.5375
1850.11151	7060.4375
1853.26642	7069.7375
1856.41926	7053.3375
1859.57004	7029.6375
1862.71876	7047.3375
1865.86542	7020.5375
1869.01003	6992.0375
1872.15258	7000.5375
1875.29308	6983.2375
1878.43152	6982.2375
1881.56792	6971.0375
1884.70227	6962.7375
1887.83457	6968.9375
1890.96482	6942.9375
1894.09304	6937.9375
1897.21921	6929.1375
1900.34335	6901.5375
1903.46544	6901.4375
1906.58551	6888.8375
1909.70353	6872.7375
1912.81953	6869.4375
1915.93349	6852.3375
1919.04543	6828.8375
1922.15534	6806.0375
1925.26322	6794.8375
1928.36908	6772.7375
1931.47292	6770.4375
1934.57473	6730.6375
1937.67453	6702.8375
1940.77232	6723.9375
1943.86808	6701.2375
1946.96184	6680.8375
1950.05358	6644.1375
1953.14331	6623.6375
1956.23103	6598.7375
1959.31675	6587.9375
1962.40046	6569.2375
1965.48217	6538.7375
1968.56188	6513.5375
1971.63959	6491.6375
1974.7153	6481.0375
1977.78901	6466.6375
1980.86073	6445.0375
1983.93046	6413.5375
1986.99819	6388.6375
1990.06394	6370.3375
1993.1277	6348.8375
1996.18947	6336.9375
1999.24925	6318.9375
2002.30706	6300.4375
2005.36288	6251.3375
2008.41672	6255.6375
2011.46859	6229.9375
2014.51848	6216.1375
2017.56639	6192.9375
2020.61233	6167.8375
2023.6563	6145.3375
2026.6983	6136.2375
2029.73833	6088.0375
2032.7764	6093.8375
2035.8125	6069.3375
2038.84664	6053.0375
2041.87881	6028.7375
2044.90903	6015.7375
2047.93729	6001.5375
2050.96359	6013.1375
2053.98794	5981.9375
2057.01034	5982.2375
2060.03078	5964.0375
2063.04927	5980.3375
2066.06582	5948.9375
2069.08042	5953.2375
2072.09307	5933.2375
2075.10378	5932.5375
2078.11255	5914.1375
2081.11938	5926.7375
2084.12426	5933.1375
2087.12722	5927.6375
2090.12824	5901.3375
2093.12732	5914.1375
2096.12447	5924.8375
2099.11969	5916.9375
2102.11299	5914.7375
2105.10435	5914.8375
2108.09379	5896.5375
2111.08131	5910.5375
2114.0669	5910.7375
2117.05057	5891.1375
2120.03233	5898.8375
2123.01216	5893.6375
2125.99008	5905.2375
2128.96609	5917.2375
2131.94018	5916.6375
2134.91236	5934.3375
2137.88263	5905.3375
2140.851	5901.8375
2143.81746	5933.4375
2146.78201	5910.0375
2149.74466	5901.1375
2152.7054	5901.3375
2155.66425	5896.6375
2158.6212	5913.5375
2161.57625	5903.6375
2164.52941	5876.6375
2167.48067	5878.1375
2170.43004	5886.2375
2173.37752	5893.0375
2176.32311	5863.0375
2179.26681	5872.8375
2182.20863	5854.4375
2185.14856	5855.3375
2188.08661	5842.3375
2191.02278	5849.4375
2193.95707	5844.2375
2196.88948	5844.1375
2199.82001	5828.7375
2202.74867	5821.5375
2205.67545	5823.2375
2208.60037	5805.9375
2211.52341	5778.3375
2214.44458	5763.0375
2217.36388	5739.2375
2220.28132	5759.5375
2223.1969	5728.8375
2226.11061	5728.7375
2229.02246	5709.9375
2231.93245	5687.5375
2234.84058	5677.6375
2237.74686	5676.1375
2240.65128	5670.6375
2243.55385	5648.1375
2246.45456	5629.3375
2249.35343	5619.6375
2252.25044	5614.3375
2255.14561	5616.0375
2258.03893	5614.9375
2260.93041	5599.4375
2263.82004	5586.9375
2266.70783	5570.8375
2269.59378	5562.1375
2272.4779	5544.4375
2275.36017	5523.7375
2278.24061	5498.2375
2281.11922	5482.3375
2283.996	5459.5375
2286.87094	5455.4375
2289.74405	5436.5375
2292.61534	5442.5375
2295.4848	5440.8375
2298.35243	5420.2375
2301.21824	5420.4375
2304.08223	5409.6375
2306.94439	5403.2375
2309.80474	5400.8375
2312.66327	5382.0375
2315.51999	5368.9375
2318.37489	5369.4375
2321.22797	5362.7375
2324.07925	5345.3375
2326.92871	5357.2375
2329.77637	5319.8375
2332.62222	5325.1375
2335.46626	5322.4375
2338.3085	5309.3375
2341.14893	5283.3375
2343.98756	5280.1375
2346.8244	5267.5375
2349.65943	5256.4375
2352.49267	5265.0375
2355.32411	5265.1375
2358.15376	5249.4375
2360.98161	5249.0375
2363.80768	5252.6375
2366.63195	5245.8375
2369.45444	5243.7375
2372.27514	5240.7375
2375.09405	5221.9375
2377.91118	5229.1375
2380.72652	5186.0375
2383.54009	5182.2375
2386.35187	5171.8375
2389.16188	5146.5375
2391.97011	5141.7375
2394.77657	5123.6375
2397.58125	5115.8375
2400.38416	5100.2375
2403.18529	5092.2375
2405.98466	5063.2375
2408.78226	5086.3375
2411.57809	5053.5375
2414.37216	5040.0375
2417.16446	5041.0375
2419.955	5051.7375
2422.74378	5043.6375
2425.5308	5015.8375
2428.31606	5033.1375
2431.09956	5010.4375
2433.88131	5010.9375
2436.6613	5013.0375
2439.43954	5008.3375
2442.21603	4994.6375
2444.99077	4982.4375
2447.76377	4985.2375
2450.53501	4969.9375
2453.30451	4959.6375
2456.07226	4960.5375
2458.83827	4956.8375
2461.60254	4962.6375
2464.36507	4928.6375
2467.12586	4944.6375
2469.88492	4924.2375
2472.64224	4932.6375
2475.39782	4911.4375
2478.15167	4914.6375
2480.90379	4908.9375
2483.65417	4916.2375
2486.40283	4903.7375
2489.14976	4901.6375
2491.89497	4892.3375
2494.63845	4887.7375
2497.3802	4881.1375
2500.12024	4891.5375
2502.85855	4868.8375
2505.59514	4868.9375
2508.33002	4856.5375
2511.06318	4858.9375
2513.79462	4830.4375
2516.52435	4833.0375
2519.25237	4822.3375
2521.97867	4813.4375
2524.70327	4804.7375
2527.42616	4789.9375
2530.14734	4788.4375
2532.86681	4783.9375
2535.58458	4769.0375
2538.30065	4776.1375
2541.01501	4769.8375
2543.72768	4734.5375
2546.43864	4730.3375
2549.14791	4726.0375
2551.85548	4716.6375
2554.56136	4704.0375
2557.26554	4703.6375
2559.96803	4678.0375
2562.66883	4684.7375
2565.36794	4676.6375
2568.06536	4671.5375
2570.7611	4639.2375
2573.45514	4630.0375
2576.14751	4627.5375
2578.83819	4632.6375
2581.52719	4612.2375
2584.21451	4595.5375
2586.90015	4586.1375
2589.58411	4580.4375
2592.2664	4565.8375
2594.94701	4554.7375
2597.62594	4552.1375
2600.30321	4533.6375
2602.9788	4521.5375
2605.65273	4519.9375
2608.32498	4519.1375
2610.99557	4521.9375
2613.66449	4534.1375
2616.33175	4497.9375
2618.99734	4485.4375
2621.66128	4505.1375
2624.32355	4478.7375
2626.98416	4465.6375
2629.64311	4454.6375
2632.30041	4454.1375
2634.95605	4451.3375
2637.61004	4431.7375
2640.26238	4434.3375
2642.91306	4416.5375
2645.56209	4419.1375
2648.20948	4423.2375
2650.85521	4409.2375
2653.4993	4410.5375
2656.14175	4410.2375
2658.78255	4412.6375
2661.42171	4407.7375
2664.05923	4403.4375
2666.6951	4409.1375
2669.32934	4403.9375
2671.96194	4400.4375
2674.59291	4393.3375
2677.22224	4374.1375
2679.84993	4396.8375
2682.476	4396.5375
2685.10043	4388.9375
2687.72324	4385.8375
2690.34441	4376.5375
2692.96396	4377.7375
2695.58188	4392.8375
2698.19818	4369.9375
2700.81285	4372.1375
2703.4259	4370.6375
2706.03733	4361.8375
2708.64714	4371.5375
2711.25533	4378.1375
2713.86191	4364.3375
2716.46687	4367.7375
2719.07021	4353.4375
2721.67194	4371.8375
2724.27206	4424.8375
2726.87057	4407.4375
2729.46747	4372.2375
2732.06276	4350.2375
2734.65644	4350.3375
2737.24852	4359.3375
2739.83899	4337.9375
2742.42786	4340.7375
2745.01513	4334.2375
2747.60079	4312.2375
2750.18486	4313.9375
2752.76733	4317.4375
2755.3482	4307.8375
2757.92747	4290.8375
2760.50515	4284.4375
2763.08123	4273.8375
2765.65573	4275.9375
2768.22863	4259.4375
2770.79994	4257.1375
2773.36967	4243.6375
2775.9378	4247.5375
2778.50435	4254.9375
2781.06932	4226.1375
2783.6327	4237.0375
2786.1945	4218.8375
2788.75471	4228.5375
2791.31335	4210.3375
2793.87041	4208.7375
2796.42589	4179.0375
2798.97979	4170.5375
2801.53212	4165.2375
2804.08288	4149.1375
2806.63206	4149.4375
2809.17967	4131.8375
2811.72571	4128.1375
2814.27018	4120.4375
2816.81308	4106.0375
2819.35442	4112.4375
2821.89419	4103.3375
2824.43239	4099.9375
2826.96904	4117.6375
2829.50412	4104.9375
2832.03763	4092.3375
2834.56959	4087.5375
2837.1	4097.4375
2839.62884	4092.3375
2842.15613	4101.9375
2844.68186	4132.2375
2847.20604	4119.2375
2849.72867	4143.6375
2852.24974	4153.2375
2854.76927	4122.6375
2857.28724	4120.4375
2859.80367	4122.1375
2862.31855	4127.1375
2864.83189	4117.7375
2867.34368	4097.6375
2869.85393	4096.4375
2872.36264	4088.3375
2874.8698	4089.3375
2877.37543	4061.3375
2879.87952	4072.1375
2882.38207	4071.7375
2884.88308	4074.7375
2887.38256	4084.4375
2889.88051	4073.5375
2892.37692	4065.7375
2894.8718	4075.8375
2897.36515	4071.6375
2899.85698	4067.6375
2902.34727	4082.5375
2904.83604	4090.6375
2907.32328	4092.6375
2909.809	4092.1375
2912.29319	4089.3375
2914.77587	4095.2375
2917.25702	4095.8375
2919.73665	4087.9375
2922.21476	4098.8375
2924.69136	4105.5375
2927.16644	4108.7375
2929.64	4114.0375
2932.11205	4087.8375
2934.58258	4073.9375
2937.05161	4085.6375
2939.51912	4078.9375
2941.98513	4080.4375
2944.44962	4075.1375
2946.91261	4051.2375
2949.37409	4051.7375
2951.83407	4045.6375
2954.29254	4047.1375
2956.74951	4040.8375
2959.20498	4027.8375
2961.65895	4013.4375
2964.11142	4009.1375
2966.56239	3993.2375
2969.01186	3970.8375
2971.45984	3970.1375
2973.90632	3962.1375
2976.35131	3941.0375
2978.7948	3936.2375
2981.23681	3919.2375
2983.67732	3902.2375
2986.11635	3905.3375
2988.55388	3894.2375
2990.98993	3891.3375
2993.4245	3872.8375
2995.85758	3860.4375
2998.28917	3837.3375
3000.71928	3849.2375
3003.14791	3835.0375
3005.57506	3829.5375
3008.00073	3821.4375
3010.42493	3815.8375
3012.84764	3803.4375
3015.26888	3800.3375
3017.68865	3794.6375
3020.10694	3790.4375
3022.52376	3782.3375
3024.9391	3771.8375
3027.35298	3769.1375
3029.76539	3765.2375
3032.17632	3743.2375
3034.5858	3749.4375
3036.9938	3749.2375
3039.40034	3741.8375
3041.80542	3734.1375
3044.20903	3707.6375
3046.61118	3716.6375
3049.01187	3721.5375
3051.4111	3715.8375
3053.80888	3706.0375
3056.20519	3715.3375
3058.60005	3694.5375
3060.99345	3702.0375
3063.3854	3684.8375
3065.7759	3671.1375
3068.16494	3666.4375
3070.55254	3673.5375
3072.93868	3662.5375
3075.32338	3644.9375
3077.70662	3637.1375
3080.08842	3630.1375
3082.46878	3635.4375
3084.84769	3624.6375
3087.22515	3634.5375
3089.60118	3633.1375
3091.97576	3636.4375
3094.3489	3625.7375
3096.72061	3647.3375
3099.09087	3618.1375
3101.4597	3625.1375
3103.82709	3633.4375
3106.19305	3636.1375
3108.55757	3635.2375
3110.92066	3627.5375
3113.28232	3620.2375
3115.64255	3620.1375
3118.00134	3622.8375
3120.35871	3603.1375
3122.71466	3606.0375
3125.06917	3594.7375
3127.42226	3591.0375
3129.77393	3598.7375
3132.12417	3600.5375
3134.47299	3608.3375
3136.82039	3614.7375
3139.16636	3604.9375
3141.51092	3614.2375
3143.85406	3616.7375
3146.19579	3616.6375
3148.53609	3616.8375
3150.87499	3637.8375
3153.21246	3640.2375
3155.54853	3632.3375
3157.88318	3633.6375
3160.21642	3633.3375
3162.54826	3641.3375
3164.87868	3646.8375
3167.2077	3642.9375
3169.5353	3660.4375
3171.86151	3645.6375
3174.18631	3653.1375
3176.5097	3663.0375
3178.83169	3636.2375
3181.15228	3647.8375
3183.47147	3636.5375
3185.78926	3629.6375
3188.10565	3636.5375
3190.42065	3628.8375
3192.73424	3633.3375
3195.04645	3624.3375
3197.35725	3642.0375
3199.66667	3640.3375
3201.97469	3659.1375
3204.28132	3653.0375
3206.58656	3659.4375
3208.8904	3661.4375
3211.19287	3646.9375
3213.49394	3659.3375
3215.79363	3663.9375
3218.09193	3667.8375
3220.38884	3656.0375
3222.68438	3662.2375
3224.97853	3674.3375
3227.2713	3645.4375
3229.56269	3656.7375
3231.8527	3650.1375
3234.14133	3652.5375
3236.42858	3638.9375
3238.71446	3628.5375
3240.99896	3619.5375
3243.28209	3640.6375
3245.56384	3610.5375
3247.84423	3609.2375
3250.12324	3614.2375
3252.40088	3603.9375
3254.67715	3602.0375
3256.95205	3595.2375
3259.22558	3607.4375
3261.49775	3606.5375
3263.76855	3601.1375
3266.03799	3576.6375
3268.30606	3585.2375
3270.57277	3587.0375
3272.83812	3573.6375
3275.10211	3565.9375
3277.36474	3554.0375
3279.62601	3562.0375
3281.88593	3551.8375
3284.14448	3555.9375
3286.40168	3548.5375
3288.65753	3545.9375
3290.91202	3547.3375
3293.16516	3539.6375
3295.41695	3533.6375
3297.66738	3516.4375
3299.91647	3499.1375
3302.16421	3478.4375
3304.4106	3472.6375
3306.65564	3460.6375
3308.89933	3425.7375
3311.14169	3404.4375
3313.38269	3359.5375
3315.62236	3351.3375
3317.86068	3327.0375
3320.09766	3290.7375
3322.3333	3286.3375
3324.5676	3266.8375
3326.80056	3217.7375
3329.03219	3198.1375
3331.26248	1.6375
3333.49143	0.8375
3335.71905	-0.0625
