Data from AgNPs_FTO_APTES_UA_50uM_CRN_100uM_R6G_10uM_NaF_0.1M_Addition_RamanShift__11__15-28-45-028.txt Node

Date: Mon Feb 21 15:28:45 GMT 2022
User: TCL
Spectrometer: QEP01345
Trigger mode: 4
Integration Time (sec): 7.000000E0
Scans to average: 10
Electric dark correction enabled: true
Nonlinearity correction enabled: false
Boxcar width: 0
XAxis mode: Raman Shifts
Number of Pixels in Spectrum: 1044
>>>>>Begin Spectral Data<<<<<
46.04893	0.2375
50.45542	-1.1625
54.85868	0.5375
59.25871	-1.3625
63.6555	45.4375
68.04907	50.5375
72.43941	53.3375
76.82654	54.0375
81.21044	58.6375
85.59113	59.9375
89.96862	64.5375
94.34289	70.0375
98.71396	67.0375
103.08183	72.2375
107.4465	74.1375
111.80798	74.8375
116.16626	71.1375
120.52136	71.7375
124.87327	82.7375
129.222	77.1375
133.56755	78.5375
137.90993	86.0375
142.24913	87.2375
146.58517	95.3375
150.91804	108.8375
155.24774	124.4375
159.57429	148.2375
163.89768	184.3375
168.21792	240.5375
172.53501	322.4375
176.84895	443.2375
181.15975	616.9375
185.46741	864.4375
189.77193	1202.0375
194.07331	1602.1375
198.37157	2072.9375
202.6667	2558.5375
206.9587	3045.3375
211.24758	3523.6375
215.53334	3985.0375
219.81599	4489.5375
224.09553	5009.9375
228.37195	5626.7375
232.64527	6296.7375
236.91549	6998.2375
241.18261	7682.4375
245.44663	8382.7375
249.70755	8999.2375
253.96539	9537.5375
258.22014	9968.6375
262.4718	10323.3375
266.72039	10535.8375
270.96589	10668.3375
275.20832	10675.6375
279.44768	10558.4375
283.68397	10435.5375
287.91719	10312.7375
292.14735	10204.6375
296.37445	10151.6375
300.59849	10177.7375
304.81948	10186.2375
309.03742	10153.7375
313.25231	10116.7375
317.46415	9984.3375
321.67296	9810.4375
325.87872	9659.6375
330.08145	9595.9375
334.28114	9621.5375
338.47781	9685.1375
342.67145	9793.7375
346.86207	9942.1375
351.04966	10108.8375
355.23424	10296.8375
359.4158	10484.0375
363.59435	10599.3375
367.76989	10698.3375
371.94243	10768.7375
376.11196	10835.5375
380.27849	10895.1375
384.44203	10969.9375
388.60257	11012.2375
392.76012	11080.2375
396.91468	11204.3375
401.06626	11349.4375
405.21485	11437.2375
409.36047	11429.1375
413.50311	11257.7375
417.64277	11122.9375
421.77947	11053.8375
425.9132	11069.6375
430.04396	11099.8375
434.17176	11139.5375
438.2966	11245.6375
442.41849	11352.2375
446.53742	11524.5375
450.6534	11707.4375
454.76644	11833.0375
458.87653	11936.5375
462.98368	11936.5375
467.08789	11912.3375
471.18916	11838.1375
475.2875	11731.8375
479.38291	11634.6375
483.4754	11549.9375
487.56496	11482.9375
491.6516	11427.0375
495.73531	11420.7375
499.81612	11438.5375
503.89401	11510.3375
507.96899	11564.6375
512.04106	11574.4375
516.11023	11604.9375
520.1765	11577.7375
524.23987	11542.9375
528.30034	11472.4375
532.35792	11459.7375
536.41261	11369.9375
540.46441	11328.8375
544.51333	11331.2375
548.55936	11358.5375
552.60252	11498.0375
556.64279	11610.2375
560.6802	11670.7375
564.71473	11705.5375
568.7464	11781.4375
572.7752	11895.8375
576.80114	11988.6375
580.82422	12154.4375
584.84444	12302.6375
588.86181	12410.7375
592.87633	12546.3375
596.888	12619.8375
600.89682	12687.5375
604.9028	12960.1375
608.90594	13846.6375
612.90624	14862.5375
616.90371	14282.4375
620.89834	12593.7375
624.89015	11789.4375
628.87913	11654.1375
632.86528	11752.3375
636.84862	11833.3375
640.82913	11789.1375
644.80683	11599.8375
648.78172	11459.5375
652.75379	11444.6375
656.72306	11572.0375
660.68952	11718.9375
664.65319	11712.0375
668.61405	11599.0375
672.57211	11604.2375
676.52738	11649.5375
680.47986	11680.7375
684.42955	11665.2375
688.37646	11608.7375
692.32058	11583.0375
696.26192	11638.3375
700.20048	11681.2375
704.13626	11713.8375
708.06928	11711.8375
711.99952	11673.3375
715.927	11613.8375
719.85171	11630.0375
723.77365	11638.2375
727.69284	11557.2375
731.60928	11504.9375
735.52295	11470.7375
739.43388	11490.3375
743.34206	11524.3375
747.24749	11536.7375
751.15017	11567.9375
755.05012	11717.6375
758.94733	11892.3375
762.8418	12242.3375
766.73354	12865.1375
770.62254	13600.0375
774.50882	13896.3375
778.39237	13533.3375
782.27321	12852.0375
786.15132	12229.7375
790.02671	11820.5375
793.89938	11598.4375
797.76935	11498.3375
801.6366	11451.1375
805.50115	11397.9375
809.36299	11358.9375
813.22213	11324.3375
817.07857	11289.9375
820.93231	11259.4375
824.78336	11270.7375
828.63172	11275.0375
832.47738	11265.0375
836.32036	11246.1375
840.16066	11237.9375
843.99827	11230.3375
847.8332	11290.0375
851.66546	11233.6375
855.49504	11252.8375
859.32195	11261.4375
863.1462	11261.3375
866.96777	11269.4375
870.78668	11275.5375
874.60293	11285.5375
878.41652	11288.4375
882.22745	11333.5375
886.03573	11369.7375
889.84136	11365.2375
893.64433	11329.0375
897.44466	11316.6375
901.24235	11303.2375
905.0374	11301.2375
908.8298	11281.1375
912.61957	11253.0375
916.40671	11299.4375
920.19121	11329.9375
923.97308	11397.3375
927.75233	11398.9375
931.52895	11390.8375
935.30295	11298.2375
939.07433	11210.4375
942.84309	11102.1375
946.60924	11021.4375
950.37278	10985.7375
954.13371	10954.9375
957.89203	10917.6375
961.64774	10937.1375
965.40086	10927.5375
969.15137	10926.2375
972.89929	10910.7375
976.64461	10874.8375
980.38733	10853.1375
984.12747	10866.5375
987.86502	10894.8375
991.59999	10924.6375
995.33237	10938.5375
999.06217	11065.7375
1002.78939	11128.5375
1006.51404	11241.9375
1010.23611	11352.5375
1013.95561	11461.3375
1017.67255	11478.3375
1021.38692	11466.6375
1025.09872	11395.1375
1028.80796	11308.3375
1032.51465	11267.1375
1036.21877	11245.7375
1039.92035	11268.9375
1043.61937	11318.3375
1047.31584	11343.3375
1051.00976	11383.0375
1054.70114	11406.1375
1058.38998	11445.7375
1062.07627	11515.7375
1065.76003	11587.4375
1069.44126	11626.0375
1073.11995	11759.2375
1076.79611	11874.1375
1080.46974	11931.9375
1084.14085	11996.2375
1087.80943	12032.6375
1091.47549	12093.1375
1095.13903	12120.8375
1098.80005	12039.5375
1102.45857	11901.6375
1106.11456	11774.2375
1109.76805	11732.3375
1113.41903	11708.3375
1117.06751	11750.6375
1120.71348	11865.4375
1124.35696	11984.0375
1127.99793	12109.1375
1131.63641	12183.3375
1135.2724	12095.7375
1138.90589	11987.0375
1142.5369	11956.1375
1146.16542	11894.3375
1149.79145	11876.6375
1153.415	11847.0375
1157.03607	11904.0375
1160.65467	12057.9375
1164.27079	12266.7375
1167.88443	12557.7375
1171.49561	12975.3375
1175.10432	13519.0375
1178.71056	14230.9375
1182.31434	14912.6375
1185.91565	15344.1375
1189.51451	15488.0375
1193.11091	15323.4375
1196.70485	15006.9375
1200.29634	14544.6375
1203.88538	14147.2375
1207.47197	13747.1375
1211.05612	13372.2375
1214.63782	13106.9375
1218.21708	12894.0375
1221.79391	12794.1375
1225.36829	12703.2375
1228.94024	12677.9375
1232.50976	12663.5375
1236.07685	12645.2375
1239.6415	12615.0375
1243.20374	12648.5375
1246.76355	12656.4375
1250.32093	12735.4375
1253.8759	12849.6375
1257.42845	12998.8375
1260.97859	13222.6375
1264.52631	13418.6375
1268.07163	13630.9375
1271.61453	13847.2375
1275.15503	13991.7375
1278.69312	14154.5375
1282.22882	14261.9375
1285.76211	14449.7375
1289.29301	14689.6375
1292.82151	14930.5375
1296.34761	15298.7375
1299.87133	15646.3375
1303.39266	16154.7375
1306.9116	16740.7375
1310.42815	17299.2375
1313.94233	17623.2375
1317.45412	17584.4375
1320.96354	17297.0375
1324.47058	16959.7375
1327.97525	16676.8375
1331.47754	16516.2375
1334.97747	16492.9375
1338.47502	16640.8375
1341.97022	16868.6375
1345.46305	17195.3375
1348.95352	17508.8375
1352.44163	17825.0375
1355.92738	18206.3375
1359.41078	18700.8375
1362.89183	19263.3375
1366.37053	18990.7375
1369.84688	17770.9375
1373.32088	16282.7375
1376.79254	15122.7375
1380.26186	14546.5375
1383.72883	14222.2375
1387.19347	13969.5375
1390.65578	13708.3375
1394.11575	13556.1375
1397.57339	13438.4375
1401.0287	13429.4375
1404.48168	13435.5375
1407.93234	13441.2375
1411.38068	13423.8375
1414.82669	13348.3375
1418.27039	13204.1375
1421.71177	13027.9375
1425.15083	12833.4375
1428.58758	12714.3375
1432.02203	12655.2375
1435.45416	12707.6375
1438.88399	12791.1375
1442.31151	12865.6375
1445.73673	12931.9375
1449.15965	13002.5375
1452.58027	13050.3375
1455.9986	13116.0375
1459.41463	13190.8375
1462.82837	13347.4375
1466.23982	13521.3375
1469.64898	13770.1375
1473.05586	13936.7375
1476.46045	14056.2375
1479.86276	14173.5375
1483.26279	14260.8375
1486.66054	14324.7375
1490.05602	14465.3375
1493.44922	14783.6375
1496.84016	15223.8375
1500.22882	15829.8375
1503.61521	16589.2375
1506.99934	17332.2375
1510.38121	17788.5375
1513.76081	17721.0375
1517.13816	17121.4375
1520.51324	16264.3375
1523.88607	15528.2375
1527.25665	15057.3375
1530.62498	14782.1375
1533.99105	14611.3375
1537.35488	14416.3375
1540.71647	14256.3375
1544.07581	14101.7375
1547.4329	13911.8375
1550.78776	13767.3375
1554.14038	13710.7375
1557.49077	13690.2375
1560.83892	13727.4375
1564.18484	13835.6375
1567.52853	13952.8375
1570.86999	14059.6375
1574.20922	14179.6375
1577.54624	14196.5375
1580.88103	13988.7375
1584.2136	13666.9375
1587.54395	13536.1375
1590.87208	13656.2375
1594.19801	13977.5375
1597.52172	14431.2375
1600.84321	14638.4375
1604.16251	14503.5375
1607.47959	14096.1375
1610.79447	13607.1375
1614.10715	13081.7375
1617.41763	12557.6375
1620.7259	12115.7375
1624.03199	11832.0375
1627.33587	11711.6375
1630.63757	11728.2375
1633.93707	11996.6375
1637.23439	12459.7375
1640.52951	13147.5375
1643.82246	14077.3375
1647.11321	15018.4375
1650.40179	15502.2375
1653.68819	15165.4375
1656.97241	14145.0375
1660.25446	12916.9375
1663.53433	11922.5375
1666.81203	11282.1375
1670.08756	10855.5375
1673.36092	10606.3375
1676.63211	10439.7375
1679.90115	10301.1375
1683.16801	10211.7375
1686.43272	10132.5375
1689.69527	10065.0375
1692.95567	9948.5375
1696.2139	9816.4375
1699.46999	9703.6375
1702.72392	9650.2375
1705.97571	9707.3375
1709.22535	9806.0375
1712.47284	9866.8375
1715.71819	9879.7375
1718.96139	9884.8375
1722.20246	9869.6375
1725.44139	9870.7375
1728.67818	9809.3375
1731.91284	9725.4375
1735.14537	9695.8375
1738.37576	9692.5375
1741.60403	9644.2375
1744.83017	9609.8375
1748.05418	9588.6375
1751.27607	9562.0375
1754.49584	9485.2375
1757.71349	9463.5375
1760.92903	9415.3375
1764.14244	9422.2375
1767.35375	9405.3375
1770.56294	9373.7375
1773.77002	9364.9375
1776.97499	9385.4375
1780.17785	9395.8375
1783.37861	9429.6375
1786.57727	9417.2375
1789.77382	9402.8375
1792.96828	9371.6375
1796.16064	9388.5375
1799.3509	9375.3375
1802.53907	9323.8375
1805.72514	9344.7375
1808.90913	9288.3375
1812.09102	9273.2375
1815.27083	9282.4375
1818.44856	9256.8375
1821.6242	9241.7375
1824.79776	9250.7375
1827.96924	9221.9375
1831.13864	9196.1375
1834.30597	9194.3375
1837.47122	9186.8375
1840.6344	9199.0375
1843.7955	9193.9375
1846.95454	9161.6375
1850.11151	9181.8375
1853.26642	9135.9375
1856.41926	9145.9375
1859.57004	9133.0375
1862.71876	9105.7375
1865.86542	9114.2375
1869.01003	9110.7375
1872.15258	9087.5375
1875.29308	9092.2375
1878.43152	9070.4375
1881.56792	9051.3375
1884.70227	9051.0375
1887.83457	9008.4375
1890.96482	9021.8375
1894.09304	9003.3375
1897.21921	8991.8375
1900.34335	8977.6375
1903.46544	8965.2375
1906.58551	8952.3375
1909.70353	8959.2375
1912.81953	8915.0375
1915.93349	8926.7375
1919.04543	8906.0375
1922.15534	8904.4375
1925.26322	8862.4375
1928.36908	8813.5375
1931.47292	8845.5375
1934.57473	8795.4375
1937.67453	8795.5375
1940.77232	8780.2375
1943.86808	8771.6375
1946.96184	8741.3375
1950.05358	8704.7375
1953.14331	8692.7375
1956.23103	8661.6375
1959.31675	8623.1375
1962.40046	8606.8375
1965.48217	8595.3375
1968.56188	8549.9375
1971.63959	8540.2375
1974.7153	8510.6375
1977.78901	8503.7375
1980.86073	8474.7375
1983.93046	8413.9375
1986.99819	8388.1375
1990.06394	8383.7375
1993.1277	8362.4375
1996.18947	8310.2375
1999.24925	8316.2375
2002.30706	8280.1375
2005.36288	8241.4375
2008.41672	8233.6375
2011.46859	8196.2375
2014.51848	8180.4375
2017.56639	8163.3375
2020.61233	8125.0375
2023.6563	8111.4375
2026.6983	8096.1375
2029.73833	8058.8375
2032.7764	8053.0375
2035.8125	8019.0375
2038.84664	8029.1375
2041.87881	8013.0375
2044.90903	7991.7375
2047.93729	7965.0375
2050.96359	7963.4375
2053.98794	7948.3375
2057.01034	7958.7375
2060.03078	7957.4375
2063.04927	7936.5375
2066.06582	7920.2375
2069.08042	7927.1375
2072.09307	7917.3375
2075.10378	7910.8375
2078.11255	7912.7375
2081.11938	7904.7375
2084.12426	7891.9375
2087.12722	7916.3375
2090.12824	7901.6375
2093.12732	7901.6375
2096.12447	7878.1375
2099.11969	7883.3375
2102.11299	7893.0375
2105.10435	7908.3375
2108.09379	7873.2375
2111.08131	7873.9375
2114.0669	7892.1375
2117.05057	7892.3375
2120.03233	7891.7375
2123.01216	7906.5375
2125.99008	7924.1375
2128.96609	7930.6375
2131.94018	7939.4375
2134.91236	7929.9375
2137.88263	7937.1375
2140.851	7952.2375
2143.81746	7956.2375
2146.78201	7958.5375
2149.74466	7972.1375
2152.7054	7971.4375
2155.66425	7924.5375
2158.6212	7954.9375
2161.57625	7949.8375
2164.52941	7923.0375
2167.48067	7926.7375
2170.43004	7946.5375
2173.37752	7929.7375
2176.32311	7941.9375
2179.26681	7931.4375
2182.20863	7907.5375
2185.14856	7918.8375
2188.08661	7917.2375
2191.02278	7922.1375
2193.95707	7910.1375
2196.88948	7901.0375
2199.82001	7901.0375
2202.74867	7894.9375
2205.67545	7890.5375
2208.60037	7871.9375
2211.52341	7844.3375
2214.44458	7827.3375
2217.36388	7810.2375
2220.28132	7797.5375
2223.1969	7788.1375
2226.11061	7766.0375
2229.02246	7744.7375
2231.93245	7749.6375
2234.84058	7735.8375
2237.74686	7719.5375
2240.65128	7708.6375
2243.55385	7718.8375
2246.45456	7708.6375
2249.35343	7677.6375
2252.25044	7684.8375
2255.14561	7677.8375
2258.03893	7668.9375
2260.93041	7625.0375
2263.82004	7606.5375
2266.70783	7601.5375
2269.59378	7580.8375
2272.4779	7582.2375
2275.36017	7561.1375
2278.24061	7537.3375
2281.11922	7507.1375
2283.996	7501.8375
2286.87094	7506.6375
2289.74405	7480.9375
2292.61534	7465.4375
2295.4848	7454.7375
2298.35243	7445.4375
2301.21824	7456.1375
2304.08223	7455.5375
2306.94439	7438.9375
2309.80474	7428.1375
2312.66327	7446.2375
2315.51999	7401.5375
2318.37489	7393.1375
2321.22797	7394.3375
2324.07925	7392.1375
2326.92871	7362.3375
2329.77637	7351.4375
2332.62222	7339.6375
2335.46626	7335.7375
2338.3085	7319.0375
2341.14893	7310.8375
2343.98756	7308.5375
2346.8244	7295.8375
2349.65943	7303.8375
2352.49267	7294.5375
2355.32411	7284.4375
2358.15376	7281.7375
2360.98161	7280.0375
2363.80768	7287.3375
2366.63195	7274.6375
2369.45444	7251.6375
2372.27514	7251.3375
2375.09405	7234.9375
2377.91118	7233.0375
2380.72652	7225.6375
2383.54009	7208.9375
2386.35187	7197.5375
2389.16188	7167.3375
2391.97011	7163.5375
2394.77657	7130.9375
2397.58125	7148.5375
2400.38416	7132.8375
2403.18529	7111.2375
2405.98466	7098.0375
2408.78226	7083.9375
2411.57809	7064.7375
2414.37216	7062.6375
2417.16446	7058.2375
2419.955	7053.7375
2422.74378	7044.4375
2425.5308	7041.6375
2428.31606	7037.6375
2431.09956	7019.6375
2433.88131	7011.7375
2436.6613	7022.0375
2439.43954	7033.3375
2442.21603	7016.8375
2444.99077	7015.2375
2447.76377	7020.2375
2450.53501	6998.3375
2453.30451	6989.0375
2456.07226	6980.1375
2458.83827	6962.4375
2461.60254	6960.0375
2464.36507	6985.4375
2467.12586	6952.0375
2469.88492	6962.2375
2472.64224	6968.7375
2475.39782	6944.9375
2478.15167	6929.2375
2480.90379	6945.1375
2483.65417	6938.4375
2486.40283	6933.2375
2489.14976	6936.0375
2491.89497	6902.6375
2494.63845	6912.1375
2497.3802	6892.9375
2500.12024	6904.5375
2502.85855	6892.7375
2505.59514	6902.5375
2508.33002	6869.5375
2511.06318	6864.5375
2513.79462	6855.5375
2516.52435	6852.8375
2519.25237	6842.5375
2521.97867	6832.2375
2524.70327	6832.2375
2527.42616	6831.4375
2530.14734	6804.4375
2532.86681	6800.5375
2535.58458	6789.8375
2538.30065	6796.5375
2541.01501	6766.2375
2543.72768	6766.8375
2546.43864	6758.3375
2549.14791	6752.6375
2551.85548	6744.3375
2554.56136	6740.6375
2557.26554	6705.8375
2559.96803	6700.5375
2562.66883	6691.1375
2565.36794	6701.7375
2568.06536	6678.5375
2570.7611	6651.1375
2573.45514	6660.3375
2576.14751	6649.9375
2578.83819	6612.2375
2581.52719	6617.2375
2584.21451	6620.0375
2586.90015	6596.6375
2589.58411	6571.6375
2592.2664	6540.0375
2594.94701	6539.4375
2597.62594	6528.1375
2600.30321	6554.0375
2602.9788	6542.9375
2605.65273	6513.2375
2608.32498	6529.5375
2610.99557	6513.2375
2613.66449	6513.2375
2616.33175	6505.1375
2618.99734	6509.0375
2621.66128	6495.5375
2624.32355	6470.4375
2626.98416	6476.8375
2629.64311	6459.6375
2632.30041	6449.3375
2634.95605	6435.9375
2637.61004	6422.8375
2640.26238	6430.5375
2642.91306	6422.1375
2645.56209	6420.0375
2648.20948	6409.6375
2650.85521	6387.7375
2653.4993	6401.5375
2656.14175	6394.0375
2658.78255	6391.2375
2661.42171	6394.1375
2664.05923	6389.7375
2666.6951	6413.5375
2669.32934	6421.0375
2671.96194	6399.4375
2674.59291	6406.3375
2677.22224	6401.3375
2679.84993	6398.9375
2682.476	6386.3375
2685.10043	6384.4375
2687.72324	6375.9375
2690.34441	6394.8375
2692.96396	6379.1375
2695.58188	6384.7375
2698.19818	6368.3375
2700.81285	6369.7375
2703.4259	6354.6375
2706.03733	6298.6375
2708.64714	6322.5375
2711.25533	6339.6375
2713.86191	6338.5375
2716.46687	6359.4375
2719.07021	6385.6375
2721.67194	6381.7375
2724.27206	6362.7375
2726.87057	6376.1375
2729.46747	6373.4375
2732.06276	6402.0375
2734.65644	6372.1375
2737.24852	6366.2375
2739.83899	6352.3375
2742.42786	6365.0375
2745.01513	6338.9375
2747.60079	6327.0375
2750.18486	6319.4375
2752.76733	6353.4375
2755.3482	6311.0375
2757.92747	6296.4375
2760.50515	6334.6375
2763.08123	6307.2375
2765.65573	6288.4375
2768.22863	6257.1375
2770.79994	6262.6375
2773.36967	6240.8375
2775.9378	6245.1375
2778.50435	6224.4375
2781.06932	6231.4375
2783.6327	6234.0375
2786.1945	6234.7375
2788.75471	6232.1375
2791.31335	6194.8375
2793.87041	6200.9375
2796.42589	6163.2375
2798.97979	6172.7375
2801.53212	6160.8375
2804.08288	6155.5375
2806.63206	6128.4375
2809.17967	6107.5375
2811.72571	6095.7375
2814.27018	6093.4375
2816.81308	6091.2375
2819.35442	6080.6375
2821.89419	6077.8375
2824.43239	6071.4375
2826.96904	6064.2375
2829.50412	6050.9375
2832.03763	6034.2375
2834.56959	6042.1375
2837.1	6040.2375
2839.62884	6038.9375
2842.15613	6030.8375
2844.68186	6037.7375
2847.20604	6034.1375
2849.72867	6042.3375
2852.24974	6045.0375
2854.76927	6023.0375
2857.28724	5987.9375
2859.80367	6010.9375
2862.31855	5981.1375
2864.83189	5990.7375
2867.34368	5977.6375
2869.85393	5982.5375
2872.36264	5982.1375
2874.8698	5987.1375
2877.37543	5996.1375
2879.87952	5974.9375
2882.38207	5984.5375
2884.88308	5974.8375
2887.38256	5968.3375
2889.88051	5968.5375
2892.37692	5979.5375
2894.8718	5968.1375
2897.36515	5992.4375
2899.85698	5970.5375
2902.34727	5969.0375
2904.83604	5963.9375
2907.32328	6007.9375
2909.809	5978.6375
2912.29319	5992.2375
2914.77587	6000.7375
2917.25702	5996.0375
2919.73665	5999.7375
2922.21476	6008.7375
2924.69136	5987.4375
2927.16644	5986.5375
2929.64	5992.2375
2932.11205	5983.6375
2934.58258	5960.7375
2937.05161	5964.1375
2939.51912	5945.4375
2941.98513	5967.7375
2944.44962	5952.8375
2946.91261	5926.1375
2949.37409	5942.8375
2951.83407	5939.5375
2954.29254	5919.3375
2956.74951	5907.3375
2959.20498	5907.2375
2961.65895	5890.9375
2964.11142	5883.6375
2966.56239	5871.7375
2969.01186	5867.4375
2971.45984	5855.7375
2973.90632	5856.0375
2976.35131	5832.7375
2978.7948	5840.5375
2981.23681	5840.5375
2983.67732	5807.3375
2986.11635	5793.8375
2988.55388	5778.8375
2990.98993	5769.0375
2993.4245	5772.9375
2995.85758	5760.3375
2998.28917	5747.2375
3000.71928	5724.9375
3003.14791	5720.4375
3005.57506	5722.8375
3008.00073	5711.9375
3010.42493	5696.2375
3012.84764	5684.0375
3015.26888	5702.8375
3017.68865	5681.4375
3020.10694	5682.9375
3022.52376	5657.0375
3024.9391	5651.5375
3027.35298	5651.1375
3029.76539	5647.5375
3032.17632	5635.0375
3034.5858	5625.7375
3036.9938	5616.7375
3039.40034	5595.9375
3041.80542	5600.9375
3044.20903	5590.5375
3046.61118	5589.2375
3049.01187	5581.7375
3051.4111	5572.4375
3053.80888	5576.1375
3056.20519	5570.6375
3058.60005	5551.7375
3060.99345	5542.4375
3063.3854	5521.3375
3065.7759	5524.9375
3068.16494	5540.7375
3070.55254	5503.4375
3072.93868	5473.8375
3075.32338	5477.9375
3077.70662	5464.1375
3080.08842	5460.0375
3082.46878	5451.9375
3084.84769	5446.2375
3087.22515	5444.8375
3089.60118	5462.5375
3091.97576	5445.0375
3094.3489	5442.2375
3096.72061	5453.3375
3099.09087	5459.4375
3101.4597	5452.7375
3103.82709	5451.2375
3106.19305	5461.7375
3108.55757	5452.8375
3110.92066	5442.9375
3113.28232	5433.8375
3115.64255	5434.2375
3118.00134	5409.9375
3120.35871	5417.0375
3122.71466	5401.4375
3125.06917	5417.1375
3127.42226	5400.9375
3129.77393	5389.0375
3132.12417	5392.8375
3134.47299	5387.1375
3136.82039	5385.1375
3139.16636	5387.1375
3141.51092	5377.9375
3143.85406	5378.1375
3146.19579	5395.7375
3148.53609	5399.1375
3150.87499	5397.3375
3153.21246	5414.9375
3155.54853	5429.7375
3157.88318	5418.5375
3160.21642	5441.9375
3162.54826	5415.9375
3164.87868	5429.0375
3167.2077	5418.9375
3169.5353	5430.2375
3171.86151	5446.5375
3174.18631	5451.5375
3176.5097	5414.7375
3178.83169	5406.2375
3181.15228	5412.4375
3183.47147	5408.1375
3185.78926	5399.8375
3188.10565	5401.1375
3190.42065	5408.7375
3192.73424	5411.7375
3195.04645	5408.9375
3197.35725	5407.4375
3199.66667	5394.9375
3201.97469	5403.1375
3204.28132	5395.3375
3206.58656	5398.6375
3208.8904	5413.4375
3211.19287	5413.5375
3213.49394	5415.3375
3215.79363	5420.5375
3218.09193	5432.4375
3220.38884	5421.1375
3222.68438	5401.2375
3224.97853	5382.8375
3227.2713	5412.8375
3229.56269	5401.1375
3231.8527	5410.6375
3234.14133	5369.1375
3236.42858	5386.8375
3238.71446	5358.6375
3240.99896	5355.2375
3243.28209	5356.6375
3245.56384	5344.2375
3247.84423	5340.7375
3250.12324	5344.1375
3252.40088	5339.7375
3254.67715	5342.8375
3256.95205	5337.8375
3259.22558	5342.3375
3261.49775	5312.1375
3263.76855	5323.2375
3266.03799	5316.3375
3268.30606	5300.7375
3270.57277	5319.3375
3272.83812	5298.5375
3275.10211	5279.5375
3277.36474	5260.4375
3279.62601	5282.1375
3281.88593	5254.4375
3284.14448	5282.3375
3286.40168	5279.2375
3288.65753	5264.5375
3290.91202	5250.0375
3293.16516	5243.1375
3295.41695	5247.5375
3297.66738	5198.7375
3299.91647	5178.3375
3302.16421	5137.0375
3304.4106	5091.8375
3306.65564	5080.9375
3308.89933	5046.0375
3311.14169	5022.1375
3313.38269	4960.4375
3315.62236	4943.2375
3317.86068	4903.6375
3320.09766	4869.6375
3322.3333	4837.1375
3324.5676	4810.3375
3326.80056	4728.8375
3329.03219	4713.3375
3331.26248	2.5375
3333.49143	-2.3625
3335.71905	0.5375
