Data from AgNPs_FTO_APTES_UA_50uM_CRN_0uM_R6G_10uM_NaF_0.1M_Addition_RamanShift__53__11-12-04-697.txt Node

Date: Mon Feb 21 11:12:04 GMT 2022
User: TCL
Spectrometer: QEP01345
Trigger mode: 4
Integration Time (sec): 7.000000E0
Scans to average: 10
Electric dark correction enabled: true
Nonlinearity correction enabled: false
Boxcar width: 0
XAxis mode: Raman Shifts
Number of Pixels in Spectrum: 1044
>>>>>Begin Spectral Data<<<<<
46.04893	0.5625
50.45542	-1.2375
54.85868	-0.4375
59.25871	-1.2375
63.6555	44.1625
68.04907	47.3625
72.43941	47.7625
76.82654	54.0625
81.21044	54.5625
85.59113	59.3625
89.96862	61.0625
94.34289	66.2625
98.71396	65.4625
103.08183	68.4625
107.4465	67.5625
111.80798	66.9625
116.16626	67.7625
120.52136	65.2625
124.87327	74.5625
129.222	70.1625
133.56755	73.3625
137.90993	83.8625
142.24913	86.3625
146.58517	90.9625
150.91804	104.8625
155.24774	119.9625
159.57429	143.9625
163.89768	177.9625
168.21792	235.2625
172.53501	314.6625
176.84895	437.0625
181.15975	601.1625
185.46741	838.7625
189.77193	1161.0625
194.07331	1537.9625
198.37157	1977.1625
202.6667	2449.3625
206.9587	2911.1625
211.24758	3390.4625
215.53334	3852.0625
219.81599	4378.9625
224.09553	4953.9625
228.37195	5597.8625
232.64527	6314.9625
236.91549	7032.3625
241.18261	7675.7625
245.44663	8292.8625
249.70755	8790.1625
253.96539	9263.4625
258.22014	9681.9625
262.4718	10005.9625
266.72039	10231.2625
270.96589	10320.9625
275.20832	10289.0625
279.44768	10168.9625
283.68397	9937.0625
287.91719	9798.3625
292.14735	9729.0625
296.37445	9826.1625
300.59849	10081.1625
304.81948	10419.1625
309.03742	10647.9625
313.25231	10627.8625
317.46415	10305.2625
321.67296	9793.9625
325.87872	9309.2625
330.08145	9076.0625
334.28114	9081.7625
338.47781	9159.9625
342.67145	9335.4625
346.86207	9644.1625
351.04966	10034.2625
355.23424	10529.9625
359.4158	10942.9625
363.59435	11161.6625
367.76989	11268.7625
371.94243	11346.1625
376.11196	11325.4625
380.27849	11350.0625
384.44203	11306.5625
388.60257	11212.4625
392.76012	11149.3625
396.91468	11213.8625
401.06626	11446.0625
405.21485	11617.5625
409.36047	11490.4625
413.50311	11053.1625
417.64277	10649.2625
421.77947	10419.5625
425.9132	10280.0625
430.04396	10290.0625
434.17176	10383.5625
438.2966	10581.9625
442.41849	10939.4625
446.53742	11372.0625
450.6534	11814.4625
454.76644	12098.2625
458.87653	12142.9625
462.98368	11925.8625
467.08789	11642.0625
471.18916	11359.2625
475.2875	11040.7625
479.38291	10818.6625
483.4754	10639.1625
487.56496	10471.3625
491.6516	10340.3625
495.73531	10238.7625
499.81612	10217.6625
503.89401	10283.2625
507.96899	10367.9625
512.04106	10453.9625
516.11023	10562.7625
520.1765	10673.6625
524.23987	10696.2625
528.30034	10588.7625
532.35792	10493.4625
536.41261	10330.3625
540.46441	10122.7625
544.51333	9989.2625
548.55936	10042.4625
552.60252	10202.2625
556.64279	10479.2625
560.6802	10657.1625
564.71473	10823.7625
568.7464	11131.9625
572.7752	11430.9625
576.80114	11299.3625
580.82422	11060.3625
584.84444	11049.1625
588.86181	11344.5625
592.87633	11816.6625
596.888	12141.0625
600.89682	12180.3625
604.9028	12838.6625
608.90594	15235.5625
612.90624	18588.4625
616.90371	17890.2625
620.89834	13298.1625
624.89015	11051.3625
628.87913	10633.6625
632.86528	10676.2625
636.84862	10746.3625
640.82913	10577.4625
644.80683	10147.9625
648.78172	9871.6625
652.75379	9838.4625
656.72306	10166.7625
660.68952	10584.5625
664.65319	10507.9625
668.61405	10068.6625
672.57211	9858.1625
676.52738	9894.8625
680.47986	9855.3625
684.42955	9755.6625
688.37646	9725.9625
692.32058	9762.6625
696.26192	9883.6625
700.20048	9988.3625
704.13626	10070.4625
708.06928	10018.6625
711.99952	9935.7625
715.927	9930.8625
719.85171	10043.1625
723.77365	10061.7625
727.69284	9942.6625
731.60928	9855.8625
735.52295	9859.2625
739.43388	9909.1625
743.34206	9944.2625
747.24749	9967.7625
751.15017	10022.2625
755.05012	10139.8625
758.94733	10467.4625
762.8418	11321.1625
766.73354	12816.3625
770.62254	14383.6625
774.50882	15325.3625
778.39237	14942.8625
782.27321	13319.9625
786.15132	11668.7625
790.02671	10655.8625
793.89938	10204.3625
797.76935	10003.3625
801.6366	9957.6625
805.50115	9909.3625
809.36299	9899.1625
813.22213	9854.6625
817.07857	9828.9625
820.93231	9789.8625
824.78336	9805.4625
828.63172	9826.1625
832.47738	9859.7625
836.32036	9844.3625
840.16066	9819.4625
843.99827	9813.3625
847.8332	9789.6625
851.66546	9726.9625
855.49504	9729.0625
859.32195	9702.7625
863.1462	9677.1625
866.96777	9654.9625
870.78668	9627.2625
874.60293	9638.9625
878.41652	9703.5625
882.22745	9768.2625
886.03573	9853.1625
889.84136	9808.0625
893.64433	9773.8625
897.44466	9706.0625
901.24235	9677.7625
905.0374	9630.6625
908.8298	9570.2625
912.61957	9556.0625
916.40671	9565.6625
920.19121	9618.4625
923.97308	9731.1625
927.75233	9835.0625
931.52895	9890.0625
935.30295	9821.9625
939.07433	9597.6625
942.84309	9425.0625
946.60924	9278.6625
950.37278	9217.9625
954.13371	9197.4625
957.89203	9140.6625
961.64774	9104.1625
965.40086	9108.0625
969.15137	9088.2625
972.89929	9073.3625
976.64461	9074.6625
980.38733	9098.1625
984.12747	9096.0625
987.86502	9192.5625
991.59999	9320.0625
995.33237	9480.1625
999.06217	9697.8625
1002.78939	9989.7625
1006.51404	10196.1625
1010.23611	10344.7625
1013.95561	10448.4625
1017.67255	10446.6625
1021.38692	10280.1625
1025.09872	10056.9625
1028.80796	9964.7625
1032.51465	10060.0625
1036.21877	10170.1625
1039.92035	10219.9625
1043.61937	10203.8625
1047.31584	10114.2625
1051.00976	10008.9625
1054.70114	9898.0625
1058.38998	9845.1625
1062.07627	9863.6625
1065.76003	9894.1625
1069.44126	9946.8625
1073.11995	10084.2625
1076.79611	10236.0625
1080.46974	10444.3625
1084.14085	10660.3625
1087.80943	10897.9625
1091.47549	11017.7625
1095.13903	10905.2625
1098.80005	10599.3625
1102.45857	10324.0625
1106.11456	10231.6625
1109.76805	10301.7625
1113.41903	10488.8625
1117.06751	10749.6625
1120.71348	11088.5625
1124.35696	11470.7625
1127.99793	11782.1625
1131.63641	11819.4625
1135.2724	11447.8625
1138.90589	11052.3625
1142.5369	10758.8625
1146.16542	10613.9625
1149.79145	10544.2625
1153.415	10512.5625
1157.03607	10542.1625
1160.65467	10745.3625
1164.27079	11086.8625
1167.88443	11666.9625
1171.49561	12538.9625
1175.10432	13958.8625
1178.71056	15826.3625
1182.31434	17497.0625
1185.91565	18200.5625
1189.51451	17846.6625
1193.11091	16797.1625
1196.70485	15600.1625
1200.29634	14626.3625
1203.88538	13820.4625
1207.47197	13044.5625
1211.05612	12409.5625
1214.63782	12103.2625
1218.21708	12073.5625
1221.79391	12133.0625
1225.36829	12202.7625
1228.94024	12099.8625
1232.50976	11908.2625
1236.07685	11748.9625
1239.6415	11702.1625
1243.20374	11708.7625
1246.76355	11769.2625
1250.32093	11878.4625
1253.8759	12108.0625
1257.42845	12450.7625
1260.97859	12915.7625
1264.52631	13380.9625
1268.07163	13787.0625
1271.61453	14164.2625
1275.15503	14417.4625
1278.69312	14593.5625
1282.22882	14796.0625
1285.76211	15201.2625
1289.29301	15795.1625
1292.82151	16428.4625
1296.34761	17153.2625
1299.87133	18100.6625
1303.39266	19436.9625
1306.9116	21349.3625
1310.42815	23424.7625
1313.94233	24786.7625
1317.45412	24485.3625
1320.96354	23091.0625
1324.47058	21323.5625
1327.97525	19819.8625
1331.47754	18850.1625
1334.97747	18499.7625
1338.47502	18500.5625
1341.97022	18593.5625
1345.46305	18785.4625
1348.95352	19323.2625
1352.44163	20574.5625
1355.92738	22499.8625
1359.41078	25374.1625
1362.89183	28196.4625
1366.37053	28025.6625
1369.84688	24402.3625
1373.32088	20277.6625
1376.79254	17644.4625
1380.26186	16407.5625
1383.72883	15876.7625
1387.19347	15386.6625
1390.65578	14826.6625
1394.11575	14426.6625
1397.57339	14395.0625
1401.0287	14609.6625
1404.48168	14896.4625
1407.93234	15063.8625
1411.38068	15115.2625
1414.82669	15007.2625
1418.27039	14639.4625
1421.71177	14139.9625
1425.15083	13738.7625
1428.58758	13563.9625
1432.02203	13681.8625
1435.45416	13979.6625
1438.88399	14255.0625
1442.31151	14372.3625
1445.73673	14403.0625
1449.15965	14533.9625
1452.58027	14503.0625
1455.9986	14296.4625
1459.41463	14187.3625
1462.82837	14310.1625
1466.23982	14619.0625
1469.64898	15031.7625
1473.05586	15325.7625
1476.46045	15540.1625
1479.86276	15747.5625
1483.26279	15920.0625
1486.66054	16128.5625
1490.05602	16388.0625
1493.44922	16755.6625
1496.84016	17249.3625
1500.22882	18194.6625
1503.61521	19794.3625
1506.99934	21756.5625
1510.38121	23548.3625
1513.76081	24165.2625
1517.13816	22939.7625
1520.51324	20459.8625
1523.88607	18086.3625
1527.25665	16591.5625
1530.62498	15868.6625
1533.99105	15470.4625
1537.35488	15225.6625
1540.71647	15018.2625
1544.07581	14830.6625
1547.4329	14657.8625
1550.78776	14424.2625
1554.14038	14226.7625
1557.49077	14106.6625
1560.83892	14146.5625
1564.18484	14361.4625
1567.52853	14704.4625
1570.86999	15134.4625
1574.20922	15493.7625
1577.54624	15587.7625
1580.88103	15144.8625
1584.2136	14463.8625
1587.54395	14241.6625
1590.87208	14735.7625
1594.19801	15875.9625
1597.52172	17322.8625
1600.84321	18107.5625
1604.16251	17654.1625
1607.47959	16293.7625
1610.79447	14588.4625
1614.10715	13083.5625
1617.41763	12007.3625
1620.7259	11397.9625
1624.03199	11127.0625
1627.33587	11128.6625
1630.63757	11445.6625
1633.93707	12082.5625
1637.23439	13189.5625
1640.52951	14838.2625
1643.82246	17075.7625
1647.11321	19299.4625
1650.40179	20404.7625
1653.68819	19265.2625
1656.97241	16456.2625
1660.25446	13600.2625
1663.53433	11653.3625
1666.81203	10484.7625
1670.08756	9868.0625
1673.36092	9502.1625
1676.63211	9286.1625
1679.90115	9097.0625
1683.16801	8966.8625
1686.43272	8880.1625
1689.69527	8788.5625
1692.95567	8665.7625
1696.2139	8532.4625
1699.46999	8444.2625
1702.72392	8374.2625
1705.97571	8437.8625
1709.22535	8535.9625
1712.47284	8585.6625
1715.71819	8613.6625
1718.96139	8619.0625
1722.20246	8618.4625
1725.44139	8553.3625
1728.67818	8536.6625
1731.91284	8462.4625
1735.14537	8386.0625
1738.37576	8372.9625
1741.60403	8346.0625
1744.83017	8286.6625
1748.05418	8266.5625
1751.27607	8201.2625
1754.49584	8161.8625
1757.71349	8087.2625
1760.92903	8030.8625
1764.14244	8012.8625
1767.35375	8031.6625
1770.56294	7994.3625
1773.77002	8003.2625
1776.97499	8049.1625
1780.17785	8074.9625
1783.37861	8108.4625
1786.57727	8103.6625
1789.77382	8121.9625
1792.96828	8115.1625
1796.16064	8101.8625
1799.3509	8087.7625
1802.53907	8090.3625
1805.72514	8050.3625
1808.90913	8051.4625
1812.09102	8011.3625
1815.27083	7994.9625
1818.44856	7982.6625
1821.6242	7983.9625
1824.79776	7963.1625
1827.96924	7957.8625
1831.13864	7956.4625
1834.30597	7947.0625
1837.47122	7929.9625
1840.6344	7912.7625
1843.7955	7908.7625
1846.95454	7918.0625
1850.11151	7891.7625
1853.26642	7858.8625
1856.41926	7891.5625
1859.57004	7897.0625
1862.71876	7863.4625
1865.86542	7890.3625
1869.01003	7855.5625
1872.15258	7874.4625
1875.29308	7863.1625
1878.43152	7891.2625
1881.56792	7874.5625
1884.70227	7877.0625
1887.83457	7870.7625
1890.96482	7868.6625
1894.09304	7829.2625
1897.21921	7860.4625
1900.34335	7835.9625
1903.46544	7827.1625
1906.58551	7844.9625
1909.70353	7821.1625
1912.81953	7818.8625
1915.93349	7824.0625
1919.04543	7827.0625
1922.15534	7796.0625
1925.26322	7781.7625
1928.36908	7750.6625
1931.47292	7742.4625
1934.57473	7718.7625
1937.67453	7699.6625
1940.77232	7681.3625
1943.86808	7642.6625
1946.96184	7645.3625
1950.05358	7605.1625
1953.14331	7569.4625
1956.23103	7557.2625
1959.31675	7536.8625
1962.40046	7487.0625
1965.48217	7502.7625
1968.56188	7501.6625
1971.63959	7480.6625
1974.7153	7448.3625
1977.78901	7431.5625
1980.86073	7398.7625
1983.93046	7362.0625
1986.99819	7341.0625
1990.06394	7310.8625
1993.1277	7307.9625
1996.18947	7269.2625
1999.24925	7254.9625
2002.30706	7236.4625
2005.36288	7215.5625
2008.41672	7218.0625
2011.46859	7186.3625
2014.51848	7158.5625
2017.56639	7143.4625
2020.61233	7140.9625
2023.6563	7097.1625
2026.6983	7085.3625
2029.73833	7069.0625
2032.7764	7049.1625
2035.8125	7033.0625
2038.84664	7025.1625
2041.87881	7019.6625
2044.90903	7014.3625
2047.93729	6987.0625
2050.96359	6978.5625
2053.98794	6996.6625
2057.01034	6986.7625
2060.03078	6962.3625
2063.04927	6956.7625
2066.06582	6932.7625
2069.08042	6930.0625
2072.09307	6948.2625
2075.10378	6940.4625
2078.11255	6939.8625
2081.11938	6959.7625
2084.12426	6951.6625
2087.12722	6949.2625
2090.12824	6937.4625
2093.12732	6925.0625
2096.12447	6951.4625
2099.11969	6925.7625
2102.11299	6941.0625
2105.10435	6945.7625
2108.09379	6936.6625
2111.08131	6935.6625
2114.0669	6950.0625
2117.05057	6958.3625
2120.03233	6935.2625
2123.01216	6959.9625
2125.99008	6962.3625
2128.96609	6962.5625
2131.94018	6980.1625
2134.91236	6963.0625
2137.88263	6985.6625
2140.851	6985.5625
2143.81746	6976.6625
2146.78201	6982.3625
2149.74466	6982.2625
2152.7054	6971.1625
2155.66425	6984.6625
2158.6212	6979.3625
2161.57625	6981.6625
2164.52941	6966.2625
2167.48067	6962.1625
2170.43004	6937.3625
2173.37752	6957.6625
2176.32311	6949.2625
2179.26681	6950.4625
2182.20863	6957.7625
2185.14856	6973.2625
2188.08661	6955.3625
2191.02278	6964.1625
2193.95707	6938.1625
2196.88948	6946.8625
2199.82001	6950.2625
2202.74867	6939.9625
2205.67545	6936.0625
2208.60037	6908.4625
2211.52341	6923.4625
2214.44458	6903.2625
2217.36388	6882.3625
2220.28132	6899.7625
2223.1969	6870.4625
2226.11061	6866.5625
2229.02246	6848.1625
2231.93245	6850.1625
2234.84058	6809.6625
2237.74686	6797.0625
2240.65128	6795.3625
2243.55385	6778.4625
2246.45456	6770.1625
2249.35343	6785.5625
2252.25044	6785.9625
2255.14561	6775.9625
2258.03893	6767.9625
2260.93041	6709.3625
2263.82004	6720.3625
2266.70783	6723.6625
2269.59378	6713.6625
2272.4779	6689.0625
2275.36017	6675.0625
2278.24061	6664.8625
2281.11922	6646.4625
2283.996	6643.2625
2286.87094	6620.1625
2289.74405	6623.0625
2292.61534	6608.7625
2295.4848	6608.4625
2298.35243	6614.7625
2301.21824	6568.5625
2304.08223	6596.4625
2306.94439	6594.4625
2309.80474	6578.1625
2312.66327	6579.3625
2315.51999	6581.8625
2318.37489	6577.5625
2321.22797	6583.3625
2324.07925	6561.5625
2326.92871	6551.6625
2329.77637	6522.9625
2332.62222	6541.5625
2335.46626	6516.6625
2338.3085	6516.3625
2341.14893	6495.8625
2343.98756	6528.8625
2346.8244	6526.3625
2349.65943	6509.2625
2352.49267	6506.8625
2355.32411	6535.4625
2358.15376	6542.7625
2360.98161	6543.2625
2363.80768	6524.3625
2366.63195	6550.1625
2369.45444	6534.5625
2372.27514	6514.3625
2375.09405	6511.7625
2377.91118	6509.4625
2380.72652	6467.9625
2383.54009	6454.5625
2386.35187	6443.1625
2389.16188	6415.3625
2391.97011	6420.4625
2394.77657	6387.8625
2397.58125	6384.3625
2400.38416	6380.6625
2403.18529	6359.3625
2405.98466	6361.9625
2408.78226	6327.7625
2411.57809	6316.3625
2414.37216	6319.2625
2417.16446	6308.6625
2419.955	6295.1625
2422.74378	6298.6625
2425.5308	6269.4625
2428.31606	6274.9625
2431.09956	6283.4625
2433.88131	6276.4625
2436.6613	6290.1625
2439.43954	6304.2625
2442.21603	6295.1625
2444.99077	6273.2625
2447.76377	6291.1625
2450.53501	6272.5625
2453.30451	6275.3625
2456.07226	6280.4625
2458.83827	6248.3625
2461.60254	6244.6625
2464.36507	6237.7625
2467.12586	6228.0625
2469.88492	6242.7625
2472.64224	6224.0625
2475.39782	6237.4625
2478.15167	6260.1625
2480.90379	6260.3625
2483.65417	6276.1625
2486.40283	6291.0625
2489.14976	6298.0625
2491.89497	6306.2625
2494.63845	6296.2625
2497.3802	6253.9625
2500.12024	6286.4625
2502.85855	6265.2625
2505.59514	6242.5625
2508.33002	6237.6625
2511.06318	6220.2625
2513.79462	6211.8625
2516.52435	6186.6625
2519.25237	6163.6625
2521.97867	6146.6625
2524.70327	6146.7625
2527.42616	6140.6625
2530.14734	6150.8625
2532.86681	6149.6625
2535.58458	6148.8625
2538.30065	6137.2625
2541.01501	6136.2625
2543.72768	6126.3625
2546.43864	6105.1625
2549.14791	6109.9625
2551.85548	6120.9625
2554.56136	6086.8625
2557.26554	6089.9625
2559.96803	6075.2625
2562.66883	6065.4625
2565.36794	6071.2625
2568.06536	6071.0625
2570.7611	6060.9625
2573.45514	6059.4625
2576.14751	6066.1625
2578.83819	6044.0625
2581.52719	6016.7625
2584.21451	5998.5625
2586.90015	6016.3625
2589.58411	6009.2625
2592.2664	6001.2625
2594.94701	6014.0625
2597.62594	5997.0625
2600.30321	5985.8625
2602.9788	5989.6625
2605.65273	5992.3625
2608.32498	5989.2625
2610.99557	5985.4625
2613.66449	5991.1625
2616.33175	5981.1625
2618.99734	5967.0625
2621.66128	5958.7625
2624.32355	5961.2625
2626.98416	5969.4625
2629.64311	5970.1625
2632.30041	5952.1625
2634.95605	5929.7625
2637.61004	5929.7625
2640.26238	5909.5625
2642.91306	5899.3625
2645.56209	5903.3625
2648.20948	5894.7625
2650.85521	5885.3625
2653.4993	5890.5625
2656.14175	5899.3625
2658.78255	5898.8625
2661.42171	5908.3625
2664.05923	5908.1625
2666.6951	5914.7625
2669.32934	5938.1625
2671.96194	5946.2625
2674.59291	5917.5625
2677.22224	5936.4625
2679.84993	5922.9625
2682.476	5917.0625
2685.10043	5929.8625
2687.72324	5935.4625
2690.34441	5915.1625
2692.96396	5927.7625
2695.58188	5902.8625
2698.19818	5898.8625
2700.81285	5917.1625
2703.4259	5865.2625
2706.03733	5800.5625
2708.64714	5833.6625
2711.25533	5867.5625
2713.86191	5893.3625
2716.46687	5930.4625
2719.07021	5937.7625
2721.67194	5951.8625
2724.27206	5956.4625
2726.87057	5964.6625
2729.46747	5933.5625
2732.06276	5948.4625
2734.65644	5916.4625
2737.24852	5928.6625
2739.83899	5936.9625
2742.42786	5930.7625
2745.01513	5917.8625
2747.60079	5917.0625
2750.18486	5902.7625
2752.76733	5926.5625
2755.3482	5864.6625
2757.92747	5886.7625
2760.50515	5877.8625
2763.08123	5867.4625
2765.65573	5858.2625
2768.22863	5862.8625
2770.79994	5857.7625
2773.36967	5859.2625
2775.9378	5859.2625
2778.50435	5871.6625
2781.06932	5881.9625
2783.6327	5861.9625
2786.1945	5869.3625
2788.75471	5845.2625
2791.31335	5842.4625
2793.87041	5826.8625
2796.42589	5813.8625
2798.97979	5820.0625
2801.53212	5810.7625
2804.08288	5801.1625
2806.63206	5799.7625
2809.17967	5792.4625
2811.72571	5782.2625
2814.27018	5768.9625
2816.81308	5776.5625
2819.35442	5772.5625
2821.89419	5766.7625
2824.43239	5780.7625
2826.96904	5773.5625
2829.50412	5751.9625
2832.03763	5769.4625
2834.56959	5757.8625
2837.1	5759.4625
2839.62884	5751.1625
2842.15613	5775.1625
2844.68186	5795.4625
2847.20604	5802.5625
2849.72867	5809.9625
2852.24974	5808.0625
2854.76927	5797.4625
2857.28724	5766.9625
2859.80367	5772.9625
2862.31855	5775.7625
2864.83189	5781.9625
2867.34368	5779.5625
2869.85393	5792.8625
2872.36264	5794.4625
2874.8698	5804.9625
2877.37543	5788.6625
2879.87952	5807.3625
2882.38207	5777.2625
2884.88308	5781.0625
2887.38256	5784.3625
2889.88051	5776.4625
2892.37692	5766.7625
2894.8718	5759.6625
2897.36515	5765.8625
2899.85698	5787.5625
2902.34727	5799.4625
2904.83604	5790.1625
2907.32328	5792.3625
2909.809	5802.5625
2912.29319	5817.7625
2914.77587	5814.4625
2917.25702	5814.6625
2919.73665	5805.3625
2922.21476	5797.5625
2924.69136	5802.9625
2927.16644	5812.4625
2929.64	5773.9625
2932.11205	5765.9625
2934.58258	5734.7625
2937.05161	5748.4625
2939.51912	5752.2625
2941.98513	5708.5625
2944.44962	5687.1625
2946.91261	5666.0625
2949.37409	5660.2625
2951.83407	5667.7625
2954.29254	5646.3625
2956.74951	5644.2625
2959.20498	5647.9625
2961.65895	5626.7625
2964.11142	5628.3625
2966.56239	5613.3625
2969.01186	5598.0625
2971.45984	5591.5625
2973.90632	5570.0625
2976.35131	5579.3625
2978.7948	5546.6625
2981.23681	5543.5625
2983.67732	5530.1625
2986.11635	5539.6625
2988.55388	5502.3625
2990.98993	5463.3625
2993.4245	5469.5625
2995.85758	5457.3625
2998.28917	5425.3625
3000.71928	5446.1625
3003.14791	5416.6625
3005.57506	5417.6625
3008.00073	5416.5625
3010.42493	5386.3625
3012.84764	5391.2625
3015.26888	5391.8625
3017.68865	5379.2625
3020.10694	5365.1625
3022.52376	5361.1625
3024.9391	5365.8625
3027.35298	5336.0625
3029.76539	5327.8625
3032.17632	5331.9625
3034.5858	5337.3625
3036.9938	5313.2625
3039.40034	5313.1625
3041.80542	5294.9625
3044.20903	5281.6625
3046.61118	5281.6625
3049.01187	5280.3625
3051.4111	5291.8625
3053.80888	5283.7625
3056.20519	5255.9625
3058.60005	5261.8625
3060.99345	5272.9625
3063.3854	5240.7625
3065.7759	5231.1625
3068.16494	5243.9625
3070.55254	5214.7625
3072.93868	5196.7625
3075.32338	5181.1625
3077.70662	5169.0625
3080.08842	5159.0625
3082.46878	5146.2625
3084.84769	5148.9625
3087.22515	5143.0625
3089.60118	5150.6625
3091.97576	5141.9625
3094.3489	5138.8625
3096.72061	5136.9625
3099.09087	5129.2625
3101.4597	5137.6625
3103.82709	5130.7625
3106.19305	5110.8625
3108.55757	5103.7625
3110.92066	5105.9625
3113.28232	5101.8625
3115.64255	5084.3625
3118.00134	5080.9625
3120.35871	5068.0625
3122.71466	5060.0625
3125.06917	5056.1625
3127.42226	5067.4625
3129.77393	5059.7625
3132.12417	5046.5625
3134.47299	5047.2625
3136.82039	5055.7625
3139.16636	5061.5625
3141.51092	5044.6625
3143.85406	5053.5625
3146.19579	5066.8625
3148.53609	5062.9625
3150.87499	5053.0625
3153.21246	5064.6625
3155.54853	5088.3625
3157.88318	5080.7625
3160.21642	5073.7625
3162.54826	5074.9625
3164.87868	5091.2625
3167.2077	5061.5625
3169.5353	5076.4625
3171.86151	5062.9625
3174.18631	5074.0625
3176.5097	5061.0625
3178.83169	5053.7625
3181.15228	5081.7625
3183.47147	5049.9625
3185.78926	5062.7625
3188.10565	5059.4625
3190.42065	5055.3625
3192.73424	5056.1625
3195.04645	5054.7625
3197.35725	5055.2625
3199.66667	5066.1625
3201.97469	5064.3625
3204.28132	5073.9625
3206.58656	5079.0625
3208.8904	5088.1625
3211.19287	5089.0625
3213.49394	5079.8625
3215.79363	5071.7625
3218.09193	5089.1625
3220.38884	5074.8625
3222.68438	5042.2625
3224.97853	5073.4625
3227.2713	5075.3625
3229.56269	5085.1625
3231.8527	5098.0625
3234.14133	5079.1625
3236.42858	5075.8625
3238.71446	5073.3625
3240.99896	5053.7625
3243.28209	5069.1625
3245.56384	5049.7625
3247.84423	5065.0625
3250.12324	5048.3625
3252.40088	5038.9625
3254.67715	5041.9625
3256.95205	5026.8625
3259.22558	5035.7625
3261.49775	5017.7625
3263.76855	5021.2625
3266.03799	5003.3625
3268.30606	5024.3625
3270.57277	5009.5625
3272.83812	4988.3625
3275.10211	4986.0625
3277.36474	4974.6625
3279.62601	4979.5625
3281.88593	4965.7625
3284.14448	4979.8625
3286.40168	5000.8625
3288.65753	4990.3625
3290.91202	4964.5625
3293.16516	4967.4625
3295.41695	4947.5625
3297.66738	4937.7625
3299.91647	4886.0625
3302.16421	4880.7625
3304.4106	4856.0625
3306.65564	4831.2625
3308.89933	4789.5625
3311.14169	4763.6625
3313.38269	4710.8625
3315.62236	4696.3625
3317.86068	4648.1625
3320.09766	4627.3625
3322.3333	4592.4625
3324.5676	4582.6625
3326.80056	4452.2625
3329.03219	4450.6625
3331.26248	1.9625
3333.49143	-0.8375
3335.71905	0.8625
