Data from AgNPs_FTO_APTES_UA_50uM_CRN_1000uM_R6G_10uM_NaF_0.1M_Addition_RamanShift__6__17-33-13-579.txt Node

Date: Mon Feb 21 17:33:13 GMT 2022
User: TCL
Spectrometer: QEP01345
Trigger mode: 4
Integration Time (sec): 7.000000E0
Scans to average: 10
Electric dark correction enabled: true
Nonlinearity correction enabled: false
Boxcar width: 0
XAxis mode: Raman Shifts
Number of Pixels in Spectrum: 1044
>>>>>Begin Spectral Data<<<<<
46.04893	-0.2375
50.45542	-0.6375
54.85868	-0.3375
59.25871	-2.5375
63.6555	49.6625
68.04907	54.8625
72.43941	59.9625
76.82654	60.8625
81.21044	63.3625
85.59113	66.7625
89.96862	70.0625
94.34289	68.4625
98.71396	76.8625
103.08183	75.3625
107.4465	76.7625
111.80798	79.6625
116.16626	80.5625
120.52136	82.3625
124.87327	82.7625
129.222	89.7625
133.56755	89.7625
137.90993	94.7625
142.24913	96.9625
146.58517	107.8625
150.91804	119.1625
155.24774	140.9625
159.57429	170.9625
163.89768	212.4625
168.21792	276.7625
172.53501	376.7625
176.84895	520.3625
181.15975	734.2625
185.46741	1012.2625
189.77193	1399.4625
194.07331	1885.2625
198.37157	2445.6625
202.6667	3006.5625
206.9587	3594.7625
211.24758	4160.9625
215.53334	4732.5625
219.81599	5345.1625
224.09553	6006.2625
228.37195	6731.5625
232.64527	7543.4625
236.91549	8390.6625
241.18261	9207.8625
245.44663	9970.9625
249.70755	10629.3625
253.96539	11201.5625
258.22014	11666.8625
262.4718	12034.0625
266.72039	12290.7625
270.96589	12440.8625
275.20832	12440.1625
279.44768	12279.6625
283.68397	12107.9625
287.91719	11947.1625
292.14735	11846.8625
296.37445	11832.3625
300.59849	11883.6625
304.81948	11974.6625
309.03742	12024.8625
313.25231	12000.0625
317.46415	11820.7625
321.67296	11563.7625
325.87872	11312.6625
330.08145	11205.0625
334.28114	11190.4625
338.47781	11283.0625
342.67145	11408.7625
346.86207	11614.4625
351.04966	11845.5625
355.23424	12092.4625
359.4158	12340.8625
363.59435	12463.6625
367.76989	12569.7625
371.94243	12640.6625
376.11196	12696.0625
380.27849	12734.1625
384.44203	12799.2625
388.60257	12873.0625
392.76012	12951.3625
396.91468	13056.9625
401.06626	13205.2625
405.21485	13298.5625
409.36047	13196.1625
413.50311	12946.3625
417.64277	12761.1625
421.77947	12678.8625
425.9132	12685.1625
430.04396	12740.1625
434.17176	12796.6625
438.2966	12910.6625
442.41849	13062.1625
446.53742	13318.4625
450.6534	13577.4625
454.76644	13741.4625
458.87653	13798.8625
462.98368	13758.9625
467.08789	13686.3625
471.18916	13575.6625
475.2875	13398.9625
479.38291	13270.7625
483.4754	13152.6625
487.56496	13061.6625
491.6516	12967.7625
495.73531	12915.5625
499.81612	12865.2625
503.89401	12928.6625
507.96899	12988.6625
512.04106	13041.5625
516.11023	13054.6625
520.1765	13087.5625
524.23987	13084.2625
528.30034	12989.4625
532.35792	12924.2625
536.41261	12838.7625
540.46441	12720.6625
544.51333	12691.1625
548.55936	12731.6625
552.60252	12904.4625
556.64279	13111.7625
560.6802	13245.7625
564.71473	13283.6625
568.7464	13378.6625
572.7752	13581.2625
576.80114	13637.3625
580.82422	13714.1625
584.84444	13859.4625
588.86181	14131.5625
592.87633	14437.3625
596.888	14599.0625
600.89682	14456.3625
604.9028	14694.9625
608.90594	15924.2625
612.90624	17555.5625
616.90371	16943.6625
620.89834	14415.9625
624.89015	13174.1625
628.87913	12989.2625
632.86528	13104.5625
636.84862	13266.5625
640.82913	13212.8625
644.80683	12960.5625
648.78172	12749.6625
652.75379	12699.3625
656.72306	12823.4625
660.68952	12983.5625
664.65319	12951.4625
668.61405	12738.4625
672.57211	12710.9625
676.52738	12765.1625
680.47986	12809.0625
684.42955	12794.9625
688.37646	12698.6625
692.32058	12651.3625
696.26192	12695.8625
700.20048	12744.3625
704.13626	12807.0625
708.06928	12780.9625
711.99952	12760.8625
715.927	12727.7625
719.85171	12733.8625
723.77365	12768.7625
727.69284	12684.6625
731.60928	12612.1625
735.52295	12574.4625
739.43388	12586.5625
743.34206	12591.3625
747.24749	12622.9625
751.15017	12672.2625
755.05012	12760.1625
758.94733	13008.2625
762.8418	13521.3625
766.73354	14491.0625
770.62254	15468.6625
774.50882	15887.0625
778.39237	15429.5625
782.27321	14396.9625
786.15132	13498.7625
790.02671	12872.1625
793.89938	12618.5625
797.76935	12474.0625
801.6366	12386.2625
805.50115	12371.8625
809.36299	12334.2625
813.22213	12296.0625
817.07857	12277.7625
820.93231	12213.0625
824.78336	12196.9625
828.63172	12177.1625
832.47738	12144.1625
836.32036	12115.4625
840.16066	12090.3625
843.99827	12067.9625
847.8332	12070.0625
851.66546	12080.2625
855.49504	12111.2625
859.32195	12098.6625
863.1462	12092.6625
866.96777	12103.2625
870.78668	12090.8625
874.60293	12120.0625
878.41652	12144.3625
882.22745	12165.0625
886.03573	12211.4625
889.84136	12215.8625
893.64433	12157.6625
897.44466	12114.7625
901.24235	12075.8625
905.0374	12013.4625
908.8298	11974.3625
912.61957	11909.4625
916.40671	11961.7625
920.19121	12016.7625
923.97308	12090.1625
927.75233	12085.1625
931.52895	12095.5625
935.30295	11986.8625
939.07433	11809.1625
942.84309	11703.8625
946.60924	11592.5625
950.37278	11536.5625
954.13371	11531.2625
957.89203	11494.9625
961.64774	11492.6625
965.40086	11454.5625
969.15137	11411.1625
972.89929	11385.2625
976.64461	11361.0625
980.38733	11328.3625
984.12747	11357.9625
987.86502	11356.6625
991.59999	11373.2625
995.33237	11433.8625
999.06217	11517.8625
1002.78939	11635.2625
1006.51404	11775.9625
1010.23611	11935.2625
1013.95561	12044.6625
1017.67255	12078.8625
1021.38692	12040.2625
1025.09872	11909.5625
1028.80796	11773.7625
1032.51465	11688.0625
1036.21877	11661.3625
1039.92035	11695.4625
1043.61937	11747.7625
1047.31584	11793.8625
1051.00976	11829.6625
1054.70114	11836.8625
1058.38998	11872.0625
1062.07627	11908.3625
1065.76003	11954.8625
1069.44126	12056.6625
1073.11995	12122.1625
1076.79611	12231.7625
1080.46974	12293.2625
1084.14085	12365.3625
1087.80943	12430.8625
1091.47549	12537.1625
1095.13903	12509.7625
1098.80005	12380.5625
1102.45857	12219.2625
1106.11456	12101.2625
1109.76805	12025.2625
1113.41903	12117.2625
1117.06751	12273.1625
1120.71348	12454.7625
1124.35696	12706.7625
1127.99793	12914.9625
1131.63641	13042.7625
1135.2724	12891.9625
1138.90589	12713.9625
1142.5369	12560.9625
1146.16542	12448.9625
1149.79145	12413.8625
1153.415	12424.3625
1157.03607	12439.1625
1160.65467	12615.1625
1164.27079	12904.3625
1167.88443	13341.7625
1171.49561	13886.8625
1175.10432	14670.1625
1178.71056	15697.5625
1182.31434	16634.1625
1185.91565	17106.5625
1189.51451	17050.3625
1193.11091	16603.2625
1196.70485	16054.8625
1200.29634	15501.0625
1203.88538	15002.5625
1207.47197	14533.9625
1211.05612	14069.6625
1214.63782	13780.0625
1218.21708	13547.2625
1221.79391	13458.4625
1225.36829	13380.9625
1228.94024	13354.1625
1232.50976	13317.2625
1236.07685	13268.6625
1239.6415	13201.5625
1243.20374	13132.0625
1246.76355	13184.0625
1250.32093	13238.3625
1253.8759	13339.7625
1257.42845	13575.2625
1260.97859	13797.6625
1264.52631	14054.9625
1268.07163	14297.3625
1271.61453	14496.4625
1275.15503	14732.0625
1278.69312	14919.8625
1282.22882	15095.2625
1285.76211	15381.3625
1289.29301	15763.4625
1292.82151	16265.2625
1296.34761	16791.5625
1299.87133	17513.0625
1303.39266	18304.3625
1306.9116	19248.7625
1310.42815	20228.0625
1313.94233	20830.8625
1317.45412	20670.6625
1320.96354	19958.3625
1324.47058	19224.9625
1327.97525	18537.1625
1331.47754	18040.2625
1334.97747	17750.1625
1338.47502	17709.5625
1341.97022	17886.6625
1345.46305	18194.1625
1348.95352	18660.8625
1352.44163	19313.4625
1355.92738	20232.1625
1359.41078	21442.7625
1362.89183	22632.3625
1366.37053	22371.3625
1369.84688	20359.4625
1373.32088	17940.7625
1376.79254	16349.3625
1380.26186	15624.9625
1383.72883	15319.3625
1387.19347	15090.1625
1390.65578	14819.1625
1394.11575	14635.0625
1397.57339	14529.4625
1401.0287	14506.6625
1404.48168	14488.3625
1407.93234	14457.4625
1411.38068	14305.7625
1414.82669	14114.5625
1418.27039	13897.5625
1421.71177	13647.3625
1425.15083	13407.4625
1428.58758	13251.7625
1432.02203	13244.6625
1435.45416	13332.9625
1438.88399	13485.4625
1442.31151	13590.3625
1445.73673	13650.1625
1449.15965	13710.0625
1452.58027	13703.1625
1455.9986	13710.7625
1459.41463	13757.5625
1462.82837	13906.2625
1466.23982	14098.8625
1469.64898	14292.9625
1473.05586	14441.2625
1476.46045	14517.1625
1479.86276	14593.5625
1483.26279	14600.9625
1486.66054	14711.3625
1490.05602	14899.3625
1493.44922	15228.2625
1496.84016	15735.6625
1500.22882	16540.4625
1503.61521	17661.2625
1506.99934	18866.6625
1510.38121	19787.0625
1513.76081	19883.5625
1517.13816	19062.6625
1520.51324	17760.2625
1523.88607	16618.5625
1527.25665	15958.6625
1530.62498	15638.3625
1533.99105	15404.5625
1537.35488	15218.0625
1540.71647	14955.5625
1544.07581	14702.6625
1547.4329	14446.2625
1550.78776	14244.8625
1554.14038	14121.8625
1557.49077	14086.2625
1560.83892	14114.0625
1564.18484	14248.0625
1567.52853	14426.9625
1570.86999	14654.6625
1574.20922	14864.1625
1577.54624	14988.0625
1580.88103	14745.7625
1584.2136	14357.8625
1587.54395	14155.9625
1590.87208	14297.1625
1594.19801	14747.2625
1597.52172	15332.4625
1600.84321	15657.9625
1604.16251	15380.1625
1607.47959	14779.7625
1610.79447	14013.1625
1614.10715	13251.0625
1617.41763	12604.9625
1620.7259	12157.7625
1624.03199	11866.6625
1627.33587	11801.5625
1630.63757	11925.0625
1633.93707	12320.9625
1637.23439	12990.5625
1640.52951	14110.3625
1643.82246	15548.1625
1647.11321	16906.7625
1650.40179	17533.8625
1653.68819	16866.2625
1656.97241	15196.6625
1660.25446	13457.4625
1663.53433	12186.9625
1666.81203	11396.7625
1670.08756	10889.8625
1673.36092	10614.7625
1676.63211	10390.8625
1679.90115	10278.0625
1683.16801	10162.8625
1686.43272	10050.8625
1689.69527	9939.0625
1692.95567	9859.7625
1696.2139	9788.4625
1699.46999	9694.3625
1702.72392	9660.7625
1705.97571	9665.8625
1709.22535	9616.4625
1712.47284	9611.6625
1715.71819	9590.1625
1718.96139	9582.6625
1722.20246	9551.6625
1725.44139	9499.1625
1728.67818	9436.7625
1731.91284	9398.5625
1735.14537	9350.2625
1738.37576	9303.6625
1741.60403	9256.7625
1744.83017	9228.0625
1748.05418	9237.7625
1751.27607	9216.3625
1754.49584	9220.8625
1757.71349	9196.9625
1760.92903	9192.3625
1764.14244	9152.5625
1767.35375	9136.1625
1770.56294	9116.0625
1773.77002	9099.0625
1776.97499	9041.9625
1780.17785	9029.1625
1783.37861	9012.0625
1786.57727	8984.4625
1789.77382	8931.3625
1792.96828	8933.9625
1796.16064	8900.8625
1799.3509	8886.4625
1802.53907	8844.7625
1805.72514	8849.1625
1808.90913	8803.8625
1812.09102	8783.3625
1815.27083	8751.7625
1818.44856	8738.3625
1821.6242	8714.5625
1824.79776	8718.6625
1827.96924	8687.5625
1831.13864	8660.3625
1834.30597	8674.9625
1837.47122	8668.4625
1840.6344	8662.0625
1843.7955	8638.3625
1846.95454	8612.9625
1850.11151	8624.4625
1853.26642	8613.1625
1856.41926	8581.0625
1859.57004	8598.8625
1862.71876	8569.9625
1865.86542	8557.8625
1869.01003	8546.0625
1872.15258	8536.7625
1875.29308	8544.6625
1878.43152	8513.0625
1881.56792	8509.6625
1884.70227	8473.0625
1887.83457	8470.9625
1890.96482	8489.4625
1894.09304	8465.9625
1897.21921	8446.2625
1900.34335	8439.2625
1903.46544	8438.8625
1906.58551	8417.8625
1909.70353	8401.9625
1912.81953	8367.6625
1915.93349	8367.5625
1919.04543	8336.1625
1922.15534	8311.4625
1925.26322	8269.9625
1928.36908	8275.3625
1931.47292	8243.2625
1934.57473	8235.8625
1937.67453	8216.2625
1940.77232	8208.7625
1943.86808	8170.6625
1946.96184	8160.6625
1950.05358	8122.5625
1953.14331	8098.5625
1956.23103	8085.9625
1959.31675	8057.8625
1962.40046	8043.9625
1965.48217	7983.7625
1968.56188	8001.4625
1971.63959	7948.2625
1974.7153	7925.9625
1977.78901	7898.5625
1980.86073	7871.7625
1983.93046	7871.2625
1986.99819	7815.1625
1990.06394	7805.2625
1993.1277	7791.5625
1996.18947	7764.7625
1999.24925	7747.5625
2002.30706	7707.0625
2005.36288	7673.0625
2008.41672	7656.9625
2011.46859	7626.0625
2014.51848	7600.1625
2017.56639	7564.1625
2020.61233	7546.7625
2023.6563	7533.6625
2026.6983	7516.8625
2029.73833	7479.1625
2032.7764	7462.4625
2035.8125	7449.1625
2038.84664	7432.6625
2041.87881	7409.1625
2044.90903	7393.2625
2047.93729	7373.2625
2050.96359	7370.7625
2053.98794	7359.1625
2057.01034	7348.6625
2060.03078	7342.7625
2063.04927	7323.6625
2066.06582	7329.5625
2069.08042	7330.1625
2072.09307	7303.9625
2075.10378	7283.5625
2078.11255	7295.7625
2081.11938	7291.5625
2084.12426	7269.5625
2087.12722	7266.3625
2090.12824	7255.7625
2093.12732	7282.7625
2096.12447	7278.7625
2099.11969	7261.8625
2102.11299	7256.0625
2105.10435	7260.2625
2108.09379	7272.2625
2111.08131	7257.0625
2114.0669	7262.0625
2117.05057	7273.1625
2120.03233	7260.2625
2123.01216	7274.7625
2125.99008	7283.5625
2128.96609	7301.6625
2131.94018	7304.1625
2134.91236	7286.6625
2137.88263	7287.5625
2140.851	7270.0625
2143.81746	7300.6625
2146.78201	7269.4625
2149.74466	7283.0625
2152.7054	7286.7625
2155.66425	7264.8625
2158.6212	7242.4625
2161.57625	7247.5625
2164.52941	7247.9625
2167.48067	7248.6625
2170.43004	7230.1625
2173.37752	7229.4625
2176.32311	7235.9625
2179.26681	7212.8625
2182.20863	7214.1625
2185.14856	7220.7625
2188.08661	7221.7625
2191.02278	7215.4625
2193.95707	7214.2625
2196.88948	7212.5625
2199.82001	7200.2625
2202.74867	7173.6625
2205.67545	7193.4625
2208.60037	7169.2625
2211.52341	7154.1625
2214.44458	7111.8625
2217.36388	7103.7625
2220.28132	7094.4625
2223.1969	7075.6625
2226.11061	7071.0625
2229.02246	7051.2625
2231.93245	7035.1625
2234.84058	7024.0625
2237.74686	7022.5625
2240.65128	7000.8625
2243.55385	6985.4625
2246.45456	6980.5625
2249.35343	6941.0625
2252.25044	6951.6625
2255.14561	6939.1625
2258.03893	6962.9625
2260.93041	6920.1625
2263.82004	6921.5625
2266.70783	6911.1625
2269.59378	6858.6625
2272.4779	6856.9625
2275.36017	6840.0625
2278.24061	6824.9625
2281.11922	6809.6625
2283.996	6780.0625
2286.87094	6769.3625
2289.74405	6777.5625
2292.61534	6738.0625
2295.4848	6749.7625
2298.35243	6747.0625
2301.21824	6718.7625
2304.08223	6713.8625
2306.94439	6704.4625
2309.80474	6696.6625
2312.66327	6675.9625
2315.51999	6665.6625
2318.37489	6661.1625
2321.22797	6652.3625
2324.07925	6645.8625
2326.92871	6626.5625
2329.77637	6624.4625
2332.62222	6626.1625
2335.46626	6608.0625
2338.3085	6568.4625
2341.14893	6577.1625
2343.98756	6570.3625
2346.8244	6558.1625
2349.65943	6560.9625
2352.49267	6561.7625
2355.32411	6562.9625
2358.15376	6551.7625
2360.98161	6564.0625
2363.80768	6548.7625
2366.63195	6563.8625
2369.45444	6533.9625
2372.27514	6538.4625
2375.09405	6517.8625
2377.91118	6506.9625
2380.72652	6496.4625
2383.54009	6453.4625
2386.35187	6454.7625
2389.16188	6419.7625
2391.97011	6439.7625
2394.77657	6405.4625
2397.58125	6393.5625
2400.38416	6354.4625
2403.18529	6339.9625
2405.98466	6339.3625
2408.78226	6359.9625
2411.57809	6315.4625
2414.37216	6309.4625
2417.16446	6325.1625
2419.955	6282.6625
2422.74378	6296.6625
2425.5308	6273.3625
2428.31606	6285.5625
2431.09956	6268.7625
2433.88131	6260.0625
2436.6613	6253.4625
2439.43954	6261.1625
2442.21603	6240.6625
2444.99077	6246.5625
2447.76377	6217.6625
2450.53501	6236.2625
2453.30451	6222.3625
2456.07226	6239.9625
2458.83827	6212.2625
2461.60254	6204.4625
2464.36507	6208.5625
2467.12586	6184.9625
2469.88492	6186.2625
2472.64224	6190.5625
2475.39782	6161.5625
2478.15167	6165.0625
2480.90379	6182.7625
2483.65417	6172.9625
2486.40283	6165.1625
2489.14976	6160.5625
2491.89497	6167.1625
2494.63845	6157.6625
2497.3802	6148.9625
2500.12024	6166.3625
2502.85855	6134.8625
2505.59514	6133.2625
2508.33002	6111.6625
2511.06318	6100.5625
2513.79462	6081.5625
2516.52435	6077.8625
2519.25237	6061.4625
2521.97867	6053.3625
2524.70327	6043.9625
2527.42616	6021.8625
2530.14734	6022.4625
2532.86681	6019.2625
2535.58458	6009.7625
2538.30065	6010.3625
2541.01501	6004.4625
2543.72768	5993.8625
2546.43864	5977.8625
2549.14791	5958.9625
2551.85548	5946.2625
2554.56136	5941.2625
2557.26554	5937.0625
2559.96803	5915.9625
2562.66883	5908.0625
2565.36794	5905.7625
2568.06536	5882.4625
2570.7611	5888.1625
2573.45514	5860.6625
2576.14751	5871.2625
2578.83819	5850.7625
2581.52719	5841.0625
2584.21451	5833.1625
2586.90015	5811.7625
2589.58411	5810.7625
2592.2664	5800.0625
2594.94701	5772.9625
2597.62594	5773.1625
2600.30321	5766.8625
2602.9788	5742.8625
2605.65273	5740.3625
2608.32498	5750.7625
2610.99557	5730.4625
2613.66449	5724.3625
2616.33175	5729.7625
2618.99734	5718.0625
2621.66128	5703.0625
2624.32355	5698.5625
2626.98416	5666.7625
2629.64311	5665.5625
2632.30041	5663.2625
2634.95605	5642.4625
2637.61004	5652.8625
2640.26238	5627.5625
2642.91306	5631.5625
2645.56209	5633.5625
2648.20948	5633.5625
2650.85521	5607.3625
2653.4993	5598.8625
2656.14175	5609.2625
2658.78255	5607.9625
2661.42171	5606.5625
2664.05923	5627.2625
2666.6951	5612.2625
2669.32934	5613.4625
2671.96194	5613.5625
2674.59291	5601.9625
2677.22224	5611.4625
2679.84993	5590.0625
2682.476	5596.6625
2685.10043	5602.8625
2687.72324	5607.3625
2690.34441	5581.1625
2692.96396	5581.5625
2695.58188	5593.8625
2698.19818	5590.8625
2700.81285	5597.2625
2703.4259	5587.7625
2706.03733	5567.7625
2708.64714	5586.6625
2711.25533	5583.9625
2713.86191	5568.1625
2716.46687	5590.4625
2719.07021	5574.5625
2721.67194	5583.6625
2724.27206	5587.6625
2726.87057	5595.0625
2729.46747	5579.1625
2732.06276	5588.0625
2734.65644	5576.0625
2737.24852	5592.0625
2739.83899	5560.5625
2742.42786	5560.2625
2745.01513	5542.0625
2747.60079	5540.2625
2750.18486	5539.6625
2752.76733	5527.1625
2755.3482	5514.9625
2757.92747	5506.1625
2760.50515	5508.1625
2763.08123	5494.1625
2765.65573	5480.4625
2768.22863	5463.8625
2770.79994	5469.4625
2773.36967	5456.6625
2775.9378	5439.4625
2778.50435	5454.5625
2781.06932	5437.7625
2783.6327	5438.4625
2786.1945	5416.0625
2788.75471	5425.5625
2791.31335	5409.7625
2793.87041	5396.2625
2796.42589	5388.0625
2798.97979	5375.7625
2801.53212	5361.5625
2804.08288	5348.5625
2806.63206	5339.2625
2809.17967	5330.5625
2811.72571	5313.0625
2814.27018	5296.8625
2816.81308	5305.7625
2819.35442	5306.7625
2821.89419	5288.8625
2824.43239	5286.3625
2826.96904	5298.7625
2829.50412	5290.3625
2832.03763	5305.4625
2834.56959	5292.0625
2837.1	5268.9625
2839.62884	5272.5625
2842.15613	5286.4625
2844.68186	5314.7625
2847.20604	5309.7625
2849.72867	5327.5625
2852.24974	5334.5625
2854.76927	5316.2625
2857.28724	5319.0625
2859.80367	5309.9625
2862.31855	5287.1625
2864.83189	5284.7625
2867.34368	5286.7625
2869.85393	5286.5625
2872.36264	5272.1625
2874.8698	5277.5625
2877.37543	5259.0625
2879.87952	5251.6625
2882.38207	5264.7625
2884.88308	5259.4625
2887.38256	5258.3625
2889.88051	5256.9625
2892.37692	5252.6625
2894.8718	5248.7625
2897.36515	5263.2625
2899.85698	5249.9625
2902.34727	5289.0625
2904.83604	5289.5625
2907.32328	5301.1625
2909.809	5287.7625
2912.29319	5290.5625
2914.77587	5302.8625
2917.25702	5308.9625
2919.73665	5287.5625
2922.21476	5290.4625
2924.69136	5308.7625
2927.16644	5285.5625
2929.64	5281.2625
2932.11205	5297.5625
2934.58258	5269.9625
2937.05161	5290.8625
2939.51912	5281.0625
2941.98513	5247.5625
2944.44962	5247.8625
2946.91261	5218.4625
2949.37409	5233.6625
2951.83407	5222.0625
2954.29254	5211.4625
2956.74951	5198.6625
2959.20498	5188.1625
2961.65895	5185.3625
2964.11142	5175.2625
2966.56239	5139.8625
2969.01186	5138.5625
2971.45984	5114.9625
2973.90632	5116.8625
2976.35131	5097.1625
2978.7948	5096.1625
2981.23681	5059.1625
2983.67732	5053.0625
2986.11635	5053.4625
2988.55388	5028.4625
2990.98993	5031.9625
2993.4245	5018.4625
2995.85758	4994.4625
2998.28917	5003.1625
3000.71928	4976.5625
3003.14791	4979.0625
3005.57506	4979.2625
3008.00073	4955.2625
3010.42493	4940.8625
3012.84764	4932.1625
3015.26888	4935.7625
3017.68865	4939.9625
3020.10694	4919.0625
3022.52376	4918.4625
3024.9391	4896.7625
3027.35298	4891.8625
3029.76539	4883.7625
3032.17632	4864.0625
3034.5858	4852.5625
3036.9938	4861.6625
3039.40034	4851.9625
3041.80542	4845.7625
3044.20903	4831.0625
3046.61118	4840.2625
3049.01187	4816.0625
3051.4111	4821.8625
3053.80888	4811.9625
3056.20519	4826.4625
3058.60005	4816.0625
3060.99345	4801.7625
3063.3854	4770.3625
3065.7759	4773.2625
3068.16494	4773.2625
3070.55254	4754.5625
3072.93868	4745.9625
3075.32338	4725.8625
3077.70662	4719.6625
3080.08842	4697.0625
3082.46878	4703.2625
3084.84769	4716.9625
3087.22515	4704.3625
3089.60118	4694.5625
3091.97576	4698.8625
3094.3489	4711.7625
3096.72061	4710.7625
3099.09087	4710.0625
3101.4597	4699.1625
3103.82709	4710.7625
3106.19305	4692.3625
3108.55757	4713.5625
3110.92066	4675.2625
3113.28232	4684.7625
3115.64255	4686.5625
3118.00134	4666.5625
3120.35871	4668.5625
3122.71466	4636.2625
3125.06917	4659.1625
3127.42226	4644.6625
3129.77393	4632.9625
3132.12417	4644.8625
3134.47299	4649.5625
3136.82039	4666.3625
3139.16636	4661.9625
3141.51092	4663.9625
3143.85406	4656.5625
3146.19579	4661.9625
3148.53609	4652.5625
3150.87499	4663.1625
3153.21246	4676.0625
3155.54853	4686.3625
3157.88318	4679.5625
3160.21642	4696.9625
3162.54826	4681.3625
3164.87868	4695.3625
3167.2077	4695.5625
3169.5353	4687.1625
3171.86151	4689.9625
3174.18631	4683.6625
3176.5097	4681.9625
3178.83169	4673.3625
3181.15228	4686.0625
3183.47147	4664.0625
3185.78926	4670.5625
3188.10565	4677.6625
3190.42065	4652.3625
3192.73424	4660.7625
3195.04645	4661.4625
3197.35725	4663.0625
3199.66667	4679.7625
3201.97469	4681.6625
3204.28132	4692.5625
3206.58656	4702.3625
3208.8904	4680.7625
3211.19287	4685.0625
3213.49394	4678.3625
3215.79363	4677.4625
3218.09193	4692.6625
3220.38884	4694.2625
3222.68438	4702.2625
3224.97853	4709.5625
3227.2713	4685.6625
3229.56269	4673.7625
3231.8527	4686.9625
3234.14133	4674.1625
3236.42858	4663.4625
3238.71446	4660.7625
3240.99896	4632.8625
3243.28209	4635.7625
3245.56384	4645.6625
3247.84423	4622.5625
3250.12324	4635.1625
3252.40088	4627.5625
3254.67715	4627.0625
3256.95205	4599.5625
3259.22558	4609.9625
3261.49775	4615.6625
3263.76855	4602.1625
3266.03799	4596.9625
3268.30606	4592.2625
3270.57277	4580.1625
3272.83812	4574.1625
3275.10211	4567.4625
3277.36474	4573.0625
3279.62601	4546.8625
3281.88593	4561.3625
3284.14448	4562.3625
3286.40168	4546.0625
3288.65753	4560.8625
3290.91202	4539.3625
3293.16516	4541.5625
3295.41695	4532.3625
3297.66738	4494.7625
3299.91647	4490.4625
3302.16421	4466.4625
3304.4106	4434.5625
3306.65564	4412.5625
3308.89933	4384.6625
3311.14169	4351.9625
3313.38269	4323.0625
3315.62236	4292.5625
3317.86068	4251.6625
3320.09766	4233.3625
3322.3333	4217.0625
3324.5676	4187.2625
3326.80056	4130.9625
3329.03219	4083.6625
3331.26248	2.2625
3333.49143	-0.5375
3335.71905	1.4625
