Data from AgNPs_FTO_APTES_UA_50uM_CRN_100uM_R6G_10uM_NaF_0.1M_Addition_RamanShift__28__15-48-35-053.txt Node

Date: Mon Feb 21 15:48:35 GMT 2022
User: TCL
Spectrometer: QEP01345
Trigger mode: 4
Integration Time (sec): 7.000000E0
Scans to average: 10
Electric dark correction enabled: true
Nonlinearity correction enabled: false
Boxcar width: 0
XAxis mode: Raman Shifts
Number of Pixels in Spectrum: 1044
>>>>>Begin Spectral Data<<<<<
46.04893	0.9625
50.45542	-0.8375
54.85868	-1.0375
59.25871	-0.6375
63.6555	46.4625
68.04907	47.9625
72.43941	47.5625
76.82654	52.4625
81.21044	55.1625
85.59113	57.6625
89.96862	56.2625
94.34289	61.8625
98.71396	58.1625
103.08183	65.8625
107.4465	66.5625
111.80798	67.2625
116.16626	67.4625
120.52136	66.8625
124.87327	73.4625
129.222	70.9625
133.56755	74.5625
137.90993	79.1625
142.24913	85.0625
146.58517	90.6625
150.91804	103.4625
155.24774	119.9625
159.57429	147.3625
163.89768	183.0625
168.21792	242.2625
172.53501	325.5625
176.84895	446.8625
181.15975	616.6625
185.46741	869.6625
189.77193	1194.7625
194.07331	1601.6625
198.37157	2066.6625
202.6667	2546.9625
206.9587	3041.6625
211.24758	3532.2625
215.53334	4058.7625
219.81599	4645.7625
224.09553	5333.0625
228.37195	6085.0625
232.64527	6936.4625
236.91549	7734.4625
241.18261	8471.4625
245.44663	9084.0625
249.70755	9559.0625
253.96539	9953.0625
258.22014	10227.6625
262.4718	10424.5625
266.72039	10533.8625
270.96589	10597.7625
275.20832	10457.3625
279.44768	10246.2625
283.68397	10011.5625
287.91719	9874.0625
292.14735	9945.8625
296.37445	10262.2625
300.59849	10876.4625
304.81948	11584.3625
309.03742	12157.3625
313.25231	12152.6625
317.46415	11440.0625
321.67296	10342.4625
325.87872	9463.7625
330.08145	9065.7625
334.28114	9085.9625
338.47781	9334.3625
342.67145	9658.6625
346.86207	10221.3625
351.04966	11056.1625
355.23424	11998.0625
359.4158	12672.1625
363.59435	12953.8625
367.76989	13021.1625
371.94243	12920.7625
376.11196	12784.4625
380.27849	12682.7625
384.44203	12429.9625
388.60257	12163.8625
392.76012	11974.6625
396.91468	12031.1625
401.06626	12367.8625
405.21485	12632.0625
409.36047	12304.2625
413.50311	11432.0625
417.64277	10588.8625
421.77947	10087.9625
425.9132	9872.2625
430.04396	9821.9625
434.17176	9858.0625
438.2966	10032.4625
442.41849	10343.5625
446.53742	10664.2625
450.6534	10968.9625
454.76644	11168.0625
458.87653	11134.1625
462.98368	11007.6625
467.08789	10795.3625
471.18916	10513.4625
475.2875	10215.7625
479.38291	9948.9625
483.4754	9802.1625
487.56496	9672.6625
491.6516	9580.0625
495.73531	9567.5625
499.81612	9651.8625
503.89401	9788.2625
507.96899	9989.9625
512.04106	10288.7625
516.11023	10576.8625
520.1765	10772.6625
524.23987	10756.9625
528.30034	10499.0625
532.35792	10260.2625
536.41261	9986.2625
540.46441	9660.0625
544.51333	9497.2625
548.55936	9543.5625
552.60252	9801.5625
556.64279	10072.7625
560.6802	10223.8625
564.71473	10471.9625
568.7464	11049.5625
572.7752	11300.5625
576.80114	10773.1625
580.82422	10139.4625
584.84444	9912.0625
588.86181	9868.3625
592.87633	9936.7625
596.888	10126.0625
600.89682	10613.2625
604.9028	12315.5625
608.90594	16950.8625
612.90624	23215.6625
616.90371	22136.4625
620.89834	14512.5625
624.89015	11042.3625
628.87913	10410.8625
632.86528	10502.7625
636.84862	10732.5625
640.82913	10540.5625
644.80683	9904.5625
648.78172	9520.4625
652.75379	9560.8625
656.72306	10101.3625
660.68952	10753.8625
664.65319	10573.3625
668.61405	9854.8625
672.57211	9475.9625
676.52738	9496.7625
680.47986	9511.5625
684.42955	9416.3625
688.37646	9362.3625
692.32058	9387.8625
696.26192	9454.5625
700.20048	9575.5625
704.13626	9667.3625
708.06928	9611.8625
711.99952	9510.9625
715.927	9516.2625
719.85171	9577.8625
723.77365	9639.7625
727.69284	9554.4625
731.60928	9475.7625
735.52295	9478.5625
739.43388	9535.9625
743.34206	9574.7625
747.24749	9630.6625
751.15017	9684.0625
755.05012	9903.1625
758.94733	10542.8625
762.8418	11971.2625
766.73354	14447.0625
770.62254	16979.1625
774.50882	18497.9625
778.39237	17877.3625
782.27321	15044.1625
786.15132	12245.8625
790.02671	10687.6625
793.89938	10016.6625
797.76935	9760.1625
801.6366	9647.8625
805.50115	9611.1625
809.36299	9588.7625
813.22213	9566.5625
817.07857	9550.0625
820.93231	9516.7625
824.78336	9521.4625
828.63172	9569.1625
832.47738	9606.4625
836.32036	9571.8625
840.16066	9539.3625
843.99827	9502.9625
847.8332	9453.9625
851.66546	9428.4625
855.49504	9431.8625
859.32195	9439.0625
863.1462	9395.4625
866.96777	9360.3625
870.78668	9358.5625
874.60293	9398.4625
878.41652	9468.9625
882.22745	9577.6625
886.03573	9649.5625
889.84136	9608.0625
893.64433	9538.2625
897.44466	9544.5625
901.24235	9536.0625
905.0374	9457.2625
908.8298	9399.0625
912.61957	9359.6625
916.40671	9360.6625
920.19121	9421.4625
923.97308	9542.3625
927.75233	9733.8625
931.52895	9925.5625
935.30295	9829.5625
939.07433	9474.1625
942.84309	9164.5625
946.60924	9034.9625
950.37278	8952.9625
954.13371	8885.8625
957.89203	8857.2625
961.64774	8819.5625
965.40086	8788.8625
969.15137	8785.8625
972.89929	8778.4625
976.64461	8762.9625
980.38733	8770.1625
984.12747	8804.9625
987.86502	8848.9625
991.59999	8911.6625
995.33237	9059.1625
999.06217	9269.2625
1002.78939	9542.9625
1006.51404	9747.4625
1010.23611	9955.0625
1013.95561	10108.3625
1017.67255	10126.8625
1021.38692	10016.1625
1025.09872	9857.0625
1028.80796	9834.9625
1032.51465	9984.5625
1036.21877	10175.2625
1039.92035	10263.2625
1043.61937	10218.3625
1047.31584	10095.4625
1051.00976	9958.2625
1054.70114	9871.3625
1058.38998	9817.1625
1062.07627	9826.9625
1065.76003	9865.8625
1069.44126	9889.6625
1073.11995	9974.8625
1076.79611	10112.0625
1080.46974	10418.1625
1084.14085	10801.5625
1087.80943	11147.1625
1091.47549	11235.6625
1095.13903	10952.4625
1098.80005	10507.8625
1102.45857	10181.0625
1106.11456	10103.0625
1109.76805	10283.0625
1113.41903	10670.6625
1117.06751	11238.5625
1120.71348	11957.6625
1124.35696	12762.7625
1127.99793	13250.9625
1131.63641	12923.7625
1135.2724	12025.6625
1138.90589	11268.2625
1142.5369	10814.7625
1146.16542	10498.3625
1149.79145	10304.4625
1153.415	10284.5625
1157.03607	10338.7625
1160.65467	10549.7625
1164.27079	10936.9625
1167.88443	11566.3625
1171.49561	12603.7625
1175.10432	14417.3625
1178.71056	16851.7625
1182.31434	18560.6625
1185.91565	18811.0625
1189.51451	18027.5625
1193.11091	16552.8625
1196.70485	15047.7625
1200.29634	14110.0625
1203.88538	13423.1625
1207.47197	12481.0625
1211.05612	11676.9625
1214.63782	11223.6625
1218.21708	11033.5625
1221.79391	11036.6625
1225.36829	11078.0625
1228.94024	11101.7625
1232.50976	11068.6625
1236.07685	11070.7625
1239.6415	11106.3625
1243.20374	11233.0625
1246.76355	11364.0625
1250.32093	11510.1625
1253.8759	11777.9625
1257.42845	12173.6625
1260.97859	12585.6625
1264.52631	12974.3625
1268.07163	13343.5625
1271.61453	13739.8625
1275.15503	14064.5625
1278.69312	14161.6625
1282.22882	14299.7625
1285.76211	14672.8625
1289.29301	15178.0625
1292.82151	15650.1625
1296.34761	16238.1625
1299.87133	17265.6625
1303.39266	19188.1625
1306.9116	22100.8625
1310.42815	25059.4625
1313.94233	26033.1625
1317.45412	24409.3625
1320.96354	21732.8625
1324.47058	19114.1625
1327.97525	17180.9625
1331.47754	16191.0625
1334.97747	16029.2625
1338.47502	16381.5625
1341.97022	17329.4625
1345.46305	18664.0625
1348.95352	20348.9625
1352.44163	22341.0625
1355.92738	25452.9625
1359.41078	30112.5625
1362.89183	33614.3625
1366.37053	31268.9625
1369.84688	25402.7625
1373.32088	20431.6625
1376.79254	17350.1625
1380.26186	15633.9625
1383.72883	14639.1625
1387.19347	13944.4625
1390.65578	13264.2625
1394.11575	12751.6625
1397.57339	12499.6625
1401.0287	12525.9625
1404.48168	12614.8625
1407.93234	12809.9625
1411.38068	13056.3625
1414.82669	13242.9625
1418.27039	13228.1625
1421.71177	13084.5625
1425.15083	12907.8625
1428.58758	12845.0625
1432.02203	12985.4625
1435.45416	13083.2625
1438.88399	13052.7625
1442.31151	12970.4625
1445.73673	13016.9625
1449.15965	13041.5625
1452.58027	12983.3625
1455.9986	12846.9625
1459.41463	12798.8625
1462.82837	12909.4625
1466.23982	13232.8625
1469.64898	13524.9625
1473.05586	13729.7625
1476.46045	13891.7625
1479.86276	14175.9625
1483.26279	14606.1625
1486.66054	15118.0625
1490.05602	15879.9625
1493.44922	17014.9625
1496.84016	18767.9625
1500.22882	21507.7625
1503.61521	25119.3625
1506.99934	29119.6625
1510.38121	32165.9625
1513.76081	32521.8625
1517.13816	29471.6625
1520.51324	24637.2625
1523.88607	20441.8625
1527.25665	17825.1625
1530.62498	16340.9625
1533.99105	15471.0625
1537.35488	14962.2625
1540.71647	14753.9625
1544.07581	14804.8625
1547.4329	14872.1625
1550.78776	14984.3625
1554.14038	15096.6625
1557.49077	15281.7625
1560.83892	15612.9625
1564.18484	16184.8625
1567.52853	16860.6625
1570.86999	17404.2625
1574.20922	17613.6625
1577.54624	17339.1625
1580.88103	16183.5625
1584.2136	14746.0625
1587.54395	13936.4625
1590.87208	14041.5625
1594.19801	14863.9625
1597.52172	16066.8625
1600.84321	16619.7625
1604.16251	16092.1625
1607.47959	15109.2625
1610.79447	13996.4625
1614.10715	12938.9625
1617.41763	12101.5625
1620.7259	11600.2625
1624.03199	11387.1625
1627.33587	11462.7625
1630.63757	11728.8625
1633.93707	12341.7625
1637.23439	13294.9625
1640.52951	14730.4625
1643.82246	16832.1625
1647.11321	19354.3625
1650.40179	21101.2625
1653.68819	20196.6625
1656.97241	17125.2625
1660.25446	14059.8625
1663.53433	12029.7625
1666.81203	10895.1625
1670.08756	10281.8625
1673.36092	9899.1625
1676.63211	9663.0625
1679.90115	9505.9625
1683.16801	9364.0625
1686.43272	9261.8625
1689.69527	9164.3625
1692.95567	9055.1625
1696.2139	8926.2625
1699.46999	8824.1625
1702.72392	8769.3625
1705.97571	8841.3625
1709.22535	8936.5625
1712.47284	9012.2625
1715.71819	9043.5625
1718.96139	9071.4625
1722.20246	9064.4625
1725.44139	9013.7625
1728.67818	8949.2625
1731.91284	8870.7625
1735.14537	8807.7625
1738.37576	8777.9625
1741.60403	8724.7625
1744.83017	8692.7625
1748.05418	8679.5625
1751.27607	8644.5625
1754.49584	8558.5625
1757.71349	8496.7625
1760.92903	8445.4625
1764.14244	8415.4625
1767.35375	8413.0625
1770.56294	8374.5625
1773.77002	8375.7625
1776.97499	8378.8625
1780.17785	8438.3625
1783.37861	8430.9625
1786.57727	8423.8625
1789.77382	8450.7625
1792.96828	8443.9625
1796.16064	8435.6625
1799.3509	8423.3625
1802.53907	8410.7625
1805.72514	8397.1625
1808.90913	8358.6625
1812.09102	8348.6625
1815.27083	8327.6625
1818.44856	8316.0625
1821.6242	8309.2625
1824.79776	8278.4625
1827.96924	8286.8625
1831.13864	8254.0625
1834.30597	8247.6625
1837.47122	8226.0625
1840.6344	8220.9625
1843.7955	8241.0625
1846.95454	8230.9625
1850.11151	8227.6625
1853.26642	8226.7625
1856.41926	8212.9625
1859.57004	8209.8625
1862.71876	8219.4625
1865.86542	8201.9625
1869.01003	8226.3625
1872.15258	8202.1625
1875.29308	8220.9625
1878.43152	8220.9625
1881.56792	8205.1625
1884.70227	8221.5625
1887.83457	8214.4625
1890.96482	8212.3625
1894.09304	8175.5625
1897.21921	8198.9625
1900.34335	8198.0625
1903.46544	8187.4625
1906.58551	8169.0625
1909.70353	8167.1625
1912.81953	8188.9625
1915.93349	8192.5625
1919.04543	8174.1625
1922.15534	8171.0625
1925.26322	8150.9625
1928.36908	8118.8625
1931.47292	8120.6625
1934.57473	8071.6625
1937.67453	8051.7625
1940.77232	8028.6625
1943.86808	8011.4625
1946.96184	7968.0625
1950.05358	7947.6625
1953.14331	7921.6625
1956.23103	7924.7625
1959.31675	7903.9625
1962.40046	7917.2625
1965.48217	7883.7625
1968.56188	7838.3625
1971.63959	7849.2625
1974.7153	7817.0625
1977.78901	7795.7625
1980.86073	7778.5625
1983.93046	7751.1625
1986.99819	7701.9625
1990.06394	7704.5625
1993.1277	7669.5625
1996.18947	7625.8625
1999.24925	7596.4625
2002.30706	7563.3625
2005.36288	7549.5625
2008.41672	7552.0625
2011.46859	7498.4625
2014.51848	7490.7625
2017.56639	7488.0625
2020.61233	7465.6625
2023.6563	7449.3625
2026.6983	7425.4625
2029.73833	7413.1625
2032.7764	7387.9625
2035.8125	7373.0625
2038.84664	7363.2625
2041.87881	7383.6625
2044.90903	7355.3625
2047.93729	7316.0625
2050.96359	7322.4625
2053.98794	7323.5625
2057.01034	7310.8625
2060.03078	7297.1625
2063.04927	7305.7625
2066.06582	7280.9625
2069.08042	7265.3625
2072.09307	7253.0625
2075.10378	7269.0625
2078.11255	7254.8625
2081.11938	7257.9625
2084.12426	7247.5625
2087.12722	7253.3625
2090.12824	7242.3625
2093.12732	7236.8625
2096.12447	7235.3625
2099.11969	7246.5625
2102.11299	7237.6625
2105.10435	7265.1625
2108.09379	7229.2625
2111.08131	7258.8625
2114.0669	7236.4625
2117.05057	7253.1625
2120.03233	7271.7625
2123.01216	7296.8625
2125.99008	7298.0625
2128.96609	7293.9625
2131.94018	7297.3625
2134.91236	7310.4625
2137.88263	7287.3625
2140.851	7312.3625
2143.81746	7311.1625
2146.78201	7300.1625
2149.74466	7304.7625
2152.7054	7307.9625
2155.66425	7306.3625
2158.6212	7282.8625
2161.57625	7287.4625
2164.52941	7288.6625
2167.48067	7279.9625
2170.43004	7290.1625
2173.37752	7261.1625
2176.32311	7262.6625
2179.26681	7286.8625
2182.20863	7289.4625
2185.14856	7290.4625
2188.08661	7289.4625
2191.02278	7293.4625
2193.95707	7272.8625
2196.88948	7276.9625
2199.82001	7258.6625
2202.74867	7262.0625
2205.67545	7276.4625
2208.60037	7244.9625
2211.52341	7236.4625
2214.44458	7232.5625
2217.36388	7226.8625
2220.28132	7217.4625
2223.1969	7201.8625
2226.11061	7187.4625
2229.02246	7172.7625
2231.93245	7157.3625
2234.84058	7139.8625
2237.74686	7117.2625
2240.65128	7126.8625
2243.55385	7114.7625
2246.45456	7108.0625
2249.35343	7110.0625
2252.25044	7101.2625
2255.14561	7119.7625
2258.03893	7117.9625
2260.93041	7084.5625
2263.82004	7079.6625
2266.70783	7072.6625
2269.59378	7060.5625
2272.4779	7038.8625
2275.36017	7042.5625
2278.24061	7008.4625
2281.11922	7004.7625
2283.996	6956.3625
2286.87094	6963.4625
2289.74405	6939.4625
2292.61534	6934.7625
2295.4848	6908.9625
2298.35243	6926.8625
2301.21824	6925.6625
2304.08223	6929.9625
2306.94439	6927.1625
2309.80474	6928.0625
2312.66327	6927.0625
2315.51999	6914.0625
2318.37489	6908.2625
2321.22797	6916.6625
2324.07925	6915.4625
2326.92871	6878.2625
2329.77637	6881.4625
2332.62222	6868.0625
2335.46626	6872.1625
2338.3085	6852.5625
2341.14893	6890.7625
2343.98756	6880.6625
2346.8244	6894.0625
2349.65943	6886.5625
2352.49267	6904.7625
2355.32411	6909.2625
2358.15376	6932.0625
2360.98161	6928.9625
2363.80768	6931.8625
2366.63195	6926.7625
2369.45444	6940.4625
2372.27514	6927.9625
2375.09405	6904.2625
2377.91118	6868.1625
2380.72652	6859.0625
2383.54009	6839.7625
2386.35187	6806.7625
2389.16188	6778.8625
2391.97011	6746.7625
2394.77657	6733.9625
2397.58125	6723.9625
2400.38416	6700.6625
2403.18529	6694.0625
2405.98466	6667.2625
2408.78226	6651.4625
2411.57809	6623.8625
2414.37216	6604.2625
2417.16446	6616.1625
2419.955	6621.1625
2422.74378	6614.7625
2425.5308	6615.2625
2428.31606	6597.6625
2431.09956	6612.0625
2433.88131	6598.7625
2436.6613	6606.3625
2439.43954	6622.1625
2442.21603	6596.4625
2444.99077	6620.6625
2447.76377	6625.1625
2450.53501	6618.4625
2453.30451	6637.2625
2456.07226	6622.5625
2458.83827	6588.8625
2461.60254	6592.5625
2464.36507	6606.6625
2467.12586	6590.0625
2469.88492	6585.3625
2472.64224	6594.2625
2475.39782	6579.8625
2478.15167	6605.2625
2480.90379	6622.1625
2483.65417	6626.1625
2486.40283	6653.4625
2489.14976	6674.0625
2491.89497	6665.8625
2494.63845	6670.8625
2497.3802	6628.9625
2500.12024	6655.3625
2502.85855	6652.6625
2505.59514	6623.6625
2508.33002	6575.8625
2511.06318	6541.2625
2513.79462	6518.2625
2516.52435	6521.6625
2519.25237	6485.7625
2521.97867	6450.9625
2524.70327	6448.5625
2527.42616	6445.7625
2530.14734	6427.0625
2532.86681	6432.3625
2535.58458	6449.3625
2538.30065	6442.7625
2541.01501	6415.3625
2543.72768	6438.9625
2546.43864	6415.6625
2549.14791	6425.7625
2551.85548	6412.3625
2554.56136	6403.1625
2557.26554	6405.4625
2559.96803	6408.3625
2562.66883	6387.7625
2565.36794	6398.3625
2568.06536	6394.3625
2570.7611	6361.0625
2573.45514	6364.6625
2576.14751	6352.8625
2578.83819	6325.2625
2581.52719	6337.5625
2584.21451	6306.8625
2586.90015	6302.4625
2589.58411	6287.8625
2592.2664	6291.6625
2594.94701	6267.9625
2597.62594	6265.5625
2600.30321	6277.2625
2602.9788	6276.5625
2605.65273	6269.8625
2608.32498	6276.5625
2610.99557	6282.8625
2613.66449	6286.7625
2616.33175	6277.9625
2618.99734	6289.2625
2621.66128	6289.7625
2624.32355	6270.2625
2626.98416	6270.2625
2629.64311	6248.9625
2632.30041	6234.9625
2634.95605	6223.5625
2637.61004	6208.3625
2640.26238	6205.2625
2642.91306	6201.1625
2645.56209	6191.6625
2648.20948	6150.3625
2650.85521	6150.5625
2653.4993	6148.3625
2656.14175	6163.3625
2658.78255	6176.4625
2661.42171	6159.0625
2664.05923	6184.9625
2666.6951	6191.6625
2669.32934	6209.1625
2671.96194	6204.7625
2674.59291	6222.0625
2677.22224	6234.9625
2679.84993	6233.2625
2682.476	6228.6625
2685.10043	6208.7625
2687.72324	6206.5625
2690.34441	6200.2625
2692.96396	6202.0625
2695.58188	6212.3625
2698.19818	6193.3625
2700.81285	6179.9625
2703.4259	6177.3625
2706.03733	6113.8625
2708.64714	6145.9625
2711.25533	6177.4625
2713.86191	6178.2625
2716.46687	6190.8625
2719.07021	6201.3625
2721.67194	6190.8625
2724.27206	6223.1625
2726.87057	6212.5625
2729.46747	6212.3625
2732.06276	6215.4625
2734.65644	6210.8625
2737.24852	6210.6625
2739.83899	6191.0625
2742.42786	6202.5625
2745.01513	6170.6625
2747.60079	6146.8625
2750.18486	6148.2625
2752.76733	6159.8625
2755.3482	6141.7625
2757.92747	6139.9625
2760.50515	6137.3625
2763.08123	6137.5625
2765.65573	6132.8625
2768.22863	6111.8625
2770.79994	6089.6625
2773.36967	6087.6625
2775.9378	6091.1625
2778.50435	6072.9625
2781.06932	6074.1625
2783.6327	6106.0625
2786.1945	6102.3625
2788.75471	6098.2625
2791.31335	6084.1625
2793.87041	6072.5625
2796.42589	6066.6625
2798.97979	6060.1625
2801.53212	6063.6625
2804.08288	6054.5625
2806.63206	6046.0625
2809.17967	6038.7625
2811.72571	6037.5625
2814.27018	6044.5625
2816.81308	6058.1625
2819.35442	6064.2625
2821.89419	6053.7625
2824.43239	6067.9625
2826.96904	6061.2625
2829.50412	6072.6625
2832.03763	6044.8625
2834.56959	6070.9625
2837.1	6089.2625
2839.62884	6079.4625
2842.15613	6088.5625
2844.68186	6105.9625
2847.20604	6135.3625
2849.72867	6168.0625
2852.24974	6179.2625
2854.76927	6179.9625
2857.28724	6139.2625
2859.80367	6158.0625
2862.31855	6153.7625
2864.83189	6150.2625
2867.34368	6149.5625
2869.85393	6152.4625
2872.36264	6157.9625
2874.8698	6142.3625
2877.37543	6147.2625
2879.87952	6124.9625
2882.38207	6120.9625
2884.88308	6107.9625
2887.38256	6129.5625
2889.88051	6127.6625
2892.37692	6112.1625
2894.8718	6107.1625
2897.36515	6126.6625
2899.85698	6125.5625
2902.34727	6139.1625
2904.83604	6137.8625
2907.32328	6138.1625
2909.809	6132.6625
2912.29319	6135.7625
2914.77587	6131.2625
2917.25702	6143.0625
2919.73665	6120.9625
2922.21476	6104.2625
2924.69136	6075.0625
2927.16644	6083.9625
2929.64	6080.3625
2932.11205	6075.0625
2934.58258	6048.7625
2937.05161	6051.5625
2939.51912	6037.4625
2941.98513	6027.9625
2944.44962	5995.5625
2946.91261	5965.4625
2949.37409	5953.2625
2951.83407	5956.6625
2954.29254	5928.9625
2956.74951	5937.4625
2959.20498	5907.2625
2961.65895	5897.8625
2964.11142	5895.9625
2966.56239	5874.6625
2969.01186	5874.1625
2971.45984	5857.3625
2973.90632	5830.5625
2976.35131	5818.6625
2978.7948	5821.5625
2981.23681	5806.5625
2983.67732	5792.1625
2986.11635	5772.3625
2988.55388	5766.5625
2990.98993	5755.1625
2993.4245	5750.0625
2995.85758	5737.0625
2998.28917	5736.8625
3000.71928	5718.9625
3003.14791	5705.4625
3005.57506	5696.9625
3008.00073	5685.6625
3010.42493	5687.1625
3012.84764	5659.8625
3015.26888	5665.6625
3017.68865	5652.4625
3020.10694	5654.0625
3022.52376	5630.0625
3024.9391	5654.6625
3027.35298	5616.7625
3029.76539	5608.4625
3032.17632	5607.2625
3034.5858	5593.6625
3036.9938	5588.5625
3039.40034	5574.7625
3041.80542	5583.3625
3044.20903	5562.8625
3046.61118	5561.3625
3049.01187	5537.8625
3051.4111	5537.2625
3053.80888	5525.3625
3056.20519	5523.0625
3058.60005	5495.8625
3060.99345	5480.3625
3063.3854	5476.6625
3065.7759	5448.0625
3068.16494	5450.0625
3070.55254	5420.5625
3072.93868	5427.3625
3075.32338	5387.8625
3077.70662	5375.9625
3080.08842	5365.9625
3082.46878	5356.5625
3084.84769	5343.5625
3087.22515	5352.2625
3089.60118	5349.2625
3091.97576	5329.1625
3094.3489	5342.2625
3096.72061	5347.4625
3099.09087	5338.2625
3101.4597	5339.9625
3103.82709	5340.1625
3106.19305	5323.1625
3108.55757	5331.2625
3110.92066	5324.0625
3113.28232	5320.3625
3115.64255	5302.4625
3118.00134	5294.1625
3120.35871	5318.6625
3122.71466	5276.9625
3125.06917	5287.1625
3127.42226	5285.5625
3129.77393	5268.4625
3132.12417	5279.5625
3134.47299	5262.7625
3136.82039	5287.6625
3139.16636	5297.3625
3141.51092	5276.5625
3143.85406	5280.2625
3146.19579	5276.8625
3148.53609	5288.6625
3150.87499	5265.6625
3153.21246	5310.6625
3155.54853	5303.9625
3157.88318	5310.9625
3160.21642	5308.8625
3162.54826	5327.0625
3164.87868	5330.9625
3167.2077	5321.4625
3169.5353	5319.5625
3171.86151	5324.3625
3174.18631	5312.5625
3176.5097	5321.1625
3178.83169	5309.6625
3181.15228	5319.3625
3183.47147	5290.4625
3185.78926	5294.0625
3188.10565	5309.8625
3190.42065	5323.5625
3192.73424	5311.3625
3195.04645	5313.5625
3197.35725	5313.0625
3199.66667	5312.6625
3201.97469	5314.8625
3204.28132	5316.6625
3206.58656	5330.1625
3208.8904	5323.8625
3211.19287	5339.0625
3213.49394	5336.1625
3215.79363	5356.1625
3218.09193	5349.2625
3220.38884	5368.1625
3222.68438	5340.7625
3224.97853	5343.6625
3227.2713	5343.1625
3229.56269	5338.6625
3231.8527	5357.3625
3234.14133	5337.7625
3236.42858	5332.1625
3238.71446	5319.9625
3240.99896	5303.2625
3243.28209	5280.3625
3245.56384	5297.3625
3247.84423	5281.9625
3250.12324	5295.5625
3252.40088	5310.1625
3254.67715	5283.2625
3256.95205	5293.1625
3259.22558	5286.9625
3261.49775	5281.5625
3263.76855	5280.3625
3266.03799	5263.6625
3268.30606	5272.3625
3270.57277	5254.9625
3272.83812	5264.3625
3275.10211	5228.3625
3277.36474	5243.4625
3279.62601	5231.3625
3281.88593	5227.5625
3284.14448	5236.3625
3286.40168	5207.7625
3288.65753	5234.4625
3290.91202	5226.0625
3293.16516	5206.0625
3295.41695	5197.0625
3297.66738	5190.5625
3299.91647	5147.7625
3302.16421	5109.2625
3304.4106	5090.3625
3306.65564	5053.9625
3308.89933	5018.1625
3311.14169	4985.2625
3313.38269	4933.0625
3315.62236	4898.2625
3317.86068	4866.9625
3320.09766	4830.4625
3322.3333	4815.7625
3324.5676	4792.7625
3326.80056	4685.3625
3329.03219	4658.8625
3331.26248	2.0625
3333.49143	-0.8375
3335.71905	1.0625
