Data from AgNPs_FTO_APTES_UA_50uM_CRN_20uM_R6G_10uM_NaF_0.1M_Addition_RamanShift__20__14-17-34-938.txt Node

Date: Mon Feb 21 14:17:34 GMT 2022
User: TCL
Spectrometer: QEP01345
Trigger mode: 4
Integration Time (sec): 7.000000E0
Scans to average: 10
Electric dark correction enabled: true
Nonlinearity correction enabled: false
Boxcar width: 0
XAxis mode: Raman Shifts
Number of Pixels in Spectrum: 1044
>>>>>Begin Spectral Data<<<<<
46.04893	0.7375
50.45542	-1.4625
54.85868	0.1375
59.25871	-2.4625
63.6555	57.1375
68.04907	63.4375
72.43941	63.5375
76.82654	69.1375
81.21044	67.9375
85.59113	73.2375
89.96862	75.5375
94.34289	82.5375
98.71396	82.2375
103.08183	88.5375
107.4465	88.1375
111.80798	87.4375
116.16626	88.1375
120.52136	90.8375
124.87327	102.7375
129.222	96.8375
133.56755	103.4375
137.90993	112.3375
142.24913	117.3375
146.58517	130.5375
150.91804	150.6375
155.24774	174.8375
159.57429	214.8375
163.89768	276.5375
168.21792	371.7375
172.53501	499.2375
176.84895	703.8375
181.15975	970.1375
185.46741	1361.3375
189.77193	1880.4375
194.07331	2523.3375
198.37157	3249.5375
202.6667	4011.0375
206.9587	4772.3375
211.24758	5544.0375
215.53334	6330.5375
219.81599	7242.9375
224.09553	8220.0375
228.37195	9346.3375
232.64527	10551.1375
236.91549	11801.8375
241.18261	12908.9375
245.44663	13859.6375
249.70755	14613.2375
253.96539	15268.0375
258.22014	15806.8375
262.4718	16301.6375
266.72039	16617.4375
270.96589	16716.7375
275.20832	16620.2375
279.44768	16343.8375
283.68397	16063.9375
287.91719	15867.6375
292.14735	15832.3375
296.37445	16102.1375
300.59849	16600.2375
304.81948	17121.5375
309.03742	17405.5375
313.25231	17306.5375
317.46415	16580.9375
321.67296	15552.3375
325.87872	14726.8375
330.08145	14339.4375
334.28114	14308.3375
338.47781	14514.8375
342.67145	14821.5375
346.86207	15378.0375
351.04966	16070.2375
355.23424	16869.4375
359.4158	17563.4375
363.59435	17912.8375
367.76989	18061.8375
371.94243	18035.6375
376.11196	18005.9375
380.27849	17933.4375
384.44203	17840.7375
388.60257	17732.5375
392.76012	17698.8375
396.91468	17844.3375
401.06626	18168.0375
405.21485	18428.2375
409.36047	18116.5375
413.50311	17346.6375
417.64277	16635.4375
421.77947	16172.0375
425.9132	16050.2375
430.04396	16050.6375
434.17176	16107.4375
438.2966	16360.3375
442.41849	16732.5375
446.53742	17287.5375
450.6534	17827.8375
454.76644	18203.0375
458.87653	18260.4375
462.98368	18109.1375
467.08789	17786.8375
471.18916	17376.8375
475.2875	17075.5375
479.38291	16780.3375
483.4754	16537.8375
487.56496	16315.5375
491.6516	16075.0375
495.73531	15982.1375
499.81612	15963.4375
503.89401	16133.0375
507.96899	16303.8375
512.04106	16445.1375
516.11023	16569.4375
520.1765	16647.9375
524.23987	16611.7375
528.30034	16483.3375
532.35792	16308.7375
536.41261	16121.5375
540.46441	15764.6375
544.51333	15578.2375
548.55936	15618.1375
552.60252	15919.4375
556.64279	16305.6375
560.6802	16508.5375
564.71473	16761.8375
568.7464	17312.3375
572.7752	17726.3375
576.80114	17516.4375
580.82422	17214.7375
584.84444	17202.5375
588.86181	17452.2375
592.87633	17851.5375
596.888	18150.8375
600.89682	18372.9375
604.9028	19834.4375
608.90594	24384.2375
612.90624	29855.8375
616.90371	27895.6375
620.89834	20262.0375
624.89015	16840.3375
628.87913	16335.6375
632.86528	16481.4375
636.84862	16648.2375
640.82913	16341.7375
644.80683	15538.7375
648.78172	14976.1375
652.75379	14919.2375
656.72306	15377.0375
660.68952	16010.4375
664.65319	15892.1375
668.61405	15294.7375
672.57211	15098.7375
676.52738	15192.1375
680.47986	15195.8375
684.42955	14985.3375
688.37646	14766.0375
692.32058	14728.2375
696.26192	14812.0375
700.20048	15007.8375
704.13626	15129.2375
708.06928	15027.5375
711.99952	14852.7375
715.927	14805.5375
719.85171	14878.0375
723.77365	14900.0375
727.69284	14786.0375
731.60928	14695.8375
735.52295	14681.1375
739.43388	14762.4375
743.34206	14894.2375
747.24749	14943.6375
751.15017	14993.1375
755.05012	15180.9375
758.94733	15872.9375
762.8418	17487.1375
766.73354	20356.7375
770.62254	23240.5375
774.50882	24545.9375
778.39237	23344.5375
782.27321	20333.6375
786.15132	17538.5375
790.02671	15842.1375
793.89938	15049.4375
797.76935	14726.6375
801.6366	14579.1375
805.50115	14515.1375
809.36299	14377.9375
813.22213	14230.5375
817.07857	14162.5375
820.93231	14113.1375
824.78336	14088.2375
828.63172	14102.4375
832.47738	14111.6375
836.32036	14099.0375
840.16066	14118.5375
843.99827	14146.5375
847.8332	14086.3375
851.66546	13995.3375
855.49504	13964.6375
859.32195	14005.3375
863.1462	13990.8375
866.96777	13982.0375
870.78668	13944.0375
874.60293	13977.3375
878.41652	13982.1375
882.22745	14080.2375
886.03573	14149.9375
889.84136	14135.3375
893.64433	14075.0375
897.44466	14009.0375
901.24235	13917.9375
905.0374	13785.3375
908.8298	13670.9375
912.61957	13602.6375
916.40671	13662.4375
920.19121	13832.0375
923.97308	14063.6375
927.75233	14256.7375
931.52895	14347.7375
935.30295	14260.7375
939.07433	13819.2375
942.84309	13479.6375
946.60924	13274.1375
950.37278	13166.4375
954.13371	13120.6375
957.89203	13009.4375
961.64774	12950.5375
965.40086	12918.2375
969.15137	12820.8375
972.89929	12758.9375
976.64461	12715.7375
980.38733	12733.0375
984.12747	12770.4375
987.86502	12911.4375
991.59999	13038.4375
995.33237	13401.5375
999.06217	13908.5375
1002.78939	14537.4375
1006.51404	14939.7375
1010.23611	15223.9375
1013.95561	15375.4375
1017.67255	15394.0375
1021.38692	15198.5375
1025.09872	14888.3375
1028.80796	14958.0375
1032.51465	15375.5375
1036.21877	15851.2375
1039.92035	15934.3375
1043.61937	15760.1375
1047.31584	15360.3375
1051.00976	14950.5375
1054.70114	14647.2375
1058.38998	14551.9375
1062.07627	14566.7375
1065.76003	14563.7375
1069.44126	14608.6375
1073.11995	14781.1375
1076.79611	15018.0375
1080.46974	15285.7375
1084.14085	15647.1375
1087.80943	16014.3375
1091.47549	16207.7375
1095.13903	15991.7375
1098.80005	15531.5375
1102.45857	15099.4375
1106.11456	14926.9375
1109.76805	15034.2375
1113.41903	15369.9375
1117.06751	15866.6375
1120.71348	16510.9375
1124.35696	17191.9375
1127.99793	17774.5375
1131.63641	17783.6375
1135.2724	17169.8375
1138.90589	16511.3375
1142.5369	16069.1375
1146.16542	15689.7375
1149.79145	15451.1375
1153.415	15418.7375
1157.03607	15578.2375
1160.65467	16021.8375
1164.27079	16744.7375
1167.88443	17830.4375
1171.49561	19485.8375
1175.10432	21825.4375
1178.71056	24932.9375
1182.31434	27725.4375
1185.91565	28810.5375
1189.51451	28143.1375
1193.11091	26418.6375
1196.70485	24457.7375
1200.29634	22769.4375
1203.88538	21456.9375
1207.47197	20095.8375
1211.05612	19013.3375
1214.63782	18369.1375
1218.21708	18252.0375
1221.79391	18403.6375
1225.36829	18551.2375
1228.94024	18409.7375
1232.50976	18023.1375
1236.07685	17703.3375
1239.6415	17547.1375
1243.20374	17540.1375
1246.76355	17669.5375
1250.32093	17907.7375
1253.8759	18415.8375
1257.42845	19068.6375
1260.97859	19813.3375
1264.52631	20594.4375
1268.07163	21403.4375
1271.61453	22240.6375
1275.15503	23061.3375
1278.69312	23703.4375
1282.22882	24214.8375
1285.76211	24872.2375
1289.29301	25585.4375
1292.82151	26506.9375
1296.34761	27761.9375
1299.87133	29557.8375
1303.39266	32229.0375
1306.9116	35991.0375
1310.42815	39766.6375
1313.94233	41435.6375
1317.45412	40246.6375
1320.96354	37532.6375
1324.47058	34722.2375
1327.97525	32372.8375
1331.47754	30903.8375
1334.97747	30272.3375
1338.47502	30316.7375
1341.97022	30898.6375
1345.46305	31702.2375
1348.95352	32830.0375
1352.44163	34622.5375
1355.92738	37544.5375
1359.41078	41985.3375
1362.89183	45940.1375
1366.37053	44166.7375
1369.84688	37390.3375
1373.32088	30952.3375
1376.79254	26985.6375
1380.26186	24967.1375
1383.72883	23961.4375
1387.19347	23189.6375
1390.65578	22536.1375
1394.11575	22241.8375
1397.57339	22366.2375
1401.0287	22761.1375
1404.48168	23161.2375
1407.93234	23303.4375
1411.38068	23310.8375
1414.82669	23036.4375
1418.27039	22447.4375
1421.71177	21754.8375
1425.15083	21061.2375
1428.58758	20719.4375
1432.02203	20890.0375
1435.45416	21261.0375
1438.88399	21552.4375
1442.31151	21738.7375
1445.73673	21999.5375
1449.15965	22268.9375
1452.58027	22465.6375
1455.9986	22497.4375
1459.41463	22657.4375
1462.82837	23109.4375
1466.23982	23661.4375
1469.64898	24166.8375
1473.05586	24457.1375
1476.46045	24456.8375
1479.86276	24522.1375
1483.26279	24601.7375
1486.66054	24934.8375
1490.05602	25496.0375
1493.44922	26394.5375
1496.84016	27706.9375
1500.22882	29909.7375
1503.61521	33211.8375
1506.99934	37079.7375
1510.38121	40049.4375
1513.76081	40256.7375
1517.13816	37235.2375
1520.51324	32764.8375
1523.88607	28888.2375
1527.25665	26475.8375
1530.62498	25144.1375
1533.99105	24365.8375
1537.35488	23801.2375
1540.71647	23429.0375
1544.07581	23138.2375
1547.4329	22934.0375
1550.78776	22795.8375
1554.14038	22777.2375
1557.49077	22953.2375
1560.83892	23259.4375
1564.18484	23685.4375
1567.52853	24218.2375
1570.86999	24657.1375
1574.20922	25007.1375
1577.54624	24839.9375
1580.88103	23829.7375
1584.2136	22675.5375
1587.54395	22388.4375
1590.87208	23240.7375
1594.19801	24948.5375
1597.52172	26947.5375
1600.84321	27792.4375
1604.16251	26627.1375
1607.47959	24500.0375
1610.79447	22134.2375
1614.10715	20002.9375
1617.41763	18382.9375
1620.7259	17296.0375
1624.03199	16783.0375
1627.33587	16902.1375
1630.63757	17547.3375
1633.93707	18851.4375
1637.23439	20816.0375
1640.52951	23602.1375
1643.82246	27135.3375
1647.11321	30535.0375
1650.40179	32007.0375
1653.68819	30006.9375
1656.97241	25331.8375
1660.25446	20687.4375
1663.53433	17471.6375
1666.81203	15578.1375
1670.08756	14468.6375
1673.36092	13775.8375
1676.63211	13363.7375
1679.90115	13043.0375
1683.16801	12801.5375
1686.43272	12634.3375
1689.69527	12447.2375
1692.95567	12277.6375
1696.2139	12098.0375
1699.46999	11972.0375
1702.72392	11888.4375
1705.97571	11970.6375
1709.22535	11988.4375
1712.47284	12047.3375
1715.71819	12048.0375
1718.96139	12033.5375
1722.20246	11960.3375
1725.44139	11891.5375
1728.67818	11811.8375
1731.91284	11726.1375
1735.14537	11641.1375
1738.37576	11587.0375
1741.60403	11533.9375
1744.83017	11489.9375
1748.05418	11435.5375
1751.27607	11415.6375
1754.49584	11312.0375
1757.71349	11242.9375
1760.92903	11176.2375
1764.14244	11159.5375
1767.35375	11131.7375
1770.56294	11093.7375
1773.77002	11081.2375
1776.97499	11101.5375
1780.17785	11111.3375
1783.37861	11128.0375
1786.57727	11105.5375
1789.77382	11117.0375
1792.96828	11077.2375
1796.16064	11070.7375
1799.3509	11057.8375
1802.53907	11015.1375
1805.72514	11012.2375
1808.90913	10957.2375
1812.09102	10940.0375
1815.27083	10944.3375
1818.44856	10890.4375
1821.6242	10880.7375
1824.79776	10887.5375
1827.96924	10846.4375
1831.13864	10831.3375
1834.30597	10828.2375
1837.47122	10847.6375
1840.6344	10807.2375
1843.7955	10836.3375
1846.95454	10810.5375
1850.11151	10834.5375
1853.26642	10805.0375
1856.41926	10812.9375
1859.57004	10780.4375
1862.71876	10790.8375
1865.86542	10802.4375
1869.01003	10790.5375
1872.15258	10769.4375
1875.29308	10813.9375
1878.43152	10806.6375
1881.56792	10786.8375
1884.70227	10812.1375
1887.83457	10800.7375
1890.96482	10796.7375
1894.09304	10761.7375
1897.21921	10796.1375
1900.34335	10765.0375
1903.46544	10788.5375
1906.58551	10772.0375
1909.70353	10773.6375
1912.81953	10743.4375
1915.93349	10735.6375
1919.04543	10706.2375
1922.15534	10681.6375
1925.26322	10594.8375
1928.36908	10562.5375
1931.47292	10560.0375
1934.57473	10536.8375
1937.67453	10461.7375
1940.77232	10452.6375
1943.86808	10411.9375
1946.96184	10373.9375
1950.05358	10332.4375
1953.14331	10324.9375
1956.23103	10281.6375
1959.31675	10255.6375
1962.40046	10238.2375
1965.48217	10196.1375
1968.56188	10176.7375
1971.63959	10161.1375
1974.7153	10131.9375
1977.78901	10093.4375
1980.86073	10061.6375
1983.93046	10000.1375
1986.99819	9967.5375
1990.06394	9940.2375
1993.1277	9911.2375
1996.18947	9881.7375
1999.24925	9840.7375
2002.30706	9809.5375
2005.36288	9780.8375
2008.41672	9749.2375
2011.46859	9704.1375
2014.51848	9681.9375
2017.56639	9661.5375
2020.61233	9641.4375
2023.6563	9646.7375
2026.6983	9609.1375
2029.73833	9573.9375
2032.7764	9554.8375
2035.8125	9533.7375
2038.84664	9524.6375
2041.87881	9547.7375
2044.90903	9522.2375
2047.93729	9488.3375
2050.96359	9509.0375
2053.98794	9491.0375
2057.01034	9467.3375
2060.03078	9472.1375
2063.04927	9466.7375
2066.06582	9423.8375
2069.08042	9412.7375
2072.09307	9390.9375
2075.10378	9403.1375
2078.11255	9382.3375
2081.11938	9372.6375
2084.12426	9361.1375
2087.12722	9371.8375
2090.12824	9351.1375
2093.12732	9347.3375
2096.12447	9358.1375
2099.11969	9353.9375
2102.11299	9360.5375
2105.10435	9358.8375
2108.09379	9357.2375
2111.08131	9357.5375
2114.0669	9362.3375
2117.05057	9368.4375
2120.03233	9395.2375
2123.01216	9423.9375
2125.99008	9417.7375
2128.96609	9418.0375
2131.94018	9428.6375
2134.91236	9409.1375
2137.88263	9429.3375
2140.851	9440.2375
2143.81746	9429.8375
2146.78201	9407.3375
2149.74466	9408.6375
2152.7054	9422.6375
2155.66425	9402.2375
2158.6212	9410.8375
2161.57625	9379.7375
2164.52941	9391.4375
2167.48067	9359.6375
2170.43004	9400.9375
2173.37752	9388.3375
2176.32311	9392.8375
2179.26681	9377.2375
2182.20863	9381.0375
2185.14856	9406.5375
2188.08661	9385.7375
2191.02278	9391.4375
2193.95707	9386.5375
2196.88948	9364.8375
2199.82001	9376.8375
2202.74867	9375.5375
2205.67545	9389.9375
2208.60037	9383.3375
2211.52341	9344.8375
2214.44458	9358.1375
2217.36388	9331.7375
2220.28132	9331.0375
2223.1969	9309.0375
2226.11061	9311.1375
2229.02246	9266.1375
2231.93245	9260.5375
2234.84058	9247.1375
2237.74686	9210.0375
2240.65128	9178.9375
2243.55385	9210.6375
2246.45456	9214.3375
2249.35343	9205.7375
2252.25044	9164.4375
2255.14561	9170.5375
2258.03893	9174.2375
2260.93041	9144.6375
2263.82004	9127.3375
2266.70783	9129.7375
2269.59378	9080.1375
2272.4779	9041.2375
2275.36017	9045.4375
2278.24061	9034.5375
2281.11922	9015.5375
2283.996	8985.6375
2286.87094	8966.6375
2289.74405	8967.7375
2292.61534	8972.0375
2295.4848	8934.7375
2298.35243	8960.7375
2301.21824	8958.5375
2304.08223	8956.9375
2306.94439	8952.6375
2309.80474	8958.7375
2312.66327	8977.0375
2315.51999	8973.5375
2318.37489	8964.6375
2321.22797	8976.6375
2324.07925	8977.4375
2326.92871	8952.9375
2329.77637	8920.9375
2332.62222	8963.3375
2335.46626	8938.6375
2338.3085	8921.3375
2341.14893	8929.4375
2343.98756	8984.3375
2346.8244	8967.0375
2349.65943	8994.0375
2352.49267	8980.0375
2355.32411	9003.0375
2358.15376	8992.0375
2360.98161	8977.4375
2363.80768	8991.0375
2366.63195	8981.5375
2369.45444	8962.7375
2372.27514	8945.6375
2375.09405	8928.4375
2377.91118	8920.1375
2380.72652	8896.0375
2383.54009	8856.2375
2386.35187	8832.3375
2389.16188	8783.8375
2391.97011	8773.3375
2394.77657	8760.8375
2397.58125	8747.0375
2400.38416	8732.4375
2403.18529	8692.6375
2405.98466	8713.3375
2408.78226	8672.1375
2411.57809	8661.9375
2414.37216	8638.3375
2417.16446	8628.5375
2419.955	8596.8375
2422.74378	8626.2375
2425.5308	8611.5375
2428.31606	8606.1375
2431.09956	8628.1375
2433.88131	8587.6375
2436.6613	8577.8375
2439.43954	8594.9375
2442.21603	8597.8375
2444.99077	8588.1375
2447.76377	8603.0375
2450.53501	8603.0375
2453.30451	8623.8375
2456.07226	8620.9375
2458.83827	8605.7375
2461.60254	8645.8375
2464.36507	8630.1375
2467.12586	8627.3375
2469.88492	8628.4375
2472.64224	8639.2375
2475.39782	8635.6375
2478.15167	8629.3375
2480.90379	8678.9375
2483.65417	8667.7375
2486.40283	8683.7375
2489.14976	8706.3375
2491.89497	8711.2375
2494.63845	8708.8375
2497.3802	8701.3375
2500.12024	8728.0375
2502.85855	8695.1375
2505.59514	8678.0375
2508.33002	8638.3375
2511.06318	8629.5375
2513.79462	8592.1375
2516.52435	8602.4375
2519.25237	8569.5375
2521.97867	8565.0375
2524.70327	8544.8375
2527.42616	8537.6375
2530.14734	8545.4375
2532.86681	8522.7375
2535.58458	8524.0375
2538.30065	8529.5375
2541.01501	8547.8375
2543.72768	8531.4375
2546.43864	8530.7375
2549.14791	8534.6375
2551.85548	8543.1375
2554.56136	8490.6375
2557.26554	8481.4375
2559.96803	8492.5375
2562.66883	8493.0375
2565.36794	8490.8375
2568.06536	8487.4375
2570.7611	8466.6375
2573.45514	8478.7375
2576.14751	8483.1375
2578.83819	8450.8375
2581.52719	8464.7375
2584.21451	8432.1375
2586.90015	8469.9375
2589.58411	8438.4375
2592.2664	8421.2375
2594.94701	8436.1375
2597.62594	8455.7375
2600.30321	8435.0375
2602.9788	8430.3375
2605.65273	8443.3375
2608.32498	8444.9375
2610.99557	8451.0375
2613.66449	8470.2375
2616.33175	8459.2375
2618.99734	8487.0375
2621.66128	8456.2375
2624.32355	8492.3375
2626.98416	8479.5375
2629.64311	8481.4375
2632.30041	8455.0375
2634.95605	8445.8375
2637.61004	8404.5375
2640.26238	8434.7375
2642.91306	8408.8375
2645.56209	8377.8375
2648.20948	8397.5375
2650.85521	8374.9375
2653.4993	8360.5375
2656.14175	8369.6375
2658.78255	8394.9375
2661.42171	8384.4375
2664.05923	8396.9375
2666.6951	8445.3375
2669.32934	8455.0375
2671.96194	8435.4375
2674.59291	8463.8375
2677.22224	8426.2375
2679.84993	8432.1375
2682.476	8432.3375
2685.10043	8414.4375
2687.72324	8402.8375
2690.34441	8394.0375
2692.96396	8391.2375
2695.58188	8384.4375
2698.19818	8391.3375
2700.81285	8367.9375
2703.4259	8342.6375
2706.03733	8287.6375
2708.64714	8322.1375
2711.25533	8353.6375
2713.86191	8372.8375
2716.46687	8400.8375
2719.07021	8408.7375
2721.67194	8401.9375
2724.27206	8396.9375
2726.87057	8420.1375
2729.46747	8409.6375
2732.06276	8422.0375
2734.65644	8394.8375
2737.24852	8416.6375
2739.83899	8390.5375
2742.42786	8405.7375
2745.01513	8406.0375
2747.60079	8393.5375
2750.18486	8387.5375
2752.76733	8382.9375
2755.3482	8371.6375
2757.92747	8386.2375
2760.50515	8367.6375
2763.08123	8356.7375
2765.65573	8356.2375
2768.22863	8351.1375
2770.79994	8346.8375
2773.36967	8326.8375
2775.9378	8311.8375
2778.50435	8332.4375
2781.06932	8345.9375
2783.6327	8362.4375
2786.1945	8365.6375
2788.75471	8369.4375
2791.31335	8347.7375
2793.87041	8337.5375
2796.42589	8312.1375
2798.97979	8318.2375
2801.53212	8294.6375
2804.08288	8297.1375
2806.63206	8314.9375
2809.17967	8288.2375
2811.72571	8254.6375
2814.27018	8254.6375
2816.81308	8260.1375
2819.35442	8272.9375
2821.89419	8266.1375
2824.43239	8289.4375
2826.96904	8270.9375
2829.50412	8288.3375
2832.03763	8278.2375
2834.56959	8252.9375
2837.1	8263.3375
2839.62884	8262.6375
2842.15613	8252.7375
2844.68186	8238.8375
2847.20604	8261.2375
2849.72867	8284.1375
2852.24974	8248.4375
2854.76927	8273.9375
2857.28724	8212.7375
2859.80367	8215.9375
2862.31855	8248.6375
2864.83189	8244.6375
2867.34368	8257.7375
2869.85393	8278.7375
2872.36264	8265.0375
2874.8698	8266.6375
2877.37543	8280.0375
2879.87952	8280.9375
2882.38207	8281.9375
2884.88308	8258.6375
2887.38256	8279.3375
2889.88051	8286.6375
2892.37692	8267.4375
2894.8718	8276.1375
2897.36515	8297.0375
2899.85698	8311.1375
2902.34727	8314.1375
2904.83604	8345.1375
2907.32328	8361.0375
2909.809	8358.4375
2912.29319	8379.7375
2914.77587	8388.6375
2917.25702	8366.5375
2919.73665	8356.3375
2922.21476	8354.8375
2924.69136	8322.4375
2927.16644	8314.2375
2929.64	8301.0375
2932.11205	8285.4375
2934.58258	8251.7375
2937.05161	8258.1375
2939.51912	8266.2375
2941.98513	8254.2375
2944.44962	8230.4375
2946.91261	8212.0375
2949.37409	8216.9375
2951.83407	8183.6375
2954.29254	8208.9375
2956.74951	8180.2375
2959.20498	8190.5375
2961.65895	8139.3375
2964.11142	8140.6375
2966.56239	8106.8375
2969.01186	8110.3375
2971.45984	8103.4375
2973.90632	8066.8375
2976.35131	8045.5375
2978.7948	8036.1375
2981.23681	7995.4375
2983.67732	8002.6375
2986.11635	7955.4375
2988.55388	7943.4375
2990.98993	7945.9375
2993.4245	7938.1375
2995.85758	7912.1375
2998.28917	7897.4375
3000.71928	7888.9375
3003.14791	7877.4375
3005.57506	7883.0375
3008.00073	7851.1375
3010.42493	7853.4375
3012.84764	7836.5375
3015.26888	7823.7375
3017.68865	7824.1375
3020.10694	7811.7375
3022.52376	7795.9375
3024.9391	7788.9375
3027.35298	7758.4375
3029.76539	7760.8375
3032.17632	7720.2375
3034.5858	7699.1375
3036.9938	7720.8375
3039.40034	7694.0375
3041.80542	7692.6375
3044.20903	7670.0375
3046.61118	7692.5375
3049.01187	7685.3375
3051.4111	7674.3375
3053.80888	7639.4375
3056.20519	7641.3375
3058.60005	7618.7375
3060.99345	7614.2375
3063.3854	7574.8375
3065.7759	7564.3375
3068.16494	7530.5375
3070.55254	7514.9375
3072.93868	7496.8375
3075.32338	7465.1375
3077.70662	7445.9375
3080.08842	7429.4375
3082.46878	7453.6375
3084.84769	7422.9375
3087.22515	7419.9375
3089.60118	7417.0375
3091.97576	7413.3375
3094.3489	7409.5375
3096.72061	7386.0375
3099.09087	7407.0375
3101.4597	7400.6375
3103.82709	7390.6375
3106.19305	7382.5375
3108.55757	7387.4375
3110.92066	7363.7375
3113.28232	7349.2375
3115.64255	7335.2375
3118.00134	7341.9375
3120.35871	7333.1375
3122.71466	7322.7375
3125.06917	7330.2375
3127.42226	7297.8375
3129.77393	7303.4375
3132.12417	7296.9375
3134.47299	7301.7375
3136.82039	7290.1375
3139.16636	7289.5375
3141.51092	7291.0375
3143.85406	7294.6375
3146.19579	7290.4375
3148.53609	7292.1375
3150.87499	7303.5375
3153.21246	7307.0375
3155.54853	7344.0375
3157.88318	7316.8375
3160.21642	7338.1375
3162.54826	7320.6375
3164.87868	7325.9375
3167.2077	7341.1375
3169.5353	7332.7375
3171.86151	7344.3375
3174.18631	7342.8375
3176.5097	7329.5375
3178.83169	7325.1375
3181.15228	7299.6375
3183.47147	7298.4375
3185.78926	7313.7375
3188.10565	7319.5375
3190.42065	7316.8375
3192.73424	7324.3375
3195.04645	7312.7375
3197.35725	7313.7375
3199.66667	7315.1375
3201.97469	7323.3375
3204.28132	7314.0375
3206.58656	7312.0375
3208.8904	7318.6375
3211.19287	7334.2375
3213.49394	7328.1375
3215.79363	7355.8375
3218.09193	7356.5375
3220.38884	7367.1375
3222.68438	7347.2375
3224.97853	7349.0375
3227.2713	7328.1375
3229.56269	7361.8375
3231.8527	7341.2375
3234.14133	7351.2375
3236.42858	7326.9375
3238.71446	7319.9375
3240.99896	7311.0375
3243.28209	7288.4375
3245.56384	7303.2375
3247.84423	7290.6375
3250.12324	7294.1375
3252.40088	7298.4375
3254.67715	7315.3375
3256.95205	7319.5375
3259.22558	7278.9375
3261.49775	7274.0375
3263.76855	7269.5375
3266.03799	7268.7375
3268.30606	7270.0375
3270.57277	7257.4375
3272.83812	7253.2375
3275.10211	7253.3375
3277.36474	7239.9375
3279.62601	7212.7375
3281.88593	7230.8375
3284.14448	7224.6375
3286.40168	7244.9375
3288.65753	7247.4375
3290.91202	7257.1375
3293.16516	7237.2375
3295.41695	7222.9375
3297.66738	7154.2375
3299.91647	7130.6375
3302.16421	7107.4375
3304.4106	7086.8375
3306.65564	7023.4375
3308.89933	6970.7375
3311.14169	6936.0375
3313.38269	6856.8375
3315.62236	6809.3375
3317.86068	6767.0375
3320.09766	6701.4375
3322.3333	6687.7375
3324.5676	6668.0375
3326.80056	6526.7375
3329.03219	6487.9375
3331.26248	2.8375
3333.49143	-0.1625
3335.71905	0.6375
