Data from AgNPs_FTO_APTES_UA_50uM_CRN_100uM_R6G_10uM_NaF_0.1M_Addition_RamanShift__21__15-40-25-043.txt Node

Date: Mon Feb 21 15:40:25 GMT 2022
User: TCL
Spectrometer: QEP01345
Trigger mode: 4
Integration Time (sec): 7.000000E0
Scans to average: 10
Electric dark correction enabled: true
Nonlinearity correction enabled: false
Boxcar width: 0
XAxis mode: Raman Shifts
Number of Pixels in Spectrum: 1044
>>>>>Begin Spectral Data<<<<<
46.04893	0.6
50.45542	0.8
54.85868	0.2
59.25871	-1.5
63.6555	50.5
68.04907	59.8
72.43941	59.4
76.82654	61.2
81.21044	66.5
85.59113	67.8
89.96862	74
94.34289	74.8
98.71396	72.8
103.08183	81.5
107.4465	81.1
111.80798	78
116.16626	79.1
120.52136	80.3
124.87327	91.2
129.222	85.4
133.56755	94.9
137.90993	102.9
142.24913	106.5
146.58517	119
150.91804	137
155.24774	163.5
159.57429	200
163.89768	244.9
168.21792	331.7
172.53501	449.4
176.84895	627.8
181.15975	878.2
185.46741	1230.3
189.77193	1701.4
194.07331	2285.3
198.37157	2950.9
202.6667	3649.4
206.9587	4339.8
211.24758	5027.6
215.53334	5742.2
219.81599	6471.2
224.09553	7318.9
228.37195	8225.1
232.64527	9271.8
236.91549	10324.5
241.18261	11375.3
245.44663	12318.2
249.70755	13136.9
253.96539	13846.9
258.22014	14411.5
262.4718	14875.6
266.72039	15214.8
270.96589	15409.9
275.20832	15394.7
279.44768	15226.9
283.68397	15010.6
287.91719	14772.6
292.14735	14728.3
296.37445	14754.5
300.59849	14972.2
304.81948	15213.1
309.03742	15353.4
313.25231	15204.2
317.46415	14783.6
321.67296	14236.9
325.87872	13791.1
330.08145	13590.7
334.28114	13605.3
338.47781	13793.7
342.67145	14004.2
346.86207	14341.7
351.04966	14795.8
355.23424	15330
359.4158	15764
363.59435	16037.8
367.76989	16214.4
371.94243	16305.4
376.11196	16371.8
380.27849	16435.1
384.44203	16407.8
388.60257	16391.8
392.76012	16409.5
396.91468	16496.1
401.06626	16762.8
405.21485	16980.3
409.36047	16854.9
413.50311	16375.1
417.64277	15945.5
421.77947	15729
425.9132	15643.3
430.04396	15683.2
434.17176	15793.4
438.2966	15993.6
442.41849	16292.5
446.53742	16703.2
450.6534	17112.6
454.76644	17449.3
458.87653	17573.5
462.98368	17471.9
467.08789	17255
471.18916	17006.8
475.2875	16761.9
479.38291	16519.9
483.4754	16420.6
487.56496	16191.3
491.6516	16075.5
495.73531	15986.7
499.81612	15956.8
503.89401	16126
507.96899	16222.9
512.04106	16354.3
516.11023	16418.4
520.1765	16499.8
524.23987	16446.5
528.30034	16366.5
532.35792	16266.5
536.41261	16138
540.46441	15939.9
544.51333	15791.9
548.55936	15835.9
552.60252	16065.5
556.64279	16295.2
560.6802	16445
564.71473	16496.2
568.7464	16741.7
572.7752	16988.4
576.80114	16912.2
580.82422	16793.1
584.84444	16793.4
588.86181	17002.6
592.87633	17332.1
596.888	17557.5
600.89682	17788.4
604.9028	18711.7
608.90594	21413.9
612.90624	24641.1
616.90371	23478.2
620.89834	18880.8
624.89015	16847
628.87913	16542.4
632.86528	16618.1
636.84862	16660.1
640.82913	16463.4
644.80683	16040.5
648.78172	15670.5
652.75379	15653.7
656.72306	15927.3
660.68952	16302.7
664.65319	16273.3
668.61405	15937
672.57211	15855.9
676.52738	15946.9
680.47986	15991.3
684.42955	15873.6
688.37646	15712.8
692.32058	15666.8
696.26192	15714.2
700.20048	15810
704.13626	15877.4
708.06928	15814.2
711.99952	15706.4
715.927	15632.7
719.85171	15696.3
723.77365	15708.8
727.69284	15660.3
731.60928	15614.8
735.52295	15620.3
739.43388	15681.9
743.34206	15732.5
747.24749	15766.8
751.15017	15780
755.05012	15911
758.94733	16337
762.8418	17249
766.73354	18860
770.62254	20609.3
774.50882	21526.8
778.39237	20830.5
782.27321	18925.6
786.15132	17247.7
790.02671	16212.3
793.89938	15730.2
797.76935	15527.2
801.6366	15492.5
805.50115	15430.1
809.36299	15388.1
813.22213	15263.8
817.07857	15203.1
820.93231	15187.1
824.78336	15175.5
828.63172	15176
832.47738	15178.8
836.32036	15189.4
840.16066	15226.6
843.99827	15241.4
847.8332	15263.5
851.66546	15192.1
855.49504	15162.5
859.32195	15218.4
863.1462	15240.9
866.96777	15211.7
870.78668	15201.4
874.60293	15207.3
878.41652	15198.8
882.22745	15281.6
886.03573	15291.4
889.84136	15281.9
893.64433	15206.2
897.44466	15108.8
901.24235	15056.9
905.0374	14983.4
908.8298	14918.3
912.61957	14893.6
916.40671	14952.9
920.19121	15055.3
923.97308	15224.7
927.75233	15335.8
931.52895	15424.1
935.30295	15352.3
939.07433	15060.6
942.84309	14819.5
946.60924	14702.2
950.37278	14641.3
954.13371	14561
957.89203	14458.1
961.64774	14399.3
965.40086	14360.9
969.15137	14274.6
972.89929	14218
976.64461	14213.6
980.38733	14234.4
984.12747	14283.8
987.86502	14389.6
991.59999	14558.1
995.33237	14788.7
999.06217	15166.4
1002.78939	15593.2
1006.51404	15811.6
1010.23611	15948.1
1013.95561	16065.4
1017.67255	16092.3
1021.38692	15969.2
1025.09872	15855.2
1028.80796	15944.5
1032.51465	16310.8
1036.21877	16719.8
1039.92035	16771.2
1043.61937	16636.9
1047.31584	16295.8
1051.00976	15881.2
1054.70114	15675.9
1058.38998	15587.5
1062.07627	15546.4
1065.76003	15590.2
1069.44126	15575.4
1073.11995	15632.9
1076.79611	15745.8
1080.46974	15868
1084.14085	16089.8
1087.80943	16283.8
1091.47549	16400.5
1095.13903	16316.1
1098.80005	16044
1102.45857	15833.4
1106.11456	15723.6
1109.76805	15832.3
1113.41903	16055.7
1117.06751	16357
1120.71348	16709.6
1124.35696	17026.6
1127.99793	17414.6
1131.63641	17402.4
1135.2724	17101.5
1138.90589	16704.5
1142.5369	16426.2
1146.16542	16172.8
1149.79145	16015.9
1153.415	15951.3
1157.03607	16067.8
1160.65467	16337.8
1164.27079	16803.9
1167.88443	17527.1
1171.49561	18473.5
1175.10432	19869.4
1178.71056	21719.4
1182.31434	23480
1185.91565	24225.3
1189.51451	23926.3
1193.11091	22865.2
1196.70485	21598.6
1200.29634	20586.3
1203.88538	19814.5
1207.47197	19050.1
1211.05612	18366.6
1214.63782	17915.6
1218.21708	17853
1221.79391	17870.1
1225.36829	17988.6
1228.94024	17904.6
1232.50976	17631.5
1236.07685	17422
1239.6415	17320.7
1243.20374	17338.6
1246.76355	17475.5
1250.32093	17688.8
1253.8759	18006.7
1257.42845	18467.4
1260.97859	18857
1264.52631	19270.9
1268.07163	19770.7
1271.61453	20279.2
1275.15503	20818.1
1278.69312	21283.3
1282.22882	21638.6
1285.76211	21981.3
1289.29301	22316.2
1292.82151	22895.2
1296.34761	23652
1299.87133	24744.2
1303.39266	26394.3
1306.9116	28598.6
1310.42815	30884.8
1313.94233	32014.6
1317.45412	31403.3
1320.96354	29861.5
1324.47058	28164.7
1327.97525	26676.2
1331.47754	25770.5
1334.97747	25411.6
1338.47502	25532.5
1341.97022	26013.6
1345.46305	26636.2
1348.95352	27330.7
1352.44163	28338.3
1355.92738	30017.1
1359.41078	32616.9
1362.89183	34942.7
1366.37053	33981.9
1369.84688	29902.5
1373.32088	25689.6
1376.79254	23016.1
1380.26186	21697.6
1383.72883	21086.9
1387.19347	20712.8
1390.65578	20230.4
1394.11575	19958.8
1397.57339	20028.8
1401.0287	20267.2
1404.48168	20549.7
1407.93234	20746.2
1411.38068	20840.1
1414.82669	20766.1
1418.27039	20456.4
1421.71177	20028.4
1425.15083	19526.7
1428.58758	19266
1432.02203	19317.1
1435.45416	19509.6
1438.88399	19721.5
1442.31151	19874.1
1445.73673	20040.9
1449.15965	20208.8
1452.58027	20313.9
1455.9986	20302
1459.41463	20361.9
1462.82837	20610
1466.23982	20967.1
1469.64898	21359.8
1473.05586	21686.9
1476.46045	21816.2
1479.86276	21897.3
1483.26279	21932.1
1486.66054	22023.5
1490.05602	22328.6
1493.44922	22767.3
1496.84016	23433.4
1500.22882	24517.4
1503.61521	26239.7
1506.99934	28310.5
1510.38121	30091.8
1513.76081	30412.4
1517.13816	28947.5
1520.51324	26487.8
1523.88607	24201.8
1527.25665	22788.5
1530.62498	21989
1533.99105	21486.9
1537.35488	21183
1540.71647	21015.9
1544.07581	20892.1
1547.4329	20793.8
1550.78776	20719.6
1554.14038	20657.2
1557.49077	20745.3
1560.83892	20919.8
1564.18484	21100.4
1567.52853	21368.6
1570.86999	21560.6
1574.20922	21698
1577.54624	21651
1580.88103	21134.1
1584.2136	20479
1587.54395	20327.3
1590.87208	20870.8
1594.19801	22022.2
1597.52172	23421.8
1600.84321	24131.6
1604.16251	23550.6
1607.47959	22201
1610.79447	20661.5
1614.10715	19239.2
1617.41763	18035.2
1620.7259	17234.3
1624.03199	16853.7
1627.33587	16888.8
1630.63757	17236.7
1633.93707	17953.4
1637.23439	19163.9
1640.52951	20731.3
1643.82246	22691.1
1647.11321	24623
1650.40179	25478.6
1653.68819	24342.6
1656.97241	21628.2
1660.25446	18840.7
1663.53433	16858
1666.81203	15681.5
1670.08756	14968.7
1673.36092	14523.4
1676.63211	14234
1679.90115	14023.7
1683.16801	13835.8
1686.43272	13754.7
1689.69527	13619
1692.95567	13459.2
1696.2139	13330.7
1699.46999	13188.5
1702.72392	13137
1705.97571	13198.5
1709.22535	13298.7
1712.47284	13352
1715.71819	13344.2
1718.96139	13334.9
1722.20246	13306.8
1725.44139	13260.8
1728.67818	13208.6
1731.91284	13135.1
1735.14537	13110.7
1738.37576	13048.1
1741.60403	13002.3
1744.83017	12977.5
1748.05418	12945.1
1751.27607	12926.3
1754.49584	12839
1757.71349	12779.5
1760.92903	12716
1764.14244	12670.2
1767.35375	12674.9
1770.56294	12620.5
1773.77002	12605.2
1776.97499	12645.6
1780.17785	12658.3
1783.37861	12681.9
1786.57727	12702.8
1789.77382	12685.6
1792.96828	12645.2
1796.16064	12636.8
1799.3509	12668.6
1802.53907	12596.2
1805.72514	12593.5
1808.90913	12552.3
1812.09102	12514.9
1815.27083	12491.3
1818.44856	12504.9
1821.6242	12493.3
1824.79776	12438.4
1827.96924	12444.8
1831.13864	12453.4
1834.30597	12418.5
1837.47122	12414.3
1840.6344	12399.2
1843.7955	12387.8
1846.95454	12380.7
1850.11151	12372.9
1853.26642	12367.7
1856.41926	12386.3
1859.57004	12353.7
1862.71876	12368.4
1865.86542	12334.1
1869.01003	12339.4
1872.15258	12346.4
1875.29308	12348
1878.43152	12326.7
1881.56792	12329.8
1884.70227	12320.2
1887.83457	12316.1
1890.96482	12278.7
1894.09304	12307.7
1897.21921	12271
1900.34335	12292.7
1903.46544	12240.4
1906.58551	12241.8
1909.70353	12227.7
1912.81953	12267.1
1915.93349	12235.5
1919.04543	12215.4
1922.15534	12186.5
1925.26322	12167.2
1928.36908	12133.5
1931.47292	12132.4
1934.57473	12081.3
1937.67453	12079.7
1940.77232	12039.4
1943.86808	11997
1946.96184	11970.9
1950.05358	11941
1953.14331	11910.4
1956.23103	11856.1
1959.31675	11822.3
1962.40046	11814.5
1965.48217	11791.2
1968.56188	11767.9
1971.63959	11732.8
1974.7153	11672.1
1977.78901	11663.9
1980.86073	11620.4
1983.93046	11570.4
1986.99819	11557.8
1990.06394	11522.7
1993.1277	11483
1996.18947	11418.4
1999.24925	11403.9
2002.30706	11373.8
2005.36288	11326.9
2008.41672	11340.5
2011.46859	11288
2014.51848	11260.3
2017.56639	11235
2020.61233	11198.7
2023.6563	11195.4
2026.6983	11164.9
2029.73833	11149.9
2032.7764	11115.2
2035.8125	11088.1
2038.84664	11097
2041.87881	11115.1
2044.90903	11070.9
2047.93729	11032.5
2050.96359	11026.6
2053.98794	11026.4
2057.01034	11024.7
2060.03078	11022.1
2063.04927	10974.2
2066.06582	10985.7
2069.08042	10975.1
2072.09307	10963.4
2075.10378	10949.5
2078.11255	10946.1
2081.11938	10929.7
2084.12426	10931.5
2087.12722	10932.6
2090.12824	10916.3
2093.12732	10917.6
2096.12447	10934.8
2099.11969	10931.7
2102.11299	10911.6
2105.10435	10898.4
2108.09379	10913.6
2111.08131	10920.9
2114.0669	10931.9
2117.05057	10933.5
2120.03233	10939.4
2123.01216	10991.1
2125.99008	10982
2128.96609	10973.4
2131.94018	11013
2134.91236	11022.9
2137.88263	11026.8
2140.851	11027.5
2143.81746	11032
2146.78201	11007.7
2149.74466	11043.9
2152.7054	11048.6
2155.66425	11026.3
2158.6212	11005.4
2161.57625	11024.4
2164.52941	11032.4
2167.48067	11013.4
2170.43004	11011.1
2173.37752	11017.6
2176.32311	10999.1
2179.26681	11006
2182.20863	10973.5
2185.14856	11027.7
2188.08661	11012
2191.02278	11058.6
2193.95707	11001.1
2196.88948	10996.6
2199.82001	11019
2202.74867	11017.9
2205.67545	11030.4
2208.60037	11005
2211.52341	11007.4
2214.44458	10957.1
2217.36388	10967.3
2220.28132	10971.4
2223.1969	10925.2
2226.11061	10910.4
2229.02246	10910.2
2231.93245	10886.5
2234.84058	10862.1
2237.74686	10834.1
2240.65128	10840.5
2243.55385	10827.4
2246.45456	10816.9
2249.35343	10796.3
2252.25044	10770.9
2255.14561	10767.6
2258.03893	10758.1
2260.93041	10738.9
2263.82004	10709.6
2266.70783	10678.9
2269.59378	10654.2
2272.4779	10681.2
2275.36017	10607.7
2278.24061	10619.3
2281.11922	10568.9
2283.996	10576
2286.87094	10581.8
2289.74405	10549.3
2292.61534	10537.2
2295.4848	10506.4
2298.35243	10514.8
2301.21824	10528.6
2304.08223	10550.8
2306.94439	10524.4
2309.80474	10520.1
2312.66327	10556.4
2315.51999	10537.4
2318.37489	10517.6
2321.22797	10523.3
2324.07925	10531.7
2326.92871	10518.2
2329.77637	10506
2332.62222	10484.5
2335.46626	10495.3
2338.3085	10465.7
2341.14893	10485.5
2343.98756	10486.8
2346.8244	10478.3
2349.65943	10500.8
2352.49267	10516.2
2355.32411	10513.4
2358.15376	10463.3
2360.98161	10468.9
2363.80768	10454.7
2366.63195	10443.7
2369.45444	10445.3
2372.27514	10393.4
2375.09405	10407.7
2377.91118	10410.5
2380.72652	10378.9
2383.54009	10326
2386.35187	10329.9
2389.16188	10309.3
2391.97011	10274.3
2394.77657	10206.2
2397.58125	10221.3
2400.38416	10210.3
2403.18529	10225.4
2405.98466	10189.5
2408.78226	10171.5
2411.57809	10138.9
2414.37216	10120.1
2417.16446	10119.1
2419.955	10100
2422.74378	10088.4
2425.5308	10086
2428.31606	10092
2431.09956	10080.1
2433.88131	10064.8
2436.6613	10091.6
2439.43954	10064.3
2442.21603	10054.3
2444.99077	10055.2
2447.76377	10084.7
2450.53501	10060.3
2453.30451	10082.4
2456.07226	10044.5
2458.83827	10036.7
2461.60254	10028.8
2464.36507	10031.7
2467.12586	10020.5
2469.88492	10042.8
2472.64224	10045.3
2475.39782	10031.3
2478.15167	10040.1
2480.90379	10042.3
2483.65417	10073.4
2486.40283	10084.1
2489.14976	10072.5
2491.89497	10063.3
2494.63845	10071.9
2497.3802	10015
2500.12024	10048.5
2502.85855	10059.4
2505.59514	10036.3
2508.33002	10025.8
2511.06318	9999.5
2513.79462	9995.6
2516.52435	9974.6
2519.25237	9936.9
2521.97867	9931
2524.70327	9919.3
2527.42616	9930.1
2530.14734	9899.4
2532.86681	9915.2
2535.58458	9911.6
2538.30065	9912.8
2541.01501	9902
2543.72768	9879.4
2546.43864	9871.9
2549.14791	9860.1
2551.85548	9870
2554.56136	9834.1
2557.26554	9847.5
2559.96803	9815.3
2562.66883	9813.9
2565.36794	9835.1
2568.06536	9803.7
2570.7611	9785.9
2573.45514	9775.3
2576.14751	9766.2
2578.83819	9754.8
2581.52719	9758.1
2584.21451	9756
2586.90015	9729.3
2589.58411	9710.8
2592.2664	9720.1
2594.94701	9705.6
2597.62594	9720.1
2600.30321	9708.1
2602.9788	9713.1
2605.65273	9668.1
2608.32498	9700.5
2610.99557	9697.5
2613.66449	9703.2
2616.33175	9695.4
2618.99734	9730.6
2621.66128	9708.2
2624.32355	9705.4
2626.98416	9683.2
2629.64311	9705.1
2632.30041	9672.2
2634.95605	9686.8
2637.61004	9650.5
2640.26238	9638.4
2642.91306	9632.4
2645.56209	9622.8
2648.20948	9603.8
2650.85521	9598.3
2653.4993	9610.9
2656.14175	9580.3
2658.78255	9589.7
2661.42171	9595.4
2664.05923	9607.9
2666.6951	9623.2
2669.32934	9634
2671.96194	9638.2
2674.59291	9653.2
2677.22224	9626.2
2679.84993	9644.9
2682.476	9614.5
2685.10043	9610.5
2687.72324	9586.7
2690.34441	9596.2
2692.96396	9581.3
2695.58188	9616
2698.19818	9580.8
2700.81285	9558.9
2703.4259	9547.2
2706.03733	9500.3
2708.64714	9524.7
2711.25533	9556
2713.86191	9564.8
2716.46687	9586.5
2719.07021	9597.5
2721.67194	9612.7
2724.27206	9592.6
2726.87057	9592.8
2729.46747	9607.4
2732.06276	9645.6
2734.65644	9603.8
2737.24852	9603.7
2739.83899	9599.7
2742.42786	9602.7
2745.01513	9572.1
2747.60079	9568.9
2750.18486	9572.9
2752.76733	9567.5
2755.3482	9562.2
2757.92747	9556.2
2760.50515	9560.4
2763.08123	9543.5
2765.65573	9535
2768.22863	9533.9
2770.79994	9496.7
2773.36967	9508.2
2775.9378	9505.7
2778.50435	9480.6
2781.06932	9517.5
2783.6327	9511.4
2786.1945	9510.9
2788.75471	9502.3
2791.31335	9449.2
2793.87041	9451
2796.42589	9435
2798.97979	9436.3
2801.53212	9422.4
2804.08288	9399.5
2806.63206	9391.5
2809.17967	9382.1
2811.72571	9367.4
2814.27018	9335
2816.81308	9339.6
2819.35442	9370.2
2821.89419	9372.1
2824.43239	9337.2
2826.96904	9327.1
2829.50412	9331.9
2832.03763	9327.8
2834.56959	9339
2837.1	9322.3
2839.62884	9327.4
2842.15613	9308.5
2844.68186	9314.9
2847.20604	9308.7
2849.72867	9321.9
2852.24974	9329.8
2854.76927	9298.8
2857.28724	9278.2
2859.80367	9276.6
2862.31855	9280.7
2864.83189	9245.2
2867.34368	9270.8
2869.85393	9267
2872.36264	9274.7
2874.8698	9307.9
2877.37543	9281.8
2879.87952	9295.2
2882.38207	9280.9
2884.88308	9261.1
2887.38256	9301
2889.88051	9266.2
2892.37692	9276
2894.8718	9277.7
2897.36515	9309.1
2899.85698	9333.1
2902.34727	9343.7
2904.83604	9351.2
2907.32328	9361.5
2909.809	9368.2
2912.29319	9373.6
2914.77587	9404.9
2917.25702	9383.8
2919.73665	9353.2
2922.21476	9365.7
2924.69136	9357
2927.16644	9364.1
2929.64	9357.4
2932.11205	9339.7
2934.58258	9291.9
2937.05161	9301.8
2939.51912	9298.4
2941.98513	9304.1
2944.44962	9269.9
2946.91261	9269.1
2949.37409	9283.1
2951.83407	9254.2
2954.29254	9274.8
2956.74951	9244.7
2959.20498	9224.5
2961.65895	9201.5
2964.11142	9186.4
2966.56239	9158.8
2969.01186	9174
2971.45984	9146
2973.90632	9130.8
2976.35131	9113.4
2978.7948	9093.8
2981.23681	9082.6
2983.67732	9081.5
2986.11635	9046.3
2988.55388	9026
2990.98993	9002.5
2993.4245	8996.3
2995.85758	8993.7
2998.28917	8948.8
3000.71928	8944.1
3003.14791	8932.2
3005.57506	8936.5
3008.00073	8917.4
3010.42493	8923.2
3012.84764	8912.7
3015.26888	8905.8
3017.68865	8866.9
3020.10694	8867.9
3022.52376	8831.4
3024.9391	8852.9
3027.35298	8797.5
3029.76539	8805.7
3032.17632	8783.7
3034.5858	8784.2
3036.9938	8762.5
3039.40034	8761.8
3041.80542	8779.6
3044.20903	8753.7
3046.61118	8758.9
3049.01187	8720.7
3051.4111	8732.2
3053.80888	8705.6
3056.20519	8682.2
3058.60005	8683.9
3060.99345	8658.5
3063.3854	8638.9
3065.7759	8606.9
3068.16494	8603.4
3070.55254	8584.3
3072.93868	8541.5
3075.32338	8542.6
3077.70662	8532.6
3080.08842	8512.4
3082.46878	8501.5
3084.84769	8472.8
3087.22515	8476.1
3089.60118	8489.2
3091.97576	8453.5
3094.3489	8491.2
3096.72061	8495.6
3099.09087	8484.2
3101.4597	8481.8
3103.82709	8479.2
3106.19305	8495.9
3108.55757	8503
3110.92066	8462.4
3113.28232	8462.2
3115.64255	8422.7
3118.00134	8442.5
3120.35871	8418.5
3122.71466	8421.8
3125.06917	8393.4
3127.42226	8408.7
3129.77393	8394.8
3132.12417	8391
3134.47299	8379.2
3136.82039	8355.1
3139.16636	8385.3
3141.51092	8376.7
3143.85406	8365.8
3146.19579	8358.7
3148.53609	8372.4
3150.87499	8391.7
3153.21246	8380.8
3155.54853	8429.3
3157.88318	8395.7
3160.21642	8396.9
3162.54826	8421
3164.87868	8406.1
3167.2077	8392.8
3169.5353	8390.4
3171.86151	8423.7
3174.18631	8397
3176.5097	8412.8
3178.83169	8394.3
3181.15228	8394.1
3183.47147	8371.4
3185.78926	8407.9
3188.10565	8405
3190.42065	8385.8
3192.73424	8398.9
3195.04645	8383.4
3197.35725	8378.1
3199.66667	8358.5
3201.97469	8390.4
3204.28132	8356.6
3206.58656	8378
3208.8904	8410.7
3211.19287	8403.8
3213.49394	8409.6
3215.79363	8395.8
3218.09193	8414.9
3220.38884	8410.9
3222.68438	8412.9
3224.97853	8406
3227.2713	8404
3229.56269	8401.2
3231.8527	8394.2
3234.14133	8385.9
3236.42858	8351.9
3238.71446	8369.3
3240.99896	8345.7
3243.28209	8337.2
3245.56384	8327.2
3247.84423	8325.4
3250.12324	8331.1
3252.40088	8330.5
3254.67715	8330.9
3256.95205	8318.9
3259.22558	8341.5
3261.49775	8302.6
3263.76855	8311.6
3266.03799	8312.3
3268.30606	8286.4
3270.57277	8273.4
3272.83812	8293.9
3275.10211	8273.1
3277.36474	8251.6
3279.62601	8253.7
3281.88593	8240.4
3284.14448	8257.9
3286.40168	8239.6
3288.65753	8241.1
3290.91202	8228.6
3293.16516	8230.9
3295.41695	8198.3
3297.66738	8161
3299.91647	8132.8
3302.16421	8079.8
3304.4106	8060.6
3306.65564	7988.7
3308.89933	7950.2
3311.14169	7899.1
3313.38269	7815.2
3315.62236	7805.8
3317.86068	7727.9
3320.09766	7661.5
3322.3333	7622.3
3324.5676	7602.1
3326.80056	7450.9
3329.03219	7438.7
3331.26248	1.9
3333.49143	-1.3
3335.71905	-0.4
