Data from AgNPs_FTO_APTES_UA_50uM_CRN_10uM_R6G_10uM_NaF_0.1M_Addition_RamanShift__11__13-26-14-873.txt Node

Date: Mon Feb 21 13:26:14 GMT 2022
User: TCL
Spectrometer: QEP01345
Trigger mode: 4
Integration Time (sec): 7.000000E0
Scans to average: 10
Electric dark correction enabled: true
Nonlinearity correction enabled: false
Boxcar width: 0
XAxis mode: Raman Shifts
Number of Pixels in Spectrum: 1044
>>>>>Begin Spectral Data<<<<<
46.04893	1.2
50.45542	-0.7
54.85868	-0.9
59.25871	-2.8
63.6555	62.7
68.04907	67.1
72.43941	67.6
76.82654	71.6
81.21044	76.4
85.59113	81.7
89.96862	80.6
94.34289	85.4
98.71396	85.4
103.08183	93.5
107.4465	91.3
111.80798	93
116.16626	95.1
120.52136	91.4
124.87327	104.9
129.222	104.1
133.56755	106.6
137.90993	124.5
142.24913	130.4
146.58517	142.8
150.91804	167.2
155.24774	194.5
159.57429	243.6
163.89768	306.5
168.21792	416.4
172.53501	559.2
176.84895	780.6
181.15975	1088
185.46741	1527.7
189.77193	2117
194.07331	2825.2
198.37157	3643.2
202.6667	4495
206.9587	5351.3
211.24758	6177.1
215.53334	6989.1
219.81599	7846.7
224.09553	8815.5
228.37195	9884.2
232.64527	11084
236.91549	12320.8
241.18261	13610.8
245.44663	14805.3
249.70755	15876.9
253.96539	16742.1
258.22014	17466.9
262.4718	18034.4
266.72039	18427.8
270.96589	18541.8
275.20832	18549.7
279.44768	18378.2
283.68397	18126.1
287.91719	17939.2
292.14735	17770.6
296.37445	17685.6
300.59849	17670.1
304.81948	17657.9
309.03742	17673
313.25231	17580.3
317.46415	17417.8
321.67296	17117.4
325.87872	16911.2
330.08145	16813.6
334.28114	16886.7
338.47781	16962.6
342.67145	17123.7
346.86207	17419.6
351.04966	17699.3
355.23424	18054.2
359.4158	18313.3
363.59435	18461.5
367.76989	18563
371.94243	18641.5
376.11196	18676.9
380.27849	18700.2
384.44203	18770.4
388.60257	18903.6
392.76012	19127.2
396.91468	19339
401.06626	19647.8
405.21485	19833.8
409.36047	19746.1
413.50311	19427.9
417.64277	19274.6
421.77947	19326.4
425.9132	19429.3
430.04396	19571
434.17176	19675.7
438.2966	19852.8
442.41849	20181.7
446.53742	20665.5
450.6534	21153.8
454.76644	21474.3
458.87653	21594.4
462.98368	21575.5
467.08789	21408
471.18916	21127.2
475.2875	20815.2
479.38291	20586.1
483.4754	20424.2
487.56496	20255
491.6516	20080.4
495.73531	19911.2
499.81612	19811.1
503.89401	19969.9
507.96899	20034.7
512.04106	20017.3
516.11023	19967.7
520.1765	19871.1
524.23987	19687.7
528.30034	19615.1
532.35792	19474.1
536.41261	19309.7
540.46441	19105
544.51333	19063.4
548.55936	19235.6
552.60252	19548.3
556.64279	19944.4
560.6802	20272.1
564.71473	20388.7
568.7464	20701.3
572.7752	21300.5
576.80114	22021.1
580.82422	22641.6
584.84444	23378.2
588.86181	24392
592.87633	25655.2
596.888	26170
600.89682	25357.6
604.9028	24732.1
608.90594	25500.4
612.90624	26496.2
616.90371	24787.3
620.89834	21539.4
624.89015	20177.9
628.87913	20031.7
632.86528	20235.2
636.84862	20306.3
640.82913	19958.2
644.80683	19473.3
648.78172	19177.6
652.75379	19102.1
656.72306	19357.7
660.68952	19653.4
664.65319	19557.9
668.61405	19248.4
672.57211	19233.8
676.52738	19375.6
680.47986	19389.3
684.42955	19294.2
688.37646	19215.2
692.32058	19291.3
696.26192	19463.1
700.20048	19663.3
704.13626	19795.4
708.06928	19835.3
711.99952	19744.1
715.927	19717.5
719.85171	19722.9
723.77365	19628.5
727.69284	19434.6
731.60928	19169.6
735.52295	19095.6
739.43388	19151.4
743.34206	19236.2
747.24749	19386.6
751.15017	19577.9
755.05012	19889.6
758.94733	20357.9
762.8418	21257.9
766.73354	22613.2
770.62254	23915.8
774.50882	24098.8
778.39237	23163.1
782.27321	21786.2
786.15132	20626.4
790.02671	19962.4
793.89938	19520.1
797.76935	19270.9
801.6366	19150.9
805.50115	19027.9
809.36299	18947.5
813.22213	18812
817.07857	18758.2
820.93231	18718.5
824.78336	18653.1
828.63172	18619.6
832.47738	18562
836.32036	18548.6
840.16066	18570.5
843.99827	18565
847.8332	18562.3
851.66546	18627.7
855.49504	18666.8
859.32195	18675.7
863.1462	18634.9
866.96777	18590.1
870.78668	18620
874.60293	18627.4
878.41652	18666.8
882.22745	18766.7
886.03573	18819.8
889.84136	18806.6
893.64433	18783
897.44466	18746.7
901.24235	18718.7
905.0374	18702.1
908.8298	18653.9
912.61957	18615.7
916.40671	18763.7
920.19121	18971.2
923.97308	19231.4
927.75233	19279.1
931.52895	19114.7
935.30295	18793.2
939.07433	18455.4
942.84309	18213.7
946.60924	18107.4
950.37278	18054.2
954.13371	18041.8
957.89203	18050.7
961.64774	18028.9
965.40086	17985.6
969.15137	18011
972.89929	17958.1
976.64461	17926.6
980.38733	17884.6
984.12747	17904.9
987.86502	17952.8
991.59999	18069.6
995.33237	18207.6
999.06217	18487.8
1002.78939	18843.6
1006.51404	19273.8
1010.23611	19676.7
1013.95561	19904.9
1017.67255	19933.6
1021.38692	19779.6
1025.09872	19420.1
1028.80796	19128.4
1032.51465	19012.2
1036.21877	18950.7
1039.92035	19019.8
1043.61937	19049.5
1047.31584	19107.8
1051.00976	19173.7
1054.70114	19236.8
1058.38998	19323.1
1062.07627	19495.7
1065.76003	19731.4
1069.44126	20001.3
1073.11995	20362.2
1076.79611	20656.9
1080.46974	20822.4
1084.14085	20996.4
1087.80943	21224.9
1091.47549	21407.9
1095.13903	21492.2
1098.80005	21236.7
1102.45857	20825.3
1106.11456	20454.4
1109.76805	20277.2
1113.41903	20253.6
1117.06751	20350.3
1120.71348	20579.7
1124.35696	20772
1127.99793	21016
1131.63641	21140.2
1135.2724	21114.9
1138.90589	21098
1142.5369	21167.7
1146.16542	21341.5
1149.79145	21471.6
1153.415	21738.6
1157.03607	21977.5
1160.65467	22406.4
1164.27079	23101.5
1167.88443	24040.1
1171.49561	25297.7
1175.10432	26826.8
1178.71056	28617.9
1182.31434	30406.3
1185.91565	31332.2
1189.51451	31378.1
1193.11091	31017.1
1196.70485	30099
1200.29634	28957.3
1203.88538	27936.3
1207.47197	27253.4
1211.05612	26767.2
1214.63782	26285.1
1218.21708	25780.6
1221.79391	25413
1225.36829	25270.1
1228.94024	25095.6
1232.50976	24782.1
1236.07685	24464.1
1239.6415	24162.2
1243.20374	24069.1
1246.76355	24063
1250.32093	24281.5
1253.8759	24708.5
1257.42845	25284.6
1260.97859	26021.2
1264.52631	26856.2
1268.07163	27656.3
1271.61453	28366.4
1275.15503	29046.3
1278.69312	29837.3
1282.22882	30695.2
1285.76211	31722
1289.29301	32781.3
1292.82151	34054.3
1296.34761	35499
1299.87133	37234.6
1303.39266	38928.3
1306.9116	40427.1
1310.42815	41561.4
1313.94233	42164.3
1317.45412	41851.2
1320.96354	41166
1324.47058	40436.4
1327.97525	39808.6
1331.47754	39466.5
1334.97747	39265.2
1338.47502	39170.1
1341.97022	39181.1
1345.46305	39248.1
1348.95352	39260.5
1352.44163	39360.5
1355.92738	39901.7
1359.41078	40914.9
1362.89183	41909.5
1366.37053	41544.5
1369.84688	39002.1
1373.32088	35430.2
1376.79254	32761.5
1380.26186	31554.1
1383.72883	31256
1387.19347	31065.6
1390.65578	30627
1394.11575	30384.7
1397.57339	30431.5
1401.0287	30624.5
1404.48168	30794.2
1407.93234	30662.1
1411.38068	30209.5
1414.82669	29546.1
1418.27039	28730.7
1421.71177	27842
1425.15083	27108.4
1428.58758	26755.9
1432.02203	26876.2
1435.45416	27326.2
1438.88399	27822.6
1442.31151	28269.2
1445.73673	28517.4
1449.15965	28729.7
1452.58027	28917.7
1455.9986	29004.3
1459.41463	29253.8
1462.82837	29781.2
1466.23982	30400.4
1469.64898	30911.4
1473.05586	31279.3
1476.46045	31464.6
1479.86276	31538.1
1483.26279	31490.1
1486.66054	31565.6
1490.05602	31863
1493.44922	32397.9
1496.84016	33039.8
1500.22882	33780
1503.61521	34460.8
1506.99934	35226.6
1510.38121	35658.7
1513.76081	35417
1517.13816	34753.4
1520.51324	33981.9
1523.88607	33363.5
1527.25665	33093
1530.62498	32947.5
1533.99105	32654.7
1537.35488	31944.3
1540.71647	31154.5
1544.07581	30257.2
1547.4329	29472
1550.78776	28897.1
1554.14038	28609.1
1557.49077	28473.4
1560.83892	28510
1564.18484	28640.1
1567.52853	28744.9
1570.86999	28918.6
1574.20922	29329.6
1577.54624	29634.8
1580.88103	29590.6
1584.2136	29601.2
1587.54395	30174.7
1590.87208	31281.7
1594.19801	32909.6
1597.52172	34335
1600.84321	34696.2
1604.16251	33367
1607.47959	31123.1
1610.79447	28811
1614.10715	26718.2
1617.41763	24935.5
1620.7259	23699.9
1624.03199	23097.5
1627.33587	23087.7
1630.63757	23683.4
1633.93707	25078.6
1637.23439	27560.5
1640.52951	31069
1643.82246	35240.1
1647.11321	38430
1650.40179	38888.4
1653.68819	36095.6
1656.97241	31465.2
1660.25446	27108.4
1663.53433	23844.4
1666.81203	21752.8
1670.08756	20478.1
1673.36092	19671.8
1676.63211	19157.8
1679.90115	18815.3
1683.16801	18555.3
1686.43272	18311.7
1689.69527	18100.2
1692.95567	17920
1696.2139	17756.1
1699.46999	17572
1702.72392	17491.4
1705.97571	17535.3
1709.22535	17576.6
1712.47284	17607
1715.71819	17651.9
1718.96139	17570.9
1722.20246	17510.2
1725.44139	17453.2
1728.67818	17355.5
1731.91284	17234.4
1735.14537	17208.2
1738.37576	17115.9
1741.60403	17016.3
1744.83017	16954.5
1748.05418	16895.6
1751.27607	16813.3
1754.49584	16741.4
1757.71349	16687.9
1760.92903	16659.6
1764.14244	16634.4
1767.35375	16640.6
1770.56294	16559.5
1773.77002	16551.4
1776.97499	16558.9
1780.17785	16570.2
1783.37861	16577.8
1786.57727	16562.4
1789.77382	16561.9
1792.96828	16519.7
1796.16064	16509.4
1799.3509	16457
1802.53907	16420.5
1805.72514	16388.3
1808.90913	16352.6
1812.09102	16336.2
1815.27083	16279.4
1818.44856	16285.5
1821.6242	16289.5
1824.79776	16280.8
1827.96924	16324.8
1831.13864	16295.4
1834.30597	16320.5
1837.47122	16304.3
1840.6344	16310.3
1843.7955	16291.7
1846.95454	16314.7
1850.11151	16330.2
1853.26642	16305.8
1856.41926	16282
1859.57004	16252.7
1862.71876	16247.1
1865.86542	16204.6
1869.01003	16208.8
1872.15258	16215.4
1875.29308	16130.3
1878.43152	16148.8
1881.56792	16146.2
1884.70227	16096
1887.83457	16078
1890.96482	16039.7
1894.09304	16004.7
1897.21921	16002
1900.34335	15978.5
1903.46544	15994.5
1906.58551	15948.9
1909.70353	15902.3
1912.81953	15868.7
1915.93349	15826.5
1919.04543	15813.8
1922.15534	15776.2
1925.26322	15719.9
1928.36908	15701.6
1931.47292	15653.1
1934.57473	15610.1
1937.67453	15555.7
1940.77232	15518.2
1943.86808	15461.8
1946.96184	15454.1
1950.05358	15398.8
1953.14331	15343.7
1956.23103	15311.6
1959.31675	15265.2
1962.40046	15224.7
1965.48217	15196.5
1968.56188	15170.6
1971.63959	15085
1974.7153	15040.3
1977.78901	15022.8
1980.86073	14978
1983.93046	14907.6
1986.99819	14880.2
1990.06394	14832.7
1993.1277	14758.8
1996.18947	14724.8
1999.24925	14684.4
2002.30706	14626.4
2005.36288	14578.1
2008.41672	14577.5
2011.46859	14565.4
2014.51848	14499.2
2017.56639	14458
2020.61233	14449.5
2023.6563	14368.7
2026.6983	14319.6
2029.73833	14342.5
2032.7764	14289.2
2035.8125	14252.3
2038.84664	14227.5
2041.87881	14183.8
2044.90903	14148.4
2047.93729	14136.4
2050.96359	14137.2
2053.98794	14123.9
2057.01034	14115.5
2060.03078	14108.1
2063.04927	14101.7
2066.06582	14100.3
2069.08042	14103
2072.09307	14054.7
2075.10378	14060.7
2078.11255	14040.6
2081.11938	14084.3
2084.12426	14071.7
2087.12722	14062.6
2090.12824	14035
2093.12732	14088.2
2096.12447	14099.8
2099.11969	14080.5
2102.11299	14078.3
2105.10435	14076.1
2108.09379	14093.3
2111.08131	14097.6
2114.0669	14098.5
2117.05057	14110.3
2120.03233	14129.7
2123.01216	14140.5
2125.99008	14156.8
2128.96609	14149.6
2131.94018	14156.7
2134.91236	14158.7
2137.88263	14185.3
2140.851	14196.2
2143.81746	14162.7
2146.78201	14171.4
2149.74466	14184.8
2152.7054	14159
2155.66425	14169
2158.6212	14152.1
2161.57625	14124.5
2164.52941	14152.3
2167.48067	14120.9
2170.43004	14097.2
2173.37752	14088.1
2176.32311	14075.8
2179.26681	14120.2
2182.20863	14104
2185.14856	14134.5
2188.08661	14109.3
2191.02278	14095.9
2193.95707	14076.1
2196.88948	14037
2199.82001	14065.9
2202.74867	14013.7
2205.67545	14046.6
2208.60037	14006.3
2211.52341	13951.8
2214.44458	13939.9
2217.36388	13930.5
2220.28132	13883.9
2223.1969	13880.3
2226.11061	13877.7
2229.02246	13841.2
2231.93245	13833.1
2234.84058	13801.9
2237.74686	13791
2240.65128	13768.8
2243.55385	13771.3
2246.45456	13764.2
2249.35343	13726
2252.25044	13715.8
2255.14561	13659.9
2258.03893	13677.1
2260.93041	13614.9
2263.82004	13592.1
2266.70783	13553.3
2269.59378	13549.6
2272.4779	13531
2275.36017	13461.4
2278.24061	13445.6
2281.11922	13426.5
2283.996	13404.6
2286.87094	13380.3
2289.74405	13348.5
2292.61534	13335.7
2295.4848	13318.3
2298.35243	13318.2
2301.21824	13313.8
2304.08223	13324.9
2306.94439	13304.1
2309.80474	13332.7
2312.66327	13283.5
2315.51999	13246
2318.37489	13234.6
2321.22797	13218
2324.07925	13200.2
2326.92871	13195.2
2329.77637	13180.1
2332.62222	13127.6
2335.46626	13116.6
2338.3085	13094.4
2341.14893	13091.5
2343.98756	13080.3
2346.8244	13078.2
2349.65943	13107.4
2352.49267	13077.6
2355.32411	13105.5
2358.15376	13080.9
2360.98161	13095.4
2363.80768	13105.4
2366.63195	13075.8
2369.45444	13066
2372.27514	13082.4
2375.09405	13060
2377.91118	13050.4
2380.72652	13015.1
2383.54009	12966.6
2386.35187	12992.1
2389.16188	12949.3
2391.97011	12904.4
2394.77657	12878.1
2397.58125	12882.7
2400.38416	12845.2
2403.18529	12824.1
2405.98466	12849.5
2408.78226	12781.7
2411.57809	12804.5
2414.37216	12765.8
2417.16446	12764.1
2419.955	12750.7
2422.74378	12730.9
2425.5308	12716.5
2428.31606	12733.3
2431.09956	12744.8
2433.88131	12716.3
2436.6613	12750.8
2439.43954	12700
2442.21603	12679.1
2444.99077	12677.8
2447.76377	12684.3
2450.53501	12683
2453.30451	12677.4
2456.07226	12689.7
2458.83827	12670.2
2461.60254	12667.3
2464.36507	12670.9
2467.12586	12653
2469.88492	12657
2472.64224	12645.4
2475.39782	12638.9
2478.15167	12620.9
2480.90379	12622.3
2483.65417	12637.7
2486.40283	12611.3
2489.14976	12611.4
2491.89497	12624
2494.63845	12606.7
2497.3802	12584.4
2500.12024	12601.7
2502.85855	12597.5
2505.59514	12599.5
2508.33002	12573.7
2511.06318	12528.4
2513.79462	12548.1
2516.52435	12534.2
2519.25237	12553
2521.97867	12530.8
2524.70327	12532.2
2527.42616	12489.3
2530.14734	12531.7
2532.86681	12481
2535.58458	12480.7
2538.30065	12477.1
2541.01501	12456.6
2543.72768	12427.5
2546.43864	12409.6
2549.14791	12417.9
2551.85548	12378.5
2554.56136	12361.9
2557.26554	12356.4
2559.96803	12367.6
2562.66883	12331.6
2565.36794	12394.6
2568.06536	12337.7
2570.7611	12332.9
2573.45514	12304.8
2576.14751	12276.8
2578.83819	12267.6
2581.52719	12281.2
2584.21451	12220.2
2586.90015	12211.1
2589.58411	12205.5
2592.2664	12196.1
2594.94701	12191.5
2597.62594	12207.1
2600.30321	12154.9
2602.9788	12187.3
2605.65273	12132.7
2608.32498	12161.2
2610.99557	12115.2
2613.66449	12127.9
2616.33175	12134.6
2618.99734	12137.8
2621.66128	12093.6
2624.32355	12092.4
2626.98416	12047.4
2629.64311	12045.9
2632.30041	12067.5
2634.95605	12035.4
2637.61004	12034.8
2640.26238	12033.9
2642.91306	11998.3
2645.56209	11990.4
2648.20948	11996.9
2650.85521	12001.2
2653.4993	12030.6
2656.14175	12053.1
2658.78255	12053.8
2661.42171	12061
2664.05923	12075.6
2666.6951	12087.8
2669.32934	12090.3
2671.96194	12068.1
2674.59291	12112.3
2677.22224	12079.3
2679.84993	12090.3
2682.476	12053.8
2685.10043	12065.4
2687.72324	12069.2
2690.34441	12064.4
2692.96396	12055.2
2695.58188	12077.6
2698.19818	12042.6
2700.81285	12049.7
2703.4259	12008.3
2706.03733	11970
2708.64714	11990.7
2711.25533	12027.6
2713.86191	12038.9
2716.46687	12064.2
2719.07021	12074.2
2721.67194	12066.2
2724.27206	12091.2
2726.87057	12114.7
2729.46747	12108.4
2732.06276	12101
2734.65644	12079.3
2737.24852	12108.7
2739.83899	12069.8
2742.42786	12094.4
2745.01513	12072.1
2747.60079	12072.3
2750.18486	12020.1
2752.76733	12036.8
2755.3482	12023.8
2757.92747	12020.2
2760.50515	11964.6
2763.08123	12003.7
2765.65573	11979.6
2768.22863	11984.2
2770.79994	11948.8
2773.36967	11970.4
2775.9378	11959
2778.50435	11967.1
2781.06932	11947.9
2783.6327	11967.1
2786.1945	11930.4
2788.75471	11927
2791.31335	11943
2793.87041	11890.3
2796.42589	11881.2
2798.97979	11860.6
2801.53212	11855.8
2804.08288	11815.7
2806.63206	11776
2809.17967	11763.2
2811.72571	11751
2814.27018	11713.5
2816.81308	11679.7
2819.35442	11669.7
2821.89419	11630.4
2824.43239	11643
2826.96904	11647.1
2829.50412	11638.6
2832.03763	11618.5
2834.56959	11610.6
2837.1	11575.1
2839.62884	11576.9
2842.15613	11554.5
2844.68186	11547.3
2847.20604	11551.5
2849.72867	11560.2
2852.24974	11539
2854.76927	11513.5
2857.28724	11505.2
2859.80367	11500.6
2862.31855	11492.1
2864.83189	11502
2867.34368	11471.9
2869.85393	11488.6
2872.36264	11461.3
2874.8698	11482.1
2877.37543	11458.1
2879.87952	11450.3
2882.38207	11449.8
2884.88308	11421.5
2887.38256	11439.7
2889.88051	11436.1
2892.37692	11460.1
2894.8718	11471.9
2897.36515	11475.4
2899.85698	11455.4
2902.34727	11470.4
2904.83604	11475.5
2907.32328	11498.5
2909.809	11509
2912.29319	11523.3
2914.77587	11497.6
2917.25702	11492.9
2919.73665	11498.2
2922.21476	11510.4
2924.69136	11490.5
2927.16644	11514.4
2929.64	11495.8
2932.11205	11447.7
2934.58258	11422.4
2937.05161	11444.2
2939.51912	11446.6
2941.98513	11446.5
2944.44962	11415.3
2946.91261	11378.1
2949.37409	11386.2
2951.83407	11383.2
2954.29254	11387.2
2956.74951	11370.8
2959.20498	11348.4
2961.65895	11333.5
2964.11142	11319.7
2966.56239	11329.6
2969.01186	11331.9
2971.45984	11284.1
2973.90632	11266.4
2976.35131	11247.7
2978.7948	11251.5
2981.23681	11211.4
2983.67732	11229.7
2986.11635	11146.5
2988.55388	11136.2
2990.98993	11127.8
2993.4245	11122.4
2995.85758	11081.8
2998.28917	11056.6
3000.71928	11046.8
3003.14791	11002.1
3005.57506	11003.1
3008.00073	10937.3
3010.42493	10962.4
3012.84764	10909.1
3015.26888	10895.3
3017.68865	10880.9
3020.10694	10867.6
3022.52376	10841.6
3024.9391	10831.4
3027.35298	10832.2
3029.76539	10800.8
3032.17632	10792.5
3034.5858	10769.7
3036.9938	10782.6
3039.40034	10751.1
3041.80542	10737.5
3044.20903	10719.5
3046.61118	10728.6
3049.01187	10704.6
3051.4111	10692
3053.80888	10701.3
3056.20519	10677.5
3058.60005	10652.1
3060.99345	10622.6
3063.3854	10604.4
3065.7759	10571.9
3068.16494	10555.2
3070.55254	10499.8
3072.93868	10490.4
3075.32338	10459.7
3077.70662	10440.2
3080.08842	10415.5
3082.46878	10383
3084.84769	10400.9
3087.22515	10371.4
3089.60118	10369.4
3091.97576	10380
3094.3489	10380.7
3096.72061	10392
3099.09087	10362.2
3101.4597	10345.6
3103.82709	10339.1
3106.19305	10354.4
3108.55757	10357.6
3110.92066	10312.1
3113.28232	10309.8
3115.64255	10269
3118.00134	10237.5
3120.35871	10235.1
3122.71466	10210.1
3125.06917	10183.2
3127.42226	10166.5
3129.77393	10181.1
3132.12417	10152.2
3134.47299	10167
3136.82039	10148.3
3139.16636	10139.3
3141.51092	10124
3143.85406	10121.2
3146.19579	10145.2
3148.53609	10127.8
3150.87499	10126.7
3153.21246	10141.5
3155.54853	10165.4
3157.88318	10138
3160.21642	10153.9
3162.54826	10152
3164.87868	10142.5
3167.2077	10138.1
3169.5353	10145.2
3171.86151	10153.6
3174.18631	10108.1
3176.5097	10101.3
3178.83169	10111.1
3181.15228	10108.3
3183.47147	10056.6
3185.78926	10022.8
3188.10565	10026.7
3190.42065	10017.4
3192.73424	10016.8
3195.04645	10031.6
3197.35725	10030
3199.66667	10019.6
3201.97469	10017.7
3204.28132	9993.1
3206.58656	10046.6
3208.8904	10014.8
3211.19287	10020.1
3213.49394	10007.7
3215.79363	9976.8
3218.09193	10014.6
3220.38884	10001.9
3222.68438	9987.3
3224.97853	9982.8
3227.2713	9975.5
3229.56269	9983.5
3231.8527	10003
3234.14133	9953.7
3236.42858	9930.8
3238.71446	9918.2
3240.99896	9894.1
3243.28209	9893.2
3245.56384	9824
3247.84423	9851.8
3250.12324	9849.9
3252.40088	9828.1
3254.67715	9825.3
3256.95205	9826.4
3259.22558	9809.3
3261.49775	9814.1
3263.76855	9806.1
3266.03799	9797.9
3268.30606	9761
3270.57277	9738.9
3272.83812	9723.9
3275.10211	9712.6
3277.36474	9712.2
3279.62601	9686.2
3281.88593	9676.5
3284.14448	9686.5
3286.40168	9673.8
3288.65753	9685.1
3290.91202	9666.7
3293.16516	9641.7
3295.41695	9634.5
3297.66738	9596
3299.91647	9542.4
3302.16421	9475.8
3304.4106	9432.3
3306.65564	9352.7
3308.89933	9315.5
3311.14169	9242.9
3313.38269	9152.5
3315.62236	9103.7
3317.86068	9012.4
3320.09766	8939.4
3322.3333	8878
3324.5676	8865.2
3326.80056	8684.9
3329.03219	8629.9
3331.26248	2.3
3333.49143	-0.5
3335.71905	0.3
