Data from AgNPs_FTO_APTES_UA_50uM_CRN_50uM_R6G_10uM_NaF_0.1M_Addition_RamanShift__21__14-57-14-988.txt Node

Date: Mon Feb 21 14:57:14 GMT 2022
User: TCL
Spectrometer: QEP01345
Trigger mode: 4
Integration Time (sec): 7.000000E0
Scans to average: 10
Electric dark correction enabled: true
Nonlinearity correction enabled: false
Boxcar width: 0
XAxis mode: Raman Shifts
Number of Pixels in Spectrum: 1044
>>>>>Begin Spectral Data<<<<<
46.04893	0.7375
50.45542	-1.0625
54.85868	-2.0625
59.25871	-2.5625
63.6555	59.7375
68.04907	67.1375
72.43941	69.6375
76.82654	74.0375
81.21044	74.0375
85.59113	78.8375
89.96862	82.8375
94.34289	86.1375
98.71396	84.6375
103.08183	94.2375
107.4465	90.7375
111.80798	94.3375
116.16626	93.9375
120.52136	94.4375
124.87327	103.7375
129.222	104.4375
133.56755	108.6375
137.90993	116.9375
142.24913	124.3375
146.58517	136.3375
150.91804	154.6375
155.24774	179.6375
159.57429	223.5375
163.89768	276.8375
168.21792	362.6375
172.53501	499.4375
176.84895	691.1375
181.15975	969.4375
185.46741	1349.6375
189.77193	1858.0375
194.07331	2496.9375
198.37157	3215.0375
202.6667	3976.0375
206.9587	4733.2375
211.24758	5480.3375
215.53334	6235.5375
219.81599	7054.2375
224.09553	7951.8375
228.37195	8984.4375
232.64527	10098.8375
236.91549	11286.5375
241.18261	12435.3375
245.44663	13438.1375
249.70755	14320.7375
253.96539	15091.3375
258.22014	15726.3375
262.4718	16237.6375
266.72039	16602.8375
270.96589	16785.0375
275.20832	16745.3375
279.44768	16623.7375
283.68397	16353.4375
287.91719	16172.0375
292.14735	16103.5375
296.37445	16185.0375
300.59849	16419.9375
304.81948	16625.9375
309.03742	16749.6375
313.25231	16618.4375
317.46415	16161.5375
321.67296	15510.3375
325.87872	14962.6375
330.08145	14748.3375
334.28114	14742.6375
338.47781	14911.2375
342.67145	15202.5375
346.86207	15568.2375
351.04966	16069.1375
355.23424	16643.6375
359.4158	17095.0375
363.59435	17396.3375
367.76989	17572.8375
371.94243	17689.4375
376.11196	17733.7375
380.27849	17780.3375
384.44203	17766.7375
388.60257	17765.3375
392.76012	17781.1375
396.91468	17944.0375
401.06626	18221.6375
405.21485	18455.0375
409.36047	18319.4375
413.50311	17783.6375
417.64277	17349.9375
421.77947	17083.2375
425.9132	17018.9375
430.04396	17024.0375
434.17176	17123.4375
438.2966	17314.5375
442.41849	17684.6375
446.53742	18163.7375
450.6534	18619.2375
454.76644	18967.4375
458.87653	19123.6375
462.98368	19060.2375
467.08789	18801.0375
471.18916	18534.0375
475.2875	18211.5375
479.38291	18001.4375
483.4754	17812.3375
487.56496	17625.9375
491.6516	17475.3375
495.73531	17367.3375
499.81612	17363.1375
503.89401	17516.8375
507.96899	17650.3375
512.04106	17726.0375
516.11023	17774.6375
520.1765	17838.0375
524.23987	17786.3375
528.30034	17685.3375
532.35792	17568.3375
536.41261	17444.6375
540.46441	17220.6375
544.51333	17094.7375
548.55936	17137.8375
552.60252	17376.7375
556.64279	17650.2375
560.6802	17783.2375
564.71473	17823.0375
568.7464	18117.2375
572.7752	18384.4375
576.80114	18379.9375
580.82422	18288.0375
584.84444	18354.9375
588.86181	18473.6375
592.87633	18811.0375
596.888	19030.5375
600.89682	19346.7375
604.9028	20507.5375
608.90594	23551.8375
612.90624	27099.2375
616.90371	25634.2375
620.89834	20459.4375
624.89015	18187.1375
628.87913	17849.4375
632.86528	17937.5375
636.84862	17992.4375
640.82913	17785.9375
644.80683	17233.8375
648.78172	16825.1375
652.75379	16771.7375
656.72306	17104.0375
660.68952	17568.6375
664.65319	17458.2375
668.61405	17121.4375
672.57211	17036.9375
676.52738	17133.6375
680.47986	17135.1375
684.42955	16969.9375
688.37646	16839.7375
692.32058	16802.0375
696.26192	16893.9375
700.20048	17045.9375
704.13626	17128.2375
708.06928	17077.8375
711.99952	16876.7375
715.927	16829.7375
719.85171	16897.8375
723.77365	16900.9375
727.69284	16835.1375
731.60928	16771.0375
735.52295	16782.7375
739.43388	16827.0375
743.34206	16888.0375
747.24749	16933.8375
751.15017	16985.8375
755.05012	17139.6375
758.94733	17632.9375
762.8418	18745.3375
766.73354	20633.8375
770.62254	22635.6375
774.50882	23568.7375
778.39237	22723.3375
782.27321	20570.1375
786.15132	18652.7375
790.02671	17475.3375
793.89938	16939.2375
797.76935	16710.9375
801.6366	16636.1375
805.50115	16602.6375
809.36299	16487.4375
813.22213	16382.4375
817.07857	16322.2375
820.93231	16269.7375
824.78336	16265.0375
828.63172	16274.2375
832.47738	16271.9375
836.32036	16297.6375
840.16066	16355.4375
843.99827	16371.3375
847.8332	16347.4375
851.66546	16274.3375
855.49504	16292.4375
859.32195	16308.1375
863.1462	16320.7375
866.96777	16305.7375
870.78668	16277.9375
874.60293	16292.1375
878.41652	16303.4375
882.22745	16382.9375
886.03573	16422.9375
889.84136	16409.6375
893.64433	16319.0375
897.44466	16244.6375
901.24235	16158.9375
905.0374	16089.5375
908.8298	16015.8375
912.61957	15985.0375
916.40671	16047.4375
920.19121	16231.3375
923.97308	16417.0375
927.75233	16528.3375
931.52895	16597.4375
935.30295	16477.7375
939.07433	16180.2375
942.84309	15944.9375
946.60924	15772.9375
950.37278	15675.5375
954.13371	15592.4375
957.89203	15498.0375
961.64774	15432.5375
965.40086	15417.8375
969.15137	15303.9375
972.89929	15285.1375
976.64461	15231.6375
980.38733	15263.5375
984.12747	15327.2375
987.86502	15460.1375
991.59999	15653.5375
995.33237	15940.1375
999.06217	16391.6375
1002.78939	16916.3375
1006.51404	17232.5375
1010.23611	17394.8375
1013.95561	17522.5375
1017.67255	17559.3375
1021.38692	17431.4375
1025.09872	17290.8375
1028.80796	17397.8375
1032.51465	17819.5375
1036.21877	18328.6375
1039.92035	18443.1375
1043.61937	18218.2375
1047.31584	17800.5375
1051.00976	17358.6375
1054.70114	17053.8375
1058.38998	16982.8375
1062.07627	16987.4375
1065.76003	17008.4375
1069.44126	17001.8375
1073.11995	17123.9375
1076.79611	17219.8375
1080.46974	17437.5375
1084.14085	17664.2375
1087.80943	17891.2375
1091.47549	18044.8375
1095.13903	17905.8375
1098.80005	17609.2375
1102.45857	17287.5375
1106.11456	17226.4375
1109.76805	17242.4375
1113.41903	17457.6375
1117.06751	17777.9375
1120.71348	18174.0375
1124.35696	18563.9375
1127.99793	18936.2375
1131.63641	19018.7375
1135.2724	18669.8375
1138.90589	18261.1375
1142.5369	17935.8375
1146.16542	17691.1375
1149.79145	17518.2375
1153.415	17503.6375
1157.03607	17616.1375
1160.65467	17988.2375
1164.27079	18556.2375
1167.88443	19401.0375
1171.49561	20579.3375
1175.10432	22248.1375
1178.71056	24482.9375
1182.31434	26546.3375
1185.91565	27552.7375
1189.51451	27239.5375
1193.11091	26061.4375
1196.70485	24530.0375
1200.29634	23242.7375
1203.88538	22252.8375
1207.47197	21287.8375
1211.05612	20472.0375
1214.63782	19986.7375
1218.21708	19880.5375
1221.79391	19930.7375
1225.36829	20069.0375
1228.94024	20005.7375
1232.50976	19717.6375
1236.07685	19490.5375
1239.6415	19317.3375
1243.20374	19356.9375
1246.76355	19488.4375
1250.32093	19783.2375
1253.8759	20156.7375
1257.42845	20673.8375
1260.97859	21205.7375
1264.52631	21781.2375
1268.07163	22356.5375
1271.61453	23045.2375
1275.15503	23679.8375
1278.69312	24283.4375
1282.22882	24742.2375
1285.76211	25149.1375
1289.29301	25609.1375
1292.82151	26155.7375
1296.34761	27064.9375
1299.87133	28356.5375
1303.39266	30251.4375
1306.9116	32802.7375
1310.42815	35459.8375
1313.94233	36807.2375
1317.45412	36242.5375
1320.96354	34601.3375
1324.47058	32759.9375
1327.97525	31148.9375
1331.47754	30130.8375
1334.97747	29785.5375
1338.47502	29865.7375
1341.97022	30319.1375
1345.46305	30896.4375
1348.95352	31544.1375
1352.44163	32525.0375
1355.92738	34367.4375
1359.41078	37290.6375
1362.89183	39826.3375
1366.37053	38656.4375
1369.84688	34038.9375
1373.32088	29405.0375
1376.79254	26379.7375
1380.26186	24889.9375
1383.72883	24148.9375
1387.19347	23623.5375
1390.65578	23092.2375
1394.11575	22825.4375
1397.57339	22875.1375
1401.0287	23149.0375
1404.48168	23521.3375
1407.93234	23766.0375
1411.38068	23898.4375
1414.82669	23770.8375
1418.27039	23366.5375
1421.71177	22783.1375
1425.15083	22240.1375
1428.58758	21858.8375
1432.02203	21943.8375
1435.45416	22147.7375
1438.88399	22428.5375
1442.31151	22617.3375
1445.73673	22837.1375
1449.15965	23067.8375
1452.58027	23173.8375
1455.9986	23185.3375
1459.41463	23291.7375
1462.82837	23583.0375
1466.23982	24103.1375
1469.64898	24553.1375
1473.05586	24864.0375
1476.46045	25042.6375
1479.86276	25178.4375
1483.26279	25212.5375
1486.66054	25372.7375
1490.05602	25752.4375
1493.44922	26261.2375
1496.84016	27008.5375
1500.22882	28247.7375
1503.61521	30158.9375
1506.99934	32519.6375
1510.38121	34321.9375
1513.76081	34623.8375
1517.13816	32911.3375
1520.51324	30197.1375
1523.88607	27741.6375
1527.25665	26107.2375
1530.62498	25225.4375
1533.99105	24642.6375
1537.35488	24315.2375
1540.71647	24098.6375
1544.07581	23879.8375
1547.4329	23699.9375
1550.78776	23595.0375
1554.14038	23570.9375
1557.49077	23638.3375
1560.83892	23873.0375
1564.18484	24101.1375
1567.52853	24315.6375
1570.86999	24542.8375
1574.20922	24689.3375
1577.54624	24639.4375
1580.88103	24057.7375
1584.2136	23362.5375
1587.54395	23234.4375
1590.87208	23991.0375
1594.19801	25422.2375
1597.52172	27048.6375
1600.84321	27764.4375
1604.16251	27009.0375
1607.47959	25330.8375
1610.79447	23469.9375
1614.10715	21738.7375
1617.41763	20315.5375
1620.7259	19393.8375
1624.03199	18907.9375
1627.33587	18960.6375
1630.63757	19435.2375
1633.93707	20397.0375
1637.23439	21861.6375
1640.52951	23795.4375
1643.82246	26153.7375
1647.11321	28300.7375
1650.40179	29190.9375
1653.68819	27756.7375
1656.97241	24572.8375
1660.25446	21272.7375
1663.53433	18906.9375
1666.81203	17463.9375
1670.08756	16586.7375
1673.36092	16072.6375
1676.63211	15696.2375
1679.90115	15440.8375
1683.16801	15251.1375
1686.43272	15095.2375
1689.69527	14964.1375
1692.95567	14781.6375
1696.2139	14647.5375
1699.46999	14538.2375
1702.72392	14461.4375
1705.97571	14517.2375
1709.22535	14591.5375
1712.47284	14635.0375
1715.71819	14662.6375
1718.96139	14619.6375
1722.20246	14568.3375
1725.44139	14500.4375
1728.67818	14462.5375
1731.91284	14370.0375
1735.14537	14303.2375
1738.37576	14281.2375
1741.60403	14236.9375
1744.83017	14180.0375
1748.05418	14171.7375
1751.27607	14129.0375
1754.49584	14039.0375
1757.71349	13974.9375
1760.92903	13909.9375
1764.14244	13873.5375
1767.35375	13873.7375
1770.56294	13807.7375
1773.77002	13818.8375
1776.97499	13825.6375
1780.17785	13847.3375
1783.37861	13856.8375
1786.57727	13862.6375
1789.77382	13878.7375
1792.96828	13885.6375
1796.16064	13858.5375
1799.3509	13830.3375
1802.53907	13784.5375
1805.72514	13786.9375
1808.90913	13725.2375
1812.09102	13736.5375
1815.27083	13700.0375
1818.44856	13677.0375
1821.6242	13672.8375
1824.79776	13675.8375
1827.96924	13626.0375
1831.13864	13650.8375
1834.30597	13621.7375
1837.47122	13622.2375
1840.6344	13612.7375
1843.7955	13660.0375
1846.95454	13628.6375
1850.11151	13629.5375
1853.26642	13614.7375
1856.41926	13592.6375
1859.57004	13611.9375
1862.71876	13564.5375
1865.86542	13577.6375
1869.01003	13589.7375
1872.15258	13560.6375
1875.29308	13599.8375
1878.43152	13573.2375
1881.56792	13590.3375
1884.70227	13580.2375
1887.83457	13557.3375
1890.96482	13560.2375
1894.09304	13568.2375
1897.21921	13507.5375
1900.34335	13540.3375
1903.46544	13537.2375
1906.58551	13518.5375
1909.70353	13501.5375
1912.81953	13510.0375
1915.93349	13481.6375
1919.04543	13441.5375
1922.15534	13438.9375
1925.26322	13372.7375
1928.36908	13349.6375
1931.47292	13338.8375
1934.57473	13287.1375
1937.67453	13271.0375
1940.77232	13226.4375
1943.86808	13181.9375
1946.96184	13176.1375
1950.05358	13092.0375
1953.14331	13080.4375
1956.23103	13059.0375
1959.31675	12994.2375
1962.40046	12954.5375
1965.48217	12956.3375
1968.56188	12917.0375
1971.63959	12885.3375
1974.7153	12834.2375
1977.78901	12827.9375
1980.86073	12782.4375
1983.93046	12732.0375
1986.99819	12678.4375
1990.06394	12660.5375
1993.1277	12629.4375
1996.18947	12569.9375
1999.24925	12556.8375
2002.30706	12490.5375
2005.36288	12489.0375
2008.41672	12455.8375
2011.46859	12390.4375
2014.51848	12395.4375
2017.56639	12363.0375
2020.61233	12316.1375
2023.6563	12301.1375
2026.6983	12259.1375
2029.73833	12246.5375
2032.7764	12216.3375
2035.8125	12211.7375
2038.84664	12198.4375
2041.87881	12164.5375
2044.90903	12162.7375
2047.93729	12169.0375
2050.96359	12150.9375
2053.98794	12153.1375
2057.01034	12118.7375
2060.03078	12134.5375
2063.04927	12122.1375
2066.06582	12081.1375
2069.08042	12042.8375
2072.09307	12075.4375
2075.10378	12069.5375
2078.11255	12042.3375
2081.11938	12057.5375
2084.12426	12016.7375
2087.12722	12034.9375
2090.12824	12023.1375
2093.12732	12000.5375
2096.12447	12016.5375
2099.11969	12045.4375
2102.11299	12053.1375
2105.10435	12048.2375
2108.09379	12037.8375
2111.08131	12050.6375
2114.0669	12043.4375
2117.05057	12053.0375
2120.03233	12064.8375
2123.01216	12088.3375
2125.99008	12116.1375
2128.96609	12139.5375
2131.94018	12128.7375
2134.91236	12119.0375
2137.88263	12124.5375
2140.851	12158.1375
2143.81746	12142.2375
2146.78201	12146.3375
2149.74466	12133.5375
2152.7054	12140.4375
2155.66425	12152.5375
2158.6212	12148.1375
2161.57625	12119.2375
2164.52941	12135.6375
2167.48067	12121.9375
2170.43004	12141.7375
2173.37752	12116.9375
2176.32311	12104.9375
2179.26681	12144.0375
2182.20863	12158.2375
2185.14856	12168.0375
2188.08661	12175.7375
2191.02278	12160.2375
2193.95707	12136.2375
2196.88948	12114.9375
2199.82001	12142.7375
2202.74867	12150.6375
2205.67545	12162.1375
2208.60037	12134.1375
2211.52341	12122.5375
2214.44458	12147.0375
2217.36388	12098.9375
2220.28132	12086.2375
2223.1969	12066.7375
2226.11061	12071.3375
2229.02246	12008.9375
2231.93245	12007.8375
2234.84058	11980.3375
2237.74686	11977.9375
2240.65128	11957.0375
2243.55385	11936.7375
2246.45456	11946.5375
2249.35343	11928.7375
2252.25044	11913.2375
2255.14561	11885.6375
2258.03893	11881.4375
2260.93041	11868.2375
2263.82004	11869.9375
2266.70783	11826.4375
2269.59378	11786.5375
2272.4779	11765.2375
2275.36017	11754.1375
2278.24061	11733.5375
2281.11922	11695.2375
2283.996	11648.6375
2286.87094	11652.8375
2289.74405	11651.6375
2292.61534	11626.1375
2295.4848	11628.8375
2298.35243	11633.9375
2301.21824	11657.9375
2304.08223	11647.1375
2306.94439	11627.5375
2309.80474	11657.3375
2312.66327	11676.2375
2315.51999	11682.3375
2318.37489	11644.6375
2321.22797	11626.6375
2324.07925	11647.2375
2326.92871	11646.7375
2329.77637	11630.5375
2332.62222	11652.0375
2335.46626	11593.7375
2338.3085	11609.7375
2341.14893	11602.3375
2343.98756	11628.4375
2346.8244	11631.4375
2349.65943	11651.9375
2352.49267	11659.1375
2355.32411	11620.6375
2358.15376	11637.5375
2360.98161	11631.1375
2363.80768	11604.2375
2366.63195	11577.0375
2369.45444	11568.0375
2372.27514	11535.9375
2375.09405	11540.5375
2377.91118	11515.8375
2380.72652	11498.7375
2383.54009	11472.1375
2386.35187	11439.3375
2389.16188	11397.7375
2391.97011	11405.4375
2394.77657	11377.8375
2397.58125	11328.4375
2400.38416	11343.7375
2403.18529	11301.7375
2405.98466	11314.4375
2408.78226	11257.7375
2411.57809	11249.1375
2414.37216	11236.8375
2417.16446	11221.3375
2419.955	11201.7375
2422.74378	11192.0375
2425.5308	11185.8375
2428.31606	11203.1375
2431.09956	11201.4375
2433.88131	11181.7375
2436.6613	11163.1375
2439.43954	11188.4375
2442.21603	11160.6375
2444.99077	11206.8375
2447.76377	11205.3375
2450.53501	11188.5375
2453.30451	11198.0375
2456.07226	11164.2375
2458.83827	11126.8375
2461.60254	11129.2375
2464.36507	11154.7375
2467.12586	11161.7375
2469.88492	11170.2375
2472.64224	11166.3375
2475.39782	11162.5375
2478.15167	11155.7375
2480.90379	11185.6375
2483.65417	11198.5375
2486.40283	11207.5375
2489.14976	11234.9375
2491.89497	11210.2375
2494.63845	11221.3375
2497.3802	11188.4375
2500.12024	11205.0375
2502.85855	11210.7375
2505.59514	11158.0375
2508.33002	11165.7375
2511.06318	11122.3375
2513.79462	11117.8375
2516.52435	11109.7375
2519.25237	11090.1375
2521.97867	11083.9375
2524.70327	11072.2375
2527.42616	11070.7375
2530.14734	11058.0375
2532.86681	11042.8375
2535.58458	11063.6375
2538.30065	11065.5375
2541.01501	11047.9375
2543.72768	11033.7375
2546.43864	11020.7375
2549.14791	11008.5375
2551.85548	11022.0375
2554.56136	10993.3375
2557.26554	10981.1375
2559.96803	10993.9375
2562.66883	10969.4375
2565.36794	10973.4375
2568.06536	10938.1375
2570.7611	10911.8375
2573.45514	10914.8375
2576.14751	10931.4375
2578.83819	10911.8375
2581.52719	10903.6375
2584.21451	10897.2375
2586.90015	10889.3375
2589.58411	10876.7375
2592.2664	10883.5375
2594.94701	10865.5375
2597.62594	10857.6375
2600.30321	10871.3375
2602.9788	10870.3375
2605.65273	10867.4375
2608.32498	10852.6375
2610.99557	10848.6375
2613.66449	10864.1375
2616.33175	10866.1375
2618.99734	10880.4375
2621.66128	10896.8375
2624.32355	10869.9375
2626.98416	10871.7375
2629.64311	10861.3375
2632.30041	10835.7375
2634.95605	10812.0375
2637.61004	10825.2375
2640.26238	10780.8375
2642.91306	10804.6375
2645.56209	10784.9375
2648.20948	10773.1375
2650.85521	10738.4375
2653.4993	10756.9375
2656.14175	10756.2375
2658.78255	10746.6375
2661.42171	10728.1375
2664.05923	10775.0375
2666.6951	10814.6375
2669.32934	10819.6375
2671.96194	10798.7375
2674.59291	10803.7375
2677.22224	10810.1375
2679.84993	10822.0375
2682.476	10801.4375
2685.10043	10764.6375
2687.72324	10773.2375
2690.34441	10790.0375
2692.96396	10780.1375
2695.58188	10780.9375
2698.19818	10721.7375
2700.81285	10754.5375
2703.4259	10705.4375
2706.03733	10635.6375
2708.64714	10706.6375
2711.25533	10716.0375
2713.86191	10748.2375
2716.46687	10766.1375
2719.07021	10778.1375
2721.67194	10815.5375
2724.27206	10778.0375
2726.87057	10777.8375
2729.46747	10790.2375
2732.06276	10804.5375
2734.65644	10780.5375
2737.24852	10788.2375
2739.83899	10762.8375
2742.42786	10758.9375
2745.01513	10741.7375
2747.60079	10763.8375
2750.18486	10763.1375
2752.76733	10777.0375
2755.3482	10748.6375
2757.92747	10737.0375
2760.50515	10742.0375
2763.08123	10727.2375
2765.65573	10705.7375
2768.22863	10700.6375
2770.79994	10689.9375
2773.36967	10699.0375
2775.9378	10667.7375
2778.50435	10670.8375
2781.06932	10696.7375
2783.6327	10721.0375
2786.1945	10697.9375
2788.75471	10689.4375
2791.31335	10654.8375
2793.87041	10651.6375
2796.42589	10619.9375
2798.97979	10619.4375
2801.53212	10599.2375
2804.08288	10590.0375
2806.63206	10573.8375
2809.17967	10550.9375
2811.72571	10542.9375
2814.27018	10527.9375
2816.81308	10543.2375
2819.35442	10535.6375
2821.89419	10507.5375
2824.43239	10529.0375
2826.96904	10538.0375
2829.50412	10517.3375
2832.03763	10525.0375
2834.56959	10536.4375
2837.1	10507.6375
2839.62884	10478.6375
2842.15613	10475.1375
2844.68186	10466.5375
2847.20604	10476.3375
2849.72867	10487.8375
2852.24974	10468.8375
2854.76927	10461.3375
2857.28724	10411.0375
2859.80367	10445.1375
2862.31855	10433.9375
2864.83189	10430.8375
2867.34368	10392.3375
2869.85393	10410.3375
2872.36264	10447.5375
2874.8698	10423.2375
2877.37543	10422.0375
2879.87952	10415.3375
2882.38207	10419.8375
2884.88308	10438.6375
2887.38256	10437.2375
2889.88051	10456.3375
2892.37692	10447.7375
2894.8718	10441.2375
2897.36515	10471.3375
2899.85698	10494.1375
2902.34727	10482.3375
2904.83604	10478.1375
2907.32328	10522.0375
2909.809	10519.0375
2912.29319	10550.7375
2914.77587	10565.5375
2917.25702	10561.7375
2919.73665	10532.1375
2922.21476	10523.9375
2924.69136	10527.3375
2927.16644	10514.3375
2929.64	10490.8375
2932.11205	10476.2375
2934.58258	10456.3375
2937.05161	10474.6375
2939.51912	10472.6375
2941.98513	10477.4375
2944.44962	10437.3375
2946.91261	10391.3375
2949.37409	10415.0375
2951.83407	10419.1375
2954.29254	10408.3375
2956.74951	10399.2375
2959.20498	10388.7375
2961.65895	10361.7375
2964.11142	10341.1375
2966.56239	10322.4375
2969.01186	10318.9375
2971.45984	10305.7375
2973.90632	10294.6375
2976.35131	10269.8375
2978.7948	10249.8375
2981.23681	10242.8375
2983.67732	10197.8375
2986.11635	10186.0375
2988.55388	10166.5375
2990.98993	10149.5375
2993.4245	10144.9375
2995.85758	10115.4375
2998.28917	10097.6375
3000.71928	10094.6375
3003.14791	10078.9375
3005.57506	10053.1375
3008.00073	10067.3375
3010.42493	10030.3375
3012.84764	10011.8375
3015.26888	10030.2375
3017.68865	9999.1375
3020.10694	9996.9375
3022.52376	9973.5375
3024.9391	9935.9375
3027.35298	9925.7375
3029.76539	9929.7375
3032.17632	9915.5375
3034.5858	9909.2375
3036.9938	9899.7375
3039.40034	9877.4375
3041.80542	9877.7375
3044.20903	9848.8375
3046.61118	9878.8375
3049.01187	9845.2375
3051.4111	9838.6375
3053.80888	9816.6375
3056.20519	9774.2375
3058.60005	9762.4375
3060.99345	9760.6375
3063.3854	9754.5375
3065.7759	9737.7375
3068.16494	9688.7375
3070.55254	9657.5375
3072.93868	9647.0375
3075.32338	9593.5375
3077.70662	9609.5375
3080.08842	9565.5375
3082.46878	9571.9375
3084.84769	9564.5375
3087.22515	9556.7375
3089.60118	9556.2375
3091.97576	9565.9375
3094.3489	9547.2375
3096.72061	9576.8375
3099.09087	9561.4375
3101.4597	9551.8375
3103.82709	9538.0375
3106.19305	9542.8375
3108.55757	9541.7375
3110.92066	9505.6375
3113.28232	9505.1375
3115.64255	9467.2375
3118.00134	9475.8375
3120.35871	9470.7375
3122.71466	9462.9375
3125.06917	9446.9375
3127.42226	9427.6375
3129.77393	9467.5375
3132.12417	9419.4375
3134.47299	9416.4375
3136.82039	9420.9375
3139.16636	9433.4375
3141.51092	9420.3375
3143.85406	9417.3375
3146.19579	9402.0375
3148.53609	9429.9375
3150.87499	9407.0375
3153.21246	9438.2375
3155.54853	9466.1375
3157.88318	9440.0375
3160.21642	9453.5375
3162.54826	9437.8375
3164.87868	9449.4375
3167.2077	9453.4375
3169.5353	9474.3375
3171.86151	9445.6375
3174.18631	9461.1375
3176.5097	9442.5375
3178.83169	9429.5375
3181.15228	9437.6375
3183.47147	9410.5375
3185.78926	9436.6375
3188.10565	9414.6375
3190.42065	9419.9375
3192.73424	9458.3375
3195.04645	9422.0375
3197.35725	9404.4375
3199.66667	9415.7375
3201.97469	9437.9375
3204.28132	9400.7375
3206.58656	9413.1375
3208.8904	9424.7375
3211.19287	9420.8375
3213.49394	9428.5375
3215.79363	9442.1375
3218.09193	9462.6375
3220.38884	9455.5375
3222.68438	9445.2375
3224.97853	9419.8375
3227.2713	9454.0375
3229.56269	9435.7375
3231.8527	9416.6375
3234.14133	9395.4375
3236.42858	9386.1375
3238.71446	9395.4375
3240.99896	9358.1375
3243.28209	9349.8375
3245.56384	9366.6375
3247.84423	9377.8375
3250.12324	9355.1375
3252.40088	9375.7375
3254.67715	9360.9375
3256.95205	9353.0375
3259.22558	9328.6375
3261.49775	9350.0375
3263.76855	9324.7375
3266.03799	9322.6375
3268.30606	9310.2375
3270.57277	9306.3375
3272.83812	9314.2375
3275.10211	9286.8375
3277.36474	9264.6375
3279.62601	9257.2375
3281.88593	9250.7375
3284.14448	9226.9375
3286.40168	9279.7375
3288.65753	9245.7375
3290.91202	9247.9375
3293.16516	9256.1375
3295.41695	9226.5375
3297.66738	9185.9375
3299.91647	9129.2375
3302.16421	9086.6375
3304.4106	9039.6375
3306.65564	8986.7375
3308.89933	8927.2375
3311.14169	8867.5375
3313.38269	8781.5375
3315.62236	8740.1375
3317.86068	8658.0375
3320.09766	8587.0375
3322.3333	8545.0375
3324.5676	8539.7375
3326.80056	8377.7375
3329.03219	8321.3375
3331.26248	3.2375
3333.49143	-0.1625
3335.71905	1.2375
