Data from AgNPs_FTO_APTES_UA_50uM_CRN_500uM_R6G_10uM_NaF_0.1M_Addition_RamanShift__22__17-07-33-547.txt Node

Date: Mon Feb 21 17:07:33 GMT 2022
User: TCL
Spectrometer: QEP01345
Trigger mode: 4
Integration Time (sec): 7.000000E0
Scans to average: 10
Electric dark correction enabled: true
Nonlinearity correction enabled: false
Boxcar width: 0
XAxis mode: Raman Shifts
Number of Pixels in Spectrum: 1044
>>>>>Begin Spectral Data<<<<<
46.04893	-1.6125
50.45542	-0.2125
54.85868	-0.0125
59.25871	-2.3125
63.6555	57.3875
68.04907	59.2875
72.43941	68.4875
76.82654	66.9875
81.21044	69.8875
85.59113	73.7875
89.96862	75.7875
94.34289	78.5875
98.71396	83.7875
103.08183	84.2875
107.4465	87.3875
111.80798	88.3875
116.16626	91.1875
120.52136	90.5875
124.87327	92.2875
129.222	99.4875
133.56755	104.1875
137.90993	106.8875
142.24913	113.7875
146.58517	123.6875
150.91804	137.6875
155.24774	166.7875
159.57429	197.5875
163.89768	254.6875
168.21792	337.1875
172.53501	455.7875
176.84895	631.4875
181.15975	884.2875
185.46741	1230.3875
189.77193	1701.7875
194.07331	2270.1875
198.37157	2939.1875
202.6667	3661.0875
206.9587	4348.7875
211.24758	5052.7875
215.53334	5752.1875
219.81599	6488.6875
224.09553	7323.3875
228.37195	8271.4875
232.64527	9312.4875
236.91549	10317.5875
241.18261	11364.8875
245.44663	12287.1875
249.70755	13108.7875
253.96539	13806.5875
258.22014	14343.5875
262.4718	14814.4875
266.72039	15149.5875
270.96589	15297.6875
275.20832	15275.4875
279.44768	15067.7875
283.68397	14824.6875
287.91719	14627.3875
292.14735	14495.2875
296.37445	14550.2875
300.59849	14719.9875
304.81948	14957.9875
309.03742	15047.1875
313.25231	14958.5875
317.46415	14599.9875
321.67296	14148.1875
325.87872	13731.0875
330.08145	13577.1875
334.28114	13559.4875
338.47781	13702.1875
342.67145	13971.0875
346.86207	14249.8875
351.04966	14646.4875
355.23424	15133.4875
359.4158	15496.8875
363.59435	15758.3875
367.76989	15925.7875
371.94243	16047.1875
376.11196	16080.0875
380.27849	16100.5875
384.44203	16149.1875
388.60257	16126.3875
392.76012	16176.6875
396.91468	16271.2875
401.06626	16479.2875
405.21485	16617.9875
409.36047	16474.8875
413.50311	16095.0875
417.64277	15816.4875
421.77947	15585.1875
425.9132	15516.6875
430.04396	15599.9875
434.17176	15751.5875
438.2966	15937.1875
442.41849	16257.8875
446.53742	16686.5875
450.6534	17090.5875
454.76644	17398.7875
458.87653	17485.2875
462.98368	17304.8875
467.08789	17083.4875
471.18916	16798.8875
475.2875	16505.8875
479.38291	16327.5875
483.4754	16154.8875
487.56496	15996.2875
491.6516	15840.6875
495.73531	15746.1875
499.81612	15762.2875
503.89401	15833.2875
507.96899	15950.2875
512.04106	16043.9875
516.11023	16109.4875
520.1765	16121.8875
524.23987	16166.6875
528.30034	16103.4875
532.35792	15999.3875
536.41261	15906.2875
540.46441	15727.7875
544.51333	15607.1875
548.55936	15634.2875
552.60252	15802.5875
556.64279	16094.6875
560.6802	16206.4875
564.71473	16313.8875
568.7464	16515.4875
572.7752	16743.0875
576.80114	16645.3875
580.82422	16550.8875
584.84444	16601.2875
588.86181	16908.9875
592.87633	17360.0875
596.888	17606.5875
600.89682	17562.9875
604.9028	18155.9875
608.90594	20401.4875
612.90624	23223.2875
616.90371	22188.3875
620.89834	18167.5875
624.89015	16285.7875
628.87913	15995.6875
632.86528	16101.7875
636.84862	16209.6875
640.82913	16098.1875
644.80683	15691.8875
648.78172	15365.0875
652.75379	15344.8875
656.72306	15570.1875
660.68952	15914.7875
664.65319	15870.5875
668.61405	15584.6875
672.57211	15572.3875
676.52738	15625.9875
680.47986	15686.5875
684.42955	15567.8875
688.37646	15441.8875
692.32058	15366.0875
696.26192	15410.6875
700.20048	15505.0875
704.13626	15560.7875
708.06928	15486.1875
711.99952	15370.8875
715.927	15327.8875
719.85171	15337.1875
723.77365	15362.0875
727.69284	15327.0875
731.60928	15241.1875
735.52295	15275.6875
739.43388	15275.2875
743.34206	15294.5875
747.24749	15340.7875
751.15017	15331.9875
755.05012	15451.6875
758.94733	15778.4875
762.8418	16596.6875
766.73354	17996.9875
770.62254	19546.9875
774.50882	20318.4875
778.39237	19726.9875
782.27321	18043.0875
786.15132	16520.8875
790.02671	15594.6875
793.89938	15172.5875
797.76935	15023.9875
801.6366	14945.0875
805.50115	14906.7875
809.36299	14832.8875
813.22213	14768.3875
817.07857	14707.4875
820.93231	14678.9875
824.78336	14631.9875
828.63172	14634.5875
832.47738	14631.4875
836.32036	14613.1875
840.16066	14578.2875
843.99827	14586.0875
847.8332	14564.0875
851.66546	14565.9875
855.49504	14574.1875
859.32195	14625.2875
863.1462	14627.9875
866.96777	14652.7875
870.78668	14617.7875
874.60293	14587.8875
878.41652	14581.2875
882.22745	14627.1875
886.03573	14661.6875
889.84136	14599.3875
893.64433	14569.3875
897.44466	14488.2875
901.24235	14425.6875
905.0374	14366.2875
908.8298	14256.3875
912.61957	14182.2875
916.40671	14232.6875
920.19121	14329.1875
923.97308	14405.5875
927.75233	14485.9875
931.52895	14512.0875
935.30295	14444.7875
939.07433	14234.4875
942.84309	14035.2875
946.60924	13873.7875
950.37278	13842.8875
954.13371	13794.3875
957.89203	13720.3875
961.64774	13684.7875
965.40086	13617.1875
969.15137	13547.9875
972.89929	13504.5875
976.64461	13452.8875
980.38733	13445.2875
984.12747	13461.5875
987.86502	13552.9875
991.59999	13636.1875
995.33237	13781.3875
999.06217	14036.9875
1002.78939	14294.7875
1006.51404	14506.8875
1010.23611	14649.4875
1013.95561	14778.5875
1017.67255	14809.3875
1021.38692	14678.8875
1025.09872	14475.4875
1028.80796	14412.6875
1032.51465	14511.2875
1036.21877	14653.0875
1039.92035	14713.0875
1043.61937	14669.3875
1047.31584	14554.1875
1051.00976	14412.8875
1054.70114	14320.4875
1058.38998	14267.6875
1062.07627	14280.7875
1065.76003	14268.7875
1069.44126	14278.8875
1073.11995	14330.2875
1076.79611	14431.4875
1080.46974	14521.1875
1084.14085	14655.4875
1087.80943	14869.7875
1091.47549	14952.1875
1095.13903	14872.4875
1098.80005	14700.8875
1102.45857	14493.0875
1106.11456	14398.5875
1109.76805	14461.8875
1113.41903	14640.9875
1117.06751	14916.7875
1120.71348	15270.7875
1124.35696	15589.9875
1127.99793	15903.9875
1131.63641	15941.5875
1135.2724	15628.8875
1138.90589	15297.8875
1142.5369	15065.7875
1146.16542	14865.0875
1149.79145	14745.3875
1153.415	14696.8875
1157.03607	14788.6875
1160.65467	14958.4875
1164.27079	15407.3875
1167.88443	16013.3875
1171.49561	16856.8875
1175.10432	18016.5875
1178.71056	19591.1875
1182.31434	21072.0875
1185.91565	21653.5875
1189.51451	21267.7875
1193.11091	20368.4875
1196.70485	19377.4875
1200.29634	18568.2875
1203.88538	17906.5875
1207.47197	17250.7875
1211.05612	16664.9875
1214.63782	16307.7875
1218.21708	16213.5875
1221.79391	16219.2875
1225.36829	16248.2875
1228.94024	16123.7875
1232.50976	15889.5875
1236.07685	15703.9875
1239.6415	15637.0875
1243.20374	15682.5875
1246.76355	15725.9875
1250.32093	15885.8875
1253.8759	16133.1875
1257.42845	16490.5875
1260.97859	16791.8875
1264.52631	17081.7875
1268.07163	17462.5875
1271.61453	17828.9875
1275.15503	18194.2875
1278.69312	18445.3875
1282.22882	18684.6875
1285.76211	18987.6875
1289.29301	19452.9875
1292.82151	20027.5875
1296.34761	20726.6875
1299.87133	21727.2875
1303.39266	23065.0875
1306.9116	24844.9875
1310.42815	26752.7875
1313.94233	27840.9875
1317.45412	27421.9875
1320.96354	26112.6875
1324.47058	24674.8875
1327.97525	23461.0875
1331.47754	22605.8875
1334.97747	22275.7875
1338.47502	22376.4875
1341.97022	22717.8875
1345.46305	23175.0875
1348.95352	23869.0875
1352.44163	24859.4875
1355.92738	26379.1875
1359.41078	28608.9875
1362.89183	30586.1875
1366.37053	29902.2875
1369.84688	26372.9875
1373.32088	22643.3875
1376.79254	20258.3875
1380.26186	19188.9875
1383.72883	18766.3875
1387.19347	18444.9875
1390.65578	18089.0875
1394.11575	17845.4875
1397.57339	17829.7875
1401.0287	18039.9875
1404.48168	18294.0875
1407.93234	18472.5875
1411.38068	18506.6875
1414.82669	18391.0875
1418.27039	18091.6875
1421.71177	17616.5875
1425.15083	17160.1875
1428.58758	16912.9875
1432.02203	16916.6875
1435.45416	17157.5875
1438.88399	17404.7875
1442.31151	17575.1875
1445.73673	17676.6875
1449.15965	17875.9875
1452.58027	17890.5875
1455.9986	17829.1875
1459.41463	17866.0875
1462.82837	18046.1875
1466.23982	18365.5875
1469.64898	18699.8875
1473.05586	18923.5875
1476.46045	19045.3875
1479.86276	19089.8875
1483.26279	19102.5875
1486.66054	19171.6875
1490.05602	19338.0875
1493.44922	19606.0875
1496.84016	20045.7875
1500.22882	20919.2875
1503.61521	22337.7875
1506.99934	24114.6875
1510.38121	25617.3875
1513.76081	26034.1875
1517.13816	24805.4875
1520.51324	22702.0875
1523.88607	20732.8875
1527.25665	19502.5875
1530.62498	18898.7875
1533.99105	18566.2875
1537.35488	18393.8875
1540.71647	18174.6875
1544.07581	18029.4875
1547.4329	17904.4875
1550.78776	17798.6875
1554.14038	17745.1875
1557.49077	17751.8875
1560.83892	17865.2875
1564.18484	18045.8875
1567.52853	18277.2875
1570.86999	18478.5875
1574.20922	18636.4875
1577.54624	18680.1875
1580.88103	18235.5875
1584.2136	17702.3875
1587.54395	17517.7875
1590.87208	17893.1875
1594.19801	18792.8875
1597.52172	19992.8875
1600.84321	20666.4875
1604.16251	20293.0875
1607.47959	19274.1875
1610.79447	17934.7875
1614.10715	16633.1875
1617.41763	15582.9875
1620.7259	14926.2875
1624.03199	14536.8875
1627.33587	14495.8875
1630.63757	14775.9875
1633.93707	15400.7875
1637.23439	16434.0875
1640.52951	17910.7875
1643.82246	19856.8875
1647.11321	21731.1875
1650.40179	22611.5875
1653.68819	21551.3875
1656.97241	19130.2875
1660.25446	16616.0875
1663.53433	14849.9875
1666.81203	13811.8875
1670.08756	13159.8875
1673.36092	12782.7875
1676.63211	12468.8875
1679.90115	12275.7875
1683.16801	12165.6875
1686.43272	12006.6875
1689.69527	11876.8875
1692.95567	11814.8875
1696.2139	11761.7875
1699.46999	11684.9875
1702.72392	11632.5875
1705.97571	11649.5875
1709.22535	11603.2875
1712.47284	11584.5875
1715.71819	11557.4875
1718.96139	11508.3875
1722.20246	11475.2875
1725.44139	11457.5875
1728.67818	11378.4875
1731.91284	11317.7875
1735.14537	11266.5875
1738.37576	11221.4875
1741.60403	11176.7875
1744.83017	11174.9875
1748.05418	11152.3875
1751.27607	11157.0875
1754.49584	11122.8875
1757.71349	11114.6875
1760.92903	11100.2875
1764.14244	11046.6875
1767.35375	11014.0875
1770.56294	10997.4875
1773.77002	10925.6875
1776.97499	10903.6875
1780.17785	10860.3875
1783.37861	10874.2875
1786.57727	10800.8875
1789.77382	10789.5875
1792.96828	10747.2875
1796.16064	10751.4875
1799.3509	10707.2875
1802.53907	10693.2875
1805.72514	10668.2875
1808.90913	10642.3875
1812.09102	10604.8875
1815.27083	10587.1875
1818.44856	10552.1875
1821.6242	10542.7875
1824.79776	10505.6875
1827.96924	10513.2875
1831.13864	10487.0875
1834.30597	10476.0875
1837.47122	10440.3875
1840.6344	10434.1875
1843.7955	10413.7875
1846.95454	10436.4875
1850.11151	10431.1875
1853.26642	10396.1875
1856.41926	10403.6875
1859.57004	10398.2875
1862.71876	10376.2875
1865.86542	10364.6875
1869.01003	10379.7875
1872.15258	10356.5875
1875.29308	10376.1875
1878.43152	10362.1875
1881.56792	10351.6875
1884.70227	10321.4875
1887.83457	10327.0875
1890.96482	10311.6875
1894.09304	10309.4875
1897.21921	10289.3875
1900.34335	10283.5875
1903.46544	10279.7875
1906.58551	10253.9875
1909.70353	10251.7875
1912.81953	10227.1875
1915.93349	10209.5875
1919.04543	10177.1875
1922.15534	10149.6875
1925.26322	10132.1875
1928.36908	10121.7875
1931.47292	10074.7875
1934.57473	10036.2875
1937.67453	10036.1875
1940.77232	10000.4875
1943.86808	10002.2875
1946.96184	9977.3875
1950.05358	9944.8875
1953.14331	9925.7875
1956.23103	9866.5875
1959.31675	9839.2875
1962.40046	9823.2875
1965.48217	9779.7875
1968.56188	9754.6875
1971.63959	9742.0875
1974.7153	9693.6875
1977.78901	9688.4875
1980.86073	9655.9875
1983.93046	9618.2875
1986.99819	9591.2875
1990.06394	9549.4875
1993.1277	9517.5875
1996.18947	9489.9875
1999.24925	9475.8875
2002.30706	9431.6875
2005.36288	9395.1875
2008.41672	9388.6875
2011.46859	9336.5875
2014.51848	9328.8875
2017.56639	9303.1875
2020.61233	9303.5875
2023.6563	9258.6875
2026.6983	9219.4875
2029.73833	9194.9875
2032.7764	9191.6875
2035.8125	9159.5875
2038.84664	9151.8875
2041.87881	9119.4875
2044.90903	9099.5875
2047.93729	9078.7875
2050.96359	9056.8875
2053.98794	9065.3875
2057.01034	9060.9875
2060.03078	9048.9875
2063.04927	9045.0875
2066.06582	9051.2875
2069.08042	9041.3875
2072.09307	9004.7875
2075.10378	9001.0875
2078.11255	8979.0875
2081.11938	8991.1875
2084.12426	8982.8875
2087.12722	8970.6875
2090.12824	8962.5875
2093.12732	8962.0875
2096.12447	8968.9875
2099.11969	8981.2875
2102.11299	8958.0875
2105.10435	8973.2875
2108.09379	8972.2875
2111.08131	8974.5875
2114.0669	8989.4875
2117.05057	8984.5875
2120.03233	8998.8875
2123.01216	8989.7875
2125.99008	8983.7875
2128.96609	9008.0875
2131.94018	8999.8875
2134.91236	9006.2875
2137.88263	9015.4875
2140.851	8995.3875
2143.81746	9001.9875
2146.78201	9004.4875
2149.74466	9023.9875
2152.7054	9020.5875
2155.66425	8987.6875
2158.6212	8989.1875
2161.57625	8981.7875
2164.52941	8983.9875
2167.48067	8995.7875
2170.43004	8970.3875
2173.37752	8986.1875
2176.32311	8955.4875
2179.26681	8945.5875
2182.20863	8955.9875
2185.14856	8965.4875
2188.08661	8958.2875
2191.02278	8967.6875
2193.95707	8964.4875
2196.88948	8930.3875
2199.82001	8946.9875
2202.74867	8922.8875
2205.67545	8927.4875
2208.60037	8930.6875
2211.52341	8902.1875
2214.44458	8905.5875
2217.36388	8849.0875
2220.28132	8863.2875
2223.1969	8845.7875
2226.11061	8836.1875
2229.02246	8796.1875
2231.93245	8791.3875
2234.84058	8762.5875
2237.74686	8737.1875
2240.65128	8731.1875
2243.55385	8733.0875
2246.45456	8709.3875
2249.35343	8686.0875
2252.25044	8689.6875
2255.14561	8689.5875
2258.03893	8654.6875
2260.93041	8646.5875
2263.82004	8610.5875
2266.70783	8601.7875
2269.59378	8587.1875
2272.4779	8568.4875
2275.36017	8572.7875
2278.24061	8514.6875
2281.11922	8521.4875
2283.996	8501.5875
2286.87094	8463.9875
2289.74405	8439.9875
2292.61534	8459.6875
2295.4848	8435.4875
2298.35243	8450.3875
2301.21824	8450.3875
2304.08223	8426.1875
2306.94439	8428.2875
2309.80474	8439.9875
2312.66327	8427.3875
2315.51999	8415.9875
2318.37489	8395.3875
2321.22797	8394.5875
2324.07925	8366.3875
2326.92871	8346.4875
2329.77637	8350.0875
2332.62222	8351.2875
2335.46626	8336.0875
2338.3085	8341.5875
2341.14893	8302.9875
2343.98756	8313.9875
2346.8244	8313.1875
2349.65943	8320.4875
2352.49267	8307.7875
2355.32411	8314.9875
2358.15376	8296.3875
2360.98161	8299.9875
2363.80768	8304.0875
2366.63195	8298.6875
2369.45444	8263.8875
2372.27514	8267.7875
2375.09405	8281.9875
2377.91118	8246.7875
2380.72652	8204.7875
2383.54009	8193.6875
2386.35187	8179.6875
2389.16188	8143.2875
2391.97011	8119.5875
2394.77657	8105.4875
2397.58125	8087.4875
2400.38416	8068.2875
2403.18529	8063.5875
2405.98466	8035.8875
2408.78226	8040.4875
2411.57809	8034.8875
2414.37216	8013.8875
2417.16446	8003.4875
2419.955	7998.8875
2422.74378	7999.6875
2425.5308	7982.4875
2428.31606	7981.4875
2431.09956	7959.1875
2433.88131	7948.5875
2436.6613	7956.1875
2439.43954	7937.6875
2442.21603	7944.5875
2444.99077	7948.1875
2447.76377	7919.1875
2450.53501	7902.3875
2453.30451	7930.6875
2456.07226	7915.3875
2458.83827	7922.9875
2461.60254	7897.8875
2464.36507	7898.4875
2467.12586	7892.8875
2469.88492	7865.6875
2472.64224	7885.4875
2475.39782	7893.0875
2478.15167	7893.6875
2480.90379	7899.9875
2483.65417	7903.9875
2486.40283	7884.0875
2489.14976	7893.8875
2491.89497	7902.7875
2494.63845	7901.9875
2497.3802	7888.1875
2500.12024	7891.1875
2502.85855	7887.7875
2505.59514	7869.4875
2508.33002	7854.8875
2511.06318	7813.7875
2513.79462	7790.5875
2516.52435	7775.3875
2519.25237	7769.9875
2521.97867	7739.7875
2524.70327	7752.3875
2527.42616	7736.4875
2530.14734	7716.9875
2532.86681	7731.0875
2535.58458	7721.3875
2538.30065	7722.3875
2541.01501	7727.7875
2543.72768	7707.0875
2546.43864	7696.1875
2549.14791	7667.1875
2551.85548	7664.3875
2554.56136	7663.6875
2557.26554	7652.2875
2559.96803	7624.1875
2562.66883	7612.2875
2565.36794	7605.3875
2568.06536	7612.8875
2570.7611	7574.4875
2573.45514	7577.8875
2576.14751	7544.7875
2578.83819	7555.3875
2581.52719	7566.7875
2584.21451	7532.8875
2586.90015	7539.2875
2589.58411	7514.3875
2592.2664	7524.6875
2594.94701	7505.3875
2597.62594	7488.0875
2600.30321	7479.2875
2602.9788	7477.0875
2605.65273	7462.9875
2608.32498	7464.6875
2610.99557	7450.4875
2613.66449	7448.8875
2616.33175	7434.9875
2618.99734	7442.8875
2621.66128	7435.5875
2624.32355	7422.4875
2626.98416	7438.4875
2629.64311	7415.5875
2632.30041	7395.5875
2634.95605	7387.1875
2637.61004	7381.5875
2640.26238	7393.2875
2642.91306	7371.5875
2645.56209	7374.7875
2648.20948	7354.6875
2650.85521	7360.3875
2653.4993	7340.5875
2656.14175	7361.1875
2658.78255	7344.4875
2661.42171	7329.9875
2664.05923	7344.8875
2666.6951	7360.7875
2669.32934	7352.8875
2671.96194	7361.8875
2674.59291	7345.6875
2677.22224	7356.3875
2679.84993	7372.6875
2682.476	7342.5875
2685.10043	7362.6875
2687.72324	7337.2875
2690.34441	7343.9875
2692.96396	7325.3875
2695.58188	7353.3875
2698.19818	7332.9875
2700.81285	7343.2875
2703.4259	7331.4875
2706.03733	7330.7875
2708.64714	7336.8875
2711.25533	7332.4875
2713.86191	7331.3875
2716.46687	7339.1875
2719.07021	7335.6875
2721.67194	7356.1875
2724.27206	7347.4875
2726.87057	7344.0875
2729.46747	7363.9875
2732.06276	7334.2875
2734.65644	7336.4875
2737.24852	7335.7875
2739.83899	7326.2875
2742.42786	7296.2875
2745.01513	7297.8875
2747.60079	7313.9875
2750.18486	7292.8875
2752.76733	7295.5875
2755.3482	7289.6875
2757.92747	7262.7875
2760.50515	7242.6875
2763.08123	7260.5875
2765.65573	7266.8875
2768.22863	7248.2875
2770.79994	7247.9875
2773.36967	7249.4875
2775.9378	7247.7875
2778.50435	7245.3875
2781.06932	7210.1875
2783.6327	7214.3875
2786.1945	7244.1875
2788.75471	7216.3875
2791.31335	7218.0875
2793.87041	7191.3875
2796.42589	7176.5875
2798.97979	7186.7875
2801.53212	7144.0875
2804.08288	7138.7875
2806.63206	7114.9875
2809.17967	7102.5875
2811.72571	7094.7875
2814.27018	7094.0875
2816.81308	7089.3875
2819.35442	7084.3875
2821.89419	7067.7875
2824.43239	7086.0875
2826.96904	7092.8875
2829.50412	7055.2875
2832.03763	7061.6875
2834.56959	7056.8875
2837.1	7058.4875
2839.62884	7055.0875
2842.15613	7063.5875
2844.68186	7069.2875
2847.20604	7095.2875
2849.72867	7089.6875
2852.24974	7094.1875
2854.76927	7076.7875
2857.28724	7051.0875
2859.80367	7060.3875
2862.31855	7047.2875
2864.83189	7049.2875
2867.34368	7039.1875
2869.85393	7030.4875
2872.36264	7029.7875
2874.8698	7043.7875
2877.37543	7031.9875
2879.87952	7020.4875
2882.38207	7039.7875
2884.88308	7015.7875
2887.38256	7021.9875
2889.88051	7043.1875
2892.37692	7022.7875
2894.8718	7027.4875
2897.36515	7069.3875
2899.85698	7050.9875
2902.34727	7086.3875
2904.83604	7071.4875
2907.32328	7099.1875
2909.809	7092.9875
2912.29319	7108.9875
2914.77587	7121.9875
2917.25702	7117.6875
2919.73665	7103.9875
2922.21476	7117.3875
2924.69136	7111.7875
2927.16644	7114.9875
2929.64	7089.0875
2932.11205	7087.1875
2934.58258	7065.5875
2937.05161	7087.0875
2939.51912	7087.4875
2941.98513	7081.6875
2944.44962	7036.2875
2946.91261	7008.8875
2949.37409	7043.8875
2951.83407	7019.8875
2954.29254	7002.8875
2956.74951	7003.1875
2959.20498	6965.6875
2961.65895	6950.9875
2964.11142	6958.3875
2966.56239	6938.4875
2969.01186	6920.6875
2971.45984	6912.7875
2973.90632	6903.6875
2976.35131	6897.3875
2978.7948	6843.1875
2981.23681	6818.4875
2983.67732	6819.6875
2986.11635	6803.3875
2988.55388	6783.7875
2990.98993	6784.2875
2993.4245	6774.5875
2995.85758	6740.8875
2998.28917	6729.0875
3000.71928	6744.2875
3003.14791	6737.4875
3005.57506	6711.2875
3008.00073	6709.8875
3010.42493	6693.0875
3012.84764	6678.8875
3015.26888	6681.2875
3017.68865	6655.1875
3020.10694	6640.1875
3022.52376	6651.5875
3024.9391	6635.8875
3027.35298	6596.7875
3029.76539	6596.1875
3032.17632	6589.1875
3034.5858	6566.0875
3036.9938	6571.5875
3039.40034	6572.2875
3041.80542	6555.4875
3044.20903	6533.1875
3046.61118	6553.2875
3049.01187	6506.3875
3051.4111	6534.5875
3053.80888	6525.2875
3056.20519	6499.6875
3058.60005	6486.3875
3060.99345	6474.1875
3063.3854	6465.1875
3065.7759	6438.8875
3068.16494	6449.8875
3070.55254	6422.4875
3072.93868	6415.1875
3075.32338	6377.1875
3077.70662	6369.0875
3080.08842	6355.4875
3082.46878	6366.9875
3084.84769	6347.9875
3087.22515	6349.6875
3089.60118	6345.8875
3091.97576	6345.0875
3094.3489	6332.4875
3096.72061	6341.0875
3099.09087	6357.5875
3101.4597	6353.0875
3103.82709	6349.6875
3106.19305	6353.7875
3108.55757	6329.4875
3110.92066	6333.9875
3113.28232	6305.5875
3115.64255	6310.8875
3118.00134	6299.0875
3120.35871	6283.4875
3122.71466	6276.8875
3125.06917	6245.7875
3127.42226	6243.0875
3129.77393	6241.2875
3132.12417	6253.6875
3134.47299	6258.2875
3136.82039	6257.6875
3139.16636	6245.7875
3141.51092	6241.3875
3143.85406	6252.0875
3146.19579	6253.1875
3148.53609	6257.4875
3150.87499	6279.2875
3153.21246	6268.6875
3155.54853	6277.3875
3157.88318	6277.2875
3160.21642	6289.6875
3162.54826	6297.6875
3164.87868	6272.3875
3167.2077	6291.2875
3169.5353	6288.4875
3171.86151	6284.5875
3174.18631	6304.3875
3176.5097	6273.7875
3178.83169	6265.1875
3181.15228	6270.1875
3183.47147	6287.9875
3185.78926	6253.2875
3188.10565	6259.6875
3190.42065	6247.7875
3192.73424	6270.9875
3195.04645	6264.9875
3197.35725	6286.4875
3199.66667	6302.4875
3201.97469	6283.9875
3204.28132	6291.4875
3206.58656	6292.4875
3208.8904	6295.3875
3211.19287	6307.3875
3213.49394	6297.8875
3215.79363	6283.3875
3218.09193	6296.4875
3220.38884	6305.4875
3222.68438	6311.9875
3224.97853	6293.5875
3227.2713	6296.4875
3229.56269	6290.3875
3231.8527	6276.4875
3234.14133	6271.9875
3236.42858	6246.1875
3238.71446	6252.4875
3240.99896	6246.6875
3243.28209	6246.3875
3245.56384	6238.9875
3247.84423	6233.9875
3250.12324	6235.3875
3252.40088	6227.2875
3254.67715	6205.9875
3256.95205	6202.0875
3259.22558	6207.0875
3261.49775	6212.1875
3263.76855	6203.5875
3266.03799	6189.2875
3268.30606	6187.8875
3270.57277	6187.4875
3272.83812	6188.8875
3275.10211	6168.1875
3277.36474	6175.1875
3279.62601	6143.2875
3281.88593	6142.0875
3284.14448	6149.4875
3286.40168	6151.1875
3288.65753	6138.9875
3290.91202	6143.2875
3293.16516	6145.0875
3295.41695	6119.7875
3297.66738	6087.8875
3299.91647	6071.6875
3302.16421	6036.6875
3304.4106	6000.2875
3306.65564	5993.0875
3308.89933	5931.0875
3311.14169	5899.7875
3313.38269	5837.8875
3315.62236	5818.0875
3317.86068	5769.8875
3320.09766	5728.8875
3322.3333	5670.4875
3324.5676	5665.5875
3326.80056	5573.3875
3329.03219	5536.6875
3331.26248	3.7875
3333.49143	-0.2125
3335.71905	-0.6125
