Data from AgNPs_FTO_APTES_UA_50uM_CRN_10uM_R6G_10uM_NaF_0.1M_Addition_RamanShift__16__13-32-04-881.txt Node

Date: Mon Feb 21 13:32:04 GMT 2022
User: TCL
Spectrometer: QEP01345
Trigger mode: 4
Integration Time (sec): 7.000000E0
Scans to average: 10
Electric dark correction enabled: true
Nonlinearity correction enabled: false
Boxcar width: 0
XAxis mode: Raman Shifts
Number of Pixels in Spectrum: 1044
>>>>>Begin Spectral Data<<<<<
46.04893	0.2375
50.45542	-0.7625
54.85868	0.1375
59.25871	-1.3625
63.6555	67.7375
68.04907	73.7375
72.43941	73.0375
76.82654	75.1375
81.21044	81.9375
85.59113	86.8375
89.96862	84.6375
94.34289	91.4375
98.71396	92.2375
103.08183	99.3375
107.4465	96.7375
111.80798	99.8375
116.16626	100.6375
120.52136	101.2375
124.87327	113.8375
129.222	115.8375
133.56755	120.8375
137.90993	136.1375
142.24913	143.7375
146.58517	162.9375
150.91804	187.0375
155.24774	224.4375
159.57429	275.6375
163.89768	360.3375
168.21792	479.3375
172.53501	649.8375
176.84895	907.0375
181.15975	1273.6375
185.46741	1789.0375
189.77193	2462.5375
194.07331	3303.5375
198.37157	4282.8375
202.6667	5264.8375
206.9587	6264.9375
211.24758	7261.3375
215.53334	8310.9375
219.81599	9445.1375
224.09553	10733.4375
228.37195	12161.3375
232.64527	13697.8375
236.91549	15270.2375
241.18261	16800.3375
245.44663	18039.4375
249.70755	19047.9375
253.96539	19845.4375
258.22014	20531.0375
262.4718	21165.0375
266.72039	21614.4375
270.96589	21800.4375
275.20832	21738.4375
279.44768	21467.7375
283.68397	21100.9375
287.91719	20871.4375
292.14735	20862.3375
296.37445	21036.8375
300.59849	21448.2375
304.81948	22028.1375
309.03742	22369.5375
313.25231	22225.3375
317.46415	21490.3375
321.67296	20346.6375
325.87872	19435.1375
330.08145	18981.6375
334.28114	18992.9375
338.47781	19206.9375
342.67145	19560.6375
346.86207	20140.8375
351.04966	20906.5375
355.23424	21818.5375
359.4158	22527.2375
363.59435	22948.2375
367.76989	23134.0375
371.94243	23182.1375
376.11196	23168.2375
380.27849	23155.6375
384.44203	23099.3375
388.60257	23086.4375
392.76012	23105.8375
396.91468	23236.3375
401.06626	23639.5375
405.21485	23923.5375
409.36047	23552.4375
413.50311	22682.5375
417.64277	21862.6375
421.77947	21468.2375
425.9132	21338.0375
430.04396	21311.3375
434.17176	21346.2375
438.2966	21625.2375
442.41849	22132.1375
446.53742	22794.0375
450.6534	23437.2375
454.76644	23863.2375
458.87653	24035.6375
462.98368	23863.6375
467.08789	23628.1375
471.18916	23227.5375
475.2875	22798.9375
479.38291	22429.2375
483.4754	22189.3375
487.56496	21904.8375
491.6516	21631.7375
495.73531	21426.9375
499.81612	21442.9375
503.89401	21689.8375
507.96899	21839.4375
512.04106	21955.6375
516.11023	22062.3375
520.1765	22053.0375
524.23987	21970.3375
528.30034	21734.2375
532.35792	21524.2375
536.41261	21224.6375
540.46441	20929.7375
544.51333	20765.8375
548.55936	20919.7375
552.60252	21379.5375
556.64279	21863.3375
560.6802	22246.7375
564.71473	22587.4375
568.7464	23240.6375
572.7752	23823.2375
576.80114	23812.3375
580.82422	23655.6375
584.84444	23657.2375
588.86181	23986.5375
592.87633	24351.6375
596.888	24596.8375
600.89682	24688.4375
604.9028	26305.3375
608.90594	31326.8375
612.90624	37211.2375
616.90371	34770.3375
620.89834	26078.3375
624.89015	22034.1375
628.87913	21364.0375
632.86528	21670.7375
636.84862	22011.5375
640.82913	21710.5375
644.80683	20870.1375
648.78172	20193.5375
652.75379	20063.5375
656.72306	20663.7375
660.68952	21413.9375
664.65319	21199.7375
668.61405	20464.4375
672.57211	20310.8375
676.52738	20480.6375
680.47986	20492.3375
684.42955	20282.6375
688.37646	20066.5375
692.32058	20067.5375
696.26192	20288.3375
700.20048	20499.6375
704.13626	20588.7375
708.06928	20506.6375
711.99952	20298.0375
715.927	20264.2375
719.85171	20363.5375
723.77365	20376.7375
727.69284	20175.3375
731.60928	19964.4375
735.52295	19938.1375
739.43388	19966.0375
743.34206	20060.6375
747.24749	20112.5375
751.15017	20239.4375
755.05012	20540.5375
758.94733	21347.6375
762.8418	23205.6375
766.73354	26544.4375
770.62254	29931.3375
774.50882	31244.5375
778.39237	29774.4375
782.27321	26543.8375
786.15132	23421.4375
790.02671	21455.4375
793.89938	20489.3375
797.76935	20025.1375
801.6366	19837.6375
805.50115	19691.7375
809.36299	19532.4375
813.22213	19355.6375
817.07857	19246.8375
820.93231	19159.7375
824.78336	19117.0375
828.63172	19163.9375
832.47738	19116.9375
836.32036	19065.2375
840.16066	18974.2375
843.99827	18983.7375
847.8332	18920.3375
851.66546	18921.2375
855.49504	18964.6375
859.32195	18974.3375
863.1462	18951.2375
866.96777	18894.6375
870.78668	18908.4375
874.60293	18904.7375
878.41652	18989.3375
882.22745	19104.3375
886.03573	19237.1375
889.84136	19237.3375
893.64433	19164.5375
897.44466	19047.4375
901.24235	19007.6375
905.0374	18879.0375
908.8298	18706.0375
912.61957	18620.7375
916.40671	18675.4375
920.19121	18840.4375
923.97308	19020.1375
927.75233	19137.1375
931.52895	19201.4375
935.30295	19016.2375
939.07433	18568.0375
942.84309	18197.4375
946.60924	17985.7375
950.37278	17956.8375
954.13371	17913.1375
957.89203	17841.5375
961.64774	17790.9375
965.40086	17785.2375
969.15137	17721.3375
972.89929	17649.3375
976.64461	17628.2375
980.38733	17606.4375
984.12747	17646.0375
987.86502	17759.5375
991.59999	17951.5375
995.33237	18206.6375
999.06217	18616.6375
1002.78939	19149.6375
1006.51404	19698.4375
1010.23611	20130.2375
1013.95561	20401.5375
1017.67255	20450.5375
1021.38692	20208.8375
1025.09872	19798.0375
1028.80796	19496.8375
1032.51465	19484.3375
1036.21877	19609.5375
1039.92035	19744.4375
1043.61937	19737.0375
1047.31584	19661.6375
1051.00976	19521.4375
1054.70114	19470.3375
1058.38998	19469.8375
1062.07627	19643.8375
1065.76003	19767.8375
1069.44126	19955.1375
1073.11995	20315.5375
1076.79611	20653.2375
1080.46974	21008.5375
1084.14085	21499.9375
1087.80943	21949.8375
1091.47549	22255.5375
1095.13903	22145.2375
1098.80005	21680.4375
1102.45857	21167.6375
1106.11456	20881.3375
1109.76805	20826.8375
1113.41903	21118.2375
1117.06751	21515.8375
1120.71348	22157.9375
1124.35696	22830.9375
1127.99793	23440.3375
1131.63641	23510.0375
1135.2724	22886.1375
1138.90589	22255.6375
1142.5369	21841.7375
1146.16542	21605.2375
1149.79145	21477.3375
1153.415	21609.1375
1157.03607	21719.0375
1160.65467	22240.6375
1164.27079	23186.9375
1167.88443	24601.8375
1171.49561	26567.5375
1175.10432	29397.0375
1178.71056	33089.0375
1182.31434	36486.2375
1185.91565	37965.8375
1189.51451	37481.6375
1193.11091	35837.1375
1196.70485	33706.5375
1200.29634	31678.7375
1203.88538	29935.2375
1207.47197	28286.8375
1211.05612	26884.3375
1214.63782	26035.8375
1218.21708	25568.1375
1221.79391	25479.4375
1225.36829	25557.0375
1228.94024	25415.8375
1232.50976	25029.2375
1236.07685	24604.7375
1239.6415	24359.4375
1243.20374	24299.5375
1246.76355	24338.4375
1250.32093	24646.6375
1253.8759	25192.8375
1257.42845	25983.2375
1260.97859	26973.2375
1264.52631	28073.8375
1268.07163	29208.7375
1271.61453	30173.7375
1275.15503	31031.4375
1278.69312	31725.2375
1282.22882	32318.5375
1285.76211	33093.3375
1289.29301	34199.9375
1292.82151	35647.0375
1296.34761	37370.6375
1299.87133	39574.5375
1303.39266	42637.9375
1306.9116	46533.3375
1310.42815	50445.1375
1313.94233	52472.8375
1317.45412	51567.0375
1320.96354	49106.4375
1324.47058	46624.4375
1327.97525	44429.3375
1331.47754	42988.1375
1334.97747	42256.8375
1338.47502	42190.8375
1341.97022	42593.0375
1345.46305	43363.1375
1348.95352	44501.0375
1352.44163	46164.0375
1355.92738	48820.1375
1359.41078	53099.8375
1362.89183	57259.5375
1366.37053	55703.9375
1369.84688	48438.9375
1373.32088	41021.1375
1376.79254	36371.7375
1380.26186	34171.1375
1383.72883	33120.4375
1387.19347	32386.3375
1390.65578	31718.4375
1394.11575	31282.7375
1397.57339	31258.4375
1401.0287	31463.7375
1404.48168	31700.4375
1407.93234	31720.0375
1411.38068	31386.9375
1414.82669	30832.1375
1418.27039	30051.4375
1421.71177	29263.6375
1425.15083	28409.8375
1428.58758	28086.6375
1432.02203	28273.3375
1435.45416	28843.6375
1438.88399	29407.5375
1442.31151	29811.0375
1445.73673	30125.9375
1449.15965	30422.6375
1452.58027	30672.4375
1455.9986	30820.8375
1459.41463	31132.6375
1462.82837	31710.7375
1466.23982	32351.4375
1469.64898	32901.5375
1473.05586	33167.1375
1476.46045	33103.7375
1479.86276	32967.8375
1483.26279	32938.5375
1486.66054	33211.9375
1490.05602	33803.4375
1493.44922	34757.4375
1496.84016	36309.6375
1500.22882	38926.7375
1503.61521	42724.2375
1506.99934	47133.4375
1510.38121	50554.1375
1513.76081	50841.7375
1517.13816	47528.8375
1520.51324	42548.2375
1523.88607	38222.6375
1527.25665	35480.6375
1530.62498	34093.4375
1533.99105	33276.5375
1537.35488	32626.1375
1540.71647	31965.5375
1544.07581	31303.7375
1547.4329	30811.1375
1550.78776	30449.9375
1554.14038	30279.8375
1557.49077	30448.5375
1560.83892	30798.3375
1564.18484	31411.1375
1567.52853	32163.1375
1570.86999	32849.5375
1574.20922	33492.6375
1577.54624	33442.2375
1580.88103	32411.0375
1584.2136	31095.8375
1587.54395	30781.3375
1590.87208	31727.6375
1594.19801	33651.2375
1597.52172	35800.9375
1600.84321	36481.1375
1604.16251	35006.1375
1607.47959	32564.5375
1610.79447	29954.3375
1614.10715	27373.3375
1617.41763	25231.5375
1620.7259	23699.7375
1624.03199	22969.2375
1627.33587	22941.3375
1630.63757	23627.4375
1633.93707	25262.9375
1637.23439	28036.8375
1640.52951	32019.6375
1643.82246	37017.8375
1647.11321	41577.5375
1650.40179	43418.7375
1653.68819	40773.5375
1656.97241	34710.7375
1660.25446	28533.5375
1663.53433	24151.9375
1666.81203	21456.4375
1670.08756	19802.8375
1673.36092	18874.0375
1676.63211	18208.1375
1679.90115	17769.0375
1683.16801	17469.5375
1686.43272	17196.1375
1689.69527	16953.6375
1692.95567	16794.8375
1696.2139	16643.4375
1699.46999	16456.3375
1702.72392	16387.9375
1705.97571	16414.2375
1709.22535	16459.4375
1712.47284	16458.5375
1715.71819	16469.9375
1718.96139	16406.0375
1722.20246	16322.7375
1725.44139	16201.0375
1728.67818	16066.0375
1731.91284	15959.2375
1735.14537	15837.0375
1738.37576	15778.6375
1741.60403	15706.2375
1744.83017	15611.3375
1748.05418	15583.6375
1751.27607	15514.9375
1754.49584	15418.9375
1757.71349	15346.8375
1760.92903	15291.3375
1764.14244	15248.2375
1767.35375	15214.0375
1770.56294	15120.7375
1773.77002	15140.5375
1776.97499	15093.0375
1780.17785	15113.3375
1783.37861	15153.0375
1786.57727	15100.0375
1789.77382	15039.1375
1792.96828	15028.6375
1796.16064	14973.9375
1799.3509	14955.0375
1802.53907	14941.2375
1805.72514	14895.3375
1808.90913	14844.6375
1812.09102	14815.1375
1815.27083	14798.6375
1818.44856	14766.5375
1821.6242	14721.3375
1824.79776	14727.9375
1827.96924	14748.1375
1831.13864	14737.3375
1834.30597	14732.7375
1837.47122	14743.7375
1840.6344	14738.9375
1843.7955	14773.5375
1846.95454	14730.8375
1850.11151	14742.8375
1853.26642	14741.5375
1856.41926	14708.0375
1859.57004	14687.2375
1862.71876	14675.8375
1865.86542	14630.9375
1869.01003	14618.1375
1872.15258	14644.5375
1875.29308	14586.7375
1878.43152	14588.1375
1881.56792	14579.0375
1884.70227	14571.3375
1887.83457	14548.9375
1890.96482	14510.3375
1894.09304	14474.9375
1897.21921	14454.9375
1900.34335	14464.0375
1903.46544	14426.9375
1906.58551	14455.7375
1909.70353	14376.1375
1912.81953	14318.3375
1915.93349	14304.1375
1919.04543	14265.4375
1922.15534	14226.3375
1925.26322	14188.5375
1928.36908	14171.3375
1931.47292	14103.0375
1934.57473	14012.0375
1937.67453	14002.7375
1940.77232	13940.1375
1943.86808	13890.3375
1946.96184	13857.9375
1950.05358	13840.4375
1953.14331	13774.9375
1956.23103	13690.2375
1959.31675	13679.2375
1962.40046	13662.3375
1965.48217	13622.5375
1968.56188	13625.9375
1971.63959	13561.6375
1974.7153	13539.8375
1977.78901	13485.9375
1980.86073	13426.9375
1983.93046	13388.9375
1986.99819	13352.7375
1990.06394	13322.8375
1993.1277	13254.4375
1996.18947	13193.0375
1999.24925	13169.5375
2002.30706	13102.6375
2005.36288	13055.9375
2008.41672	13025.8375
2011.46859	12998.8375
2014.51848	12970.2375
2017.56639	12935.6375
2020.61233	12914.7375
2023.6563	12872.1375
2026.6983	12829.5375
2029.73833	12818.4375
2032.7764	12764.4375
2035.8125	12744.7375
2038.84664	12720.4375
2041.87881	12698.6375
2044.90903	12652.7375
2047.93729	12691.3375
2050.96359	12681.0375
2053.98794	12651.6375
2057.01034	12634.2375
2060.03078	12630.4375
2063.04927	12595.4375
2066.06582	12592.2375
2069.08042	12553.5375
2072.09307	12553.5375
2075.10378	12527.7375
2078.11255	12522.3375
2081.11938	12515.5375
2084.12426	12517.5375
2087.12722	12531.6375
2090.12824	12540.9375
2093.12732	12526.5375
2096.12447	12556.6375
2099.11969	12511.6375
2102.11299	12494.9375
2105.10435	12534.0375
2108.09379	12519.3375
2111.08131	12512.8375
2114.0669	12519.1375
2117.05057	12542.2375
2120.03233	12542.6375
2123.01216	12550.0375
2125.99008	12537.1375
2128.96609	12592.9375
2131.94018	12587.3375
2134.91236	12611.3375
2137.88263	12596.4375
2140.851	12576.5375
2143.81746	12594.2375
2146.78201	12589.0375
2149.74466	12578.9375
2152.7054	12565.9375
2155.66425	12567.8375
2158.6212	12543.2375
2161.57625	12532.1375
2164.52941	12535.9375
2167.48067	12529.2375
2170.43004	12532.2375
2173.37752	12509.6375
2176.32311	12501.4375
2179.26681	12524.9375
2182.20863	12498.4375
2185.14856	12518.0375
2188.08661	12513.3375
2191.02278	12525.7375
2193.95707	12489.3375
2196.88948	12482.3375
2199.82001	12464.9375
2202.74867	12453.6375
2205.67545	12475.6375
2208.60037	12438.5375
2211.52341	12417.6375
2214.44458	12387.2375
2217.36388	12364.5375
2220.28132	12334.1375
2223.1969	12313.7375
2226.11061	12285.1375
2229.02246	12263.6375
2231.93245	12268.6375
2234.84058	12224.9375
2237.74686	12217.6375
2240.65128	12200.0375
2243.55385	12197.4375
2246.45456	12156.1375
2249.35343	12134.4375
2252.25044	12144.3375
2255.14561	12144.5375
2258.03893	12135.4375
2260.93041	12099.5375
2263.82004	12080.3375
2266.70783	12052.2375
2269.59378	12029.2375
2272.4779	11987.7375
2275.36017	11981.7375
2278.24061	11952.6375
2281.11922	11912.3375
2283.996	11873.7375
2286.87094	11877.1375
2289.74405	11857.1375
2292.61534	11822.2375
2295.4848	11811.7375
2298.35243	11810.4375
2301.21824	11818.1375
2304.08223	11803.2375
2306.94439	11793.3375
2309.80474	11828.3375
2312.66327	11797.6375
2315.51999	11770.3375
2318.37489	11773.9375
2321.22797	11761.1375
2324.07925	11741.8375
2326.92871	11736.8375
2329.77637	11701.2375
2332.62222	11685.1375
2335.46626	11711.2375
2338.3085	11712.6375
2341.14893	11652.5375
2343.98756	11691.2375
2346.8244	11700.5375
2349.65943	11696.3375
2352.49267	11681.6375
2355.32411	11717.9375
2358.15376	11756.0375
2360.98161	11738.1375
2363.80768	11716.0375
2366.63195	11733.4375
2369.45444	11717.7375
2372.27514	11705.6375
2375.09405	11695.3375
2377.91118	11689.7375
2380.72652	11622.7375
2383.54009	11602.3375
2386.35187	11548.0375
2389.16188	11524.6375
2391.97011	11476.8375
2394.77657	11481.1375
2397.58125	11458.8375
2400.38416	11443.2375
2403.18529	11399.0375
2405.98466	11391.2375
2408.78226	11366.6375
2411.57809	11351.3375
2414.37216	11312.1375
2417.16446	11315.6375
2419.955	11326.6375
2422.74378	11333.4375
2425.5308	11291.6375
2428.31606	11302.1375
2431.09956	11307.2375
2433.88131	11294.1375
2436.6613	11301.7375
2439.43954	11321.7375
2442.21603	11308.2375
2444.99077	11300.4375
2447.76377	11305.1375
2450.53501	11298.4375
2453.30451	11310.2375
2456.07226	11308.4375
2458.83827	11307.5375
2461.60254	11313.2375
2464.36507	11286.2375
2467.12586	11279.9375
2469.88492	11288.9375
2472.64224	11282.3375
2475.39782	11298.9375
2478.15167	11276.0375
2480.90379	11287.4375
2483.65417	11327.2375
2486.40283	11331.0375
2489.14976	11347.5375
2491.89497	11335.9375
2494.63845	11342.3375
2497.3802	11312.6375
2500.12024	11310.4375
2502.85855	11311.4375
2505.59514	11283.3375
2508.33002	11275.7375
2511.06318	11257.9375
2513.79462	11221.0375
2516.52435	11181.4375
2519.25237	11193.0375
2521.97867	11140.6375
2524.70327	11137.5375
2527.42616	11133.1375
2530.14734	11132.9375
2532.86681	11132.8375
2535.58458	11118.9375
2538.30065	11141.6375
2541.01501	11119.9375
2543.72768	11096.3375
2546.43864	11083.3375
2549.14791	11069.7375
2551.85548	11091.6375
2554.56136	11051.7375
2557.26554	11033.6375
2559.96803	11032.3375
2562.66883	11059.3375
2565.36794	11020.5375
2568.06536	11036.0375
2570.7611	11016.9375
2573.45514	10988.7375
2576.14751	10979.2375
2578.83819	10958.4375
2581.52719	10959.0375
2584.21451	10937.8375
2586.90015	10938.4375
2589.58411	10919.1375
2592.2664	10927.7375
2594.94701	10909.6375
2597.62594	10906.3375
2600.30321	10900.3375
2602.9788	10898.5375
2605.65273	10914.0375
2608.32498	10890.7375
2610.99557	10867.3375
2613.66449	10871.3375
2616.33175	10868.5375
2618.99734	10904.5375
2621.66128	10895.8375
2624.32355	10881.1375
2626.98416	10860.4375
2629.64311	10851.1375
2632.30041	10839.7375
2634.95605	10824.3375
2637.61004	10825.2375
2640.26238	10804.0375
2642.91306	10772.3375
2645.56209	10765.0375
2648.20948	10741.4375
2650.85521	10801.5375
2653.4993	10805.2375
2656.14175	10824.3375
2658.78255	10832.0375
2661.42171	10824.9375
2664.05923	10892.3375
2666.6951	10872.6375
2669.32934	10863.9375
2671.96194	10856.9375
2674.59291	10859.2375
2677.22224	10863.8375
2679.84993	10877.3375
2682.476	10837.2375
2685.10043	10831.1375
2687.72324	10810.4375
2690.34441	10823.9375
2692.96396	10792.7375
2695.58188	10822.9375
2698.19818	10801.6375
2700.81285	10803.3375
2703.4259	10796.2375
2706.03733	10727.4375
2708.64714	10744.5375
2711.25533	10787.2375
2713.86191	10818.1375
2716.46687	10815.8375
2719.07021	10819.6375
2721.67194	10846.4375
2724.27206	10867.6375
2726.87057	10865.0375
2729.46747	10888.1375
2732.06276	10863.1375
2734.65644	10852.1375
2737.24852	10853.9375
2739.83899	10812.6375
2742.42786	10851.2375
2745.01513	10825.9375
2747.60079	10823.2375
2750.18486	10798.9375
2752.76733	10772.6375
2755.3482	10766.7375
2757.92747	10756.0375
2760.50515	10719.5375
2763.08123	10765.8375
2765.65573	10740.0375
2768.22863	10722.5375
2770.79994	10702.0375
2773.36967	10701.0375
2775.9378	10701.2375
2778.50435	10734.7375
2781.06932	10715.5375
2783.6327	10726.0375
2786.1945	10723.5375
2788.75471	10719.8375
2791.31335	10713.1375
2793.87041	10690.5375
2796.42589	10667.6375
2798.97979	10627.7375
2801.53212	10648.6375
2804.08288	10626.2375
2806.63206	10611.3375
2809.17967	10594.9375
2811.72571	10569.2375
2814.27018	10523.8375
2816.81308	10538.2375
2819.35442	10497.8375
2821.89419	10534.6375
2824.43239	10568.2375
2826.96904	10524.2375
2829.50412	10529.4375
2832.03763	10514.5375
2834.56959	10502.6375
2837.1	10485.2375
2839.62884	10491.1375
2842.15613	10473.3375
2844.68186	10445.6375
2847.20604	10442.2375
2849.72867	10439.8375
2852.24974	10446.3375
2854.76927	10422.2375
2857.28724	10411.7375
2859.80367	10427.0375
2862.31855	10441.7375
2864.83189	10431.1375
2867.34368	10411.8375
2869.85393	10465.3375
2872.36264	10458.5375
2874.8698	10442.5375
2877.37543	10441.6375
2879.87952	10433.2375
2882.38207	10451.4375
2884.88308	10446.6375
2887.38256	10442.1375
2889.88051	10435.8375
2892.37692	10409.4375
2894.8718	10443.2375
2897.36515	10458.1375
2899.85698	10453.5375
2902.34727	10493.8375
2904.83604	10493.1375
2907.32328	10488.0375
2909.809	10508.4375
2912.29319	10537.4375
2914.77587	10578.1375
2917.25702	10516.7375
2919.73665	10512.6375
2922.21476	10507.1375
2924.69136	10533.3375
2927.16644	10517.3375
2929.64	10473.2375
2932.11205	10442.3375
2934.58258	10404.8375
2937.05161	10398.3375
2939.51912	10394.7375
2941.98513	10384.1375
2944.44962	10368.2375
2946.91261	10317.1375
2949.37409	10341.2375
2951.83407	10323.7375
2954.29254	10296.0375
2956.74951	10276.6375
2959.20498	10280.6375
2961.65895	10269.0375
2964.11142	10302.9375
2966.56239	10255.3375
2969.01186	10214.8375
2971.45984	10191.5375
2973.90632	10178.1375
2976.35131	10132.7375
2978.7948	10118.9375
2981.23681	10101.6375
2983.67732	10101.2375
2986.11635	10048.9375
2988.55388	10038.4375
2990.98993	9992.1375
2993.4245	10016.4375
2995.85758	9992.2375
2998.28917	9990.4375
3000.71928	9968.7375
3003.14791	9919.7375
3005.57506	9902.0375
3008.00073	9879.6375
3010.42493	9869.9375
3012.84764	9852.5375
3015.26888	9846.2375
3017.68865	9798.2375
3020.10694	9784.8375
3022.52376	9764.2375
3024.9391	9759.1375
3027.35298	9749.8375
3029.76539	9744.4375
3032.17632	9748.7375
3034.5858	9687.1375
3036.9938	9704.7375
3039.40034	9651.0375
3041.80542	9660.3375
3044.20903	9652.6375
3046.61118	9654.0375
3049.01187	9634.9375
3051.4111	9632.3375
3053.80888	9596.8375
3056.20519	9615.9375
3058.60005	9570.9375
3060.99345	9566.8375
3063.3854	9533.3375
3065.7759	9504.9375
3068.16494	9489.7375
3070.55254	9420.1375
3072.93868	9397.8375
3075.32338	9369.9375
3077.70662	9344.9375
3080.08842	9335.4375
3082.46878	9321.9375
3084.84769	9335.5375
3087.22515	9306.3375
3089.60118	9297.4375
3091.97576	9303.4375
3094.3489	9281.1375
3096.72061	9262.6375
3099.09087	9270.1375
3101.4597	9279.7375
3103.82709	9266.2375
3106.19305	9250.5375
3108.55757	9272.8375
3110.92066	9232.0375
3113.28232	9224.4375
3115.64255	9205.9375
3118.00134	9160.2375
3120.35871	9152.7375
3122.71466	9120.1375
3125.06917	9111.8375
3127.42226	9072.8375
3129.77393	9091.3375
3132.12417	9082.3375
3134.47299	9056.8375
3136.82039	9063.5375
3139.16636	9051.9375
3141.51092	9066.5375
3143.85406	9062.0375
3146.19579	9074.8375
3148.53609	9073.1375
3150.87499	9080.6375
3153.21246	9058.2375
3155.54853	9076.8375
3157.88318	9103.4375
3160.21642	9089.6375
3162.54826	9102.9375
3164.87868	9088.2375
3167.2077	9114.8375
3169.5353	9112.5375
3171.86151	9097.8375
3174.18631	9074.1375
3176.5097	9063.5375
3178.83169	9037.7375
3181.15228	9044.0375
3183.47147	8999.3375
3185.78926	9026.9375
3188.10565	8997.6375
3190.42065	8982.8375
3192.73424	9020.0375
3195.04645	9024.9375
3197.35725	9011.6375
3199.66667	9025.1375
3201.97469	9013.2375
3204.28132	9020.1375
3206.58656	9006.7375
3208.8904	9025.4375
3211.19287	9001.6375
3213.49394	9042.9375
3215.79363	9027.2375
3218.09193	9042.7375
3220.38884	9090.5375
3222.68438	9078.2375
3224.97853	9043.1375
3227.2713	9030.5375
3229.56269	9014.0375
3231.8527	8992.9375
3234.14133	8999.3375
3236.42858	8956.7375
3238.71446	8939.8375
3240.99896	8928.4375
3243.28209	8932.9375
3245.56384	8935.5375
3247.84423	8920.0375
3250.12324	8905.5375
3252.40088	8916.1375
3254.67715	8902.4375
3256.95205	8873.0375
3259.22558	8887.1375
3261.49775	8878.2375
3263.76855	8893.0375
3266.03799	8860.4375
3268.30606	8847.9375
3270.57277	8828.9375
3272.83812	8832.0375
3275.10211	8793.5375
3277.36474	8808.0375
3279.62601	8787.0375
3281.88593	8776.9375
3284.14448	8771.9375
3286.40168	8794.9375
3288.65753	8812.8375
3290.91202	8802.9375
3293.16516	8794.7375
3295.41695	8794.6375
3297.66738	8733.8375
3299.91647	8689.3375
3302.16421	8637.1375
3304.4106	8616.8375
3306.65564	8557.6375
3308.89933	8492.9375
3311.14169	8435.3375
3313.38269	8343.1375
3315.62236	8305.4375
3317.86068	8232.7375
3320.09766	8156.5375
3322.3333	8102.5375
3324.5676	8073.7375
3326.80056	7937.2375
3329.03219	7894.2375
3331.26248	2.8375
3333.49143	-1.4625
3335.71905	0.4375
