Data from AgNPs_FTO_APTES_UA_50uM_CRN_0uM_R6G_10uM_NaF_0.1M_Addition_RamanShift__37__10-53-24-672.txt Node

Date: Mon Feb 21 10:53:24 GMT 2022
User: TCL
Spectrometer: QEP01345
Trigger mode: 4
Integration Time (sec): 7.000000E0
Scans to average: 10
Electric dark correction enabled: true
Nonlinearity correction enabled: false
Boxcar width: 0
XAxis mode: Raman Shifts
Number of Pixels in Spectrum: 1044
>>>>>Begin Spectral Data<<<<<
46.04893	0.4375
50.45542	-0.6625
54.85868	0.2375
59.25871	-1.8625
63.6555	49.7375
68.04907	53.6375
72.43941	56.7375
76.82654	59.5375
81.21044	63.1375
85.59113	64.6375
89.96862	66.5375
94.34289	69.8375
98.71396	67.0375
103.08183	77.0375
107.4465	73.8375
111.80798	73.2375
116.16626	72.3375
120.52136	76.9375
124.87327	86.9375
129.222	81.2375
133.56755	86.5375
137.90993	94.9375
142.24913	100.1375
146.58517	111.9375
150.91804	127.7375
155.24774	151.8375
159.57429	185.6375
163.89768	240.0375
168.21792	313.3375
172.53501	423.0375
176.84895	590.3375
181.15975	825.8375
185.46741	1162.7375
189.77193	1606.7375
194.07331	2138.8375
198.37157	2749.8375
202.6667	3383.1375
206.9587	4027.6375
211.24758	4678.3375
215.53334	5311.4375
219.81599	6023.6375
224.09553	6816.9375
228.37195	7670.1375
232.64527	8619.4375
236.91549	9563.6375
241.18261	10523.5375
245.44663	11334.1375
249.70755	12049.3375
253.96539	12627.9375
258.22014	13151.3375
262.4718	13577.1375
266.72039	13888.3375
270.96589	14007.4375
275.20832	14010.8375
279.44768	13888.0375
283.68397	13723.5375
287.91719	13580.9375
292.14735	13534.4375
296.37445	13625.7375
300.59849	13787.3375
304.81948	14011.3375
309.03742	14177.7375
313.25231	14147.3375
317.46415	13768.2375
321.67296	13218.2375
325.87872	12737.6375
330.08145	12463.2375
334.28114	12413.1375
338.47781	12485.1375
342.67145	12717.1375
346.86207	12991.5375
351.04966	13400.2375
355.23424	13825.3375
359.4158	14173.2375
363.59435	14443.1375
367.76989	14516.9375
371.94243	14541.5375
376.11196	14546.9375
380.27849	14555.0375
384.44203	14598.1375
388.60257	14614.2375
392.76012	14663.3375
396.91468	14831.9375
401.06626	15086.2375
405.21485	15292.2375
409.36047	15176.8375
413.50311	14824.4375
417.64277	14454.9375
421.77947	14336.7375
425.9132	14298.8375
430.04396	14356.2375
434.17176	14395.3375
438.2966	14547.7375
442.41849	14822.2375
446.53742	15279.5375
450.6534	15762.3375
454.76644	16119.4375
458.87653	16222.9375
462.98368	16069.5375
467.08789	15836.6375
471.18916	15528.8375
475.2875	15260.0375
479.38291	15072.2375
483.4754	14990.9375
487.56496	14809.0375
491.6516	14639.1375
495.73531	14439.9375
499.81612	14352.0375
503.89401	14448.7375
507.96899	14485.7375
512.04106	14532.4375
516.11023	14448.7375
520.1765	14378.9375
524.23987	14286.5375
528.30034	14172.4375
532.35792	14017.0375
536.41261	13788.5375
540.46441	13563.5375
544.51333	13451.6375
548.55936	13567.2375
552.60252	13883.7375
556.64279	14319.7375
560.6802	14630.4375
564.71473	14876.4375
568.7464	15337.2375
572.7752	15848.9375
576.80114	16060.4375
580.82422	16125.8375
584.84444	16318.4375
588.86181	16627.8375
592.87633	17022.1375
596.888	17055.1375
600.89682	16717.2375
604.9028	17157.0375
608.90594	19494.0375
612.90624	22363.5375
616.90371	21227.6375
620.89834	16663.3375
624.89015	14412.6375
628.87913	14058.8375
632.86528	14135.6375
636.84862	14165.3375
640.82913	13963.5375
644.80683	13515.3375
648.78172	13144.0375
652.75379	13106.9375
656.72306	13354.7375
660.68952	13772.7375
664.65319	13693.3375
668.61405	13317.6375
672.57211	13168.5375
676.52738	13242.9375
680.47986	13275.1375
684.42955	13171.3375
688.37646	13129.3375
692.32058	13211.9375
696.26192	13364.3375
700.20048	13501.9375
704.13626	13578.8375
708.06928	13545.2375
711.99952	13449.4375
715.927	13430.3375
719.85171	13497.8375
723.77365	13475.9375
727.69284	13274.2375
731.60928	13054.7375
735.52295	12991.6375
739.43388	13010.8375
743.34206	13080.3375
747.24749	13137.8375
751.15017	13243.4375
755.05012	13464.2375
758.94733	13949.8375
762.8418	14929.6375
766.73354	16612.6375
770.62254	18295.2375
774.50882	18872.3375
778.39237	18013.7375
782.27321	16358.4375
786.15132	14873.5375
790.02671	13878.1375
793.89938	13403.3375
797.76935	13195.6375
801.6366	13133.1375
805.50115	13094.2375
809.36299	12996.3375
813.22213	12857.7375
817.07857	12797.9375
820.93231	12746.4375
824.78336	12686.8375
828.63172	12652.5375
832.47738	12628.9375
836.32036	12608.8375
840.16066	12633.8375
843.99827	12644.8375
847.8332	12623.8375
851.66546	12600.9375
855.49504	12574.4375
859.32195	12587.7375
863.1462	12544.4375
866.96777	12480.9375
870.78668	12468.0375
874.60293	12491.0375
878.41652	12485.6375
882.22745	12602.4375
886.03573	12676.7375
889.84136	12671.8375
893.64433	12600.2375
897.44466	12543.4375
901.24235	12503.0375
905.0374	12418.7375
908.8298	12322.0375
912.61957	12308.7375
916.40671	12348.5375
920.19121	12492.6375
923.97308	12665.0375
927.75233	12805.2375
931.52895	12807.5375
935.30295	12609.2375
939.07433	12296.4375
942.84309	12034.2375
946.60924	11932.3375
950.37278	11896.9375
954.13371	11865.9375
957.89203	11823.5375
961.64774	11768.8375
965.40086	11761.2375
969.15137	11729.0375
972.89929	11684.7375
976.64461	11660.2375
980.38733	11655.8375
984.12747	11672.4375
987.86502	11750.2375
991.59999	11916.8375
995.33237	12139.2375
999.06217	12490.7375
1002.78939	12927.9375
1006.51404	13233.3375
1010.23611	13482.5375
1013.95561	13629.6375
1017.67255	13621.0375
1021.38692	13444.0375
1025.09872	13161.1375
1028.80796	13113.3375
1032.51465	13262.5375
1036.21877	13488.4375
1039.92035	13530.4375
1043.61937	13433.1375
1047.31584	13243.8375
1051.00976	13039.5375
1054.70114	12876.6375
1058.38998	12900.5375
1062.07627	12969.0375
1065.76003	13071.9375
1069.44126	13186.0375
1073.11995	13432.3375
1076.79611	13708.2375
1080.46974	13895.1375
1084.14085	14089.2375
1087.80943	14365.8375
1091.47549	14537.2375
1095.13903	14498.1375
1098.80005	14186.4375
1102.45857	13800.7375
1106.11456	13525.7375
1109.76805	13423.2375
1113.41903	13497.2375
1117.06751	13646.2375
1120.71348	13910.7375
1124.35696	14198.0375
1127.99793	14509.3375
1131.63641	14615.7375
1135.2724	14443.5375
1138.90589	14180.5375
1142.5369	14042.5375
1146.16542	13970.4375
1149.79145	13998.2375
1153.415	14021.1375
1157.03607	14197.5375
1160.65467	14568.5375
1164.27079	15233.7375
1167.88443	16123.2375
1171.49561	17321.0375
1175.10432	19077.7375
1178.71056	21315.0375
1182.31434	23336.1375
1185.91565	24281.3375
1189.51451	24057.3375
1193.11091	23158.8375
1196.70485	21893.0375
1200.29634	20663.8375
1203.88538	19686.9375
1207.47197	18859.4375
1211.05612	18145.8375
1214.63782	17732.4375
1218.21708	17492.5375
1221.79391	17414.5375
1225.36829	17433.3375
1228.94024	17252.7375
1232.50976	16832.5375
1236.07685	16426.8375
1239.6415	16177.4375
1243.20374	16093.4375
1246.76355	16137.5375
1250.32093	16310.2375
1253.8759	16708.8375
1257.42845	17279.0375
1260.97859	17923.9375
1264.52631	18651.6375
1268.07163	19369.0375
1271.61453	20030.6375
1275.15503	20646.1375
1278.69312	21255.3375
1282.22882	21853.2375
1285.76211	22429.0375
1289.29301	23188.1375
1292.82151	24053.4375
1296.34761	25255.2375
1299.87133	26754.8375
1303.39266	28723.6375
1306.9116	30959.3375
1310.42815	33355.6375
1313.94233	34982.3375
1317.45412	34960.6375
1320.96354	33786.5375
1324.47058	32411.7375
1327.97525	31165.6375
1331.47754	30340.4375
1334.97747	29847.8375
1338.47502	29530.4375
1341.97022	29310.5375
1345.46305	28977.8375
1348.95352	28834.3375
1352.44163	29093.8375
1355.92738	30193.3375
1359.41078	32390.3375
1362.89183	34728.3375
1366.37053	34556.4375
1369.84688	31130.7375
1373.32088	26860.8375
1376.79254	23983.9375
1380.26186	22654.9375
1383.72883	22231.8375
1387.19347	21923.4375
1390.65578	21554.8375
1394.11575	21407.3375
1397.57339	21623.9375
1401.0287	22041.8375
1404.48168	22427.8375
1407.93234	22549.7375
1411.38068	22300.0375
1414.82669	21727.3375
1418.27039	20835.2375
1421.71177	19988.8375
1425.15083	19271.5375
1428.58758	18939.4375
1432.02203	19026.1375
1435.45416	19519.9375
1438.88399	20043.9375
1442.31151	20431.4375
1445.73673	20712.5375
1449.15965	20962.6375
1452.58027	21176.9375
1455.9986	21181.7375
1459.41463	21342.8375
1462.82837	21669.4375
1466.23982	22101.9375
1469.64898	22456.8375
1473.05586	22657.0375
1476.46045	22641.3375
1479.86276	22516.4375
1483.26279	22393.8375
1486.66054	22390.8375
1490.05602	22622.4375
1493.44922	22936.3375
1496.84016	23493.5375
1500.22882	24409.5375
1503.61521	25882.8375
1506.99934	27615.4375
1510.38121	29140.0375
1513.76081	29609.8375
1517.13816	28533.4375
1520.51324	26390.7375
1523.88607	24311.8375
1527.25665	23027.2375
1530.62498	22442.6375
1533.99105	22125.4375
1537.35488	21877.8375
1540.71647	21476.5375
1544.07581	21015.2375
1547.4329	20581.6375
1550.78776	20134.0375
1554.14038	19872.0375
1557.49077	19772.3375
1560.83892	19771.4375
1564.18484	19990.9375
1567.52853	20251.2375
1570.86999	20596.3375
1574.20922	20970.7375
1577.54624	21158.9375
1580.88103	20942.0375
1584.2136	20621.6375
1587.54395	20928.9375
1590.87208	21965.2375
1594.19801	23621.6375
1597.52172	25365.9375
1600.84321	25978.8375
1604.16251	24784.8375
1607.47959	22609.6375
1610.79447	20321.6375
1614.10715	18251.5375
1617.41763	16638.3375
1620.7259	15530.8375
1624.03199	15044.5375
1627.33587	15003.0375
1630.63757	15520.3375
1633.93707	16600.0375
1637.23439	18467.9375
1640.52951	21169.4375
1643.82246	24453.1375
1647.11321	27211.9375
1650.40179	28194.4375
1653.68819	26315.8375
1656.97241	22444.1375
1660.25446	18531.0375
1663.53433	15626.3375
1666.81203	13875.6375
1670.08756	12828.4375
1673.36092	12201.5375
1676.63211	11819.8375
1679.90115	11547.6375
1683.16801	11331.8375
1686.43272	11180.9375
1689.69527	11023.8375
1692.95567	10886.1375
1696.2139	10746.9375
1699.46999	10585.6375
1702.72392	10526.2375
1705.97571	10579.9375
1709.22535	10681.3375
1712.47284	10685.8375
1715.71819	10737.1375
1718.96139	10694.0375
1722.20246	10669.4375
1725.44139	10583.3375
1728.67818	10505.1375
1731.91284	10436.8375
1735.14537	10371.1375
1738.37576	10330.8375
1741.60403	10289.5375
1744.83017	10195.5375
1748.05418	10165.1375
1751.27607	10096.2375
1754.49584	10032.0375
1757.71349	9956.7375
1760.92903	9898.0375
1764.14244	9894.8375
1767.35375	9893.7375
1770.56294	9865.0375
1773.77002	9867.6375
1776.97499	9916.8375
1780.17785	9937.8375
1783.37861	9937.4375
1786.57727	9934.3375
1789.77382	9946.5375
1792.96828	9964.3375
1796.16064	9929.4375
1799.3509	9902.3375
1802.53907	9891.5375
1805.72514	9848.9375
1808.90913	9820.8375
1812.09102	9790.7375
1815.27083	9804.3375
1818.44856	9783.5375
1821.6242	9749.4375
1824.79776	9739.2375
1827.96924	9726.4375
1831.13864	9726.1375
1834.30597	9749.3375
1837.47122	9755.7375
1840.6344	9722.6375
1843.7955	9725.1375
1846.95454	9722.9375
1850.11151	9717.1375
1853.26642	9680.2375
1856.41926	9694.5375
1859.57004	9699.7375
1862.71876	9685.5375
1865.86542	9708.0375
1869.01003	9672.9375
1872.15258	9674.8375
1875.29308	9671.9375
1878.43152	9664.0375
1881.56792	9659.7375
1884.70227	9679.8375
1887.83457	9649.6375
1890.96482	9651.9375
1894.09304	9607.9375
1897.21921	9612.1375
1900.34335	9602.5375
1903.46544	9585.9375
1906.58551	9570.7375
1909.70353	9568.5375
1912.81953	9544.4375
1915.93349	9526.0375
1919.04543	9494.2375
1922.15534	9487.3375
1925.26322	9456.2375
1928.36908	9410.3375
1931.47292	9389.6375
1934.57473	9357.1375
1937.67453	9343.7375
1940.77232	9311.2375
1943.86808	9298.1375
1946.96184	9274.1375
1950.05358	9225.2375
1953.14331	9190.2375
1956.23103	9146.5375
1959.31675	9118.6375
1962.40046	9106.5375
1965.48217	9079.2375
1968.56188	9097.2375
1971.63959	9045.2375
1974.7153	9034.9375
1977.78901	9004.2375
1980.86073	8963.5375
1983.93046	8915.3375
1986.99819	8873.8375
1990.06394	8870.2375
1993.1277	8838.3375
1996.18947	8814.4375
1999.24925	8785.3375
2002.30706	8755.1375
2005.36288	8731.5375
2008.41672	8719.2375
2011.46859	8683.3375
2014.51848	8679.9375
2017.56639	8634.9375
2020.61233	8617.9375
2023.6563	8613.6375
2026.6983	8597.7375
2029.73833	8593.7375
2032.7764	8536.2375
2035.8125	8529.5375
2038.84664	8509.2375
2041.87881	8518.1375
2044.90903	8507.1375
2047.93729	8479.1375
2050.96359	8471.2375
2053.98794	8460.8375
2057.01034	8439.5375
2060.03078	8451.5375
2063.04927	8411.2375
2066.06582	8438.7375
2069.08042	8400.4375
2072.09307	8421.2375
2075.10378	8397.4375
2078.11255	8388.1375
2081.11938	8408.7375
2084.12426	8394.9375
2087.12722	8389.5375
2090.12824	8400.5375
2093.12732	8391.9375
2096.12447	8425.4375
2099.11969	8395.7375
2102.11299	8374.7375
2105.10435	8407.7375
2108.09379	8404.9375
2111.08131	8412.0375
2114.0669	8409.5375
2117.05057	8420.1375
2120.03233	8426.4375
2123.01216	8414.2375
2125.99008	8453.7375
2128.96609	8449.9375
2131.94018	8440.3375
2134.91236	8450.0375
2137.88263	8442.1375
2140.851	8461.3375
2143.81746	8469.9375
2146.78201	8431.2375
2149.74466	8453.2375
2152.7054	8456.0375
2155.66425	8447.8375
2158.6212	8454.0375
2161.57625	8447.4375
2164.52941	8407.3375
2167.48067	8420.5375
2170.43004	8415.0375
2173.37752	8429.6375
2176.32311	8418.2375
2179.26681	8422.4375
2182.20863	8422.0375
2185.14856	8419.2375
2188.08661	8418.4375
2191.02278	8427.0375
2193.95707	8421.5375
2196.88948	8429.1375
2199.82001	8403.4375
2202.74867	8419.8375
2205.67545	8391.3375
2208.60037	8389.1375
2211.52341	8389.8375
2214.44458	8385.7375
2217.36388	8363.9375
2220.28132	8358.0375
2223.1969	8332.6375
2226.11061	8316.4375
2229.02246	8320.3375
2231.93245	8298.0375
2234.84058	8265.9375
2237.74686	8260.8375
2240.65128	8240.3375
2243.55385	8245.0375
2246.45456	8216.7375
2249.35343	8234.1375
2252.25044	8193.0375
2255.14561	8210.7375
2258.03893	8179.5375
2260.93041	8134.1375
2263.82004	8109.0375
2266.70783	8135.2375
2269.59378	8131.2375
2272.4779	8114.6375
2275.36017	8064.2375
2278.24061	8074.7375
2281.11922	8054.3375
2283.996	8044.4375
2286.87094	8032.4375
2289.74405	8017.2375
2292.61534	7999.5375
2295.4848	8027.4375
2298.35243	8015.9375
2301.21824	7988.8375
2304.08223	7997.1375
2306.94439	8013.0375
2309.80474	7998.7375
2312.66327	8003.0375
2315.51999	8001.2375
2318.37489	8012.1375
2321.22797	8022.1375
2324.07925	7972.8375
2326.92871	7966.4375
2329.77637	7998.8375
2332.62222	7967.2375
2335.46626	7960.6375
2338.3085	7949.2375
2341.14893	7964.7375
2343.98756	7974.5375
2346.8244	7978.8375
2349.65943	7966.3375
2352.49267	7981.0375
2355.32411	7995.4375
2358.15376	7987.1375
2360.98161	7972.7375
2363.80768	7974.4375
2366.63195	7961.1375
2369.45444	7980.9375
2372.27514	7944.8375
2375.09405	7933.2375
2377.91118	7895.8375
2380.72652	7887.5375
2383.54009	7849.5375
2386.35187	7864.8375
2389.16188	7828.8375
2391.97011	7818.5375
2394.77657	7807.5375
2397.58125	7798.3375
2400.38416	7812.2375
2403.18529	7781.7375
2405.98466	7776.5375
2408.78226	7757.9375
2411.57809	7742.5375
2414.37216	7698.7375
2417.16446	7719.4375
2419.955	7711.3375
2422.74378	7702.4375
2425.5308	7692.1375
2428.31606	7671.3375
2431.09956	7702.5375
2433.88131	7693.7375
2436.6613	7706.4375
2439.43954	7696.4375
2442.21603	7710.1375
2444.99077	7674.4375
2447.76377	7707.4375
2450.53501	7701.2375
2453.30451	7696.2375
2456.07226	7681.9375
2458.83827	7706.0375
2461.60254	7685.4375
2464.36507	7663.2375
2467.12586	7659.8375
2469.88492	7664.4375
2472.64224	7671.9375
2475.39782	7666.3375
2478.15167	7676.6375
2480.90379	7689.7375
2483.65417	7714.5375
2486.40283	7688.4375
2489.14976	7738.0375
2491.89497	7717.4375
2494.63845	7703.4375
2497.3802	7687.9375
2500.12024	7725.4375
2502.85855	7733.4375
2505.59514	7703.4375
2508.33002	7690.5375
2511.06318	7691.1375
2513.79462	7652.8375
2516.52435	7647.6375
2519.25237	7625.1375
2521.97867	7607.9375
2524.70327	7602.6375
2527.42616	7607.6375
2530.14734	7617.9375
2532.86681	7620.7375
2535.58458	7622.2375
2538.30065	7631.1375
2541.01501	7623.4375
2543.72768	7589.1375
2546.43864	7599.5375
2549.14791	7590.8375
2551.85548	7597.2375
2554.56136	7574.2375
2557.26554	7561.7375
2559.96803	7546.9375
2562.66883	7544.3375
2565.36794	7552.9375
2568.06536	7544.8375
2570.7611	7544.0375
2573.45514	7511.1375
2576.14751	7540.0375
2578.83819	7532.8375
2581.52719	7512.5375
2584.21451	7505.6375
2586.90015	7507.7375
2589.58411	7484.3375
2592.2664	7511.3375
2594.94701	7505.7375
2597.62594	7507.8375
2600.30321	7486.0375
2602.9788	7481.2375
2605.65273	7493.6375
2608.32498	7522.8375
2610.99557	7516.0375
2613.66449	7504.3375
2616.33175	7494.4375
2618.99734	7509.7375
2621.66128	7488.5375
2624.32355	7502.8375
2626.98416	7483.5375
2629.64311	7486.6375
2632.30041	7475.1375
2634.95605	7475.9375
2637.61004	7444.9375
2640.26238	7433.8375
2642.91306	7449.0375
2645.56209	7443.4375
2648.20948	7427.7375
2650.85521	7412.6375
2653.4993	7415.4375
2656.14175	7413.8375
2658.78255	7456.8375
2661.42171	7434.2375
2664.05923	7451.5375
2666.6951	7453.9375
2669.32934	7477.7375
2671.96194	7460.2375
2674.59291	7473.2375
2677.22224	7460.3375
2679.84993	7475.2375
2682.476	7471.2375
2685.10043	7489.4375
2687.72324	7455.1375
2690.34441	7449.8375
2692.96396	7444.5375
2695.58188	7458.8375
2698.19818	7423.1375
2700.81285	7441.4375
2703.4259	7408.8375
2706.03733	7306.2375
2708.64714	7367.4375
2711.25533	7424.0375
2713.86191	7429.9375
2716.46687	7463.2375
2719.07021	7475.8375
2721.67194	7505.0375
2724.27206	7459.6375
2726.87057	7512.1375
2729.46747	7468.5375
2732.06276	7481.3375
2734.65644	7500.1375
2737.24852	7493.5375
2739.83899	7479.6375
2742.42786	7468.4375
2745.01513	7460.7375
2747.60079	7466.5375
2750.18486	7459.6375
2752.76733	7455.1375
2755.3482	7451.6375
2757.92747	7448.0375
2760.50515	7419.0375
2763.08123	7434.7375
2765.65573	7420.1375
2768.22863	7434.2375
2770.79994	7417.3375
2773.36967	7425.8375
2775.9378	7433.0375
2778.50435	7423.2375
2781.06932	7428.8375
2783.6327	7424.3375
2786.1945	7436.5375
2788.75471	7433.7375
2791.31335	7406.6375
2793.87041	7387.0375
2796.42589	7387.0375
2798.97979	7372.3375
2801.53212	7355.8375
2804.08288	7368.0375
2806.63206	7336.3375
2809.17967	7314.6375
2811.72571	7320.8375
2814.27018	7298.0375
2816.81308	7303.0375
2819.35442	7304.2375
2821.89419	7288.8375
2824.43239	7282.2375
2826.96904	7274.3375
2829.50412	7260.6375
2832.03763	7258.4375
2834.56959	7251.6375
2837.1	7240.4375
2839.62884	7257.8375
2842.15613	7255.4375
2844.68186	7263.1375
2847.20604	7277.0375
2849.72867	7265.9375
2852.24974	7260.1375
2854.76927	7255.0375
2857.28724	7228.6375
2859.80367	7243.5375
2862.31855	7249.1375
2864.83189	7236.2375
2867.34368	7254.0375
2869.85393	7256.1375
2872.36264	7261.6375
2874.8698	7258.5375
2877.37543	7261.2375
2879.87952	7271.3375
2882.38207	7268.9375
2884.88308	7279.8375
2887.38256	7267.8375
2889.88051	7258.0375
2892.37692	7276.3375
2894.8718	7256.6375
2897.36515	7279.3375
2899.85698	7270.5375
2902.34727	7296.0375
2904.83604	7298.2375
2907.32328	7311.8375
2909.809	7328.8375
2912.29319	7336.8375
2914.77587	7337.7375
2917.25702	7328.1375
2919.73665	7324.7375
2922.21476	7337.3375
2924.69136	7309.2375
2927.16644	7333.0375
2929.64	7294.9375
2932.11205	7260.2375
2934.58258	7241.4375
2937.05161	7242.5375
2939.51912	7266.0375
2941.98513	7237.7375
2944.44962	7227.2375
2946.91261	7206.9375
2949.37409	7216.0375
2951.83407	7211.2375
2954.29254	7191.9375
2956.74951	7181.2375
2959.20498	7184.4375
2961.65895	7164.9375
2964.11142	7167.3375
2966.56239	7161.9375
2969.01186	7151.9375
2971.45984	7116.9375
2973.90632	7104.8375
2976.35131	7112.7375
2978.7948	7096.0375
2981.23681	7069.6375
2983.67732	7054.2375
2986.11635	7036.4375
2988.55388	7026.4375
2990.98993	7011.2375
2993.4245	6996.6375
2995.85758	6974.1375
2998.28917	6954.2375
3000.71928	6950.1375
3003.14791	6915.8375
3005.57506	6925.6375
3008.00073	6906.1375
3010.42493	6882.6375
3012.84764	6872.8375
3015.26888	6888.4375
3017.68865	6875.4375
3020.10694	6868.5375
3022.52376	6842.4375
3024.9391	6844.0375
3027.35298	6834.2375
3029.76539	6818.1375
3032.17632	6832.5375
3034.5858	6814.1375
3036.9938	6798.8375
3039.40034	6797.6375
3041.80542	6781.9375
3044.20903	6773.1375
3046.61118	6775.3375
3049.01187	6776.4375
3051.4111	6742.9375
3053.80888	6756.7375
3056.20519	6735.6375
3058.60005	6725.5375
3060.99345	6707.4375
3063.3854	6696.0375
3065.7759	6699.5375
3068.16494	6680.8375
3070.55254	6664.1375
3072.93868	6651.1375
3075.32338	6642.1375
3077.70662	6608.0375
3080.08842	6592.3375
3082.46878	6585.5375
3084.84769	6551.5375
3087.22515	6587.7375
3089.60118	6568.4375
3091.97576	6585.8375
3094.3489	6577.9375
3096.72061	6582.5375
3099.09087	6593.3375
3101.4597	6563.2375
3103.82709	6580.3375
3106.19305	6567.7375
3108.55757	6542.0375
3110.92066	6514.6375
3113.28232	6539.7375
3115.64255	6525.9375
3118.00134	6493.5375
3120.35871	6504.6375
3122.71466	6492.5375
3125.06917	6487.5375
3127.42226	6469.0375
3129.77393	6476.4375
3132.12417	6448.2375
3134.47299	6452.3375
3136.82039	6456.9375
3139.16636	6457.5375
3141.51092	6471.8375
3143.85406	6458.9375
3146.19579	6477.9375
3148.53609	6500.5375
3150.87499	6477.1375
3153.21246	6459.7375
3155.54853	6492.2375
3157.88318	6474.1375
3160.21642	6487.7375
3162.54826	6489.9375
3164.87868	6506.7375
3167.2077	6509.3375
3169.5353	6496.6375
3171.86151	6492.2375
3174.18631	6480.9375
3176.5097	6463.4375
3178.83169	6470.8375
3181.15228	6470.1375
3183.47147	6448.0375
3185.78926	6451.1375
3188.10565	6474.8375
3190.42065	6465.8375
3192.73424	6445.5375
3195.04645	6448.9375
3197.35725	6466.9375
3199.66667	6449.6375
3201.97469	6471.4375
3204.28132	6473.5375
3206.58656	6492.4375
3208.8904	6473.2375
3211.19287	6484.0375
3213.49394	6496.1375
3215.79363	6475.3375
3218.09193	6466.3375
3220.38884	6484.8375
3222.68438	6458.5375
3224.97853	6460.4375
3227.2713	6482.9375
3229.56269	6484.6375
3231.8527	6502.6375
3234.14133	6487.5375
3236.42858	6468.9375
3238.71446	6469.0375
3240.99896	6442.2375
3243.28209	6441.9375
3245.56384	6451.8375
3247.84423	6455.2375
3250.12324	6437.8375
3252.40088	6423.0375
3254.67715	6409.3375
3256.95205	6417.2375
3259.22558	6404.9375
3261.49775	6406.6375
3263.76855	6392.9375
3266.03799	6395.0375
3268.30606	6375.4375
3270.57277	6367.4375
3272.83812	6352.7375
3275.10211	6352.4375
3277.36474	6351.0375
3279.62601	6331.0375
3281.88593	6335.1375
3284.14448	6345.3375
3286.40168	6360.8375
3288.65753	6348.0375
3290.91202	6344.9375
3293.16516	6301.6375
3295.41695	6311.3375
3297.66738	6282.9375
3299.91647	6240.0375
3302.16421	6209.5375
3304.4106	6191.2375
3306.65564	6154.9375
3308.89933	6102.8375
3311.14169	6073.9375
3313.38269	6016.7375
3315.62236	5981.0375
3317.86068	5936.7375
3320.09766	5883.6375
3322.3333	5864.6375
3324.5676	5806.5375
3326.80056	5716.3375
3329.03219	5694.9375
3331.26248	1.7375
3333.49143	-1.0625
3335.71905	1.1375
