Data from AgNPs_FTO_APTES_UA_50uM_CRN_0uM_R6G_10uM_NaF_0.1M_Addition_RamanShift__5__10-16-04-621.txt Node

Date: Mon Feb 21 10:16:04 GMT 2022
User: TCL
Spectrometer: QEP01345
Trigger mode: 4
Integration Time (sec): 7.000000E0
Scans to average: 10
Electric dark correction enabled: true
Nonlinearity correction enabled: false
Boxcar width: 0
XAxis mode: Raman Shifts
Number of Pixels in Spectrum: 1044
>>>>>Begin Spectral Data<<<<<
46.04893	1.0375
50.45542	-1.5625
54.85868	0.0375
59.25871	-0.2625
63.6555	24.1375
68.04907	29.6375
72.43941	28.9375
76.82654	32.6375
81.21044	35.1375
85.59113	35.6375
89.96862	40.2375
94.34289	39.6375
98.71396	40.2375
103.08183	43.9375
107.4465	43.5375
111.80798	40.9375
116.16626	40.7375
120.52136	40.7375
124.87327	45.4375
129.222	44.4375
133.56755	43.5375
137.90993	47.0375
142.24913	48.0375
146.58517	55.4375
150.91804	61.4375
155.24774	68.5375
159.57429	88.2375
163.89768	103.1375
168.21792	136.5375
172.53501	181.4375
176.84895	255.5375
181.15975	343.1375
185.46741	478.8375
189.77193	654.6375
194.07331	875.9375
198.37157	1129.2375
202.6667	1393.9375
206.9587	1658.0375
211.24758	1928.6375
215.53334	2215.6375
219.81599	2513.5375
224.09553	2867.9375
228.37195	3251.2375
232.64527	3672.7375
236.91549	4070.3375
241.18261	4437.4375
245.44663	4759.3375
249.70755	4985.4375
253.96539	5175.4375
258.22014	5325.4375
262.4718	5489.5375
266.72039	5590.5375
270.96589	5646.5375
275.20832	5615.2375
279.44768	5512.1375
283.68397	5387.1375
287.91719	5275.5375
292.14735	5236.5375
296.37445	5310.9375
300.59849	5470.3375
304.81948	5710.4375
309.03742	5921.7375
313.25231	6004.3375
317.46415	5860.3375
321.67296	5527.7375
325.87872	5208.6375
330.08145	5026.6375
334.28114	4981.5375
338.47781	5049.0375
342.67145	5134.1375
346.86207	5282.4375
351.04966	5543.8375
355.23424	5825.0375
359.4158	6039.3375
363.59435	6123.8375
367.76989	6104.8375
371.94243	6091.7375
376.11196	6021.3375
380.27849	5996.9375
384.44203	5953.0375
388.60257	5874.9375
392.76012	5818.2375
396.91468	5850.1375
401.06626	5953.9375
405.21485	6045.6375
409.36047	5908.6375
413.50311	5611.7375
417.64277	5308.2375
421.77947	5133.1375
425.9132	5062.4375
430.04396	5044.0375
434.17176	5072.7375
438.2966	5180.5375
442.41849	5335.7375
446.53742	5542.3375
450.6534	5743.7375
454.76644	5843.4375
458.87653	5789.2375
462.98368	5603.2375
467.08789	5451.1375
471.18916	5286.8375
475.2875	5140.7375
479.38291	5014.0375
483.4754	4929.4375
487.56496	4870.4375
491.6516	4858.5375
495.73531	4868.3375
499.81612	4893.3375
503.89401	4972.8375
507.96899	5041.2375
512.04106	5145.1375
516.11023	5219.0375
520.1765	5291.5375
524.23987	5290.4375
528.30034	5272.3375
532.35792	5215.4375
536.41261	5095.1375
540.46441	4952.0375
544.51333	4856.9375
548.55936	4822.1375
552.60252	4931.3375
556.64279	5124.6375
560.6802	5262.5375
564.71473	5322.6375
568.7464	5449.2375
572.7752	5575.1375
576.80114	5435.2375
580.82422	5236.9375
584.84444	5246.4375
588.86181	5484.0375
592.87633	5921.4375
596.888	6215.1375
600.89682	6018.7375
604.9028	6068.2375
608.90594	7391.2375
612.90624	9645.6375
616.90371	9692.9375
620.89834	6870.5375
624.89015	5303.2375
628.87913	4951.0375
632.86528	4989.8375
636.84862	5066.7375
640.82913	5023.5375
644.80683	4834.1375
648.78172	4691.2375
652.75379	4671.7375
656.72306	4840.2375
660.68952	5088.9375
664.65319	5073.1375
668.61405	4793.3375
672.57211	4672.3375
676.52738	4658.3375
680.47986	4687.7375
684.42955	4649.6375
688.37646	4606.5375
692.32058	4585.1375
696.26192	4601.5375
700.20048	4652.8375
704.13626	4680.2375
708.06928	4671.8375
711.99952	4651.2375
715.927	4657.6375
719.85171	4721.7375
723.77365	4760.8375
727.69284	4698.1375
731.60928	4644.7375
735.52295	4662.0375
739.43388	4662.6375
743.34206	4699.7375
747.24749	4687.8375
751.15017	4691.9375
755.05012	4758.0375
758.94733	4917.0375
762.8418	5418.8375
766.73354	6388.1375
770.62254	7490.2375
774.50882	7995.8375
778.39237	7670.3375
782.27321	6698.0375
786.15132	5714.5375
790.02671	5093.9375
793.89938	4796.4375
797.76935	4658.8375
801.6366	4600.3375
805.50115	4586.9375
809.36299	4555.5375
813.22213	4530.9375
817.07857	4497.9375
820.93231	4487.3375
824.78336	4474.0375
828.63172	4496.7375
832.47738	4491.5375
836.32036	4476.0375
840.16066	4452.6375
843.99827	4424.9375
847.8332	4432.7375
851.66546	4427.0375
855.49504	4443.9375
859.32195	4428.3375
863.1462	4396.0375
866.96777	4389.8375
870.78668	4384.1375
874.60293	4410.2375
878.41652	4385.4375
882.22745	4433.2375
886.03573	4454.6375
889.84136	4438.2375
893.64433	4421.1375
897.44466	4411.1375
901.24235	4417.0375
905.0374	4383.0375
908.8298	4367.4375
912.61957	4348.2375
916.40671	4375.3375
920.19121	4425.1375
923.97308	4485.2375
927.75233	4559.2375
931.52895	4627.6375
935.30295	4562.7375
939.07433	4425.4375
942.84309	4278.1375
946.60924	4202.1375
950.37278	4118.4375
954.13371	4101.8375
957.89203	4073.5375
961.64774	4044.8375
965.40086	4036.2375
969.15137	4010.2375
972.89929	3997.6375
976.64461	3971.0375
980.38733	3972.0375
984.12747	3941.5375
987.86502	3978.8375
991.59999	3989.6375
995.33237	4038.0375
999.06217	4113.1375
1002.78939	4218.9375
1006.51404	4274.2375
1010.23611	4369.1375
1013.95561	4418.0375
1017.67255	4413.1375
1021.38692	4342.6375
1025.09872	4226.1375
1028.80796	4142.6375
1032.51465	4092.6375
1036.21877	4077.0375
1039.92035	4108.3375
1043.61937	4145.0375
1047.31584	4162.4375
1051.00976	4198.9375
1054.70114	4216.6375
1058.38998	4220.2375
1062.07627	4223.6375
1065.76003	4231.4375
1069.44126	4225.4375
1073.11995	4235.7375
1076.79611	4292.5375
1080.46974	4367.2375
1084.14085	4502.5375
1087.80943	4655.1375
1091.47549	4737.0375
1095.13903	4625.4375
1098.80005	4455.9375
1102.45857	4307.9375
1106.11456	4238.3375
1109.76805	4256.5375
1113.41903	4354.8375
1117.06751	4505.4375
1120.71348	4701.6375
1124.35696	4940.1375
1127.99793	5171.3375
1131.63641	5195.6375
1135.2724	4949.3375
1138.90589	4657.8375
1142.5369	4475.5375
1146.16542	4384.5375
1149.79145	4311.2375
1153.415	4294.4375
1157.03607	4285.7375
1160.65467	4365.9375
1164.27079	4544.1375
1167.88443	4847.0375
1171.49561	5333.3375
1175.10432	6137.3375
1178.71056	7224.3375
1182.31434	8131.2375
1185.91565	8276.9375
1189.51451	7821.5375
1193.11091	7139.5375
1196.70485	6472.5375
1200.29634	5991.7375
1203.88538	5590.8375
1207.47197	5184.2375
1211.05612	4817.4375
1214.63782	4649.9375
1218.21708	4625.2375
1221.79391	4719.1375
1225.36829	4827.6375
1228.94024	4838.9375
1232.50976	4709.7375
1236.07685	4570.1375
1239.6415	4450.5375
1243.20374	4425.6375
1246.76355	4416.1375
1250.32093	4413.9375
1253.8759	4499.4375
1257.42845	4617.2375
1260.97859	4800.4375
1264.52631	5014.5375
1268.07163	5231.1375
1271.61453	5408.9375
1275.15503	5554.1375
1278.69312	5624.7375
1282.22882	5694.1375
1285.76211	5886.9375
1289.29301	6234.9375
1292.82151	6575.4375
1296.34761	6924.4375
1299.87133	7407.1375
1303.39266	8067.6375
1306.9116	9090.7375
1310.42815	10394.4375
1313.94233	11354.3375
1317.45412	11198.8375
1320.96354	10176.1375
1324.47058	8893.7375
1327.97525	7780.5375
1331.47754	7071.5375
1334.97747	6732.8375
1338.47502	6595.1375
1341.97022	6600.1375
1345.46305	6813.5375
1348.95352	7375.8375
1352.44163	8280.2375
1355.92738	9638.3375
1359.41078	11485.1375
1362.89183	13447.2375
1366.37053	13666.5375
1369.84688	11471.4375
1373.32088	8808.1375
1376.79254	7128.3375
1380.26186	6365.9375
1383.72883	6008.9375
1387.19347	5730.7375
1390.65578	5455.1375
1394.11575	5317.5375
1397.57339	5297.5375
1401.0287	5343.0375
1404.48168	5392.0375
1407.93234	5354.1375
1411.38068	5248.5375
1414.82669	5183.7375
1418.27039	5111.0375
1421.71177	5042.6375
1425.15083	4952.1375
1428.58758	4877.8375
1432.02203	4895.3375
1435.45416	5028.9375
1438.88399	5105.2375
1442.31151	5104.1375
1445.73673	5076.5375
1449.15965	5072.2375
1452.58027	5047.2375
1455.9986	4951.8375
1459.41463	4884.7375
1462.82837	4895.1375
1466.23982	5010.1375
1469.64898	5172.6375
1473.05586	5303.6375
1476.46045	5356.8375
1479.86276	5425.0375
1483.26279	5517.9375
1486.66054	5631.1375
1490.05602	5822.1375
1493.44922	6105.1375
1496.84016	6528.9375
1500.22882	7246.1375
1503.61521	8314.1375
1506.99934	9602.3375
1510.38121	10971.6375
1513.76081	11696.0375
1517.13816	11144.6375
1520.51324	9566.1375
1523.88607	7924.1375
1527.25665	6804.2375
1530.62498	6207.8375
1533.99105	5868.4375
1537.35488	5604.4375
1540.71647	5378.9375
1544.07581	5209.3375
1547.4329	5104.6375
1550.78776	5052.3375
1554.14038	5050.2375
1557.49077	5124.1375
1560.83892	5223.5375
1564.18484	5429.4375
1567.52853	5684.3375
1570.86999	5951.8375
1574.20922	6127.6375
1577.54624	6151.1375
1580.88103	5800.7375
1584.2136	5265.9375
1587.54395	4935.0375
1590.87208	4937.1375
1594.19801	5304.3375
1597.52172	5851.3375
1600.84321	6200.3375
1604.16251	5987.1375
1607.47959	5449.3375
1610.79447	4865.3375
1614.10715	4355.9375
1617.41763	4001.5375
1620.7259	3784.5375
1624.03199	3685.3375
1627.33587	3689.4375
1630.63757	3780.8375
1633.93707	4005.5375
1637.23439	4444.8375
1640.52951	5209.2375
1643.82246	6347.3375
1647.11321	7628.3375
1650.40179	8414.5375
1653.68819	8054.3375
1656.97241	6664.5375
1660.25446	5125.3375
1663.53433	4064.1375
1666.81203	3505.7375
1670.08756	3203.9375
1673.36092	3036.5375
1676.63211	2954.6375
1679.90115	2882.1375
1683.16801	2842.5375
1686.43272	2785.0375
1689.69527	2728.6375
1692.95567	2645.0375
1696.2139	2525.6375
1699.46999	2404.2375
1702.72392	2379.8375
1705.97571	2467.9375
1709.22535	2548.4375
1712.47284	2616.2375
1715.71819	2670.0375
1718.96139	2677.8375
1722.20246	2691.9375
1725.44139	2664.9375
1728.67818	2639.6375
1731.91284	2609.8375
1735.14537	2594.4375
1738.37576	2552.4375
1741.60403	2550.2375
1744.83017	2520.8375
1748.05418	2482.5375
1751.27607	2437.1375
1754.49584	2385.9375
1757.71349	2320.7375
1760.92903	2267.4375
1764.14244	2265.4375
1767.35375	2274.7375
1770.56294	2270.0375
1773.77002	2287.0375
1776.97499	2347.4375
1780.17785	2389.8375
1783.37861	2421.0375
1786.57727	2424.8375
1789.77382	2439.3375
1792.96828	2454.2375
1796.16064	2451.2375
1799.3509	2446.6375
1802.53907	2439.6375
1805.72514	2438.3375
1808.90913	2415.4375
1812.09102	2405.4375
1815.27083	2406.9375
1818.44856	2390.7375
1821.6242	2400.6375
1824.79776	2383.3375
1827.96924	2372.6375
1831.13864	2346.9375
1834.30597	2348.0375
1837.47122	2356.0375
1840.6344	2338.2375
1843.7955	2327.1375
1846.95454	2318.6375
1850.11151	2301.3375
1853.26642	2296.7375
1856.41926	2290.4375
1859.57004	2283.2375
1862.71876	2274.0375
1865.86542	2274.4375
1869.01003	2261.7375
1872.15258	2255.6375
1875.29308	2246.8375
1878.43152	2245.6375
1881.56792	2236.8375
1884.70227	2241.3375
1887.83457	2229.0375
1890.96482	2231.8375
1894.09304	2224.5375
1897.21921	2219.9375
1900.34335	2216.9375
1903.46544	2212.2375
1906.58551	2211.6375
1909.70353	2206.9375
1912.81953	2186.8375
1915.93349	2198.6375
1919.04543	2183.2375
1922.15534	2170.0375
1925.26322	2164.6375
1928.36908	2146.1375
1931.47292	2141.2375
1934.57473	2132.0375
1937.67453	2123.4375
1940.77232	2116.5375
1943.86808	2098.4375
1946.96184	2101.5375
1950.05358	2085.6375
1953.14331	2081.7375
1956.23103	2071.5375
1959.31675	2058.1375
1962.40046	2052.3375
1965.48217	2053.9375
1968.56188	2054.3375
1971.63959	2042.8375
1974.7153	2050.5375
1977.78901	2033.1375
1980.86073	2026.2375
1983.93046	2006.4375
1986.99819	1987.2375
1990.06394	1987.4375
1993.1277	1980.0375
1996.18947	1970.4375
1999.24925	1974.7375
2002.30706	1951.3375
2005.36288	1949.1375
2008.41672	1940.0375
2011.46859	1929.9375
2014.51848	1917.6375
2017.56639	1914.8375
2020.61233	1907.1375
2023.6563	1907.8375
2026.6983	1887.5375
2029.73833	1880.4375
2032.7764	1879.7375
2035.8125	1853.8375
2038.84664	1855.4375
2041.87881	1852.2375
2044.90903	1843.1375
2047.93729	1831.1375
2050.96359	1829.0375
2053.98794	1825.8375
2057.01034	1824.1375
2060.03078	1816.2375
2063.04927	1828.3375
2066.06582	1819.0375
2069.08042	1812.6375
2072.09307	1819.7375
2075.10378	1809.1375
2078.11255	1800.7375
2081.11938	1810.0375
2084.12426	1804.6375
2087.12722	1808.2375
2090.12824	1804.1375
2093.12732	1803.0375
2096.12447	1798.5375
2099.11969	1800.4375
2102.11299	1803.4375
2105.10435	1804.7375
2108.09379	1801.0375
2111.08131	1798.7375
2114.0669	1801.0375
2117.05057	1794.8375
2120.03233	1793.9375
2123.01216	1784.2375
2125.99008	1792.3375
2128.96609	1789.5375
2131.94018	1791.2375
2134.91236	1782.5375
2137.88263	1782.8375
2140.851	1779.2375
2143.81746	1772.3375
2146.78201	1764.7375
2149.74466	1764.2375
2152.7054	1758.3375
2155.66425	1753.8375
2158.6212	1753.2375
2161.57625	1750.7375
2164.52941	1751.1375
2167.48067	1745.4375
2170.43004	1742.4375
2173.37752	1741.5375
2176.32311	1738.0375
2179.26681	1729.3375
2182.20863	1737.0375
2185.14856	1731.7375
2188.08661	1727.7375
2191.02278	1728.3375
2193.95707	1730.4375
2196.88948	1728.4375
2199.82001	1707.6375
2202.74867	1711.9375
2205.67545	1711.8375
2208.60037	1712.0375
2211.52341	1691.4375
2214.44458	1685.2375
2217.36388	1682.4375
2220.28132	1689.9375
2223.1969	1678.7375
2226.11061	1661.7375
2229.02246	1655.4375
2231.93245	1658.1375
2234.84058	1649.5375
2237.74686	1647.8375
2240.65128	1641.7375
2243.55385	1648.5375
2246.45456	1650.3375
2249.35343	1639.0375
2252.25044	1632.7375
2255.14561	1630.2375
2258.03893	1625.5375
2260.93041	1583.4375
2263.82004	1611.1375
2266.70783	1622.9375
2269.59378	1612.1375
2272.4779	1605.7375
2275.36017	1608.0375
2278.24061	1607.2375
2281.11922	1591.3375
2283.996	1588.7375
2286.87094	1595.3375
2289.74405	1578.8375
2292.61534	1571.5375
2295.4848	1567.7375
2298.35243	1569.8375
2301.21824	1554.8375
2304.08223	1554.8375
2306.94439	1551.3375
2309.80474	1555.8375
2312.66327	1553.4375
2315.51999	1543.7375
2318.37489	1541.1375
2321.22797	1542.0375
2324.07925	1542.9375
2326.92871	1525.6375
2329.77637	1525.6375
2332.62222	1524.2375
2335.46626	1530.4375
2338.3085	1509.0375
2341.14893	1504.8375
2343.98756	1505.5375
2346.8244	1518.2375
2349.65943	1512.2375
2352.49267	1523.9375
2355.32411	1524.8375
2358.15376	1525.1375
2360.98161	1538.2375
2363.80768	1527.7375
2366.63195	1534.8375
2369.45444	1541.7375
2372.27514	1529.4375
2375.09405	1538.5375
2377.91118	1576.2375
2380.72652	1522.3375
2383.54009	1504.4375
2386.35187	1485.9375
2389.16188	1478.0375
2391.97011	1474.5375
2394.77657	1471.4375
2397.58125	1455.3375
2400.38416	1459.7375
2403.18529	1450.0375
2405.98466	1451.8375
2408.78226	1447.6375
2411.57809	1436.2375
2414.37216	1443.0375
2417.16446	1433.9375
2419.955	1428.6375
2422.74378	1435.3375
2425.5308	1426.5375
2428.31606	1427.8375
2431.09956	1435.1375
2433.88131	1429.3375
2436.6613	1425.3375
2439.43954	1428.0375
2442.21603	1431.3375
2444.99077	1428.6375
2447.76377	1427.8375
2450.53501	1434.4375
2453.30451	1429.9375
2456.07226	1431.7375
2458.83827	1430.6375
2461.60254	1424.5375
2464.36507	1414.1375
2467.12586	1418.8375
2469.88492	1417.7375
2472.64224	1416.5375
2475.39782	1394.6375
2478.15167	1385.6375
2480.90379	1399.7375
2483.65417	1411.1375
2486.40283	1418.8375
2489.14976	1424.1375
2491.89497	1426.9375
2494.63845	1411.6375
2497.3802	1388.4375
2500.12024	1411.5375
2502.85855	1414.7375
2505.59514	1404.2375
2508.33002	1392.3375
2511.06318	1384.1375
2513.79462	1378.9375
2516.52435	1367.5375
2519.25237	1365.0375
2521.97867	1351.5375
2524.70327	1348.4375
2527.42616	1347.6375
2530.14734	1339.7375
2532.86681	1336.3375
2535.58458	1342.5375
2538.30065	1339.9375
2541.01501	1332.0375
2543.72768	1336.1375
2546.43864	1328.0375
2549.14791	1335.3375
2551.85548	1334.9375
2554.56136	1335.0375
2557.26554	1329.3375
2559.96803	1322.9375
2562.66883	1319.9375
2565.36794	1314.2375
2568.06536	1321.6375
2570.7611	1317.9375
2573.45514	1314.5375
2576.14751	1315.1375
2578.83819	1300.1375
2581.52719	1297.4375
2584.21451	1295.3375
2586.90015	1299.9375
2589.58411	1289.9375
2592.2664	1282.5375
2594.94701	1280.1375
2597.62594	1280.1375
2600.30321	1282.4375
2602.9788	1273.7375
2605.65273	1277.5375
2608.32498	1274.1375
2610.99557	1263.8375
2613.66449	1278.9375
2616.33175	1275.1375
2618.99734	1275.5375
2621.66128	1268.2375
2624.32355	1264.6375
2626.98416	1257.4375
2629.64311	1254.8375
2632.30041	1258.9375
2634.95605	1253.8375
2637.61004	1245.2375
2640.26238	1243.9375
2642.91306	1237.8375
2645.56209	1227.6375
2648.20948	1224.7375
2650.85521	1219.8375
2653.4993	1229.4375
2656.14175	1229.9375
2658.78255	1241.0375
2661.42171	1232.0375
2664.05923	1235.8375
2666.6951	1237.6375
2669.32934	1250.0375
2671.96194	1248.8375
2674.59291	1244.8375
2677.22224	1250.9375
2679.84993	1242.8375
2682.476	1232.3375
2685.10043	1239.5375
2687.72324	1236.4375
2690.34441	1230.6375
2692.96396	1231.3375
2695.58188	1229.3375
2698.19818	1232.0375
2700.81285	1222.4375
2703.4259	1187.1375
2706.03733	1086.5375
2708.64714	1138.1375
2711.25533	1189.8375
2713.86191	1208.5375
2716.46687	1213.0375
2719.07021	1231.9375
2721.67194	1244.3375
2724.27206	1236.6375
2726.87057	1230.7375
2729.46747	1233.6375
2732.06276	1233.8375
2734.65644	1229.9375
2737.24852	1227.8375
2739.83899	1228.5375
2742.42786	1221.2375
2745.01513	1220.9375
2747.60079	1221.4375
2750.18486	1209.2375
2752.76733	1216.4375
2755.3482	1211.6375
2757.92747	1209.4375
2760.50515	1209.7375
2763.08123	1207.9375
2765.65573	1204.3375
2768.22863	1204.2375
2770.79994	1197.3375
2773.36967	1197.2375
2775.9378	1196.7375
2778.50435	1196.2375
2781.06932	1195.4375
2783.6327	1196.3375
2786.1945	1199.8375
2788.75471	1196.8375
2791.31335	1192.9375
2793.87041	1196.0375
2796.42589	1194.8375
2798.97979	1197.6375
2801.53212	1193.4375
2804.08288	1190.4375
2806.63206	1194.6375
2809.17967	1185.0375
2811.72571	1187.1375
2814.27018	1184.8375
2816.81308	1184.9375
2819.35442	1194.9375
2821.89419	1191.5375
2824.43239	1199.3375
2826.96904	1195.9375
2829.50412	1198.9375
2832.03763	1197.2375
2834.56959	1194.1375
2837.1	1202.6375
2839.62884	1211.6375
2842.15613	1217.7375
2844.68186	1235.7375
2847.20604	1246.4375
2849.72867	1264.5375
2852.24974	1274.0375
2854.76927	1261.5375
2857.28724	1231.7375
2859.80367	1263.8375
2862.31855	1270.6375
2864.83189	1284.3375
2867.34368	1286.3375
2869.85393	1302.6375
2872.36264	1304.6375
2874.8698	1312.9375
2877.37543	1311.1375
2879.87952	1311.4375
2882.38207	1308.0375
2884.88308	1314.8375
2887.38256	1316.1375
2889.88051	1311.4375
2892.37692	1317.6375
2894.8718	1319.6375
2897.36515	1320.7375
2899.85698	1318.7375
2902.34727	1325.0375
2904.83604	1325.2375
2907.32328	1321.4375
2909.809	1324.8375
2912.29319	1332.9375
2914.77587	1333.6375
2917.25702	1335.6375
2919.73665	1338.3375
2922.21476	1337.4375
2924.69136	1328.7375
2927.16644	1324.3375
2929.64	1305.2375
2932.11205	1310.5375
2934.58258	1299.7375
2937.05161	1297.2375
2939.51912	1286.1375
2941.98513	1279.0375
2944.44962	1260.3375
2946.91261	1244.1375
2949.37409	1241.8375
2951.83407	1229.9375
2954.29254	1218.9375
2956.74951	1215.5375
2959.20498	1200.6375
2961.65895	1193.2375
2964.11142	1187.5375
2966.56239	1177.6375
2969.01186	1176.2375
2971.45984	1171.1375
2973.90632	1157.2375
2976.35131	1149.2375
2978.7948	1145.2375
2981.23681	1129.1375
2983.67732	1139.0375
2986.11635	1120.2375
2988.55388	1119.2375
2990.98993	1117.2375
2993.4245	1112.9375
2995.85758	1113.0375
2998.28917	1099.6375
3000.71928	1096.1375
3003.14791	1099.7375
3005.57506	1095.5375
3008.00073	1096.9375
3010.42493	1098.8375
3012.84764	1099.0375
3015.26888	1097.6375
3017.68865	1091.2375
3020.10694	1099.6375
3022.52376	1092.6375
3024.9391	1096.9375
3027.35298	1081.9375
3029.76539	1084.0375
3032.17632	1085.3375
3034.5858	1084.0375
3036.9938	1075.2375
3039.40034	1077.0375
3041.80542	1073.5375
3044.20903	1073.1375
3046.61118	1077.1375
3049.01187	1067.4375
3051.4111	1064.6375
3053.80888	1075.9375
3056.20519	1069.9375
3058.60005	1076.0375
3060.99345	1071.5375
3063.3854	1070.3375
3065.7759	1066.3375
3068.16494	1068.7375
3070.55254	1078.2375
3072.93868	1060.3375
3075.32338	1066.7375
3077.70662	1062.8375
3080.08842	1064.7375
3082.46878	1067.8375
3084.84769	1068.8375
3087.22515	1074.7375
3089.60118	1071.6375
3091.97576	1066.8375
3094.3489	1073.1375
3096.72061	1078.4375
3099.09087	1074.7375
3101.4597	1079.4375
3103.82709	1082.6375
3106.19305	1084.9375
3108.55757	1085.4375
3110.92066	1083.7375
3113.28232	1085.9375
3115.64255	1091.6375
3118.00134	1085.8375
3120.35871	1092.4375
3122.71466	1092.7375
3125.06917	1099.0375
3127.42226	1094.9375
3129.77393	1102.0375
3132.12417	1102.9375
3134.47299	1115.8375
3136.82039	1111.6375
3139.16636	1113.1375
3141.51092	1122.2375
3143.85406	1124.8375
3146.19579	1128.4375
3148.53609	1130.1375
3150.87499	1136.8375
3153.21246	1137.2375
3155.54853	1151.1375
3157.88318	1154.0375
3160.21642	1157.4375
3162.54826	1164.0375
3164.87868	1165.2375
3167.2077	1162.0375
3169.5353	1180.1375
3171.86151	1178.3375
3174.18631	1180.3375
3176.5097	1177.3375
3178.83169	1178.2375
3181.15228	1182.3375
3183.47147	1182.1375
3185.78926	1189.5375
3188.10565	1195.1375
3190.42065	1181.8375
3192.73424	1187.6375
3195.04645	1193.9375
3197.35725	1197.1375
3199.66667	1204.6375
3201.97469	1202.7375
3204.28132	1207.2375
3206.58656	1210.2375
3208.8904	1218.9375
3211.19287	1223.8375
3213.49394	1228.7375
3215.79363	1219.8375
3218.09193	1234.2375
3220.38884	1217.8375
3222.68438	1190.6375
3224.97853	1214.5375
3227.2713	1232.7375
3229.56269	1238.1375
3231.8527	1235.5375
3234.14133	1248.6375
3236.42858	1237.5375
3238.71446	1245.6375
3240.99896	1235.6375
3243.28209	1243.9375
3245.56384	1235.8375
3247.84423	1242.4375
3250.12324	1243.7375
3252.40088	1247.6375
3254.67715	1249.1375
3256.95205	1247.1375
3259.22558	1244.8375
3261.49775	1244.5375
3263.76855	1254.0375
3266.03799	1241.7375
3268.30606	1239.8375
3270.57277	1241.6375
3272.83812	1235.9375
3275.10211	1241.0375
3277.36474	1243.4375
3279.62601	1243.3375
3281.88593	1237.6375
3284.14448	1236.7375
3286.40168	1239.1375
3288.65753	1244.1375
3290.91202	1235.1375
3293.16516	1232.4375
3295.41695	1244.6375
3297.66738	1225.1375
3299.91647	1221.6375
3302.16421	1219.2375
3304.4106	1212.9375
3306.65564	1202.6375
3308.89933	1199.6375
3311.14169	1183.4375
3313.38269	1146.0375
3315.62236	1157.1375
3317.86068	1152.5375
3320.09766	1144.2375
3322.3333	1128.5375
3324.5676	1132.7375
3326.80056	1073.6375
3329.03219	1086.9375
3331.26248	0.5375
3333.49143	-1.0625
3335.71905	1.2375
