Data from AgNPs_FTO_APTES_UA_50uM_CRN_50uM_R6G_10uM_NaF_0.1M_Addition_RamanShift__22__14-58-24-990.txt Node

Date: Mon Feb 21 14:58:24 GMT 2022
User: TCL
Spectrometer: QEP01345
Trigger mode: 4
Integration Time (sec): 7.000000E0
Scans to average: 10
Electric dark correction enabled: true
Nonlinearity correction enabled: false
Boxcar width: 0
XAxis mode: Raman Shifts
Number of Pixels in Spectrum: 1044
>>>>>Begin Spectral Data<<<<<
46.04893	-0.3625
50.45542	0.1375
54.85868	-0.5625
59.25871	-2.1625
63.6555	60.0375
68.04907	67.6375
72.43941	69.1375
76.82654	72.9375
81.21044	74.9375
85.59113	79.9375
89.96862	83.6375
94.34289	84.1375
98.71396	82.8375
103.08183	96.6375
107.4465	93.0375
111.80798	93.6375
116.16626	93.0375
120.52136	96.9375
124.87327	101.2375
129.222	102.5375
133.56755	110.2375
137.90993	117.2375
142.24913	123.7375
146.58517	136.9375
150.91804	155.9375
155.24774	179.6375
159.57429	221.8375
163.89768	275.1375
168.21792	366.3375
172.53501	490.9375
176.84895	685.6375
181.15975	957.5375
185.46741	1336.5375
189.77193	1852.0375
194.07331	2468.6375
198.37157	3180.1375
202.6667	3924.6375
206.9587	4670.6375
211.24758	5423.4375
215.53334	6167.1375
219.81599	6994.4375
224.09553	7898.7375
228.37195	8905.2375
232.64527	10011.2375
236.91549	11212.2375
241.18261	12320.6375
245.44663	13341.7375
249.70755	14177.9375
253.96539	14920.2375
258.22014	15511.9375
262.4718	16055.9375
266.72039	16383.6375
270.96589	16616.2375
275.20832	16580.7375
279.44768	16394.6375
283.68397	16159.5375
287.91719	15979.2375
292.14735	15898.5375
296.37445	16008.7375
300.59849	16254.1375
304.81948	16515.5375
309.03742	16637.0375
313.25231	16496.5375
317.46415	15985.7375
321.67296	15335.5375
325.87872	14797.6375
330.08145	14564.7375
334.28114	14565.3375
338.47781	14755.0375
342.67145	14983.9375
346.86207	15395.9375
351.04966	15901.2375
355.23424	16490.6375
359.4158	16987.2375
363.59435	17292.0375
367.76989	17492.1375
371.94243	17574.0375
376.11196	17594.5375
380.27849	17626.9375
384.44203	17635.8375
388.60257	17606.1375
392.76012	17631.7375
396.91468	17752.5375
401.06626	18071.3375
405.21485	18274.6375
409.36047	18122.3375
413.50311	17609.8375
417.64277	17112.5375
421.77947	16819.4375
425.9132	16762.1375
430.04396	16760.7375
434.17176	16851.0375
438.2966	17076.1375
442.41849	17411.0375
446.53742	17863.3375
450.6534	18355.8375
454.76644	18723.8375
458.87653	18863.1375
462.98368	18782.4375
467.08789	18541.2375
471.18916	18199.8375
475.2875	17890.9375
479.38291	17682.8375
483.4754	17521.7375
487.56496	17328.0375
491.6516	17151.8375
495.73531	17098.8375
499.81612	17068.5375
503.89401	17233.0375
507.96899	17335.6375
512.04106	17462.4375
516.11023	17527.8375
520.1765	17551.9375
524.23987	17507.8375
528.30034	17418.8375
532.35792	17283.1375
536.41261	17146.0375
540.46441	16929.5375
544.51333	16771.3375
548.55936	16820.5375
552.60252	17078.8375
556.64279	17367.6375
560.6802	17494.2375
564.71473	17578.9375
568.7464	17859.1375
572.7752	18182.2375
576.80114	18102.3375
580.82422	18001.1375
584.84444	18027.6375
588.86181	18193.7375
592.87633	18508.6375
596.888	18790.2375
600.89682	19082.0375
604.9028	20227.4375
608.90594	23395.6375
612.90624	27104.3375
616.90371	25608.7375
620.89834	20283.8375
624.89015	17911.4375
628.87913	17549.3375
632.86528	17636.1375
636.84862	17708.3375
640.82913	17455.8375
644.80683	16944.1375
648.78172	16498.2375
652.75379	16476.0375
656.72306	16807.5375
660.68952	17292.6375
664.65319	17193.2375
668.61405	16813.3375
672.57211	16734.3375
676.52738	16776.2375
680.47986	16789.6375
684.42955	16656.4375
688.37646	16477.5375
692.32058	16451.3375
696.26192	16557.0375
700.20048	16677.0375
704.13626	16762.6375
708.06928	16687.0375
711.99952	16570.7375
715.927	16519.1375
719.85171	16548.9375
723.77365	16563.7375
727.69284	16503.8375
731.60928	16418.1375
735.52295	16447.4375
739.43388	16504.0375
743.34206	16576.0375
747.24749	16598.5375
751.15017	16639.5375
755.05012	16843.4375
758.94733	17342.1375
762.8418	18455.1375
766.73354	20409.0375
770.62254	22515.8375
774.50882	23509.5375
778.39237	22561.5375
782.27321	20359.8375
786.15132	18349.9375
790.02671	17193.6375
793.89938	16640.6375
797.76935	16372.0375
801.6366	16337.2375
805.50115	16260.0375
809.36299	16180.0375
813.22213	16072.2375
817.07857	15997.8375
820.93231	15963.3375
824.78336	15943.3375
828.63172	15955.0375
832.47738	15978.4375
836.32036	15979.8375
840.16066	16023.4375
843.99827	16038.7375
847.8332	16014.0375
851.66546	15962.4375
855.49504	15927.6375
859.32195	15987.5375
863.1462	15994.0375
866.96777	15966.7375
870.78668	15951.3375
874.60293	15931.1375
878.41652	15967.9375
882.22745	16026.3375
886.03573	16102.4375
889.84136	16082.7375
893.64433	15996.1375
897.44466	15867.4375
901.24235	15834.9375
905.0374	15765.3375
908.8298	15677.0375
912.61957	15646.9375
916.40671	15710.1375
920.19121	15884.5375
923.97308	16033.2375
927.75233	16211.5375
931.52895	16269.4375
935.30295	16146.8375
939.07433	15848.7375
942.84309	15580.3375
946.60924	15439.7375
950.37278	15346.3375
954.13371	15270.7375
957.89203	15151.9375
961.64774	15083.6375
965.40086	15042.7375
969.15137	14988.0375
972.89929	14910.1375
976.64461	14910.4375
980.38733	14909.0375
984.12747	14980.1375
987.86502	15088.0375
991.59999	15320.3375
995.33237	15600.9375
999.06217	16063.8375
1002.78939	16550.8375
1006.51404	16933.8375
1010.23611	17041.9375
1013.95561	17214.9375
1017.67255	17266.7375
1021.38692	17096.8375
1025.09872	16914.1375
1028.80796	17042.9375
1032.51465	17514.1375
1036.21877	17983.8375
1039.92035	18048.9375
1043.61937	17874.1375
1047.31584	17485.6375
1051.00976	17006.9375
1054.70114	16737.7375
1058.38998	16644.8375
1062.07627	16620.2375
1065.76003	16647.7375
1069.44126	16633.6375
1073.11995	16774.9375
1076.79611	16877.3375
1080.46974	17053.0375
1084.14085	17296.0375
1087.80943	17566.6375
1091.47549	17682.9375
1095.13903	17582.2375
1098.80005	17224.6375
1102.45857	16958.0375
1106.11456	16836.9375
1109.76805	16911.9375
1113.41903	17155.6375
1117.06751	17493.7375
1120.71348	17916.3375
1124.35696	18309.4375
1127.99793	18683.3375
1131.63641	18749.8375
1135.2724	18382.6375
1138.90589	17954.6375
1142.5369	17630.4375
1146.16542	17365.3375
1149.79145	17186.9375
1153.415	17154.5375
1157.03607	17279.0375
1160.65467	17640.3375
1164.27079	18233.5375
1167.88443	19081.9375
1171.49561	20265.6375
1175.10432	21973.6375
1178.71056	24250.7375
1182.31434	26312.5375
1185.91565	27311.1375
1189.51451	26966.7375
1193.11091	25720.6375
1196.70485	24191.0375
1200.29634	22867.5375
1203.88538	21878.7375
1207.47197	20933.5375
1211.05612	20121.8375
1214.63782	19646.4375
1218.21708	19505.0375
1221.79391	19595.7375
1225.36829	19694.8375
1228.94024	19622.6375
1232.50976	19365.9375
1236.07685	19116.8375
1239.6415	19010.9375
1243.20374	19000.6375
1246.76355	19135.2375
1250.32093	19368.1375
1253.8759	19805.3375
1257.42845	20342.9375
1260.97859	20882.3375
1264.52631	21399.3375
1268.07163	21981.8375
1271.61453	22637.5375
1275.15503	23330.2375
1278.69312	23936.9375
1282.22882	24349.0375
1285.76211	24811.1375
1289.29301	25268.4375
1292.82151	25878.3375
1296.34761	26766.2375
1299.87133	28105.7375
1303.39266	30081.1375
1306.9116	32699.4375
1310.42815	35403.5375
1313.94233	36865.5375
1317.45412	36188.5375
1320.96354	34406.5375
1324.47058	32507.1375
1327.97525	30881.5375
1331.47754	29825.7375
1334.97747	29427.7375
1338.47502	29511.8375
1341.97022	30004.8375
1345.46305	30557.9375
1348.95352	31262.7375
1352.44163	32277.2375
1355.92738	34246.9375
1359.41078	37316.2375
1362.89183	40055.5375
1366.37053	38831.6375
1369.84688	33984.2375
1373.32088	29176.7375
1376.79254	26118.8375
1380.26186	24585.6375
1383.72883	23854.5375
1387.19347	23315.6375
1390.65578	22818.4375
1394.11575	22540.2375
1397.57339	22619.5375
1401.0287	22893.6375
1404.48168	23231.7375
1407.93234	23513.3375
1411.38068	23668.8375
1414.82669	23518.5375
1418.27039	23120.9375
1421.71177	22482.2375
1425.15083	21935.1375
1428.58758	21606.5375
1432.02203	21624.2375
1435.45416	21876.6375
1438.88399	22138.6375
1442.31151	22378.6375
1445.73673	22561.2375
1449.15965	22776.2375
1452.58027	22895.9375
1455.9986	22884.2375
1459.41463	22947.3375
1462.82837	23309.9375
1466.23982	23770.6375
1469.64898	24273.5375
1473.05586	24587.3375
1476.46045	24773.8375
1479.86276	24859.2375
1483.26279	24962.1375
1486.66054	25050.3375
1490.05602	25454.7375
1493.44922	25985.0375
1496.84016	26829.2375
1500.22882	28128.5375
1503.61521	30157.5375
1506.99934	32627.6375
1510.38121	34547.4375
1513.76081	34845.9375
1517.13816	33016.9375
1520.51324	30151.6375
1523.88607	27584.5375
1527.25665	25853.6375
1530.62498	24940.0375
1533.99105	24364.8375
1537.35488	24006.7375
1540.71647	23766.1375
1544.07581	23569.0375
1547.4329	23400.1375
1550.78776	23281.0375
1554.14038	23242.6375
1557.49077	23370.8375
1560.83892	23564.4375
1564.18484	23780.3375
1567.52853	24071.8375
1570.86999	24275.1375
1574.20922	24501.2375
1577.54624	24379.1375
1580.88103	23818.8375
1584.2136	23062.9375
1587.54395	22954.6375
1590.87208	23647.5375
1594.19801	25096.1375
1597.52172	26806.8375
1600.84321	27520.4375
1604.16251	26713.4375
1607.47959	25042.1375
1610.79447	23153.2375
1614.10715	21391.8375
1617.41763	20017.5375
1620.7259	19025.8375
1624.03199	18550.9375
1627.33587	18632.4375
1630.63757	19116.8375
1633.93707	20073.5375
1637.23439	21603.5375
1640.52951	23585.2375
1643.82246	25989.7375
1647.11321	28253.2375
1650.40179	29179.9375
1653.68819	27707.6375
1656.97241	24412.8375
1660.25446	21023.6375
1663.53433	18585.5375
1666.81203	17128.6375
1670.08756	16261.0375
1673.36092	15735.5375
1676.63211	15368.1375
1679.90115	15097.5375
1683.16801	14896.5375
1686.43272	14744.4375
1689.69527	14612.2375
1692.95567	14476.4375
1696.2139	14353.9375
1699.46999	14198.6375
1702.72392	14139.2375
1705.97571	14210.7375
1709.22535	14246.4375
1712.47284	14328.9375
1715.71819	14318.3375
1718.96139	14296.5375
1722.20246	14262.3375
1725.44139	14192.7375
1728.67818	14123.5375
1731.91284	14074.8375
1735.14537	14007.0375
1738.37576	13940.2375
1741.60403	13907.8375
1744.83017	13864.3375
1748.05418	13815.2375
1751.27607	13774.9375
1754.49584	13711.0375
1757.71349	13635.1375
1760.92903	13584.6375
1764.14244	13556.4375
1767.35375	13556.1375
1770.56294	13470.7375
1773.77002	13482.1375
1776.97499	13506.2375
1780.17785	13528.2375
1783.37861	13549.3375
1786.57727	13538.0375
1789.77382	13508.4375
1792.96828	13526.3375
1796.16064	13515.3375
1799.3509	13502.8375
1802.53907	13506.5375
1805.72514	13471.0375
1808.90913	13415.5375
1812.09102	13383.9375
1815.27083	13393.7375
1818.44856	13364.0375
1821.6242	13356.3375
1824.79776	13353.2375
1827.96924	13335.8375
1831.13864	13294.2375
1834.30597	13311.9375
1837.47122	13285.5375
1840.6344	13303.9375
1843.7955	13308.3375
1846.95454	13283.2375
1850.11151	13298.8375
1853.26642	13284.8375
1856.41926	13276.6375
1859.57004	13286.3375
1862.71876	13295.2375
1865.86542	13267.4375
1869.01003	13292.7375
1872.15258	13274.0375
1875.29308	13273.5375
1878.43152	13268.8375
1881.56792	13268.6375
1884.70227	13256.0375
1887.83457	13246.2375
1890.96482	13247.4375
1894.09304	13240.8375
1897.21921	13246.5375
1900.34335	13196.7375
1903.46544	13202.1375
1906.58551	13242.2375
1909.70353	13206.0375
1912.81953	13197.6375
1915.93349	13190.2375
1919.04543	13165.6375
1922.15534	13133.7375
1925.26322	13110.5375
1928.36908	13067.4375
1931.47292	13025.9375
1934.57473	12964.8375
1937.67453	12947.5375
1940.77232	12942.3375
1943.86808	12873.8375
1946.96184	12840.3375
1950.05358	12806.9375
1953.14331	12806.8375
1956.23103	12750.1375
1959.31675	12711.1375
1962.40046	12693.8375
1965.48217	12647.7375
1968.56188	12627.7375
1971.63959	12565.5375
1974.7153	12566.5375
1977.78901	12528.5375
1980.86073	12497.9375
1983.93046	12419.2375
1986.99819	12373.4375
1990.06394	12362.5375
1993.1277	12350.9375
1996.18947	12285.0375
1999.24925	12262.6375
2002.30706	12247.0375
2005.36288	12187.8375
2008.41672	12142.1375
2011.46859	12106.5375
2014.51848	12087.5375
2017.56639	12039.7375
2020.61233	12056.5375
2023.6563	12012.9375
2026.6983	11977.1375
2029.73833	11966.0375
2032.7764	11936.1375
2035.8125	11909.5375
2038.84664	11921.7375
2041.87881	11905.7375
2044.90903	11871.0375
2047.93729	11851.7375
2050.96359	11872.2375
2053.98794	11850.4375
2057.01034	11850.9375
2060.03078	11815.1375
2063.04927	11813.7375
2066.06582	11803.3375
2069.08042	11770.9375
2072.09307	11773.3375
2075.10378	11762.1375
2078.11255	11738.4375
2081.11938	11759.9375
2084.12426	11742.3375
2087.12722	11766.0375
2090.12824	11739.3375
2093.12732	11719.0375
2096.12447	11755.2375
2099.11969	11744.5375
2102.11299	11745.6375
2105.10435	11751.5375
2108.09379	11751.0375
2111.08131	11759.0375
2114.0669	11743.9375
2117.05057	11760.5375
2120.03233	11806.3375
2123.01216	11821.2375
2125.99008	11842.2375
2128.96609	11833.6375
2131.94018	11816.1375
2134.91236	11835.3375
2137.88263	11850.2375
2140.851	11841.5375
2143.81746	11827.6375
2146.78201	11864.8375
2149.74466	11858.5375
2152.7054	11855.4375
2155.66425	11852.3375
2158.6212	11854.9375
2161.57625	11841.2375
2164.52941	11852.6375
2167.48067	11854.7375
2170.43004	11810.6375
2173.37752	11858.1375
2176.32311	11843.2375
2179.26681	11852.3375
2182.20863	11854.3375
2185.14856	11870.0375
2188.08661	11870.1375
2191.02278	11865.7375
2193.95707	11846.0375
2196.88948	11852.5375
2199.82001	11850.1375
2202.74867	11881.6375
2205.67545	11840.4375
2208.60037	11812.9375
2211.52341	11835.9375
2214.44458	11806.1375
2217.36388	11821.3375
2220.28132	11813.9375
2223.1969	11792.7375
2226.11061	11773.2375
2229.02246	11706.4375
2231.93245	11714.4375
2234.84058	11673.8375
2237.74686	11677.4375
2240.65128	11646.0375
2243.55385	11663.6375
2246.45456	11670.4375
2249.35343	11629.5375
2252.25044	11596.1375
2255.14561	11598.5375
2258.03893	11594.0375
2260.93041	11574.9375
2263.82004	11567.5375
2266.70783	11521.5375
2269.59378	11488.9375
2272.4779	11477.3375
2275.36017	11454.6375
2278.24061	11422.6375
2281.11922	11389.9375
2283.996	11392.2375
2286.87094	11383.1375
2289.74405	11379.3375
2292.61534	11363.0375
2295.4848	11347.1375
2298.35243	11341.3375
2301.21824	11370.7375
2304.08223	11362.3375
2306.94439	11356.5375
2309.80474	11379.3375
2312.66327	11392.8375
2315.51999	11374.0375
2318.37489	11366.6375
2321.22797	11395.4375
2324.07925	11365.0375
2326.92871	11349.6375
2329.77637	11364.0375
2332.62222	11327.7375
2335.46626	11330.2375
2338.3085	11303.0375
2341.14893	11340.2375
2343.98756	11326.4375
2346.8244	11327.9375
2349.65943	11349.9375
2352.49267	11366.3375
2355.32411	11351.0375
2358.15376	11352.8375
2360.98161	11333.9375
2363.80768	11339.1375
2366.63195	11311.6375
2369.45444	11282.2375
2372.27514	11314.2375
2375.09405	11262.2375
2377.91118	11254.1375
2380.72652	11216.7375
2383.54009	11183.5375
2386.35187	11129.1375
2389.16188	11108.2375
2391.97011	11112.9375
2394.77657	11101.4375
2397.58125	11070.3375
2400.38416	11086.6375
2403.18529	11054.4375
2405.98466	11027.0375
2408.78226	10985.6375
2411.57809	10960.8375
2414.37216	10952.8375
2417.16446	10927.9375
2419.955	10915.5375
2422.74378	10940.7375
2425.5308	10888.2375
2428.31606	10928.2375
2431.09956	10921.9375
2433.88131	10889.7375
2436.6613	10926.9375
2439.43954	10888.5375
2442.21603	10907.4375
2444.99077	10907.2375
2447.76377	10915.4375
2450.53501	10898.5375
2453.30451	10915.2375
2456.07226	10886.4375
2458.83827	10855.5375
2461.60254	10887.6375
2464.36507	10875.2375
2467.12586	10893.2375
2469.88492	10892.1375
2472.64224	10898.8375
2475.39782	10910.6375
2478.15167	10892.3375
2480.90379	10926.7375
2483.65417	10925.5375
2486.40283	10948.5375
2489.14976	10967.1375
2491.89497	10921.7375
2494.63845	10940.1375
2497.3802	10911.0375
2500.12024	10937.0375
2502.85855	10934.4375
2505.59514	10913.6375
2508.33002	10888.0375
2511.06318	10865.9375
2513.79462	10858.1375
2516.52435	10834.8375
2519.25237	10828.3375
2521.97867	10808.3375
2524.70327	10802.4375
2527.42616	10799.7375
2530.14734	10787.9375
2532.86681	10782.6375
2535.58458	10795.0375
2538.30065	10788.7375
2541.01501	10773.5375
2543.72768	10764.5375
2546.43864	10756.4375
2549.14791	10728.3375
2551.85548	10740.9375
2554.56136	10707.8375
2557.26554	10706.8375
2559.96803	10690.4375
2562.66883	10718.3375
2565.36794	10707.3375
2568.06536	10674.8375
2570.7611	10662.0375
2573.45514	10703.3375
2576.14751	10660.4375
2578.83819	10659.5375
2581.52719	10651.5375
2584.21451	10632.5375
2586.90015	10650.3375
2589.58411	10602.5375
2592.2664	10584.6375
2594.94701	10598.6375
2597.62594	10596.2375
2600.30321	10631.1375
2602.9788	10630.7375
2605.65273	10595.2375
2608.32498	10625.8375
2610.99557	10596.2375
2613.66449	10595.5375
2616.33175	10605.2375
2618.99734	10616.5375
2621.66128	10632.4375
2624.32355	10615.1375
2626.98416	10605.6375
2629.64311	10585.8375
2632.30041	10590.8375
2634.95605	10572.0375
2637.61004	10557.1375
2640.26238	10536.6375
2642.91306	10544.1375
2645.56209	10529.9375
2648.20948	10520.5375
2650.85521	10496.4375
2653.4993	10509.7375
2656.14175	10495.1375
2658.78255	10497.3375
2661.42171	10496.0375
2664.05923	10539.1375
2666.6951	10561.8375
2669.32934	10555.8375
2671.96194	10557.4375
2674.59291	10541.0375
2677.22224	10563.2375
2679.84993	10550.4375
2682.476	10530.9375
2685.10043	10541.8375
2687.72324	10508.7375
2690.34441	10528.4375
2692.96396	10507.5375
2695.58188	10520.9375
2698.19818	10486.2375
2700.81285	10469.8375
2703.4259	10439.3375
2706.03733	10408.8375
2708.64714	10468.2375
2711.25533	10498.0375
2713.86191	10487.6375
2716.46687	10515.0375
2719.07021	10510.0375
2721.67194	10546.9375
2724.27206	10516.1375
2726.87057	10548.3375
2729.46747	10541.0375
2732.06276	10541.8375
2734.65644	10540.7375
2737.24852	10518.7375
2739.83899	10523.7375
2742.42786	10512.2375
2745.01513	10495.4375
2747.60079	10487.3375
2750.18486	10489.3375
2752.76733	10479.5375
2755.3482	10499.4375
2757.92747	10502.5375
2760.50515	10482.2375
2763.08123	10461.5375
2765.65573	10479.3375
2768.22863	10463.6375
2770.79994	10447.4375
2773.36967	10452.9375
2775.9378	10433.8375
2778.50435	10422.8375
2781.06932	10434.6375
2783.6327	10443.4375
2786.1945	10471.5375
2788.75471	10465.4375
2791.31335	10395.3375
2793.87041	10390.7375
2796.42589	10364.9375
2798.97979	10371.3375
2801.53212	10328.6375
2804.08288	10351.9375
2806.63206	10321.9375
2809.17967	10312.7375
2811.72571	10288.8375
2814.27018	10307.0375
2816.81308	10297.4375
2819.35442	10305.8375
2821.89419	10300.0375
2824.43239	10297.9375
2826.96904	10273.0375
2829.50412	10292.8375
2832.03763	10262.0375
2834.56959	10262.8375
2837.1	10251.3375
2839.62884	10238.6375
2842.15613	10234.5375
2844.68186	10231.5375
2847.20604	10243.8375
2849.72867	10241.8375
2852.24974	10236.9375
2854.76927	10222.4375
2857.28724	10192.6375
2859.80367	10165.9375
2862.31855	10174.4375
2864.83189	10194.2375
2867.34368	10195.2375
2869.85393	10191.0375
2872.36264	10192.1375
2874.8698	10193.9375
2877.37543	10211.4375
2879.87952	10222.8375
2882.38207	10175.5375
2884.88308	10191.9375
2887.38256	10216.1375
2889.88051	10200.2375
2892.37692	10210.1375
2894.8718	10220.8375
2897.36515	10219.9375
2899.85698	10241.5375
2902.34727	10264.2375
2904.83604	10256.9375
2907.32328	10293.2375
2909.809	10305.6375
2912.29319	10320.1375
2914.77587	10309.6375
2917.25702	10305.9375
2919.73665	10302.1375
2922.21476	10313.1375
2924.69136	10292.5375
2927.16644	10302.7375
2929.64	10252.5375
2932.11205	10243.3375
2934.58258	10215.5375
2937.05161	10231.1375
2939.51912	10228.2375
2941.98513	10224.2375
2944.44962	10211.7375
2946.91261	10174.1375
2949.37409	10215.5375
2951.83407	10175.4375
2954.29254	10163.8375
2956.74951	10164.0375
2959.20498	10158.2375
2961.65895	10140.3375
2964.11142	10104.9375
2966.56239	10109.6375
2969.01186	10059.3375
2971.45984	10056.4375
2973.90632	10048.1375
2976.35131	10017.4375
2978.7948	10028.1375
2981.23681	9986.1375
2983.67732	9966.3375
2986.11635	9932.1375
2988.55388	9908.5375
2990.98993	9916.5375
2993.4245	9911.3375
2995.85758	9877.7375
2998.28917	9855.8375
3000.71928	9848.8375
3003.14791	9832.2375
3005.57506	9845.0375
3008.00073	9804.6375
3010.42493	9800.6375
3012.84764	9793.1375
3015.26888	9783.3375
3017.68865	9748.5375
3020.10694	9768.0375
3022.52376	9728.0375
3024.9391	9705.2375
3027.35298	9695.0375
3029.76539	9694.6375
3032.17632	9660.6375
3034.5858	9646.4375
3036.9938	9642.4375
3039.40034	9651.8375
3041.80542	9645.8375
3044.20903	9616.7375
3046.61118	9623.7375
3049.01187	9610.2375
3051.4111	9607.0375
3053.80888	9583.8375
3056.20519	9569.7375
3058.60005	9541.6375
3060.99345	9531.0375
3063.3854	9502.0375
3065.7759	9496.6375
3068.16494	9476.8375
3070.55254	9435.3375
3072.93868	9398.4375
3075.32338	9380.2375
3077.70662	9355.9375
3080.08842	9323.9375
3082.46878	9323.0375
3084.84769	9314.3375
3087.22515	9320.9375
3089.60118	9336.7375
3091.97576	9319.2375
3094.3489	9320.5375
3096.72061	9311.4375
3099.09087	9317.8375
3101.4597	9327.3375
3103.82709	9317.0375
3106.19305	9291.2375
3108.55757	9324.7375
3110.92066	9281.5375
3113.28232	9274.3375
3115.64255	9227.5375
3118.00134	9241.5375
3120.35871	9259.9375
3122.71466	9235.9375
3125.06917	9212.3375
3127.42226	9187.0375
3129.77393	9218.2375
3132.12417	9175.9375
3134.47299	9215.6375
3136.82039	9185.6375
3139.16636	9185.9375
3141.51092	9172.9375
3143.85406	9171.6375
3146.19579	9171.1375
3148.53609	9154.9375
3150.87499	9182.2375
3153.21246	9219.6375
3155.54853	9222.5375
3157.88318	9187.9375
3160.21642	9209.0375
3162.54826	9208.9375
3164.87868	9214.7375
3167.2077	9190.6375
3169.5353	9220.3375
3171.86151	9215.4375
3174.18631	9207.2375
3176.5097	9203.1375
3178.83169	9180.9375
3181.15228	9198.2375
3183.47147	9152.4375
3185.78926	9187.6375
3188.10565	9186.8375
3190.42065	9195.2375
3192.73424	9170.9375
3195.04645	9185.3375
3197.35725	9181.5375
3199.66667	9173.2375
3201.97469	9194.7375
3204.28132	9172.6375
3206.58656	9180.9375
3208.8904	9188.9375
3211.19287	9179.1375
3213.49394	9212.6375
3215.79363	9227.3375
3218.09193	9212.4375
3220.38884	9205.9375
3222.68438	9210.2375
3224.97853	9206.0375
3227.2713	9203.2375
3229.56269	9187.8375
3231.8527	9179.5375
3234.14133	9183.8375
3236.42858	9160.3375
3238.71446	9162.8375
3240.99896	9125.3375
3243.28209	9120.1375
3245.56384	9124.3375
3247.84423	9119.6375
3250.12324	9113.3375
3252.40088	9122.4375
3254.67715	9126.6375
3256.95205	9105.3375
3259.22558	9123.3375
3261.49775	9103.2375
3263.76855	9105.9375
3266.03799	9094.1375
3268.30606	9099.7375
3270.57277	9061.1375
3272.83812	9066.3375
3275.10211	9048.4375
3277.36474	9031.4375
3279.62601	9014.9375
3281.88593	9014.1375
3284.14448	9027.2375
3286.40168	9036.6375
3288.65753	9018.7375
3290.91202	9032.5375
3293.16516	9001.2375
3295.41695	9007.8375
3297.66738	8960.7375
3299.91647	8905.5375
3302.16421	8830.6375
3304.4106	8811.5375
3306.65564	8748.1375
3308.89933	8712.7375
3311.14169	8625.4375
3313.38269	8554.5375
3315.62236	8506.9375
3317.86068	8442.5375
3320.09766	8378.9375
3322.3333	8331.4375
3324.5676	8324.1375
3326.80056	8153.7375
3329.03219	8111.8375
3331.26248	3.2375
3333.49143	-0.3625
3335.71905	0.0375
