Data from AgNPs_FTO_APTES_UA_50uM_CRN_10uM_R6G_10uM_NaF_0.1M_Addition_RamanShift__22__13-39-04-889.txt Node

Date: Mon Feb 21 13:39:04 GMT 2022
User: TCL
Spectrometer: QEP01345
Trigger mode: 4
Integration Time (sec): 7.000000E0
Scans to average: 10
Electric dark correction enabled: true
Nonlinearity correction enabled: false
Boxcar width: 0
XAxis mode: Raman Shifts
Number of Pixels in Spectrum: 1044
>>>>>Begin Spectral Data<<<<<
46.04893	0.1
50.45542	-0.6
54.85868	-0.3
59.25871	-1.2
63.6555	74.9
68.04907	79.7
72.43941	83.4
76.82654	86.5
81.21044	93.5
85.59113	94
89.96862	94.7
94.34289	101.2
98.71396	101.4
103.08183	106.4
107.4465	111.1
111.80798	113.4
116.16626	117.2
120.52136	117.7
124.87327	130
129.222	126.2
133.56755	138.3
137.90993	153.7
142.24913	162.2
146.58517	183.8
150.91804	213.3
155.24774	257.4
159.57429	313.7
163.89768	412.1
168.21792	552
172.53501	747.9
176.84895	1047.8
181.15975	1472.9
185.46741	2066.3
189.77193	2851.1
194.07331	3816.3
198.37157	4928.1
202.6667	6118.6
206.9587	7321.5
211.24758	8533.6
215.53334	9824.2
219.81599	11301.3
224.09553	12936.9
228.37195	14734.1
232.64527	16729.5
236.91549	18705
241.18261	20422.4
245.44663	21759.7
249.70755	22761.8
253.96539	23619.1
258.22014	24386.3
262.4718	25061.3
266.72039	25488.6
270.96589	25665.5
275.20832	25382.8
279.44768	24847.6
283.68397	24342.7
287.91719	24012.1
292.14735	24107.5
296.37445	24676.3
300.59849	25688.2
304.81948	26972.3
309.03742	27816
313.25231	27815.5
317.46415	26490.2
321.67296	24471.6
325.87872	22686.4
330.08145	21900.4
334.28114	21833
338.47781	22239.9
342.67145	22874.9
346.86207	23873.6
351.04966	25389.2
355.23424	27053.6
359.4158	28345.1
363.59435	28967.1
367.76989	29083.1
371.94243	28891.9
376.11196	28663.1
380.27849	28427.1
384.44203	28128.8
388.60257	27811.6
392.76012	27613.6
396.91468	27818.3
401.06626	28458.3
405.21485	28987.4
409.36047	28286.4
413.50311	26647.3
417.64277	25169.8
421.77947	24288.5
425.9132	23957.8
430.04396	23937.2
434.17176	24039.8
438.2966	24431.5
442.41849	25156.4
446.53742	26105.3
450.6534	27034.4
454.76644	27549.4
458.87653	27659.5
462.98368	27331
467.08789	26806
471.18916	26171.8
475.2875	25452.9
479.38291	24874.6
483.4754	24438.8
487.56496	24072.9
491.6516	23691.4
495.73531	23483.2
499.81612	23488.9
503.89401	23841.9
507.96899	24159.6
512.04106	24473.6
516.11023	24817.2
520.1765	24966.6
524.23987	24924.2
528.30034	24630.9
532.35792	24234.9
536.41261	23788.5
540.46441	23273.3
544.51333	22961.6
548.55936	23116.8
552.60252	23699.9
556.64279	24423.7
560.6802	24919.4
564.71473	25485.2
568.7464	26710
572.7752	27404.2
576.80114	26712.6
580.82422	25797.2
584.84444	25546.4
588.86181	25944.8
592.87633	26617.3
596.888	27219
600.89682	27766.2
604.9028	30750.9
608.90594	39644.7
612.90624	50735.1
616.90371	47242.6
620.89834	32360
624.89015	25544
628.87913	24396.1
632.86528	24736.9
636.84862	25210.6
640.82913	24631.2
644.80683	23174.5
648.78172	22086.3
652.75379	22029.7
656.72306	23031.3
660.68952	24336.2
664.65319	23928.5
668.61405	22644.7
672.57211	22150.9
676.52738	22299.5
680.47986	22261.5
684.42955	21998
688.37646	21748.8
692.32058	21763.3
696.26192	21969.1
700.20048	22282.1
704.13626	22509.6
708.06928	22318.4
711.99952	22013.5
715.927	21904.9
719.85171	22105
723.77365	22186.7
727.69284	21985.2
731.60928	21720.5
735.52295	21713.4
739.43388	21859.9
743.34206	22003.4
747.24749	22069.6
751.15017	22206.4
755.05012	22665.9
758.94733	24002.7
762.8418	27294.3
766.73354	32937.8
770.62254	38391.1
774.50882	40671.6
778.39237	38418
782.27321	32808.8
786.15132	27384
790.02671	24124.9
793.89938	22558
797.76935	21932.5
801.6366	21680.6
805.50115	21464.5
809.36299	21275.8
813.22213	21104.5
817.07857	21004.4
820.93231	20927.2
824.78336	20962.2
828.63172	21076
832.47738	21098.4
836.32036	21049
840.16066	20962.1
843.99827	20901.8
847.8332	20865.2
851.66546	20758.8
855.49504	20813.7
859.32195	20789.6
863.1462	20724.7
866.96777	20652.4
870.78668	20636.3
874.60293	20675.2
878.41652	20733.3
882.22745	20905.5
886.03573	21054.8
889.84136	21008.7
893.64433	20912.7
897.44466	20868.1
901.24235	20756.9
905.0374	20581.6
908.8298	20399.1
912.61957	20239.4
916.40671	20353.6
920.19121	20608
923.97308	20928.3
927.75233	21319.3
931.52895	21556.3
935.30295	21286.5
939.07433	20593.1
942.84309	19987.3
946.60924	19672.6
950.37278	19493.4
954.13371	19370.7
957.89203	19256.8
961.64774	19207.5
965.40086	19126.3
969.15137	19006.5
972.89929	18938.5
976.64461	18869.6
980.38733	18899.1
984.12747	18987.4
987.86502	19188.7
991.59999	19518.1
995.33237	19981.6
999.06217	20784
1002.78939	21783.9
1006.51404	22623.7
1010.23611	23183.1
1013.95561	23410.5
1017.67255	23395
1021.38692	23017.2
1025.09872	22522.9
1028.80796	22451.8
1032.51465	22891.7
1036.21877	23398.6
1039.92035	23621.2
1043.61937	23424.7
1047.31584	22929.8
1051.00976	22431.4
1054.70114	21999.6
1058.38998	21849.5
1062.07627	21880.9
1065.76003	21973.3
1069.44126	22054.6
1073.11995	22363.7
1076.79611	22774.8
1080.46974	23409.4
1084.14085	24237.6
1087.80943	25065.7
1091.47549	25389
1095.13903	24885.6
1098.80005	24025.1
1102.45857	23280.1
1106.11456	22990.9
1109.76805	23244.1
1113.41903	24017.1
1117.06751	25031.2
1120.71348	26438.4
1124.35696	27859.4
1127.99793	28933.4
1131.63641	28545.3
1135.2724	27100
1138.90589	25678.6
1142.5369	24836.9
1146.16542	24198.7
1149.79145	23861.8
1153.415	23807.6
1157.03607	24108.5
1160.65467	24760.1
1164.27079	26031.8
1167.88443	27960.1
1171.49561	30747
1175.10432	35031.8
1178.71056	40801
1182.31434	45809.1
1185.91565	47456.1
1189.51451	46003.5
1193.11091	42752.1
1196.70485	39308.1
1200.29634	36617.8
1203.88538	34352.7
1207.47197	31989.2
1211.05612	29894
1214.63782	28742.5
1218.21708	28482.6
1221.79391	28645.9
1225.36829	28860.1
1228.94024	28600.5
1232.50976	28033.8
1236.07685	27566.7
1239.6415	27330.4
1243.20374	27281.2
1246.76355	27483.2
1250.32093	27894.8
1253.8759	28707.5
1257.42845	29878.5
1260.97859	31203.4
1264.52631	32612.3
1268.07163	34115.8
1271.61453	35468.3
1275.15503	36593.9
1278.69312	37499
1282.22882	38299.1
1285.76211	39453.8
1289.29301	40914.2
1292.82151	42660.7
1296.34761	44904.1
1299.87133	48161.4
1303.39266	53166.9
1306.9116	60213.4
1310.42815	67333.7
1313.94233	70370.6
1317.45412	67512.6
1320.96354	61946
1324.47058	56650.9
1327.97525	52457.6
1331.47754	49908.7
1334.97747	48940.9
1338.47502	49269
1341.97022	50472.9
1345.46305	52440.2
1348.95352	54987
1352.44163	58532.9
1355.92738	64336.8
1359.41078	73551
1362.89183	81662.7
1366.37053	77646.4
1369.84688	63879.4
1373.32088	51748.1
1376.79254	44643.5
1380.26186	41138.8
1383.72883	39186.7
1387.19347	37836
1390.65578	36662
1394.11575	36115.6
1397.57339	36294
1401.0287	36811.3
1404.48168	37350.4
1407.93234	37705.4
1411.38068	37717.2
1414.82669	37371.2
1418.27039	36472.2
1421.71177	35249.6
1425.15083	34125
1428.58758	33680
1432.02203	34122.6
1435.45416	34809
1438.88399	35305.1
1442.31151	35546.8
1445.73673	35872.9
1449.15965	36288.5
1452.58027	36462
1455.9986	36412
1459.41463	36606.5
1462.82837	37291.5
1466.23982	38296.4
1469.64898	39204.3
1473.05586	39650.1
1476.46045	39586.5
1479.86276	39624.4
1483.26279	39953.4
1486.66054	40706
1490.05602	41911.7
1493.44922	43699.6
1496.84016	46492.5
1500.22882	51134.3
1503.61521	58054.1
1506.99934	66277.2
1510.38121	72575.8
1513.76081	72750.6
1517.13816	66199
1520.51324	56645.4
1523.88607	48796.8
1527.25665	43904.1
1530.62498	41295.5
1533.99105	39891.1
1537.35488	38871.1
1540.71647	38037.7
1544.07581	37531.1
1547.4329	37167.9
1550.78776	36969
1554.14038	37033.7
1557.49077	37414.9
1560.83892	38099.7
1564.18484	39170.8
1567.52853	40421.5
1570.86999	41347.9
1574.20922	41889
1577.54624	41499.1
1580.88103	39462.6
1584.2136	37035.6
1587.54395	36349.9
1590.87208	37617.3
1594.19801	40686.2
1597.52172	44158.4
1600.84321	45464.9
1604.16251	43368.7
1607.47959	39706.9
1610.79447	35849.7
1614.10715	32264.7
1617.41763	29424.9
1620.7259	27579.7
1624.03199	26766.7
1627.33587	26984.3
1630.63757	28116.2
1633.93707	30437.7
1637.23439	34137.2
1640.52951	39429.2
1643.82246	46321.1
1647.11321	53180.4
1650.40179	56268.3
1653.68819	52469.6
1656.97241	43461.4
1660.25446	34610
1663.53433	28539.8
1666.81203	24932.1
1670.08756	22916.2
1673.36092	21656.7
1676.63211	20870.8
1679.90115	20272.8
1683.16801	19852.8
1686.43272	19555
1689.69527	19299.1
1692.95567	19053.2
1696.2139	18846.1
1699.46999	18693.1
1702.72392	18623.2
1705.97571	18648.6
1709.22535	18709.3
1712.47284	18731.8
1715.71819	18712.9
1718.96139	18670.1
1722.20246	18533.1
1725.44139	18352.2
1728.67818	18187.7
1731.91284	17990.4
1735.14537	17899.2
1738.37576	17795.5
1741.60403	17730.5
1744.83017	17633.8
1748.05418	17577.2
1751.27607	17512.5
1754.49584	17422.4
1757.71349	17321.8
1760.92903	17233.6
1764.14244	17187
1767.35375	17173.4
1770.56294	17104.8
1773.77002	17047.1
1776.97499	17040.9
1780.17785	17029.2
1783.37861	17020.6
1786.57727	16965.7
1789.77382	16976.3
1792.96828	16921.6
1796.16064	16900.2
1799.3509	16853.6
1802.53907	16845.2
1805.72514	16785.8
1808.90913	16716.9
1812.09102	16659.3
1815.27083	16598.7
1818.44856	16573.8
1821.6242	16542.4
1824.79776	16533.9
1827.96924	16519.1
1831.13864	16541.8
1834.30597	16504.4
1837.47122	16527.8
1840.6344	16490.1
1843.7955	16469.9
1846.95454	16462
1850.11151	16491.4
1853.26642	16474.8
1856.41926	16473.5
1859.57004	16484.8
1862.71876	16477.4
1865.86542	16484.2
1869.01003	16489.4
1872.15258	16457.8
1875.29308	16495.3
1878.43152	16474.7
1881.56792	16490.7
1884.70227	16535.3
1887.83457	16532.6
1890.96482	16556.2
1894.09304	16501.7
1897.21921	16553.9
1900.34335	16560.8
1903.46544	16555.8
1906.58551	16556.8
1909.70353	16503.1
1912.81953	16472.7
1915.93349	16416.5
1919.04543	16366.6
1922.15534	16341.6
1925.26322	16264.5
1928.36908	16161.6
1931.47292	16125.2
1934.57473	16037.7
1937.67453	15962.6
1940.77232	15911.7
1943.86808	15861.1
1946.96184	15814.2
1950.05358	15753.6
1953.14331	15697.3
1956.23103	15625.4
1959.31675	15570.2
1962.40046	15587.6
1965.48217	15525.6
1968.56188	15483.2
1971.63959	15450.8
1974.7153	15425.2
1977.78901	15347.1
1980.86073	15301.9
1983.93046	15215
1986.99819	15166.9
1990.06394	15108.1
1993.1277	15028.7
1996.18947	14989.6
1999.24925	14978
2002.30706	14888
2005.36288	14845.2
2008.41672	14800.4
2011.46859	14787.6
2014.51848	14729
2017.56639	14686.7
2020.61233	14651.3
2023.6563	14634.3
2026.6983	14585.7
2029.73833	14568.5
2032.7764	14536.3
2035.8125	14515.5
2038.84664	14502.9
2041.87881	14523.9
2044.90903	14475
2047.93729	14447.1
2050.96359	14438.1
2053.98794	14387
2057.01034	14375.2
2060.03078	14348.8
2063.04927	14314.4
2066.06582	14301.5
2069.08042	14318.9
2072.09307	14278.7
2075.10378	14275.9
2078.11255	14249.7
2081.11938	14260.4
2084.12426	14276.8
2087.12722	14230.5
2090.12824	14197.6
2093.12732	14205.5
2096.12447	14209.1
2099.11969	14199.8
2102.11299	14213.9
2105.10435	14241
2108.09379	14231
2111.08131	14229.9
2114.0669	14238.2
2117.05057	14285.1
2120.03233	14290.2
2123.01216	14296.6
2125.99008	14307.5
2128.96609	14330.9
2131.94018	14352.3
2134.91236	14333.4
2137.88263	14312.3
2140.851	14279.2
2143.81746	14283.4
2146.78201	14294
2149.74466	14283.6
2152.7054	14290.9
2155.66425	14261.8
2158.6212	14244.2
2161.57625	14231.9
2164.52941	14252.9
2167.48067	14252.5
2170.43004	14205
2173.37752	14207.7
2176.32311	14220.9
2179.26681	14243.3
2182.20863	14234.7
2185.14856	14235.7
2188.08661	14263.3
2191.02278	14246.4
2193.95707	14249.8
2196.88948	14227.7
2199.82001	14232.2
2202.74867	14238.4
2205.67545	14261.4
2208.60037	14216
2211.52341	14176.1
2214.44458	14181.8
2217.36388	14142
2220.28132	14118.8
2223.1969	14099.9
2226.11061	14083.6
2229.02246	14031
2231.93245	14008.8
2234.84058	13995.4
2237.74686	13938.7
2240.65128	13956.6
2243.55385	13931.5
2246.45456	13928.1
2249.35343	13938
2252.25044	13908.5
2255.14561	13909.6
2258.03893	13879.4
2260.93041	13895.5
2263.82004	13894.5
2266.70783	13822.1
2269.59378	13792.6
2272.4779	13740.9
2275.36017	13731.3
2278.24061	13680
2281.11922	13659.9
2283.996	13604.9
2286.87094	13615.4
2289.74405	13589.6
2292.61534	13565.9
2295.4848	13561.9
2298.35243	13571.9
2301.21824	13539.6
2304.08223	13582.8
2306.94439	13589.8
2309.80474	13602.7
2312.66327	13623.2
2315.51999	13606.4
2318.37489	13593.2
2321.22797	13594.1
2324.07925	13560.7
2326.92871	13554.3
2329.77637	13517.9
2332.62222	13516.5
2335.46626	13538
2338.3085	13530.2
2341.14893	13578
2343.98756	13588.4
2346.8244	13607.1
2349.65943	13614.3
2352.49267	13622.6
2355.32411	13657.8
2358.15376	13688.5
2360.98161	13680.9
2363.80768	13661.7
2366.63195	13675.5
2369.45444	13665.2
2372.27514	13624.1
2375.09405	13648.4
2377.91118	13573.4
2380.72652	13527.9
2383.54009	13454.7
2386.35187	13431
2389.16188	13384.5
2391.97011	13335.1
2394.77657	13303.9
2397.58125	13276.8
2400.38416	13229.7
2403.18529	13224.5
2405.98466	13198.3
2408.78226	13151.2
2411.57809	13144.6
2414.37216	13105.2
2417.16446	13112.2
2419.955	13101.8
2422.74378	13120.8
2425.5308	13095
2428.31606	13088.1
2431.09956	13060
2433.88131	13073
2436.6613	13085.3
2439.43954	13123.7
2442.21603	13100.9
2444.99077	13097.8
2447.76377	13114.7
2450.53501	13106.6
2453.30451	13145.2
2456.07226	13168.3
2458.83827	13160.9
2461.60254	13178.9
2464.36507	13164
2467.12586	13140.2
2469.88492	13170
2472.64224	13148.2
2475.39782	13143.7
2478.15167	13159.4
2480.90379	13242.6
2483.65417	13243.1
2486.40283	13298.7
2489.14976	13342.6
2491.89497	13344.9
2494.63845	13363.7
2497.3802	13353.6
2500.12024	13338.1
2502.85855	13335.9
2505.59514	13276.5
2508.33002	13246.7
2511.06318	13206.3
2513.79462	13155.4
2516.52435	13093.9
2519.25237	13071.8
2521.97867	13038.4
2524.70327	13030.2
2527.42616	13024.1
2530.14734	13008.4
2532.86681	13028.7
2535.58458	13017.5
2538.30065	13030
2541.01501	13022.6
2543.72768	13005.9
2546.43864	13019.8
2549.14791	13008
2551.85548	13015.4
2554.56136	12992.3
2557.26554	12985.8
2559.96803	13000.9
2562.66883	12983.5
2565.36794	12995.8
2568.06536	12999.4
2570.7611	12982.5
2573.45514	12944.8
2576.14751	12985.2
2578.83819	12936.1
2581.52719	12944.5
2584.21451	12914.2
2586.90015	12935.9
2589.58411	12934.1
2592.2664	12903
2594.94701	12914
2597.62594	12901.1
2600.30321	12920.9
2602.9788	12910.2
2605.65273	12906.4
2608.32498	12927.1
2610.99557	12910.2
2613.66449	12949.1
2616.33175	12974.7
2618.99734	13005.3
2621.66128	13001.4
2624.32355	12970.2
2626.98416	12959
2629.64311	12903.7
2632.30041	12933.3
2634.95605	12915.8
2637.61004	12901.5
2640.26238	12897.8
2642.91306	12840.7
2645.56209	12815.9
2648.20948	12846.3
2650.85521	12834.3
2653.4993	12864.4
2656.14175	12847
2658.78255	12889.2
2661.42171	12893.7
2664.05923	12909.1
2666.6951	12910.4
2669.32934	12958
2671.96194	12950.4
2674.59291	12986
2677.22224	12965.3
2679.84993	12970.7
2682.476	12927.5
2685.10043	12942.3
2687.72324	12921.5
2690.34441	12900
2692.96396	12861.8
2695.58188	12882.6
2698.19818	12849.5
2700.81285	12854.3
2703.4259	12826
2706.03733	12758
2708.64714	12802.1
2711.25533	12847.6
2713.86191	12872.9
2716.46687	12879.5
2719.07021	12942.5
2721.67194	12943.3
2724.27206	12926.8
2726.87057	12955
2729.46747	12983.1
2732.06276	12946.5
2734.65644	12929.2
2737.24852	12936.3
2739.83899	12908.8
2742.42786	12915.5
2745.01513	12911.4
2747.60079	12894.6
2750.18486	12873.1
2752.76733	12858.6
2755.3482	12873.4
2757.92747	12848.4
2760.50515	12838.6
2763.08123	12838.8
2765.65573	12863.6
2768.22863	12840.2
2770.79994	12831.8
2773.36967	12834
2775.9378	12838.3
2778.50435	12821.7
2781.06932	12821.6
2783.6327	12869.6
2786.1945	12852.9
2788.75471	12857.3
2791.31335	12817.5
2793.87041	12838.1
2796.42589	12812
2798.97979	12817.7
2801.53212	12768
2804.08288	12739.1
2806.63206	12724.9
2809.17967	12709.7
2811.72571	12686.6
2814.27018	12751.4
2816.81308	12710.3
2819.35442	12724.1
2821.89419	12730.5
2824.43239	12748
2826.96904	12758.2
2829.50412	12763.3
2832.03763	12717.7
2834.56959	12720
2837.1	12698.1
2839.62884	12676
2842.15613	12657.2
2844.68186	12705.5
2847.20604	12700.3
2849.72867	12681.9
2852.24974	12669.8
2854.76927	12680.9
2857.28724	12657
2859.80367	12679.7
2862.31855	12686.4
2864.83189	12683
2867.34368	12713.5
2869.85393	12745.7
2872.36264	12702.1
2874.8698	12742.4
2877.37543	12732.9
2879.87952	12748.7
2882.38207	12759.7
2884.88308	12714.8
2887.38256	12719.8
2889.88051	12734
2892.37692	12767.4
2894.8718	12751.2
2897.36515	12767.2
2899.85698	12758
2902.34727	12788.7
2904.83604	12777
2907.32328	12812.2
2909.809	12790.4
2912.29319	12817.7
2914.77587	12814.3
2917.25702	12787.5
2919.73665	12750.4
2922.21476	12784.1
2924.69136	12731.4
2927.16644	12731.7
2929.64	12681.6
2932.11205	12635.9
2934.58258	12585.1
2937.05161	12603.4
2939.51912	12601.3
2941.98513	12559.2
2944.44962	12565.8
2946.91261	12556.4
2949.37409	12539.1
2951.83407	12521.6
2954.29254	12499.1
2956.74951	12499.8
2959.20498	12489.7
2961.65895	12461.9
2964.11142	12440.5
2966.56239	12409.7
2969.01186	12387.1
2971.45984	12353.2
2973.90632	12322.5
2976.35131	12290.2
2978.7948	12261.2
2981.23681	12246.7
2983.67732	12251.9
2986.11635	12191.3
2988.55388	12133.2
2990.98993	12145.4
2993.4245	12126.9
2995.85758	12098.3
2998.28917	12057.8
3000.71928	12030.8
3003.14791	12045.3
3005.57506	12025.1
3008.00073	11991.4
3010.42493	11956
3012.84764	11928.9
3015.26888	11951.2
3017.68865	11903.8
3020.10694	11885.4
3022.52376	11828.9
3024.9391	11804.3
3027.35298	11816.7
3029.76539	11778.8
3032.17632	11763.5
3034.5858	11742.3
3036.9938	11711.9
3039.40034	11682.1
3041.80542	11687.8
3044.20903	11665.2
3046.61118	11663.4
3049.01187	11626.8
3051.4111	11629.5
3053.80888	11581.8
3056.20519	11588.2
3058.60005	11553.3
3060.99345	11510.5
3063.3854	11474.5
3065.7759	11443.8
3068.16494	11400
3070.55254	11346
3072.93868	11328.9
3075.32338	11258.4
3077.70662	11227.2
3080.08842	11214.2
3082.46878	11190.2
3084.84769	11166.2
3087.22515	11156.6
3089.60118	11153
3091.97576	11154.2
3094.3489	11162.1
3096.72061	11127.3
3099.09087	11132.9
3101.4597	11103.4
3103.82709	11114.1
3106.19305	11094
3108.55757	11104.8
3110.92066	11075
3113.28232	11074.3
3115.64255	10985.2
3118.00134	10978.9
3120.35871	10955.5
3122.71466	10936.4
3125.06917	10902.8
3127.42226	10918.2
3129.77393	10904
3132.12417	10915.2
3134.47299	10909.5
3136.82039	10882.4
3139.16636	10858.4
3141.51092	10846.6
3143.85406	10840.2
3146.19579	10825
3148.53609	10814.9
3150.87499	10830.8
3153.21246	10832.2
3155.54853	10862.8
3157.88318	10854.9
3160.21642	10846.8
3162.54826	10849.4
3164.87868	10875.1
3167.2077	10849.2
3169.5353	10838
3171.86151	10830
3174.18631	10825.4
3176.5097	10819.9
3178.83169	10793.1
3181.15228	10802.9
3183.47147	10775.5
3185.78926	10736.3
3188.10565	10764.9
3190.42065	10765.6
3192.73424	10769.7
3195.04645	10783.5
3197.35725	10775
3199.66667	10744.9
3201.97469	10779.2
3204.28132	10791.7
3206.58656	10816.4
3208.8904	10804.8
3211.19287	10811.1
3213.49394	10816.5
3215.79363	10793.1
3218.09193	10826.5
3220.38884	10820
3222.68438	10814.8
3224.97853	10791.3
3227.2713	10786.1
3229.56269	10801
3231.8527	10809.1
3234.14133	10804.2
3236.42858	10767.6
3238.71446	10746.8
3240.99896	10722.2
3243.28209	10722.9
3245.56384	10745.4
3247.84423	10738.9
3250.12324	10718.8
3252.40088	10734.8
3254.67715	10721
3256.95205	10699.1
3259.22558	10713.8
3261.49775	10693.8
3263.76855	10707.6
3266.03799	10711.9
3268.30606	10693.4
3270.57277	10670
3272.83812	10653.5
3275.10211	10687.5
3277.36474	10646.2
3279.62601	10639.2
3281.88593	10645.3
3284.14448	10646.4
3286.40168	10660
3288.65753	10648.5
3290.91202	10634.3
3293.16516	10622
3295.41695	10639.5
3297.66738	10571
3299.91647	10496
3302.16421	10425.8
3304.4106	10414.6
3306.65564	10338.9
3308.89933	10260.9
3311.14169	10184.4
3313.38269	10065.7
3315.62236	10013.2
3317.86068	9933.5
3320.09766	9842.5
3322.3333	9779.3
3324.5676	9757.2
3326.80056	9570.3
3329.03219	9521.1
3331.26248	2.8
3333.49143	-0.7
3335.71905	0.2
