Data from AgNPs_FTO_APTES_UA_50uM_CRN_0uM_R6G_10uM_NaF_0.1M_Addition_RamanShift__10__10-21-54-630.txt Node

Date: Mon Feb 21 10:21:54 GMT 2022
User: TCL
Spectrometer: QEP01345
Trigger mode: 4
Integration Time (sec): 7.000000E0
Scans to average: 10
Electric dark correction enabled: true
Nonlinearity correction enabled: false
Boxcar width: 0
XAxis mode: Raman Shifts
Number of Pixels in Spectrum: 1044
>>>>>Begin Spectral Data<<<<<
46.04893	1.2
50.45542	-1.4
54.85868	1.4
59.25871	-0.8
63.6555	23.7
68.04907	31.9
72.43941	29.8
76.82654	33.9
81.21044	34.7
85.59113	36.8
89.96862	36.5
94.34289	43.5
98.71396	40.2
103.08183	45.7
107.4465	43.3
111.80798	43.3
116.16626	42.2
120.52136	40.6
124.87327	49.7
129.222	45.9
133.56755	45
137.90993	52.2
142.24913	51.5
146.58517	55.7
150.91804	63
155.24774	70.3
159.57429	87.4
163.89768	109.3
168.21792	145.6
172.53501	189
176.84895	259.7
181.15975	354.1
185.46741	502
189.77193	685.5
194.07331	912.7
198.37157	1178.2
202.6667	1456.3
206.9587	1736.2
211.24758	2016.5
215.53334	2301
219.81599	2616.2
224.09553	2981.1
228.37195	3376.1
232.64527	3818.1
236.91549	4236.8
241.18261	4602.9
245.44663	4948.5
249.70755	5193.4
253.96539	5397.1
258.22014	5586.8
262.4718	5738.2
266.72039	5829.4
270.96589	5880.9
275.20832	5856.8
279.44768	5743.8
283.68397	5602.4
287.91719	5508.1
292.14735	5495.7
296.37445	5572.8
300.59849	5770.5
304.81948	6037.4
309.03742	6271.3
313.25231	6347.3
317.46415	6170.9
321.67296	5790.6
325.87872	5412.2
330.08145	5212.4
334.28114	5181.6
338.47781	5260.4
342.67145	5365.3
346.86207	5565.3
351.04966	5859.9
355.23424	6223.5
359.4158	6471.7
363.59435	6624.1
367.76989	6622
371.94243	6600.3
376.11196	6551.7
380.27849	6510.7
384.44203	6453.6
388.60257	6364.5
392.76012	6290.6
396.91468	6299.3
401.06626	6446.6
405.21485	6530.8
409.36047	6420.3
413.50311	6088.9
417.64277	5762.4
421.77947	5556.4
425.9132	5470.1
430.04396	5444
434.17176	5482.2
438.2966	5606.8
442.41849	5775.2
446.53742	6004
450.6534	6208.9
454.76644	6294.6
458.87653	6226.8
462.98368	6094.7
467.08789	5928.6
471.18916	5769.2
475.2875	5634.7
479.38291	5489.8
483.4754	5419.1
487.56496	5365.5
491.6516	5324.5
495.73531	5314.1
499.81612	5331.3
503.89401	5401.7
507.96899	5479.4
512.04106	5579.6
516.11023	5696.8
520.1765	5782.9
524.23987	5796.9
528.30034	5768.8
532.35792	5685.8
536.41261	5599.4
540.46441	5431.8
544.51333	5336
548.55936	5333.4
552.60252	5416.7
556.64279	5555.4
560.6802	5663
564.71473	5746.5
568.7464	5955.4
572.7752	6093.5
576.80114	5923
580.82422	5646.2
584.84444	5611.1
588.86181	5754.7
592.87633	6051.4
596.888	6256.4
600.89682	6172.2
604.9028	6502.2
608.90594	8099.8
612.90624	10590.7
616.90371	10569.7
620.89834	7493.9
624.89015	5830.7
628.87913	5503.6
632.86528	5525
636.84862	5628.4
640.82913	5604.3
644.80683	5365
648.78172	5189.4
652.75379	5155.4
656.72306	5349.8
660.68952	5608.8
664.65319	5582.2
668.61405	5302.8
672.57211	5146.1
676.52738	5149
680.47986	5148
684.42955	5098.6
688.37646	5034.6
692.32058	5034.5
696.26192	5062.2
700.20048	5128.2
704.13626	5141.2
708.06928	5115.7
711.99952	5112.3
715.927	5113
719.85171	5157.5
723.77365	5193.6
727.69284	5165.9
731.60928	5120
735.52295	5120.7
739.43388	5141.8
743.34206	5167
747.24749	5171.6
751.15017	5184.7
755.05012	5226.7
758.94733	5396.5
762.8418	5941.9
766.73354	6959.9
770.62254	8079.2
774.50882	8726.7
778.39237	8483.1
782.27321	7422.2
786.15132	6307.2
790.02671	5600.2
793.89938	5279.3
797.76935	5143.4
801.6366	5078.6
805.50115	5041.9
809.36299	5037.3
813.22213	4997
817.07857	4991.6
820.93231	4953.2
824.78336	4967.4
828.63172	4976.9
832.47738	4980.1
836.32036	4976
840.16066	4939.7
843.99827	4933.3
847.8332	4917.9
851.66546	4927.5
855.49504	4904.4
859.32195	4913.6
863.1462	4874.5
866.96777	4874.1
870.78668	4862.7
874.60293	4878.6
878.41652	4879.8
882.22745	4915.4
886.03573	4948.8
889.84136	4937.2
893.64433	4922
897.44466	4888
901.24235	4905.6
905.0374	4872.2
908.8298	4831.1
912.61957	4812.2
916.40671	4807.8
920.19121	4835.9
923.97308	4871.1
927.75233	4964.7
931.52895	5039.4
935.30295	4986.5
939.07433	4849.5
942.84309	4712.2
946.60924	4626.2
950.37278	4561.3
954.13371	4543.1
957.89203	4517.5
961.64774	4478.3
965.40086	4474.7
969.15137	4466.4
972.89929	4421.8
976.64461	4439.5
980.38733	4424.1
984.12747	4410.9
987.86502	4433.2
991.59999	4461
995.33237	4502.8
999.06217	4580.3
1002.78939	4682.7
1006.51404	4776.1
1010.23611	4843.3
1013.95561	4881.3
1017.67255	4857.7
1021.38692	4769.2
1025.09872	4674.7
1028.80796	4580
1032.51465	4537.5
1036.21877	4553.7
1039.92035	4570.9
1043.61937	4606.7
1047.31584	4638.5
1051.00976	4657.1
1054.70114	4666.7
1058.38998	4663.5
1062.07627	4680.4
1065.76003	4677.4
1069.44126	4657.9
1073.11995	4689.1
1076.79611	4744.9
1080.46974	4831
1084.14085	4994.7
1087.80943	5155.8
1091.47549	5206.3
1095.13903	5103
1098.80005	4910.4
1102.45857	4747.6
1106.11456	4696.8
1109.76805	4742
1113.41903	4859.6
1117.06751	5021.2
1120.71348	5271.3
1124.35696	5535.1
1127.99793	5793.5
1131.63641	5817.6
1135.2724	5532.4
1138.90589	5209.7
1142.5369	4987
1146.16542	4861.1
1149.79145	4763.3
1153.415	4726.2
1157.03607	4715.6
1160.65467	4783.1
1164.27079	4944.3
1167.88443	5232.9
1171.49561	5724.8
1175.10432	6533.1
1178.71056	7623.2
1182.31434	8504.3
1185.91565	8679.5
1189.51451	8304.1
1193.11091	7684
1196.70485	7054.3
1200.29634	6566.6
1203.88538	6125.4
1207.47197	5666.7
1211.05612	5296.6
1214.63782	5095.9
1218.21708	5092.3
1221.79391	5129.7
1225.36829	5179.5
1228.94024	5138.2
1232.50976	5002.4
1236.07685	4931.4
1239.6415	4878.5
1243.20374	4878.8
1246.76355	4846.9
1250.32093	4877
1253.8759	4953.8
1257.42845	5072.3
1260.97859	5241.2
1264.52631	5493
1268.07163	5722.3
1271.61453	5891.2
1275.15503	6026.1
1278.69312	6069.1
1282.22882	6097.9
1285.76211	6234.3
1289.29301	6539.7
1292.82151	6846.3
1296.34761	7186.1
1299.87133	7600.5
1303.39266	8259.4
1306.9116	9316.3
1310.42815	10664.3
1313.94233	11537.4
1317.45412	11290
1320.96354	10229.4
1324.47058	8972.5
1327.97525	7893.4
1331.47754	7291.4
1334.97747	7052.4
1338.47502	7068.6
1341.97022	7198.3
1345.46305	7468.4
1348.95352	8060.3
1352.44163	8977.9
1355.92738	10353.3
1359.41078	12246.6
1362.89183	14187.2
1366.37053	14126.7
1369.84688	11833.1
1373.32088	9303.6
1376.79254	7721.4
1380.26186	6929.5
1383.72883	6493
1387.19347	6167.6
1390.65578	5845.5
1394.11575	5630.5
1397.57339	5557.3
1401.0287	5584.2
1404.48168	5607.1
1407.93234	5601.7
1411.38068	5610.2
1414.82669	5548.1
1418.27039	5485.6
1421.71177	5405
1425.15083	5306.9
1428.58758	5266.3
1432.02203	5328.9
1435.45416	5424
1438.88399	5481.9
1442.31151	5467
1445.73673	5467.9
1449.15965	5470.2
1452.58027	5465.1
1455.9986	5344.1
1459.41463	5295.1
1462.82837	5336.3
1466.23982	5466.2
1469.64898	5619
1473.05586	5736.2
1476.46045	5809.7
1479.86276	5887.1
1483.26279	5998.1
1486.66054	6127.8
1490.05602	6338.7
1493.44922	6619.8
1496.84016	7049.1
1500.22882	7834.3
1503.61521	8972.3
1506.99934	10382.4
1510.38121	11799.1
1513.76081	12492.2
1517.13816	11825.2
1520.51324	10092.3
1523.88607	8353.8
1527.25665	7175.3
1530.62498	6588
1533.99105	6241.6
1537.35488	6008.5
1540.71647	5854.6
1544.07581	5724.1
1547.4329	5639.8
1550.78776	5610.5
1554.14038	5604.9
1557.49077	5662.2
1560.83892	5769.6
1564.18484	5970.6
1567.52853	6255.1
1570.86999	6527.9
1574.20922	6695.9
1577.54624	6699.4
1580.88103	6334.1
1584.2136	5759
1587.54395	5395.2
1590.87208	5396.4
1594.19801	5723.6
1597.52172	6289.7
1600.84321	6620.6
1604.16251	6473.4
1607.47959	5965.1
1610.79447	5385.4
1614.10715	4873.3
1617.41763	4502.4
1620.7259	4282.8
1624.03199	4170.3
1627.33587	4177.9
1630.63757	4258.1
1633.93707	4481.8
1637.23439	4907.9
1640.52951	5591.4
1643.82246	6652.6
1647.11321	7863.2
1650.40179	8667.2
1653.68819	8381.2
1656.97241	7054.1
1660.25446	5597.4
1663.53433	4558.6
1666.81203	3981.1
1670.08756	3687.1
1673.36092	3533
1676.63211	3443.4
1679.90115	3379.5
1683.16801	3324.3
1686.43272	3271.9
1689.69527	3205
1692.95567	3133.4
1696.2139	3011.8
1699.46999	2899.8
1702.72392	2868.9
1705.97571	2944.5
1709.22535	3033.8
1712.47284	3090.7
1715.71819	3131
1718.96139	3148.5
1722.20246	3140.6
1725.44139	3116.4
1728.67818	3100.8
1731.91284	3066
1735.14537	3047
1738.37576	3022.3
1741.60403	3007.4
1744.83017	2964.7
1748.05418	2939.2
1751.27607	2898.7
1754.49584	2840.1
1757.71349	2773.7
1760.92903	2713.1
1764.14244	2721.2
1767.35375	2718.9
1770.56294	2712
1773.77002	2724.6
1776.97499	2772.9
1780.17785	2816.7
1783.37861	2850.2
1786.57727	2852.6
1789.77382	2849
1792.96828	2843.3
1796.16064	2848.6
1799.3509	2845
1802.53907	2841
1805.72514	2839.7
1808.90913	2826
1812.09102	2817.7
1815.27083	2810.1
1818.44856	2794.1
1821.6242	2787.5
1824.79776	2785.8
1827.96924	2779.4
1831.13864	2764
1834.30597	2763.7
1837.47122	2760.2
1840.6344	2733.6
1843.7955	2734.5
1846.95454	2739.2
1850.11151	2714.3
1853.26642	2720.8
1856.41926	2710.7
1859.57004	2705.4
1862.71876	2700.1
1865.86542	2697.8
1869.01003	2696.5
1872.15258	2699.1
1875.29308	2689.6
1878.43152	2686.2
1881.56792	2674.6
1884.70227	2671.9
1887.83457	2680.9
1890.96482	2667.6
1894.09304	2657.1
1897.21921	2656.9
1900.34335	2655.3
1903.46544	2651
1906.58551	2647.6
1909.70353	2647
1912.81953	2629.6
1915.93349	2646.2
1919.04543	2624.7
1922.15534	2615.9
1925.26322	2600.1
1928.36908	2590.7
1931.47292	2583.6
1934.57473	2562.1
1937.67453	2558
1940.77232	2539.2
1943.86808	2545.4
1946.96184	2523.7
1950.05358	2514.6
1953.14331	2495.9
1956.23103	2493.6
1959.31675	2487.7
1962.40046	2488.8
1965.48217	2466
1968.56188	2467.3
1971.63959	2471.5
1974.7153	2459.2
1977.78901	2449.8
1980.86073	2434.2
1983.93046	2417.3
1986.99819	2401.1
1990.06394	2392.7
1993.1277	2392.2
1996.18947	2389
1999.24925	2356.4
2002.30706	2356.1
2005.36288	2352.9
2008.41672	2341
2011.46859	2327.7
2014.51848	2313
2017.56639	2317.1
2020.61233	2294.1
2023.6563	2297.5
2026.6983	2282
2029.73833	2278.5
2032.7764	2252.9
2035.8125	2257.1
2038.84664	2248.4
2041.87881	2234.2
2044.90903	2236.5
2047.93729	2221.3
2050.96359	2215.6
2053.98794	2208.6
2057.01034	2218.2
2060.03078	2214.1
2063.04927	2212.1
2066.06582	2215.4
2069.08042	2203.8
2072.09307	2204.9
2075.10378	2195.9
2078.11255	2200.4
2081.11938	2192.1
2084.12426	2190.5
2087.12722	2186.5
2090.12824	2195.9
2093.12732	2179.3
2096.12447	2187.1
2099.11969	2180.8
2102.11299	2188.4
2105.10435	2182.8
2108.09379	2182.3
2111.08131	2187.2
2114.0669	2183
2117.05057	2173.6
2120.03233	2181.1
2123.01216	2181.8
2125.99008	2165.2
2128.96609	2175.8
2131.94018	2172.3
2134.91236	2175.7
2137.88263	2168.9
2140.851	2164.7
2143.81746	2161.9
2146.78201	2151.3
2149.74466	2152.2
2152.7054	2159.1
2155.66425	2142.1
2158.6212	2142.6
2161.57625	2146.9
2164.52941	2132.8
2167.48067	2139.3
2170.43004	2120.1
2173.37752	2121.9
2176.32311	2114.1
2179.26681	2116.5
2182.20863	2114.7
2185.14856	2123.9
2188.08661	2120.7
2191.02278	2122.8
2193.95707	2117.9
2196.88948	2113.3
2199.82001	2111.6
2202.74867	2090.4
2205.67545	2087.2
2208.60037	2098
2211.52341	2084.7
2214.44458	2075.4
2217.36388	2055.8
2220.28132	2070.3
2223.1969	2046.7
2226.11061	2049.3
2229.02246	2048.2
2231.93245	2025.7
2234.84058	2030.3
2237.74686	2025.9
2240.65128	2019.1
2243.55385	2028
2246.45456	2011.5
2249.35343	2020.7
2252.25044	2011.2
2255.14561	2013.4
2258.03893	1992.5
2260.93041	1969
2263.82004	1981.5
2266.70783	1986.1
2269.59378	1987.6
2272.4779	1982.2
2275.36017	1982.4
2278.24061	1990.7
2281.11922	1969.8
2283.996	1964.9
2286.87094	1955.7
2289.74405	1937.9
2292.61534	1940.9
2295.4848	1926.4
2298.35243	1940.9
2301.21824	1927.7
2304.08223	1920.2
2306.94439	1921.2
2309.80474	1917.1
2312.66327	1911.7
2315.51999	1906.4
2318.37489	1896.7
2321.22797	1894.4
2324.07925	1896.6
2326.92871	1889.3
2329.77637	1894.8
2332.62222	1882.8
2335.46626	1878.1
2338.3085	1870
2341.14893	1869.8
2343.98756	1874
2346.8244	1870.4
2349.65943	1857.7
2352.49267	1875.6
2355.32411	1878.4
2358.15376	1885.1
2360.98161	1879.9
2363.80768	1881.9
2366.63195	1896
2369.45444	1896
2372.27514	1893.4
2375.09405	1888.9
2377.91118	1876.4
2380.72652	1854.5
2383.54009	1857.3
2386.35187	1851.8
2389.16188	1833.8
2391.97011	1831.9
2394.77657	1814.2
2397.58125	1804.8
2400.38416	1810.8
2403.18529	1791.2
2405.98466	1799.6
2408.78226	1791.1
2411.57809	1775.5
2414.37216	1781.8
2417.16446	1784.2
2419.955	1789.4
2422.74378	1766.2
2425.5308	1759.1
2428.31606	1765.8
2431.09956	1766.7
2433.88131	1771.6
2436.6613	1768.2
2439.43954	1773.8
2442.21603	1770.6
2444.99077	1774.6
2447.76377	1759
2450.53501	1774.7
2453.30451	1761.3
2456.07226	1759.1
2458.83827	1763.2
2461.60254	1759.6
2464.36507	1749.5
2467.12586	1744.8
2469.88492	1747.3
2472.64224	1746.3
2475.39782	1739.4
2478.15167	1732.8
2480.90379	1744.4
2483.65417	1748.4
2486.40283	1760.1
2489.14976	1757.7
2491.89497	1762.2
2494.63845	1744.2
2497.3802	1741.5
2500.12024	1759.4
2502.85855	1748.7
2505.59514	1737.5
2508.33002	1739.8
2511.06318	1723.9
2513.79462	1710.9
2516.52435	1710.6
2519.25237	1684.3
2521.97867	1679.9
2524.70327	1679.5
2527.42616	1672.2
2530.14734	1671.6
2532.86681	1659.6
2535.58458	1664.3
2538.30065	1671.3
2541.01501	1664.9
2543.72768	1664
2546.43864	1657.5
2549.14791	1647.4
2551.85548	1659
2554.56136	1655.9
2557.26554	1651.7
2559.96803	1651.9
2562.66883	1658.3
2565.36794	1652.2
2568.06536	1649.2
2570.7611	1632.4
2573.45514	1630.7
2576.14751	1633.6
2578.83819	1635.5
2581.52719	1624
2584.21451	1603.4
2586.90015	1603.6
2589.58411	1606.3
2592.2664	1606.1
2594.94701	1593.1
2597.62594	1600
2600.30321	1591.5
2602.9788	1600.5
2605.65273	1592.1
2608.32498	1585.2
2610.99557	1586.3
2613.66449	1579.7
2616.33175	1586.8
2618.99734	1587.5
2621.66128	1574.2
2624.32355	1571.8
2626.98416	1569.1
2629.64311	1571.7
2632.30041	1560.8
2634.95605	1555.4
2637.61004	1557.4
2640.26238	1549.3
2642.91306	1546.7
2645.56209	1545.6
2648.20948	1530.5
2650.85521	1526.4
2653.4993	1545.2
2656.14175	1538.7
2658.78255	1548.8
2661.42171	1544.6
2664.05923	1552.1
2666.6951	1544.1
2669.32934	1554.4
2671.96194	1552.8
2674.59291	1559.5
2677.22224	1556.3
2679.84993	1548.4
2682.476	1543.1
2685.10043	1549.7
2687.72324	1547
2690.34441	1545.2
2692.96396	1545.6
2695.58188	1539.9
2698.19818	1531.9
2700.81285	1536
2703.4259	1493.2
2706.03733	1399.3
2708.64714	1446.5
2711.25533	1497.7
2713.86191	1515.3
2716.46687	1524.1
2719.07021	1533.2
2721.67194	1546.3
2724.27206	1545.4
2726.87057	1540.8
2729.46747	1539.1
2732.06276	1549.1
2734.65644	1537.1
2737.24852	1537.7
2739.83899	1537.4
2742.42786	1539.7
2745.01513	1524.9
2747.60079	1532.3
2750.18486	1521.6
2752.76733	1531.9
2755.3482	1516.6
2757.92747	1505.5
2760.50515	1510.2
2763.08123	1509.3
2765.65573	1502.7
2768.22863	1512
2770.79994	1508.9
2773.36967	1509
2775.9378	1500.9
2778.50435	1502.8
2781.06932	1503.1
2783.6327	1510.2
2786.1945	1508.2
2788.75471	1511.4
2791.31335	1494.1
2793.87041	1504.1
2796.42589	1506.3
2798.97979	1495.6
2801.53212	1505.3
2804.08288	1494.3
2806.63206	1506.5
2809.17967	1492.7
2811.72571	1498
2814.27018	1494
2816.81308	1490.4
2819.35442	1514.9
2821.89419	1502.2
2824.43239	1505.3
2826.96904	1506
2829.50412	1509.7
2832.03763	1501.2
2834.56959	1506.6
2837.1	1516.1
2839.62884	1523.5
2842.15613	1531.7
2844.68186	1545.7
2847.20604	1571.7
2849.72867	1586.7
2852.24974	1588.5
2854.76927	1570.6
2857.28724	1558.3
2859.80367	1576.5
2862.31855	1594.2
2864.83189	1596.1
2867.34368	1601.5
2869.85393	1608.6
2872.36264	1606.8
2874.8698	1612.3
2877.37543	1617.6
2879.87952	1607.9
2882.38207	1610.8
2884.88308	1621
2887.38256	1616.4
2889.88051	1604.8
2892.37692	1619.3
2894.8718	1613.4
2897.36515	1618.3
2899.85698	1609.1
2902.34727	1618.9
2904.83604	1622.8
2907.32328	1622.5
2909.809	1619.3
2912.29319	1628.2
2914.77587	1627.3
2917.25702	1646.3
2919.73665	1630.9
2922.21476	1619.6
2924.69136	1613.2
2927.16644	1608.1
2929.64	1591.2
2932.11205	1591.3
2934.58258	1574.4
2937.05161	1567.4
2939.51912	1563.6
2941.98513	1539.1
2944.44962	1524.9
2946.91261	1512
2949.37409	1512.6
2951.83407	1490.1
2954.29254	1492.1
2956.74951	1479.9
2959.20498	1479
2961.65895	1464.6
2964.11142	1461.4
2966.56239	1454
2969.01186	1447.8
2971.45984	1436
2973.90632	1432.1
2976.35131	1419.6
2978.7948	1413
2981.23681	1405.3
2983.67732	1407.5
2986.11635	1393.1
2988.55388	1384.6
2990.98993	1387.5
2993.4245	1389.9
2995.85758	1381.7
2998.28917	1370.3
3000.71928	1360.1
3003.14791	1370.5
3005.57506	1369.6
3008.00073	1362.8
3010.42493	1370.9
3012.84764	1359.8
3015.26888	1360.6
3017.68865	1361.1
3020.10694	1360
3022.52376	1351.2
3024.9391	1345.3
3027.35298	1348.3
3029.76539	1344
3032.17632	1349.8
3034.5858	1340.1
3036.9938	1339
3039.40034	1337.9
3041.80542	1334.7
3044.20903	1336
3046.61118	1329
3049.01187	1328.7
3051.4111	1323.2
3053.80888	1329.6
3056.20519	1336.6
3058.60005	1334.4
3060.99345	1328.8
3063.3854	1329.3
3065.7759	1322.8
3068.16494	1326.4
3070.55254	1319.9
3072.93868	1319.9
3075.32338	1317.5
3077.70662	1307
3080.08842	1310.5
3082.46878	1319.2
3084.84769	1319.1
3087.22515	1319.2
3089.60118	1315.9
3091.97576	1316.2
3094.3489	1320.5
3096.72061	1322.3
3099.09087	1330.2
3101.4597	1326.7
3103.82709	1329.4
3106.19305	1334.7
3108.55757	1328.6
3110.92066	1330
3113.28232	1340.3
3115.64255	1338.7
3118.00134	1340.8
3120.35871	1335.9
3122.71466	1340.1
3125.06917	1338.6
3127.42226	1336.9
3129.77393	1343.9
3132.12417	1353
3134.47299	1347
3136.82039	1352.2
3139.16636	1351.8
3141.51092	1359.3
3143.85406	1359.7
3146.19579	1371.6
3148.53609	1382.6
3150.87499	1372
3153.21246	1375.1
3155.54853	1395.4
3157.88318	1381.3
3160.21642	1395
3162.54826	1398.6
3164.87868	1402.5
3167.2077	1404.9
3169.5353	1417.6
3171.86151	1420.3
3174.18631	1413.9
3176.5097	1410.2
3178.83169	1426.3
3181.15228	1418.7
3183.47147	1421.6
3185.78926	1429.6
3188.10565	1434.3
3190.42065	1429
3192.73424	1441.1
3195.04645	1428.2
3197.35725	1435.2
3199.66667	1445.6
3201.97469	1450
3204.28132	1451.7
3206.58656	1454.8
3208.8904	1460.7
3211.19287	1464.4
3213.49394	1467.6
3215.79363	1484.1
3218.09193	1480.5
3220.38884	1459.6
3222.68438	1435.9
3224.97853	1464.7
3227.2713	1466.7
3229.56269	1481.7
3231.8527	1485.7
3234.14133	1476.1
3236.42858	1481
3238.71446	1483.3
3240.99896	1477.6
3243.28209	1487.9
3245.56384	1475.4
3247.84423	1487.1
3250.12324	1482.9
3252.40088	1490.1
3254.67715	1487
3256.95205	1481.6
3259.22558	1482.9
3261.49775	1483.3
3263.76855	1485.4
3266.03799	1485.6
3268.30606	1476.7
3270.57277	1480.4
3272.83812	1483.7
3275.10211	1478.3
3277.36474	1487
3279.62601	1472.4
3281.88593	1466
3284.14448	1470.3
3286.40168	1477.5
3288.65753	1486.7
3290.91202	1471.2
3293.16516	1474.4
3295.41695	1471.3
3297.66738	1468.7
3299.91647	1457.9
3302.16421	1458.3
3304.4106	1442
3306.65564	1430.2
3308.89933	1418.6
3311.14169	1407.3
3313.38269	1379.6
3315.62236	1375.3
3317.86068	1379.4
3320.09766	1365.2
3322.3333	1357.5
3324.5676	1343.7
3326.80056	1280.6
3329.03219	1288.5
3331.26248	0
3333.49143	-2.1
3335.71905	0.9
