Data from AgNPs_FTO_APTES_UA_50uM_CRN_200uM_R6G_10uM_NaF_0.1M_Addition_RamanShift__22__16-20-05-091.txt Node

Date: Mon Feb 21 16:20:05 GMT 2022
User: TCL
Spectrometer: QEP01345
Trigger mode: 4
Integration Time (sec): 7.000000E0
Scans to average: 10
Electric dark correction enabled: true
Nonlinearity correction enabled: false
Boxcar width: 0
XAxis mode: Raman Shifts
Number of Pixels in Spectrum: 1044
>>>>>Begin Spectral Data<<<<<
46.04893	-0.7125
50.45542	-1.8125
54.85868	-0.2125
59.25871	-0.7125
63.6555	52.9875
68.04907	59.2875
72.43941	60.4875
76.82654	65.5875
81.21044	66.1875
85.59113	68.8875
89.96862	70.1875
94.34289	75.4875
98.71396	73.5875
103.08183	82.7875
107.4465	78.6875
111.80798	79.5875
116.16626	82.0875
120.52136	83.0875
124.87327	90.2875
129.222	88.8875
133.56755	90.8875
137.90993	103.5875
142.24913	107.9875
146.58517	120.5875
150.91804	139.7875
155.24774	161.6875
159.57429	201.8875
163.89768	248.1875
168.21792	336.9875
172.53501	456.6875
176.84895	636.1875
181.15975	886.4875
185.46741	1243.5875
189.77193	1713.3875
194.07331	2301.3875
198.37157	2970.6875
202.6667	3669.3875
206.9587	4376.5875
211.24758	5081.8875
215.53334	5774.1875
219.81599	6520.5875
224.09553	7368.0875
228.37195	8297.5875
232.64527	9335.9875
236.91549	10419.5875
241.18261	11447.4875
245.44663	12419.8875
249.70755	13239.0875
253.96539	13928.1875
258.22014	14472.8875
262.4718	14976.1875
266.72039	15335.2875
270.96589	15469.1875
275.20832	15428.8875
279.44768	15275.3875
283.68397	15011.1875
287.91719	14820.3875
292.14735	14755.0875
296.37445	14817.7875
300.59849	14981.6875
304.81948	15204.9875
309.03742	15343.2875
313.25231	15177.3875
317.46415	14829.6875
321.67296	14293.6875
325.87872	13855.6875
330.08145	13695.3875
334.28114	13731.1875
338.47781	13881.8875
342.67145	14113.2875
346.86207	14431.4875
351.04966	14886.3875
355.23424	15382.1875
359.4158	15822.3875
363.59435	16080.3875
367.76989	16259.7875
371.94243	16318.4875
376.11196	16409.9875
380.27849	16491.7875
384.44203	16497.8875
388.60257	16456.9875
392.76012	16447.3875
396.91468	16600.5875
401.06626	16839.2875
405.21485	17022.8875
409.36047	16899.6875
413.50311	16465.7875
417.64277	16061.4875
421.77947	15852.4875
425.9132	15794.5875
430.04396	15804.9875
434.17176	15950.1875
438.2966	16172.5875
442.41849	16503.2875
446.53742	16968.8875
450.6534	17443.7875
454.76644	17743.8875
458.87653	17821.3875
462.98368	17668.8875
467.08789	17440.3875
471.18916	17157.5875
475.2875	16900.2875
479.38291	16677.3875
483.4754	16474.5875
487.56496	16309.9875
491.6516	16145.9875
495.73531	16089.4875
499.81612	16076.7875
503.89401	16199.6875
507.96899	16312.2875
512.04106	16399.6875
516.11023	16491.4875
520.1765	16537.4875
524.23987	16525.6875
528.30034	16429.1875
532.35792	16379.4875
536.41261	16254.1875
540.46441	16051.5875
544.51333	15946.4875
548.55936	16006.4875
552.60252	16155.1875
556.64279	16401.5875
560.6802	16551.4875
564.71473	16663.9875
568.7464	16890.9875
572.7752	17113.5875
576.80114	17021.8875
580.82422	16903.4875
584.84444	16962.8875
588.86181	17276.4875
592.87633	17662.1875
596.888	17925.1875
600.89682	18002.4875
604.9028	18824.7875
608.90594	21326.7875
612.90624	24332.7875
616.90371	23229.1875
620.89834	18777.7875
624.89015	16833.4875
628.87913	16527.4875
632.86528	16562.9875
636.84862	16677.3875
640.82913	16497.4875
644.80683	16094.9875
648.78172	15770.4875
652.75379	15747.6875
656.72306	15984.0875
660.68952	16379.3875
664.65319	16308.7875
668.61405	15992.8875
672.57211	15946.4875
676.52738	16075.4875
680.47986	16054.5875
684.42955	15944.7875
688.37646	15796.6875
692.32058	15743.0875
696.26192	15782.9875
700.20048	15863.9875
704.13626	15921.0875
708.06928	15910.9875
711.99952	15732.0875
715.927	15709.9875
719.85171	15771.5875
723.77365	15784.4875
727.69284	15749.7875
731.60928	15691.8875
735.52295	15754.8875
739.43388	15749.4875
743.34206	15825.1875
747.24749	15859.7875
751.15017	15884.5875
755.05012	15998.2875
758.94733	16381.1875
762.8418	17262.5875
766.73354	18827.3875
770.62254	20462.4875
774.50882	21358.8875
778.39237	20633.9875
782.27321	18840.6875
786.15132	17202.1875
790.02671	16217.5875
793.89938	15723.9875
797.76935	15578.0875
801.6366	15540.4875
805.50115	15461.4875
809.36299	15381.2875
813.22213	15305.1875
817.07857	15247.8875
820.93231	15210.8875
824.78336	15196.7875
828.63172	15184.1875
832.47738	15203.8875
836.32036	15196.0875
840.16066	15212.9875
843.99827	15270.6875
847.8332	15229.9875
851.66546	15199.4875
855.49504	15218.7875
859.32195	15244.7875
863.1462	15264.5875
866.96777	15265.1875
870.78668	15231.8875
874.60293	15240.2875
878.41652	15267.5875
882.22745	15266.6875
886.03573	15306.8875
889.84136	15306.4875
893.64433	15220.7875
897.44466	15122.2875
901.24235	15062.7875
905.0374	14990.0875
908.8298	14874.7875
912.61957	14857.3875
916.40671	14926.6875
920.19121	15037.0875
923.97308	15181.6875
927.75233	15272.5875
931.52895	15313.9875
935.30295	15227.6875
939.07433	15015.7875
942.84309	14792.8875
946.60924	14652.4875
950.37278	14581.7875
954.13371	14505.8875
957.89203	14452.5875
961.64774	14357.8875
965.40086	14336.5875
969.15137	14240.6875
972.89929	14203.4875
976.64461	14209.0875
980.38733	14171.2875
984.12747	14240.8875
987.86502	14357.5875
991.59999	14464.3875
995.33237	14682.7875
999.06217	15002.1875
1002.78939	15360.3875
1006.51404	15636.8875
1010.23611	15762.2875
1013.95561	15852.4875
1017.67255	15923.3875
1021.38692	15780.7875
1025.09872	15630.6875
1028.80796	15596.1875
1032.51465	15884.3875
1036.21877	16131.0875
1039.92035	16205.8875
1043.61937	16096.6875
1047.31584	15833.7875
1051.00976	15576.9875
1054.70114	15392.1875
1058.38998	15363.4875
1062.07627	15384.7875
1065.76003	15360.1875
1069.44126	15375.4875
1073.11995	15439.9875
1076.79611	15502.7875
1080.46974	15653.8875
1084.14085	15829.4875
1087.80943	16027.9875
1091.47549	16139.7875
1095.13903	16035.2875
1098.80005	15783.6875
1102.45857	15571.2875
1106.11456	15510.9875
1109.76805	15579.2875
1113.41903	15757.3875
1117.06751	16053.1875
1120.71348	16408.0875
1124.35696	16762.6875
1127.99793	17087.4875
1131.63641	17164.9875
1135.2724	16789.3875
1138.90589	16455.2875
1142.5369	16185.7875
1146.16542	15973.4875
1149.79145	15838.4875
1153.415	15801.4875
1157.03607	15862.1875
1160.65467	16135.6875
1164.27079	16588.9875
1167.88443	17277.4875
1171.49561	18184.6875
1175.10432	19486.9875
1178.71056	21278.5875
1182.31434	22880.2875
1185.91565	23591.8875
1189.51451	23273.8875
1193.11091	22221.2875
1196.70485	21123.1875
1200.29634	20152.4875
1203.88538	19419.2875
1207.47197	18684.7875
1211.05612	18073.3875
1214.63782	17701.2875
1218.21708	17587.0875
1221.79391	17639.9875
1225.36829	17659.6875
1228.94024	17556.9875
1232.50976	17317.4875
1236.07685	17098.5875
1239.6415	17060.3875
1243.20374	17030.9875
1246.76355	17123.2875
1250.32093	17332.5875
1253.8759	17597.2875
1257.42845	18049.7875
1260.97859	18400.7875
1264.52631	18756.1875
1268.07163	19186.8875
1271.61453	19657.1875
1275.15503	20113.7875
1278.69312	20548.9875
1282.22882	20925.3875
1285.76211	21236.6875
1289.29301	21652.2875
1292.82151	22217.9875
1296.34761	22999.6875
1299.87133	24072.1875
1303.39266	25635.3875
1306.9116	27660.5875
1310.42815	29827.4875
1313.94233	30952.3875
1317.45412	30405.2875
1320.96354	28961.6875
1324.47058	27395.0875
1327.97525	25994.7875
1331.47754	25130.8875
1334.97747	24816.5875
1338.47502	24897.8875
1341.97022	25324.5875
1345.46305	25781.9875
1348.95352	26550.0875
1352.44163	27494.5875
1355.92738	29151.2875
1359.41078	31597.3875
1362.89183	33778.8875
1366.37053	32932.7875
1369.84688	29006.5875
1373.32088	24946.8875
1376.79254	22393.4875
1380.26186	21159.1875
1383.72883	20603.3875
1387.19347	20215.4875
1390.65578	19807.3875
1394.11575	19593.2875
1397.57339	19611.3875
1401.0287	19894.9875
1404.48168	20195.1875
1407.93234	20394.8875
1411.38068	20502.5875
1414.82669	20396.1875
1418.27039	20084.7875
1421.71177	19613.8875
1425.15083	19111.9875
1428.58758	18834.1875
1432.02203	18850.0875
1435.45416	19124.4875
1438.88399	19356.9875
1442.31151	19521.6875
1445.73673	19722.2875
1449.15965	19876.5875
1452.58027	19922.0875
1455.9986	19907.4875
1459.41463	19921.1875
1462.82837	20153.5875
1466.23982	20483.7875
1469.64898	20911.3875
1473.05586	21237.4875
1476.46045	21319.5875
1479.86276	21434.5875
1483.26279	21484.2875
1486.66054	21591.6875
1490.05602	21765.5875
1493.44922	22122.6875
1496.84016	22645.7875
1500.22882	23605.5875
1503.61521	25098.4875
1506.99934	27045.8875
1510.38121	28690.2875
1513.76081	29024.3875
1517.13816	27646.7875
1520.51324	25312.1875
1523.88607	23200.7875
1527.25665	21878.6875
1530.62498	21172.4875
1533.99105	20765.2875
1537.35488	20506.2875
1540.71647	20357.9875
1544.07581	20197.3875
1547.4329	20060.0875
1550.78776	19985.1875
1554.14038	19968.5875
1557.49077	20006.3875
1560.83892	20147.5875
1564.18484	20300.1875
1567.52853	20506.7875
1570.86999	20729.3875
1574.20922	20900.4875
1577.54624	20866.0875
1580.88103	20332.9875
1584.2136	19831.3875
1587.54395	19698.0875
1590.87208	20153.1875
1594.19801	21298.8875
1597.52172	22676.5875
1600.84321	23422.6875
1604.16251	22942.7875
1607.47959	21612.2875
1610.79447	20084.6875
1614.10715	18625.2875
1617.41763	17456.5875
1620.7259	16724.6875
1624.03199	16353.2875
1627.33587	16269.8875
1630.63757	16622.0875
1633.93707	17358.5875
1637.23439	18531.0875
1640.52951	20153.5875
1643.82246	22194.3875
1647.11321	24121.5875
1650.40179	24953.9875
1653.68819	23784.1875
1656.97241	21081.5875
1660.25446	18335.9875
1663.53433	16421.5875
1666.81203	15253.5875
1670.08756	14558.1875
1673.36092	14120.2875
1676.63211	13854.7875
1679.90115	13654.5875
1683.16801	13479.4875
1686.43272	13380.1875
1689.69527	13256.2875
1692.95567	13117.7875
1696.2139	12981.9875
1699.46999	12870.3875
1702.72392	12787.6875
1705.97571	12866.8875
1709.22535	12927.4875
1712.47284	12967.9875
1715.71819	12962.6875
1718.96139	12965.9875
1722.20246	12926.0875
1725.44139	12914.0875
1728.67818	12821.7875
1731.91284	12753.9875
1735.14537	12686.5875
1738.37576	12608.1875
1741.60403	12623.7875
1744.83017	12578.0875
1748.05418	12527.7875
1751.27607	12518.8875
1754.49584	12465.0875
1757.71349	12401.9875
1760.92903	12356.5875
1764.14244	12287.9875
1767.35375	12306.6875
1770.56294	12251.0875
1773.77002	12236.3875
1776.97499	12268.7875
1780.17785	12282.5875
1783.37861	12292.9875
1786.57727	12272.1875
1789.77382	12282.3875
1792.96828	12261.1875
1796.16064	12243.3875
1799.3509	12219.8875
1802.53907	12224.9875
1805.72514	12205.0875
1808.90913	12145.7875
1812.09102	12124.2875
1815.27083	12093.3875
1818.44856	12073.6875
1821.6242	12034.6875
1824.79776	12024.7875
1827.96924	12046.9875
1831.13864	12007.3875
1834.30597	11992.3875
1837.47122	12001.2875
1840.6344	11983.7875
1843.7955	11975.1875
1846.95454	11965.3875
1850.11151	11960.8875
1853.26642	11962.7875
1856.41926	11949.8875
1859.57004	11957.1875
1862.71876	11932.5875
1865.86542	11943.7875
1869.01003	11983.8875
1872.15258	11920.3875
1875.29308	11951.9875
1878.43152	11935.3875
1881.56792	11914.3875
1884.70227	11915.4875
1887.83457	11912.8875
1890.96482	11884.0875
1894.09304	11870.9875
1897.21921	11872.0875
1900.34335	11850.1875
1903.46544	11868.7875
1906.58551	11861.8875
1909.70353	11833.5875
1912.81953	11822.2875
1915.93349	11810.0875
1919.04543	11794.9875
1922.15534	11744.1875
1925.26322	11747.1875
1928.36908	11702.5875
1931.47292	11675.2875
1934.57473	11672.7875
1937.67453	11638.1875
1940.77232	11632.3875
1943.86808	11564.1875
1946.96184	11551.0875
1950.05358	11515.2875
1953.14331	11489.2875
1956.23103	11443.2875
1959.31675	11400.3875
1962.40046	11352.9875
1965.48217	11326.7875
1968.56188	11316.4875
1971.63959	11286.2875
1974.7153	11274.4875
1977.78901	11238.9875
1980.86073	11178.7875
1983.93046	11154.3875
1986.99819	11128.3875
1990.06394	11074.6875
1993.1277	11063.0875
1996.18947	11012.4875
1999.24925	10986.6875
2002.30706	10944.8875
2005.36288	10953.9875
2008.41672	10908.8875
2011.46859	10905.3875
2014.51848	10841.7875
2017.56639	10812.5875
2020.61233	10797.7875
2023.6563	10776.8875
2026.6983	10737.7875
2029.73833	10745.0875
2032.7764	10693.6875
2035.8125	10683.8875
2038.84664	10669.5875
2041.87881	10639.9875
2044.90903	10593.0875
2047.93729	10597.5875
2050.96359	10594.4875
2053.98794	10583.6875
2057.01034	10564.0875
2060.03078	10565.9875
2063.04927	10575.7875
2066.06582	10545.0875
2069.08042	10540.7875
2072.09307	10508.0875
2075.10378	10514.9875
2078.11255	10524.6875
2081.11938	10508.8875
2084.12426	10495.0875
2087.12722	10476.5875
2090.12824	10477.8875
2093.12732	10488.9875
2096.12447	10481.4875
2099.11969	10499.6875
2102.11299	10467.0875
2105.10435	10494.2875
2108.09379	10494.0875
2111.08131	10497.2875
2114.0669	10534.1875
2117.05057	10539.1875
2120.03233	10531.6875
2123.01216	10522.5875
2125.99008	10548.0875
2128.96609	10557.7875
2131.94018	10560.1875
2134.91236	10578.5875
2137.88263	10558.2875
2140.851	10552.3875
2143.81746	10567.9875
2146.78201	10580.5875
2149.74466	10603.4875
2152.7054	10581.1875
2155.66425	10569.2875
2158.6212	10583.4875
2161.57625	10578.4875
2164.52941	10584.0875
2167.48067	10554.6875
2170.43004	10554.0875
2173.37752	10555.7875
2176.32311	10562.5875
2179.26681	10551.1875
2182.20863	10569.0875
2185.14856	10577.7875
2188.08661	10565.2875
2191.02278	10585.7875
2193.95707	10563.4875
2196.88948	10581.8875
2199.82001	10543.0875
2202.74867	10536.3875
2205.67545	10559.0875
2208.60037	10523.5875
2211.52341	10520.5875
2214.44458	10487.5875
2217.36388	10497.9875
2220.28132	10471.2875
2223.1969	10441.4875
2226.11061	10414.3875
2229.02246	10376.1875
2231.93245	10396.3875
2234.84058	10379.8875
2237.74686	10355.7875
2240.65128	10350.4875
2243.55385	10325.8875
2246.45456	10322.2875
2249.35343	10322.6875
2252.25044	10294.7875
2255.14561	10295.3875
2258.03893	10267.0875
2260.93041	10227.0875
2263.82004	10203.9875
2266.70783	10227.1875
2269.59378	10187.8875
2272.4779	10165.6875
2275.36017	10134.6875
2278.24061	10130.6875
2281.11922	10121.4875
2283.996	10059.5875
2286.87094	10081.6875
2289.74405	10051.5875
2292.61534	10027.2875
2295.4848	10038.6875
2298.35243	10048.2875
2301.21824	10040.4875
2304.08223	10043.8875
2306.94439	10043.9875
2309.80474	10012.3875
2312.66327	10037.5875
2315.51999	10016.4875
2318.37489	10008.5875
2321.22797	10002.4875
2324.07925	9996.0875
2326.92871	9971.0875
2329.77637	9960.4875
2332.62222	9949.2875
2335.46626	9955.7875
2338.3085	9937.1875
2341.14893	9922.4875
2343.98756	9935.3875
2346.8244	9961.8875
2349.65943	9959.9875
2352.49267	9941.4875
2355.32411	9978.7875
2358.15376	9977.4875
2360.98161	9938.7875
2363.80768	9932.9875
2366.63195	9940.2875
2369.45444	9943.2875
2372.27514	9907.4875
2375.09405	9885.4875
2377.91118	9864.8875
2380.72652	9818.4875
2383.54009	9795.0875
2386.35187	9781.7875
2389.16188	9760.5875
2391.97011	9735.9875
2394.77657	9722.8875
2397.58125	9700.0875
2400.38416	9704.5875
2403.18529	9679.3875
2405.98466	9683.3875
2408.78226	9657.4875
2411.57809	9642.0875
2414.37216	9608.1875
2417.16446	9604.4875
2419.955	9609.4875
2422.74378	9594.0875
2425.5308	9595.2875
2428.31606	9546.9875
2431.09956	9579.0875
2433.88131	9566.4875
2436.6613	9585.7875
2439.43954	9552.6875
2442.21603	9537.9875
2444.99077	9510.7875
2447.76377	9514.3875
2450.53501	9539.8875
2453.30451	9525.3875
2456.07226	9529.3875
2458.83827	9511.9875
2461.60254	9551.2875
2464.36507	9520.4875
2467.12586	9499.0875
2469.88492	9500.1875
2472.64224	9532.1875
2475.39782	9505.3875
2478.15167	9480.8875
2480.90379	9492.4875
2483.65417	9533.8875
2486.40283	9550.6875
2489.14976	9550.7875
2491.89497	9544.2875
2494.63845	9537.1875
2497.3802	9524.2875
2500.12024	9530.2875
2502.85855	9511.2875
2505.59514	9500.4875
2508.33002	9466.0875
2511.06318	9443.5875
2513.79462	9442.4875
2516.52435	9425.2875
2519.25237	9397.5875
2521.97867	9404.9875
2524.70327	9392.1875
2527.42616	9382.0875
2530.14734	9376.0875
2532.86681	9361.3875
2535.58458	9355.7875
2538.30065	9325.5875
2541.01501	9366.8875
2543.72768	9325.7875
2546.43864	9324.4875
2549.14791	9312.1875
2551.85548	9303.8875
2554.56136	9265.7875
2557.26554	9272.5875
2559.96803	9261.9875
2562.66883	9251.5875
2565.36794	9267.7875
2568.06536	9254.5875
2570.7611	9249.2875
2573.45514	9210.8875
2576.14751	9205.3875
2578.83819	9197.7875
2581.52719	9193.0875
2584.21451	9175.3875
2586.90015	9179.9875
2589.58411	9163.3875
2592.2664	9178.0875
2594.94701	9168.1875
2597.62594	9159.6875
2600.30321	9143.5875
2602.9788	9125.2875
2605.65273	9102.8875
2608.32498	9114.7875
2610.99557	9104.0875
2613.66449	9127.0875
2616.33175	9101.9875
2618.99734	9122.4875
2621.66128	9098.4875
2624.32355	9068.5875
2626.98416	9079.3875
2629.64311	9078.8875
2632.30041	9084.5875
2634.95605	9075.9875
2637.61004	9054.0875
2640.26238	9067.4875
2642.91306	9037.0875
2645.56209	9034.8875
2648.20948	9025.1875
2650.85521	9021.6875
2653.4993	9020.9875
2656.14175	9027.0875
2658.78255	9042.4875
2661.42171	9044.3875
2664.05923	9029.8875
2666.6951	9045.3875
2669.32934	9044.9875
2671.96194	9029.1875
2674.59291	9056.8875
2677.22224	9041.0875
2679.84993	9046.7875
2682.476	9026.3875
2685.10043	9020.2875
2687.72324	9013.8875
2690.34441	9022.3875
2692.96396	9010.6875
2695.58188	9028.2875
2698.19818	9007.4875
2700.81285	9014.8875
2703.4259	8985.8875
2706.03733	8944.8875
2708.64714	8953.2875
2711.25533	8994.8875
2713.86191	9014.3875
2716.46687	9017.6875
2719.07021	9022.2875
2721.67194	9035.2875
2724.27206	9017.7875
2726.87057	9029.7875
2729.46747	9042.3875
2732.06276	9050.8875
2734.65644	9054.7875
2737.24852	9038.1875
2739.83899	9047.6875
2742.42786	9028.3875
2745.01513	8991.5875
2747.60079	9001.8875
2750.18486	8964.2875
2752.76733	8992.4875
2755.3482	8967.0875
2757.92747	8956.1875
2760.50515	8965.5875
2763.08123	8955.2875
2765.65573	8963.8875
2768.22863	8953.2875
2770.79994	8932.9875
2773.36967	8908.7875
2775.9378	8929.2875
2778.50435	8915.7875
2781.06932	8914.6875
2783.6327	8902.8875
2786.1945	8917.0875
2788.75471	8922.1875
2791.31335	8900.1875
2793.87041	8886.5875
2796.42589	8867.7875
2798.97979	8852.9875
2801.53212	8820.1875
2804.08288	8838.5875
2806.63206	8822.8875
2809.17967	8807.9875
2811.72571	8796.1875
2814.27018	8788.7875
2816.81308	8762.3875
2819.35442	8769.8875
2821.89419	8770.2875
2824.43239	8746.8875
2826.96904	8747.8875
2829.50412	8756.4875
2832.03763	8745.7875
2834.56959	8760.6875
2837.1	8719.2875
2839.62884	8733.7875
2842.15613	8729.9875
2844.68186	8747.9875
2847.20604	8735.8875
2849.72867	8746.7875
2852.24974	8731.5875
2854.76927	8685.3875
2857.28724	8683.9875
2859.80367	8664.7875
2862.31855	8702.2875
2864.83189	8677.9875
2867.34368	8665.4875
2869.85393	8689.4875
2872.36264	8709.4875
2874.8698	8693.6875
2877.37543	8678.5875
2879.87952	8677.2875
2882.38207	8667.6875
2884.88308	8695.7875
2887.38256	8694.1875
2889.88051	8695.8875
2892.37692	8721.5875
2894.8718	8709.9875
2897.36515	8717.6875
2899.85698	8736.2875
2902.34727	8725.7875
2904.83604	8741.7875
2907.32328	8772.8875
2909.809	8755.8875
2912.29319	8778.3875
2914.77587	8784.2875
2917.25702	8769.1875
2919.73665	8787.4875
2922.21476	8797.4875
2924.69136	8803.4875
2927.16644	8765.3875
2929.64	8760.8875
2932.11205	8764.8875
2934.58258	8704.5875
2937.05161	8706.3875
2939.51912	8712.3875
2941.98513	8690.8875
2944.44962	8707.4875
2946.91261	8663.9875
2949.37409	8682.8875
2951.83407	8668.6875
2954.29254	8673.7875
2956.74951	8664.5875
2959.20498	8639.5875
2961.65895	8612.4875
2964.11142	8594.6875
2966.56239	8582.9875
2969.01186	8571.0875
2971.45984	8574.2875
2973.90632	8551.3875
2976.35131	8514.0875
2978.7948	8511.1875
2981.23681	8479.0875
2983.67732	8457.4875
2986.11635	8467.9875
2988.55388	8430.3875
2990.98993	8421.3875
2993.4245	8426.4875
2995.85758	8406.4875
2998.28917	8380.0875
3000.71928	8377.9875
3003.14791	8358.7875
3005.57506	8344.2875
3008.00073	8316.8875
3010.42493	8323.5875
3012.84764	8298.8875
3015.26888	8315.1875
3017.68865	8291.1875
3020.10694	8297.2875
3022.52376	8278.1875
3024.9391	8244.7875
3027.35298	8246.9875
3029.76539	8226.2875
3032.17632	8217.8875
3034.5858	8191.9875
3036.9938	8172.0875
3039.40034	8160.2875
3041.80542	8154.7875
3044.20903	8159.3875
3046.61118	8175.8875
3049.01187	8162.0875
3051.4111	8142.6875
3053.80888	8117.4875
3056.20519	8102.0875
3058.60005	8082.0875
3060.99345	8076.6875
3063.3854	8054.5875
3065.7759	8050.5875
3068.16494	8028.7875
3070.55254	8000.6875
3072.93868	7986.5875
3075.32338	7961.9875
3077.70662	7970.2875
3080.08842	7947.2875
3082.46878	7923.9875
3084.84769	7924.1875
3087.22515	7928.3875
3089.60118	7918.2875
3091.97576	7918.4875
3094.3489	7928.9875
3096.72061	7925.0875
3099.09087	7915.9875
3101.4597	7915.4875
3103.82709	7920.6875
3106.19305	7902.3875
3108.55757	7913.2875
3110.92066	7882.3875
3113.28232	7870.2875
3115.64255	7885.0875
3118.00134	7849.2875
3120.35871	7846.0875
3122.71466	7832.5875
3125.06917	7808.8875
3127.42226	7802.8875
3129.77393	7825.0875
3132.12417	7810.0875
3134.47299	7809.2875
3136.82039	7788.6875
3139.16636	7782.8875
3141.51092	7782.8875
3143.85406	7793.8875
3146.19579	7805.4875
3148.53609	7801.7875
3150.87499	7793.5875
3153.21246	7807.5875
3155.54853	7810.1875
3157.88318	7809.3875
3160.21642	7817.8875
3162.54826	7821.7875
3164.87868	7846.7875
3167.2077	7817.5875
3169.5353	7832.7875
3171.86151	7834.2875
3174.18631	7806.5875
3176.5097	7802.5875
3178.83169	7810.3875
3181.15228	7814.8875
3183.47147	7799.1875
3185.78926	7787.7875
3188.10565	7793.1875
3190.42065	7776.9875
3192.73424	7780.3875
3195.04645	7777.1875
3197.35725	7782.6875
3199.66667	7830.4875
3201.97469	7833.6875
3204.28132	7817.2875
3206.58656	7825.0875
3208.8904	7812.0875
3211.19287	7836.4875
3213.49394	7806.4875
3215.79363	7824.4875
3218.09193	7796.7875
3220.38884	7809.7875
3222.68438	7814.9875
3224.97853	7816.3875
3227.2713	7821.9875
3229.56269	7817.5875
3231.8527	7829.8875
3234.14133	7796.9875
3236.42858	7798.0875
3238.71446	7786.0875
3240.99896	7765.4875
3243.28209	7735.7875
3245.56384	7725.6875
3247.84423	7757.5875
3250.12324	7735.6875
3252.40088	7713.3875
3254.67715	7729.3875
3256.95205	7727.1875
3259.22558	7735.0875
3261.49775	7713.2875
3263.76855	7700.5875
3266.03799	7702.0875
3268.30606	7699.4875
3270.57277	7690.0875
3272.83812	7677.3875
3275.10211	7673.8875
3277.36474	7642.6875
3279.62601	7641.7875
3281.88593	7620.3875
3284.14448	7644.4875
3286.40168	7636.1875
3288.65753	7647.9875
3290.91202	7649.6875
3293.16516	7649.8875
3295.41695	7603.0875
3297.66738	7568.2875
3299.91647	7553.8875
3302.16421	7513.7875
3304.4106	7489.9875
3306.65564	7439.6875
3308.89933	7419.4875
3311.14169	7350.0875
3313.38269	7279.9875
3315.62236	7245.4875
3317.86068	7190.1875
3320.09766	7097.9875
3322.3333	7089.0875
3324.5676	7056.3875
3326.80056	6943.7875
3329.03219	6908.5875
3331.26248	2.4875
3333.49143	0.1875
3335.71905	0.7875
