Data from AgNPs_FTO_APTES_UA_50uM_CRN_500uM_R6G_10uM_NaF_0.1M_Addition_RamanShift__29__17-15-43-557.txt Node

Date: Mon Feb 21 17:15:43 GMT 2022
User: TCL
Spectrometer: QEP01345
Trigger mode: 4
Integration Time (sec): 7.000000E0
Scans to average: 10
Electric dark correction enabled: true
Nonlinearity correction enabled: false
Boxcar width: 0
XAxis mode: Raman Shifts
Number of Pixels in Spectrum: 1044
>>>>>Begin Spectral Data<<<<<
46.04893	-0.6
50.45542	-0.6
54.85868	0.9
59.25871	-2.9
63.6555	56.8
68.04907	61.5
72.43941	68.4
76.82654	68.4
81.21044	73.1
85.59113	73.9
89.96862	78.2
94.34289	76.4
98.71396	82
103.08183	84.4
107.4465	88.2
111.80798	93
116.16626	91.4
120.52136	93.7
124.87327	95.2
129.222	98.7
133.56755	107.8
137.90993	109.6
142.24913	114.7
146.58517	133
150.91804	147.9
155.24774	179.8
159.57429	219.6
163.89768	278.7
168.21792	371.1
172.53501	511.6
176.84895	709.8
181.15975	988.6
185.46741	1390.2
189.77193	1930.2
194.07331	2570.9
198.37157	3339
202.6667	4133.3
206.9587	4955.3
211.24758	5776.8
215.53334	6634.8
219.81599	7598.7
224.09553	8737.7
228.37195	9960.3
232.64527	11295.1
236.91549	12626.2
241.18261	13810.6
245.44663	14780
249.70755	15592.5
253.96539	16313.2
258.22014	16912.3
262.4718	17335.8
266.72039	17539
270.96589	17502.2
275.20832	17167.9
279.44768	16725.9
283.68397	16215.9
287.91719	15927.6
292.14735	15966.9
296.37445	16454.1
300.59849	17373.8
304.81948	18461.3
309.03742	19262.9
313.25231	19304.2
317.46415	18263.6
321.67296	16592.1
325.87872	15188.9
330.08145	14577.2
334.28114	14569.7
338.47781	14861.3
342.67145	15372.2
346.86207	16208.4
351.04966	17440.6
355.23424	18853.9
359.4158	19872.5
363.59435	20303.9
367.76989	20365.9
371.94243	20208.5
376.11196	20030.4
380.27849	19861.7
384.44203	19461.4
388.60257	19053.7
392.76012	18833.4
396.91468	18879
401.06626	19351.9
405.21485	19637
409.36047	19123.5
413.50311	17827.7
417.64277	16547.7
421.77947	15810.1
425.9132	15447.9
430.04396	15372.6
434.17176	15472.7
438.2966	15744.1
442.41849	16217.7
446.53742	16728
450.6534	17262.5
454.76644	17540.5
458.87653	17471.9
462.98368	17221
467.08789	16847.3
471.18916	16443.4
475.2875	15984.9
479.38291	15561.8
483.4754	15252.2
487.56496	15024.9
491.6516	14873.5
495.73531	14786.1
499.81612	14780.4
503.89401	14998.7
507.96899	15307.7
512.04106	15677.9
516.11023	16090.1
520.1765	16426.9
524.23987	16396.3
528.30034	16111.2
532.35792	15792.3
536.41261	15421.1
540.46441	14999.7
544.51333	14771.3
548.55936	14840.4
552.60252	15146.9
556.64279	15614.4
560.6802	15883.6
564.71473	16298.5
568.7464	17178.7
572.7752	17555.7
576.80114	16625.3
580.82422	15650.3
584.84444	15227.7
588.86181	15316.8
592.87633	15643.2
596.888	15963.9
600.89682	16510.6
604.9028	18859.1
608.90594	25755
612.90624	34855.3
616.90371	33310.2
620.89834	21949.6
624.89015	16560.9
628.87913	15556.8
632.86528	15811.5
636.84862	16172.4
640.82913	15835.9
644.80683	14849.9
648.78172	14219.7
652.75379	14176.1
656.72306	14906.2
660.68952	15805.7
664.65319	15577.3
668.61405	14535.7
672.57211	14054.5
676.52738	14061.3
680.47986	14077.6
684.42955	13934.9
688.37646	13772.2
692.32058	13773
696.26192	13915
700.20048	14127.3
704.13626	14258.6
708.06928	14127.4
711.99952	13941.8
715.927	13959.1
719.85171	14045.8
723.77365	14182.7
727.69284	14069.1
731.60928	13957.3
735.52295	13927
739.43388	13975.1
743.34206	14032.4
747.24749	14023.7
751.15017	14062.1
755.05012	14325.5
758.94733	15195.8
762.8418	17393.2
766.73354	21115.7
770.62254	24964.3
774.50882	27110.9
778.39237	25993.9
782.27321	21776
786.15132	17692.2
790.02671	15350
793.89938	14398.2
797.76935	13980.3
801.6366	13821.3
805.50115	13752.2
809.36299	13699.9
813.22213	13694.4
817.07857	13654.9
820.93231	13573.3
824.78336	13591.5
828.63172	13669.7
832.47738	13676.2
836.32036	13603
840.16066	13471.2
843.99827	13412.3
847.8332	13363.4
851.66546	13342.3
855.49504	13354.3
859.32195	13334.1
863.1462	13306.9
866.96777	13274.2
870.78668	13250.6
874.60293	13244
878.41652	13320.7
882.22745	13460.2
886.03573	13534
889.84136	13491
893.64433	13378
897.44466	13358.3
901.24235	13355.5
905.0374	13260.8
908.8298	13095.7
912.61957	12963.4
916.40671	13005.4
920.19121	13047.2
923.97308	13194.4
927.75233	13454.2
931.52895	13772
935.30295	13660.6
939.07433	13171.1
942.84309	12713.7
946.60924	12439.2
950.37278	12306.6
954.13371	12261.6
957.89203	12203.6
961.64774	12152.5
965.40086	12084
969.15137	12057.3
972.89929	12030.7
976.64461	11984.5
980.38733	11979.7
984.12747	12005.5
987.86502	12068.6
991.59999	12168.2
995.33237	12325.4
999.06217	12640.2
1002.78939	13004.5
1006.51404	13332.5
1010.23611	13637.2
1013.95561	13788.6
1017.67255	13763.3
1021.38692	13557.7
1025.09872	13271.9
1028.80796	13194.5
1032.51465	13270.4
1036.21877	13462.7
1039.92035	13549.9
1043.61937	13528.3
1047.31584	13458.3
1051.00976	13309.4
1054.70114	13187.2
1058.38998	13103.9
1062.07627	13116.6
1065.76003	13119.9
1069.44126	13151.2
1073.11995	13241.4
1076.79611	13465.2
1080.46974	13861.6
1084.14085	14438.5
1087.80943	15000.2
1091.47549	15199.6
1095.13903	14835.1
1098.80005	14193.7
1102.45857	13749.2
1106.11456	13646.3
1109.76805	13925.3
1113.41903	14511.5
1117.06751	15394
1120.71348	16480.2
1124.35696	17605.3
1127.99793	18380.1
1131.63641	17913.3
1135.2724	16580.9
1138.90589	15464
1142.5369	14817
1146.16542	14342.7
1149.79145	14044.6
1153.415	13953.9
1157.03607	14044.1
1160.65467	14341.5
1164.27079	14922.2
1167.88443	15882.9
1171.49561	17360.9
1175.10432	19864.1
1178.71056	23423.4
1182.31434	26226.1
1185.91565	26821.9
1189.51451	25521.6
1193.11091	23292.9
1196.70485	21075.6
1200.29634	19693.2
1203.88538	18681.7
1207.47197	17343.1
1211.05612	16163.2
1214.63782	15461.4
1218.21708	15222.7
1221.79391	15174.8
1225.36829	15125.3
1228.94024	15014.8
1232.50976	14844.8
1236.07685	14772.7
1239.6415	14843.3
1243.20374	14955.9
1246.76355	15136
1250.32093	15375.1
1253.8759	15782.6
1257.42845	16321.6
1260.97859	16946.3
1264.52631	17557
1268.07163	18221.2
1271.61453	18729.9
1275.15503	19068.2
1278.69312	19161.2
1282.22882	19294.5
1285.76211	19822.5
1289.29301	20656
1292.82151	21564.8
1296.34761	22603
1299.87133	24282.1
1303.39266	27184.1
1306.9116	31603.8
1310.42815	36148.7
1313.94233	37703.7
1317.45412	35243.2
1320.96354	31108.9
1324.47058	27257
1327.97525	24322
1331.47754	22625.6
1334.97747	22107.4
1338.47502	22548.4
1341.97022	23758.1
1345.46305	25612.6
1348.95352	28095.2
1352.44163	31223.5
1355.92738	35892.9
1359.41078	43021.7
1362.89183	48803.3
1366.37053	45643.7
1369.84688	36429.3
1373.32088	28554.2
1376.79254	23952.2
1380.26186	21466.2
1383.72883	20114.4
1387.19347	19152.2
1390.65578	18233.5
1394.11575	17571.9
1397.57339	17276.5
1401.0287	17301.9
1404.48168	17511.4
1407.93234	17689.4
1411.38068	17901.9
1414.82669	18078.2
1418.27039	17963
1421.71177	17649
1425.15083	17212.4
1428.58758	17042
1432.02203	17262.1
1435.45416	17496.5
1438.88399	17520.4
1442.31151	17545.9
1445.73673	17651.1
1449.15965	17843.3
1452.58027	17761.9
1455.9986	17574.5
1459.41463	17455.1
1462.82837	17697.3
1466.23982	18185.6
1469.64898	18687.1
1473.05586	18969
1476.46045	19125
1479.86276	19402.4
1483.26279	19861.8
1486.66054	20451.9
1490.05602	21360.7
1493.44922	22684.8
1496.84016	24848.6
1500.22882	28384.8
1503.61521	33714.3
1506.99934	40040.1
1510.38121	45133.3
1513.76081	45863.3
1517.13816	41307.9
1520.51324	33998.5
1523.88607	27651
1527.25665	23691.7
1530.62498	21559.8
1533.99105	20373
1537.35488	19651.2
1540.71647	19326.3
1544.07581	19259.7
1547.4329	19395.9
1550.78776	19549.7
1554.14038	19734.6
1557.49077	20090.9
1560.83892	20535.4
1564.18484	21426.9
1567.52853	22398.5
1570.86999	23183.4
1574.20922	23491.3
1577.54624	23210.5
1580.88103	21605.5
1584.2136	19575.6
1587.54395	18402.3
1590.87208	18482.5
1594.19801	19716.7
1597.52172	21430.7
1600.84321	22336.1
1604.16251	21639.8
1607.47959	20155.4
1610.79447	18490.2
1614.10715	16839.5
1617.41763	15549.6
1620.7259	14760.1
1624.03199	14435.3
1627.33587	14499.1
1630.63757	14957.2
1633.93707	15887
1637.23439	17404
1640.52951	19850.7
1643.82246	23541.3
1647.11321	28002.5
1650.40179	30821.3
1653.68819	29378.1
1656.97241	24403
1660.25446	19380.8
1663.53433	16116.7
1666.81203	14279.2
1670.08756	13193
1673.36092	12555.4
1676.63211	12148
1679.90115	11881.4
1683.16801	11655.6
1686.43272	11463.7
1689.69527	11315.7
1692.95567	11227
1696.2139	11151.2
1699.46999	11110.4
1702.72392	11058
1705.97571	11052.6
1709.22535	11041.3
1712.47284	11020.5
1715.71819	11003.5
1718.96139	10974.6
1722.20246	10941.8
1725.44139	10874.6
1728.67818	10774.6
1731.91284	10670.4
1735.14537	10585.5
1738.37576	10552.6
1741.60403	10467.7
1744.83017	10451.2
1748.05418	10418.3
1751.27607	10378.7
1754.49584	10336.6
1757.71349	10326
1760.92903	10282.9
1764.14244	10257.1
1767.35375	10196.5
1770.56294	10159.3
1773.77002	10160.8
1776.97499	10085.3
1780.17785	10054.3
1783.37861	10047.7
1786.57727	10019.8
1789.77382	9967.6
1792.96828	9947.2
1796.16064	9905.9
1799.3509	9929.5
1802.53907	9885.6
1805.72514	9847.1
1808.90913	9819.1
1812.09102	9793.5
1815.27083	9746.1
1818.44856	9733.5
1821.6242	9697.3
1824.79776	9690.9
1827.96924	9655.3
1831.13864	9675.2
1834.30597	9644.5
1837.47122	9621.3
1840.6344	9593.2
1843.7955	9602
1846.95454	9592.6
1850.11151	9557.9
1853.26642	9559
1856.41926	9531.2
1859.57004	9548.3
1862.71876	9545.8
1865.86542	9525.3
1869.01003	9537.5
1872.15258	9539.1
1875.29308	9554.2
1878.43152	9531.1
1881.56792	9532.7
1884.70227	9519.9
1887.83457	9524.5
1890.96482	9516.1
1894.09304	9475.2
1897.21921	9498
1900.34335	9490.4
1903.46544	9497.2
1906.58551	9481.6
1909.70353	9495.4
1912.81953	9470.4
1915.93349	9430.9
1919.04543	9409.1
1922.15534	9399.5
1925.26322	9358.8
1928.36908	9348.7
1931.47292	9308.7
1934.57473	9261.7
1937.67453	9238.9
1940.77232	9230.4
1943.86808	9208.6
1946.96184	9170.7
1950.05358	9157.2
1953.14331	9128.9
1956.23103	9078.6
1959.31675	9083.5
1962.40046	9040.3
1965.48217	9031.3
1968.56188	9011.4
1971.63959	8971.7
1974.7153	8980.9
1977.78901	8940.9
1980.86073	8902.5
1983.93046	8857.3
1986.99819	8828
1990.06394	8814.5
1993.1277	8763.2
1996.18947	8722.5
1999.24925	8694.7
2002.30706	8660.7
2005.36288	8639.9
2008.41672	8625.5
2011.46859	8590.6
2014.51848	8559.7
2017.56639	8555.1
2020.61233	8520.1
2023.6563	8497.6
2026.6983	8464.3
2029.73833	8445.2
2032.7764	8412.1
2035.8125	8388.1
2038.84664	8382
2041.87881	8390.7
2044.90903	8342.4
2047.93729	8321.5
2050.96359	8314.1
2053.98794	8329.2
2057.01034	8310.3
2060.03078	8295.1
2063.04927	8280.4
2066.06582	8303.8
2069.08042	8241.9
2072.09307	8248.5
2075.10378	8230.2
2078.11255	8228.2
2081.11938	8229.7
2084.12426	8228
2087.12722	8199.5
2090.12824	8201.3
2093.12732	8192.4
2096.12447	8212
2099.11969	8212.1
2102.11299	8230
2105.10435	8208.7
2108.09379	8218.8
2111.08131	8224.6
2114.0669	8241.7
2117.05057	8231
2120.03233	8244.3
2123.01216	8271.4
2125.99008	8272.1
2128.96609	8263.9
2131.94018	8290.5
2134.91236	8271.9
2137.88263	8253.8
2140.851	8243
2143.81746	8251.2
2146.78201	8254.3
2149.74466	8232.7
2152.7054	8229.3
2155.66425	8233.4
2158.6212	8213.5
2161.57625	8200.9
2164.52941	8196.4
2167.48067	8181.9
2170.43004	8183.8
2173.37752	8177.8
2176.32311	8166.2
2179.26681	8169
2182.20863	8191.9
2185.14856	8212.9
2188.08661	8181
2191.02278	8190.1
2193.95707	8185.5
2196.88948	8161.5
2199.82001	8151
2202.74867	8160.1
2205.67545	8141.7
2208.60037	8140.8
2211.52341	8138.5
2214.44458	8116.7
2217.36388	8079.4
2220.28132	8064.2
2223.1969	8053
2226.11061	8053.4
2229.02246	8012.9
2231.93245	8003.7
2234.84058	7980.6
2237.74686	7954.9
2240.65128	7964.5
2243.55385	7945.8
2246.45456	7920.8
2249.35343	7933.3
2252.25044	7947.5
2255.14561	7938.9
2258.03893	7947.7
2260.93041	7958.3
2263.82004	7930.1
2266.70783	7920.8
2269.59378	7897.3
2272.4779	7876
2275.36017	7876.7
2278.24061	7829.9
2281.11922	7821.4
2283.996	7803.9
2286.87094	7772.8
2289.74405	7767.7
2292.61534	7738.3
2295.4848	7711.4
2298.35243	7723.8
2301.21824	7719
2304.08223	7699.7
2306.94439	7702.3
2309.80474	7709.5
2312.66327	7702.7
2315.51999	7690.3
2318.37489	7699.1
2321.22797	7665.8
2324.07925	7673.3
2326.92871	7668.3
2329.77637	7644.7
2332.62222	7656.2
2335.46626	7642
2338.3085	7642.4
2341.14893	7629.8
2343.98756	7638.6
2346.8244	7643.1
2349.65943	7671.6
2352.49267	7652.9
2355.32411	7699.2
2358.15376	7692.2
2360.98161	7720.7
2363.80768	7709.4
2366.63195	7725.8
2369.45444	7721.8
2372.27514	7726
2375.09405	7715.4
2377.91118	7698.4
2380.72652	7646.9
2383.54009	7597.4
2386.35187	7592.1
2389.16188	7537
2391.97011	7509.5
2394.77657	7477.1
2397.58125	7452.5
2400.38416	7416.7
2403.18529	7413.5
2405.98466	7397.1
2408.78226	7382.1
2411.57809	7370
2414.37216	7359.3
2417.16446	7362.9
2419.955	7359.9
2422.74378	7347.1
2425.5308	7324.4
2428.31606	7318.5
2431.09956	7330.1
2433.88131	7319.1
2436.6613	7342.9
2439.43954	7344.8
2442.21603	7341.8
2444.99077	7330.8
2447.76377	7344.5
2450.53501	7357
2453.30451	7340.4
2456.07226	7342.8
2458.83827	7341
2461.60254	7363.1
2464.36507	7333.6
2467.12586	7327.3
2469.88492	7322.1
2472.64224	7319.6
2475.39782	7323
2478.15167	7352.2
2480.90379	7373.3
2483.65417	7401.4
2486.40283	7398.9
2489.14976	7457.8
2491.89497	7438
2494.63845	7431.9
2497.3802	7432.6
2500.12024	7412.7
2502.85855	7381.9
2505.59514	7369.5
2508.33002	7321.8
2511.06318	7280.7
2513.79462	7254.5
2516.52435	7202.9
2519.25237	7167.7
2521.97867	7150
2524.70327	7164.7
2527.42616	7146.7
2530.14734	7125.3
2532.86681	7129.3
2535.58458	7110.8
2538.30065	7123.9
2541.01501	7123.8
2543.72768	7115.2
2546.43864	7112.3
2549.14791	7116
2551.85548	7113.4
2554.56136	7089.9
2557.26554	7080.8
2559.96803	7099.4
2562.66883	7083.7
2565.36794	7052
2568.06536	7034.2
2570.7611	7048.4
2573.45514	7020.2
2576.14751	6999.3
2578.83819	6988.3
2581.52719	6990.8
2584.21451	6973.4
2586.90015	6963.6
2589.58411	6960.4
2592.2664	6971.6
2594.94701	6917.7
2597.62594	6919.5
2600.30321	6893.9
2602.9788	6904.7
2605.65273	6906.8
2608.32498	6912
2610.99557	6902.6
2613.66449	6906
2616.33175	6906.8
2618.99734	6909.8
2621.66128	6923.3
2624.32355	6874.5
2626.98416	6897.2
2629.64311	6856.4
2632.30041	6872.8
2634.95605	6848.3
2637.61004	6837.6
2640.26238	6826.1
2642.91306	6817.8
2645.56209	6795.4
2648.20948	6810.2
2650.85521	6783.1
2653.4993	6805.7
2656.14175	6788.7
2658.78255	6815.1
2661.42171	6825.9
2664.05923	6834
2666.6951	6846.4
2669.32934	6839.8
2671.96194	6836.6
2674.59291	6846
2677.22224	6867.6
2679.84993	6861.8
2682.476	6866.5
2685.10043	6863.7
2687.72324	6845.8
2690.34441	6847.9
2692.96396	6830.8
2695.58188	6840.4
2698.19818	6831
2700.81285	6826.5
2703.4259	6826.1
2706.03733	6823.5
2708.64714	6825.7
2711.25533	6833.7
2713.86191	6821.8
2716.46687	6848.4
2719.07021	6857.6
2721.67194	6839.9
2724.27206	6852
2726.87057	6840.1
2729.46747	6836.8
2732.06276	6844.3
2734.65644	6833.8
2737.24852	6808.2
2739.83899	6804.8
2742.42786	6796.3
2745.01513	6774
2747.60079	6784.7
2750.18486	6754.1
2752.76733	6762.3
2755.3482	6734.1
2757.92747	6727
2760.50515	6711
2763.08123	6718.5
2765.65573	6721.2
2768.22863	6729.2
2770.79994	6720.8
2773.36967	6708.4
2775.9378	6702
2778.50435	6705.6
2781.06932	6703.5
2783.6327	6711
2786.1945	6701.7
2788.75471	6697
2791.31335	6695
2793.87041	6682.9
2796.42589	6692.6
2798.97979	6680.4
2801.53212	6658.9
2804.08288	6657.4
2806.63206	6657.5
2809.17967	6673.1
2811.72571	6662.6
2814.27018	6694.4
2816.81308	6681.6
2819.35442	6685.5
2821.89419	6679.2
2824.43239	6719.1
2826.96904	6687.7
2829.50412	6690.9
2832.03763	6675.8
2834.56959	6703.3
2837.1	6681.7
2839.62884	6684.9
2842.15613	6685.1
2844.68186	6708.9
2847.20604	6736.3
2849.72867	6765.7
2852.24974	6757.2
2854.76927	6753.6
2857.28724	6746.5
2859.80367	6739.6
2862.31855	6759.9
2864.83189	6764.1
2867.34368	6746.2
2869.85393	6760.3
2872.36264	6769.6
2874.8698	6775.1
2877.37543	6774.1
2879.87952	6755.1
2882.38207	6739.4
2884.88308	6721.4
2887.38256	6731.4
2889.88051	6723.7
2892.37692	6717.8
2894.8718	6716.3
2897.36515	6697.4
2899.85698	6727.7
2902.34727	6733.7
2904.83604	6737.4
2907.32328	6745
2909.809	6735.9
2912.29319	6747.1
2914.77587	6742.8
2917.25702	6750.5
2919.73665	6736.1
2922.21476	6732.8
2924.69136	6715.4
2927.16644	6713.8
2929.64	6686.3
2932.11205	6650.4
2934.58258	6642.9
2937.05161	6652.5
2939.51912	6636
2941.98513	6632
2944.44962	6601
2946.91261	6591.5
2949.37409	6572.5
2951.83407	6565.5
2954.29254	6568.9
2956.74951	6559.9
2959.20498	6545
2961.65895	6502.4
2964.11142	6505.8
2966.56239	6497.4
2969.01186	6482.1
2971.45984	6446.9
2973.90632	6441.5
2976.35131	6418.5
2978.7948	6407.9
2981.23681	6382.9
2983.67732	6381
2986.11635	6349
2988.55388	6339.6
2990.98993	6324.6
2993.4245	6313.5
2995.85758	6306.3
2998.28917	6307.8
3000.71928	6314.2
3003.14791	6298.5
3005.57506	6300.7
3008.00073	6270.6
3010.42493	6263.9
3012.84764	6258.4
3015.26888	6247.6
3017.68865	6258.5
3020.10694	6244.7
3022.52376	6223
3024.9391	6198.7
3027.35298	6196.5
3029.76539	6167.1
3032.17632	6150
3034.5858	6132.1
3036.9938	6118.1
3039.40034	6105.7
3041.80542	6096.8
3044.20903	6089.7
3046.61118	6100
3049.01187	6075.4
3051.4111	6069.6
3053.80888	6049.2
3056.20519	6028.4
3058.60005	6018.3
3060.99345	6034.7
3063.3854	5993.7
3065.7759	5976.2
3068.16494	5957.5
3070.55254	5950
3072.93868	5923.3
3075.32338	5904.5
3077.70662	5904.4
3080.08842	5886.9
3082.46878	5874.3
3084.84769	5867
3087.22515	5874.1
3089.60118	5850.4
3091.97576	5843.9
3094.3489	5858.1
3096.72061	5860.3
3099.09087	5848
3101.4597	5847
3103.82709	5850.3
3106.19305	5827
3108.55757	5836.9
3110.92066	5812.1
3113.28232	5807.7
3115.64255	5786.3
3118.00134	5779
3120.35871	5774.2
3122.71466	5773.6
3125.06917	5750
3127.42226	5749
3129.77393	5746.5
3132.12417	5750
3134.47299	5757.3
3136.82039	5759.3
3139.16636	5731.3
3141.51092	5752.8
3143.85406	5757.7
3146.19579	5778.8
3148.53609	5755.3
3150.87499	5785.7
3153.21246	5773.6
3155.54853	5804.2
3157.88318	5787.2
3160.21642	5793.9
3162.54826	5795.4
3164.87868	5809.6
3167.2077	5804.4
3169.5353	5816
3171.86151	5795.3
3174.18631	5798.9
3176.5097	5787.4
3178.83169	5769.8
3181.15228	5771.9
3183.47147	5772
3185.78926	5785.7
3188.10565	5772.3
3190.42065	5768.3
3192.73424	5772
3195.04645	5785.4
3197.35725	5808.2
3199.66667	5818.3
3201.97469	5824.7
3204.28132	5823.5
3206.58656	5818.4
3208.8904	5829.9
3211.19287	5844.5
3213.49394	5850.6
3215.79363	5855.9
3218.09193	5846
3220.38884	5862
3222.68438	5862.4
3224.97853	5856.9
3227.2713	5856.7
3229.56269	5837.9
3231.8527	5849.6
3234.14133	5830.7
3236.42858	5838.6
3238.71446	5814.9
3240.99896	5799
3243.28209	5818
3245.56384	5817.8
3247.84423	5808.4
3250.12324	5789.4
3252.40088	5794.7
3254.67715	5794
3256.95205	5776.5
3259.22558	5791.2
3261.49775	5788.7
3263.76855	5786.4
3266.03799	5787.8
3268.30606	5781.3
3270.57277	5755.5
3272.83812	5770.9
3275.10211	5758.3
3277.36474	5740.2
3279.62601	5725.3
3281.88593	5703.4
3284.14448	5753.8
3286.40168	5733.7
3288.65753	5719.3
3290.91202	5722.3
3293.16516	5741.5
3295.41695	5722
3297.66738	5675.7
3299.91647	5650.7
3302.16421	5605.1
3304.4106	5580.6
3306.65564	5582.7
3308.89933	5512.5
3311.14169	5476.7
3313.38269	5424.8
3315.62236	5399.6
3317.86068	5327.2
3320.09766	5299.9
3322.3333	5260.4
3324.5676	5236.1
3326.80056	5162.4
3329.03219	5122
3331.26248	3.9
3333.49143	-0.6
3335.71905	-0.5
