Data from AgNPs_FTO_APTES_UA_50uM_CRN_0uM_R6G_10uM_NaF_0.1M_Addition_RamanShift__18__10-31-14-642.txt Node

Date: Mon Feb 21 10:31:14 GMT 2022
User: TCL
Spectrometer: QEP01345
Trigger mode: 4
Integration Time (sec): 7.000000E0
Scans to average: 10
Electric dark correction enabled: true
Nonlinearity correction enabled: false
Boxcar width: 0
XAxis mode: Raman Shifts
Number of Pixels in Spectrum: 1044
>>>>>Begin Spectral Data<<<<<
46.04893	0.1375
50.45542	-0.3625
54.85868	0.0375
59.25871	-1.2625
63.6555	20.2375
68.04907	25.6375
72.43941	28.2375
76.82654	30.3375
81.21044	31.9375
85.59113	34.6375
89.96862	33.3375
94.34289	38.7375
98.71396	37.2375
103.08183	41.6375
107.4465	39.3375
111.80798	36.2375
116.16626	39.7375
120.52136	39.8375
124.87327	43.1375
129.222	35.9375
133.56755	35.8375
137.90993	42.4375
142.24913	40.6375
146.58517	45.7375
150.91804	46.6375
155.24774	53.1375
159.57429	60.2375
163.89768	71.6375
168.21792	87.8375
172.53501	110.2375
176.84895	152.9375
181.15975	204.1375
185.46741	278.3375
189.77193	379.1375
194.07331	499.8375
198.37157	647.9375
202.6667	785.2375
206.9587	935.5375
211.24758	1082.4375
215.53334	1235.3375
219.81599	1410.6375
224.09553	1597.4375
228.37195	1810.5375
232.64527	2061.9375
236.91549	2302.1375
241.18261	2530.7375
245.44663	2702.6375
249.70755	2857.0375
253.96539	2949.9375
258.22014	3011.2375
262.4718	3049.1375
266.72039	3083.8375
270.96589	3088.4375
275.20832	3046.4375
279.44768	2977.4375
283.68397	2887.3375
287.91719	2837.4375
292.14735	2841.6375
296.37445	2915.5375
300.59849	3070.2375
304.81948	3252.1375
309.03742	3409.8375
313.25231	3445.9375
317.46415	3262.5375
321.67296	2964.4375
325.87872	2680.8375
330.08145	2562.5375
334.28114	2547.0375
338.47781	2602.5375
342.67145	2677.6375
346.86207	2816.7375
351.04966	3057.2375
355.23424	3312.7375
359.4158	3538.3375
363.59435	3644.4375
367.76989	3677.5375
371.94243	3664.3375
376.11196	3641.9375
380.27849	3606.9375
384.44203	3519.7375
388.60257	3430.9375
392.76012	3362.0375
396.91468	3362.5375
401.06626	3445.2375
405.21485	3517.4375
409.36047	3456.6375
413.50311	3289.5375
417.64277	3177.9375
421.77947	3102.6375
425.9132	2828.2375
430.04396	2699.3375
434.17176	2721.1375
438.2966	2833.1375
442.41849	2985.1375
446.53742	3168.6375
450.6534	3337.4375
454.76644	3392.5375
458.87653	3377.2375
462.98368	3283.9375
467.08789	3177.9375
471.18916	3066.5375
475.2875	2951.4375
479.38291	2828.2375
483.4754	2722.3375
487.56496	2639.1375
491.6516	2620.3375
495.73531	2613.6375
499.81612	2612.6375
503.89401	2647.0375
507.96899	2699.2375
512.04106	2778.5375
516.11023	2894.0375
520.1765	2989.5375
524.23987	2997.7375
528.30034	2953.5375
532.35792	2866.3375
536.41261	2765.6375
540.46441	2667.0375
544.51333	2611.6375
548.55936	2601.5375
552.60252	2631.9375
556.64279	2718.0375
560.6802	2768.8375
564.71473	2789.5375
568.7464	2922.8375
572.7752	3010.5375
576.80114	2889.9375
580.82422	2716.8375
584.84444	2650.9375
588.86181	2691.6375
592.87633	2816.7375
596.888	2908.8375
600.89682	2939.5375
604.9028	3331.1375
608.90594	4566.2375
612.90624	6355.2375
616.90371	6265.7375
620.89834	4110.9375
624.89015	2973.1375
628.87913	2726.5375
632.86528	2740.8375
636.84862	2782.1375
640.82913	2737.7375
644.80683	2562.3375
648.78172	2438.7375
652.75379	2425.2375
656.72306	2577.3375
660.68952	2763.7375
664.65319	2707.6375
668.61405	2481.2375
672.57211	2358.9375
676.52738	2350.2375
680.47986	2327.7375
684.42955	2300.0375
688.37646	2287.1375
692.32058	2322.4375
696.26192	2352.7375
700.20048	2394.3375
704.13626	2402.9375
708.06928	2373.8375
711.99952	2335.6375
715.927	2335.8375
719.85171	2388.5375
723.77365	2394.5375
727.69284	2373.6375
731.60928	2371.3375
735.52295	2381.6375
739.43388	2401.4375
743.34206	2416.6375
747.24749	2416.3375
751.15017	2404.1375
755.05012	2444.0375
758.94733	2596.7375
762.8418	2964.3375
766.73354	3625.8375
770.62254	4363.7375
774.50882	4899.8375
778.39237	4862.2375
782.27321	4111.1375
786.15132	3260.3375
790.02671	2758.3375
793.89938	2538.1375
797.76935	2461.7375
801.6366	2439.0375
805.50115	2432.0375
809.36299	2450.9375
813.22213	2435.4375
817.07857	2410.1375
820.93231	2386.7375
824.78336	2373.6375
828.63172	2366.4375
832.47738	2377.9375
836.32036	2371.2375
840.16066	2332.0375
843.99827	2309.7375
847.8332	2298.3375
851.66546	2296.8375
855.49504	2296.6375
859.32195	2285.4375
863.1462	2263.9375
866.96777	2263.3375
870.78668	2250.9375
874.60293	2284.5375
878.41652	2309.8375
882.22745	2357.7375
886.03573	2391.7375
889.84136	2359.6375
893.64433	2327.2375
897.44466	2318.3375
901.24235	2294.7375
905.0374	2263.4375
908.8298	2235.9375
912.61957	2206.0375
916.40671	2210.1375
920.19121	2228.0375
923.97308	2228.1375
927.75233	2292.7375
931.52895	2346.6375
935.30295	2322.0375
939.07433	2234.6375
942.84309	2156.4375
946.60924	2090.8375
950.37278	2062.8375
954.13371	2040.6375
957.89203	2041.9375
961.64774	2020.9375
965.40086	2008.8375
969.15137	2000.6375
972.89929	1993.8375
976.64461	1982.7375
980.38733	1995.1375
984.12747	1998.2375
987.86502	2005.2375
991.59999	2016.8375
995.33237	2044.9375
999.06217	2124.2375
1002.78939	2187.1375
1006.51404	2244.7375
1010.23611	2293.4375
1013.95561	2352.4375
1017.67255	2337.5375
1021.38692	2254.7375
1025.09872	2172.7375
1028.80796	2131.8375
1032.51465	2110.9375
1036.21877	2165.7375
1039.92035	2213.2375
1043.61937	2242.9375
1047.31584	2248.2375
1051.00976	2220.3375
1054.70114	2192.7375
1058.38998	2168.4375
1062.07627	2155.6375
1065.76003	2160.9375
1069.44126	2148.8375
1073.11995	2180.6375
1076.79611	2239.2375
1080.46974	2333.1375
1084.14085	2444.2375
1087.80943	2527.1375
1091.47549	2560.4375
1095.13903	2477.8375
1098.80005	2316.8375
1102.45857	2210.8375
1106.11456	2203.1375
1109.76805	2251.0375
1113.41903	2356.2375
1117.06751	2519.3375
1120.71348	2727.4375
1124.35696	2948.4375
1127.99793	3141.2375
1131.63641	3103.0375
1135.2724	2891.4375
1138.90589	2660.3375
1142.5369	2499.6375
1146.16542	2396.5375
1149.79145	2315.3375
1153.415	2295.1375
1157.03607	2288.7375
1160.65467	2355.2375
1164.27079	2454.5375
1167.88443	2652.1375
1171.49561	2955.6375
1175.10432	3509.2375
1178.71056	4274.2375
1182.31434	4865.3375
1185.91565	5039.4375
1189.51451	4936.0375
1193.11091	4621.1375
1196.70485	4216.9375
1200.29634	3852.8375
1203.88538	3532.3375
1207.47197	3151.7375
1211.05612	2847.3375
1214.63782	2680.0375
1218.21708	2614.3375
1221.79391	2584.2375
1225.36829	2541.8375
1228.94024	2490.0375
1232.50976	2462.0375
1236.07685	2478.3375
1239.6415	2543.0375
1243.20374	2596.6375
1246.76355	2583.4375
1250.32093	2581.3375
1253.8759	2657.9375
1257.42845	2777.5375
1260.97859	2912.8375
1264.52631	3103.6375
1268.07163	3249.7375
1271.61453	3366.9375
1275.15503	3406.3375
1278.69312	3375.4375
1282.22882	3393.9375
1285.76211	3517.4375
1289.29301	3735.8375
1292.82151	3966.7375
1296.34761	4183.7375
1299.87133	4454.9375
1303.39266	4870.3375
1306.9116	5550.9375
1310.42815	6318.2375
1313.94233	6729.2375
1317.45412	6428.3375
1320.96354	5768.7375
1324.47058	5008.0375
1327.97525	4360.4375
1331.47754	4051.1375
1334.97747	4052.5375
1338.47502	4221.3375
1341.97022	4458.3375
1345.46305	4732.7375
1348.95352	5159.0375
1352.44163	5887.2375
1355.92738	6860.6375
1359.41078	8129.3375
1362.89183	9072.5375
1366.37053	8649.9375
1369.84688	7280.2375
1373.32088	5894.1375
1376.79254	4906.2375
1380.26186	4320.1375
1383.72883	3944.9375
1387.19347	3584.4375
1390.65578	3237.3375
1394.11575	2995.4375
1397.57339	2866.5375
1401.0287	2870.8375
1404.48168	2868.4375
1407.93234	2922.6375
1411.38068	2971.5375
1414.82669	3011.9375
1418.27039	2981.3375
1421.71177	2931.1375
1425.15083	2890.5375
1428.58758	2923.1375
1432.02203	3020.9375
1435.45416	3117.3375
1438.88399	3157.1375
1442.31151	3159.6375
1445.73673	3108.8375
1449.15965	3095.2375
1452.58027	3063.8375
1455.9986	2954.0375
1459.41463	2898.4375
1462.82837	2926.1375
1466.23982	3070.8375
1469.64898	3227.1375
1473.05586	3371.8375
1476.46045	3482.4375
1479.86276	3624.6375
1483.26279	3757.1375
1486.66054	3867.8375
1490.05602	3972.4375
1493.44922	4084.4375
1496.84016	4332.3375
1500.22882	4859.1375
1503.61521	5643.1375
1506.99934	6571.6375
1510.38121	7332.4375
1513.76081	7533.0375
1517.13816	6897.8375
1520.51324	5735.7375
1523.88607	4629.4375
1527.25665	3967.3375
1530.62498	3659.6375
1533.99105	3537.7375
1537.35488	3492.0375
1540.71647	3462.3375
1544.07581	3473.9375
1547.4329	3473.4375
1550.78776	3410.4375
1554.14038	3337.0375
1557.49077	3260.4375
1560.83892	3267.7375
1564.18484	3356.3375
1567.52853	3550.8375
1570.86999	3769.4375
1574.20922	3923.0375
1577.54624	3927.1375
1580.88103	3659.8375
1584.2136	3240.8375
1587.54395	2972.7375
1590.87208	2981.9375
1594.19801	3251.9375
1597.52172	3702.9375
1600.84321	4049.7375
1604.16251	4051.2375
1607.47959	3729.3375
1610.79447	3243.4375
1614.10715	2776.6375
1617.41763	2449.3375
1620.7259	2263.3375
1624.03199	2174.7375
1627.33587	2151.1375
1630.63757	2202.5375
1633.93707	2322.6375
1637.23439	2568.5375
1640.52951	3005.5375
1643.82246	3654.6375
1647.11321	4417.4375
1650.40179	4893.1375
1653.68819	4640.7375
1656.97241	3780.2375
1660.25446	2894.9375
1663.53433	2293.4375
1666.81203	1959.4375
1670.08756	1782.1375
1673.36092	1690.9375
1676.63211	1644.9375
1679.90115	1599.0375
1683.16801	1554.3375
1686.43272	1517.2375
1689.69527	1477.0375
1692.95567	1407.4375
1696.2139	1302.1375
1699.46999	1202.5375
1702.72392	1177.4375
1705.97571	1240.6375
1709.22535	1330.4375
1712.47284	1408.7375
1715.71819	1437.4375
1718.96139	1457.8375
1722.20246	1464.1375
1725.44139	1448.6375
1728.67818	1431.0375
1731.91284	1415.6375
1735.14537	1392.8375
1738.37576	1366.5375
1741.60403	1347.4375
1744.83017	1323.7375
1748.05418	1304.9375
1751.27607	1264.8375
1754.49584	1214.0375
1757.71349	1157.2375
1760.92903	1105.8375
1764.14244	1107.7375
1767.35375	1114.6375
1770.56294	1098.7375
1773.77002	1107.3375
1776.97499	1158.8375
1780.17785	1203.6375
1783.37861	1233.7375
1786.57727	1254.7375
1789.77382	1257.0375
1792.96828	1255.2375
1796.16064	1260.5375
1799.3509	1254.5375
1802.53907	1254.3375
1805.72514	1251.1375
1808.90913	1247.0375
1812.09102	1240.7375
1815.27083	1222.5375
1818.44856	1228.5375
1821.6242	1224.7375
1824.79776	1221.2375
1827.96924	1213.2375
1831.13864	1204.1375
1834.30597	1205.7375
1837.47122	1211.2375
1840.6344	1197.6375
1843.7955	1202.2375
1846.95454	1190.1375
1850.11151	1190.6375
1853.26642	1180.6375
1856.41926	1188.3375
1859.57004	1185.3375
1862.71876	1179.3375
1865.86542	1179.8375
1869.01003	1178.3375
1872.15258	1173.0375
1875.29308	1174.8375
1878.43152	1172.3375
1881.56792	1171.7375
1884.70227	1167.6375
1887.83457	1164.0375
1890.96482	1152.5375
1894.09304	1164.0375
1897.21921	1150.4375
1900.34335	1164.7375
1903.46544	1154.2375
1906.58551	1155.8375
1909.70353	1150.7375
1912.81953	1150.0375
1915.93349	1156.1375
1919.04543	1138.8375
1922.15534	1130.2375
1925.26322	1138.9375
1928.36908	1127.5375
1931.47292	1127.8375
1934.57473	1120.9375
1937.67453	1121.0375
1940.77232	1114.2375
1943.86808	1104.2375
1946.96184	1105.9375
1950.05358	1100.4375
1953.14331	1093.1375
1956.23103	1085.2375
1959.31675	1078.1375
1962.40046	1078.2375
1965.48217	1071.6375
1968.56188	1084.3375
1971.63959	1074.0375
1974.7153	1078.3375
1977.78901	1072.8375
1980.86073	1059.7375
1983.93046	1051.3375
1986.99819	1052.1375
1990.06394	1048.3375
1993.1277	1049.0375
1996.18947	1034.9375
1999.24925	1028.7375
2002.30706	1020.2375
2005.36288	1022.4375
2008.41672	1020.2375
2011.46859	1018.4375
2014.51848	1006.8375
2017.56639	998.2375
2020.61233	997.8375
2023.6563	996.3375
2026.6983	985.1375
2029.73833	990.0375
2032.7764	980.4375
2035.8125	977.3375
2038.84664	984.4375
2041.87881	976.4375
2044.90903	971.2375
2047.93729	968.9375
2050.96359	964.4375
2053.98794	958.9375
2057.01034	962.5375
2060.03078	960.9375
2063.04927	962.8375
2066.06582	957.8375
2069.08042	951.7375
2072.09307	957.7375
2075.10378	970.3375
2078.11255	951.1375
2081.11938	947.7375
2084.12426	944.9375
2087.12722	943.8375
2090.12824	945.9375
2093.12732	941.9375
2096.12447	944.6375
2099.11969	944.6375
2102.11299	942.0375
2105.10435	945.7375
2108.09379	941.0375
2111.08131	940.0375
2114.0669	932.4375
2117.05057	937.2375
2120.03233	939.8375
2123.01216	933.9375
2125.99008	928.5375
2128.96609	936.2375
2131.94018	938.3375
2134.91236	939.2375
2137.88263	928.0375
2140.851	927.1375
2143.81746	936.5375
2146.78201	928.0375
2149.74466	926.6375
2152.7054	923.4375
2155.66425	908.4375
2158.6212	917.5375
2161.57625	917.4375
2164.52941	913.6375
2167.48067	912.9375
2170.43004	904.4375
2173.37752	910.5375
2176.32311	904.4375
2179.26681	906.6375
2182.20863	907.5375
2185.14856	911.1375
2188.08661	910.5375
2191.02278	902.1375
2193.95707	899.2375
2196.88948	894.0375
2199.82001	905.3375
2202.74867	896.4375
2205.67545	887.9375
2208.60037	882.4375
2211.52341	887.0375
2214.44458	880.3375
2217.36388	883.7375
2220.28132	881.4375
2223.1969	874.8375
2226.11061	863.0375
2229.02246	866.7375
2231.93245	865.0375
2234.84058	863.4375
2237.74686	855.5375
2240.65128	852.2375
2243.55385	854.5375
2246.45456	851.3375
2249.35343	857.8375
2252.25044	853.7375
2255.14561	859.3375
2258.03893	840.4375
2260.93041	825.8375
2263.82004	833.7375
2266.70783	836.7375
2269.59378	849.3375
2272.4779	839.9375
2275.36017	840.5375
2278.24061	834.5375
2281.11922	834.3375
2283.996	826.4375
2286.87094	833.5375
2289.74405	819.8375
2292.61534	818.0375
2295.4848	827.0375
2298.35243	809.9375
2301.21824	812.3375
2304.08223	808.9375
2306.94439	808.1375
2309.80474	804.1375
2312.66327	809.2375
2315.51999	803.7375
2318.37489	795.2375
2321.22797	804.8375
2324.07925	796.7375
2326.92871	796.1375
2329.77637	802.5375
2332.62222	796.0375
2335.46626	793.7375
2338.3085	786.0375
2341.14893	785.3375
2343.98756	790.4375
2346.8244	785.0375
2349.65943	784.4375
2352.49267	795.8375
2355.32411	794.7375
2358.15376	797.9375
2360.98161	811.3375
2363.80768	809.8375
2366.63195	819.4375
2369.45444	821.5375
2372.27514	817.9375
2375.09405	808.5375
2377.91118	817.6375
2380.72652	812.0375
2383.54009	798.9375
2386.35187	798.9375
2389.16188	781.2375
2391.97011	778.4375
2394.77657	780.6375
2397.58125	773.5375
2400.38416	768.3375
2403.18529	769.9375
2405.98466	763.3375
2408.78226	764.4375
2411.57809	752.6375
2414.37216	758.9375
2417.16446	756.4375
2419.955	754.0375
2422.74378	753.9375
2425.5308	754.7375
2428.31606	751.2375
2431.09956	759.6375
2433.88131	756.4375
2436.6613	755.0375
2439.43954	750.8375
2442.21603	753.7375
2444.99077	756.8375
2447.76377	756.4375
2450.53501	759.2375
2453.30451	759.0375
2456.07226	759.1375
2458.83827	756.5375
2461.60254	756.5375
2464.36507	754.3375
2467.12586	749.6375
2469.88492	758.3375
2472.64224	749.6375
2475.39782	742.8375
2478.15167	733.4375
2480.90379	753.3375
2483.65417	747.2375
2486.40283	770.3375
2489.14976	774.8375
2491.89497	775.6375
2494.63845	763.4375
2497.3802	747.0375
2500.12024	771.0375
2502.85855	764.5375
2505.59514	756.4375
2508.33002	751.5375
2511.06318	752.1375
2513.79462	743.8375
2516.52435	744.2375
2519.25237	740.3375
2521.97867	726.3375
2524.70327	721.0375
2527.42616	726.0375
2530.14734	718.7375
2532.86681	720.7375
2535.58458	726.5375
2538.30065	720.2375
2541.01501	726.0375
2543.72768	730.6375
2546.43864	722.7375
2549.14791	726.4375
2551.85548	719.8375
2554.56136	727.2375
2557.26554	727.7375
2559.96803	726.6375
2562.66883	729.3375
2565.36794	725.9375
2568.06536	724.9375
2570.7611	725.5375
2573.45514	723.2375
2576.14751	724.1375
2578.83819	718.0375
2581.52719	715.4375
2584.21451	711.7375
2586.90015	714.4375
2589.58411	702.0375
2592.2664	705.8375
2594.94701	706.5375
2597.62594	703.1375
2600.30321	707.4375
2602.9788	704.7375
2605.65273	708.2375
2608.32498	709.3375
2610.99557	706.1375
2613.66449	705.8375
2616.33175	707.8375
2618.99734	706.8375
2621.66128	706.9375
2624.32355	696.1375
2626.98416	700.2375
2629.64311	699.2375
2632.30041	699.0375
2634.95605	692.3375
2637.61004	694.0375
2640.26238	696.1375
2642.91306	689.4375
2645.56209	685.9375
2648.20948	682.5375
2650.85521	687.1375
2653.4993	692.4375
2656.14175	694.3375
2658.78255	687.6375
2661.42171	702.8375
2664.05923	700.9375
2666.6951	708.2375
2669.32934	712.6375
2671.96194	716.5375
2674.59291	721.2375
2677.22224	715.5375
2679.84993	717.3375
2682.476	712.9375
2685.10043	715.2375
2687.72324	720.5375
2690.34441	723.7375
2692.96396	719.2375
2695.58188	713.7375
2698.19818	712.3375
2700.81285	716.5375
2703.4259	692.1375
2706.03733	602.5375
2708.64714	649.4375
2711.25533	696.3375
2713.86191	715.1375
2716.46687	722.2375
2719.07021	744.6375
2721.67194	739.9375
2724.27206	743.0375
2726.87057	748.6375
2729.46747	746.4375
2732.06276	747.0375
2734.65644	751.8375
2737.24852	739.8375
2739.83899	743.0375
2742.42786	746.0375
2745.01513	738.9375
2747.60079	746.5375
2750.18486	745.4375
2752.76733	745.5375
2755.3482	744.5375
2757.92747	741.4375
2760.50515	743.5375
2763.08123	748.4375
2765.65573	748.8375
2768.22863	753.0375
2770.79994	758.2375
2773.36967	761.3375
2775.9378	762.7375
2778.50435	770.3375
2781.06932	775.0375
2783.6327	790.1375
2786.1945	794.4375
2788.75471	799.0375
2791.31335	806.7375
2793.87041	808.7375
2796.42589	822.1375
2798.97979	829.1375
2801.53212	836.5375
2804.08288	837.5375
2806.63206	856.6375
2809.17967	856.6375
2811.72571	870.6375
2814.27018	875.9375
2816.81308	884.2375
2819.35442	891.2375
2821.89419	897.0375
2824.43239	896.7375
2826.96904	904.9375
2829.50412	909.8375
2832.03763	899.6375
2834.56959	912.2375
2837.1	915.3375
2839.62884	926.5375
2842.15613	946.2375
2844.68186	965.7375
2847.20604	987.0375
2849.72867	1002.7375
2852.24974	1011.4375
2854.76927	999.2375
2857.28724	973.3375
2859.80367	992.2375
2862.31855	1002.3375
2864.83189	993.0375
2867.34368	992.1375
2869.85393	994.8375
2872.36264	985.4375
2874.8698	989.0375
2877.37543	981.8375
2879.87952	970.6375
2882.38207	969.4375
2884.88308	967.3375
2887.38256	961.0375
2889.88051	956.4375
2892.37692	960.3375
2894.8718	949.9375
2897.36515	956.9375
2899.85698	950.3375
2902.34727	959.3375
2904.83604	958.2375
2907.32328	953.3375
2909.809	949.8375
2912.29319	957.3375
2914.77587	952.6375
2917.25702	942.2375
2919.73665	940.8375
2922.21476	937.7375
2924.69136	935.9375
2927.16644	929.2375
2929.64	913.6375
2932.11205	910.6375
2934.58258	905.2375
2937.05161	890.2375
2939.51912	881.9375
2941.98513	861.9375
2944.44962	837.3375
2946.91261	821.3375
2949.37409	815.1375
2951.83407	798.2375
2954.29254	785.9375
2956.74951	773.3375
2959.20498	770.9375
2961.65895	758.4375
2964.11142	757.6375
2966.56239	746.4375
2969.01186	744.8375
2971.45984	737.9375
2973.90632	731.6375
2976.35131	729.6375
2978.7948	726.0375
2981.23681	723.9375
2983.67732	717.5375
2986.11635	711.5375
2988.55388	699.7375
2990.98993	699.1375
2993.4245	697.0375
2995.85758	684.3375
2998.28917	682.2375
3000.71928	679.3375
3003.14791	679.3375
3005.57506	679.7375
3008.00073	678.0375
3010.42493	680.3375
3012.84764	676.3375
3015.26888	680.9375
3017.68865	674.5375
3020.10694	680.4375
3022.52376	673.7375
3024.9391	676.2375
3027.35298	668.5375
3029.76539	676.0375
3032.17632	673.9375
3034.5858	670.8375
3036.9938	670.4375
3039.40034	677.0375
3041.80542	667.4375
3044.20903	674.4375
3046.61118	672.7375
3049.01187	668.3375
3051.4111	669.8375
3053.80888	676.9375
3056.20519	674.6375
3058.60005	686.3375
3060.99345	680.1375
3063.3854	683.2375
3065.7759	685.0375
3068.16494	691.5375
3070.55254	682.7375
3072.93868	683.6375
3075.32338	685.3375
3077.70662	687.0375
3080.08842	675.6375
3082.46878	680.2375
3084.84769	679.9375
3087.22515	687.1375
3089.60118	682.0375
3091.97576	683.3375
3094.3489	692.0375
3096.72061	689.7375
3099.09087	687.1375
3101.4597	689.5375
3103.82709	693.5375
3106.19305	693.7375
3108.55757	690.5375
3110.92066	690.4375
3113.28232	701.7375
3115.64255	701.7375
3118.00134	697.0375
3120.35871	703.9375
3122.71466	714.0375
3125.06917	714.7375
3127.42226	715.9375
3129.77393	721.7375
3132.12417	725.4375
3134.47299	725.2375
3136.82039	734.5375
3139.16636	730.4375
3141.51092	736.5375
3143.85406	748.6375
3146.19579	748.3375
3148.53609	754.8375
3150.87499	754.7375
3153.21246	764.0375
3155.54853	767.7375
3157.88318	775.3375
3160.21642	777.2375
3162.54826	780.6375
3164.87868	789.6375
3167.2077	792.7375
3169.5353	796.7375
3171.86151	806.7375
3174.18631	799.5375
3176.5097	802.5375
3178.83169	814.1375
3181.15228	818.2375
3183.47147	823.6375
3185.78926	823.1375
3188.10565	836.7375
3190.42065	836.3375
3192.73424	832.0375
3195.04645	836.3375
3197.35725	834.2375
3199.66667	842.4375
3201.97469	846.9375
3204.28132	854.2375
3206.58656	861.0375
3208.8904	860.9375
3211.19287	864.0375
3213.49394	872.3375
3215.79363	869.0375
3218.09193	875.1375
3220.38884	860.7375
3222.68438	844.3375
3224.97853	861.7375
3227.2713	871.7375
3229.56269	874.8375
3231.8527	880.7375
3234.14133	874.4375
3236.42858	887.4375
3238.71446	887.1375
3240.99896	887.1375
3243.28209	887.2375
3245.56384	890.4375
3247.84423	881.3375
3250.12324	884.0375
3252.40088	887.1375
3254.67715	890.7375
3256.95205	891.4375
3259.22558	891.9375
3261.49775	895.2375
3263.76855	892.6375
3266.03799	893.1375
3268.30606	894.6375
3270.57277	889.2375
3272.83812	882.9375
3275.10211	891.4375
3277.36474	889.3375
3279.62601	888.5375
3281.88593	890.7375
3284.14448	882.7375
3286.40168	897.8375
3288.65753	883.7375
3290.91202	887.4375
3293.16516	889.0375
3295.41695	892.1375
3297.66738	885.7375
3299.91647	875.7375
3302.16421	868.9375
3304.4106	871.1375
3306.65564	866.2375
3308.89933	854.7375
3311.14169	848.3375
3313.38269	828.7375
3315.62236	829.4375
3317.86068	823.2375
3320.09766	821.3375
3322.3333	819.7375
3324.5676	810.4375
3326.80056	768.8375
3329.03219	776.7375
3331.26248	0.5375
3333.49143	-0.6625
3335.71905	1.1375
