Data from AgNPs_FTO_APTES_UA_50uM_CRN_5uM_R6G_10uM_NaF_0.1M_Addition_RamanShift__21__12-57-04-836.txt Node

Date: Mon Feb 21 12:57:04 GMT 2022
User: TCL
Spectrometer: QEP01345
Trigger mode: 4
Integration Time (sec): 7.000000E0
Scans to average: 10
Electric dark correction enabled: true
Nonlinearity correction enabled: false
Boxcar width: 0
XAxis mode: Raman Shifts
Number of Pixels in Spectrum: 1044
>>>>>Begin Spectral Data<<<<<
46.04893	-0.1625
50.45542	-0.8625
54.85868	-0.7625
59.25871	-1.7625
63.6555	60.1375
68.04907	64.7375
72.43941	68.0375
76.82654	71.1375
81.21044	74.7375
85.59113	74.8375
89.96862	80.7375
94.34289	83.3375
98.71396	86.7375
103.08183	95.5375
107.4465	90.6375
111.80798	91.0375
116.16626	93.1375
120.52136	95.5375
124.87327	103.5375
129.222	101.3375
133.56755	110.2375
137.90993	124.1375
142.24913	129.2375
146.58517	145.8375
150.91804	168.1375
155.24774	200.8375
159.57429	253.9375
163.89768	321.2375
168.21792	434.1375
172.53501	584.5375
176.84895	820.1375
181.15975	1145.6375
185.46741	1610.8375
189.77193	2227.9375
194.07331	2993.2375
198.37157	3839.5375
202.6667	4741.1375
206.9587	5690.1375
211.24758	6665.0375
215.53334	7711.2375
219.81599	8905.9375
224.09553	10276.1375
228.37195	11775.3375
232.64527	13401.0375
236.91549	14903.2375
241.18261	16215.8375
245.44663	17218.2375
249.70755	17837.7375
253.96539	18350.8375
258.22014	18900.3375
262.4718	19435.2375
266.72039	19709.4375
270.96589	19739.9375
275.20832	19430.7375
279.44768	18911.3375
283.68397	18389.6375
287.91719	18041.3375
292.14735	18142.9375
296.37445	18750.3375
300.59849	19812.7375
304.81948	21049.0375
309.03742	22022.4375
313.25231	22062.6375
317.46415	20860.3375
321.67296	18879.8375
325.87872	17181.4375
330.08145	16436.2375
334.28114	16373.9375
338.47781	16709.8375
342.67145	17272.7375
346.86207	18160.2375
351.04966	19489.9375
355.23424	21061.2375
359.4158	22353.1375
363.59435	22816.0375
367.76989	22928.4375
371.94243	22661.3375
376.11196	22387.0375
380.27849	22109.8375
384.44203	21742.4375
388.60257	21306.7375
392.76012	21080.8375
396.91468	21180.0375
401.06626	21762.2375
405.21485	22106.6375
409.36047	21464.0375
413.50311	19876.4375
417.64277	18466.8375
421.77947	17583.8375
425.9132	17206.5375
430.04396	17093.2375
434.17176	17127.4375
438.2966	17351.3375
442.41849	17910.1375
446.53742	18550.3375
450.6534	19191.0375
454.76644	19537.0375
458.87653	19544.3375
462.98368	19284.0375
467.08789	18886.4375
471.18916	18383.4375
475.2875	17832.0375
479.38291	17377.9375
483.4754	17055.4375
487.56496	16768.5375
491.6516	16524.5375
495.73531	16402.7375
499.81612	16435.8375
503.89401	16697.7375
507.96899	16981.3375
512.04106	17362.6375
516.11023	17734.0375
520.1765	17981.6375
524.23987	17956.8375
528.30034	17674.4375
532.35792	17334.2375
536.41261	16943.7375
540.46441	16480.9375
544.51333	16201.7375
548.55936	16315.2375
552.60252	16800.9375
556.64279	17377.5375
560.6802	17778.4375
564.71473	18306.4375
568.7464	19474.2375
572.7752	20004.1375
576.80114	19053.0375
580.82422	18056.4375
584.84444	17722.9375
588.86181	17847.2375
592.87633	18226.4375
596.888	18664.4375
600.89682	19283.6375
604.9028	22081.8375
608.90594	30406.3375
612.90624	41089.6375
616.90371	38544.2375
620.89834	24822.6375
624.89015	18372.1375
628.87913	17280.4375
632.86528	17631.2375
636.84862	18150.0375
640.82913	17730.9375
644.80683	16442.0375
648.78172	15498.9375
652.75379	15421.9375
656.72306	16356.1375
660.68952	17542.7375
664.65319	17177.8375
668.61405	15924.2375
672.57211	15455.9375
676.52738	15524.1375
680.47986	15551.6375
684.42955	15385.8375
688.37646	15266.9375
692.32058	15349.4375
696.26192	15432.3375
700.20048	15632.7375
704.13626	15667.2375
708.06928	15518.6375
711.99952	15224.9375
715.927	15169.2375
719.85171	15336.4375
723.77365	15387.6375
727.69284	15250.2375
731.60928	15025.3375
735.52295	15000.6375
739.43388	15060.8375
743.34206	15178.3375
747.24749	15256.9375
751.15017	15311.4375
755.05012	15657.4375
758.94733	16770.7375
762.8418	19741.5375
766.73354	24791.7375
770.62254	29764.4375
774.50882	31967.5375
778.39237	30143.4375
782.27321	25122.8375
786.15132	20139.8375
790.02671	17173.1375
793.89938	15821.2375
797.76935	15256.1375
801.6366	14989.6375
805.50115	14860.8375
809.36299	14731.4375
813.22213	14573.8375
817.07857	14531.5375
820.93231	14488.0375
824.78336	14517.1375
828.63172	14590.5375
832.47738	14628.8375
836.32036	14556.7375
840.16066	14432.9375
843.99827	14370.0375
847.8332	14328.5375
851.66546	14263.2375
855.49504	14278.5375
859.32195	14250.2375
863.1462	14179.6375
866.96777	14151.4375
870.78668	14105.1375
874.60293	14135.4375
878.41652	14192.2375
882.22745	14341.3375
886.03573	14473.4375
889.84136	14451.1375
893.64433	14354.6375
897.44466	14312.9375
901.24235	14239.9375
905.0374	14141.7375
908.8298	13903.5375
912.61957	13780.5375
916.40671	13810.0375
920.19121	13942.5375
923.97308	14194.9375
927.75233	14532.8375
931.52895	14880.4375
935.30295	14687.8375
939.07433	14042.4375
942.84309	13513.6375
946.60924	13215.8375
950.37278	13067.8375
954.13371	12993.1375
957.89203	12907.4375
961.64774	12847.0375
965.40086	12787.1375
969.15137	12736.7375
972.89929	12711.3375
976.64461	12666.4375
980.38733	12670.7375
984.12747	12693.2375
987.86502	12788.4375
991.59999	13020.2375
995.33237	13316.7375
999.06217	13808.0375
1002.78939	14453.2375
1006.51404	15057.8375
1010.23611	15460.0375
1013.95561	15619.3375
1017.67255	15552.0375
1021.38692	15325.8375
1025.09872	14991.0375
1028.80796	14861.6375
1032.51465	15149.3375
1036.21877	15543.8375
1039.92035	15678.0375
1043.61937	15584.7375
1047.31584	15359.9375
1051.00976	14990.2375
1054.70114	14732.4375
1058.38998	14577.5375
1062.07627	14594.2375
1065.76003	14606.5375
1069.44126	14701.7375
1073.11995	14952.2375
1076.79611	15318.8375
1080.46974	15892.6375
1084.14085	16631.1375
1087.80943	17416.5375
1091.47549	17680.2375
1095.13903	17204.1375
1098.80005	16413.2375
1102.45857	15746.4375
1106.11456	15560.1375
1109.76805	15783.3375
1113.41903	16471.2375
1117.06751	17457.6375
1120.71348	18724.1375
1124.35696	20107.6375
1127.99793	21199.4375
1131.63641	20789.1375
1135.2724	19284.7375
1138.90589	17898.8375
1142.5369	17081.9375
1146.16542	16443.5375
1149.79145	16140.5375
1153.415	16049.2375
1157.03607	16243.3375
1160.65467	16686.4375
1164.27079	17581.2375
1167.88443	19070.5375
1171.49561	21308.7375
1175.10432	24814.7375
1178.71056	29686.3375
1182.31434	33835.8375
1185.91565	34994.0375
1189.51451	33415.9375
1193.11091	30508.9375
1196.70485	27551.6375
1200.29634	25517.2375
1203.88538	23737.1375
1207.47197	21785.1375
1211.05612	20034.4375
1214.63782	19069.1375
1218.21708	18714.4375
1221.79391	18802.0375
1225.36829	18943.2375
1228.94024	18820.4375
1232.50976	18384.2375
1236.07685	18085.0375
1239.6415	17909.0375
1243.20374	17943.1375
1246.76355	18075.0375
1250.32093	18378.7375
1253.8759	18959.4375
1257.42845	19815.7375
1260.97859	20851.8375
1264.52631	21985.3375
1268.07163	23152.8375
1271.61453	24213.5375
1275.15503	24985.9375
1278.69312	25533.0375
1282.22882	26037.4375
1285.76211	26860.0375
1289.29301	28077.2375
1292.82151	29468.2375
1296.34761	31167.3375
1299.87133	33678.0375
1303.39266	37874.2375
1306.9116	43961.9375
1310.42815	50183.7375
1313.94233	52475.5375
1317.45412	49373.0375
1320.96354	44047.0375
1324.47058	39081.3375
1327.97525	35244.7375
1331.47754	32887.4375
1334.97747	31955.7375
1338.47502	32174.7375
1341.97022	33237.8375
1345.46305	35285.8375
1348.95352	38100.2375
1352.44163	41854.1375
1355.92738	47436.1375
1359.41078	56276.7375
1362.89183	64377.7375
1366.37053	61147.8375
1369.84688	48832.1375
1373.32088	38057.5375
1376.79254	31967.1375
1380.26186	28841.2375
1383.72883	26859.7375
1387.19347	25472.7375
1390.65578	24405.3375
1394.11575	23794.6375
1397.57339	23681.3375
1401.0287	23803.7375
1404.48168	23994.7375
1407.93234	24031.9375
1411.38068	23975.4375
1414.82669	23727.2375
1418.27039	23399.0375
1421.71177	22731.2375
1425.15083	22052.7375
1428.58758	21745.2375
1432.02203	22150.0375
1435.45416	22614.6375
1438.88399	22847.8375
1442.31151	22863.6375
1445.73673	23032.1375
1449.15965	23283.9375
1452.58027	23393.2375
1455.9986	23380.7375
1459.41463	23414.5375
1462.82837	23886.9375
1466.23982	24601.5375
1469.64898	25208.1375
1473.05586	25493.2375
1476.46045	25533.9375
1479.86276	25634.3375
1483.26279	26051.2375
1486.66054	26811.9375
1490.05602	28012.8375
1493.44922	29750.7375
1496.84016	32598.8375
1500.22882	37371.4375
1503.61521	44293.4375
1506.99934	52436.4375
1510.38121	58711.8375
1513.76081	59090.4375
1517.13816	52820.2375
1520.51324	43684.2375
1523.88607	36001.8375
1527.25665	31222.8375
1530.62498	28644.6375
1533.99105	27131.7375
1537.35488	26109.5375
1540.71647	25394.7375
1544.07581	24950.1375
1547.4329	24843.0375
1550.78776	24855.1375
1554.14038	25097.4375
1557.49077	25417.1375
1560.83892	26143.8375
1564.18484	27243.3375
1567.52853	28647.9375
1570.86999	29728.8375
1574.20922	30306.2375
1577.54624	29912.3375
1580.88103	27837.9375
1584.2136	25345.9375
1587.54395	24153.1375
1590.87208	24716.0375
1594.19801	26670.9375
1597.52172	29056.6375
1600.84321	29838.8375
1604.16251	28297.1375
1607.47959	25723.3375
1610.79447	23146.9375
1614.10715	20790.3375
1617.41763	18942.8375
1620.7259	17793.4375
1624.03199	17311.5375
1627.33587	17494.9375
1630.63757	18325.1375
1633.93707	19902.0375
1637.23439	22489.5375
1640.52951	26423.5375
1643.82246	31875.0375
1647.11321	37923.5375
1650.40179	41464.7375
1653.68819	38988.9375
1656.97241	31783.0375
1660.25446	24499.1375
1663.53433	19605.7375
1666.81203	16835.5375
1670.08756	15250.4375
1673.36092	14300.1375
1676.63211	13697.7375
1679.90115	13287.9375
1683.16801	12959.9375
1686.43272	12744.8375
1689.69527	12515.4375
1692.95567	12329.5375
1696.2139	12178.2375
1699.46999	12005.3375
1702.72392	11963.4375
1705.97571	11990.5375
1709.22535	12057.8375
1712.47284	12072.6375
1715.71819	12050.9375
1718.96139	12013.0375
1722.20246	11909.7375
1725.44139	11797.7375
1728.67818	11645.1375
1731.91284	11534.2375
1735.14537	11423.6375
1738.37576	11348.9375
1741.60403	11277.0375
1744.83017	11213.8375
1748.05418	11175.9375
1751.27607	11101.6375
1754.49584	11007.5375
1757.71349	10928.7375
1760.92903	10855.3375
1764.14244	10810.3375
1767.35375	10793.3375
1770.56294	10706.4375
1773.77002	10660.2375
1776.97499	10674.4375
1780.17785	10671.9375
1783.37861	10668.3375
1786.57727	10611.0375
1789.77382	10621.9375
1792.96828	10608.3375
1796.16064	10573.2375
1799.3509	10567.2375
1802.53907	10531.5375
1805.72514	10488.1375
1808.90913	10454.4375
1812.09102	10400.5375
1815.27083	10392.9375
1818.44856	10368.6375
1821.6242	10310.8375
1824.79776	10339.9375
1827.96924	10312.7375
1831.13864	10312.1375
1834.30597	10293.4375
1837.47122	10270.1375
1840.6344	10259.6375
1843.7955	10266.4375
1846.95454	10269.2375
1850.11151	10220.7375
1853.26642	10223.9375
1856.41926	10236.2375
1859.57004	10218.4375
1862.71876	10228.7375
1865.86542	10242.8375
1869.01003	10227.6375
1872.15258	10198.1375
1875.29308	10228.6375
1878.43152	10213.3375
1881.56792	10221.0375
1884.70227	10229.2375
1887.83457	10255.4375
1890.96482	10231.8375
1894.09304	10221.0375
1897.21921	10211.5375
1900.34335	10240.0375
1903.46544	10217.7375
1906.58551	10203.5375
1909.70353	10219.6375
1912.81953	10228.1375
1915.93349	10174.9375
1919.04543	10130.7375
1922.15534	10097.3375
1925.26322	10038.7375
1928.36908	9986.8375
1931.47292	9954.5375
1934.57473	9873.3375
1937.67453	9829.6375
1940.77232	9793.3375
1943.86808	9751.9375
1946.96184	9758.2375
1950.05358	9722.0375
1953.14331	9678.2375
1956.23103	9632.9375
1959.31675	9595.1375
1962.40046	9576.5375
1965.48217	9593.7375
1968.56188	9568.2375
1971.63959	9535.1375
1974.7153	9509.9375
1977.78901	9487.9375
1980.86073	9419.2375
1983.93046	9374.1375
1986.99819	9352.9375
1990.06394	9296.1375
1993.1277	9266.2375
1996.18947	9228.7375
1999.24925	9180.8375
2002.30706	9160.5375
2005.36288	9119.5375
2008.41672	9106.0375
2011.46859	9062.9375
2014.51848	9061.6375
2017.56639	9033.4375
2020.61233	9014.8375
2023.6563	8976.3375
2026.6983	8940.5375
2029.73833	8934.8375
2032.7764	8914.6375
2035.8125	8907.8375
2038.84664	8886.3375
2041.87881	8862.2375
2044.90903	8855.3375
2047.93729	8832.4375
2050.96359	8852.9375
2053.98794	8818.4375
2057.01034	8797.7375
2060.03078	8808.2375
2063.04927	8779.2375
2066.06582	8766.5375
2069.08042	8735.6375
2072.09307	8756.3375
2075.10378	8731.1375
2078.11255	8721.6375
2081.11938	8709.2375
2084.12426	8716.7375
2087.12722	8704.6375
2090.12824	8705.9375
2093.12732	8711.6375
2096.12447	8727.4375
2099.11969	8703.4375
2102.11299	8697.8375
2105.10435	8711.6375
2108.09379	8727.6375
2111.08131	8756.2375
2114.0669	8719.0375
2117.05057	8725.2375
2120.03233	8765.9375
2123.01216	8758.0375
2125.99008	8775.4375
2128.96609	8751.8375
2131.94018	8784.5375
2134.91236	8768.0375
2137.88263	8752.8375
2140.851	8746.0375
2143.81746	8763.2375
2146.78201	8716.4375
2149.74466	8706.8375
2152.7054	8707.3375
2155.66425	8701.8375
2158.6212	8697.0375
2161.57625	8683.1375
2164.52941	8695.4375
2167.48067	8655.1375
2170.43004	8662.6375
2173.37752	8664.2375
2176.32311	8687.7375
2179.26681	8686.1375
2182.20863	8674.6375
2185.14856	8680.0375
2188.08661	8680.6375
2191.02278	8683.0375
2193.95707	8670.3375
2196.88948	8657.9375
2199.82001	8636.6375
2202.74867	8627.9375
2205.67545	8647.5375
2208.60037	8647.6375
2211.52341	8630.5375
2214.44458	8639.7375
2217.36388	8598.0375
2220.28132	8577.6375
2223.1969	8580.4375
2226.11061	8549.7375
2229.02246	8548.4375
2231.93245	8514.5375
2234.84058	8492.2375
2237.74686	8486.2375
2240.65128	8484.3375
2243.55385	8449.5375
2246.45456	8473.8375
2249.35343	8473.1375
2252.25044	8460.6375
2255.14561	8441.2375
2258.03893	8484.5375
2260.93041	8480.4375
2263.82004	8456.7375
2266.70783	8451.0375
2269.59378	8427.7375
2272.4779	8395.6375
2275.36017	8383.4375
2278.24061	8365.7375
2281.11922	8339.5375
2283.996	8326.7375
2286.87094	8300.9375
2289.74405	8297.9375
2292.61534	8255.7375
2295.4848	8220.2375
2298.35243	8255.0375
2301.21824	8252.2375
2304.08223	8232.7375
2306.94439	8272.9375
2309.80474	8261.8375
2312.66327	8243.1375
2315.51999	8259.3375
2318.37489	8247.3375
2321.22797	8264.5375
2324.07925	8250.8375
2326.92871	8245.0375
2329.77637	8216.5375
2332.62222	8197.1375
2335.46626	8220.1375
2338.3085	8207.0375
2341.14893	8235.4375
2343.98756	8270.4375
2346.8244	8282.0375
2349.65943	8306.1375
2352.49267	8340.3375
2355.32411	8353.1375
2358.15376	8365.4375
2360.98161	8364.7375
2363.80768	8367.5375
2366.63195	8385.5375
2369.45444	8381.0375
2372.27514	8365.7375
2375.09405	8353.0375
2377.91118	8330.9375
2380.72652	8289.2375
2383.54009	8259.4375
2386.35187	8198.2375
2389.16188	8155.3375
2391.97011	8146.5375
2394.77657	8120.2375
2397.58125	8087.1375
2400.38416	8059.0375
2403.18529	8046.3375
2405.98466	8017.7375
2408.78226	8002.0375
2411.57809	7991.1375
2414.37216	7974.9375
2417.16446	7975.9375
2419.955	7969.6375
2422.74378	7975.2375
2425.5308	7959.1375
2428.31606	7972.3375
2431.09956	7966.8375
2433.88131	7943.6375
2436.6613	7971.5375
2439.43954	7964.6375
2442.21603	7976.3375
2444.99077	7992.7375
2447.76377	7994.9375
2450.53501	8007.9375
2453.30451	8030.5375
2456.07226	8019.4375
2458.83827	8014.9375
2461.60254	8015.3375
2464.36507	8015.5375
2467.12586	7988.2375
2469.88492	8008.2375
2472.64224	8043.0375
2475.39782	8013.8375
2478.15167	8031.1375
2480.90379	8072.6375
2483.65417	8116.0375
2486.40283	8140.6375
2489.14976	8163.5375
2491.89497	8177.6375
2494.63845	8199.1375
2497.3802	8161.0375
2500.12024	8148.0375
2502.85855	8130.7375
2505.59514	8106.6375
2508.33002	8059.8375
2511.06318	8013.3375
2513.79462	8006.9375
2516.52435	7939.4375
2519.25237	7901.9375
2521.97867	7883.7375
2524.70327	7895.8375
2527.42616	7845.0375
2530.14734	7848.3375
2532.86681	7844.4375
2535.58458	7848.4375
2538.30065	7841.2375
2541.01501	7860.9375
2543.72768	7832.9375
2546.43864	7861.6375
2549.14791	7858.4375
2551.85548	7858.2375
2554.56136	7870.8375
2557.26554	7862.1375
2559.96803	7857.1375
2562.66883	7851.1375
2565.36794	7861.6375
2568.06536	7873.9375
2570.7611	7847.9375
2573.45514	7841.6375
2576.14751	7841.2375
2578.83819	7814.7375
2581.52719	7821.7375
2584.21451	7780.3375
2586.90015	7797.8375
2589.58411	7783.0375
2592.2664	7799.7375
2594.94701	7783.7375
2597.62594	7791.4375
2600.30321	7797.9375
2602.9788	7799.2375
2605.65273	7774.7375
2608.32498	7822.4375
2610.99557	7787.2375
2613.66449	7803.0375
2616.33175	7838.7375
2618.99734	7832.7375
2621.66128	7818.7375
2624.32355	7807.9375
2626.98416	7804.5375
2629.64311	7794.2375
2632.30041	7779.1375
2634.95605	7762.2375
2637.61004	7763.1375
2640.26238	7746.7375
2642.91306	7736.1375
2645.56209	7728.0375
2648.20948	7682.3375
2650.85521	7693.1375
2653.4993	7724.5375
2656.14175	7725.3375
2658.78255	7763.4375
2661.42171	7768.6375
2664.05923	7776.1375
2666.6951	7800.3375
2669.32934	7806.6375
2671.96194	7808.3375
2674.59291	7814.6375
2677.22224	7819.1375
2679.84993	7800.5375
2682.476	7802.9375
2685.10043	7787.3375
2687.72324	7774.5375
2690.34441	7758.8375
2692.96396	7731.0375
2695.58188	7766.3375
2698.19818	7734.8375
2700.81285	7738.4375
2703.4259	7710.9375
2706.03733	7635.5375
2708.64714	7699.7375
2711.25533	7727.1375
2713.86191	7749.3375
2716.46687	7766.5375
2719.07021	7758.2375
2721.67194	7790.2375
2724.27206	7791.6375
2726.87057	7770.8375
2729.46747	7815.2375
2732.06276	7757.2375
2734.65644	7762.7375
2737.24852	7754.8375
2739.83899	7739.1375
2742.42786	7739.8375
2745.01513	7741.5375
2747.60079	7718.1375
2750.18486	7713.4375
2752.76733	7708.7375
2755.3482	7701.6375
2757.92747	7685.3375
2760.50515	7658.2375
2763.08123	7696.3375
2765.65573	7677.6375
2768.22863	7668.5375
2770.79994	7680.1375
2773.36967	7683.5375
2775.9378	7669.9375
2778.50435	7658.2375
2781.06932	7652.7375
2783.6327	7694.4375
2786.1945	7691.8375
2788.75471	7689.6375
2791.31335	7692.1375
2793.87041	7700.7375
2796.42589	7669.4375
2798.97979	7674.5375
2801.53212	7651.4375
2804.08288	7673.3375
2806.63206	7659.8375
2809.17967	7665.8375
2811.72571	7647.3375
2814.27018	7662.7375
2816.81308	7683.3375
2819.35442	7705.1375
2821.89419	7694.2375
2824.43239	7718.2375
2826.96904	7721.9375
2829.50412	7726.6375
2832.03763	7691.3375
2834.56959	7690.8375
2837.1	7677.8375
2839.62884	7663.1375
2842.15613	7645.2375
2844.68186	7682.0375
2847.20604	7680.1375
2849.72867	7691.2375
2852.24974	7710.3375
2854.76927	7702.8375
2857.28724	7702.2375
2859.80367	7735.0375
2862.31855	7740.2375
2864.83189	7776.7375
2867.34368	7771.6375
2869.85393	7832.2375
2872.36264	7851.4375
2874.8698	7853.7375
2877.37543	7862.6375
2879.87952	7837.8375
2882.38207	7847.8375
2884.88308	7809.5375
2887.38256	7830.2375
2889.88051	7828.9375
2892.37692	7823.5375
2894.8718	7815.3375
2897.36515	7825.6375
2899.85698	7814.2375
2902.34727	7845.7375
2904.83604	7854.3375
2907.32328	7856.9375
2909.809	7850.5375
2912.29319	7850.7375
2914.77587	7853.1375
2917.25702	7839.9375
2919.73665	7837.5375
2922.21476	7815.9375
2924.69136	7808.2375
2927.16644	7796.7375
2929.64	7757.5375
2932.11205	7718.2375
2934.58258	7681.5375
2937.05161	7698.2375
2939.51912	7710.0375
2941.98513	7689.7375
2944.44962	7658.0375
2946.91261	7629.3375
2949.37409	7640.6375
2951.83407	7627.2375
2954.29254	7611.6375
2956.74951	7618.6375
2959.20498	7598.7375
2961.65895	7581.0375
2964.11142	7567.6375
2966.56239	7537.8375
2969.01186	7518.2375
2971.45984	7477.4375
2973.90632	7462.5375
2976.35131	7463.4375
2978.7948	7414.4375
2981.23681	7412.8375
2983.67732	7416.3375
2986.11635	7358.6375
2988.55388	7337.6375
2990.98993	7327.2375
2993.4245	7347.9375
2995.85758	7328.4375
2998.28917	7332.3375
3000.71928	7327.1375
3003.14791	7284.4375
3005.57506	7283.8375
3008.00073	7274.6375
3010.42493	7261.4375
3012.84764	7257.3375
3015.26888	7258.1375
3017.68865	7252.4375
3020.10694	7220.1375
3022.52376	7206.7375
3024.9391	7189.2375
3027.35298	7172.8375
3029.76539	7164.5375
3032.17632	7149.6375
3034.5858	7146.4375
3036.9938	7124.9375
3039.40034	7090.7375
3041.80542	7080.8375
3044.20903	7060.2375
3046.61118	7072.0375
3049.01187	7026.6375
3051.4111	7066.6375
3053.80888	7037.5375
3056.20519	7026.4375
3058.60005	7003.6375
3060.99345	6998.1375
3063.3854	6947.4375
3065.7759	6963.8375
3068.16494	6927.6375
3070.55254	6897.2375
3072.93868	6865.6375
3075.32338	6863.3375
3077.70662	6820.1375
3080.08842	6828.0375
3082.46878	6810.1375
3084.84769	6801.0375
3087.22515	6785.7375
3089.60118	6806.8375
3091.97576	6763.8375
3094.3489	6784.1375
3096.72061	6776.5375
3099.09087	6778.0375
3101.4597	6765.7375
3103.82709	6759.3375
3106.19305	6744.5375
3108.55757	6748.6375
3110.92066	6735.2375
3113.28232	6731.5375
3115.64255	6725.4375
3118.00134	6697.9375
3120.35871	6707.9375
3122.71466	6680.3375
3125.06917	6700.3375
3127.42226	6664.3375
3129.77393	6680.7375
3132.12417	6682.4375
3134.47299	6690.1375
3136.82039	6674.3375
3139.16636	6670.9375
3141.51092	6653.4375
3143.85406	6661.8375
3146.19579	6667.8375
3148.53609	6673.6375
3150.87499	6691.6375
3153.21246	6690.3375
3155.54853	6704.5375
3157.88318	6691.8375
3160.21642	6705.6375
3162.54826	6708.2375
3164.87868	6715.0375
3167.2077	6711.8375
3169.5353	6717.7375
3171.86151	6715.0375
3174.18631	6714.0375
3176.5097	6706.3375
3178.83169	6702.6375
3181.15228	6696.2375
3183.47147	6659.2375
3185.78926	6686.8375
3188.10565	6663.3375
3190.42065	6667.2375
3192.73424	6692.7375
3195.04645	6698.6375
3197.35725	6713.9375
3199.66667	6711.5375
3201.97469	6715.8375
3204.28132	6713.3375
3206.58656	6757.5375
3208.8904	6762.5375
3211.19287	6735.4375
3213.49394	6766.8375
3215.79363	6784.1375
3218.09193	6769.6375
3220.38884	6769.1375
3222.68438	6777.0375
3224.97853	6795.9375
3227.2713	6814.2375
3229.56269	6817.1375
3231.8527	6810.4375
3234.14133	6788.7375
3236.42858	6800.8375
3238.71446	6781.6375
3240.99896	6754.7375
3243.28209	6797.2375
3245.56384	6750.6375
3247.84423	6768.8375
3250.12324	6756.3375
3252.40088	6764.2375
3254.67715	6776.8375
3256.95205	6770.3375
3259.22558	6764.2375
3261.49775	6772.5375
3263.76855	6783.7375
3266.03799	6781.5375
3268.30606	6783.4375
3270.57277	6771.3375
3272.83812	6751.4375
3275.10211	6735.6375
3277.36474	6756.2375
3279.62601	6742.1375
3281.88593	6750.3375
3284.14448	6746.8375
3286.40168	6764.2375
3288.65753	6787.4375
3290.91202	6770.5375
3293.16516	6767.8375
3295.41695	6774.6375
3297.66738	6748.1375
3299.91647	6708.6375
3302.16421	6656.1375
3304.4106	6616.7375
3306.65564	6568.9375
3308.89933	6518.6375
3311.14169	6474.1375
3313.38269	6413.7375
3315.62236	6366.7375
3317.86068	6319.7375
3320.09766	6264.8375
3322.3333	6223.8375
3324.5676	6185.7375
3326.80056	6062.4375
3329.03219	6033.8375
3331.26248	2.1375
3333.49143	-0.1625
3335.71905	0.8375
