Data from AgNPs_FTO_APTES_UA_50uM_CRN_50uM_R6G_10uM_NaF_0.1M_Addition_RamanShift__24__15-00-44-993.txt Node

Date: Mon Feb 21 15:00:44 GMT 2022
User: TCL
Spectrometer: QEP01345
Trigger mode: 4
Integration Time (sec): 7.000000E0
Scans to average: 10
Electric dark correction enabled: true
Nonlinearity correction enabled: false
Boxcar width: 0
XAxis mode: Raman Shifts
Number of Pixels in Spectrum: 1044
>>>>>Begin Spectral Data<<<<<
46.04893	-0.2125
50.45542	-0.8125
54.85868	-0.6125
59.25871	-1.3125
63.6555	59.7875
68.04907	66.2875
72.43941	69.8875
76.82654	71.3875
81.21044	77.5875
85.59113	82.0875
89.96862	80.5875
94.34289	84.3875
98.71396	84.8875
103.08183	94.0875
107.4465	94.6875
111.80798	96.7875
116.16626	95.7875
120.52136	97.6875
124.87327	106.7875
129.222	103.5875
133.56755	111.6875
137.90993	117.0875
142.24913	124.8875
146.58517	135.1875
150.91804	153.5875
155.24774	178.4875
159.57429	217.3875
163.89768	277.5875
168.21792	367.9875
172.53501	496.0875
176.84895	691.8875
181.15975	969.2875
185.46741	1338.3875
189.77193	1852.8875
194.07331	2469.6875
198.37157	3199.0875
202.6667	3948.2875
206.9587	4720.8875
211.24758	5468.3875
215.53334	6238.2875
219.81599	7075.4875
224.09553	8020.0875
228.37195	9086.6875
232.64527	10238.1875
236.91549	11440.3875
241.18261	12603.5875
245.44663	13580.0875
249.70755	14419.4875
253.96539	15131.8875
258.22014	15763.0875
262.4718	16239.0875
266.72039	16595.5875
270.96589	16760.5875
275.20832	16699.3875
279.44768	16503.9875
283.68397	16232.1875
287.91719	16034.7875
292.14735	15975.7875
296.37445	16182.7875
300.59849	16573.9875
304.81948	16972.9875
309.03742	17276.5875
313.25231	17125.1875
317.46415	16510.5875
321.67296	15607.9875
325.87872	14918.8875
330.08145	14592.4875
334.28114	14619.0875
338.47781	14820.8875
342.67145	15143.9875
346.86207	15620.7875
351.04966	16304.4875
355.23424	17060.2875
359.4158	17677.3875
363.59435	18026.2875
367.76989	18217.2875
371.94243	18270.3875
376.11196	18291.2875
380.27849	18297.0875
384.44203	18178.1875
388.60257	18095.3875
392.76012	18019.6875
396.91468	18152.9875
401.06626	18487.6875
405.21485	18757.0875
409.36047	18544.2875
413.50311	17842.5875
417.64277	17191.4875
421.77947	16810.4875
425.9132	16658.4875
430.04396	16645.8875
434.17176	16751.7875
438.2966	16976.9875
442.41849	17377.7875
446.53742	17829.1875
450.6534	18311.7875
454.76644	18688.8875
458.87653	18845.3875
462.98368	18694.1875
467.08789	18420.1875
471.18916	18071.2875
475.2875	17719.8875
479.38291	17492.3875
483.4754	17250.7875
487.56496	17051.1875
491.6516	16881.7875
495.73531	16780.8875
499.81612	16792.4875
503.89401	16974.4875
507.96899	17154.4875
512.04106	17285.9875
516.11023	17486.1875
520.1765	17595.5875
524.23987	17527.2875
528.30034	17394.0875
532.35792	17232.6875
536.41261	17017.3875
540.46441	16737.7875
544.51333	16587.6875
548.55936	16644.4875
552.60252	16921.4875
556.64279	17242.4875
560.6802	17368.5875
564.71473	17498.2875
568.7464	17903.9875
572.7752	18160.5875
576.80114	17999.7875
580.82422	17690.4875
584.84444	17638.8875
588.86181	17773.5875
592.87633	18049.9875
596.888	18363.4875
600.89682	18736.0875
604.9028	20209.5875
608.90594	24301.9875
612.90624	29291.5875
616.90371	27771.6875
620.89834	21027.0875
624.89015	18026.2875
628.87913	17519.3875
632.86528	17587.8875
636.84862	17712.7875
640.82913	17459.6875
644.80683	16819.8875
648.78172	16343.1875
652.75379	16316.8875
656.72306	16719.8875
660.68952	17328.6875
664.65319	17220.1875
668.61405	16694.0875
672.57211	16494.5875
676.52738	16556.7875
680.47986	16575.6875
684.42955	16396.6875
688.37646	16247.9875
692.32058	16246.3875
696.26192	16334.9875
700.20048	16520.2875
704.13626	16610.3875
708.06928	16497.0875
711.99952	16407.3875
715.927	16312.0875
719.85171	16380.6875
723.77365	16410.0875
727.69284	16353.2875
731.60928	16232.5875
735.52295	16270.0875
739.43388	16324.5875
743.34206	16396.6875
747.24749	16439.8875
751.15017	16510.8875
755.05012	16720.0875
758.94733	17326.5875
762.8418	18683.7875
766.73354	21061.8875
770.62254	23571.1875
774.50882	24870.3875
778.39237	23846.7875
782.27321	21139.2875
786.15132	18682.3875
790.02671	17256.9875
793.89938	16593.1875
797.76935	16308.5875
801.6366	16198.4875
805.50115	16111.5875
809.36299	16063.1875
813.22213	15938.0875
817.07857	15892.3875
820.93231	15871.2875
824.78336	15881.3875
828.63172	15899.6875
832.47738	15915.9875
836.32036	15964.7875
840.16066	15935.7875
843.99827	15947.1875
847.8332	15917.7875
851.66546	15881.9875
855.49504	15843.8875
859.32195	15897.0875
863.1462	15865.3875
866.96777	15854.5875
870.78668	15822.7875
874.60293	15841.0875
878.41652	15859.6875
882.22745	15963.8875
886.03573	16022.6875
889.84136	15970.1875
893.64433	15875.4875
897.44466	15806.2875
901.24235	15774.4875
905.0374	15698.2875
908.8298	15590.3875
912.61957	15563.6875
916.40671	15619.1875
920.19121	15779.8875
923.97308	15969.6875
927.75233	16116.4875
931.52895	16267.8875
935.30295	16151.0875
939.07433	15796.7875
942.84309	15495.0875
946.60924	15299.8875
950.37278	15211.0875
954.13371	15135.2875
957.89203	15027.0875
961.64774	15009.6875
965.40086	14906.8875
969.15137	14842.5875
972.89929	14817.5875
976.64461	14767.5875
980.38733	14779.8875
984.12747	14828.7875
987.86502	14975.2875
991.59999	15157.9875
995.33237	15460.8875
999.06217	15929.8875
1002.78939	16444.5875
1006.51404	16862.4875
1010.23611	17016.4875
1013.95561	17200.3875
1017.67255	17206.9875
1021.38692	17083.9875
1025.09872	16890.9875
1028.80796	17029.6875
1032.51465	17465.9875
1036.21877	17915.9875
1039.92035	18024.0875
1043.61937	17819.3875
1047.31584	17413.6875
1051.00976	16964.6875
1054.70114	16653.5875
1058.38998	16521.9875
1062.07627	16528.8875
1065.76003	16571.3875
1069.44126	16555.4875
1073.11995	16650.6875
1076.79611	16816.3875
1080.46974	17004.6875
1084.14085	17336.6875
1087.80943	17689.4875
1091.47549	17802.7875
1095.13903	17614.2875
1098.80005	17191.6875
1102.45857	16849.1875
1106.11456	16750.9875
1109.76805	16902.6875
1113.41903	17200.9875
1117.06751	17681.1875
1120.71348	18240.4875
1124.35696	18826.3875
1127.99793	19276.2875
1131.63641	19202.7875
1135.2724	18637.8875
1138.90589	18057.1875
1142.5369	17672.6875
1146.16542	17288.1875
1149.79145	17078.8875
1153.415	17065.2875
1157.03607	17196.0875
1160.65467	17536.3875
1164.27079	18080.3875
1167.88443	18996.2875
1171.49561	20280.4875
1175.10432	22162.3875
1178.71056	24776.5875
1182.31434	27116.9875
1185.91565	28139.5875
1189.51451	27628.2875
1193.11091	26074.6875
1196.70485	24275.5875
1200.29634	22873.0875
1203.88538	21883.9875
1207.47197	20854.5875
1211.05612	19932.4875
1214.63782	19384.8875
1218.21708	19233.3875
1221.79391	19339.2875
1225.36829	19448.9875
1228.94024	19349.7875
1232.50976	19158.0875
1236.07685	18955.4875
1239.6415	18890.5875
1243.20374	18906.1875
1246.76355	19038.1875
1250.32093	19321.4875
1253.8759	19741.9875
1257.42845	20292.8875
1260.97859	20919.3875
1264.52631	21448.2875
1268.07163	22017.6875
1271.61453	22718.4875
1275.15503	23349.2875
1278.69312	23906.4875
1282.22882	24297.2875
1285.76211	24788.2875
1289.29301	25277.2875
1292.82151	25942.6875
1296.34761	26847.0875
1299.87133	28271.2875
1303.39266	30513.3875
1306.9116	33641.4875
1310.42815	36783.3875
1313.94233	38347.8875
1317.45412	37246.0875
1320.96354	34905.3875
1324.47058	32538.7875
1327.97525	30499.6875
1331.47754	29272.7875
1334.97747	28871.0875
1338.47502	29069.4875
1341.97022	29773.4875
1345.46305	30651.3875
1348.95352	31754.2875
1352.44163	33259.4875
1355.92738	35810.4875
1359.41078	39873.1875
1362.89183	43370.3875
1366.37053	41698.2875
1369.84688	35693.3875
1373.32088	30125.0875
1376.79254	26651.1875
1380.26186	24836.3875
1383.72883	23936.8875
1387.19347	23274.0875
1390.65578	22630.6875
1394.11575	22280.1875
1397.57339	22264.4875
1401.0287	22536.8875
1404.48168	22877.1875
1407.93234	23208.1875
1411.38068	23424.3875
1414.82669	23402.5875
1418.27039	23075.9875
1421.71177	22540.5875
1425.15083	21986.5875
1428.58758	21673.5875
1432.02203	21743.9875
1435.45416	21955.1875
1438.88399	22142.7875
1442.31151	22298.6875
1445.73673	22436.6875
1449.15965	22650.7875
1452.58027	22703.9875
1455.9986	22664.7875
1459.41463	22692.1875
1462.82837	23000.4875
1466.23982	23491.7875
1469.64898	23984.8875
1473.05586	24390.2875
1476.46045	24499.4875
1479.86276	24705.5875
1483.26279	24917.0875
1486.66054	25200.9875
1490.05602	25738.3875
1493.44922	26566.9875
1496.84016	27759.7875
1500.22882	29636.8875
1503.61521	32474.2875
1506.99934	35874.5875
1510.38121	38506.5875
1513.76081	38812.3875
1517.13816	36292.7875
1520.51324	32302.8875
1523.88607	28876.2875
1527.25665	26658.1875
1530.62498	25434.8875
1533.99105	24655.3875
1537.35488	24186.8875
1540.71647	23958.4875
1544.07581	23833.3875
1547.4329	23695.3875
1550.78776	23672.3875
1554.14038	23695.7875
1557.49077	23882.4875
1560.83892	24162.0875
1564.18484	24541.1875
1567.52853	24931.5875
1570.86999	25221.2875
1574.20922	25413.5875
1577.54624	25286.3875
1580.88103	24424.2875
1584.2136	23391.0875
1587.54395	23080.9875
1590.87208	23724.5875
1594.19801	25166.0875
1597.52172	26950.2875
1600.84321	27752.9875
1604.16251	26909.6875
1607.47959	25181.5875
1610.79447	23277.1875
1614.10715	21491.7875
1617.41763	20040.9875
1620.7259	19125.1875
1624.03199	18726.9875
1627.33587	18788.1875
1630.63757	19303.6875
1633.93707	20331.2875
1637.23439	21828.0875
1640.52951	23901.6875
1643.82246	26476.7875
1647.11321	29038.1875
1650.40179	30359.6875
1653.68819	28916.8875
1656.97241	25198.0875
1660.25446	21486.6875
1663.53433	18915.7875
1666.81203	17379.1875
1670.08756	16448.8875
1673.36092	15921.7875
1676.63211	15526.0875
1679.90115	15270.7875
1683.16801	15064.4875
1686.43272	14887.6875
1689.69527	14764.0875
1692.95567	14621.0875
1696.2139	14485.1875
1699.46999	14364.4875
1702.72392	14308.4875
1705.97571	14351.4875
1709.22535	14403.4875
1712.47284	14504.4875
1715.71819	14514.2875
1718.96139	14478.8875
1722.20246	14428.3875
1725.44139	14370.8875
1728.67818	14305.3875
1731.91284	14225.9875
1735.14537	14141.4875
1738.37576	14116.8875
1741.60403	14071.5875
1744.83017	14005.7875
1748.05418	13979.1875
1751.27607	13941.3875
1754.49584	13875.7875
1757.71349	13778.1875
1760.92903	13730.1875
1764.14244	13701.3875
1767.35375	13712.1875
1770.56294	13664.0875
1773.77002	13678.8875
1776.97499	13680.8875
1780.17785	13692.1875
1783.37861	13694.6875
1786.57727	13719.7875
1789.77382	13717.4875
1792.96828	13690.7875
1796.16064	13674.2875
1799.3509	13667.0875
1802.53907	13672.7875
1805.72514	13627.3875
1808.90913	13588.5875
1812.09102	13567.3875
1815.27083	13554.6875
1818.44856	13517.0875
1821.6242	13479.4875
1824.79776	13498.3875
1827.96924	13490.8875
1831.13864	13447.5875
1834.30597	13449.0875
1837.47122	13436.7875
1840.6344	13415.1875
1843.7955	13438.9875
1846.95454	13443.9875
1850.11151	13423.8875
1853.26642	13441.0875
1856.41926	13404.9875
1859.57004	13427.3875
1862.71876	13433.7875
1865.86542	13398.8875
1869.01003	13425.7875
1872.15258	13420.1875
1875.29308	13411.2875
1878.43152	13427.5875
1881.56792	13431.5875
1884.70227	13417.7875
1887.83457	13410.6875
1890.96482	13422.7875
1894.09304	13391.0875
1897.21921	13375.8875
1900.34335	13401.6875
1903.46544	13404.6875
1906.58551	13378.1875
1909.70353	13395.3875
1912.81953	13413.8875
1915.93349	13388.5875
1919.04543	13364.0875
1922.15534	13308.0875
1925.26322	13285.9875
1928.36908	13258.9875
1931.47292	13232.5875
1934.57473	13177.9875
1937.67453	13150.4875
1940.77232	13139.6875
1943.86808	13083.3875
1946.96184	13032.2875
1950.05358	12997.3875
1953.14331	12939.5875
1956.23103	12930.1875
1959.31675	12865.4875
1962.40046	12839.9875
1965.48217	12808.7875
1968.56188	12797.8875
1971.63959	12786.2875
1974.7153	12752.7875
1977.78901	12700.2875
1980.86073	12654.5875
1983.93046	12598.0875
1986.99819	12540.4875
1990.06394	12527.0875
1993.1277	12509.9875
1996.18947	12456.0875
1999.24925	12413.6875
2002.30706	12372.5875
2005.36288	12345.0875
2008.41672	12345.8875
2011.46859	12274.1875
2014.51848	12245.8875
2017.56639	12228.7875
2020.61233	12193.9875
2023.6563	12180.9875
2026.6983	12119.2875
2029.73833	12121.2875
2032.7764	12086.7875
2035.8125	12094.8875
2038.84664	12070.4875
2041.87881	12064.9875
2044.90903	12059.2875
2047.93729	12038.1875
2050.96359	12000.7875
2053.98794	12003.8875
2057.01034	11985.9875
2060.03078	12005.6875
2063.04927	11987.3875
2066.06582	11949.1875
2069.08042	11923.0875
2072.09307	11920.5875
2075.10378	11917.8875
2078.11255	11914.9875
2081.11938	11904.4875
2084.12426	11896.1875
2087.12722	11920.4875
2090.12824	11891.5875
2093.12732	11893.9875
2096.12447	11909.8875
2099.11969	11864.2875
2102.11299	11906.5875
2105.10435	11901.9875
2108.09379	11902.4875
2111.08131	11923.2875
2114.0669	11888.9875
2117.05057	11919.4875
2120.03233	11938.6875
2123.01216	11961.7875
2125.99008	11995.9875
2128.96609	11970.4875
2131.94018	11991.0875
2134.91236	11983.0875
2137.88263	11984.4875
2140.851	12017.1875
2143.81746	12002.6875
2146.78201	12008.5875
2149.74466	12037.9875
2152.7054	12010.8875
2155.66425	11996.9875
2158.6212	11996.6875
2161.57625	12013.7875
2164.52941	11995.6875
2167.48067	11994.2875
2170.43004	11977.5875
2173.37752	11983.2875
2176.32311	11966.6875
2179.26681	11991.6875
2182.20863	11996.6875
2185.14856	12005.5875
2188.08661	12017.5875
2191.02278	12010.0875
2193.95707	11992.1875
2196.88948	12032.4875
2199.82001	12012.4875
2202.74867	12018.4875
2205.67545	11987.4875
2208.60037	11992.7875
2211.52341	11984.6875
2214.44458	11981.8875
2217.36388	11948.6875
2220.28132	11943.9875
2223.1969	11902.3875
2226.11061	11939.9875
2229.02246	11887.5875
2231.93245	11869.1875
2234.84058	11841.1875
2237.74686	11803.5875
2240.65128	11802.3875
2243.55385	11818.9875
2246.45456	11805.1875
2249.35343	11766.5875
2252.25044	11756.0875
2255.14561	11751.4875
2258.03893	11773.4875
2260.93041	11732.8875
2263.82004	11716.4875
2266.70783	11704.4875
2269.59378	11678.2875
2272.4779	11656.9875
2275.36017	11617.0875
2278.24061	11609.9875
2281.11922	11568.8875
2283.996	11559.0875
2286.87094	11548.4875
2289.74405	11530.4875
2292.61534	11540.5875
2295.4848	11484.2875
2298.35243	11507.5875
2301.21824	11487.1875
2304.08223	11495.1875
2306.94439	11514.0875
2309.80474	11510.5875
2312.66327	11533.7875
2315.51999	11514.7875
2318.37489	11524.4875
2321.22797	11528.7875
2324.07925	11507.0875
2326.92871	11530.0875
2329.77637	11496.6875
2332.62222	11493.6875
2335.46626	11454.6875
2338.3085	11458.3875
2341.14893	11475.1875
2343.98756	11477.4875
2346.8244	11515.2875
2349.65943	11519.5875
2352.49267	11503.3875
2355.32411	11541.4875
2358.15376	11511.6875
2360.98161	11519.4875
2363.80768	11515.1875
2366.63195	11503.6875
2369.45444	11479.6875
2372.27514	11450.0875
2375.09405	11433.4875
2377.91118	11411.6875
2380.72652	11401.2875
2383.54009	11346.1875
2386.35187	11318.6875
2389.16188	11261.0875
2391.97011	11259.0875
2394.77657	11240.9875
2397.58125	11243.7875
2400.38416	11245.8875
2403.18529	11206.3875
2405.98466	11173.2875
2408.78226	11154.2875
2411.57809	11116.3875
2414.37216	11095.3875
2417.16446	11104.2875
2419.955	11076.3875
2422.74378	11075.9875
2425.5308	11059.2875
2428.31606	11063.2875
2431.09956	11077.1875
2433.88131	11066.8875
2436.6613	11067.4875
2439.43954	11042.8875
2442.21603	11072.0875
2444.99077	11058.6875
2447.76377	11071.9875
2450.53501	11080.8875
2453.30451	11070.0875
2456.07226	11043.4875
2458.83827	11022.9875
2461.60254	11044.0875
2464.36507	11047.7875
2467.12586	11035.9875
2469.88492	11035.8875
2472.64224	11074.6875
2475.39782	11037.2875
2478.15167	11064.1875
2480.90379	11078.5875
2483.65417	11089.8875
2486.40283	11103.2875
2489.14976	11138.7875
2491.89497	11114.2875
2494.63845	11146.6875
2497.3802	11115.8875
2500.12024	11123.1875
2502.85855	11113.2875
2505.59514	11074.7875
2508.33002	11067.2875
2511.06318	11024.5875
2513.79462	11008.0875
2516.52435	10995.9875
2519.25237	10966.3875
2521.97867	10952.0875
2524.70327	10958.8875
2527.42616	10946.2875
2530.14734	10928.0875
2532.86681	10945.5875
2535.58458	10929.1875
2538.30065	10933.6875
2541.01501	10942.7875
2543.72768	10914.6875
2546.43864	10910.0875
2549.14791	10903.4875
2551.85548	10875.5875
2554.56136	10865.7875
2557.26554	10849.4875
2559.96803	10856.3875
2562.66883	10847.5875
2565.36794	10820.1875
2568.06536	10848.9875
2570.7611	10815.7875
2573.45514	10834.8875
2576.14751	10809.7875
2578.83819	10773.6875
2581.52719	10779.0875
2584.21451	10772.1875
2586.90015	10780.8875
2589.58411	10748.0875
2592.2664	10769.4875
2594.94701	10732.8875
2597.62594	10746.4875
2600.30321	10751.1875
2602.9788	10759.9875
2605.65273	10758.0875
2608.32498	10751.0875
2610.99557	10741.0875
2613.66449	10785.6875
2616.33175	10773.0875
2618.99734	10791.7875
2621.66128	10764.0875
2624.32355	10774.6875
2626.98416	10759.7875
2629.64311	10763.1875
2632.30041	10756.7875
2634.95605	10724.1875
2637.61004	10703.7875
2640.26238	10695.1875
2642.91306	10682.0875
2645.56209	10670.1875
2648.20948	10619.9875
2650.85521	10629.8875
2653.4993	10640.1875
2656.14175	10637.1875
2658.78255	10660.4875
2661.42171	10643.0875
2664.05923	10670.8875
2666.6951	10680.0875
2669.32934	10735.5875
2671.96194	10711.5875
2674.59291	10700.9875
2677.22224	10740.4875
2679.84993	10706.5875
2682.476	10719.7875
2685.10043	10668.8875
2687.72324	10663.9875
2690.34441	10692.3875
2692.96396	10668.3875
2695.58188	10668.2875
2698.19818	10644.3875
2700.81285	10617.1875
2703.4259	10623.8875
2706.03733	10546.2875
2708.64714	10604.7875
2711.25533	10604.1875
2713.86191	10626.5875
2716.46687	10643.1875
2719.07021	10651.4875
2721.67194	10679.9875
2724.27206	10684.4875
2726.87057	10691.7875
2729.46747	10679.3875
2732.06276	10685.3875
2734.65644	10660.1875
2737.24852	10685.3875
2739.83899	10654.4875
2742.42786	10661.5875
2745.01513	10636.0875
2747.60079	10647.6875
2750.18486	10641.6875
2752.76733	10653.6875
2755.3482	10625.9875
2757.92747	10637.9875
2760.50515	10623.2875
2763.08123	10609.2875
2765.65573	10591.8875
2768.22863	10575.1875
2770.79994	10583.8875
2773.36967	10585.2875
2775.9378	10563.2875
2778.50435	10565.7875
2781.06932	10575.9875
2783.6327	10591.3875
2786.1945	10558.5875
2788.75471	10579.8875
2791.31335	10554.0875
2793.87041	10550.5875
2796.42589	10504.9875
2798.97979	10512.5875
2801.53212	10503.1875
2804.08288	10493.8875
2806.63206	10472.4875
2809.17967	10461.6875
2811.72571	10426.7875
2814.27018	10456.3875
2816.81308	10415.4875
2819.35442	10455.5875
2821.89419	10443.6875
2824.43239	10440.6875
2826.96904	10446.0875
2829.50412	10450.7875
2832.03763	10417.3875
2834.56959	10413.0875
2837.1	10412.1875
2839.62884	10416.4875
2842.15613	10382.7875
2844.68186	10402.8875
2847.20604	10403.7875
2849.72867	10399.5875
2852.24974	10421.6875
2854.76927	10396.3875
2857.28724	10360.3875
2859.80367	10366.1875
2862.31855	10352.6875
2864.83189	10357.4875
2867.34368	10354.6875
2869.85393	10351.4875
2872.36264	10386.2875
2874.8698	10355.2875
2877.37543	10376.4875
2879.87952	10346.5875
2882.38207	10365.4875
2884.88308	10354.0875
2887.38256	10368.0875
2889.88051	10380.6875
2892.37692	10370.4875
2894.8718	10368.1875
2897.36515	10396.3875
2899.85698	10399.7875
2902.34727	10412.7875
2904.83604	10413.3875
2907.32328	10454.3875
2909.809	10442.1875
2912.29319	10481.0875
2914.77587	10474.4875
2917.25702	10457.4875
2919.73665	10461.2875
2922.21476	10453.4875
2924.69136	10414.1875
2927.16644	10438.2875
2929.64	10414.1875
2932.11205	10395.8875
2934.58258	10349.7875
2937.05161	10358.9875
2939.51912	10347.3875
2941.98513	10364.7875
2944.44962	10360.1875
2946.91261	10324.7875
2949.37409	10320.3875
2951.83407	10295.5875
2954.29254	10320.1875
2956.74951	10292.7875
2959.20498	10292.6875
2961.65895	10260.3875
2964.11142	10251.4875
2966.56239	10239.9875
2969.01186	10216.4875
2971.45984	10201.6875
2973.90632	10185.9875
2976.35131	10155.2875
2978.7948	10127.5875
2981.23681	10115.4875
2983.67732	10105.9875
2986.11635	10065.9875
2988.55388	10031.9875
2990.98993	10025.0875
2993.4245	10035.4875
2995.85758	10018.9875
2998.28917	9994.7875
3000.71928	9997.0875
3003.14791	9964.0875
3005.57506	9941.0875
3008.00073	9917.6875
3010.42493	9904.2875
3012.84764	9916.0875
3015.26888	9911.7875
3017.68865	9881.5875
3020.10694	9867.3875
3022.52376	9860.5875
3024.9391	9847.5875
3027.35298	9820.9875
3029.76539	9811.8875
3032.17632	9811.2875
3034.5858	9779.0875
3036.9938	9783.7875
3039.40034	9769.7875
3041.80542	9761.1875
3044.20903	9730.8875
3046.61118	9734.3875
3049.01187	9728.1875
3051.4111	9727.6875
3053.80888	9688.0875
3056.20519	9670.6875
3058.60005	9633.7875
3060.99345	9654.2875
3063.3854	9606.3875
3065.7759	9589.2875
3068.16494	9577.5875
3070.55254	9537.5875
3072.93868	9522.0875
3075.32338	9472.9875
3077.70662	9469.5875
3080.08842	9445.7875
3082.46878	9436.2875
3084.84769	9414.5875
3087.22515	9413.4875
3089.60118	9424.4875
3091.97576	9420.2875
3094.3489	9420.0875
3096.72061	9427.2875
3099.09087	9406.1875
3101.4597	9404.8875
3103.82709	9416.4875
3106.19305	9398.8875
3108.55757	9392.1875
3110.92066	9384.6875
3113.28232	9359.8875
3115.64255	9334.3875
3118.00134	9325.0875
3120.35871	9316.1875
3122.71466	9315.8875
3125.06917	9292.9875
3127.42226	9285.2875
3129.77393	9284.6875
3132.12417	9259.7875
3134.47299	9251.4875
3136.82039	9259.9875
3139.16636	9276.3875
3141.51092	9269.6875
3143.85406	9259.4875
3146.19579	9267.8875
3148.53609	9267.9875
3150.87499	9253.6875
3153.21246	9276.3875
3155.54853	9303.1875
3157.88318	9302.0875
3160.21642	9288.9875
3162.54826	9291.1875
3164.87868	9268.4875
3167.2077	9296.6875
3169.5353	9308.6875
3171.86151	9306.7875
3174.18631	9289.2875
3176.5097	9281.8875
3178.83169	9255.3875
3181.15228	9277.1875
3183.47147	9259.2875
3185.78926	9253.6875
3188.10565	9261.5875
3190.42065	9270.0875
3192.73424	9268.5875
3195.04645	9273.8875
3197.35725	9275.6875
3199.66667	9259.3875
3201.97469	9276.6875
3204.28132	9244.8875
3206.58656	9278.2875
3208.8904	9277.6875
3211.19287	9258.3875
3213.49394	9288.6875
3215.79363	9295.7875
3218.09193	9315.7875
3220.38884	9289.5875
3222.68438	9305.4875
3224.97853	9280.3875
3227.2713	9285.3875
3229.56269	9287.7875
3231.8527	9278.9875
3234.14133	9256.5875
3236.42858	9254.0875
3238.71446	9241.7875
3240.99896	9220.0875
3243.28209	9210.4875
3245.56384	9195.7875
3247.84423	9205.9875
3250.12324	9196.4875
3252.40088	9203.8875
3254.67715	9226.3875
3256.95205	9175.6875
3259.22558	9186.3875
3261.49775	9184.6875
3263.76855	9200.9875
3266.03799	9185.2875
3268.30606	9150.9875
3270.57277	9173.2875
3272.83812	9151.3875
3275.10211	9136.7875
3277.36474	9133.8875
3279.62601	9099.8875
3281.88593	9084.8875
3284.14448	9092.2875
3286.40168	9096.4875
3288.65753	9105.7875
3290.91202	9109.4875
3293.16516	9113.8875
3295.41695	9078.3875
3297.66738	9011.8875
3299.91647	8982.1875
3302.16421	8940.5875
3304.4106	8884.7875
3306.65564	8835.2875
3308.89933	8759.7875
3311.14169	8729.3875
3313.38269	8628.6875
3315.62236	8581.7875
3317.86068	8505.1875
3320.09766	8451.1875
3322.3333	8392.3875
3324.5676	8357.6875
3326.80056	8244.5875
3329.03219	8183.6875
3331.26248	3.1875
3333.49143	-1.7125
3335.71905	0.6875
