Data from AgNPs_FTO_APTES_UA_50uM_CRN_200uM_R6G_10uM_NaF_0.1M_Addition_RamanShift__31__16-30-35-104.txt Node

Date: Mon Feb 21 16:30:35 GMT 2022
User: TCL
Spectrometer: QEP01345
Trigger mode: 4
Integration Time (sec): 7.000000E0
Scans to average: 10
Electric dark correction enabled: true
Nonlinearity correction enabled: false
Boxcar width: 0
XAxis mode: Raman Shifts
Number of Pixels in Spectrum: 1044
>>>>>Begin Spectral Data<<<<<
46.04893	0.4875
50.45542	0.2875
54.85868	0.0875
59.25871	-1.3125
63.6555	37.8875
68.04907	47.4875
72.43941	48.3875
76.82654	49.5875
81.21044	52.6875
85.59113	56.4875
89.96862	60.1875
94.34289	59.7875
98.71396	64.7875
103.08183	65.0875
107.4465	67.3875
111.80798	65.1875
116.16626	64.0875
120.52136	64.7875
124.87327	74.7875
129.222	71.1875
133.56755	73.1875
137.90993	82.0875
142.24913	83.7875
146.58517	88.9875
150.91804	100.9875
155.24774	119.2875
159.57429	141.7875
163.89768	180.7875
168.21792	236.9875
172.53501	318.3875
176.84895	438.0875
181.15975	605.6875
185.46741	844.4875
189.77193	1168.4875
194.07331	1558.9875
198.37157	2014.7875
202.6667	2486.7875
206.9587	2991.0875
211.24758	3468.4875
215.53334	4006.3875
219.81599	4620.8875
224.09553	5330.1875
228.37195	6129.9875
232.64527	7011.3875
236.91549	7843.9875
241.18261	8582.2875
245.44663	9151.9875
249.70755	9557.9875
253.96539	9831.6875
258.22014	10033.0875
262.4718	10176.6875
266.72039	10206.2875
270.96589	10203.8875
275.20832	10029.0875
279.44768	9759.7875
283.68397	9487.7875
287.91719	9306.5875
292.14735	9421.6875
296.37445	9897.4875
300.59849	10723.8875
304.81948	11716.0875
309.03742	12457.7875
313.25231	12523.2875
317.46415	11655.6875
321.67296	10223.4875
325.87872	9005.9875
330.08145	8490.8875
334.28114	8437.6875
338.47781	8729.3875
342.67145	9143.5875
346.86207	9835.7875
351.04966	10891.9875
355.23424	12080.3875
359.4158	12915.2875
363.59435	13221.9875
367.76989	13271.5875
371.94243	13128.3875
376.11196	12926.1875
380.27849	12695.8875
384.44203	12367.2875
388.60257	11910.4875
392.76012	11631.0875
396.91468	11667.9875
401.06626	12065.4875
405.21485	12354.1875
409.36047	11851.0875
413.50311	10671.0875
417.64277	9567.0875
421.77947	8859.7875
425.9132	8552.7875
430.04396	8437.8875
434.17176	8447.6875
438.2966	8640.4875
442.41849	8960.6875
446.53742	9344.2875
450.6534	9644.0875
454.76644	9808.1875
458.87653	9719.1875
462.98368	9562.9875
467.08789	9310.2875
471.18916	9028.0875
475.2875	8644.9875
479.38291	8357.9875
483.4754	8124.0875
487.56496	7990.4875
491.6516	7942.3875
495.73531	7918.6875
499.81612	8013.0875
503.89401	8191.7875
507.96899	8486.6875
512.04106	8851.4875
516.11023	9263.2875
520.1765	9543.4875
524.23987	9517.7875
528.30034	9193.7875
532.35792	8864.5875
536.41261	8442.0875
540.46441	8076.2875
544.51333	7817.2875
548.55936	7870.8875
552.60252	8124.2875
556.64279	8462.6875
560.6802	8654.5875
564.71473	8989.8875
568.7464	9784.4875
572.7752	10128.9875
576.80114	9357.4875
580.82422	8456.4875
584.84444	8030.0875
588.86181	7938.7875
592.87633	7985.4875
596.888	8185.6875
600.89682	8783.8875
604.9028	10885.1875
608.90594	16820.7875
612.90624	24953.3875
616.90371	23869.2875
620.89834	13982.6875
624.89015	9350.8875
628.87913	8500.2875
632.86528	8676.0875
636.84862	9037.8875
640.82913	8828.0875
644.80683	8109.1875
648.78172	7592.2875
652.75379	7639.1875
656.72306	8331.9875
660.68952	9128.9875
664.65319	8869.9875
668.61405	7941.5875
672.57211	7429.7875
676.52738	7445.5875
680.47986	7463.7875
684.42955	7337.6875
688.37646	7217.8875
692.32058	7249.6875
696.26192	7331.2875
700.20048	7469.4875
704.13626	7547.1875
708.06928	7490.4875
711.99952	7388.1875
715.927	7398.3875
719.85171	7503.8875
723.77365	7568.3875
727.69284	7504.4875
731.60928	7415.9875
735.52295	7404.5875
739.43388	7433.7875
743.34206	7483.2875
747.24749	7494.9875
751.15017	7542.1875
755.05012	7759.6875
758.94733	8474.2875
762.8418	10288.8875
766.73354	13390.6875
770.62254	16663.1875
774.50882	18765.7875
778.39237	18117.6875
782.27321	14604.5875
786.15132	10930.0875
790.02671	8896.9875
793.89938	8049.1875
797.76935	7698.4875
801.6366	7545.0875
805.50115	7504.2875
809.36299	7447.5875
813.22213	7411.4875
817.07857	7376.4875
820.93231	7363.3875
824.78336	7386.7875
828.63172	7432.5875
832.47738	7434.6875
836.32036	7367.0875
840.16066	7270.0875
843.99827	7196.4875
847.8332	7170.0875
851.66546	7174.3875
855.49504	7200.5875
859.32195	7172.6875
863.1462	7132.6875
866.96777	7067.5875
870.78668	7071.9875
874.60293	7120.3875
878.41652	7190.0875
882.22745	7313.3875
886.03573	7393.8875
889.84136	7368.6875
893.64433	7295.4875
897.44466	7283.2875
901.24235	7275.1875
905.0374	7212.4875
908.8298	7088.5875
912.61957	7029.0875
916.40671	7012.9875
920.19121	7078.5875
923.97308	7188.0875
927.75233	7379.3875
931.52895	7666.4875
935.30295	7601.9875
939.07433	7148.7875
942.84309	6784.0875
946.60924	6567.2875
950.37278	6478.8875
954.13371	6428.8875
957.89203	6405.1875
961.64774	6381.4875
965.40086	6373.8875
969.15137	6339.7875
972.89929	6340.6875
976.64461	6333.0875
980.38733	6327.4875
984.12747	6349.1875
987.86502	6374.6875
991.59999	6410.0875
995.33237	6495.3875
999.06217	6654.6875
1002.78939	6821.3875
1006.51404	7053.9875
1010.23611	7313.3875
1013.95561	7463.1875
1017.67255	7447.9875
1021.38692	7308.2875
1025.09872	7110.6875
1028.80796	6991.8875
1032.51465	6988.4875
1036.21877	7097.1875
1039.92035	7213.2875
1043.61937	7255.0875
1047.31584	7273.6875
1051.00976	7248.9875
1054.70114	7181.3875
1058.38998	7151.8875
1062.07627	7153.9875
1065.76003	7176.9875
1069.44126	7169.0875
1073.11995	7279.1875
1076.79611	7497.1875
1080.46974	7850.0875
1084.14085	8366.4875
1087.80943	8816.3875
1091.47549	8939.9875
1095.13903	8622.5875
1098.80005	8058.0875
1102.45857	7677.8875
1106.11456	7599.1875
1109.76805	7835.2875
1113.41903	8273.6875
1117.06751	8979.6875
1120.71348	9897.0875
1124.35696	10893.4875
1127.99793	11552.7875
1131.63641	11190.5875
1135.2724	10050.1875
1138.90589	9056.0875
1142.5369	8455.9875
1146.16542	8082.7875
1149.79145	7836.9875
1153.415	7749.3875
1157.03607	7842.1875
1160.65467	8065.0875
1164.27079	8519.7875
1167.88443	9200.1875
1171.49561	10455.0875
1175.10432	12612.9875
1178.71056	15557.1875
1182.31434	17614.5875
1185.91565	17755.7875
1189.51451	16646.7875
1193.11091	14845.7875
1196.70485	13014.5875
1200.29634	11938.1875
1203.88538	11146.9875
1207.47197	10054.6875
1211.05612	9079.1875
1214.63782	8508.8875
1218.21708	8236.2875
1221.79391	8160.6875
1225.36829	8136.8875
1228.94024	8132.3875
1232.50976	8123.6875
1236.07685	8149.6875
1239.6415	8233.2875
1243.20374	8325.1875
1246.76355	8440.5875
1250.32093	8586.5875
1253.8759	8828.7875
1257.42845	9202.6875
1260.97859	9629.4875
1264.52631	10156.9875
1268.07163	10645.2875
1271.61453	11050.3875
1275.15503	11300.7875
1278.69312	11291.6875
1282.22882	11302.5875
1285.76211	11628.1875
1289.29301	12232.6875
1292.82151	12826.4875
1296.34761	13470.2875
1299.87133	14610.0875
1303.39266	16783.2875
1306.9116	20250.7875
1310.42815	23792.7875
1313.94233	25163.1875
1317.45412	23300.9875
1320.96354	19930.0875
1324.47058	16777.8875
1327.97525	14289.4875
1331.47754	12976.2875
1334.97747	12531.7875
1338.47502	12841.7875
1341.97022	13758.5875
1345.46305	15379.9875
1348.95352	17690.4875
1352.44163	20562.1875
1355.92738	24646.9875
1359.41078	30608.4875
1362.89183	35221.7875
1366.37053	32823.0875
1369.84688	25691.5875
1373.32088	19410.6875
1376.79254	15510.1875
1380.26186	13357.5875
1383.72883	12191.9875
1387.19347	11271.2875
1390.65578	10390.9875
1394.11575	9751.1875
1397.57339	9375.2875
1401.0287	9287.1875
1404.48168	9297.9875
1407.93234	9371.3875
1411.38068	9507.5875
1414.82669	9685.7875
1418.27039	9781.2875
1421.71177	9733.6875
1425.15083	9599.4875
1428.58758	9528.1875
1432.02203	9658.4875
1435.45416	9814.1875
1438.88399	9813.1875
1442.31151	9762.5875
1445.73673	9775.4875
1449.15965	9856.8875
1452.58027	9795.0875
1455.9986	9592.6875
1459.41463	9552.9875
1462.82837	9693.1875
1466.23982	10035.3875
1469.64898	10333.6875
1473.05586	10533.4875
1476.46045	10668.7875
1479.86276	10988.2875
1483.26279	11454.0875
1486.66054	12081.4875
1490.05602	12917.0875
1493.44922	14182.8875
1496.84016	16221.4875
1500.22882	19567.9875
1503.61521	24118.9875
1506.99934	29259.5875
1510.38121	33426.1875
1513.76081	34522.1875
1517.13816	31111.6875
1520.51324	24959.5875
1523.88607	19413.0875
1527.25665	15850.0875
1530.62498	13883.9875
1533.99105	12781.3875
1537.35488	12074.5875
1540.71647	11764.1875
1544.07581	11741.0875
1547.4329	11859.1875
1550.78776	12020.3875
1554.14038	12217.1875
1557.49077	12486.2875
1560.83892	12934.2875
1564.18484	13683.4875
1567.52853	14585.3875
1570.86999	15394.2875
1574.20922	15777.5875
1577.54624	15530.7875
1580.88103	14091.2875
1584.2136	12166.8875
1587.54395	10992.0875
1590.87208	10755.8875
1594.19801	11386.0875
1597.52172	12525.4875
1600.84321	13045.2875
1604.16251	12458.1875
1607.47959	11557.5875
1610.79447	10574.0875
1614.10715	9620.5875
1617.41763	8852.1875
1620.7259	8378.0875
1624.03199	8185.1875
1627.33587	8254.6875
1630.63757	8494.6875
1633.93707	9030.1875
1637.23439	9961.9875
1640.52951	11512.4875
1643.82246	13999.0875
1647.11321	17315.0875
1650.40179	19909.2875
1653.68819	19378.0875
1656.97241	15909.1875
1660.25446	12151.6875
1663.53433	9671.2875
1666.81203	8282.5875
1670.08756	7551.8875
1673.36092	7119.7875
1676.63211	6838.3875
1679.90115	6660.1875
1683.16801	6492.8875
1686.43272	6399.2875
1689.69527	6273.9875
1692.95567	6162.2875
1696.2139	6046.0875
1699.46999	5917.8875
1702.72392	5923.5875
1705.97571	5961.8875
1709.22535	6053.5875
1712.47284	6122.0875
1715.71819	6165.0875
1718.96139	6191.4875
1722.20246	6184.6875
1725.44139	6131.5875
1728.67818	6038.8875
1731.91284	5991.5875
1735.14537	5898.7875
1738.37576	5845.5875
1741.60403	5816.0875
1744.83017	5770.9875
1748.05418	5730.8875
1751.27607	5696.0875
1754.49584	5638.8875
1757.71349	5575.5875
1760.92903	5512.0875
1764.14244	5513.3875
1767.35375	5484.1875
1770.56294	5434.0875
1773.77002	5437.0875
1776.97499	5424.5875
1780.17785	5459.2875
1783.37861	5458.0875
1786.57727	5444.0875
1789.77382	5452.5875
1792.96828	5453.7875
1796.16064	5460.5875
1799.3509	5447.1875
1802.53907	5433.7875
1805.72514	5414.4875
1808.90913	5379.1875
1812.09102	5362.6875
1815.27083	5345.0875
1818.44856	5317.9875
1821.6242	5293.9875
1824.79776	5294.1875
1827.96924	5295.6875
1831.13864	5271.7875
1834.30597	5255.3875
1837.47122	5247.9875
1840.6344	5243.8875
1843.7955	5231.2875
1846.95454	5218.8875
1850.11151	5216.5875
1853.26642	5202.7875
1856.41926	5226.9875
1859.57004	5222.1875
1862.71876	5201.8875
1865.86542	5218.1875
1869.01003	5227.2875
1872.15258	5212.9875
1875.29308	5220.3875
1878.43152	5225.7875
1881.56792	5223.3875
1884.70227	5185.5875
1887.83457	5191.7875
1890.96482	5188.3875
1894.09304	5189.9875
1897.21921	5192.2875
1900.34335	5179.0875
1903.46544	5188.7875
1906.58551	5194.6875
1909.70353	5189.9875
1912.81953	5174.6875
1915.93349	5162.5875
1919.04543	5142.3875
1922.15534	5137.2875
1925.26322	5137.2875
1928.36908	5120.0875
1931.47292	5086.4875
1934.57473	5073.6875
1937.67453	5056.4875
1940.77232	5037.1875
1943.86808	5025.4875
1946.96184	5003.0875
1950.05358	4994.4875
1953.14331	4964.2875
1956.23103	4959.6875
1959.31675	4930.3875
1962.40046	4931.5875
1965.48217	4916.9875
1968.56188	4925.0875
1971.63959	4915.8875
1974.7153	4901.7875
1977.78901	4894.0875
1980.86073	4861.5875
1983.93046	4850.9875
1986.99819	4823.5875
1990.06394	4797.4875
1993.1277	4776.0875
1996.18947	4766.5875
1999.24925	4741.0875
2002.30706	4718.9875
2005.36288	4695.0875
2008.41672	4679.9875
2011.46859	4690.5875
2014.51848	4660.1875
2017.56639	4623.5875
2020.61233	4625.6875
2023.6563	4605.0875
2026.6983	4583.4875
2029.73833	4583.4875
2032.7764	4568.2875
2035.8125	4554.4875
2038.84664	4558.3875
2041.87881	4545.5875
2044.90903	4549.8875
2047.93729	4516.7875
2050.96359	4510.6875
2053.98794	4508.7875
2057.01034	4515.9875
2060.03078	4508.5875
2063.04927	4491.9875
2066.06582	4480.9875
2069.08042	4482.7875
2072.09307	4470.9875
2075.10378	4466.4875
2078.11255	4456.4875
2081.11938	4459.3875
2084.12426	4462.6875
2087.12722	4461.1875
2090.12824	4448.1875
2093.12732	4446.5875
2096.12447	4459.6875
2099.11969	4456.1875
2102.11299	4445.8875
2105.10435	4449.8875
2108.09379	4453.7875
2111.08131	4439.4875
2114.0669	4467.4875
2117.05057	4466.1875
2120.03233	4486.3875
2123.01216	4482.2875
2125.99008	4488.9875
2128.96609	4472.3875
2131.94018	4481.5875
2134.91236	4485.5875
2137.88263	4477.3875
2140.851	4480.8875
2143.81746	4483.3875
2146.78201	4484.0875
2149.74466	4454.4875
2152.7054	4469.0875
2155.66425	4463.6875
2158.6212	4460.9875
2161.57625	4449.4875
2164.52941	4446.2875
2167.48067	4425.6875
2170.43004	4427.9875
2173.37752	4428.0875
2176.32311	4435.9875
2179.26681	4430.6875
2182.20863	4439.3875
2185.14856	4449.5875
2188.08661	4425.8875
2191.02278	4441.8875
2193.95707	4420.4875
2196.88948	4423.5875
2199.82001	4414.9875
2202.74867	4411.4875
2205.67545	4403.7875
2208.60037	4404.5875
2211.52341	4393.8875
2214.44458	4387.6875
2217.36388	4375.0875
2220.28132	4368.9875
2223.1969	4346.9875
2226.11061	4346.7875
2229.02246	4326.9875
2231.93245	4322.9875
2234.84058	4313.8875
2237.74686	4296.0875
2240.65128	4288.2875
2243.55385	4281.8875
2246.45456	4290.1875
2249.35343	4291.7875
2252.25044	4292.1875
2255.14561	4276.6875
2258.03893	4287.7875
2260.93041	4284.5875
2263.82004	4295.2875
2266.70783	4309.4875
2269.59378	4288.1875
2272.4779	4282.8875
2275.36017	4264.6875
2278.24061	4256.7875
2281.11922	4256.8875
2283.996	4239.2875
2286.87094	4228.4875
2289.74405	4207.0875
2292.61534	4184.8875
2295.4848	4179.9875
2298.35243	4165.7875
2301.21824	4166.0875
2304.08223	4175.9875
2306.94439	4177.3875
2309.80474	4151.4875
2312.66327	4145.5875
2315.51999	4144.7875
2318.37489	4137.4875
2321.22797	4140.1875
2324.07925	4137.8875
2326.92871	4121.3875
2329.77637	4132.3875
2332.62222	4113.2875
2335.46626	4109.6875
2338.3085	4106.5875
2341.14893	4092.5875
2343.98756	4114.4875
2346.8244	4134.4875
2349.65943	4135.1875
2352.49267	4145.5875
2355.32411	4156.2875
2358.15376	4183.9875
2360.98161	4216.5875
2363.80768	4232.9875
2366.63195	4238.2875
2369.45444	4243.6875
2372.27514	4237.2875
2375.09405	4232.8875
2377.91118	4228.2875
2380.72652	4192.3875
2383.54009	4147.3875
2386.35187	4129.6875
2389.16188	4098.9875
2391.97011	4068.3875
2394.77657	4055.0875
2397.58125	4040.0875
2400.38416	4023.8875
2403.18529	4003.5875
2405.98466	4000.4875
2408.78226	3997.0875
2411.57809	3981.6875
2414.37216	3968.3875
2417.16446	3972.3875
2419.955	3972.6875
2422.74378	3978.3875
2425.5308	3965.2875
2428.31606	3960.2875
2431.09956	3970.3875
2433.88131	3973.8875
2436.6613	3982.9875
2439.43954	3978.9875
2442.21603	3969.1875
2444.99077	3979.8875
2447.76377	3992.3875
2450.53501	3985.9875
2453.30451	4004.6875
2456.07226	3998.0875
2458.83827	4000.4875
2461.60254	3993.6875
2464.36507	3997.8875
2467.12586	3982.7875
2469.88492	3987.1875
2472.64224	3993.0875
2475.39782	3987.6875
2478.15167	3994.0875
2480.90379	4020.4875
2483.65417	4035.6875
2486.40283	4066.6875
2489.14976	4088.7875
2491.89497	4091.2875
2494.63845	4111.9875
2497.3802	4079.6875
2500.12024	4079.7875
2502.85855	4062.4875
2505.59514	4032.8875
2508.33002	3996.5875
2511.06318	3979.1875
2513.79462	3938.4875
2516.52435	3898.7875
2519.25237	3893.2875
2521.97867	3867.6875
2524.70327	3853.7875
2527.42616	3833.4875
2530.14734	3833.1875
2532.86681	3827.2875
2535.58458	3828.5875
2538.30065	3838.5875
2541.01501	3833.7875
2543.72768	3820.0875
2546.43864	3840.8875
2549.14791	3844.6875
2551.85548	3859.4875
2554.56136	3858.6875
2557.26554	3847.6875
2559.96803	3839.6875
2562.66883	3846.3875
2565.36794	3828.1875
2568.06536	3825.3875
2570.7611	3815.6875
2573.45514	3802.2875
2576.14751	3799.2875
2578.83819	3786.3875
2581.52719	3762.6875
2584.21451	3757.5875
2586.90015	3750.0875
2589.58411	3741.1875
2592.2664	3735.1875
2594.94701	3747.6875
2597.62594	3731.8875
2600.30321	3737.7875
2602.9788	3733.7875
2605.65273	3727.3875
2608.32498	3721.7875
2610.99557	3717.2875
2613.66449	3733.8875
2616.33175	3736.6875
2618.99734	3731.0875
2621.66128	3741.8875
2624.32355	3721.1875
2626.98416	3708.9875
2629.64311	3684.7875
2632.30041	3688.8875
2634.95605	3668.6875
2637.61004	3666.2875
2640.26238	3653.9875
2642.91306	3655.8875
2645.56209	3645.9875
2648.20948	3637.9875
2650.85521	3639.3875
2653.4993	3638.5875
2656.14175	3647.2875
2658.78255	3649.2875
2661.42171	3657.3875
2664.05923	3669.6875
2666.6951	3688.9875
2669.32934	3699.4875
2671.96194	3676.9875
2674.59291	3710.3875
2677.22224	3698.1875
2679.84993	3703.1875
2682.476	3692.1875
2685.10043	3695.0875
2687.72324	3675.9875
2690.34441	3681.1875
2692.96396	3698.6875
2695.58188	3693.5875
2698.19818	3685.7875
2700.81285	3681.0875
2703.4259	3650.7875
2706.03733	3602.3875
2708.64714	3635.8875
2711.25533	3667.1875
2713.86191	3679.5875
2716.46687	3704.1875
2719.07021	3698.1875
2721.67194	3712.0875
2724.27206	3721.1875
2726.87057	3697.9875
2729.46747	3707.6875
2732.06276	3709.2875
2734.65644	3699.8875
2737.24852	3688.3875
2739.83899	3670.4875
2742.42786	3660.0875
2745.01513	3647.9875
2747.60079	3663.9875
2750.18486	3635.6875
2752.76733	3627.9875
2755.3482	3626.8875
2757.92747	3621.0875
2760.50515	3611.6875
2763.08123	3606.9875
2765.65573	3610.3875
2768.22863	3600.2875
2770.79994	3593.5875
2773.36967	3580.6875
2775.9378	3597.2875
2778.50435	3582.2875
2781.06932	3574.8875
2783.6327	3596.5875
2786.1945	3588.5875
2788.75471	3610.1875
2791.31335	3600.2875
2793.87041	3592.9875
2796.42589	3586.4875
2798.97979	3586.9875
2801.53212	3586.8875
2804.08288	3575.6875
2806.63206	3595.2875
2809.17967	3600.9875
2811.72571	3610.1875
2814.27018	3622.7875
2816.81308	3630.9875
2819.35442	3647.1875
2821.89419	3643.7875
2824.43239	3662.5875
2826.96904	3664.1875
2829.50412	3671.3875
2832.03763	3653.6875
2834.56959	3680.1875
2837.1	3665.8875
2839.62884	3693.8875
2842.15613	3714.5875
2844.68186	3751.5875
2847.20604	3789.0875
2849.72867	3822.1875
2852.24974	3839.0875
2854.76927	3828.5875
2857.28724	3822.7875
2859.80367	3819.7875
2862.31855	3826.3875
2864.83189	3829.5875
2867.34368	3825.3875
2869.85393	3841.7875
2872.36264	3829.0875
2874.8698	3833.2875
2877.37543	3825.4875
2879.87952	3819.2875
2882.38207	3806.9875
2884.88308	3804.7875
2887.38256	3791.8875
2889.88051	3777.7875
2892.37692	3789.1875
2894.8718	3783.3875
2897.36515	3785.3875
2899.85698	3789.0875
2902.34727	3801.3875
2904.83604	3792.4875
2907.32328	3800.9875
2909.809	3792.5875
2912.29319	3799.8875
2914.77587	3797.1875
2917.25702	3783.0875
2919.73665	3773.1875
2922.21476	3776.8875
2924.69136	3759.5875
2927.16644	3759.4875
2929.64	3755.1875
2932.11205	3734.3875
2934.58258	3709.3875
2937.05161	3715.9875
2939.51912	3696.0875
2941.98513	3678.1875
2944.44962	3648.0875
2946.91261	3604.6875
2949.37409	3618.2875
2951.83407	3584.6875
2954.29254	3578.5875
2956.74951	3563.0875
2959.20498	3557.0875
2961.65895	3553.0875
2964.11142	3549.5875
2966.56239	3530.0875
2969.01186	3544.4875
2971.45984	3508.0875
2973.90632	3491.0875
2976.35131	3491.4875
2978.7948	3492.2875
2981.23681	3477.9875
2983.67732	3468.2875
2986.11635	3445.3875
2988.55388	3446.0875
2990.98993	3429.0875
2993.4245	3428.9875
2995.85758	3437.3875
2998.28917	3404.0875
3000.71928	3411.9875
3003.14791	3408.3875
3005.57506	3401.1875
3008.00073	3409.3875
3010.42493	3402.7875
3012.84764	3383.7875
3015.26888	3403.1875
3017.68865	3400.4875
3020.10694	3407.9875
3022.52376	3369.3875
3024.9391	3368.1875
3027.35298	3362.4875
3029.76539	3363.1875
3032.17632	3351.4875
3034.5858	3341.5875
3036.9938	3325.6875
3039.40034	3316.4875
3041.80542	3318.6875
3044.20903	3304.7875
3046.61118	3313.9875
3049.01187	3308.9875
3051.4111	3284.0875
3053.80888	3293.8875
3056.20519	3283.9875
3058.60005	3271.3875
3060.99345	3271.0875
3063.3854	3276.1875
3065.7759	3260.1875
3068.16494	3255.1875
3070.55254	3230.8875
3072.93868	3230.1875
3075.32338	3229.4875
3077.70662	3210.2875
3080.08842	3209.7875
3082.46878	3185.4875
3084.84769	3186.9875
3087.22515	3175.1875
3089.60118	3172.4875
3091.97576	3168.8875
3094.3489	3175.7875
3096.72061	3175.9875
3099.09087	3170.4875
3101.4597	3150.8875
3103.82709	3164.1875
3106.19305	3154.1875
3108.55757	3163.2875
3110.92066	3152.6875
3113.28232	3153.0875
3115.64255	3155.7875
3118.00134	3147.9875
3120.35871	3146.1875
3122.71466	3143.3875
3125.06917	3136.5875
3127.42226	3134.5875
3129.77393	3145.6875
3132.12417	3144.4875
3134.47299	3145.6875
3136.82039	3145.6875
3139.16636	3150.6875
3141.51092	3145.0875
3143.85406	3153.6875
3146.19579	3161.9875
3148.53609	3163.7875
3150.87499	3170.7875
3153.21246	3181.7875
3155.54853	3191.0875
3157.88318	3202.6875
3160.21642	3206.1875
3162.54826	3193.5875
3164.87868	3188.1875
3167.2077	3191.6875
3169.5353	3213.0875
3171.86151	3200.4875
3174.18631	3201.6875
3176.5097	3185.8875
3178.83169	3194.0875
3181.15228	3200.9875
3183.47147	3205.7875
3185.78926	3197.6875
3188.10565	3201.9875
3190.42065	3206.2875
3192.73424	3209.9875
3195.04645	3221.2875
3197.35725	3209.3875
3199.66667	3236.7875
3201.97469	3238.7875
3204.28132	3222.2875
3206.58656	3246.8875
3208.8904	3261.1875
3211.19287	3267.7875
3213.49394	3254.7875
3215.79363	3265.9875
3218.09193	3271.8875
3220.38884	3262.7875
3222.68438	3254.6875
3224.97853	3252.6875
3227.2713	3274.7875
3229.56269	3272.0875
3231.8527	3265.1875
3234.14133	3270.6875
3236.42858	3259.1875
3238.71446	3246.8875
3240.99896	3247.0875
3243.28209	3243.8875
3245.56384	3232.6875
3247.84423	3239.8875
3250.12324	3239.4875
3252.40088	3235.3875
3254.67715	3244.3875
3256.95205	3227.8875
3259.22558	3245.5875
3261.49775	3219.4875
3263.76855	3230.6875
3266.03799	3235.9875
3268.30606	3229.0875
3270.57277	3229.0875
3272.83812	3211.0875
3275.10211	3209.4875
3277.36474	3206.6875
3279.62601	3192.7875
3281.88593	3196.3875
3284.14448	3193.9875
3286.40168	3202.2875
3288.65753	3194.3875
3290.91202	3197.1875
3293.16516	3206.5875
3295.41695	3206.3875
3297.66738	3184.7875
3299.91647	3174.6875
3302.16421	3147.3875
3304.4106	3146.0875
3306.65564	3122.7875
3308.89933	3096.2875
3311.14169	3059.0875
3313.38269	3032.9875
3315.62236	3014.3875
3317.86068	2985.2875
3320.09766	2962.4875
3322.3333	2937.8875
3324.5676	2929.8875
3326.80056	2858.5875
3329.03219	2849.1875
3331.26248	0.1875
3333.49143	-1.5125
3335.71905	1.0875
