Data from AgNPs_FTO_APTES_UA_50uM_CRN_0uM_R6G_10uM_NaF_0.1M_Addition_RamanShift__14__10-26-34-636.txt Node

Date: Mon Feb 21 10:26:34 GMT 2022
User: TCL
Spectrometer: QEP01345
Trigger mode: 4
Integration Time (sec): 7.000000E0
Scans to average: 10
Electric dark correction enabled: true
Nonlinearity correction enabled: false
Boxcar width: 0
XAxis mode: Raman Shifts
Number of Pixels in Spectrum: 1044
>>>>>Begin Spectral Data<<<<<
46.04893	1.3
50.45542	0.3
54.85868	-0.4
59.25871	-0.7
63.6555	27.6
68.04907	31.8
72.43941	31
76.82654	36.7
81.21044	38.9
85.59113	38.1
89.96862	42.4
94.34289	44.6
98.71396	44.9
103.08183	48.2
107.4465	45.3
111.80798	46
116.16626	44.7
120.52136	44.7
124.87327	53.2
129.222	45.6
133.56755	48.1
137.90993	50.4
142.24913	52
146.58517	57.2
150.91804	67.2
155.24774	72.9
159.57429	82.9
163.89768	102.8
168.21792	132
172.53501	179.6
176.84895	246.5
181.15975	338.7
185.46741	468.1
189.77193	650.4
194.07331	856.5
198.37157	1103.5
202.6667	1360.9
206.9587	1626.3
211.24758	1881.8
215.53334	2140.6
219.81599	2416.6
224.09553	2733
228.37195	3071.7
232.64527	3448.4
236.91549	3832.6
241.18261	4213.2
245.44663	4559.3
249.70755	4845.6
253.96539	5118.5
258.22014	5333.5
262.4718	5489.7
266.72039	5552.4
270.96589	5576.4
275.20832	5511.6
279.44768	5429.6
283.68397	5310.3
287.91719	5211.3
292.14735	5125.2
296.37445	5173.3
300.59849	5262.6
304.81948	5417.6
309.03742	5577.4
313.25231	5625
317.46415	5479.8
321.67296	5208.5
325.87872	4964.7
330.08145	4847
334.28114	4827.1
338.47781	4889.5
342.67145	4990.2
346.86207	5127.1
351.04966	5354.7
355.23424	5627
359.4158	5835.2
363.59435	5972.4
367.76989	6001.4
371.94243	5995.9
376.11196	5982.9
380.27849	5983.4
384.44203	5927.4
388.60257	5892.6
392.76012	5829.6
396.91468	5854
401.06626	5953.4
405.21485	6041.8
409.36047	5990.6
413.50311	5739.3
417.64277	5532.9
421.77947	5390.4
425.9132	5333.9
430.04396	5328.9
434.17176	5374.4
438.2966	5493.7
442.41849	5680.4
446.53742	5907.2
450.6534	6090.2
454.76644	6197.3
458.87653	6182.1
462.98368	6046
467.08789	5935.1
471.18916	5822.2
475.2875	5685.4
479.38291	5564.2
483.4754	5449
487.56496	5357
491.6516	5310.5
495.73531	5307.9
499.81612	5278.2
503.89401	5333.3
507.96899	5364.4
512.04106	5439.5
516.11023	5518
520.1765	5607.2
524.23987	5618.2
528.30034	5603.8
532.35792	5535.4
536.41261	5462.2
540.46441	5360.3
544.51333	5312.8
548.55936	5287.5
552.60252	5327.4
556.64279	5439
560.6802	5493.8
564.71473	5519.9
568.7464	5626.2
572.7752	5744.9
576.80114	5630.9
580.82422	5463.6
584.84444	5441.6
588.86181	5568.5
592.87633	5830.8
596.888	5978.7
600.89682	5940.4
604.9028	6249.6
608.90594	7449.9
612.90624	9210.9
616.90371	9161.1
620.89834	6983.3
624.89015	5750.5
628.87913	5495.9
632.86528	5496
636.84862	5546.7
640.82913	5493.7
644.80683	5292.5
648.78172	5125.8
652.75379	5095.2
656.72306	5225.8
660.68952	5397.5
664.65319	5385.8
668.61405	5159.2
672.57211	5054.4
676.52738	5038
680.47986	5027.4
684.42955	4968.3
688.37646	4946.3
692.32058	4981.7
696.26192	5011.6
700.20048	5047.4
704.13626	5071.3
708.06928	5030.2
711.99952	4991.7
715.927	5017
719.85171	5073.9
723.77365	5083.8
727.69284	5049.3
731.60928	5029.5
735.52295	5011.7
739.43388	5052.1
743.34206	5049.2
747.24749	5068.8
751.15017	5107.6
755.05012	5104.1
758.94733	5254.1
762.8418	5607.7
766.73354	6297
770.62254	7065.8
774.50882	7530.5
778.39237	7431.3
782.27321	6713.6
786.15132	5881
790.02671	5356.1
793.89938	5109.7
797.76935	4998.3
801.6366	4981.7
805.50115	4960.9
809.36299	4986.7
813.22213	5000.8
817.07857	4963.4
820.93231	4936.5
824.78336	4903.1
828.63172	4886.2
832.47738	4875.2
836.32036	4872.7
840.16066	4879.3
843.99827	4870.6
847.8332	4880.5
851.66546	4856.3
855.49504	4825.3
859.32195	4803.1
863.1462	4801.1
866.96777	4801.2
870.78668	4784.9
874.60293	4793.3
878.41652	4808
882.22745	4844.3
886.03573	4857.1
889.84136	4855
893.64433	4815.8
897.44466	4763.8
901.24235	4741.1
905.0374	4710.2
908.8298	4665.1
912.61957	4637.5
916.40671	4650.4
920.19121	4664.9
923.97308	4685.4
927.75233	4752.4
931.52895	4772.3
935.30295	4730
939.07433	4619.9
942.84309	4534.8
946.60924	4462.7
950.37278	4422.9
954.13371	4413.9
957.89203	4375.1
961.64774	4331.8
965.40086	4339.7
969.15137	4344.6
972.89929	4314.8
976.64461	4324.5
980.38733	4298.8
984.12747	4304.7
987.86502	4307.8
991.59999	4322.4
995.33237	4372.6
999.06217	4447.7
1002.78939	4565.3
1006.51404	4616.6
1010.23611	4659.9
1013.95561	4706.7
1017.67255	4699
1021.38692	4611.8
1025.09872	4525.9
1028.80796	4432.4
1032.51465	4416.8
1036.21877	4416.4
1039.92035	4447.4
1043.61937	4463.1
1047.31584	4489.7
1051.00976	4488.7
1054.70114	4492.5
1058.38998	4470.5
1062.07627	4462.9
1065.76003	4467.2
1069.44126	4473.4
1073.11995	4484.8
1076.79611	4553.3
1080.46974	4624
1084.14085	4735
1087.80943	4842.2
1091.47549	4844.7
1095.13903	4775.2
1098.80005	4615.2
1102.45857	4500.6
1106.11456	4455.7
1109.76805	4506.8
1113.41903	4584.8
1117.06751	4749.9
1120.71348	4944.9
1124.35696	5191
1127.99793	5360.2
1131.63641	5375.2
1135.2724	5177.9
1138.90589	4946.9
1142.5369	4780.4
1146.16542	4653.9
1149.79145	4543.1
1153.415	4516
1157.03607	4514.3
1160.65467	4560.3
1164.27079	4691.9
1167.88443	4909.2
1171.49561	5307
1175.10432	5904.4
1178.71056	6697.8
1182.31434	7366.2
1185.91565	7590.5
1189.51451	7460
1193.11091	7129.7
1196.70485	6706.1
1200.29634	6321.8
1203.88538	5936.4
1207.47197	5488.2
1211.05612	5167.1
1214.63782	5001.4
1218.21708	4965.3
1221.79391	4996.6
1225.36829	5005.2
1228.94024	4932.8
1232.50976	4856.6
1236.07685	4817.3
1239.6415	4818.4
1243.20374	4857.1
1246.76355	4830
1250.32093	4837.7
1253.8759	4905
1257.42845	5032.8
1260.97859	5195.6
1264.52631	5401.4
1268.07163	5559.9
1271.61453	5684.1
1275.15503	5731.7
1278.69312	5771
1282.22882	5823.2
1285.76211	5963.4
1289.29301	6181.1
1292.82151	6450
1296.34761	6714.5
1299.87133	7040.1
1303.39266	7515.3
1306.9116	8286
1310.42815	9138.9
1313.94233	9680.2
1317.45412	9420.7
1320.96354	8684
1324.47058	7812.8
1327.97525	7069.5
1331.47754	6719.2
1334.97747	6709
1338.47502	6863.4
1341.97022	7072.2
1345.46305	7290.4
1348.95352	7649.3
1352.44163	8339.6
1355.92738	9345
1359.41078	10664
1362.89183	11782.4
1366.37053	11515.4
1369.84688	9984.4
1373.32088	8358.8
1376.79254	7270.2
1380.26186	6674.1
1383.72883	6326.3
1387.19347	5988.3
1390.65578	5630.5
1394.11575	5397.7
1397.57339	5306.6
1401.0287	5321.7
1404.48168	5360.1
1407.93234	5378.6
1411.38068	5418.7
1414.82669	5397.3
1418.27039	5330.2
1421.71177	5236.8
1425.15083	5131.7
1428.58758	5118.3
1432.02203	5229
1435.45416	5326.9
1438.88399	5396.5
1442.31151	5379.6
1445.73673	5371.5
1449.15965	5345.1
1452.58027	5309
1455.9986	5195.4
1459.41463	5139.5
1462.82837	5148.9
1466.23982	5316
1469.64898	5473.4
1473.05586	5631.8
1476.46045	5723.8
1479.86276	5828.2
1483.26279	5928
1486.66054	6035.3
1490.05602	6143
1493.44922	6295.6
1496.84016	6536.3
1500.22882	7031.4
1503.61521	7745.1
1506.99934	8651
1510.38121	9434.6
1513.76081	9702.6
1517.13816	9138.3
1520.51324	8010.5
1523.88607	6917.1
1527.25665	6235.7
1530.62498	5923.9
1533.99105	5805
1537.35488	5700.8
1540.71647	5650.9
1544.07581	5596.5
1547.4329	5520.5
1550.78776	5444.5
1554.14038	5377.2
1557.49077	5304.9
1560.83892	5304.1
1564.18484	5404.3
1567.52853	5596.5
1570.86999	5821.5
1574.20922	5972.2
1577.54624	6000.4
1580.88103	5746.1
1584.2136	5354.8
1587.54395	5130.6
1590.87208	5180.4
1594.19801	5498.1
1597.52172	6025.9
1600.84321	6415.6
1604.16251	6380.3
1607.47959	5947.9
1610.79447	5354.5
1614.10715	4805.9
1617.41763	4424.9
1620.7259	4196.3
1624.03199	4109.3
1627.33587	4106.5
1630.63757	4187
1633.93707	4347.2
1637.23439	4724.3
1640.52951	5272.4
1643.82246	6073.4
1647.11321	6936.1
1650.40179	7370.8
1653.68819	6986.4
1656.97241	5944.2
1660.25446	4880.2
1663.53433	4158.9
1666.81203	3738.9
1670.08756	3526
1673.36092	3403.7
1676.63211	3329.3
1679.90115	3284.2
1683.16801	3222.7
1686.43272	3202.1
1689.69527	3127.1
1692.95567	3047.2
1696.2139	2936.4
1699.46999	2819.7
1702.72392	2787.9
1705.97571	2841.1
1709.22535	2932.4
1712.47284	3004.7
1715.71819	3049.1
1718.96139	3047.6
1722.20246	3048.7
1725.44139	3048.4
1728.67818	3016.1
1731.91284	2995.8
1735.14537	2968.3
1738.37576	2946.6
1741.60403	2932.3
1744.83017	2901.8
1748.05418	2875.9
1751.27607	2829.4
1754.49584	2778.6
1757.71349	2718.9
1760.92903	2666.8
1764.14244	2659.1
1767.35375	2650.9
1770.56294	2634.7
1773.77002	2667
1776.97499	2702.2
1780.17785	2760.6
1783.37861	2777.1
1786.57727	2795.8
1789.77382	2792.8
1792.96828	2801
1796.16064	2796.9
1799.3509	2783.5
1802.53907	2789.1
1805.72514	2768
1808.90913	2758.5
1812.09102	2761.7
1815.27083	2749.2
1818.44856	2739.5
1821.6242	2723.7
1824.79776	2735.7
1827.96924	2721.2
1831.13864	2717
1834.30597	2709.6
1837.47122	2709.6
1840.6344	2699
1843.7955	2687.4
1846.95454	2674.6
1850.11151	2673.5
1853.26642	2664.1
1856.41926	2668.6
1859.57004	2665
1862.71876	2649.9
1865.86542	2654.5
1869.01003	2651.1
1872.15258	2625.4
1875.29308	2635
1878.43152	2627.7
1881.56792	2627.4
1884.70227	2625.3
1887.83457	2602.2
1890.96482	2615.6
1894.09304	2601.7
1897.21921	2588.2
1900.34335	2591.3
1903.46544	2592.2
1906.58551	2586.4
1909.70353	2578.3
1912.81953	2574
1915.93349	2577.7
1919.04543	2568.4
1922.15534	2552.2
1925.26322	2548.1
1928.36908	2530.7
1931.47292	2529.1
1934.57473	2524.4
1937.67453	2495.4
1940.77232	2492.7
1943.86808	2484.4
1946.96184	2486
1950.05358	2469.5
1953.14331	2460.9
1956.23103	2449.9
1959.31675	2436.9
1962.40046	2440.1
1965.48217	2426.9
1968.56188	2422.4
1971.63959	2421.6
1974.7153	2411.3
1977.78901	2410.1
1980.86073	2395.3
1983.93046	2374.9
1986.99819	2350.5
1990.06394	2338.6
1993.1277	2349.7
1996.18947	2335.3
1999.24925	2325.3
2002.30706	2315.8
2005.36288	2307.7
2008.41672	2303.7
2011.46859	2284.9
2014.51848	2273.3
2017.56639	2260.5
2020.61233	2264.1
2023.6563	2250.6
2026.6983	2236.9
2029.73833	2232.5
2032.7764	2210.6
2035.8125	2212.7
2038.84664	2204.2
2041.87881	2198.3
2044.90903	2196.2
2047.93729	2185
2050.96359	2177.1
2053.98794	2175.2
2057.01034	2155.3
2060.03078	2172.3
2063.04927	2160.4
2066.06582	2163.9
2069.08042	2154.8
2072.09307	2160.9
2075.10378	2145.4
2078.11255	2146.2
2081.11938	2143.7
2084.12426	2146.3
2087.12722	2137.1
2090.12824	2130.3
2093.12732	2136
2096.12447	2132.6
2099.11969	2120.9
2102.11299	2127.2
2105.10435	2117.8
2108.09379	2123.4
2111.08131	2121
2114.0669	2122.8
2117.05057	2120.1
2120.03233	2105.3
2123.01216	2119.4
2125.99008	2127.8
2128.96609	2122
2131.94018	2111.3
2134.91236	2113
2137.88263	2107.9
2140.851	2110.9
2143.81746	2109
2146.78201	2106.1
2149.74466	2097
2152.7054	2089.4
2155.66425	2090.2
2158.6212	2082
2161.57625	2085.1
2164.52941	2085.8
2167.48067	2082.4
2170.43004	2073.7
2173.37752	2070.9
2176.32311	2061.7
2179.26681	2062.7
2182.20863	2069.4
2185.14856	2067.7
2188.08661	2064.3
2191.02278	2056.9
2193.95707	2056.5
2196.88948	2052.6
2199.82001	2050.7
2202.74867	2049.2
2205.67545	2034.1
2208.60037	2027.7
2211.52341	2022.6
2214.44458	2020.6
2217.36388	2003.6
2220.28132	1997.4
2223.1969	1995.4
2226.11061	1988
2229.02246	1992.3
2231.93245	1971.8
2234.84058	1968.7
2237.74686	1962.4
2240.65128	1957.3
2243.55385	1959.1
2246.45456	1950.5
2249.35343	1960.7
2252.25044	1957
2255.14561	1952
2258.03893	1933.6
2260.93041	1909.4
2263.82004	1913.7
2266.70783	1929.5
2269.59378	1909.6
2272.4779	1916.5
2275.36017	1909.7
2278.24061	1902.7
2281.11922	1890.5
2283.996	1885.7
2286.87094	1890.6
2289.74405	1873.8
2292.61534	1878
2295.4848	1868.9
2298.35243	1870.4
2301.21824	1858.5
2304.08223	1854.6
2306.94439	1849.8
2309.80474	1852.3
2312.66327	1848.7
2315.51999	1835.7
2318.37489	1841.1
2321.22797	1838.7
2324.07925	1830.6
2326.92871	1818.8
2329.77637	1824.6
2332.62222	1808.9
2335.46626	1813.9
2338.3085	1795
2341.14893	1802
2343.98756	1803
2346.8244	1811
2349.65943	1795.2
2352.49267	1803.9
2355.32411	1802.9
2358.15376	1797
2360.98161	1807.2
2363.80768	1792.5
2366.63195	1815.6
2369.45444	1807.6
2372.27514	1795.6
2375.09405	1802.5
2377.91118	1799.7
2380.72652	1796.9
2383.54009	1778.3
2386.35187	1774.7
2389.16188	1761.7
2391.97011	1753.5
2394.77657	1744.4
2397.58125	1735.2
2400.38416	1730.5
2403.18529	1728.9
2405.98466	1730.5
2408.78226	1725.3
2411.57809	1708.6
2414.37216	1700.4
2417.16446	1708.3
2419.955	1707.2
2422.74378	1711.6
2425.5308	1691.7
2428.31606	1690.8
2431.09956	1693.7
2433.88131	1698.8
2436.6613	1695.6
2439.43954	1692.8
2442.21603	1692.9
2444.99077	1694.3
2447.76377	1689.1
2450.53501	1689.5
2453.30451	1688.8
2456.07226	1683.7
2458.83827	1680.8
2461.60254	1681.4
2464.36507	1678.8
2467.12586	1674.3
2469.88492	1665
2472.64224	1667.5
2475.39782	1658
2478.15167	1657.1
2480.90379	1662.3
2483.65417	1673.7
2486.40283	1668.3
2489.14976	1680
2491.89497	1684.3
2494.63845	1659.2
2497.3802	1643.7
2500.12024	1661.5
2502.85855	1660.6
2505.59514	1655.8
2508.33002	1661.5
2511.06318	1647.5
2513.79462	1643.8
2516.52435	1631.8
2519.25237	1629
2521.97867	1611.7
2524.70327	1607.2
2527.42616	1614.1
2530.14734	1604.1
2532.86681	1607.1
2535.58458	1598.5
2538.30065	1602.6
2541.01501	1600
2543.72768	1587.2
2546.43864	1592.3
2549.14791	1585.6
2551.85548	1597.4
2554.56136	1590
2557.26554	1581.7
2559.96803	1580.3
2562.66883	1569.2
2565.36794	1581.4
2568.06536	1580.8
2570.7611	1563.3
2573.45514	1565.5
2576.14751	1568
2578.83819	1560.8
2581.52719	1547.1
2584.21451	1546.9
2586.90015	1546
2589.58411	1537.1
2592.2664	1533
2594.94701	1535.4
2597.62594	1535.2
2600.30321	1535.8
2602.9788	1528.2
2605.65273	1526.3
2608.32498	1529.8
2610.99557	1521.2
2613.66449	1533.5
2616.33175	1525.1
2618.99734	1522.7
2621.66128	1507.5
2624.32355	1511.6
2626.98416	1506.3
2629.64311	1503.3
2632.30041	1508.3
2634.95605	1501.3
2637.61004	1496.6
2640.26238	1484
2642.91306	1495.8
2645.56209	1487.6
2648.20948	1472.1
2650.85521	1477.3
2653.4993	1486.8
2656.14175	1491
2658.78255	1495.4
2661.42171	1491
2664.05923	1493.9
2666.6951	1495.2
2669.32934	1497.7
2671.96194	1493.7
2674.59291	1498.5
2677.22224	1495.2
2679.84993	1495.4
2682.476	1492.5
2685.10043	1485.9
2687.72324	1493.5
2690.34441	1495
2692.96396	1485.5
2695.58188	1488.8
2698.19818	1487.6
2700.81285	1485.2
2703.4259	1444.7
2706.03733	1351.5
2708.64714	1411.4
2711.25533	1458
2713.86191	1475.5
2716.46687	1485.5
2719.07021	1486.4
2721.67194	1500
2724.27206	1505.4
2726.87057	1499.2
2729.46747	1499.5
2732.06276	1502.5
2734.65644	1499.6
2737.24852	1503
2739.83899	1497.4
2742.42786	1495.6
2745.01513	1484.8
2747.60079	1493.2
2750.18486	1489.9
2752.76733	1489.1
2755.3482	1488.7
2757.92747	1486.1
2760.50515	1484.3
2763.08123	1482
2765.65573	1481.1
2768.22863	1489.1
2770.79994	1486.2
2773.36967	1482.5
2775.9378	1484.5
2778.50435	1484.1
2781.06932	1484.8
2783.6327	1491.9
2786.1945	1494.3
2788.75471	1503.1
2791.31335	1498.6
2793.87041	1493.8
2796.42589	1493.1
2798.97979	1501.3
2801.53212	1493.6
2804.08288	1494.4
2806.63206	1506.1
2809.17967	1496.3
2811.72571	1499.1
2814.27018	1504.4
2816.81308	1503.7
2819.35442	1512.2
2821.89419	1511.4
2824.43239	1510.5
2826.96904	1505.7
2829.50412	1520.5
2832.03763	1522.1
2834.56959	1513
2837.1	1524
2839.62884	1535.5
2842.15613	1545.2
2844.68186	1574.6
2847.20604	1586.8
2849.72867	1602.1
2852.24974	1616.8
2854.76927	1596.1
2857.28724	1574.6
2859.80367	1595.9
2862.31855	1604.1
2864.83189	1605.9
2867.34368	1598.5
2869.85393	1605.9
2872.36264	1614.1
2874.8698	1616.2
2877.37543	1607.8
2879.87952	1605.3
2882.38207	1603.1
2884.88308	1605.3
2887.38256	1599.4
2889.88051	1604.3
2892.37692	1596.6
2894.8718	1601.5
2897.36515	1601
2899.85698	1594.6
2902.34727	1593.8
2904.83604	1597.4
2907.32328	1594.7
2909.809	1592.2
2912.29319	1600
2914.77587	1593
2917.25702	1592.1
2919.73665	1589.6
2922.21476	1589.3
2924.69136	1581.2
2927.16644	1577.5
2929.64	1561.7
2932.11205	1560.6
2934.58258	1539.4
2937.05161	1534.9
2939.51912	1519.5
2941.98513	1502.8
2944.44962	1485.2
2946.91261	1474.7
2949.37409	1461.8
2951.83407	1447.7
2954.29254	1432.3
2956.74951	1430.5
2959.20498	1414
2961.65895	1411.3
2964.11142	1403.7
2966.56239	1388.9
2969.01186	1393.1
2971.45984	1382.3
2973.90632	1374.3
2976.35131	1363.6
2978.7948	1358.2
2981.23681	1343.9
2983.67732	1346.3
2986.11635	1345.8
2988.55388	1334.8
2990.98993	1333
2993.4245	1324.4
2995.85758	1323.2
2998.28917	1321.1
3000.71928	1314.1
3003.14791	1312.9
3005.57506	1309.6
3008.00073	1308.1
3010.42493	1304.3
3012.84764	1303.4
3015.26888	1301.8
3017.68865	1298.1
3020.10694	1303.4
3022.52376	1290.4
3024.9391	1294.1
3027.35298	1285.3
3029.76539	1291.5
3032.17632	1292.6
3034.5858	1282.3
3036.9938	1288.2
3039.40034	1289
3041.80542	1283.4
3044.20903	1278.8
3046.61118	1289
3049.01187	1278.1
3051.4111	1277.1
3053.80888	1283.3
3056.20519	1285.2
3058.60005	1281.6
3060.99345	1282.2
3063.3854	1276.2
3065.7759	1278.9
3068.16494	1277.9
3070.55254	1279.4
3072.93868	1277
3075.32338	1273.3
3077.70662	1275.3
3080.08842	1268
3082.46878	1271.2
3084.84769	1269.4
3087.22515	1272.7
3089.60118	1275.2
3091.97576	1277.1
3094.3489	1274.2
3096.72061	1283.7
3099.09087	1280.7
3101.4597	1284.7
3103.82709	1285
3106.19305	1281.4
3108.55757	1286.5
3110.92066	1286.2
3113.28232	1295.6
3115.64255	1284.4
3118.00134	1283.5
3120.35871	1290.4
3122.71466	1285.8
3125.06917	1296
3127.42226	1294.1
3129.77393	1288.9
3132.12417	1300.4
3134.47299	1305.2
3136.82039	1308.2
3139.16636	1309.6
3141.51092	1319.6
3143.85406	1316.1
3146.19579	1333.9
3148.53609	1323
3150.87499	1331.3
3153.21246	1341.2
3155.54853	1343.6
3157.88318	1346.3
3160.21642	1360.8
3162.54826	1357.5
3164.87868	1352
3167.2077	1360.6
3169.5353	1374.7
3171.86151	1371.4
3174.18631	1372.8
3176.5097	1368.2
3178.83169	1386.2
3181.15228	1386.7
3183.47147	1388.4
3185.78926	1391
3188.10565	1387.5
3190.42065	1393.6
3192.73424	1402.8
3195.04645	1403.7
3197.35725	1400.5
3199.66667	1400.3
3201.97469	1417.7
3204.28132	1416.7
3206.58656	1416.1
3208.8904	1424.3
3211.19287	1434.9
3213.49394	1434.1
3215.79363	1429.9
3218.09193	1440.9
3220.38884	1423.9
3222.68438	1403.3
3224.97853	1420.7
3227.2713	1441.5
3229.56269	1441
3231.8527	1438.4
3234.14133	1438.2
3236.42858	1434.5
3238.71446	1440.9
3240.99896	1440
3243.28209	1445.5
3245.56384	1443.2
3247.84423	1451.6
3250.12324	1451.6
3252.40088	1441.5
3254.67715	1437.4
3256.95205	1440.1
3259.22558	1440.3
3261.49775	1443.2
3263.76855	1456.7
3266.03799	1434.2
3268.30606	1434.2
3270.57277	1436.8
3272.83812	1436.7
3275.10211	1436.5
3277.36474	1434.2
3279.62601	1426.6
3281.88593	1429.8
3284.14448	1431.5
3286.40168	1437.8
3288.65753	1436.2
3290.91202	1434.2
3293.16516	1431.5
3295.41695	1429.6
3297.66738	1425.5
3299.91647	1411
3302.16421	1399.8
3304.4106	1391.8
3306.65564	1381.6
3308.89933	1370.7
3311.14169	1351.8
3313.38269	1327.7
3315.62236	1329.4
3317.86068	1334.5
3320.09766	1313
3322.3333	1311
3324.5676	1296.6
3326.80056	1246.4
3329.03219	1246.9
3331.26248	-0.2
3333.49143	-2
3335.71905	0.4
