Data from AgNPs_FTO_APTES_UA_50uM_CRN_10uM_R6G_10uM_NaF_0.1M_Addition_RamanShift__5__13-19-14-864.txt Node

Date: Mon Feb 21 13:19:14 GMT 2022
User: TCL
Spectrometer: QEP01345
Trigger mode: 4
Integration Time (sec): 7.000000E0
Scans to average: 10
Electric dark correction enabled: true
Nonlinearity correction enabled: false
Boxcar width: 0
XAxis mode: Raman Shifts
Number of Pixels in Spectrum: 1044
>>>>>Begin Spectral Data<<<<<
46.04893	-0.9875
50.45542	-1.1875
54.85868	-1.8875
59.25871	-0.5875
63.6555	72.7125
68.04907	79.2125
72.43941	78.4125
76.82654	84.3125
81.21044	87.0125
85.59113	92.6125
89.96862	94.7125
94.34289	99.8125
98.71396	101.7125
103.08183	103.2125
107.4465	104.5125
111.80798	105.7125
116.16626	108.6125
120.52136	108.3125
124.87327	119.4125
129.222	120.0125
133.56755	126.1125
137.90993	133.2125
142.24913	146.7125
146.58517	161.6125
150.91804	189.1125
155.24774	221.8125
159.57429	272.3125
163.89768	352.5125
168.21792	466.9125
172.53501	634.9125
176.84895	878.7125
181.15975	1237.2125
185.46741	1740.4125
189.77193	2383.9125
194.07331	3173.3125
198.37157	4101.7125
202.6667	5027.5125
206.9587	5973.9125
211.24758	6921.0125
215.53334	7868.5125
219.81599	8895.6125
224.09553	10018.6125
228.37195	11312.2125
232.64527	12717.7125
236.91549	14167.4125
241.18261	15611.5125
245.44663	16884.0125
249.70755	17963.1125
253.96539	18865.7125
258.22014	19609.9125
262.4718	20230.1125
266.72039	20605.5125
270.96589	20833.3125
275.20832	20767.2125
279.44768	20567.4125
283.68397	20243.3125
287.91719	20007.3125
292.14735	19879.4125
296.37445	19866.7125
300.59849	19955.8125
304.81948	20098.6125
309.03742	20225.8125
313.25231	20201.8125
317.46415	19951.8125
321.67296	19563.6125
325.87872	19323.5125
330.08145	19227.9125
334.28114	19230.0125
338.47781	19340.0125
342.67145	19579.9125
346.86207	19938.5125
351.04966	20383.5125
355.23424	20875.0125
359.4158	21269.6125
363.59435	21540.9125
367.76989	21670.6125
371.94243	21744.5125
376.11196	21835.8125
380.27849	21938.5125
384.44203	22096.4125
388.60257	22252.1125
392.76012	22425.9125
396.91468	22572.3125
401.06626	22909.6125
405.21485	23089.1125
409.36047	22982.2125
413.50311	22627.6125
417.64277	22428.3125
421.77947	22413.5125
425.9132	22508.0125
430.04396	22633.6125
434.17176	22776.0125
438.2966	23110.4125
442.41849	23722.3125
446.53742	24700.6125
450.6534	25696.1125
454.76644	26200.7125
458.87653	26262.1125
462.98368	25906.8125
467.08789	25396.8125
471.18916	24702.8125
475.2875	23975.3125
479.38291	23473.9125
483.4754	23056.9125
487.56496	22831.1125
491.6516	22590.1125
495.73531	22458.0125
499.81612	22501.3125
503.89401	22643.0125
507.96899	22706.6125
512.04106	22680.1125
516.11023	22521.2125
520.1765	22378.4125
524.23987	22372.1125
528.30034	22319.8125
532.35792	22273.8125
536.41261	21993.9125
540.46441	21601.3125
544.51333	21460.9125
548.55936	21616.2125
552.60252	22096.8125
556.64279	22844.6125
560.6802	23369.1125
564.71473	23480.5125
568.7464	23675.9125
572.7752	24216.2125
576.80114	24847.4125
580.82422	25517.2125
584.84444	26670.7125
588.86181	28633.7125
592.87633	30903.5125
596.888	31711.9125
600.89682	30098.0125
604.9028	29052.9125
608.90594	30819.6125
612.90624	33121.5125
616.90371	30800.2125
620.89834	25462.0125
624.89015	23160.3125
628.87913	22818.7125
632.86528	22910.4125
636.84862	22795.7125
640.82913	22295.6125
644.80683	21635.5125
648.78172	21272.7125
652.75379	21229.1125
656.72306	21628.1125
660.68952	22135.2125
664.65319	21929.1125
668.61405	21433.8125
672.57211	21438.1125
676.52738	21612.1125
680.47986	21608.1125
684.42955	21372.7125
688.37646	21245.9125
692.32058	21408.4125
696.26192	21818.6125
700.20048	22189.1125
704.13626	22358.2125
708.06928	22181.5125
711.99952	21973.7125
715.927	22039.3125
719.85171	22202.7125
723.77365	22191.8125
727.69284	21842.1125
731.60928	21544.0125
735.52295	21512.4125
739.43388	21609.5125
743.34206	21732.8125
747.24749	21877.2125
751.15017	22052.7125
755.05012	22379.5125
758.94733	23017.3125
762.8418	24242.1125
766.73354	26281.1125
770.62254	28220.6125
774.50882	28684.0125
778.39237	27432.2125
782.27321	25428.5125
786.15132	23654.7125
790.02671	22562.8125
793.89938	21977.7125
797.76935	21694.7125
801.6366	21597.5125
805.50115	21508.8125
809.36299	21370.6125
813.22213	21183.7125
817.07857	21027.1125
820.93231	20906.6125
824.78336	20815.9125
828.63172	20795.5125
832.47738	20813.7125
836.32036	20846.7125
840.16066	20971.7125
843.99827	21022.6125
847.8332	20965.2125
851.66546	20925.7125
855.49504	20898.1125
859.32195	20900.7125
863.1462	20823.0125
866.96777	20754.7125
870.78668	20746.9125
874.60293	20771.7125
878.41652	20840.6125
882.22745	20980.4125
886.03573	21126.3125
889.84136	21129.1125
893.64433	21027.8125
897.44466	20909.2125
901.24235	20826.7125
905.0374	20738.9125
908.8298	20617.1125
912.61957	20602.3125
916.40671	20756.9125
920.19121	21027.2125
923.97308	21394.3125
927.75233	21581.3125
931.52895	21513.3125
935.30295	21175.3125
939.07433	20740.7125
942.84309	20418.2125
946.60924	20308.8125
950.37278	20272.7125
954.13371	20248.8125
957.89203	20174.7125
961.64774	20148.4125
965.40086	20198.0125
969.15137	20128.5125
972.89929	20124.9125
976.64461	20119.0125
980.38733	20136.4125
984.12747	20219.3125
987.86502	20416.3125
991.59999	20629.0125
995.33237	21057.3125
999.06217	21744.8125
1002.78939	22610.2125
1006.51404	23321.1125
1010.23611	23808.8125
1013.95561	24110.2125
1017.67255	24175.0125
1021.38692	23823.6125
1025.09872	23327.6125
1028.80796	23185.3125
1032.51465	23576.7125
1036.21877	23983.9125
1039.92035	24083.2125
1043.61937	23959.0125
1047.31584	23504.4125
1051.00976	22921.3125
1054.70114	22581.0125
1058.38998	22470.8125
1062.07627	22519.6125
1065.76003	22672.9125
1069.44126	22873.2125
1073.11995	23291.8125
1076.79611	23691.8125
1080.46974	24004.5125
1084.14085	24399.6125
1087.80943	24773.3125
1091.47549	24911.9125
1095.13903	24808.8125
1098.80005	24307.1125
1102.45857	23792.3125
1106.11456	23496.4125
1109.76805	23443.3125
1113.41903	23585.1125
1117.06751	23820.4125
1120.71348	24137.6125
1124.35696	24440.4125
1127.99793	24797.4125
1131.63641	24910.7125
1135.2724	24769.4125
1138.90589	24593.2125
1142.5369	24600.3125
1146.16542	24694.4125
1149.79145	24890.2125
1153.415	25089.3125
1157.03607	25430.5125
1160.65467	26114.8125
1164.27079	27343.2125
1167.88443	29028.3125
1171.49561	31122.3125
1175.10432	33892.5125
1178.71056	37423.8125
1182.31434	40541.9125
1185.91565	41824.6125
1189.51451	41040.4125
1193.11091	39297.7125
1196.70485	37306.7125
1200.29634	35440.4125
1203.88538	33924.6125
1207.47197	32882.1125
1211.05612	32069.2125
1214.63782	31368.1125
1218.21708	31046.9125
1221.79391	31073.8125
1225.36829	31243.2125
1228.94024	31020.0125
1232.50976	30200.4125
1236.07685	29381.3125
1239.6415	28818.8125
1243.20374	28690.1125
1246.76355	28791.7125
1250.32093	29109.4125
1253.8759	29785.2125
1257.42845	30714.8125
1260.97859	31880.3125
1264.52631	33109.5125
1268.07163	34382.9125
1271.61453	35671.5125
1275.15503	36825.3125
1278.69312	37965.6125
1282.22882	39177.6125
1285.76211	40635.4125
1289.29301	42299.1125
1292.82151	44243.2125
1296.34761	46793.5125
1299.87133	49871.5125
1303.39266	53471.6125
1306.9116	57099.2125
1310.42815	60254.0125
1313.94233	61874.3125
1317.45412	61070.3125
1320.96354	58723.5125
1324.47058	56124.3125
1327.97525	53861.6125
1331.47754	52323.8125
1334.97747	51448.6125
1338.47502	50765.3125
1341.97022	50002.7125
1345.46305	49239.4125
1348.95352	49086.3125
1352.44163	50188.3125
1355.92738	52777.1125
1359.41078	56757.5125
1362.89183	59911.6125
1366.37053	59288.6125
1369.84688	53918.3125
1373.32088	46964.7125
1376.79254	42297.9125
1380.26186	40558.7125
1383.72883	40247.7125
1387.19347	40014.1125
1390.65578	39313.0125
1394.11575	38967.8125
1397.57339	39360.3125
1401.0287	39905.8125
1404.48168	40359.0125
1407.93234	40421.1125
1411.38068	40014.0125
1414.82669	39259.6125
1418.27039	38192.5125
1421.71177	36841.6125
1425.15083	35666.8125
1428.58758	35199.4125
1432.02203	35714.3125
1435.45416	36751.0125
1438.88399	37722.9125
1442.31151	38277.0125
1445.73673	38415.2125
1449.15965	38373.9125
1452.58027	38095.0125
1455.9986	37697.8125
1459.41463	37646.7125
1462.82837	38280.4125
1466.23982	39346.3125
1469.64898	40396.8125
1473.05586	41133.7125
1476.46045	41573.4125
1479.86276	41735.3125
1483.26279	41558.5125
1486.66054	41657.0125
1490.05602	42020.1125
1493.44922	42496.2125
1496.84016	42777.5125
1500.22882	43140.0125
1503.61521	43904.5125
1506.99934	45062.1125
1510.38121	45923.5125
1513.76081	45741.0125
1517.13816	44473.6125
1520.51324	42683.4125
1523.88607	41234.0125
1527.25665	40698.9125
1530.62498	40597.2125
1533.99105	40394.6125
1537.35488	39793.5125
1540.71647	38885.4125
1544.07581	37764.5125
1547.4329	36747.8125
1550.78776	35917.7125
1554.14038	35253.7125
1557.49077	34899.7125
1560.83892	34777.0125
1564.18484	34856.9125
1567.52853	35088.1125
1570.86999	35493.1125
1574.20922	36123.8125
1577.54624	36619.7125
1580.88103	36604.1125
1584.2136	36795.0125
1587.54395	38073.3125
1590.87208	40616.5125
1594.19801	44112.3125
1597.52172	47485.8125
1600.84321	48616.3125
1604.16251	46285.6125
1607.47959	41924.2125
1610.79447	37242.7125
1614.10715	33257.3125
1617.41763	30408.4125
1620.7259	28661.1125
1624.03199	27930.7125
1627.33587	28215.9125
1630.63757	29373.3125
1633.93707	31799.1125
1637.23439	35701.6125
1640.52951	41535.9125
1643.82246	48365.0125
1647.11321	53433.1125
1650.40179	53423.3125
1653.68819	47960.7125
1656.97241	40088.0125
1660.25446	33169.1125
1663.53433	28572.7125
1666.81203	25762.2125
1670.08756	24128.1125
1673.36092	23138.8125
1676.63211	22435.4125
1679.90115	21997.3125
1683.16801	21670.0125
1686.43272	21371.5125
1689.69527	21128.6125
1692.95567	20990.2125
1696.2139	20771.0125
1699.46999	20547.1125
1702.72392	20499.4125
1705.97571	20525.2125
1709.22535	20572.8125
1712.47284	20633.6125
1715.71819	20577.0125
1718.96139	20514.1125
1722.20246	20484.1125
1725.44139	20376.1125
1728.67818	20235.8125
1731.91284	20124.5125
1735.14537	19985.0125
1738.37576	19911.8125
1741.60403	19855.5125
1744.83017	19772.3125
1748.05418	19659.4125
1751.27607	19597.2125
1754.49584	19539.9125
1757.71349	19502.3125
1760.92903	19450.8125
1764.14244	19415.5125
1767.35375	19423.0125
1770.56294	19400.0125
1773.77002	19334.0125
1776.97499	19357.9125
1780.17785	19342.7125
1783.37861	19359.3125
1786.57727	19391.1125
1789.77382	19343.2125
1792.96828	19295.6125
1796.16064	19275.8125
1799.3509	19252.7125
1802.53907	19235.6125
1805.72514	19190.0125
1808.90913	19173.8125
1812.09102	19149.2125
1815.27083	19126.4125
1818.44856	19082.6125
1821.6242	19077.2125
1824.79776	19042.9125
1827.96924	19108.2125
1831.13864	19123.4125
1834.30597	19094.5125
1837.47122	19148.2125
1840.6344	19139.3125
1843.7955	19146.8125
1846.95454	19124.7125
1850.11151	19145.9125
1853.26642	19118.3125
1856.41926	19099.2125
1859.57004	19089.5125
1862.71876	19050.4125
1865.86542	19027.0125
1869.01003	19016.7125
1872.15258	19036.7125
1875.29308	18982.4125
1878.43152	18975.6125
1881.56792	18989.6125
1884.70227	19009.0125
1887.83457	19003.9125
1890.96482	18993.4125
1894.09304	18948.3125
1897.21921	18912.7125
1900.34335	18896.9125
1903.46544	18894.7125
1906.58551	18869.7125
1909.70353	18821.4125
1912.81953	18798.8125
1915.93349	18759.2125
1919.04543	18691.7125
1922.15534	18714.3125
1925.26322	18633.3125
1928.36908	18599.9125
1931.47292	18544.6125
1934.57473	18512.8125
1937.67453	18432.1125
1940.77232	18391.2125
1943.86808	18334.7125
1946.96184	18325.0125
1950.05358	18264.8125
1953.14331	18230.2125
1956.23103	18203.9125
1959.31675	18149.5125
1962.40046	18073.6125
1965.48217	18056.0125
1968.56188	18001.7125
1971.63959	17967.6125
1974.7153	17909.3125
1977.78901	17896.6125
1980.86073	17833.4125
1983.93046	17763.7125
1986.99819	17726.5125
1990.06394	17668.8125
1993.1277	17634.6125
1996.18947	17572.4125
1999.24925	17490.4125
2002.30706	17427.2125
2005.36288	17444.4125
2008.41672	17359.8125
2011.46859	17309.8125
2014.51848	17306.9125
2017.56639	17266.7125
2020.61233	17249.6125
2023.6563	17228.0125
2026.6983	17199.9125
2029.73833	17154.6125
2032.7764	17164.3125
2035.8125	17095.7125
2038.84664	17088.9125
2041.87881	17063.1125
2044.90903	17036.0125
2047.93729	17031.3125
2050.96359	17014.3125
2053.98794	17007.6125
2057.01034	16982.4125
2060.03078	16993.8125
2063.04927	16982.9125
2066.06582	16957.7125
2069.08042	16962.1125
2072.09307	16967.4125
2075.10378	16940.8125
2078.11255	16946.4125
2081.11938	16942.1125
2084.12426	16903.5125
2087.12722	16914.1125
2090.12824	16892.5125
2093.12732	16938.4125
2096.12447	16978.9125
2099.11969	16970.6125
2102.11299	16948.3125
2105.10435	16944.1125
2108.09379	16929.6125
2111.08131	16938.0125
2114.0669	16959.1125
2117.05057	17002.4125
2120.03233	17013.0125
2123.01216	16999.5125
2125.99008	17021.9125
2128.96609	17061.1125
2131.94018	17066.3125
2134.91236	17099.9125
2137.88263	17095.0125
2140.851	17122.7125
2143.81746	17132.0125
2146.78201	17100.8125
2149.74466	17137.4125
2152.7054	17125.7125
2155.66425	17135.1125
2158.6212	17116.7125
2161.57625	17083.6125
2164.52941	17128.6125
2167.48067	17092.2125
2170.43004	17086.2125
2173.37752	17056.3125
2176.32311	17097.0125
2179.26681	17096.0125
2182.20863	17126.8125
2185.14856	17142.6125
2188.08661	17166.9125
2191.02278	17191.6125
2193.95707	17175.4125
2196.88948	17130.1125
2199.82001	17144.9125
2202.74867	17154.0125
2205.67545	17096.1125
2208.60037	17143.2125
2211.52341	17059.9125
2214.44458	17063.8125
2217.36388	17047.5125
2220.28132	17037.3125
2223.1969	16965.5125
2226.11061	16971.4125
2229.02246	16934.4125
2231.93245	16952.0125
2234.84058	16949.1125
2237.74686	16886.6125
2240.65128	16943.1125
2243.55385	16924.3125
2246.45456	16884.8125
2249.35343	16833.0125
2252.25044	16825.2125
2255.14561	16789.5125
2258.03893	16779.1125
2260.93041	16726.9125
2263.82004	16685.5125
2266.70783	16648.9125
2269.59378	16650.3125
2272.4779	16589.4125
2275.36017	16561.2125
2278.24061	16564.0125
2281.11922	16545.1125
2283.996	16472.8125
2286.87094	16492.3125
2289.74405	16479.0125
2292.61534	16486.8125
2295.4848	16433.6125
2298.35243	16470.2125
2301.21824	16477.3125
2304.08223	16487.3125
2306.94439	16508.3125
2309.80474	16542.5125
2312.66327	16531.3125
2315.51999	16507.0125
2318.37489	16511.2125
2321.22797	16450.5125
2324.07925	16475.1125
2326.92871	16497.3125
2329.77637	16462.8125
2332.62222	16404.1125
2335.46626	16406.8125
2338.3085	16400.6125
2341.14893	16413.3125
2343.98756	16415.4125
2346.8244	16448.5125
2349.65943	16434.3125
2352.49267	16420.1125
2355.32411	16433.1125
2358.15376	16415.8125
2360.98161	16435.4125
2363.80768	16400.0125
2366.63195	16420.3125
2369.45444	16390.0125
2372.27514	16386.0125
2375.09405	16340.1125
2377.91118	16325.1125
2380.72652	16267.5125
2383.54009	16257.1125
2386.35187	16279.7125
2389.16188	16233.7125
2391.97011	16224.8125
2394.77657	16203.6125
2397.58125	16187.6125
2400.38416	16195.0125
2403.18529	16139.8125
2405.98466	16136.2125
2408.78226	16066.4125
2411.57809	16076.4125
2414.37216	16039.2125
2417.16446	16008.3125
2419.955	16006.3125
2422.74378	16040.6125
2425.5308	16002.8125
2428.31606	16016.8125
2431.09956	15988.3125
2433.88131	15972.4125
2436.6613	16007.0125
2439.43954	16031.7125
2442.21603	16001.8125
2444.99077	15976.3125
2447.76377	16023.5125
2450.53501	16003.5125
2453.30451	16021.0125
2456.07226	16022.9125
2458.83827	16051.4125
2461.60254	16033.2125
2464.36507	16056.8125
2467.12586	16024.5125
2469.88492	16045.7125
2472.64224	16052.1125
2475.39782	16040.6125
2478.15167	16053.5125
2480.90379	16069.3125
2483.65417	16121.2125
2486.40283	16083.3125
2489.14976	16097.0125
2491.89497	16121.9125
2494.63845	16119.2125
2497.3802	16138.5125
2500.12024	16142.3125
2502.85855	16104.7125
2505.59514	16087.9125
2508.33002	16068.3125
2511.06318	16095.3125
2513.79462	16067.3125
2516.52435	16084.2125
2519.25237	16078.9125
2521.97867	16076.4125
2524.70327	16041.2125
2527.42616	16047.1125
2530.14734	16067.4125
2532.86681	16023.6125
2535.58458	16061.1125
2538.30065	16033.1125
2541.01501	16036.5125
2543.72768	16004.7125
2546.43864	16003.1125
2549.14791	15972.8125
2551.85548	15969.7125
2554.56136	15959.7125
2557.26554	15957.0125
2559.96803	15963.5125
2562.66883	15996.8125
2565.36794	15969.3125
2568.06536	15994.1125
2570.7611	15974.9125
2573.45514	16018.7125
2576.14751	15969.4125
2578.83819	15941.5125
2581.52719	15967.1125
2584.21451	15900.7125
2586.90015	15950.3125
2589.58411	15942.8125
2592.2664	15927.2125
2594.94701	15934.9125
2597.62594	15943.8125
2600.30321	15915.1125
2602.9788	15938.4125
2605.65273	15894.4125
2608.32498	15924.9125
2610.99557	15919.9125
2613.66449	15946.5125
2616.33175	15934.6125
2618.99734	15973.3125
2621.66128	15955.3125
2624.32355	15917.2125
2626.98416	15900.9125
2629.64311	15918.9125
2632.30041	15921.4125
2634.95605	15919.2125
2637.61004	15869.0125
2640.26238	15868.3125
2642.91306	15835.5125
2645.56209	15821.6125
2648.20948	15861.9125
2650.85521	15870.3125
2653.4993	15885.3125
2656.14175	15870.0125
2658.78255	15923.4125
2661.42171	15929.8125
2664.05923	15967.8125
2666.6951	15973.8125
2669.32934	15988.0125
2671.96194	16005.5125
2674.59291	15999.9125
2677.22224	16003.7125
2679.84993	16007.6125
2682.476	15985.6125
2685.10043	15956.2125
2687.72324	15937.7125
2690.34441	15951.4125
2692.96396	15936.5125
2695.58188	15977.0125
2698.19818	15960.1125
2700.81285	15944.9125
2703.4259	15930.0125
2706.03733	15841.0125
2708.64714	15886.0125
2711.25533	15937.0125
2713.86191	15963.6125
2716.46687	15982.4125
2719.07021	15995.4125
2721.67194	16041.2125
2724.27206	16045.7125
2726.87057	16104.0125
2729.46747	16099.7125
2732.06276	16104.8125
2734.65644	16090.3125
2737.24852	16093.9125
2739.83899	16061.5125
2742.42786	16155.5125
2745.01513	16093.2125
2747.60079	16121.6125
2750.18486	16065.0125
2752.76733	16030.7125
2755.3482	16049.5125
2757.92747	16043.7125
2760.50515	16024.5125
2763.08123	16072.9125
2765.65573	16043.7125
2768.22863	16040.6125
2770.79994	16008.3125
2773.36967	16057.7125
2775.9378	16054.6125
2778.50435	16107.0125
2781.06932	16094.3125
2783.6327	16102.6125
2786.1945	16091.2125
2788.75471	16069.3125
2791.31335	16040.6125
2793.87041	16019.7125
2796.42589	15979.0125
2798.97979	15957.9125
2801.53212	15955.7125
2804.08288	15970.2125
2806.63206	15931.7125
2809.17967	15911.2125
2811.72571	15867.2125
2814.27018	15834.6125
2816.81308	15801.2125
2819.35442	15799.3125
2821.89419	15770.0125
2824.43239	15807.3125
2826.96904	15775.1125
2829.50412	15778.6125
2832.03763	15729.7125
2834.56959	15775.0125
2837.1	15716.1125
2839.62884	15716.2125
2842.15613	15689.4125
2844.68186	15685.8125
2847.20604	15679.8125
2849.72867	15727.7125
2852.24974	15686.5125
2854.76927	15690.6125
2857.28724	15678.9125
2859.80367	15674.8125
2862.31855	15632.7125
2864.83189	15649.7125
2867.34368	15612.7125
2869.85393	15658.1125
2872.36264	15672.8125
2874.8698	15666.9125
2877.37543	15701.9125
2879.87952	15653.2125
2882.38207	15646.5125
2884.88308	15669.3125
2887.38256	15693.0125
2889.88051	15673.4125
2892.37692	15706.6125
2894.8718	15721.4125
2897.36515	15730.0125
2899.85698	15765.6125
2902.34727	15790.6125
2904.83604	15799.7125
2907.32328	15820.1125
2909.809	15830.8125
2912.29319	15869.0125
2914.77587	15850.4125
2917.25702	15838.5125
2919.73665	15803.2125
2922.21476	15872.9125
2924.69136	15829.1125
2927.16644	15834.7125
2929.64	15820.9125
2932.11205	15781.4125
2934.58258	15724.2125
2937.05161	15745.3125
2939.51912	15776.8125
2941.98513	15762.6125
2944.44962	15744.6125
2946.91261	15671.6125
2949.37409	15702.0125
2951.83407	15697.6125
2954.29254	15690.2125
2956.74951	15681.2125
2959.20498	15640.3125
2961.65895	15632.1125
2964.11142	15662.0125
2966.56239	15661.4125
2969.01186	15642.4125
2971.45984	15564.3125
2973.90632	15550.0125
2976.35131	15525.4125
2978.7948	15501.1125
2981.23681	15497.7125
2983.67732	15446.4125
2986.11635	15419.6125
2988.55388	15379.2125
2990.98993	15338.1125
2993.4245	15349.9125
2995.85758	15323.9125
2998.28917	15292.7125
3000.71928	15277.1125
3003.14791	15206.8125
3005.57506	15191.9125
3008.00073	15162.5125
3010.42493	15178.2125
3012.84764	15113.8125
3015.26888	15103.2125
3017.68865	15055.3125
3020.10694	15023.1125
3022.52376	15020.8125
3024.9391	15008.0125
3027.35298	15008.7125
3029.76539	14990.4125
3032.17632	15003.6125
3034.5858	14969.1125
3036.9938	14953.1125
3039.40034	14938.7125
3041.80542	14964.0125
3044.20903	14908.8125
3046.61118	14935.8125
3049.01187	14924.1125
3051.4111	14900.5125
3053.80888	14894.6125
3056.20519	14855.6125
3058.60005	14858.2125
3060.99345	14827.1125
3063.3854	14759.6125
3065.7759	14732.2125
3068.16494	14714.3125
3070.55254	14634.9125
3072.93868	14618.4125
3075.32338	14576.4125
3077.70662	14556.5125
3080.08842	14516.6125
3082.46878	14486.6125
3084.84769	14470.4125
3087.22515	14471.7125
3089.60118	14494.6125
3091.97576	14501.1125
3094.3489	14499.9125
3096.72061	14512.3125
3099.09087	14488.4125
3101.4597	14470.8125
3103.82709	14496.4125
3106.19305	14465.3125
3108.55757	14475.3125
3110.92066	14440.7125
3113.28232	14439.0125
3115.64255	14373.8125
3118.00134	14343.3125
3120.35871	14300.1125
3122.71466	14297.2125
3125.06917	14276.1125
3127.42226	14252.3125
3129.77393	14258.7125
3132.12417	14253.6125
3134.47299	14237.4125
3136.82039	14253.6125
3139.16636	14245.5125
3141.51092	14236.0125
3143.85406	14229.5125
3146.19579	14200.7125
3148.53609	14219.1125
3150.87499	14215.9125
3153.21246	14197.8125
3155.54853	14232.7125
3157.88318	14200.7125
3160.21642	14253.5125
3162.54826	14232.4125
3164.87868	14250.3125
3167.2077	14268.3125
3169.5353	14255.6125
3171.86151	14261.1125
3174.18631	14225.9125
3176.5097	14203.5125
3178.83169	14208.3125
3181.15228	14195.6125
3183.47147	14138.8125
3185.78926	14107.9125
3188.10565	14110.1125
3190.42065	14159.2125
3192.73424	14136.8125
3195.04645	14132.6125
3197.35725	14133.2125
3199.66667	14145.0125
3201.97469	14109.6125
3204.28132	14130.3125
3206.58656	14160.5125
3208.8904	14126.4125
3211.19287	14131.8125
3213.49394	14147.2125
3215.79363	14131.8125
3218.09193	14140.8125
3220.38884	14157.6125
3222.68438	14127.0125
3224.97853	14125.0125
3227.2713	14129.1125
3229.56269	14140.6125
3231.8527	14137.4125
3234.14133	14136.8125
3236.42858	14139.7125
3238.71446	14080.1125
3240.99896	14044.6125
3243.28209	14033.3125
3245.56384	14021.8125
3247.84423	14024.2125
3250.12324	14006.4125
3252.40088	14007.4125
3254.67715	13989.6125
3256.95205	13980.0125
3259.22558	14007.3125
3261.49775	13958.6125
3263.76855	13956.2125
3266.03799	13934.5125
3268.30606	13916.2125
3270.57277	13901.3125
3272.83812	13870.1125
3275.10211	13819.1125
3277.36474	13840.2125
3279.62601	13811.1125
3281.88593	13823.9125
3284.14448	13827.4125
3286.40168	13855.2125
3288.65753	13847.0125
3290.91202	13843.3125
3293.16516	13832.4125
3295.41695	13811.7125
3297.66738	13741.0125
3299.91647	13673.1125
3302.16421	13586.5125
3304.4106	13519.0125
3306.65564	13446.7125
3308.89933	13361.4125
3311.14169	13292.5125
3313.38269	13161.1125
3315.62236	13082.9125
3317.86068	12970.8125
3320.09766	12853.8125
3322.3333	12806.7125
3324.5676	12748.8125
3326.80056	12532.3125
3329.03219	12484.1125
3331.26248	3.6125
3333.49143	-0.2875
3335.71905	0.7125
