Data from AgNPs_FTO_APTES_UA_50uM_CRN_1000uM_R6G_10uM_NaF_0.1M_Addition_RamanShift__11__17-39-03-587.txt Node

Date: Mon Feb 21 17:39:03 GMT 2022
User: TCL
Spectrometer: QEP01345
Trigger mode: 4
Integration Time (sec): 7.000000E0
Scans to average: 10
Electric dark correction enabled: true
Nonlinearity correction enabled: false
Boxcar width: 0
XAxis mode: Raman Shifts
Number of Pixels in Spectrum: 1044
>>>>>Begin Spectral Data<<<<<
46.04893	-0.2625
50.45542	-0.1625
54.85868	-0.5625
59.25871	-0.6625
63.6555	41.9375
68.04907	43.5375
72.43941	46.0375
76.82654	46.9375
81.21044	49.9375
85.59113	50.4375
89.96862	55.7375
94.34289	56.1375
98.71396	57.7375
103.08183	61.0375
107.4465	62.5375
111.80798	61.9375
116.16626	63.7375
120.52136	66.1375
124.87327	66.0375
129.222	68.1375
133.56755	72.3375
137.90993	75.3375
142.24913	79.4375
146.58517	82.8375
150.91804	93.2375
155.24774	109.3375
159.57429	130.3375
163.89768	166.4375
168.21792	214.8375
172.53501	293.2375
176.84895	405.6375
181.15975	568.7375
185.46741	799.6375
189.77193	1099.1375
194.07331	1483.0375
198.37157	1915.5375
202.6667	2378.3375
206.9587	2832.8375
211.24758	3309.3375
215.53334	3739.6375
219.81599	4221.5375
224.09553	4723.9375
228.37195	5302.0375
232.64527	5905.8375
236.91549	6573.0375
241.18261	7236.3375
245.44663	7857.6375
249.70755	8386.0375
253.96539	8870.6375
258.22014	9241.3375
262.4718	9524.0375
266.72039	9734.0375
270.96589	9794.4375
275.20832	9756.7375
279.44768	9647.0375
283.68397	9486.1375
287.91719	9320.4375
292.14735	9229.7375
296.37445	9204.1375
300.59849	9201.1375
304.81948	9180.1375
309.03742	9175.9375
313.25231	9130.0375
317.46415	9011.3375
321.67296	8867.5375
325.87872	8705.4375
330.08145	8613.3375
334.28114	8622.9375
338.47781	8686.9375
342.67145	8790.2375
346.86207	8921.9375
351.04966	9070.3375
355.23424	9241.9375
359.4158	9399.3375
363.59435	9521.1375
367.76989	9594.3375
371.94243	9676.6375
376.11196	9744.4375
380.27849	9788.7375
384.44203	9862.5375
388.60257	9930.1375
392.76012	9997.7375
396.91468	10068.7375
401.06626	10179.1375
405.21485	10275.1375
409.36047	10230.7375
413.50311	10112.9375
417.64277	9941.0375
421.77947	9888.4375
425.9132	9874.5375
430.04396	9920.7375
434.17176	9974.2375
438.2966	10043.9375
442.41849	10119.6375
446.53742	10252.6375
450.6534	10405.6375
454.76644	10493.8375
458.87653	10558.6375
462.98368	10554.0375
467.08789	10547.5375
471.18916	10514.6375
475.2875	10434.7375
479.38291	10348.2375
483.4754	10314.2375
487.56496	10263.4375
491.6516	10211.4375
495.73531	10192.2375
499.81612	10192.2375
503.89401	10224.6375
507.96899	10263.5375
512.04106	10345.7375
516.11023	10388.3375
520.1765	10362.4375
524.23987	10333.1375
528.30034	10284.2375
532.35792	10223.0375
536.41261	10176.3375
540.46441	10110.8375
544.51333	10101.2375
548.55936	10132.8375
552.60252	10243.1375
556.64279	10372.3375
560.6802	10422.2375
564.71473	10425.4375
568.7464	10526.1375
572.7752	10577.2375
576.80114	10636.4375
580.82422	10696.7375
584.84444	10735.4375
588.86181	10795.1375
592.87633	10832.1375
596.888	10900.1375
600.89682	10960.3375
604.9028	11314.9375
608.90594	12174.8375
612.90624	13238.8375
616.90371	12867.9375
620.89834	11283.8375
624.89015	10504.0375
628.87913	10358.4375
632.86528	10421.9375
636.84862	10522.1375
640.82913	10502.8375
644.80683	10358.8375
648.78172	10256.4375
652.75379	10257.7375
656.72306	10355.7375
660.68952	10489.3375
664.65319	10496.2375
668.61405	10393.0375
672.57211	10444.7375
676.52738	10525.2375
680.47986	10601.9375
684.42955	10606.4375
688.37646	10583.7375
692.32058	10553.2375
696.26192	10525.6375
700.20048	10555.4375
704.13626	10525.7375
708.06928	10486.0375
711.99952	10420.9375
715.927	10351.1375
719.85171	10354.6375
723.77365	10331.7375
727.69284	10311.0375
731.60928	10243.0375
735.52295	10222.0375
739.43388	10197.1375
743.34206	10236.4375
747.24749	10244.1375
751.15017	10282.8375
755.05012	10348.9375
758.94733	10497.7375
762.8418	10835.5375
766.73354	11422.7375
770.62254	12064.4375
774.50882	12364.9375
778.39237	12072.4375
782.27321	11411.4375
786.15132	10831.1375
790.02671	10470.2375
793.89938	10227.3375
797.76935	10177.7375
801.6366	10113.4375
805.50115	10050.5375
809.36299	10032.5375
813.22213	10000.4375
817.07857	9987.8375
820.93231	9958.1375
824.78336	9931.6375
828.63172	9954.8375
832.47738	9933.6375
836.32036	9899.6375
840.16066	9898.8375
843.99827	9890.7375
847.8332	9889.2375
851.66546	9907.1375
855.49504	9899.4375
859.32195	9927.1375
863.1462	9894.9375
866.96777	9919.6375
870.78668	9878.8375
874.60293	9904.5375
878.41652	9912.7375
882.22745	9929.3375
886.03573	9975.7375
889.84136	9961.8375
893.64433	9958.6375
897.44466	9917.0375
901.24235	9899.8375
905.0374	9919.6375
908.8298	9850.9375
912.61957	9827.3375
916.40671	9889.4375
920.19121	9876.8375
923.97308	9913.9375
927.75233	9921.1375
931.52895	9898.6375
935.30295	9839.5375
939.07433	9723.6375
942.84309	9651.2375
946.60924	9571.1375
950.37278	9536.0375
954.13371	9522.5375
957.89203	9494.7375
961.64774	9497.8375
965.40086	9439.3375
969.15137	9416.3375
972.89929	9422.5375
976.64461	9376.5375
980.38733	9365.4375
984.12747	9366.6375
987.86502	9371.5375
991.59999	9398.4375
995.33237	9424.0375
999.06217	9459.2375
1002.78939	9528.9375
1006.51404	9573.2375
1010.23611	9653.8375
1013.95561	9722.8375
1017.67255	9761.7375
1021.38692	9728.6375
1025.09872	9683.1375
1028.80796	9627.0375
1032.51465	9567.3375
1036.21877	9554.5375
1039.92035	9575.5375
1043.61937	9603.8375
1047.31584	9659.2375
1051.00976	9702.8375
1054.70114	9713.9375
1058.38998	9737.8375
1062.07627	9737.2375
1065.76003	9795.6375
1069.44126	9827.6375
1073.11995	9869.9375
1076.79611	9927.4375
1080.46974	9975.3375
1084.14085	10022.7375
1087.80943	10050.6375
1091.47549	10094.6375
1095.13903	10090.2375
1098.80005	10027.3375
1102.45857	9940.5375
1106.11456	9853.3375
1109.76805	9830.3375
1113.41903	9846.7375
1117.06751	9926.7375
1120.71348	10022.8375
1124.35696	10153.2375
1127.99793	10284.4375
1131.63641	10325.7375
1135.2724	10249.7375
1138.90589	10135.7375
1142.5369	10044.3375
1146.16542	9986.6375
1149.79145	9945.4375
1153.415	9963.8375
1157.03607	9982.6375
1160.65467	10078.6375
1164.27079	10244.9375
1167.88443	10463.9375
1171.49561	10774.1375
1175.10432	11195.5375
1178.71056	11775.9375
1182.31434	12336.4375
1185.91565	12643.1375
1189.51451	12673.7375
1193.11091	12529.6375
1196.70485	12208.4375
1200.29634	11900.5375
1203.88538	11588.3375
1207.47197	11234.5375
1211.05612	10915.9375
1214.63782	10693.0375
1218.21708	10561.6375
1221.79391	10456.5375
1225.36829	10412.8375
1228.94024	10401.8375
1232.50976	10398.3375
1236.07685	10417.1375
1239.6415	10405.5375
1243.20374	10431.1375
1246.76355	10429.8375
1250.32093	10483.2375
1253.8759	10531.6375
1257.42845	10645.2375
1260.97859	10742.9375
1264.52631	10905.4375
1268.07163	11039.4375
1271.61453	11142.6375
1275.15503	11258.6375
1278.69312	11330.1375
1282.22882	11368.1375
1285.76211	11456.8375
1289.29301	11610.3375
1292.82151	11849.4375
1296.34761	12098.6375
1299.87133	12401.7375
1303.39266	12813.6375
1306.9116	13315.3375
1310.42815	13833.2375
1313.94233	14100.2375
1317.45412	14000.5375
1320.96354	13711.4375
1324.47058	13348.7375
1327.97525	13050.6375
1331.47754	12835.2375
1334.97747	12753.4375
1338.47502	12783.1375
1341.97022	12979.6375
1345.46305	13301.0375
1348.95352	13680.3375
1352.44163	14110.0375
1355.92738	14609.9375
1359.41078	15221.7375
1362.89183	15833.0375
1366.37053	15710.4375
1369.84688	14539.9375
1373.32088	13148.5375
1376.79254	12177.2375
1380.26186	11707.0375
1383.72883	11430.8375
1387.19347	11282.1375
1390.65578	11068.1375
1394.11575	10910.5375
1397.57339	10788.7375
1401.0287	10701.6375
1404.48168	10695.6375
1407.93234	10631.4375
1411.38068	10589.4375
1414.82669	10517.7375
1418.27039	10434.3375
1421.71177	10291.3375
1425.15083	10164.5375
1428.58758	10036.5375
1432.02203	9966.8375
1435.45416	9977.5375
1438.88399	10007.5375
1442.31151	10028.4375
1445.73673	10072.7375
1449.15965	10106.7375
1452.58027	10119.5375
1455.9986	10170.0375
1459.41463	10195.5375
1462.82837	10279.1375
1466.23982	10384.9375
1469.64898	10522.0375
1473.05586	10629.5375
1476.46045	10715.0375
1479.86276	10773.4375
1483.26279	10831.8375
1486.66054	10903.0375
1490.05602	11061.5375
1493.44922	11307.3375
1496.84016	11690.9375
1500.22882	12247.3375
1503.61521	13049.4375
1506.99934	13850.4375
1510.38121	14369.6375
1513.76081	14358.6375
1517.13816	13794.3375
1520.51324	12992.5375
1523.88607	12243.3375
1527.25665	11791.1375
1530.62498	11550.3375
1533.99105	11393.3375
1537.35488	11278.3375
1540.71647	11168.8375
1544.07581	11053.9375
1547.4329	10935.4375
1550.78776	10844.7375
1554.14038	10785.3375
1557.49077	10819.2375
1560.83892	10842.8375
1564.18484	10915.2375
1567.52853	11038.2375
1570.86999	11201.1375
1574.20922	11309.7375
1577.54624	11316.1375
1580.88103	11132.6375
1584.2136	10818.4375
1587.54395	10641.1375
1590.87208	10588.0375
1594.19801	10770.5375
1597.52172	11061.7375
1600.84321	11230.3375
1604.16251	11137.8375
1607.47959	10888.7375
1610.79447	10590.8375
1614.10715	10236.0375
1617.41763	9850.0375
1620.7259	9588.6375
1624.03199	9374.9375
1627.33587	9280.7375
1630.63757	9261.8375
1633.93707	9407.9375
1637.23439	9695.4375
1640.52951	10138.2375
1643.82246	10785.2375
1647.11321	11472.1375
1650.40179	11917.4375
1653.68819	11804.4375
1656.97241	11110.2375
1660.25446	10230.3375
1663.53433	9523.3375
1666.81203	9055.4375
1670.08756	8728.4375
1673.36092	8525.8375
1676.63211	8376.2375
1679.90115	8296.1375
1683.16801	8210.1375
1686.43272	8132.7375
1689.69527	8068.2375
1692.95567	8030.0375
1696.2139	7999.9375
1699.46999	7962.7375
1702.72392	7922.8375
1705.97571	7900.8375
1709.22535	7916.4375
1712.47284	7905.1375
1715.71819	7904.9375
1718.96139	7879.0375
1722.20246	7840.5375
1725.44139	7823.4375
1728.67818	7788.1375
1731.91284	7737.4375
1735.14537	7693.4375
1738.37576	7673.8375
1741.60403	7622.1375
1744.83017	7609.6375
1748.05418	7590.6375
1751.27607	7600.2375
1754.49584	7614.8375
1757.71349	7618.5375
1760.92903	7608.3375
1764.14244	7600.6375
1767.35375	7571.8375
1770.56294	7533.0375
1773.77002	7493.6375
1776.97499	7465.8375
1780.17785	7417.3375
1783.37861	7403.5375
1786.57727	7367.9375
1789.77382	7331.6375
1792.96828	7336.8375
1796.16064	7284.2375
1799.3509	7249.6375
1802.53907	7242.2375
1805.72514	7208.9375
1808.90913	7204.8375
1812.09102	7178.7375
1815.27083	7149.9375
1818.44856	7119.5375
1821.6242	7122.5375
1824.79776	7112.0375
1827.96924	7083.7375
1831.13864	7079.1375
1834.30597	7072.0375
1837.47122	7052.4375
1840.6344	7030.5375
1843.7955	7017.1375
1846.95454	7007.8375
1850.11151	6994.8375
1853.26642	6990.7375
1856.41926	6979.8375
1859.57004	6969.0375
1862.71876	6960.0375
1865.86542	6957.3375
1869.01003	6947.7375
1872.15258	6920.5375
1875.29308	6936.7375
1878.43152	6904.9375
1881.56792	6890.9375
1884.70227	6898.8375
1887.83457	6893.6375
1890.96482	6878.5375
1894.09304	6851.6375
1897.21921	6857.9375
1900.34335	6846.1375
1903.46544	6827.2375
1906.58551	6819.3375
1909.70353	6800.6375
1912.81953	6784.0375
1915.93349	6786.6375
1919.04543	6762.8375
1922.15534	6735.9375
1925.26322	6718.6375
1928.36908	6693.1375
1931.47292	6674.6375
1934.57473	6662.0375
1937.67453	6643.4375
1940.77232	6647.3375
1943.86808	6618.4375
1946.96184	6606.5375
1950.05358	6572.9375
1953.14331	6549.5375
1956.23103	6531.1375
1959.31675	6519.2375
1962.40046	6488.6375
1965.48217	6484.8375
1968.56188	6441.2375
1971.63959	6427.1375
1974.7153	6410.4375
1977.78901	6385.8375
1980.86073	6356.5375
1983.93046	6366.4375
1986.99819	6316.3375
1990.06394	6302.4375
1993.1277	6285.2375
1996.18947	6280.2375
1999.24925	6251.9375
2002.30706	6215.3375
2005.36288	6208.4375
2008.41672	6181.9375
2011.46859	6146.8375
2014.51848	6133.8375
2017.56639	6113.2375
2020.61233	6090.8375
2023.6563	6082.3375
2026.6983	6073.0375
2029.73833	6033.7375
2032.7764	6025.3375
2035.8125	6005.6375
2038.84664	5989.2375
2041.87881	5984.0375
2044.90903	5953.0375
2047.93729	5918.1375
2050.96359	5926.0375
2053.98794	5936.8375
2057.01034	5903.7375
2060.03078	5912.8375
2063.04927	5915.3375
2066.06582	5878.2375
2069.08042	5881.7375
2072.09307	5872.8375
2075.10378	5876.0375
2078.11255	5860.9375
2081.11938	5870.0375
2084.12426	5844.0375
2087.12722	5847.9375
2090.12824	5855.7375
2093.12732	5839.9375
2096.12447	5832.3375
2099.11969	5816.4375
2102.11299	5826.1375
2105.10435	5824.0375
2108.09379	5825.8375
2111.08131	5824.4375
2114.0669	5833.5375
2117.05057	5827.0375
2120.03233	5820.8375
2123.01216	5832.0375
2125.99008	5831.0375
2128.96609	5847.4375
2131.94018	5850.1375
2134.91236	5854.5375
2137.88263	5838.3375
2140.851	5847.8375
2143.81746	5850.1375
2146.78201	5845.0375
2149.74466	5825.1375
2152.7054	5830.2375
2155.66425	5841.8375
2158.6212	5813.3375
2161.57625	5832.5375
2164.52941	5801.6375
2167.48067	5821.9375
2170.43004	5787.7375
2173.37752	5800.1375
2176.32311	5783.5375
2179.26681	5795.1375
2182.20863	5778.6375
2185.14856	5791.3375
2188.08661	5763.9375
2191.02278	5772.8375
2193.95707	5780.5375
2196.88948	5776.8375
2199.82001	5766.8375
2202.74867	5747.1375
2205.67545	5758.5375
2208.60037	5724.4375
2211.52341	5722.2375
2214.44458	5705.8375
2217.36388	5681.7375
2220.28132	5686.5375
2223.1969	5651.3375
2226.11061	5647.0375
2229.02246	5626.7375
2231.93245	5624.4375
2234.84058	5607.5375
2237.74686	5605.6375
2240.65128	5568.7375
2243.55385	5576.0375
2246.45456	5558.1375
2249.35343	5543.1375
2252.25044	5537.8375
2255.14561	5548.1375
2258.03893	5527.8375
2260.93041	5515.6375
2263.82004	5501.6375
2266.70783	5494.4375
2269.59378	5476.6375
2272.4779	5458.6375
2275.36017	5448.5375
2278.24061	5432.0375
2281.11922	5414.4375
2283.996	5394.2375
2286.87094	5399.4375
2289.74405	5374.2375
2292.61534	5376.6375
2295.4848	5358.5375
2298.35243	5366.6375
2301.21824	5354.1375
2304.08223	5341.9375
2306.94439	5321.0375
2309.80474	5319.0375
2312.66327	5310.6375
2315.51999	5283.7375
2318.37489	5302.4375
2321.22797	5285.3375
2324.07925	5268.5375
2326.92871	5269.2375
2329.77637	5252.7375
2332.62222	5225.8375
2335.46626	5237.4375
2338.3085	5228.0375
2341.14893	5226.3375
2343.98756	5208.8375
2346.8244	5187.5375
2349.65943	5181.3375
2352.49267	5181.4375
2355.32411	5181.4375
2358.15376	5176.2375
2360.98161	5169.5375
2363.80768	5158.4375
2366.63195	5164.4375
2369.45444	5142.8375
2372.27514	5154.4375
2375.09405	5147.3375
2377.91118	5132.5375
2380.72652	5115.7375
2383.54009	5100.9375
2386.35187	5090.4375
2389.16188	5085.9375
2391.97011	5064.3375
2394.77657	5052.6375
2397.58125	5028.0375
2400.38416	5018.9375
2403.18529	5012.2375
2405.98466	4999.9375
2408.78226	5005.6375
2411.57809	4980.7375
2414.37216	4962.6375
2417.16446	4966.2375
2419.955	4967.9375
2422.74378	4976.0375
2425.5308	4952.6375
2428.31606	4947.6375
2431.09956	4938.3375
2433.88131	4923.2375
2436.6613	4925.5375
2439.43954	4907.0375
2442.21603	4904.9375
2444.99077	4895.7375
2447.76377	4895.0375
2450.53501	4885.9375
2453.30451	4889.8375
2456.07226	4893.9375
2458.83827	4865.6375
2461.60254	4867.4375
2464.36507	4858.8375
2467.12586	4850.7375
2469.88492	4850.0375
2472.64224	4841.7375
2475.39782	4828.2375
2478.15167	4830.9375
2480.90379	4828.5375
2483.65417	4810.3375
2486.40283	4826.2375
2489.14976	4817.0375
2491.89497	4809.8375
2494.63845	4809.2375
2497.3802	4799.7375
2500.12024	4799.1375
2502.85855	4785.9375
2505.59514	4780.3375
2508.33002	4780.4375
2511.06318	4782.5375
2513.79462	4747.2375
2516.52435	4749.0375
2519.25237	4731.7375
2521.97867	4719.9375
2524.70327	4725.0375
2527.42616	4701.9375
2530.14734	4695.4375
2532.86681	4683.9375
2535.58458	4671.9375
2538.30065	4693.2375
2541.01501	4678.1375
2543.72768	4650.5375
2546.43864	4655.5375
2549.14791	4624.0375
2551.85548	4619.5375
2554.56136	4619.6375
2557.26554	4608.0375
2559.96803	4595.2375
2562.66883	4585.6375
2565.36794	4591.4375
2568.06536	4572.3375
2570.7611	4549.2375
2573.45514	4546.9375
2576.14751	4545.1375
2578.83819	4522.4375
2581.52719	4520.8375
2584.21451	4507.8375
2586.90015	4502.5375
2589.58411	4482.0375
2592.2664	4479.4375
2594.94701	4457.8375
2597.62594	4453.8375
2600.30321	4450.9375
2602.9788	4449.8375
2605.65273	4423.4375
2608.32498	4422.7375
2610.99557	4423.0375
2613.66449	4427.1375
2616.33175	4402.5375
2618.99734	4400.0375
2621.66128	4385.6375
2624.32355	4384.9375
2626.98416	4367.1375
2629.64311	4378.3375
2632.30041	4353.1375
2634.95605	4347.7375
2637.61004	4339.2375
2640.26238	4324.7375
2642.91306	4335.8375
2645.56209	4332.6375
2648.20948	4323.7375
2650.85521	4322.0375
2653.4993	4295.7375
2656.14175	4310.8375
2658.78255	4317.3375
2661.42171	4286.0375
2664.05923	4315.3375
2666.6951	4300.2375
2669.32934	4316.7375
2671.96194	4308.4375
2674.59291	4289.9375
2677.22224	4292.8375
2679.84993	4295.3375
2682.476	4295.0375
2685.10043	4283.2375
2687.72324	4282.2375
2690.34441	4282.9375
2692.96396	4276.4375
2695.58188	4270.6375
2698.19818	4271.0375
2700.81285	4291.7375
2703.4259	4251.4375
2706.03733	4258.4375
2708.64714	4258.9375
2711.25533	4270.8375
2713.86191	4254.0375
2716.46687	4270.7375
2719.07021	4263.7375
2721.67194	4277.7375
2724.27206	4259.1375
2726.87057	4265.3375
2729.46747	4248.9375
2732.06276	4260.5375
2734.65644	4252.6375
2737.24852	4249.7375
2739.83899	4242.1375
2742.42786	4247.1375
2745.01513	4227.7375
2747.60079	4211.5375
2750.18486	4203.7375
2752.76733	4202.1375
2755.3482	4196.3375
2757.92747	4193.0375
2760.50515	4164.8375
2763.08123	4158.5375
2765.65573	4165.3375
2768.22863	4150.5375
2770.79994	4157.2375
2773.36967	4129.3375
2775.9378	4142.7375
2778.50435	4141.4375
2781.06932	4109.9375
2783.6327	4125.2375
2786.1945	4113.3375
2788.75471	4111.5375
2791.31335	4082.6375
2793.87041	4088.3375
2796.42589	4081.7375
2798.97979	4077.8375
2801.53212	4051.3375
2804.08288	4053.0375
2806.63206	4047.1375
2809.17967	4034.4375
2811.72571	4006.6375
2814.27018	4019.5375
2816.81308	4011.2375
2819.35442	3997.4375
2821.89419	3986.8375
2824.43239	3988.9375
2826.96904	3987.8375
2829.50412	3986.8375
2832.03763	3978.3375
2834.56959	3976.4375
2837.1	3980.3375
2839.62884	3982.1375
2842.15613	3982.7375
2844.68186	4007.2375
2847.20604	4014.4375
2849.72867	4025.5375
2852.24974	4024.1375
2854.76927	3992.8375
2857.28724	3994.5375
2859.80367	3988.5375
2862.31855	3988.4375
2864.83189	3990.5375
2867.34368	3973.3375
2869.85393	3980.9375
2872.36264	3960.6375
2874.8698	3956.0375
2877.37543	3964.8375
2879.87952	3941.2375
2882.38207	3945.6375
2884.88308	3937.8375
2887.38256	3939.9375
2889.88051	3944.6375
2892.37692	3946.5375
2894.8718	3930.0375
2897.36515	3956.9375
2899.85698	3947.4375
2902.34727	3948.2375
2904.83604	3954.9375
2907.32328	3972.9375
2909.809	3957.2375
2912.29319	3963.9375
2914.77587	3966.2375
2917.25702	3969.9375
2919.73665	3974.8375
2922.21476	3989.8375
2924.69136	3979.8375
2927.16644	3982.2375
2929.64	3968.2375
2932.11205	3970.4375
2934.58258	3963.7375
2937.05161	3970.1375
2939.51912	3965.7375
2941.98513	3952.2375
2944.44962	3950.3375
2946.91261	3931.9375
2949.37409	3928.4375
2951.83407	3927.3375
2954.29254	3924.7375
2956.74951	3899.5375
2959.20498	3914.3375
2961.65895	3888.4375
2964.11142	3881.2375
2966.56239	3875.0375
2969.01186	3862.2375
2971.45984	3838.0375
2973.90632	3842.1375
2976.35131	3821.0375
2978.7948	3824.0375
2981.23681	3807.5375
2983.67732	3794.5375
2986.11635	3780.4375
2988.55388	3788.3375
2990.98993	3772.3375
2993.4245	3755.4375
2995.85758	3738.6375
2998.28917	3734.7375
3000.71928	3729.1375
3003.14791	3724.9375
3005.57506	3726.8375
3008.00073	3715.4375
3010.42493	3697.1375
3012.84764	3694.2375
3015.26888	3704.2375
3017.68865	3700.5375
3020.10694	3678.7375
3022.52376	3668.6375
3024.9391	3665.2375
3027.35298	3659.5375
3029.76539	3652.0375
3032.17632	3643.8375
3034.5858	3628.1375
3036.9938	3625.1375
3039.40034	3622.5375
3041.80542	3616.7375
3044.20903	3609.3375
3046.61118	3612.6375
3049.01187	3596.2375
3051.4111	3611.3375
3053.80888	3603.7375
3056.20519	3589.6375
3058.60005	3595.5375
3060.99345	3572.9375
3063.3854	3563.1375
3065.7759	3566.4375
3068.16494	3573.8375
3070.55254	3565.9375
3072.93868	3540.8375
3075.32338	3544.0375
3077.70662	3533.9375
3080.08842	3547.6375
3082.46878	3525.4375
3084.84769	3534.9375
3087.22515	3536.0375
3089.60118	3523.8375
3091.97576	3516.3375
3094.3489	3534.4375
3096.72061	3534.5375
3099.09087	3541.2375
3101.4597	3531.1375
3103.82709	3527.4375
3106.19305	3527.7375
3108.55757	3545.5375
3110.92066	3511.1375
3113.28232	3516.5375
3115.64255	3519.2375
3118.00134	3507.5375
3120.35871	3496.5375
3122.71466	3497.7375
3125.06917	3491.2375
3127.42226	3479.9375
3129.77393	3496.1375
3132.12417	3494.6375
3134.47299	3508.4375
3136.82039	3507.8375
3139.16636	3515.5375
3141.51092	3510.9375
3143.85406	3518.3375
3146.19579	3520.5375
3148.53609	3514.4375
3150.87499	3523.9375
3153.21246	3530.4375
3155.54853	3531.4375
3157.88318	3534.3375
3160.21642	3542.2375
3162.54826	3547.5375
3164.87868	3549.9375
3167.2077	3530.6375
3169.5353	3557.1375
3171.86151	3552.5375
3174.18631	3549.2375
3176.5097	3551.9375
3178.83169	3543.0375
3181.15228	3547.8375
3183.47147	3532.7375
3185.78926	3541.7375
3188.10565	3556.7375
3190.42065	3528.5375
3192.73424	3529.1375
3195.04645	3520.2375
3197.35725	3534.0375
3199.66667	3566.5375
3201.97469	3554.3375
3204.28132	3549.2375
3206.58656	3550.1375
3208.8904	3558.4375
3211.19287	3557.7375
3213.49394	3557.7375
3215.79363	3556.3375
3218.09193	3554.2375
3220.38884	3577.0375
3222.68438	3567.0375
3224.97853	3566.7375
3227.2713	3563.8375
3229.56269	3560.0375
3231.8527	3561.7375
3234.14133	3552.6375
3236.42858	3545.8375
3238.71446	3544.1375
3240.99896	3526.2375
3243.28209	3527.6375
3245.56384	3531.4375
3247.84423	3526.2375
3250.12324	3512.9375
3252.40088	3519.8375
3254.67715	3517.4375
3256.95205	3502.0375
3259.22558	3511.4375
3261.49775	3517.1375
3263.76855	3506.4375
3266.03799	3492.7375
3268.30606	3494.4375
3270.57277	3489.7375
3272.83812	3487.9375
3275.10211	3475.1375
3277.36474	3460.2375
3279.62601	3473.4375
3281.88593	3470.2375
3284.14448	3453.8375
3286.40168	3456.6375
3288.65753	3451.8375
3290.91202	3461.1375
3293.16516	3438.5375
3295.41695	3436.8375
3297.66738	3420.1375
3299.91647	3410.2375
3302.16421	3397.5375
3304.4106	3373.1375
3306.65564	3368.8375
3308.89933	3342.8375
3311.14169	3313.8375
3313.38269	3275.8375
3315.62236	3260.6375
3317.86068	3236.6375
3320.09766	3210.9375
3322.3333	3199.5375
3324.5676	3189.7375
3326.80056	3139.0375
3329.03219	3120.4375
3331.26248	2.2375
3333.49143	-0.8625
3335.71905	-0.3625
