Data from AgNPs_FTO_APTES_UA_50uM_CRN_2uM_R6G_10uM_NaF_0.1M_Addition_RamanShift__1__11-55-14-755.txt Node

Date: Mon Feb 21 11:55:14 GMT 2022
User: TCL
Spectrometer: QEP01345
Trigger mode: 4
Integration Time (sec): 7.000000E0
Scans to average: 10
Electric dark correction enabled: true
Nonlinearity correction enabled: false
Boxcar width: 0
XAxis mode: Raman Shifts
Number of Pixels in Spectrum: 1044
>>>>>Begin Spectral Data<<<<<
46.04893	0.2875
50.45542	-1.1125
54.85868	-0.7125
59.25871	-1.9125
63.6555	74.0875
68.04907	78.5875
72.43941	81.0875
76.82654	83.1875
81.21044	90.0875
85.59113	91.3875
89.96862	93.0875
94.34289	95.4875
98.71396	95.8875
103.08183	100.9875
107.4465	104.7875
111.80798	107.0875
116.16626	105.2875
120.52136	108.2875
124.87327	120.4875
129.222	116.6875
133.56755	123.9875
137.90993	134.7875
142.24913	145.8875
146.58517	158.2875
150.91804	184.5875
155.24774	219.4875
159.57429	276.0875
163.89768	344.2875
168.21792	463.2875
172.53501	629.3875
176.84895	877.4875
181.15975	1227.5875
185.46741	1730.2875
189.77193	2387.9875
194.07331	3196.9875
198.37157	4112.4875
202.6667	5082.6875
206.9587	6042.5875
211.24758	7016.2875
215.53334	7952.2875
219.81599	8969.0875
224.09553	10095.8875
228.37195	11336.4875
232.64527	12733.7875
236.91549	14140.5875
241.18261	15564.8875
245.44663	16901.9875
249.70755	18062.3875
253.96539	19114.1875
258.22014	19961.2875
262.4718	20676.3875
266.72039	21144.9875
270.96589	21439.8875
275.20832	21447.3875
279.44768	21231.0875
283.68397	20959.7875
287.91719	20730.2875
292.14735	20570.0875
296.37445	20551.4875
300.59849	20637.1875
304.81948	20805.6875
309.03742	20915.9875
313.25231	20865.9875
317.46415	20650.3875
321.67296	20269.9875
325.87872	19921.4875
330.08145	19763.1875
334.28114	19802.3875
338.47781	19934.7875
342.67145	20217.2875
346.86207	20551.9875
351.04966	21000.4875
355.23424	21469.7875
359.4158	21910.4875
363.59435	22285.8875
367.76989	22483.0875
371.94243	22567.4875
376.11196	22720.9875
380.27849	22843.1875
384.44203	22947.7875
388.60257	23092.2875
392.76012	23222.9875
396.91468	23419.7875
401.06626	23799.9875
405.21485	24031.2875
409.36047	23990.8875
413.50311	23666.0875
417.64277	23418.3875
421.77947	23353.4875
425.9132	23362.0875
430.04396	23438.8875
434.17176	23562.1875
438.2966	23860.3875
442.41849	24329.2875
446.53742	25066.5875
450.6534	25842.9875
454.76644	26408.4875
458.87653	26514.3875
462.98368	26240.6875
467.08789	25857.5875
471.18916	25358.4875
475.2875	24888.6875
479.38291	24522.9875
483.4754	24296.6875
487.56496	24104.8875
491.6516	23896.7875
495.73531	23695.0875
499.81612	23644.0875
503.89401	23785.8875
507.96899	23857.0875
512.04106	23791.5875
516.11023	23679.3875
520.1765	23682.6875
524.23987	23642.7875
528.30034	23644.5875
532.35792	23529.0875
536.41261	23350.4875
540.46441	23050.5875
544.51333	22873.0875
548.55936	23023.6875
552.60252	23347.8875
556.64279	23868.0875
560.6802	24290.9875
564.71473	24507.4875
568.7464	24805.7875
572.7752	25244.4875
576.80114	25577.6875
580.82422	25926.3875
584.84444	26601.1875
588.86181	27738.3875
592.87633	29028.2875
596.888	29482.8875
600.89682	28717.3875
604.9028	28527.1875
608.90594	30632.9875
612.90624	33304.7875
616.90371	31715.7875
620.89834	26982.2875
624.89015	24642.3875
628.87913	24334.6875
632.86528	24346.5875
636.84862	24273.2875
640.82913	23926.5875
644.80683	23343.3875
648.78172	23002.6875
652.75379	23025.2875
656.72306	23400.4875
660.68952	23865.9875
664.65319	23808.3875
668.61405	23375.4875
672.57211	23292.1875
676.52738	23442.3875
680.47986	23427.4875
684.42955	23187.5875
688.37646	23108.1875
692.32058	23292.3875
696.26192	23633.4875
700.20048	23978.7875
704.13626	24135.1875
708.06928	23999.7875
711.99952	23839.8875
715.927	23875.1875
719.85171	24033.0875
723.77365	24034.8875
727.69284	23761.9875
731.60928	23474.0875
735.52295	23387.4875
739.43388	23447.6875
743.34206	23512.1875
747.24749	23599.8875
751.15017	23735.9875
755.05012	23980.9875
758.94733	24535.4875
762.8418	25529.3875
766.73354	27130.9875
770.62254	28803.3875
774.50882	29346.2875
778.39237	28542.0875
782.27321	26834.0875
786.15132	25305.2875
790.02671	24335.7875
793.89938	23838.6875
797.76935	23651.3875
801.6366	23565.0875
805.50115	23498.9875
809.36299	23407.7875
813.22213	23303.3875
817.07857	23200.9875
820.93231	23162.9875
824.78336	23109.3875
828.63172	23108.5875
832.47738	23116.0875
836.32036	23157.5875
840.16066	23283.3875
843.99827	23383.1875
847.8332	23346.0875
851.66546	23197.1875
855.49504	23217.5875
859.32195	23220.6875
863.1462	23194.4875
866.96777	23150.4875
870.78668	23089.8875
874.60293	23138.8875
878.41652	23222.5875
882.22745	23306.5875
886.03573	23401.5875
889.84136	23385.8875
893.64433	23285.6875
897.44466	23169.9875
901.24235	23101.7875
905.0374	22981.1875
908.8298	22953.8875
912.61957	22963.0875
916.40671	23095.8875
920.19121	23249.8875
923.97308	23483.1875
927.75233	23671.8875
931.52895	23677.4875
935.30295	23449.8875
939.07433	23179.0875
942.84309	22876.6875
946.60924	22777.0875
950.37278	22721.2875
954.13371	22706.2875
957.89203	22633.7875
961.64774	22569.8875
965.40086	22567.8875
969.15137	22548.4875
972.89929	22512.8875
976.64461	22555.1875
980.38733	22585.7875
984.12747	22708.7875
987.86502	22914.5875
991.59999	23139.2875
995.33237	23517.7875
999.06217	24047.1875
1002.78939	24639.0875
1006.51404	25100.7875
1010.23611	25403.6875
1013.95561	25623.8875
1017.67255	25626.0875
1021.38692	25371.6875
1025.09872	25071.8875
1028.80796	25042.2875
1032.51465	25420.6875
1036.21877	25883.1875
1039.92035	26031.5875
1043.61937	25859.6875
1047.31584	25498.9875
1051.00976	24993.8875
1054.70114	24727.1875
1058.38998	24614.5875
1062.07627	24641.7875
1065.76003	24769.2875
1069.44126	24969.9875
1073.11995	25281.6875
1076.79611	25677.0875
1080.46974	25923.6875
1084.14085	26162.6875
1087.80943	26465.0875
1091.47549	26613.1875
1095.13903	26551.7875
1098.80005	26179.5875
1102.45857	25736.0875
1106.11456	25457.0875
1109.76805	25437.2875
1113.41903	25483.2875
1117.06751	25622.1875
1120.71348	25854.9875
1124.35696	26130.4875
1127.99793	26376.5875
1131.63641	26538.9875
1135.2724	26330.8875
1138.90589	26120.1875
1142.5369	25999.2875
1146.16542	26032.1875
1149.79145	26132.7875
1153.415	26218.4875
1157.03607	26385.4875
1160.65467	26871.7875
1164.27079	27781.5875
1167.88443	28928.3875
1171.49561	30389.9875
1175.10432	32382.2875
1178.71056	35048.1875
1182.31434	37479.1875
1185.91565	38494.0875
1189.51451	38113.2875
1193.11091	36741.9875
1196.70485	35213.5875
1200.29634	33899.9875
1203.88538	32909.8875
1207.47197	32199.0875
1211.05612	31529.4875
1214.63782	31007.9875
1218.21708	30676.8875
1221.79391	30534.8875
1225.36829	30468.3875
1228.94024	30310.8875
1232.50976	29833.3875
1236.07685	29239.6875
1239.6415	28944.2875
1243.20374	28900.0875
1246.76355	29085.0875
1250.32093	29498.9875
1253.8759	30015.4875
1257.42845	30703.3875
1260.97859	31474.4875
1264.52631	32449.2875
1268.07163	33360.0875
1271.61453	34262.9875
1275.15503	35087.3875
1278.69312	35863.0875
1282.22882	36655.4875
1285.76211	37621.4875
1289.29301	38776.9875
1292.82151	40117.5875
1296.34761	41759.3875
1299.87133	43845.5875
1303.39266	46304.8875
1306.9116	49158.2875
1310.42815	51662.1875
1313.94233	53140.6875
1317.45412	52772.7875
1320.96354	51188.6875
1324.47058	49228.9875
1327.97525	47537.2875
1331.47754	46397.3875
1334.97747	45661.6875
1338.47502	45155.4875
1341.97022	44472.9875
1345.46305	43804.9875
1348.95352	43678.6875
1352.44163	44556.5875
1355.92738	46742.4875
1359.41078	49944.9875
1362.89183	52788.0875
1366.37053	52503.3875
1369.84688	48254.0875
1373.32088	42768.1875
1376.79254	38942.8875
1380.26186	37458.6875
1383.72883	37143.4875
1387.19347	36810.5875
1390.65578	36116.5875
1394.11575	35677.7875
1397.57339	35771.1875
1401.0287	36242.3875
1404.48168	36681.4875
1407.93234	36783.8875
1411.38068	36610.2875
1414.82669	36057.7875
1418.27039	35224.2875
1421.71177	34294.6875
1425.15083	33355.6875
1428.58758	32991.0875
1432.02203	33232.4875
1435.45416	34012.1875
1438.88399	34685.7875
1442.31151	35129.5875
1445.73673	35273.5875
1449.15965	35385.9875
1452.58027	35325.2875
1455.9986	34983.8875
1459.41463	34854.8875
1462.82837	35189.0875
1466.23982	35887.8875
1469.64898	36694.9875
1473.05586	37259.5875
1476.46045	37604.7875
1479.86276	37807.8875
1483.26279	37864.0875
1486.66054	37851.5875
1490.05602	38165.4875
1493.44922	38619.8875
1496.84016	39027.2875
1500.22882	39567.2875
1503.61521	40580.3875
1506.99934	41878.3875
1510.38121	43027.8875
1513.76081	43340.7875
1517.13816	42352.4875
1520.51324	40454.3875
1523.88607	38691.4875
1527.25665	37678.9875
1530.62498	37205.8875
1533.99105	36962.9875
1537.35488	36531.1875
1540.71647	35944.6875
1544.07581	35317.1875
1547.4329	34667.7875
1550.78776	34043.6875
1554.14038	33604.4875
1557.49077	33399.2875
1560.83892	33285.7875
1564.18484	33414.9875
1567.52853	33620.0875
1570.86999	34041.0875
1574.20922	34478.7875
1577.54624	34827.8875
1580.88103	34712.5875
1584.2136	34652.0875
1587.54395	35483.8875
1590.87208	37337.4875
1594.19801	39820.3875
1597.52172	42252.4875
1600.84321	43171.3875
1604.16251	41588.0875
1607.47959	38554.6875
1610.79447	35134.6875
1614.10715	32091.9875
1617.41763	29911.2875
1620.7259	28660.9875
1624.03199	28125.2875
1627.33587	28221.2875
1630.63757	29040.9875
1633.93707	30579.4875
1637.23439	33145.6875
1640.52951	37031.7875
1643.82246	41630.7875
1647.11321	45500.2875
1650.40179	46325.3875
1653.68819	42943.4875
1656.97241	37387.1875
1660.25446	32205.4875
1663.53433	28699.2875
1666.81203	26529.6875
1670.08756	25293.8875
1673.36092	24520.2875
1676.63211	24045.6875
1679.90115	23683.9875
1683.16801	23423.7875
1686.43272	23222.7875
1689.69527	23023.4875
1692.95567	22883.5875
1696.2139	22722.8875
1699.46999	22554.1875
1702.72392	22468.8875
1705.97571	22520.3875
1709.22535	22620.2875
1712.47284	22664.6875
1715.71819	22690.4875
1718.96139	22676.2875
1722.20246	22652.2875
1725.44139	22562.3875
1728.67818	22432.6875
1731.91284	22355.3875
1735.14537	22220.1875
1738.37576	22164.7875
1741.60403	22089.8875
1744.83017	22025.2875
1748.05418	21980.9875
1751.27607	21884.0875
1754.49584	21803.2875
1757.71349	21752.0875
1760.92903	21742.9875
1764.14244	21703.7875
1767.35375	21713.4875
1770.56294	21707.9875
1773.77002	21705.9875
1776.97499	21727.3875
1780.17785	21750.8875
1783.37861	21768.4875
1786.57727	21724.2875
1789.77382	21728.9875
1792.96828	21737.3875
1796.16064	21693.8875
1799.3509	21689.3875
1802.53907	21621.0875
1805.72514	21569.3875
1808.90913	21502.2875
1812.09102	21469.5875
1815.27083	21505.6875
1818.44856	21488.3875
1821.6242	21447.0875
1824.79776	21453.1875
1827.96924	21462.4875
1831.13864	21438.3875
1834.30597	21443.3875
1837.47122	21443.3875
1840.6344	21424.4875
1843.7955	21418.1875
1846.95454	21407.0875
1850.11151	21332.5875
1853.26642	21314.6875
1856.41926	21330.0875
1859.57004	21336.0875
1862.71876	21336.4875
1865.86542	21319.8875
1869.01003	21323.8875
1872.15258	21338.1875
1875.29308	21293.8875
1878.43152	21276.1875
1881.56792	21310.7875
1884.70227	21316.5875
1887.83457	21282.4875
1890.96482	21270.5875
1894.09304	21205.3875
1897.21921	21169.2875
1900.34335	21152.4875
1903.46544	21161.1875
1906.58551	21135.2875
1909.70353	21132.2875
1912.81953	21118.0875
1915.93349	21102.1875
1919.04543	21055.2875
1922.15534	21057.9875
1925.26322	21033.3875
1928.36908	20997.8875
1931.47292	20931.2875
1934.57473	20915.6875
1937.67453	20907.5875
1940.77232	20857.0875
1943.86808	20770.4875
1946.96184	20720.0875
1950.05358	20663.7875
1953.14331	20593.5875
1956.23103	20531.8875
1959.31675	20469.7875
1962.40046	20452.9875
1965.48217	20441.5875
1968.56188	20392.8875
1971.63959	20344.1875
1974.7153	20311.1875
1977.78901	20235.9875
1980.86073	20179.5875
1983.93046	20106.1875
1986.99819	20048.9875
1990.06394	20003.6875
1993.1277	19981.3875
1996.18947	19904.6875
1999.24925	19875.8875
2002.30706	19801.4875
2005.36288	19753.7875
2008.41672	19748.8875
2011.46859	19694.4875
2014.51848	19617.7875
2017.56639	19590.1875
2020.61233	19530.8875
2023.6563	19528.4875
2026.6983	19466.4875
2029.73833	19450.8875
2032.7764	19404.8875
2035.8125	19388.0875
2038.84664	19358.2875
2041.87881	19375.2875
2044.90903	19343.4875
2047.93729	19292.8875
2050.96359	19223.6875
2053.98794	19233.2875
2057.01034	19247.0875
2060.03078	19179.4875
2063.04927	19190.5875
2066.06582	19178.0875
2069.08042	19133.7875
2072.09307	19183.3875
2075.10378	19138.6875
2078.11255	19185.3875
2081.11938	19158.8875
2084.12426	19136.1875
2087.12722	19143.6875
2090.12824	19133.9875
2093.12732	19122.8875
2096.12447	19134.8875
2099.11969	19148.3875
2102.11299	19191.8875
2105.10435	19189.1875
2108.09379	19171.8875
2111.08131	19195.1875
2114.0669	19249.3875
2117.05057	19263.2875
2120.03233	19260.8875
2123.01216	19300.4875
2125.99008	19352.3875
2128.96609	19337.4875
2131.94018	19388.5875
2134.91236	19374.5875
2137.88263	19371.9875
2140.851	19406.2875
2143.81746	19442.1875
2146.78201	19490.5875
2149.74466	19448.2875
2152.7054	19410.6875
2155.66425	19472.1875
2158.6212	19486.5875
2161.57625	19461.8875
2164.52941	19469.4875
2167.48067	19469.0875
2170.43004	19486.5875
2173.37752	19472.0875
2176.32311	19440.2875
2179.26681	19516.0875
2182.20863	19489.6875
2185.14856	19488.0875
2188.08661	19481.8875
2191.02278	19487.6875
2193.95707	19476.3875
2196.88948	19475.7875
2199.82001	19477.8875
2202.74867	19477.0875
2205.67545	19474.8875
2208.60037	19416.8875
2211.52341	19453.7875
2214.44458	19383.9875
2217.36388	19352.1875
2220.28132	19314.0875
2223.1969	19304.2875
2226.11061	19283.6875
2229.02246	19227.8875
2231.93245	19212.1875
2234.84058	19212.5875
2237.74686	19158.6875
2240.65128	19185.7875
2243.55385	19178.7875
2246.45456	19128.8875
2249.35343	19082.3875
2252.25044	19090.8875
2255.14561	19075.1875
2258.03893	19052.5875
2260.93041	19031.8875
2263.82004	18979.1875
2266.70783	18952.4875
2269.59378	18921.5875
2272.4779	18879.6875
2275.36017	18881.8875
2278.24061	18840.0875
2281.11922	18782.6875
2283.996	18787.0875
2286.87094	18762.1875
2289.74405	18719.0875
2292.61534	18752.1875
2295.4848	18716.0875
2298.35243	18719.1875
2301.21824	18736.7875
2304.08223	18716.7875
2306.94439	18704.9875
2309.80474	18735.5875
2312.66327	18748.3875
2315.51999	18696.0875
2318.37489	18730.3875
2321.22797	18714.2875
2324.07925	18705.5875
2326.92871	18676.9875
2329.77637	18701.7875
2332.62222	18658.9875
2335.46626	18639.8875
2338.3085	18674.1875
2341.14893	18681.0875
2343.98756	18672.8875
2346.8244	18654.8875
2349.65943	18611.1875
2352.49267	18625.9875
2355.32411	18598.6875
2358.15376	18610.2875
2360.98161	18593.2875
2363.80768	18564.5875
2366.63195	18561.4875
2369.45444	18536.6875
2372.27514	18535.2875
2375.09405	18549.1875
2377.91118	18476.8875
2380.72652	18434.7875
2383.54009	18395.6875
2386.35187	18378.3875
2389.16188	18348.3875
2391.97011	18377.1875
2394.77657	18325.3875
2397.58125	18313.9875
2400.38416	18257.4875
2403.18529	18273.7875
2405.98466	18247.8875
2408.78226	18218.9875
2411.57809	18184.4875
2414.37216	18149.4875
2417.16446	18148.4875
2419.955	18143.7875
2422.74378	18154.7875
2425.5308	18106.9875
2428.31606	18098.0875
2431.09956	18102.5875
2433.88131	18085.2875
2436.6613	18132.5875
2439.43954	18111.9875
2442.21603	18088.6875
2444.99077	18087.5875
2447.76377	18095.7875
2450.53501	18105.8875
2453.30451	18106.8875
2456.07226	18041.7875
2458.83827	18061.3875
2461.60254	18064.6875
2464.36507	18027.0875
2467.12586	18013.6875
2469.88492	18049.1875
2472.64224	18045.3875
2475.39782	18040.5875
2478.15167	18029.6875
2480.90379	18084.4875
2483.65417	18139.5875
2486.40283	18122.5875
2489.14976	18135.1875
2491.89497	18056.5875
2494.63845	18098.8875
2497.3802	18093.7875
2500.12024	18090.9875
2502.85855	18080.9875
2505.59514	18086.7875
2508.33002	18046.0875
2511.06318	18044.4875
2513.79462	18024.9875
2516.52435	17967.1875
2519.25237	17967.4875
2521.97867	17936.1875
2524.70327	17937.0875
2527.42616	17914.7875
2530.14734	17920.2875
2532.86681	17927.9875
2535.58458	17956.0875
2538.30065	17956.6875
2541.01501	17929.5875
2543.72768	17909.0875
2546.43864	17884.8875
2549.14791	17875.7875
2551.85548	17836.9875
2554.56136	17849.6875
2557.26554	17803.9875
2559.96803	17777.6875
2562.66883	17755.5875
2565.36794	17759.7875
2568.06536	17738.9875
2570.7611	17730.5875
2573.45514	17725.0875
2576.14751	17713.8875
2578.83819	17681.4875
2581.52719	17680.1875
2584.21451	17665.2875
2586.90015	17663.7875
2589.58411	17593.9875
2592.2664	17604.7875
2594.94701	17623.7875
2597.62594	17610.0875
2600.30321	17591.8875
2602.9788	17607.7875
2605.65273	17563.2875
2608.32498	17579.4875
2610.99557	17572.7875
2613.66449	17611.5875
2616.33175	17562.1875
2618.99734	17565.1875
2621.66128	17531.8875
2624.32355	17507.9875
2626.98416	17539.3875
2629.64311	17509.6875
2632.30041	17489.7875
2634.95605	17463.5875
2637.61004	17450.3875
2640.26238	17400.1875
2642.91306	17451.9875
2645.56209	17425.0875
2648.20948	17396.1875
2650.85521	17347.7875
2653.4993	17370.2875
2656.14175	17401.9875
2658.78255	17438.2875
2661.42171	17455.2875
2664.05923	17463.0875
2666.6951	17509.6875
2669.32934	17546.3875
2671.96194	17543.8875
2674.59291	17505.7875
2677.22224	17482.7875
2679.84993	17485.2875
2682.476	17467.5875
2685.10043	17491.7875
2687.72324	17467.2875
2690.34441	17488.2875
2692.96396	17491.9875
2695.58188	17491.6875
2698.19818	17481.0875
2700.81285	17470.9875
2703.4259	17429.5875
2706.03733	17395.3875
2708.64714	17430.0875
2711.25533	17493.3875
2713.86191	17507.1875
2716.46687	17565.1875
2719.07021	17575.2875
2721.67194	17646.2875
2724.27206	17612.8875
2726.87057	17616.1875
2729.46747	17612.3875
2732.06276	17608.2875
2734.65644	17608.8875
2737.24852	17639.7875
2739.83899	17610.6875
2742.42786	17613.5875
2745.01513	17575.4875
2747.60079	17587.4875
2750.18486	17539.2875
2752.76733	17541.2875
2755.3482	17512.6875
2757.92747	17541.0875
2760.50515	17504.8875
2763.08123	17505.6875
2765.65573	17475.6875
2768.22863	17477.5875
2770.79994	17434.2875
2773.36967	17468.8875
2775.9378	17433.5875
2778.50435	17446.2875
2781.06932	17433.8875
2783.6327	17451.5875
2786.1945	17425.7875
2788.75471	17469.2875
2791.31335	17396.9875
2793.87041	17383.0875
2796.42589	17319.6875
2798.97979	17313.9875
2801.53212	17256.1875
2804.08288	17286.2875
2806.63206	17262.6875
2809.17967	17226.3875
2811.72571	17180.6875
2814.27018	17176.1875
2816.81308	17096.8875
2819.35442	17108.8875
2821.89419	17093.1875
2824.43239	17092.8875
2826.96904	17080.0875
2829.50412	17066.0875
2832.03763	17038.6875
2834.56959	17040.7875
2837.1	17029.1875
2839.62884	16996.0875
2842.15613	17016.1875
2844.68186	17023.5875
2847.20604	16962.7875
2849.72867	16986.4875
2852.24974	16952.3875
2854.76927	16953.3875
2857.28724	16908.5875
2859.80367	16901.1875
2862.31855	16891.6875
2864.83189	16862.7875
2867.34368	16872.1875
2869.85393	16903.3875
2872.36264	16889.3875
2874.8698	16888.5875
2877.37543	16889.4875
2879.87952	16871.2875
2882.38207	16876.6875
2884.88308	16842.0875
2887.38256	16920.1875
2889.88051	16904.2875
2892.37692	16885.6875
2894.8718	16906.5875
2897.36515	16905.2875
2899.85698	16884.8875
2902.34727	16906.3875
2904.83604	16940.7875
2907.32328	16978.1875
2909.809	16955.8875
2912.29319	16974.1875
2914.77587	16977.4875
2917.25702	16968.3875
2919.73665	16966.1875
2922.21476	16943.9875
2924.69136	16926.2875
2927.16644	16932.9875
2929.64	16912.6875
2932.11205	16899.2875
2934.58258	16870.9875
2937.05161	16875.5875
2939.51912	16863.1875
2941.98513	16844.7875
2944.44962	16848.4875
2946.91261	16831.2875
2949.37409	16861.8875
2951.83407	16832.2875
2954.29254	16864.0875
2956.74951	16863.9875
2959.20498	16888.1875
2961.65895	16838.9875
2964.11142	16811.6875
2966.56239	16822.8875
2969.01186	16815.3875
2971.45984	16788.0875
2973.90632	16806.9875
2976.35131	16770.4875
2978.7948	16711.9875
2981.23681	16677.0875
2983.67732	16684.0875
2986.11635	16651.5875
2988.55388	16576.4875
2990.98993	16612.8875
2993.4245	16584.7875
2995.85758	16542.5875
2998.28917	16523.7875
3000.71928	16498.4875
3003.14791	16494.3875
3005.57506	16460.9875
3008.00073	16397.9875
3010.42493	16398.4875
3012.84764	16377.8875
3015.26888	16398.3875
3017.68865	16343.5875
3020.10694	16311.2875
3022.52376	16294.9875
3024.9391	16258.6875
3027.35298	16263.4875
3029.76539	16257.8875
3032.17632	16252.2875
3034.5858	16211.2875
3036.9938	16221.4875
3039.40034	16155.4875
3041.80542	16185.4875
3044.20903	16129.2875
3046.61118	16146.9875
3049.01187	16118.5875
3051.4111	16155.5875
3053.80888	16091.2875
3056.20519	16051.7875
3058.60005	16050.6875
3060.99345	16039.0875
3063.3854	16006.7875
3065.7759	15962.1875
3068.16494	15919.1875
3070.55254	15834.7875
3072.93868	15818.8875
3075.32338	15749.8875
3077.70662	15752.1875
3080.08842	15739.0875
3082.46878	15739.6875
3084.84769	15690.2875
3087.22515	15701.5875
3089.60118	15707.0875
3091.97576	15694.6875
3094.3489	15729.3875
3096.72061	15718.5875
3099.09087	15730.8875
3101.4597	15724.7875
3103.82709	15683.7875
3106.19305	15672.3875
3108.55757	15685.3875
3110.92066	15636.0875
3113.28232	15614.0875
3115.64255	15595.8875
3118.00134	15571.6875
3120.35871	15541.5875
3122.71466	15511.7875
3125.06917	15497.7875
3127.42226	15484.4875
3129.77393	15469.3875
3132.12417	15459.3875
3134.47299	15458.9875
3136.82039	15432.4875
3139.16636	15427.3875
3141.51092	15434.8875
3143.85406	15454.0875
3146.19579	15474.4875
3148.53609	15463.8875
3150.87499	15472.6875
3153.21246	15478.5875
3155.54853	15460.6875
3157.88318	15456.5875
3160.21642	15463.5875
3162.54826	15449.6875
3164.87868	15460.0875
3167.2077	15440.5875
3169.5353	15445.2875
3171.86151	15456.9875
3174.18631	15442.1875
3176.5097	15429.0875
3178.83169	15413.3875
3181.15228	15416.1875
3183.47147	15378.2875
3185.78926	15365.5875
3188.10565	15321.2875
3190.42065	15323.1875
3192.73424	15275.2875
3195.04645	15244.5875
3197.35725	15283.2875
3199.66667	15284.4875
3201.97469	15299.1875
3204.28132	15336.1875
3206.58656	15332.0875
3208.8904	15340.7875
3211.19287	15338.3875
3213.49394	15366.5875
3215.79363	15348.2875
3218.09193	15362.4875
3220.38884	15330.1875
3222.68438	15342.6875
3224.97853	15327.9875
3227.2713	15360.8875
3229.56269	15326.0875
3231.8527	15363.4875
3234.14133	15316.1875
3236.42858	15280.5875
3238.71446	15229.7875
3240.99896	15228.3875
3243.28209	15238.6875
3245.56384	15231.6875
3247.84423	15221.2875
3250.12324	15188.0875
3252.40088	15199.5875
3254.67715	15166.8875
3256.95205	15142.1875
3259.22558	15144.9875
3261.49775	15127.8875
3263.76855	15110.0875
3266.03799	15111.3875
3268.30606	15103.3875
3270.57277	15077.6875
3272.83812	15029.1875
3275.10211	14997.0875
3277.36474	14957.8875
3279.62601	14953.5875
3281.88593	14941.4875
3284.14448	14983.4875
3286.40168	14975.1875
3288.65753	14974.3875
3290.91202	14941.6875
3293.16516	14927.1875
3295.41695	14901.9875
3297.66738	14806.2875
3299.91647	14747.1875
3302.16421	14643.6875
3304.4106	14608.3875
3306.65564	14532.9875
3308.89933	14396.9875
3311.14169	14304.5875
3313.38269	14167.0875
3315.62236	14123.3875
3317.86068	14027.6875
3320.09766	13948.4875
3322.3333	13877.1875
3324.5676	13814.5875
3326.80056	13584.2875
3329.03219	13495.9875
3331.26248	3.1875
3333.49143	-0.3125
3335.71905	0.6875
