Data from AgNPs_FTO_APTES_UA_50uM_CRN_1000uM_R6G_10uM_NaF_0.1M_Addition_RamanShift__18__17-47-13-597.txt Node

Date: Mon Feb 21 17:47:13 GMT 2022
User: TCL
Spectrometer: QEP01345
Trigger mode: 4
Integration Time (sec): 7.000000E0
Scans to average: 10
Electric dark correction enabled: true
Nonlinearity correction enabled: false
Boxcar width: 0
XAxis mode: Raman Shifts
Number of Pixels in Spectrum: 1044
>>>>>Begin Spectral Data<<<<<
46.04893	-0.5
50.45542	-2.1
54.85868	0.1
59.25871	-2.5
63.6555	55.2
68.04907	58.8
72.43941	61.7
76.82654	63.9
81.21044	69.6
85.59113	71.9
89.96862	72.5
94.34289	74.9
98.71396	76.2
103.08183	78
107.4465	80.6
111.80798	82.3
116.16626	87.4
120.52136	92.2
124.87327	90.5
129.222	92.6
133.56755	98.1
137.90993	103.8
142.24913	114.2
146.58517	130.6
150.91804	146.6
155.24774	176
159.57429	215.7
163.89768	278.9
168.21792	367.8
172.53501	504.4
176.84895	706.7
181.15975	1002.6
185.46741	1409.9
189.77193	1931.9
194.07331	2602.4
198.37157	3362.4
202.6667	4164.1
206.9587	4978.6
211.24758	5769.5
215.53334	6587.2
219.81599	7425.9
224.09553	8336.2
228.37195	9365.1
232.64527	10517.4
236.91549	11694.3
241.18261	12866.6
245.44663	13956.2
249.70755	14878.9
253.96539	15644.6
258.22014	16365.1
262.4718	16888.3
266.72039	17265.4
270.96589	17461.7
275.20832	17450.1
279.44768	17226.9
283.68397	16950.2
287.91719	16722.7
292.14735	16605.9
296.37445	16634.1
300.59849	16784.6
304.81948	16966.5
309.03742	17054.9
313.25231	16981.5
317.46415	16633
321.67296	16125.5
325.87872	15718
330.08145	15564
334.28114	15569.2
338.47781	15719.4
342.67145	15919.8
346.86207	16243.3
351.04966	16660.3
355.23424	17142.9
359.4158	17571.6
363.59435	17852.6
367.76989	18033.9
371.94243	18118.7
376.11196	18204.9
380.27849	18270
384.44203	18326
388.60257	18353.4
392.76012	18385.3
396.91468	18472.9
401.06626	18681
405.21485	18833.1
409.36047	18737.8
413.50311	18362.4
417.64277	17986.7
421.77947	17826.5
425.9132	17824.8
430.04396	17886.5
434.17176	18035
438.2966	18235.7
442.41849	18578.4
446.53742	19068.4
450.6534	19548.6
454.76644	19908.3
458.87653	19933.1
462.98368	19782.6
467.08789	19484.7
471.18916	19191.9
475.2875	18915
479.38291	18686.8
483.4754	18529.6
487.56496	18355.7
491.6516	18159
495.73531	18059.4
499.81612	18030.9
503.89401	18125.7
507.96899	18253.8
512.04106	18329.2
516.11023	18402.1
520.1765	18434
524.23987	18371.6
528.30034	18315.5
532.35792	18201.9
536.41261	18084.6
540.46441	17884.2
544.51333	17794.9
548.55936	17804.8
552.60252	18018.5
556.64279	18362.7
560.6802	18570.9
564.71473	18631.2
568.7464	18879.6
572.7752	19138.7
576.80114	19079.6
580.82422	18957.6
584.84444	19075.4
588.86181	19431.5
592.87633	19926.5
596.888	20181.8
600.89682	20019.1
604.9028	20568.1
608.90594	22774.3
612.90624	25623.7
616.90371	24627
620.89834	20434.8
624.89015	18456.8
628.87913	18075.5
632.86528	18172
636.84862	18313
640.82913	18207.9
644.80683	17816.2
648.78172	17478.8
652.75379	17459.3
656.72306	17693.9
660.68952	18037.2
664.65319	17959.1
668.61405	17685.6
672.57211	17632.1
676.52738	17734.1
680.47986	17840.5
684.42955	17705.7
688.37646	17552.8
692.32058	17487.2
696.26192	17507.1
700.20048	17618.4
704.13626	17640.4
708.06928	17581.9
711.99952	17440.7
715.927	17387.4
719.85171	17422.6
723.77365	17437.8
727.69284	17407.6
731.60928	17316.7
735.52295	17285.2
739.43388	17329.7
743.34206	17336.9
747.24749	17366.2
751.15017	17361.6
755.05012	17479.9
758.94733	17856.8
762.8418	18701.5
766.73354	20165.8
770.62254	21754.6
774.50882	22594.7
778.39237	21919.1
782.27321	20155.3
786.15132	18588.7
790.02671	17651.5
793.89938	17184.8
797.76935	16988.1
801.6366	16902.6
805.50115	16852.8
809.36299	16795
813.22213	16703.9
817.07857	16621.5
820.93231	16580.9
824.78336	16557.7
828.63172	16520.4
832.47738	16493.6
836.32036	16482.8
840.16066	16432.5
843.99827	16456.9
847.8332	16427.5
851.66546	16418
855.49504	16426
859.32195	16444.4
863.1462	16476.5
866.96777	16496.4
870.78668	16460.9
874.60293	16424.7
878.41652	16445.7
882.22745	16475.5
886.03573	16515.8
889.84136	16505.4
893.64433	16432.7
897.44466	16337.9
901.24235	16228.7
905.0374	16122
908.8298	16068.7
912.61957	15946.9
916.40671	16051.5
920.19121	16118.1
923.97308	16194.4
927.75233	16262.3
931.52895	16253.2
935.30295	16166.8
939.07433	15928.1
942.84309	15739.3
946.60924	15599.1
950.37278	15507
954.13371	15456.6
957.89203	15405
961.64774	15349.8
965.40086	15267.7
969.15137	15216.2
972.89929	15148.6
976.64461	15141
980.38733	15067
984.12747	15088.1
987.86502	15194
991.59999	15250.6
995.33237	15403.1
999.06217	15637.7
1002.78939	15886.3
1006.51404	16098.7
1010.23611	16247.6
1013.95561	16383.6
1017.67255	16465.8
1021.38692	16272
1025.09872	16088.3
1028.80796	15935.8
1032.51465	16022.9
1036.21877	16112.2
1039.92035	16155.7
1043.61937	16120.9
1047.31584	16030.7
1051.00976	15950.9
1054.70114	15854.8
1058.38998	15831.2
1062.07627	15824.9
1065.76003	15859.6
1069.44126	15861
1073.11995	15947.5
1076.79611	16036.9
1080.46974	16135.5
1084.14085	16269.4
1087.80943	16457.7
1091.47549	16579
1095.13903	16511.1
1098.80005	16306
1102.45857	16075.7
1106.11456	15987.3
1109.76805	16015.2
1113.41903	16223
1117.06751	16494.5
1120.71348	16783.1
1124.35696	17133.8
1127.99793	17420.7
1131.63641	17490.4
1135.2724	17252.1
1138.90589	16883.2
1142.5369	16658.5
1146.16542	16449.8
1149.79145	16324.4
1153.415	16336.3
1157.03607	16429
1160.65467	16696.2
1164.27079	17134.8
1167.88443	17798
1171.49561	18721.2
1175.10432	19980.4
1178.71056	21681.9
1182.31434	23174.6
1185.91565	23830.5
1189.51451	23492.4
1193.11091	22621
1196.70485	21599.7
1200.29634	20704
1203.88538	19962.3
1207.47197	19249
1211.05612	18615.8
1214.63782	18237.9
1218.21708	18097.8
1221.79391	18111.2
1225.36829	18117.1
1228.94024	17939.2
1232.50976	17652.7
1236.07685	17450.6
1239.6415	17359.2
1243.20374	17340.7
1246.76355	17426.1
1250.32093	17606.6
1253.8759	17836.8
1257.42845	18170.2
1260.97859	18468.4
1264.52631	18827.6
1268.07163	19241.6
1271.61453	19646.3
1275.15503	19999.7
1278.69312	20331.7
1282.22882	20593.6
1285.76211	20931.7
1289.29301	21456.3
1292.82151	22092.8
1296.34761	22883.6
1299.87133	24038.2
1303.39266	25416.7
1306.9116	27208.1
1310.42815	29178.8
1313.94233	30373.2
1317.45412	30085.3
1320.96354	28899.2
1324.47058	27434.8
1327.97525	26164.7
1331.47754	25317.4
1334.97747	24970.8
1338.47502	25000.4
1341.97022	25330.5
1345.46305	25662.1
1348.95352	26303.3
1352.44163	27240.1
1355.92738	28738.5
1359.41078	30842.5
1362.89183	32873.6
1366.37053	32331.3
1369.84688	28748.2
1373.32088	24852.9
1376.79254	22341.6
1380.26186	21171.3
1383.72883	20726.2
1387.19347	20454.2
1390.65578	20122.1
1394.11575	19887.9
1397.57339	19943.8
1401.0287	20157.4
1404.48168	20429.8
1407.93234	20622.9
1411.38068	20600.3
1414.82669	20400.1
1418.27039	19986.8
1421.71177	19443.9
1425.15083	18888.7
1428.58758	18555.2
1432.02203	18588
1435.45416	18853.8
1438.88399	19117.1
1442.31151	19318.6
1445.73673	19516.9
1449.15965	19707.2
1452.58027	19766.3
1455.9986	19695.2
1459.41463	19704.6
1462.82837	19959.2
1466.23982	20280.9
1469.64898	20640.5
1473.05586	20858.5
1476.46045	20991.8
1479.86276	21015.9
1483.26279	21009.9
1486.66054	20956.4
1490.05602	21120.1
1493.44922	21380.1
1496.84016	21764.7
1500.22882	22582.2
1503.61521	24013.3
1506.99934	25786.8
1510.38121	27324.2
1513.76081	27760
1517.13816	26544.7
1520.51324	24467.3
1523.88607	22484.1
1527.25665	21286.5
1530.62498	20716.1
1533.99105	20399.9
1537.35488	20227.7
1540.71647	20010.2
1544.07581	19864.5
1547.4329	19627.1
1550.78776	19519.2
1554.14038	19390.3
1557.49077	19419.4
1560.83892	19475
1564.18484	19594.2
1567.52853	19783.1
1570.86999	20010.2
1574.20922	20269.2
1577.54624	20329.6
1580.88103	19939.4
1584.2136	19373.4
1587.54395	19258.9
1590.87208	19646.7
1594.19801	20585.8
1597.52172	21915.8
1600.84321	22670.8
1604.16251	22329.9
1607.47959	21160.2
1610.79447	19686.2
1614.10715	18234.2
1617.41763	17068.9
1620.7259	16206.6
1624.03199	15809.7
1627.33587	15720
1630.63757	15987.8
1633.93707	16643.1
1637.23439	17780.3
1640.52951	19483.4
1643.82246	21668.2
1647.11321	23779.4
1650.40179	24648.2
1653.68819	23559
1656.97241	20883.5
1660.25446	18141
1663.53433	16185.6
1666.81203	14987.4
1670.08756	14286.6
1673.36092	13807.4
1676.63211	13494.9
1679.90115	13279
1683.16801	13113.5
1686.43272	12976.2
1689.69527	12845.2
1692.95567	12740.2
1696.2139	12700.9
1699.46999	12621.7
1702.72392	12558.4
1705.97571	12529.5
1709.22535	12518.3
1712.47284	12470.6
1715.71819	12425.6
1718.96139	12414.8
1722.20246	12370.2
1725.44139	12323.9
1728.67818	12266.6
1731.91284	12204.5
1735.14537	12129.3
1738.37576	12116.4
1741.60403	12034.2
1744.83017	12023.7
1748.05418	12008.2
1751.27607	12001.7
1754.49584	12001.8
1757.71349	11980.3
1760.92903	11918.4
1764.14244	11898.3
1767.35375	11852.1
1770.56294	11776
1773.77002	11762
1776.97499	11714.7
1780.17785	11705.5
1783.37861	11630.2
1786.57727	11619.3
1789.77382	11571.1
1792.96828	11536.7
1796.16064	11514.3
1799.3509	11481.2
1802.53907	11450.1
1805.72514	11395.5
1808.90913	11386.8
1812.09102	11359.9
1815.27083	11340
1818.44856	11288.2
1821.6242	11280.4
1824.79776	11253.3
1827.96924	11230.2
1831.13864	11224.2
1834.30597	11206.2
1837.47122	11181.4
1840.6344	11163
1843.7955	11163.9
1846.95454	11149.9
1850.11151	11130.7
1853.26642	11112.4
1856.41926	11099.8
1859.57004	11096.6
1862.71876	11063.8
1865.86542	11090.2
1869.01003	11063.4
1872.15258	11058.3
1875.29308	11080.5
1878.43152	11069.5
1881.56792	11053.5
1884.70227	11030.4
1887.83457	11035.8
1890.96482	10990.6
1894.09304	10989.2
1897.21921	10974.6
1900.34335	10982.2
1903.46544	10930.2
1906.58551	10941.3
1909.70353	10915
1912.81953	10906.3
1915.93349	10884.7
1919.04543	10828.1
1922.15534	10820.5
1925.26322	10773
1928.36908	10736.6
1931.47292	10721.3
1934.57473	10693.1
1937.67453	10664.8
1940.77232	10689.6
1943.86808	10632.5
1946.96184	10567.5
1950.05358	10565
1953.14331	10533.8
1956.23103	10482.6
1959.31675	10486.9
1962.40046	10435.2
1965.48217	10400.2
1968.56188	10376
1971.63959	10359.3
1974.7153	10305.9
1977.78901	10288.3
1980.86073	10232.7
1983.93046	10214.7
1986.99819	10188.1
1990.06394	10148.2
1993.1277	10107
1996.18947	10117.8
1999.24925	10077.9
2002.30706	10036.1
2005.36288	9965.8
2008.41672	9961.1
2011.46859	9913.7
2014.51848	9890.3
2017.56639	9839.7
2020.61233	9846.8
2023.6563	9803.8
2026.6983	9774
2029.73833	9736.8
2032.7764	9724.1
2035.8125	9719.2
2038.84664	9670.1
2041.87881	9666.6
2044.90903	9617.1
2047.93729	9624
2050.96359	9624.7
2053.98794	9584.2
2057.01034	9583.4
2060.03078	9568.1
2063.04927	9562.8
2066.06582	9553
2069.08042	9553.8
2072.09307	9508.5
2075.10378	9526.8
2078.11255	9506
2081.11938	9505.6
2084.12426	9502.2
2087.12722	9478.5
2090.12824	9459.2
2093.12732	9472.1
2096.12447	9467.6
2099.11969	9496.9
2102.11299	9473.1
2105.10435	9479.8
2108.09379	9466.8
2111.08131	9475.8
2114.0669	9486
2117.05057	9485.9
2120.03233	9485.2
2123.01216	9458
2125.99008	9491.1
2128.96609	9507.3
2131.94018	9519
2134.91236	9499.3
2137.88263	9497.2
2140.851	9508.3
2143.81746	9491.2
2146.78201	9487.9
2149.74466	9476.8
2152.7054	9488
2155.66425	9478.8
2158.6212	9492.2
2161.57625	9466.8
2164.52941	9470.3
2167.48067	9466.9
2170.43004	9463
2173.37752	9457.6
2176.32311	9441.4
2179.26681	9429.9
2182.20863	9445.4
2185.14856	9463.6
2188.08661	9439.2
2191.02278	9441.2
2193.95707	9433.1
2196.88948	9435.2
2199.82001	9438.6
2202.74867	9406.2
2205.67545	9395.1
2208.60037	9359.5
2211.52341	9371
2214.44458	9323.2
2217.36388	9301.6
2220.28132	9313
2223.1969	9280.6
2226.11061	9276.1
2229.02246	9264.3
2231.93245	9245
2234.84058	9222.5
2237.74686	9209
2240.65128	9195.2
2243.55385	9153.9
2246.45456	9138.6
2249.35343	9103.2
2252.25044	9112.1
2255.14561	9096.2
2258.03893	9083.4
2260.93041	9088.8
2263.82004	9064.4
2266.70783	9050.4
2269.59378	9003.6
2272.4779	8976.4
2275.36017	8972.3
2278.24061	8945.9
2281.11922	8902.6
2283.996	8885.4
2286.87094	8894.4
2289.74405	8862.7
2292.61534	8849.8
2295.4848	8849.7
2298.35243	8851.5
2301.21824	8821.2
2304.08223	8822
2306.94439	8791.8
2309.80474	8813.7
2312.66327	8802.1
2315.51999	8769.1
2318.37489	8779.9
2321.22797	8769.9
2324.07925	8740.7
2326.92871	8737.6
2329.77637	8725.3
2332.62222	8719.9
2335.46626	8713.8
2338.3085	8682.9
2341.14893	8690.8
2343.98756	8681.3
2346.8244	8672
2349.65943	8664.3
2352.49267	8662.3
2355.32411	8664.1
2358.15376	8658.1
2360.98161	8651.2
2363.80768	8648.9
2366.63195	8662.9
2369.45444	8642.3
2372.27514	8628.1
2375.09405	8617.5
2377.91118	8570.8
2380.72652	8546.6
2383.54009	8550.1
2386.35187	8517.1
2389.16188	8483.2
2391.97011	8482
2394.77657	8458
2397.58125	8431.4
2400.38416	8414
2403.18529	8391.3
2405.98466	8395.1
2408.78226	8344.2
2411.57809	8337.5
2414.37216	8334.7
2417.16446	8338
2419.955	8323.4
2422.74378	8315.2
2425.5308	8292.9
2428.31606	8289.9
2431.09956	8293.5
2433.88131	8261.9
2436.6613	8278.7
2439.43954	8261.5
2442.21603	8254.8
2444.99077	8239
2447.76377	8254.1
2450.53501	8235.3
2453.30451	8244.8
2456.07226	8221.1
2458.83827	8213.3
2461.60254	8221.7
2464.36507	8188.7
2467.12586	8197.3
2469.88492	8196.4
2472.64224	8179.3
2475.39782	8169.9
2478.15167	8198.3
2480.90379	8178.8
2483.65417	8175.8
2486.40283	8190.7
2489.14976	8168.2
2491.89497	8201
2494.63845	8224.7
2497.3802	8211.7
2500.12024	8192.5
2502.85855	8142.2
2505.59514	8151.1
2508.33002	8120.6
2511.06318	8125.2
2513.79462	8085.6
2516.52435	8055.6
2519.25237	8062.7
2521.97867	8045.1
2524.70327	8037
2527.42616	8009.4
2530.14734	7996.8
2532.86681	7996.5
2535.58458	8023.5
2538.30065	8002.6
2541.01501	7988.2
2543.72768	8006.8
2546.43864	7971.2
2549.14791	7951.3
2551.85548	7946.7
2554.56136	7914.8
2557.26554	7923.6
2559.96803	7898.4
2562.66883	7895.9
2565.36794	7882.7
2568.06536	7868
2570.7611	7871.7
2573.45514	7835.6
2576.14751	7820.9
2578.83819	7827.9
2581.52719	7816
2584.21451	7813.4
2586.90015	7789.1
2589.58411	7771.6
2592.2664	7755.5
2594.94701	7753.3
2597.62594	7733.3
2600.30321	7721.6
2602.9788	7723.1
2605.65273	7708.2
2608.32498	7713.9
2610.99557	7703.1
2613.66449	7714.9
2616.33175	7700.1
2618.99734	7701.8
2621.66128	7689.8
2624.32355	7689.3
2626.98416	7646.6
2629.64311	7644.9
2632.30041	7659
2634.95605	7629.4
2637.61004	7619.2
2640.26238	7620.7
2642.91306	7610.3
2645.56209	7632
2648.20948	7625.9
2650.85521	7595.3
2653.4993	7586.7
2656.14175	7587.8
2658.78255	7577.9
2661.42171	7600.5
2664.05923	7592.7
2666.6951	7590.8
2669.32934	7592.3
2671.96194	7588.4
2674.59291	7596.4
2677.22224	7561.1
2679.84993	7585.7
2682.476	7579.4
2685.10043	7579.3
2687.72324	7558.9
2690.34441	7552.6
2692.96396	7563.1
2695.58188	7555.7
2698.19818	7542.4
2700.81285	7552.8
2703.4259	7537.8
2706.03733	7549.8
2708.64714	7544.5
2711.25533	7561.1
2713.86191	7541.6
2716.46687	7549.2
2719.07021	7559.8
2721.67194	7557.6
2724.27206	7547
2726.87057	7560.1
2729.46747	7558.7
2732.06276	7569.5
2734.65644	7538.7
2737.24852	7560.4
2739.83899	7526.6
2742.42786	7545
2745.01513	7508.3
2747.60079	7523.3
2750.18486	7504.8
2752.76733	7503
2755.3482	7485.6
2757.92747	7462.9
2760.50515	7457.6
2763.08123	7455.6
2765.65573	7450.8
2768.22863	7455.7
2770.79994	7447.3
2773.36967	7434.5
2775.9378	7439.9
2778.50435	7416.4
2781.06932	7416.7
2783.6327	7420.7
2786.1945	7425.4
2788.75471	7431.5
2791.31335	7403.5
2793.87041	7375
2796.42589	7348.2
2798.97979	7337.7
2801.53212	7328.6
2804.08288	7328.3
2806.63206	7310.2
2809.17967	7304.5
2811.72571	7287.8
2814.27018	7292.8
2816.81308	7261.6
2819.35442	7274.9
2821.89419	7267.6
2824.43239	7258.7
2826.96904	7251.4
2829.50412	7258.2
2832.03763	7250.2
2834.56959	7247.3
2837.1	7241.3
2839.62884	7244.8
2842.15613	7248.1
2844.68186	7274
2847.20604	7264.8
2849.72867	7257.7
2852.24974	7247.1
2854.76927	7249.3
2857.28724	7246.3
2859.80367	7248.1
2862.31855	7250.5
2864.83189	7239.8
2867.34368	7217.3
2869.85393	7202.7
2872.36264	7202
2874.8698	7206.8
2877.37543	7200.6
2879.87952	7197.7
2882.38207	7190.2
2884.88308	7195.8
2887.38256	7213.6
2889.88051	7205.1
2892.37692	7218.6
2894.8718	7209.7
2897.36515	7230.2
2899.85698	7247.4
2902.34727	7238.2
2904.83604	7253.6
2907.32328	7265.4
2909.809	7264.5
2912.29319	7273.4
2914.77587	7270.5
2917.25702	7271.4
2919.73665	7278.8
2922.21476	7284.4
2924.69136	7267.2
2927.16644	7284.1
2929.64	7253.7
2932.11205	7249
2934.58258	7234
2937.05161	7248.9
2939.51912	7246.2
2941.98513	7238.4
2944.44962	7201.8
2946.91261	7187.4
2949.37409	7189.5
2951.83407	7200.3
2954.29254	7202.3
2956.74951	7166.2
2959.20498	7154.5
2961.65895	7138.7
2964.11142	7124.6
2966.56239	7093
2969.01186	7091.5
2971.45984	7075.7
2973.90632	7056.1
2976.35131	7036.8
2978.7948	7009.2
2981.23681	6980.9
2983.67732	6974.3
2986.11635	6950.8
2988.55388	6935.8
2990.98993	6922
2993.4245	6917
2995.85758	6913.6
2998.28917	6868.9
3000.71928	6882.7
3003.14791	6837.2
3005.57506	6874
3008.00073	6831.9
3010.42493	6805.8
3012.84764	6786.8
3015.26888	6811.2
3017.68865	6786.2
3020.10694	6765.3
3022.52376	6762.1
3024.9391	6751.2
3027.35298	6730
3029.76539	6718.8
3032.17632	6705.9
3034.5858	6711.7
3036.9938	6690.6
3039.40034	6678.3
3041.80542	6677.9
3044.20903	6647.9
3046.61118	6651.4
3049.01187	6645
3051.4111	6627.5
3053.80888	6621.3
3056.20519	6612.7
3058.60005	6600.5
3060.99345	6594.6
3063.3854	6559.4
3065.7759	6545.6
3068.16494	6542.8
3070.55254	6494.2
3072.93868	6499.6
3075.32338	6470
3077.70662	6473.3
3080.08842	6460.4
3082.46878	6449.2
3084.84769	6449.3
3087.22515	6462
3089.60118	6447.7
3091.97576	6443.6
3094.3489	6436.9
3096.72061	6452
3099.09087	6436.5
3101.4597	6436.4
3103.82709	6448.9
3106.19305	6426.3
3108.55757	6433.2
3110.92066	6422.1
3113.28232	6412.6
3115.64255	6390.2
3118.00134	6381.2
3120.35871	6368.9
3122.71466	6359
3125.06917	6336.9
3127.42226	6313.3
3129.77393	6323.1
3132.12417	6336.9
3134.47299	6344.7
3136.82039	6327.3
3139.16636	6348.4
3141.51092	6336.1
3143.85406	6345.6
3146.19579	6351.3
3148.53609	6333
3150.87499	6349.3
3153.21246	6352.3
3155.54853	6371.1
3157.88318	6364.7
3160.21642	6366.2
3162.54826	6355.7
3164.87868	6354
3167.2077	6358.6
3169.5353	6380
3171.86151	6354.7
3174.18631	6373
3176.5097	6347.9
3178.83169	6349.4
3181.15228	6348.2
3183.47147	6326.8
3185.78926	6317.5
3188.10565	6321.1
3190.42065	6298
3192.73424	6321.4
3195.04645	6321.8
3197.35725	6343.7
3199.66667	6328
3201.97469	6347.3
3204.28132	6331.4
3206.58656	6348.5
3208.8904	6352.8
3211.19287	6338.4
3213.49394	6352.3
3215.79363	6333.9
3218.09193	6360.1
3220.38884	6353.1
3222.68438	6374.9
3224.97853	6363.4
3227.2713	6363.3
3229.56269	6348.4
3231.8527	6343.4
3234.14133	6324.6
3236.42858	6293
3238.71446	6322.5
3240.99896	6291.6
3243.28209	6282
3245.56384	6270.8
3247.84423	6287
3250.12324	6272.3
3252.40088	6275.7
3254.67715	6264.7
3256.95205	6257.6
3259.22558	6244.8
3261.49775	6250.8
3263.76855	6246.2
3266.03799	6234.1
3268.30606	6230.2
3270.57277	6214.4
3272.83812	6202
3275.10211	6208.9
3277.36474	6178.6
3279.62601	6197.6
3281.88593	6179.4
3284.14448	6191.4
3286.40168	6193
3288.65753	6176.1
3290.91202	6189.5
3293.16516	6156.3
3295.41695	6146.4
3297.66738	6126.2
3299.91647	6101.9
3302.16421	6066.9
3304.4106	6020.7
3306.65564	5999.2
3308.89933	5964.1
3311.14169	5929.2
3313.38269	5870.1
3315.62236	5825.8
3317.86068	5789.9
3320.09766	5735
3322.3333	5709
3324.5676	5701.4
3326.80056	5597.8
3329.03219	5584.2
3331.26248	4
3333.49143	0.6
3335.71905	-0.2
