Data from AgNPs_FTO_APTES_UA_50uM_CRN_20uM_R6G_10uM_NaF_0.1M_Addition_RamanShift__4__13-58-54-914.txt Node

Date: Mon Feb 21 13:58:54 GMT 2022
User: TCL
Spectrometer: QEP01345
Trigger mode: 4
Integration Time (sec): 7.000000E0
Scans to average: 10
Electric dark correction enabled: true
Nonlinearity correction enabled: false
Boxcar width: 0
XAxis mode: Raman Shifts
Number of Pixels in Spectrum: 1044
>>>>>Begin Spectral Data<<<<<
46.04893	0.1875
50.45542	-0.3125
54.85868	-0.6125
59.25871	-2.0125
63.6555	60.8875
68.04907	65.3875
72.43941	65.6875
76.82654	71.3875
81.21044	73.4875
85.59113	79.4875
89.96862	81.9875
94.34289	85.4875
98.71396	85.1875
103.08183	90.2875
107.4465	92.4875
111.80798	91.8875
116.16626	88.5875
120.52136	93.8875
124.87327	103.7875
129.222	99.7875
133.56755	103.7875
137.90993	117.6875
142.24913	124.3875
146.58517	130.9875
150.91804	154.7875
155.24774	176.0875
159.57429	218.1875
163.89768	271.7875
168.21792	363.8875
172.53501	487.7875
176.84895	678.6875
181.15975	938.2875
185.46741	1317.5875
189.77193	1805.3875
194.07331	2413.3875
198.37157	3103.3875
202.6667	3833.6875
206.9587	4549.7875
211.24758	5259.7875
215.53334	5978.5875
219.81599	6752.2875
224.09553	7639.8875
228.37195	8566.7875
232.64527	9660.4875
236.91549	10738.7875
241.18261	11793.1875
245.44663	12741.4875
249.70755	13524.5875
253.96539	14221.7875
258.22014	14783.7875
262.4718	15242.5875
266.72039	15558.9875
270.96589	15695.8875
275.20832	15683.2875
279.44768	15462.4875
283.68397	15250.2875
287.91719	15025.6875
292.14735	14912.0875
296.37445	14943.1875
300.59849	15071.4875
304.81948	15306.6875
309.03742	15403.4875
313.25231	15435.5875
317.46415	15170.4875
321.67296	14779.0875
325.87872	14456.3875
330.08145	14333.4875
334.28114	14342.4875
338.47781	14436.1875
342.67145	14618.7875
346.86207	14904.4875
351.04966	15302.0875
355.23424	15690.9875
359.4158	16064.0875
363.59435	16290.0875
367.76989	16459.1875
371.94243	16537.0875
376.11196	16576.8875
380.27849	16629.1875
384.44203	16707.0875
388.60257	16774.8875
392.76012	16867.3875
396.91468	17016.0875
401.06626	17270.0875
405.21485	17465.3875
409.36047	17336.6875
413.50311	17029.2875
417.64277	16788.9875
421.77947	16714.6875
425.9132	16739.6875
430.04396	16740.2875
434.17176	16857.0875
438.2966	16999.8875
442.41849	17367.7875
446.53742	17991.1875
450.6534	18658.4875
454.76644	19007.7875
458.87653	19025.9875
462.98368	18769.5875
467.08789	18406.8875
471.18916	18009.2875
475.2875	17552.0875
479.38291	17201.4875
483.4754	16965.6875
487.56496	16795.3875
491.6516	16617.2875
495.73531	16546.5875
499.81612	16569.7875
503.89401	16723.2875
507.96899	16759.4875
512.04106	16707.7875
516.11023	16665.5875
520.1765	16607.7875
524.23987	16563.1875
528.30034	16570.2875
532.35792	16481.3875
536.41261	16241.0875
540.46441	15980.2875
544.51333	15853.2875
548.55936	15955.8875
552.60252	16259.6875
556.64279	16713.5875
560.6802	16982.9875
564.71473	17070.3875
568.7464	17265.1875
572.7752	17616.5875
576.80114	17918.3875
580.82422	18360.4875
584.84444	19148.8875
588.86181	20342.9875
592.87633	21616.1875
596.888	21932.6875
600.89682	20987.5875
604.9028	20714.2875
608.90594	22633.6875
612.90624	25036.4875
616.90371	23479.6875
620.89834	19097.1875
624.89015	17188.8875
628.87913	16880.9875
632.86528	16953.1875
636.84862	16924.4875
640.82913	16573.4875
644.80683	16088.1875
648.78172	15735.8875
652.75379	15754.3875
656.72306	16041.8875
660.68952	16415.4875
664.65319	16266.7875
668.61405	15907.5875
672.57211	15833.4875
676.52738	15944.4875
680.47986	15947.9875
684.42955	15767.7875
688.37646	15697.0875
692.32058	15759.5875
696.26192	16049.0875
700.20048	16304.2875
704.13626	16390.4875
708.06928	16295.6875
711.99952	16189.5875
715.927	16197.2875
719.85171	16353.6875
723.77365	16327.6875
727.69284	16078.3875
731.60928	15845.0875
735.52295	15830.1875
739.43388	15860.2875
743.34206	15919.1875
747.24749	16032.7875
751.15017	16133.6875
755.05012	16353.0875
758.94733	16799.5875
762.8418	17741.2875
766.73354	19260.7875
770.62254	20768.8875
774.50882	21307.4875
778.39237	20487.3875
782.27321	18928.1875
786.15132	17495.6875
790.02671	16646.0875
793.89938	16151.4875
797.76935	16002.5875
801.6366	15917.8875
805.50115	15901.4875
809.36299	15761.0875
813.22213	15639.9875
817.07857	15532.8875
820.93231	15462.4875
824.78336	15384.8875
828.63172	15381.7875
832.47738	15410.6875
836.32036	15459.5875
840.16066	15518.2875
843.99827	15583.1875
847.8332	15556.0875
851.66546	15435.0875
855.49504	15405.7875
859.32195	15439.9875
863.1462	15390.4875
866.96777	15311.1875
870.78668	15298.3875
874.60293	15344.8875
878.41652	15378.5875
882.22745	15439.0875
886.03573	15537.2875
889.84136	15528.4875
893.64433	15443.3875
897.44466	15376.4875
901.24235	15326.4875
905.0374	15243.6875
908.8298	15186.2875
912.61957	15160.6875
916.40671	15255.3875
920.19121	15471.8875
923.97308	15669.4875
927.75233	15850.4875
931.52895	15861.8875
935.30295	15652.2875
939.07433	15346.6875
942.84309	15077.1875
946.60924	14990.1875
950.37278	14921.7875
954.13371	14897.8875
957.89203	14835.4875
961.64774	14844.8875
965.40086	14818.7875
969.15137	14825.2875
972.89929	14772.3875
976.64461	14756.3875
980.38733	14858.7875
984.12747	14921.9875
987.86502	15039.9875
991.59999	15218.6875
995.33237	15530.7875
999.06217	16009.2875
1002.78939	16615.2875
1006.51404	17023.5875
1010.23611	17300.1875
1013.95561	17463.6875
1017.67255	17482.5875
1021.38692	17244.8875
1025.09872	16963.4875
1028.80796	16984.1875
1032.51465	17440.4875
1036.21877	17872.5875
1039.92035	18034.0875
1043.61937	17868.3875
1047.31584	17446.6875
1051.00976	16983.8875
1054.70114	16650.0875
1058.38998	16538.1875
1062.07627	16532.2875
1065.76003	16585.9875
1069.44126	16759.3875
1073.11995	17031.0875
1076.79611	17365.3875
1080.46974	17603.8875
1084.14085	17843.6875
1087.80943	18057.7875
1091.47549	18215.1875
1095.13903	18067.9875
1098.80005	17741.2875
1102.45857	17317.7875
1106.11456	17108.1875
1109.76805	17049.4875
1113.41903	17146.3875
1117.06751	17294.4875
1120.71348	17573.1875
1124.35696	17846.7875
1127.99793	18120.3875
1131.63641	18234.4875
1135.2724	18086.4875
1138.90589	17925.9875
1142.5369	17810.4875
1146.16542	17801.9875
1149.79145	17842.6875
1153.415	17920.7875
1157.03607	18112.4875
1160.65467	18587.2875
1164.27079	19392.5875
1167.88443	20474.6875
1171.49561	21788.0875
1175.10432	23609.7875
1178.71056	25956.1875
1182.31434	28116.5875
1185.91565	28964.2875
1189.51451	28484.3875
1193.11091	27194.9875
1196.70485	25800.7875
1200.29634	24611.0875
1203.88538	23705.9875
1207.47197	23016.3875
1211.05612	22381.6875
1214.63782	21925.9875
1218.21708	21595.3875
1221.79391	21536.8875
1225.36829	21527.6875
1228.94024	21402.9875
1232.50976	20928.2875
1236.07685	20461.8875
1239.6415	20203.5875
1243.20374	20173.8875
1246.76355	20303.8875
1250.32093	20591.9875
1253.8759	21068.6875
1257.42845	21693.0875
1260.97859	22438.6875
1264.52631	23253.2875
1268.07163	24089.1875
1271.61453	24896.2875
1275.15503	25754.1875
1278.69312	26447.0875
1282.22882	27162.1875
1285.76211	28082.6875
1289.29301	29149.2875
1292.82151	30397.6875
1296.34761	31964.5875
1299.87133	33926.4875
1303.39266	36366.5875
1306.9116	38978.7875
1310.42815	41180.4875
1313.94233	42202.7875
1317.45412	41441.2875
1320.96354	39522.6875
1324.47058	37527.0875
1327.97525	35851.3875
1331.47754	34746.4875
1334.97747	34071.6875
1338.47502	33550.2875
1341.97022	33023.3875
1345.46305	32677.1875
1348.95352	32854.8875
1352.44163	33910.0875
1355.92738	36177.8875
1359.41078	39338.9875
1362.89183	42052.9875
1366.37053	41739.0875
1369.84688	37737.5875
1373.32088	32563.2875
1376.79254	29125.7875
1380.26186	27733.6875
1383.72883	27343.3875
1387.19347	26961.7875
1390.65578	26311.9875
1394.11575	25956.0875
1397.57339	26100.2875
1401.0287	26430.7875
1404.48168	26756.9875
1407.93234	26832.8875
1411.38068	26587.6875
1414.82669	26098.6875
1418.27039	25438.4875
1421.71177	24677.8875
1425.15083	23959.1875
1428.58758	23801.7875
1432.02203	24122.3875
1435.45416	24788.6875
1438.88399	25388.0875
1442.31151	25645.8875
1445.73673	25786.5875
1449.15965	25799.0875
1452.58027	25628.8875
1455.9986	25339.0875
1459.41463	25283.1875
1462.82837	25670.6875
1466.23982	26283.4875
1469.64898	27000.8875
1473.05586	27530.2875
1476.46045	27764.4875
1479.86276	27887.2875
1483.26279	27829.8875
1486.66054	28007.2875
1490.05602	28374.7875
1493.44922	28828.5875
1496.84016	29267.7875
1500.22882	29889.0875
1503.61521	30899.2875
1506.99934	32245.0875
1510.38121	33348.4875
1513.76081	33512.5875
1517.13816	32375.4875
1520.51324	30560.6875
1523.88607	29050.7875
1527.25665	28208.5875
1530.62498	27843.4875
1533.99105	27487.6875
1537.35488	26985.1875
1540.71647	26407.1875
1544.07581	25779.6875
1547.4329	25159.5875
1550.78776	24662.7875
1554.14038	24344.2875
1557.49077	24151.6875
1560.83892	24068.4875
1564.18484	24167.3875
1567.52853	24414.0875
1570.86999	24769.5875
1574.20922	25134.0875
1577.54624	25438.4875
1580.88103	25262.7875
1584.2136	25251.4875
1587.54395	25952.2875
1590.87208	27577.0875
1594.19801	29760.6875
1597.52172	31865.5875
1600.84321	32474.6875
1604.16251	30902.8875
1607.47959	28045.5875
1610.79447	25129.1875
1614.10715	22652.6875
1617.41763	20880.9875
1620.7259	19842.8875
1624.03199	19415.5875
1627.33587	19575.6875
1630.63757	20318.3875
1633.93707	21735.7875
1637.23439	24075.5875
1640.52951	27594.1875
1643.82246	31824.8875
1647.11321	35191.4875
1650.40179	35557.7875
1653.68819	32414.5875
1656.97241	27402.1875
1660.25446	22902.1875
1663.53433	19879.7875
1666.81203	18029.0875
1670.08756	17008.1875
1673.36092	16396.9875
1676.63211	15961.7875
1679.90115	15660.4875
1683.16801	15444.6875
1686.43272	15263.7875
1689.69527	15111.2875
1692.95567	14944.2875
1696.2139	14791.1875
1699.46999	14626.5875
1702.72392	14589.1875
1705.97571	14636.9875
1709.22535	14709.0875
1712.47284	14722.1875
1715.71819	14741.7875
1718.96139	14735.5875
1722.20246	14698.8875
1725.44139	14594.7875
1728.67818	14499.7875
1731.91284	14464.6875
1735.14537	14385.8875
1738.37576	14305.2875
1741.60403	14274.9875
1744.83017	14188.8875
1748.05418	14140.2875
1751.27607	14103.3875
1754.49584	14041.1875
1757.71349	13953.6875
1760.92903	13914.4875
1764.14244	13908.0875
1767.35375	13913.5875
1770.56294	13874.6875
1773.77002	13879.7875
1776.97499	13904.9875
1780.17785	13925.8875
1783.37861	13945.6875
1786.57727	13927.0875
1789.77382	13933.6875
1792.96828	13899.6875
1796.16064	13907.9875
1799.3509	13897.6875
1802.53907	13853.0875
1805.72514	13842.4875
1808.90913	13785.8875
1812.09102	13794.6875
1815.27083	13738.7875
1818.44856	13724.0875
1821.6242	13725.4875
1824.79776	13731.8875
1827.96924	13707.4875
1831.13864	13719.2875
1834.30597	13725.0875
1837.47122	13742.3875
1840.6344	13671.9875
1843.7955	13707.1875
1846.95454	13703.6875
1850.11151	13691.4875
1853.26642	13683.1875
1856.41926	13685.1875
1859.57004	13695.0875
1862.71876	13667.8875
1865.86542	13634.9875
1869.01003	13646.8875
1872.15258	13628.2875
1875.29308	13622.8875
1878.43152	13597.3875
1881.56792	13608.8875
1884.70227	13611.7875
1887.83457	13586.9875
1890.96482	13594.8875
1894.09304	13574.6875
1897.21921	13553.5875
1900.34335	13544.3875
1903.46544	13541.9875
1906.58551	13544.4875
1909.70353	13505.5875
1912.81953	13484.2875
1915.93349	13473.7875
1919.04543	13463.6875
1922.15534	13420.2875
1925.26322	13377.8875
1928.36908	13348.9875
1931.47292	13330.9875
1934.57473	13290.2875
1937.67453	13281.6875
1940.77232	13242.1875
1943.86808	13193.5875
1946.96184	13182.4875
1950.05358	13183.6875
1953.14331	13096.2875
1956.23103	13086.5875
1959.31675	13062.4875
1962.40046	13037.5875
1965.48217	12974.5875
1968.56188	12947.7875
1971.63959	12942.2875
1974.7153	12870.5875
1977.78901	12840.7875
1980.86073	12816.5875
1983.93046	12810.2875
1986.99819	12768.8875
1990.06394	12721.4875
1993.1277	12692.3875
1996.18947	12642.4875
1999.24925	12626.8875
2002.30706	12538.8875
2005.36288	12542.9875
2008.41672	12514.0875
2011.46859	12491.6875
2014.51848	12463.6875
2017.56639	12421.5875
2020.61233	12412.0875
2023.6563	12383.6875
2026.6983	12383.9875
2029.73833	12334.8875
2032.7764	12334.5875
2035.8125	12313.9875
2038.84664	12301.7875
2041.87881	12282.9875
2044.90903	12276.5875
2047.93729	12276.7875
2050.96359	12254.5875
2053.98794	12241.0875
2057.01034	12248.2875
2060.03078	12231.5875
2063.04927	12237.5875
2066.06582	12186.9875
2069.08042	12223.9875
2072.09307	12196.1875
2075.10378	12176.0875
2078.11255	12177.4875
2081.11938	12193.2875
2084.12426	12164.8875
2087.12722	12158.2875
2090.12824	12150.3875
2093.12732	12158.8875
2096.12447	12190.1875
2099.11969	12176.1875
2102.11299	12185.5875
2105.10435	12184.5875
2108.09379	12199.1875
2111.08131	12208.8875
2114.0669	12223.1875
2117.05057	12203.6875
2120.03233	12227.0875
2123.01216	12243.4875
2125.99008	12250.6875
2128.96609	12265.0875
2131.94018	12286.6875
2134.91236	12289.8875
2137.88263	12292.5875
2140.851	12303.6875
2143.81746	12316.9875
2146.78201	12288.1875
2149.74466	12335.8875
2152.7054	12347.0875
2155.66425	12308.7875
2158.6212	12301.0875
2161.57625	12308.0875
2164.52941	12324.4875
2167.48067	12292.5875
2170.43004	12309.2875
2173.37752	12291.2875
2176.32311	12308.2875
2179.26681	12314.2875
2182.20863	12322.5875
2185.14856	12317.0875
2188.08661	12350.2875
2191.02278	12319.2875
2193.95707	12364.4875
2196.88948	12336.0875
2199.82001	12341.3875
2202.74867	12348.2875
2205.67545	12369.0875
2208.60037	12335.8875
2211.52341	12315.7875
2214.44458	12302.2875
2217.36388	12270.1875
2220.28132	12265.6875
2223.1969	12233.5875
2226.11061	12235.9875
2229.02246	12240.8875
2231.93245	12229.9875
2234.84058	12231.0875
2237.74686	12202.3875
2240.65128	12189.2875
2243.55385	12202.0875
2246.45456	12178.3875
2249.35343	12159.0875
2252.25044	12129.7875
2255.14561	12114.9875
2258.03893	12110.1875
2260.93041	12081.4875
2263.82004	12028.0875
2266.70783	12036.2875
2269.59378	11994.8875
2272.4779	11986.4875
2275.36017	11955.9875
2278.24061	11935.7875
2281.11922	11945.3875
2283.996	11909.6875
2286.87094	11896.6875
2289.74405	11896.5875
2292.61534	11905.2875
2295.4848	11899.5875
2298.35243	11933.7875
2301.21824	11919.8875
2304.08223	11922.1875
2306.94439	11934.9875
2309.80474	11925.3875
2312.66327	11938.5875
2315.51999	11934.8875
2318.37489	11901.4875
2321.22797	11919.1875
2324.07925	11906.5875
2326.92871	11877.6875
2329.77637	11879.0875
2332.62222	11889.1875
2335.46626	11897.3875
2338.3085	11867.2875
2341.14893	11890.0875
2343.98756	11871.8875
2346.8244	11873.8875
2349.65943	11886.3875
2352.49267	11864.9875
2355.32411	11860.6875
2358.15376	11845.9875
2360.98161	11869.6875
2363.80768	11833.8875
2366.63195	11838.3875
2369.45444	11813.4875
2372.27514	11815.1875
2375.09405	11787.8875
2377.91118	11777.4875
2380.72652	11760.0875
2383.54009	11723.9875
2386.35187	11742.1875
2389.16188	11698.9875
2391.97011	11709.3875
2394.77657	11680.1875
2397.58125	11654.1875
2400.38416	11647.7875
2403.18529	11620.6875
2405.98466	11625.8875
2408.78226	11584.4875
2411.57809	11586.0875
2414.37216	11575.1875
2417.16446	11574.7875
2419.955	11545.6875
2422.74378	11539.8875
2425.5308	11536.9875
2428.31606	11545.5875
2431.09956	11553.3875
2433.88131	11505.7875
2436.6613	11533.3875
2439.43954	11521.1875
2442.21603	11529.4875
2444.99077	11533.4875
2447.76377	11550.2875
2450.53501	11554.0875
2453.30451	11546.2875
2456.07226	11554.5875
2458.83827	11560.0875
2461.60254	11575.3875
2464.36507	11566.5875
2467.12586	11552.1875
2469.88492	11574.1875
2472.64224	11573.4875
2475.39782	11526.4875
2478.15167	11562.2875
2480.90379	11589.0875
2483.65417	11604.3875
2486.40283	11605.0875
2489.14976	11616.7875
2491.89497	11649.7875
2494.63845	11610.2875
2497.3802	11611.0875
2500.12024	11630.6875
2502.85855	11619.9875
2505.59514	11614.9875
2508.33002	11601.0875
2511.06318	11610.0875
2513.79462	11575.8875
2516.52435	11582.9875
2519.25237	11565.3875
2521.97867	11537.8875
2524.70327	11561.4875
2527.42616	11555.4875
2530.14734	11561.5875
2532.86681	11563.6875
2535.58458	11546.7875
2538.30065	11553.3875
2541.01501	11554.5875
2543.72768	11537.8875
2546.43864	11541.0875
2549.14791	11533.1875
2551.85548	11540.7875
2554.56136	11524.8875
2557.26554	11494.8875
2559.96803	11512.0875
2562.66883	11506.9875
2565.36794	11495.5875
2568.06536	11500.6875
2570.7611	11483.7875
2573.45514	11462.1875
2576.14751	11480.5875
2578.83819	11502.1875
2581.52719	11513.6875
2584.21451	11481.7875
2586.90015	11489.0875
2589.58411	11433.2875
2592.2664	11472.1875
2594.94701	11455.9875
2597.62594	11441.0875
2600.30321	11450.0875
2602.9788	11441.4875
2605.65273	11421.7875
2608.32498	11458.6875
2610.99557	11437.2875
2613.66449	11457.1875
2616.33175	11452.2875
2618.99734	11453.4875
2621.66128	11438.7875
2624.32355	11420.7875
2626.98416	11408.8875
2629.64311	11419.0875
2632.30041	11409.3875
2634.95605	11392.4875
2637.61004	11378.9875
2640.26238	11373.3875
2642.91306	11371.6875
2645.56209	11331.4875
2648.20948	11340.2875
2650.85521	11364.2875
2653.4993	11351.0875
2656.14175	11345.3875
2658.78255	11387.8875
2661.42171	11404.1875
2664.05923	11430.5875
2666.6951	11420.1875
2669.32934	11449.5875
2671.96194	11431.0875
2674.59291	11453.9875
2677.22224	11443.3875
2679.84993	11424.7875
2682.476	11391.5875
2685.10043	11439.2875
2687.72324	11413.9875
2690.34441	11411.0875
2692.96396	11402.6875
2695.58188	11438.5875
2698.19818	11400.8875
2700.81285	11400.0875
2703.4259	11381.3875
2706.03733	11350.6875
2708.64714	11378.2875
2711.25533	11397.0875
2713.86191	11428.6875
2716.46687	11460.3875
2719.07021	11467.9875
2721.67194	11495.6875
2724.27206	11480.2875
2726.87057	11513.7875
2729.46747	11525.8875
2732.06276	11552.8875
2734.65644	11536.2875
2737.24852	11573.9875
2739.83899	11522.4875
2742.42786	11552.1875
2745.01513	11542.2875
2747.60079	11508.3875
2750.18486	11496.7875
2752.76733	11490.6875
2755.3482	11501.4875
2757.92747	11503.2875
2760.50515	11506.2875
2763.08123	11498.6875
2765.65573	11512.5875
2768.22863	11478.1875
2770.79994	11487.8875
2773.36967	11472.3875
2775.9378	11464.5875
2778.50435	11467.3875
2781.06932	11489.1875
2783.6327	11496.6875
2786.1945	11486.2875
2788.75471	11487.9875
2791.31335	11428.4875
2793.87041	11466.0875
2796.42589	11444.4875
2798.97979	11429.5875
2801.53212	11389.0875
2804.08288	11403.3875
2806.63206	11355.6875
2809.17967	11341.7875
2811.72571	11300.8875
2814.27018	11333.4875
2816.81308	11294.7875
2819.35442	11287.3875
2821.89419	11286.2875
2824.43239	11301.7875
2826.96904	11275.8875
2829.50412	11298.9875
2832.03763	11280.7875
2834.56959	11258.3875
2837.1	11274.8875
2839.62884	11243.4875
2842.15613	11265.3875
2844.68186	11295.5875
2847.20604	11272.6875
2849.72867	11306.5875
2852.24974	11268.5875
2854.76927	11282.1875
2857.28724	11226.8875
2859.80367	11251.1875
2862.31855	11270.0875
2864.83189	11246.6875
2867.34368	11220.1875
2869.85393	11265.9875
2872.36264	11247.3875
2874.8698	11229.3875
2877.37543	11247.7875
2879.87952	11237.1875
2882.38207	11255.4875
2884.88308	11261.1875
2887.38256	11274.1875
2889.88051	11267.2875
2892.37692	11290.8875
2894.8718	11279.7875
2897.36515	11295.7875
2899.85698	11323.1875
2902.34727	11329.1875
2904.83604	11360.2875
2907.32328	11369.9875
2909.809	11368.6875
2912.29319	11379.3875
2914.77587	11409.0875
2917.25702	11390.6875
2919.73665	11386.6875
2922.21476	11391.3875
2924.69136	11389.7875
2927.16644	11379.5875
2929.64	11335.6875
2932.11205	11347.4875
2934.58258	11290.6875
2937.05161	11312.9875
2939.51912	11305.0875
2941.98513	11321.8875
2944.44962	11284.3875
2946.91261	11252.5875
2949.37409	11285.2875
2951.83407	11309.7875
2954.29254	11290.4875
2956.74951	11258.8875
2959.20498	11267.1875
2961.65895	11242.2875
2964.11142	11236.9875
2966.56239	11227.7875
2969.01186	11201.3875
2971.45984	11212.3875
2973.90632	11185.7875
2976.35131	11140.4875
2978.7948	11134.1875
2981.23681	11129.2875
2983.67732	11104.5875
2986.11635	11053.1875
2988.55388	11029.3875
2990.98993	11039.4875
2993.4245	11053.4875
2995.85758	11019.3875
2998.28917	10992.4875
3000.71928	10954.8875
3003.14791	10957.8875
3005.57506	10954.7875
3008.00073	10925.5875
3010.42493	10937.9875
3012.84764	10921.4875
3015.26888	10924.9875
3017.68865	10852.0875
3020.10694	10859.7875
3022.52376	10852.5875
3024.9391	10842.8875
3027.35298	10825.8875
3029.76539	10817.0875
3032.17632	10827.3875
3034.5858	10787.8875
3036.9938	10795.6875
3039.40034	10776.4875
3041.80542	10768.5875
3044.20903	10751.4875
3046.61118	10747.6875
3049.01187	10738.3875
3051.4111	10752.8875
3053.80888	10741.9875
3056.20519	10728.4875
3058.60005	10711.9875
3060.99345	10711.3875
3063.3854	10661.2875
3065.7759	10661.5875
3068.16494	10638.6875
3070.55254	10581.4875
3072.93868	10560.3875
3075.32338	10548.5875
3077.70662	10522.8875
3080.08842	10511.6875
3082.46878	10503.0875
3084.84769	10477.3875
3087.22515	10464.7875
3089.60118	10490.5875
3091.97576	10505.8875
3094.3489	10484.8875
3096.72061	10497.1875
3099.09087	10483.9875
3101.4597	10488.6875
3103.82709	10458.3875
3106.19305	10468.6875
3108.55757	10471.0875
3110.92066	10435.8875
3113.28232	10463.1875
3115.64255	10408.7875
3118.00134	10410.2875
3120.35871	10381.9875
3122.71466	10377.4875
3125.06917	10368.9875
3127.42226	10356.9875
3129.77393	10355.3875
3132.12417	10337.5875
3134.47299	10358.2875
3136.82039	10341.7875
3139.16636	10341.9875
3141.51092	10321.2875
3143.85406	10359.7875
3146.19579	10348.7875
3148.53609	10334.8875
3150.87499	10369.4875
3153.21246	10365.5875
3155.54853	10361.4875
3157.88318	10372.0875
3160.21642	10393.2875
3162.54826	10374.0875
3164.87868	10407.1875
3167.2077	10385.5875
3169.5353	10358.9875
3171.86151	10357.8875
3174.18631	10369.5875
3176.5097	10370.0875
3178.83169	10346.8875
3181.15228	10345.4875
3183.47147	10336.3875
3185.78926	10328.3875
3188.10565	10329.5875
3190.42065	10313.7875
3192.73424	10313.8875
3195.04645	10327.9875
3197.35725	10316.2875
3199.66667	10327.6875
3201.97469	10324.4875
3204.28132	10320.4875
3206.58656	10356.1875
3208.8904	10327.5875
3211.19287	10339.6875
3213.49394	10326.2875
3215.79363	10331.9875
3218.09193	10356.6875
3220.38884	10345.5875
3222.68438	10315.8875
3224.97853	10291.5875
3227.2713	10331.1875
3229.56269	10326.4875
3231.8527	10333.1875
3234.14133	10336.6875
3236.42858	10300.4875
3238.71446	10295.1875
3240.99896	10260.2875
3243.28209	10268.8875
3245.56384	10267.2875
3247.84423	10260.9875
3250.12324	10243.7875
3252.40088	10230.6875
3254.67715	10253.5875
3256.95205	10233.7875
3259.22558	10220.4875
3261.49775	10209.0875
3263.76855	10212.2875
3266.03799	10197.2875
3268.30606	10199.5875
3270.57277	10173.9875
3272.83812	10175.8875
3275.10211	10162.4875
3277.36474	10165.5875
3279.62601	10156.7875
3281.88593	10127.9875
3284.14448	10129.2875
3286.40168	10159.8875
3288.65753	10118.9875
3290.91202	10142.6875
3293.16516	10104.5875
3295.41695	10110.3875
3297.66738	10091.6875
3299.91647	10026.5875
3302.16421	9956.3875
3304.4106	9922.5875
3306.65564	9865.8875
3308.89933	9784.3875
3311.14169	9731.2875
3313.38269	9649.5875
3315.62236	9594.8875
3317.86068	9526.7875
3320.09766	9433.9875
3322.3333	9396.3875
3324.5676	9378.3875
3326.80056	9211.6875
3329.03219	9169.7875
3331.26248	1.2875
3333.49143	-0.2125
3335.71905	0.5875
