Data from AgNPs_FTO_APTES_UA_50uM_CRN_20uM_R6G_10uM_NaF_0.1M_Addition_RamanShift__11__14-07-04-924.txt Node

Date: Mon Feb 21 14:07:04 GMT 2022
User: TCL
Spectrometer: QEP01345
Trigger mode: 4
Integration Time (sec): 7.000000E0
Scans to average: 10
Electric dark correction enabled: true
Nonlinearity correction enabled: false
Boxcar width: 0
XAxis mode: Raman Shifts
Number of Pixels in Spectrum: 1044
>>>>>Begin Spectral Data<<<<<
46.04893	0.2625
50.45542	-0.7375
54.85868	0.0625
59.25871	-2.4375
63.6555	44.3625
68.04907	52.0625
72.43941	56.0625
76.82654	55.8625
81.21044	62.3625
85.59113	66.5625
89.96862	69.3625
94.34289	70.5625
98.71396	68.4625
103.08183	75.9625
107.4465	76.1625
111.80798	75.1625
116.16626	74.7625
120.52136	74.4625
124.87327	82.3625
129.222	82.5625
133.56755	82.6625
137.90993	85.4625
142.24913	95.8625
146.58517	104.5625
150.91804	114.5625
155.24774	133.1625
159.57429	156.4625
163.89768	197.1625
168.21792	260.6625
172.53501	348.0625
176.84895	475.2625
181.15975	664.0625
185.46741	926.4625
189.77193	1281.7625
194.07331	1712.1625
198.37157	2201.1625
202.6667	2734.5625
206.9587	3255.7625
211.24758	3758.7625
215.53334	4274.7625
219.81599	4807.6625
224.09553	5416.8625
228.37195	6071.0625
232.64527	6820.2625
236.91549	7587.0625
241.18261	8343.6625
245.44663	9060.3625
249.70755	9685.5625
253.96539	10204.0625
258.22014	10618.5625
262.4718	10959.9625
266.72039	11132.2625
270.96589	11254.2625
275.20832	11175.2625
279.44768	11025.7625
283.68397	10843.4625
287.91719	10677.6625
292.14735	10572.0625
296.37445	10510.9625
300.59849	10532.8625
304.81948	10573.9625
309.03742	10625.3625
313.25231	10583.3625
317.46415	10402.7625
321.67296	10119.4625
325.87872	9935.4625
330.08145	9813.0625
334.28114	9815.4625
338.47781	9878.0625
342.67145	9994.5625
346.86207	10160.9625
351.04966	10404.4625
355.23424	10607.4625
359.4158	10791.7625
363.59435	10950.3625
367.76989	11046.5625
371.94243	11073.6625
376.11196	11102.1625
380.27849	11104.1625
384.44203	11143.7625
388.60257	11203.6625
392.76012	11277.7625
396.91468	11407.0625
401.06626	11583.5625
405.21485	11715.9625
409.36047	11607.6625
413.50311	11419.6625
417.64277	11239.4625
421.77947	11174.6625
425.9132	11194.9625
430.04396	11205.3625
434.17176	11238.2625
438.2966	11328.7625
442.41849	11457.8625
446.53742	11631.6625
450.6534	11846.7625
454.76644	11982.2625
458.87653	12032.5625
462.98368	12058.3625
467.08789	11967.4625
471.18916	11890.6625
475.2875	11738.6625
479.38291	11600.9625
483.4754	11501.9625
487.56496	11414.8625
491.6516	11393.2625
495.73531	11340.0625
499.81612	11328.3625
503.89401	11403.4625
507.96899	11476.4625
512.04106	11489.8625
516.11023	11509.2625
520.1765	11456.2625
524.23987	11396.4625
528.30034	11342.7625
532.35792	11285.1625
536.41261	11162.8625
540.46441	11042.9625
544.51333	11042.8625
548.55936	11082.2625
552.60252	11228.2625
556.64279	11405.7625
560.6802	11490.8625
564.71473	11533.3625
568.7464	11654.9625
572.7752	11866.2625
576.80114	12116.6625
580.82422	12377.2625
584.84444	12670.0625
588.86181	13063.4625
592.87633	13395.0625
596.888	13522.7625
600.89682	13307.8625
604.9028	13424.9625
608.90594	14472.1625
612.90624	15802.8625
616.90371	14965.6625
620.89834	12633.2625
624.89015	11556.6625
628.87913	11406.8625
632.86528	11533.3625
636.84862	11642.7625
640.82913	11527.9625
644.80683	11244.1625
648.78172	11052.3625
652.75379	11008.0625
656.72306	11153.3625
660.68952	11394.8625
664.65319	11351.4625
668.61405	11174.9625
672.57211	11152.0625
676.52738	11191.9625
680.47986	11214.9625
684.42955	11165.7625
688.37646	11106.1625
692.32058	11128.8625
696.26192	11176.2625
700.20048	11266.1625
704.13626	11332.9625
708.06928	11315.3625
711.99952	11266.4625
715.927	11222.0625
719.85171	11232.9625
723.77365	11177.7625
727.69284	11068.5625
731.60928	10954.5625
735.52295	10942.0625
739.43388	10938.6625
743.34206	10972.2625
747.24749	11004.8625
751.15017	11108.9625
755.05012	11231.8625
758.94733	11495.7625
762.8418	12031.4625
766.73354	12941.3625
770.62254	13864.7625
774.50882	14158.2625
778.39237	13668.0625
782.27321	12759.0625
786.15132	11980.7625
790.02671	11454.5625
793.89938	11158.5625
797.76935	11007.7625
801.6366	10954.5625
805.50115	10889.2625
809.36299	10835.5625
813.22213	10762.3625
817.07857	10710.7625
820.93231	10694.7625
824.78336	10684.4625
828.63172	10662.1625
832.47738	10662.0625
836.32036	10632.8625
840.16066	10630.9625
843.99827	10629.4625
847.8332	10618.7625
851.66546	10626.7625
855.49504	10630.8625
859.32195	10645.0625
863.1462	10635.5625
866.96777	10609.7625
870.78668	10620.0625
874.60293	10627.2625
878.41652	10656.7625
882.22745	10692.1625
886.03573	10749.1625
889.84136	10746.1625
893.64433	10719.7625
897.44466	10710.6625
901.24235	10694.7625
905.0374	10681.4625
908.8298	10667.5625
912.61957	10619.4625
916.40671	10668.3625
920.19121	10738.5625
923.97308	10813.3625
927.75233	10895.2625
931.52895	10871.7625
935.30295	10755.6625
939.07433	10563.7625
942.84309	10420.0625
946.60924	10327.6625
950.37278	10261.9625
954.13371	10265.3625
957.89203	10236.5625
961.64774	10227.8625
965.40086	10247.9625
969.15137	10192.6625
972.89929	10208.9625
976.64461	10163.7625
980.38733	10163.9625
984.12747	10179.0625
987.86502	10204.6625
991.59999	10207.6625
995.33237	10286.3625
999.06217	10424.6625
1002.78939	10555.2625
1006.51404	10712.5625
1010.23611	10885.1625
1013.95561	11039.2625
1017.67255	11011.2625
1021.38692	10947.9625
1025.09872	10811.6625
1028.80796	10688.7625
1032.51465	10643.8625
1036.21877	10663.9625
1039.92035	10707.7625
1043.61937	10757.1625
1047.31584	10801.8625
1051.00976	10791.6625
1054.70114	10859.8625
1058.38998	10890.9625
1062.07627	10942.8625
1065.76003	11058.5625
1069.44126	11181.6625
1073.11995	11377.1625
1076.79611	11560.4625
1080.46974	11650.3625
1084.14085	11729.4625
1087.80943	11824.1625
1091.47549	11915.0625
1095.13903	11922.2625
1098.80005	11745.7625
1102.45857	11531.2625
1106.11456	11347.1625
1109.76805	11239.3625
1113.41903	11218.3625
1117.06751	11312.3625
1120.71348	11438.7625
1124.35696	11621.4625
1127.99793	11811.4625
1131.63641	11894.4625
1135.2724	11822.9625
1138.90589	11713.0625
1142.5369	11639.4625
1146.16542	11617.6625
1149.79145	11635.2625
1153.415	11660.1625
1157.03607	11736.4625
1160.65467	11919.8625
1164.27079	12254.9625
1167.88443	12716.1625
1171.49561	13332.1625
1175.10432	14150.5625
1178.71056	15208.0625
1182.31434	16180.1625
1185.91565	16678.3625
1189.51451	16743.1625
1193.11091	16410.6625
1196.70485	15802.5625
1200.29634	15198.0625
1203.88538	14580.1625
1207.47197	14065.7625
1211.05612	13664.9625
1214.63782	13359.7625
1218.21708	13120.5625
1221.79391	12958.6625
1225.36829	12878.3625
1228.94024	12858.2625
1232.50976	12822.5625
1236.07685	12753.4625
1239.6415	12681.7625
1243.20374	12647.5625
1246.76355	12675.8625
1250.32093	12761.2625
1253.8759	12941.5625
1257.42845	13191.2625
1260.97859	13545.3625
1264.52631	13912.8625
1268.07163	14249.3625
1271.61453	14587.6625
1275.15503	14890.4625
1278.69312	15182.1625
1282.22882	15485.9625
1285.76211	15868.8625
1289.29301	16274.2625
1292.82151	16745.3625
1296.34761	17311.3625
1299.87133	17895.8625
1303.39266	18742.8625
1306.9116	19581.5625
1310.42815	20406.3625
1313.94233	20860.2625
1317.45412	20640.0625
1320.96354	20143.8625
1324.47058	19637.9625
1327.97525	19201.5625
1331.47754	18958.5625
1334.97747	18821.8625
1338.47502	18817.2625
1341.97022	18935.9625
1345.46305	19129.5625
1348.95352	19407.5625
1352.44163	19829.3625
1355.92738	20407.9625
1359.41078	21242.3625
1362.89183	22214.8625
1366.37053	22002.5625
1369.84688	20351.3625
1373.32088	18203.1625
1376.79254	16644.1625
1380.26186	15784.7625
1383.72883	15366.3625
1387.19347	15030.8625
1390.65578	14679.0625
1394.11575	14484.7625
1397.57339	14415.1625
1401.0287	14437.7625
1404.48168	14485.6625
1407.93234	14438.4625
1411.38068	14354.5625
1414.82669	14130.4625
1418.27039	13878.1625
1421.71177	13613.1625
1425.15083	13398.6625
1428.58758	13294.2625
1432.02203	13311.0625
1435.45416	13475.3625
1438.88399	13596.2625
1442.31151	13714.0625
1445.73673	13793.2625
1449.15965	13908.2625
1452.58027	14006.4625
1455.9986	14032.8625
1459.41463	14179.1625
1462.82837	14366.4625
1466.23982	14662.3625
1469.64898	14924.8625
1473.05586	15120.3625
1476.46045	15236.3625
1479.86276	15360.3625
1483.26279	15459.1625
1486.66054	15611.5625
1490.05602	15903.9625
1493.44922	16331.6625
1496.84016	17025.9625
1500.22882	17911.1625
1503.61521	18893.6625
1506.99934	19928.1625
1510.38121	20527.0625
1513.76081	20387.4625
1517.13816	19556.0625
1520.51324	18418.0625
1523.88607	17381.8625
1527.25665	16735.3625
1530.62498	16327.1625
1533.99105	16001.1625
1537.35488	15669.9625
1540.71647	15338.7625
1544.07581	15039.5625
1547.4329	14739.1625
1550.78776	14513.1625
1554.14038	14431.0625
1557.49077	14448.2625
1560.83892	14529.5625
1564.18484	14688.4625
1567.52853	14869.7625
1570.86999	15069.5625
1574.20922	15238.8625
1577.54624	15301.6625
1580.88103	15025.6625
1584.2136	14676.0625
1587.54395	14605.9625
1590.87208	14921.5625
1594.19801	15488.4625
1597.52172	16083.4625
1600.84321	16286.4625
1604.16251	15837.8625
1607.47959	15088.6625
1610.79447	14238.2625
1614.10715	13397.3625
1617.41763	12695.5625
1620.7259	12163.1625
1624.03199	11850.4625
1627.33587	11810.8625
1630.63757	12001.1625
1633.93707	12491.2625
1637.23439	13412.8625
1640.52951	14753.4625
1643.82246	16442.6625
1647.11321	17907.7625
1650.40179	18491.0625
1653.68819	17600.9625
1656.97241	15690.6625
1660.25446	13706.4625
1663.53433	12153.8625
1666.81203	11218.8625
1670.08756	10665.1625
1673.36092	10330.3625
1676.63211	10134.5625
1679.90115	9980.2625
1683.16801	9868.6625
1686.43272	9746.9625
1689.69527	9651.8625
1692.95567	9531.5625
1696.2139	9409.1625
1699.46999	9260.0625
1702.72392	9215.5625
1705.97571	9288.1625
1709.22535	9348.8625
1712.47284	9390.5625
1715.71819	9449.2625
1718.96139	9402.7625
1722.20246	9414.2625
1725.44139	9360.2625
1728.67818	9295.2625
1731.91284	9266.5625
1735.14537	9180.2625
1738.37576	9165.7625
1741.60403	9111.4625
1744.83017	9074.5625
1748.05418	9061.4625
1751.27607	9012.5625
1754.49584	8962.5625
1757.71349	8904.5625
1760.92903	8848.5625
1764.14244	8851.9625
1767.35375	8845.2625
1770.56294	8822.9625
1773.77002	8811.0625
1776.97499	8825.0625
1780.17785	8864.0625
1783.37861	8881.3625
1786.57727	8878.6625
1789.77382	8854.9625
1792.96828	8844.1625
1796.16064	8813.5625
1799.3509	8825.6625
1802.53907	8798.9625
1805.72514	8803.6625
1808.90913	8760.7625
1812.09102	8759.1625
1815.27083	8743.5625
1818.44856	8726.4625
1821.6242	8706.2625
1824.79776	8720.4625
1827.96924	8711.3625
1831.13864	8692.4625
1834.30597	8701.6625
1837.47122	8703.7625
1840.6344	8704.2625
1843.7955	8701.2625
1846.95454	8682.9625
1850.11151	8697.8625
1853.26642	8682.6625
1856.41926	8667.3625
1859.57004	8679.0625
1862.71876	8650.1625
1865.86542	8639.8625
1869.01003	8644.6625
1872.15258	8611.2625
1875.29308	8610.6625
1878.43152	8597.6625
1881.56792	8582.5625
1884.70227	8548.6625
1887.83457	8556.5625
1890.96482	8544.6625
1894.09304	8523.6625
1897.21921	8514.0625
1900.34335	8495.5625
1903.46544	8490.5625
1906.58551	8483.5625
1909.70353	8459.5625
1912.81953	8467.2625
1915.93349	8439.5625
1919.04543	8426.1625
1922.15534	8399.1625
1925.26322	8376.5625
1928.36908	8360.4625
1931.47292	8330.2625
1934.57473	8321.7625
1937.67453	8287.7625
1940.77232	8279.2625
1943.86808	8265.5625
1946.96184	8234.7625
1950.05358	8213.1625
1953.14331	8195.7625
1956.23103	8160.0625
1959.31675	8160.6625
1962.40046	8112.8625
1965.48217	8108.5625
1968.56188	8087.7625
1971.63959	8042.2625
1974.7153	8045.9625
1977.78901	8004.3625
1980.86073	7972.0625
1983.93046	7946.0625
1986.99819	7927.7625
1990.06394	7903.4625
1993.1277	7879.9625
1996.18947	7856.2625
1999.24925	7813.7625
2002.30706	7797.5625
2005.36288	7779.9625
2008.41672	7754.5625
2011.46859	7733.9625
2014.51848	7697.3625
2017.56639	7685.3625
2020.61233	7673.6625
2023.6563	7650.0625
2026.6983	7619.5625
2029.73833	7592.8625
2032.7764	7584.0625
2035.8125	7576.3625
2038.84664	7572.2625
2041.87881	7563.4625
2044.90903	7516.3625
2047.93729	7503.8625
2050.96359	7518.3625
2053.98794	7498.5625
2057.01034	7513.4625
2060.03078	7507.4625
2063.04927	7488.2625
2066.06582	7465.4625
2069.08042	7472.3625
2072.09307	7465.4625
2075.10378	7447.2625
2078.11255	7453.9625
2081.11938	7473.5625
2084.12426	7452.5625
2087.12722	7458.4625
2090.12824	7450.3625
2093.12732	7463.3625
2096.12447	7450.1625
2099.11969	7469.3625
2102.11299	7454.7625
2105.10435	7476.5625
2108.09379	7463.6625
2111.08131	7489.7625
2114.0669	7473.6625
2117.05057	7479.9625
2120.03233	7488.7625
2123.01216	7510.8625
2125.99008	7506.0625
2128.96609	7513.7625
2131.94018	7505.2625
2134.91236	7511.3625
2137.88263	7500.1625
2140.851	7509.8625
2143.81746	7516.5625
2146.78201	7509.2625
2149.74466	7523.1625
2152.7054	7505.1625
2155.66425	7506.6625
2158.6212	7497.3625
2161.57625	7487.6625
2164.52941	7494.6625
2167.48067	7482.4625
2170.43004	7483.2625
2173.37752	7485.3625
2176.32311	7481.9625
2179.26681	7485.4625
2182.20863	7465.0625
2185.14856	7485.8625
2188.08661	7483.6625
2191.02278	7464.1625
2193.95707	7473.3625
2196.88948	7441.8625
2199.82001	7452.9625
2202.74867	7448.6625
2205.67545	7454.2625
2208.60037	7419.4625
2211.52341	7413.7625
2214.44458	7383.7625
2217.36388	7380.8625
2220.28132	7366.3625
2223.1969	7358.5625
2226.11061	7344.7625
2229.02246	7319.2625
2231.93245	7322.4625
2234.84058	7310.3625
2237.74686	7275.3625
2240.65128	7280.6625
2243.55385	7289.5625
2246.45456	7279.9625
2249.35343	7263.6625
2252.25044	7255.9625
2255.14561	7245.8625
2258.03893	7239.8625
2260.93041	7221.4625
2263.82004	7209.3625
2266.70783	7191.3625
2269.59378	7168.3625
2272.4779	7149.8625
2275.36017	7124.8625
2278.24061	7122.5625
2281.11922	7115.4625
2283.996	7085.4625
2286.87094	7103.5625
2289.74405	7071.2625
2292.61534	7068.9625
2295.4848	7053.7625
2298.35243	7054.7625
2301.21824	7044.0625
2304.08223	7061.5625
2306.94439	7045.3625
2309.80474	7026.5625
2312.66327	7028.4625
2315.51999	7016.7625
2318.37489	6990.3625
2321.22797	6996.5625
2324.07925	6999.3625
2326.92871	6987.8625
2329.77637	6970.1625
2332.62222	6956.5625
2335.46626	6944.8625
2338.3085	6919.0625
2341.14893	6912.7625
2343.98756	6936.3625
2346.8244	6914.5625
2349.65943	6942.3625
2352.49267	6935.0625
2355.32411	6928.0625
2358.15376	6942.5625
2360.98161	6929.0625
2363.80768	6926.2625
2366.63195	6925.7625
2369.45444	6900.4625
2372.27514	6894.7625
2375.09405	6904.4625
2377.91118	6889.0625
2380.72652	6896.5625
2383.54009	6874.4625
2386.35187	6839.1625
2389.16188	6825.5625
2391.97011	6817.9625
2394.77657	6810.8625
2397.58125	6779.8625
2400.38416	6783.5625
2403.18529	6764.5625
2405.98466	6752.8625
2408.78226	6725.1625
2411.57809	6735.9625
2414.37216	6723.1625
2417.16446	6752.1625
2419.955	6722.4625
2422.74378	6713.6625
2425.5308	6700.2625
2428.31606	6720.1625
2431.09956	6709.8625
2433.88131	6697.6625
2436.6613	6689.5625
2439.43954	6700.6625
2442.21603	6694.7625
2444.99077	6697.2625
2447.76377	6699.6625
2450.53501	6681.7625
2453.30451	6684.5625
2456.07226	6680.8625
2458.83827	6665.7625
2461.60254	6670.0625
2464.36507	6669.5625
2467.12586	6655.2625
2469.88492	6650.6625
2472.64224	6660.1625
2475.39782	6648.0625
2478.15167	6615.1625
2480.90379	6665.4625
2483.65417	6647.7625
2486.40283	6628.0625
2489.14976	6644.5625
2491.89497	6629.9625
2494.63845	6626.1625
2497.3802	6601.3625
2500.12024	6620.5625
2502.85855	6614.0625
2505.59514	6633.6625
2508.33002	6612.0625
2511.06318	6591.5625
2513.79462	6587.7625
2516.52435	6577.6625
2519.25237	6570.6625
2521.97867	6558.8625
2524.70327	6559.9625
2527.42616	6543.2625
2530.14734	6547.0625
2532.86681	6521.1625
2535.58458	6547.4625
2538.30065	6521.7625
2541.01501	6517.4625
2543.72768	6513.6625
2546.43864	6507.6625
2549.14791	6496.7625
2551.85548	6492.8625
2554.56136	6483.1625
2557.26554	6467.3625
2559.96803	6459.4625
2562.66883	6464.1625
2565.36794	6448.3625
2568.06536	6434.3625
2570.7611	6412.4625
2573.45514	6428.9625
2576.14751	6434.8625
2578.83819	6384.6625
2581.52719	6403.2625
2584.21451	6383.5625
2586.90015	6361.3625
2589.58411	6340.5625
2592.2664	6349.8625
2594.94701	6357.2625
2597.62594	6342.2625
2600.30321	6320.5625
2602.9788	6331.4625
2605.65273	6336.1625
2608.32498	6321.4625
2610.99557	6312.7625
2613.66449	6299.3625
2616.33175	6316.4625
2618.99734	6302.0625
2621.66128	6280.1625
2624.32355	6278.2625
2626.98416	6282.8625
2629.64311	6266.9625
2632.30041	6260.4625
2634.95605	6252.1625
2637.61004	6231.3625
2640.26238	6211.2625
2642.91306	6219.0625
2645.56209	6216.2625
2648.20948	6206.1625
2650.85521	6234.1625
2653.4993	6206.2625
2656.14175	6208.1625
2658.78255	6233.1625
2661.42171	6212.7625
2664.05923	6227.1625
2666.6951	6243.9625
2669.32934	6272.9625
2671.96194	6255.2625
2674.59291	6257.4625
2677.22224	6240.0625
2679.84993	6234.2625
2682.476	6228.8625
2685.10043	6232.6625
2687.72324	6229.8625
2690.34441	6242.0625
2692.96396	6228.4625
2695.58188	6232.5625
2698.19818	6212.2625
2700.81285	6213.0625
2703.4259	6200.1625
2706.03733	6131.6625
2708.64714	6174.9625
2711.25533	6193.1625
2713.86191	6221.1625
2716.46687	6226.6625
2719.07021	6220.9625
2721.67194	6246.6625
2724.27206	6230.4625
2726.87057	6238.5625
2729.46747	6249.1625
2732.06276	6241.3625
2734.65644	6250.6625
2737.24852	6237.5625
2739.83899	6247.8625
2742.42786	6236.3625
2745.01513	6219.4625
2747.60079	6221.8625
2750.18486	6198.5625
2752.76733	6200.3625
2755.3482	6214.1625
2757.92747	6192.1625
2760.50515	6179.7625
2763.08123	6161.7625
2765.65573	6156.5625
2768.22863	6153.7625
2770.79994	6144.3625
2773.36967	6148.6625
2775.9378	6121.0625
2778.50435	6122.2625
2781.06932	6129.5625
2783.6327	6140.2625
2786.1945	6130.4625
2788.75471	6108.0625
2791.31335	6096.4625
2793.87041	6095.6625
2796.42589	6073.4625
2798.97979	6081.1625
2801.53212	6053.8625
2804.08288	6049.2625
2806.63206	6057.5625
2809.17967	6040.5625
2811.72571	6025.1625
2814.27018	6014.7625
2816.81308	6002.6625
2819.35442	6003.0625
2821.89419	5991.3625
2824.43239	5992.8625
2826.96904	5966.9625
2829.50412	5976.9625
2832.03763	5956.8625
2834.56959	5959.5625
2837.1	5989.1625
2839.62884	5962.6625
2842.15613	5959.8625
2844.68186	5974.1625
2847.20604	5968.9625
2849.72867	5986.2625
2852.24974	5983.0625
2854.76927	5946.2625
2857.28724	5917.6625
2859.80367	5914.9625
2862.31855	5941.1625
2864.83189	5931.7625
2867.34368	5916.3625
2869.85393	5932.1625
2872.36264	5937.9625
2874.8698	5926.3625
2877.37543	5941.9625
2879.87952	5937.1625
2882.38207	5939.8625
2884.88308	5914.6625
2887.38256	5926.4625
2889.88051	5932.8625
2892.37692	5926.1625
2894.8718	5936.3625
2897.36515	5948.8625
2899.85698	5936.7625
2902.34727	5954.9625
2904.83604	5954.4625
2907.32328	5968.1625
2909.809	5942.2625
2912.29319	5973.7625
2914.77587	5970.0625
2917.25702	5956.8625
2919.73665	5956.2625
2922.21476	5978.5625
2924.69136	5971.9625
2927.16644	5958.0625
2929.64	5952.4625
2932.11205	5932.9625
2934.58258	5927.8625
2937.05161	5928.3625
2939.51912	5945.8625
2941.98513	5933.2625
2944.44962	5908.0625
2946.91261	5914.9625
2949.37409	5930.7625
2951.83407	5893.1625
2954.29254	5890.3625
2956.74951	5872.3625
2959.20498	5871.5625
2961.65895	5872.9625
2964.11142	5850.4625
2966.56239	5847.8625
2969.01186	5835.2625
2971.45984	5824.8625
2973.90632	5813.1625
2976.35131	5807.0625
2978.7948	5798.2625
2981.23681	5801.2625
2983.67732	5763.7625
2986.11635	5767.4625
2988.55388	5753.1625
2990.98993	5742.5625
2993.4245	5727.3625
2995.85758	5707.6625
2998.28917	5707.7625
3000.71928	5709.0625
3003.14791	5672.2625
3005.57506	5677.0625
3008.00073	5659.6625
3010.42493	5659.2625
3012.84764	5657.5625
3015.26888	5647.0625
3017.68865	5647.3625
3020.10694	5626.2625
3022.52376	5601.2625
3024.9391	5602.2625
3027.35298	5600.6625
3029.76539	5612.7625
3032.17632	5589.7625
3034.5858	5580.7625
3036.9938	5568.4625
3039.40034	5558.5625
3041.80542	5564.3625
3044.20903	5568.7625
3046.61118	5545.0625
3049.01187	5548.5625
3051.4111	5542.1625
3053.80888	5545.3625
3056.20519	5544.1625
3058.60005	5518.3625
3060.99345	5531.0625
3063.3854	5508.1625
3065.7759	5501.4625
3068.16494	5491.5625
3070.55254	5471.2625
3072.93868	5464.9625
3075.32338	5442.1625
3077.70662	5431.0625
3080.08842	5433.7625
3082.46878	5421.1625
3084.84769	5409.0625
3087.22515	5417.1625
3089.60118	5404.6625
3091.97576	5430.3625
3094.3489	5400.7625
3096.72061	5410.1625
3099.09087	5411.9625
3101.4597	5408.5625
3103.82709	5404.5625
3106.19305	5405.0625
3108.55757	5416.9625
3110.92066	5402.4625
3113.28232	5411.4625
3115.64255	5381.7625
3118.00134	5358.4625
3120.35871	5386.3625
3122.71466	5376.1625
3125.06917	5356.6625
3127.42226	5350.6625
3129.77393	5346.6625
3132.12417	5334.7625
3134.47299	5340.8625
3136.82039	5337.3625
3139.16636	5352.8625
3141.51092	5354.7625
3143.85406	5370.3625
3146.19579	5356.4625
3148.53609	5361.2625
3150.87499	5364.7625
3153.21246	5363.8625
3155.54853	5398.1625
3157.88318	5388.2625
3160.21642	5390.4625
3162.54826	5382.9625
3164.87868	5389.2625
3167.2077	5389.2625
3169.5353	5394.9625
3171.86151	5407.2625
3174.18631	5402.0625
3176.5097	5377.5625
3178.83169	5372.3625
3181.15228	5391.8625
3183.47147	5400.0625
3185.78926	5371.6625
3188.10565	5389.0625
3190.42065	5370.4625
3192.73424	5375.6625
3195.04645	5352.2625
3197.35725	5385.2625
3199.66667	5366.2625
3201.97469	5354.3625
3204.28132	5371.1625
3206.58656	5367.6625
3208.8904	5379.6625
3211.19287	5368.3625
3213.49394	5380.1625
3215.79363	5386.3625
3218.09193	5396.0625
3220.38884	5353.6625
3222.68438	5364.1625
3224.97853	5371.2625
3227.2713	5356.3625
3229.56269	5373.5625
3231.8527	5365.6625
3234.14133	5366.8625
3236.42858	5360.4625
3238.71446	5354.3625
3240.99896	5331.1625
3243.28209	5335.3625
3245.56384	5332.1625
3247.84423	5336.1625
3250.12324	5313.4625
3252.40088	5319.5625
3254.67715	5303.0625
3256.95205	5308.8625
3259.22558	5305.0625
3261.49775	5299.0625
3263.76855	5299.1625
3266.03799	5292.5625
3268.30606	5290.1625
3270.57277	5296.3625
3272.83812	5263.4625
3275.10211	5257.3625
3277.36474	5248.5625
3279.62601	5255.4625
3281.88593	5234.9625
3284.14448	5249.3625
3286.40168	5244.6625
3288.65753	5241.3625
3290.91202	5242.2625
3293.16516	5219.2625
3295.41695	5207.9625
3297.66738	5183.0625
3299.91647	5174.5625
3302.16421	5131.3625
3304.4106	5103.9625
3306.65564	5082.4625
3308.89933	5028.8625
3311.14169	5004.1625
3313.38269	4951.0625
3315.62236	4926.2625
3317.86068	4881.1625
3320.09766	4851.0625
3322.3333	4820.9625
3324.5676	4803.8625
3326.80056	4684.7625
3329.03219	4681.4625
3331.26248	0.6625
3333.49143	-0.2375
3335.71905	1.3625
