Data from AgNPs_FTO_APTES_UA_50uM_CRN_1000uM_R6G_10uM_NaF_0.1M_Addition_RamanShift__14__17-42-33-591.txt Node

Date: Mon Feb 21 17:42:33 GMT 2022
User: TCL
Spectrometer: QEP01345
Trigger mode: 4
Integration Time (sec): 7.000000E0
Scans to average: 10
Electric dark correction enabled: true
Nonlinearity correction enabled: false
Boxcar width: 0
XAxis mode: Raman Shifts
Number of Pixels in Spectrum: 1044
>>>>>Begin Spectral Data<<<<<
46.04893	-0.7625
50.45542	0.3375
54.85868	-1.1625
59.25871	-2.6625
63.6555	48.8375
68.04907	53.6375
72.43941	58.7375
76.82654	57.0375
81.21044	62.7375
85.59113	63.4375
89.96862	67.5375
94.34289	67.9375
98.71396	70.5375
103.08183	74.2375
107.4465	75.8375
111.80798	78.1375
116.16626	81.8375
120.52136	81.7375
124.87327	83.1375
129.222	92.2375
133.56755	90.4375
137.90993	95.6375
142.24913	105.4375
146.58517	116.8375
150.91804	130.8375
155.24774	158.1375
159.57429	196.7375
163.89768	248.5375
168.21792	330.2375
172.53501	456.2375
176.84895	631.3375
181.15975	884.3375
185.46741	1247.1375
189.77193	1732.9375
194.07331	2320.8375
198.37157	3001.6375
202.6667	3736.0375
206.9587	4432.1375
211.24758	5138.0375
215.53334	5849.1375
219.81599	6587.6375
224.09553	7416.4375
228.37195	8305.6375
232.64527	9299.9375
236.91549	10334.7375
241.18261	11371.6375
245.44663	12297.0375
249.70755	13137.8375
253.96539	13838.7375
258.22014	14457.8375
262.4718	14932.0375
266.72039	15298.4375
270.96589	15424.6375
275.20832	15412.7375
279.44768	15277.6375
283.68397	15041.5375
287.91719	14829.4375
292.14735	14712.5375
296.37445	14707.4375
300.59849	14784.9375
304.81948	14918.9375
309.03742	14945.6375
313.25231	14884.4375
317.46415	14625.5375
321.67296	14269.3375
325.87872	13934.1375
330.08145	13800.5375
334.28114	13771.5375
338.47781	13923.7375
342.67145	14115.4375
346.86207	14334.2375
351.04966	14650.5375
355.23424	15012.3375
359.4158	15323.5375
363.59435	15558.5375
367.76989	15700.5375
371.94243	15805.7375
376.11196	15860.7375
380.27849	15977.8375
384.44203	15995.1375
388.60257	16051.5375
392.76012	16095.6375
396.91468	16204.6375
401.06626	16380.6375
405.21485	16511.3375
409.36047	16423.2375
413.50311	16107.7375
417.64277	15816.5375
421.77947	15682.0375
425.9132	15674.7375
430.04396	15733.1375
434.17176	15812.8375
438.2966	15968.6375
442.41849	16211.2375
446.53742	16504.0375
450.6534	16842.6375
454.76644	17072.4375
458.87653	17118.8375
462.98368	17066.7375
467.08789	16927.6375
471.18916	16774.1375
475.2875	16587.0375
479.38291	16449.8375
483.4754	16318.5375
487.56496	16172.8375
491.6516	16055.1375
495.73531	16011.2375
499.81612	15969.7375
503.89401	16060.9375
507.96899	16136.4375
512.04106	16194.6375
516.11023	16292.1375
520.1765	16295.7375
524.23987	16286.6375
528.30034	16157.9375
532.35792	16106.5375
536.41261	16020.6375
540.46441	15869.2375
544.51333	15812.7375
548.55936	15859.2375
552.60252	15996.0375
556.64279	16254.5375
560.6802	16350.7375
564.71473	16380.0375
568.7464	16568.2375
572.7752	16763.8375
576.80114	16787.8375
580.82422	16686.1375
584.84444	16801.9375
588.86181	17021.8375
592.87633	17276.1375
596.888	17415.5375
600.89682	17372.1375
604.9028	17896.2375
608.90594	19669.9375
612.90624	21883.9375
616.90371	21150.3375
620.89834	17881.6375
624.89015	16334.2375
628.87913	16060.7375
632.86528	16165.0375
636.84862	16260.8375
640.82913	16173.5375
644.80683	15862.9375
648.78172	15660.1375
652.75379	15614.8375
656.72306	15796.9375
660.68952	16092.6375
664.65319	16034.6375
668.61405	15832.0375
672.57211	15813.7375
676.52738	15946.4375
680.47986	16072.7375
684.42955	16003.3375
688.37646	15823.9375
692.32058	15747.3375
696.26192	15739.9375
700.20048	15776.1375
704.13626	15793.2375
708.06928	15755.1375
711.99952	15645.5375
715.927	15595.1375
719.85171	15623.0375
723.77365	15655.7375
727.69284	15584.6375
731.60928	15525.5375
735.52295	15508.2375
739.43388	15469.3375
743.34206	15480.5375
747.24749	15545.2375
751.15017	15527.4375
755.05012	15600.4375
758.94733	15865.6375
762.8418	16512.9375
766.73354	17647.1375
770.62254	18990.5375
774.50882	19628.0375
778.39237	19067.5375
782.27321	17757.5375
786.15132	16502.8375
790.02671	15767.3375
793.89938	15407.4375
797.76935	15248.7375
801.6366	15147.5375
805.50115	15114.8375
809.36299	15044.4375
813.22213	14933.8375
817.07857	14885.8375
820.93231	14844.9375
824.78336	14832.0375
828.63172	14801.3375
832.47738	14791.6375
836.32036	14760.2375
840.16066	14717.9375
843.99827	14732.1375
847.8332	14686.2375
851.66546	14668.5375
855.49504	14671.0375
859.32195	14715.8375
863.1462	14735.5375
866.96777	14735.3375
870.78668	14734.3375
874.60293	14727.9375
878.41652	14737.6375
882.22745	14774.4375
886.03573	14804.6375
889.84136	14773.6375
893.64433	14733.7375
897.44466	14634.3375
901.24235	14594.8375
905.0374	14519.9375
908.8298	14405.3375
912.61957	14350.0375
916.40671	14408.6375
920.19121	14429.9375
923.97308	14530.3375
927.75233	14548.4375
931.52895	14559.3375
935.30295	14466.9375
939.07433	14265.8375
942.84309	14109.9375
946.60924	13989.3375
950.37278	13932.7375
954.13371	13879.2375
957.89203	13800.9375
961.64774	13763.8375
965.40086	13739.8375
969.15137	13673.7375
972.89929	13640.4375
976.64461	13620.4375
980.38733	13599.2375
984.12747	13571.8375
987.86502	13620.0375
991.59999	13679.7375
995.33237	13784.5375
999.06217	13937.9375
1002.78939	14105.2375
1006.51404	14273.3375
1010.23611	14374.1375
1013.95561	14467.1375
1017.67255	14502.4375
1021.38692	14436.9375
1025.09872	14292.9375
1028.80796	14176.3375
1032.51465	14205.8375
1036.21877	14300.6375
1039.92035	14307.0375
1043.61937	14325.7375
1047.31584	14271.4375
1051.00976	14211.6375
1054.70114	14200.7375
1058.38998	14181.5375
1062.07627	14168.7375
1065.76003	14233.4375
1069.44126	14260.8375
1073.11995	14301.1375
1076.79611	14344.6375
1080.46974	14494.0375
1084.14085	14569.5375
1087.80943	14668.0375
1091.47549	14765.3375
1095.13903	14748.1375
1098.80005	14568.4375
1102.45857	14396.5375
1106.11456	14324.0375
1109.76805	14296.5375
1113.41903	14386.0375
1117.06751	14562.3375
1120.71348	14791.5375
1124.35696	15033.1375
1127.99793	15259.5375
1131.63641	15405.8375
1135.2724	15217.7375
1138.90589	14930.8375
1142.5369	14749.4375
1146.16542	14593.4375
1149.79145	14541.0375
1153.415	14524.4375
1157.03607	14588.5375
1160.65467	14766.6375
1164.27079	15090.9375
1167.88443	15644.6375
1171.49561	16303.1375
1175.10432	17285.4375
1178.71056	18533.5375
1182.31434	19672.8375
1185.91565	20203.6375
1189.51451	20054.4375
1193.11091	19446.3375
1196.70485	18667.6375
1200.29634	17932.5375
1203.88538	17295.7375
1207.47197	16719.3375
1211.05612	16186.6375
1214.63782	15838.0375
1218.21708	15666.9375
1221.79391	15649.6375
1225.36829	15624.1375
1228.94024	15581.6375
1232.50976	15449.8375
1236.07685	15329.1375
1239.6415	15230.7375
1243.20374	15228.1375
1246.76355	15277.6375
1250.32093	15373.0375
1253.8759	15537.1375
1257.42845	15801.3375
1260.97859	16041.1375
1264.52631	16289.5375
1268.07163	16624.4375
1271.61453	16951.8375
1275.15503	17188.3375
1278.69312	17467.5375
1282.22882	17642.4375
1285.76211	17892.3375
1289.29301	18227.3375
1292.82151	18714.3375
1296.34761	19288.3375
1299.87133	20094.7375
1303.39266	21075.8375
1306.9116	22320.1375
1310.42815	23689.9375
1313.94233	24597.2375
1317.45412	24400.4375
1320.96354	23550.7375
1324.47058	22517.8375
1327.97525	21573.2375
1331.47754	20917.6375
1334.97747	20588.7375
1338.47502	20523.7375
1341.97022	20719.9375
1345.46305	21097.5375
1348.95352	21676.3375
1352.44163	22501.8375
1355.92738	23627.4375
1359.41078	25168.1375
1362.89183	26674.5375
1366.37053	26369.8375
1369.84688	23766.7375
1373.32088	20801.9375
1376.79254	18906.8375
1380.26186	17956.1375
1383.72883	17641.0375
1387.19347	17348.2375
1390.65578	17009.9375
1394.11575	16797.0375
1397.57339	16710.6375
1401.0287	16757.9375
1404.48168	16817.1375
1407.93234	16810.0375
1411.38068	16646.6375
1414.82669	16501.0375
1418.27039	16218.9375
1421.71177	15923.4375
1425.15083	15641.3375
1428.58758	15436.1375
1432.02203	15433.9375
1435.45416	15568.4375
1438.88399	15751.4375
1442.31151	15886.0375
1445.73673	15989.5375
1449.15965	16083.4375
1452.58027	16134.3375
1455.9986	16138.4375
1459.41463	16214.7375
1462.82837	16375.6375
1466.23982	16583.1375
1469.64898	16771.1375
1473.05586	16970.9375
1476.46045	17047.2375
1479.86276	17037.9375
1483.26279	17090.1375
1486.66054	17094.0375
1490.05602	17285.0375
1493.44922	17546.3375
1496.84016	18014.6375
1500.22882	18842.9375
1503.61521	20070.0375
1506.99934	21498.6375
1510.38121	22743.4375
1513.76081	23120.7375
1517.13816	22257.6375
1520.51324	20648.6375
1523.88607	19127.0375
1527.25665	18164.9375
1530.62498	17662.8375
1533.99105	17401.1375
1537.35488	17197.1375
1540.71647	16988.2375
1544.07581	16760.5375
1547.4329	16588.0375
1550.78776	16434.7375
1554.14038	16355.5375
1557.49077	16385.4375
1560.83892	16440.8375
1564.18484	16582.0375
1567.52853	16775.7375
1570.86999	16992.5375
1574.20922	17191.8375
1577.54624	17278.9375
1580.88103	16927.3375
1584.2136	16436.3375
1587.54395	16208.1375
1590.87208	16340.6375
1594.19801	16907.8375
1597.52172	17735.8375
1600.84321	18192.1375
1604.16251	17910.4375
1607.47959	17193.3375
1610.79447	16293.8375
1614.10715	15394.7375
1617.41763	14609.2375
1620.7259	14014.7375
1624.03199	13652.3375
1627.33587	13577.3375
1630.63757	13728.4375
1633.93707	14183.7375
1637.23439	14960.2375
1640.52951	16105.6375
1643.82246	17665.2375
1647.11321	19167.1375
1650.40179	19935.1375
1653.68819	19322.4375
1656.97241	17474.2375
1660.25446	15495.1375
1663.53433	14023.4375
1666.81203	13133.4375
1670.08756	12552.9375
1673.36092	12221.5375
1676.63211	11958.8375
1679.90115	11801.9375
1683.16801	11681.8375
1686.43272	11567.4375
1689.69527	11465.2375
1692.95567	11384.6375
1696.2139	11306.8375
1699.46999	11265.7375
1702.72392	11196.9375
1705.97571	11192.8375
1709.22535	11150.6375
1712.47284	11149.0375
1715.71819	11099.4375
1718.96139	11094.1375
1722.20246	11035.0375
1725.44139	10995.8375
1728.67818	10943.1375
1731.91284	10888.4375
1735.14537	10835.3375
1738.37576	10802.7375
1741.60403	10750.5375
1744.83017	10728.2375
1748.05418	10724.0375
1751.27607	10748.1375
1754.49584	10772.3375
1757.71349	10750.2375
1760.92903	10703.1375
1764.14244	10666.9375
1767.35375	10628.9375
1770.56294	10572.0375
1773.77002	10515.6375
1776.97499	10477.3375
1780.17785	10417.2375
1783.37861	10399.0375
1786.57727	10383.8375
1789.77382	10282.0375
1792.96828	10309.2375
1796.16064	10245.3375
1799.3509	10247.8375
1802.53907	10227.8375
1805.72514	10177.3375
1808.90913	10150.0375
1812.09102	10113.9375
1815.27083	10079.9375
1818.44856	10076.9375
1821.6242	10029.2375
1824.79776	10003.9375
1827.96924	9981.9375
1831.13864	9996.2375
1834.30597	9978.7375
1837.47122	9964.3375
1840.6344	9933.1375
1843.7955	9914.4375
1846.95454	9914.5375
1850.11151	9891.7375
1853.26642	9872.1375
1856.41926	9861.3375
1859.57004	9845.8375
1862.71876	9838.6375
1865.86542	9827.9375
1869.01003	9824.8375
1872.15258	9812.8375
1875.29308	9791.3375
1878.43152	9812.8375
1881.56792	9772.8375
1884.70227	9757.6375
1887.83457	9742.9375
1890.96482	9770.8375
1894.09304	9746.2375
1897.21921	9714.1375
1900.34335	9698.4375
1903.46544	9689.1375
1906.58551	9668.2375
1909.70353	9673.5375
1912.81953	9651.0375
1915.93349	9617.9375
1919.04543	9584.0375
1922.15534	9550.4375
1925.26322	9537.2375
1928.36908	9524.6375
1931.47292	9466.7375
1934.57473	9457.3375
1937.67453	9451.0375
1940.77232	9450.3375
1943.86808	9395.6375
1946.96184	9350.5375
1950.05358	9326.1375
1953.14331	9305.5375
1956.23103	9306.2375
1959.31675	9259.9375
1962.40046	9231.3375
1965.48217	9189.7375
1968.56188	9179.2375
1971.63959	9138.6375
1974.7153	9094.1375
1977.78901	9075.0375
1980.86073	9046.8375
1983.93046	9037.0375
1986.99819	9002.3375
1990.06394	8974.8375
1993.1277	8930.3375
1996.18947	8925.2375
1999.24925	8886.6375
2002.30706	8859.9375
2005.36288	8809.2375
2008.41672	8816.0375
2011.46859	8760.5375
2014.51848	8745.7375
2017.56639	8694.6375
2020.61233	8680.8375
2023.6563	8650.8375
2026.6983	8633.0375
2029.73833	8610.7375
2032.7764	8579.4375
2035.8125	8568.9375
2038.84664	8539.1375
2041.87881	8517.6375
2044.90903	8496.0375
2047.93729	8479.8375
2050.96359	8470.6375
2053.98794	8462.9375
2057.01034	8433.5375
2060.03078	8446.3375
2063.04927	8424.4375
2066.06582	8413.0375
2069.08042	8410.9375
2072.09307	8407.9375
2075.10378	8365.1375
2078.11255	8378.2375
2081.11938	8371.3375
2084.12426	8370.6375
2087.12722	8370.7375
2090.12824	8345.8375
2093.12732	8341.7375
2096.12447	8367.4375
2099.11969	8366.9375
2102.11299	8349.4375
2105.10435	8343.3375
2108.09379	8338.4375
2111.08131	8354.3375
2114.0669	8337.5375
2117.05057	8363.7375
2120.03233	8362.2375
2123.01216	8367.6375
2125.99008	8380.0375
2128.96609	8381.3375
2131.94018	8385.2375
2134.91236	8381.4375
2137.88263	8367.7375
2140.851	8355.2375
2143.81746	8378.1375
2146.78201	8334.5375
2149.74466	8363.2375
2152.7054	8397.4375
2155.66425	8361.9375
2158.6212	8352.9375
2161.57625	8345.5375
2164.52941	8335.7375
2167.48067	8332.3375
2170.43004	8322.8375
2173.37752	8334.1375
2176.32311	8314.2375
2179.26681	8316.2375
2182.20863	8322.5375
2185.14856	8309.3375
2188.08661	8314.0375
2191.02278	8286.5375
2193.95707	8287.5375
2196.88948	8280.7375
2199.82001	8283.2375
2202.74867	8286.4375
2205.67545	8279.7375
2208.60037	8241.7375
2211.52341	8251.8375
2214.44458	8211.4375
2217.36388	8186.3375
2220.28132	8166.5375
2223.1969	8180.2375
2226.11061	8142.6375
2229.02246	8139.2375
2231.93245	8105.8375
2234.84058	8086.0375
2237.74686	8082.0375
2240.65128	8049.8375
2243.55385	8037.2375
2246.45456	8019.4375
2249.35343	8008.0375
2252.25044	7999.2375
2255.14561	7984.5375
2258.03893	8003.5375
2260.93041	7966.2375
2263.82004	7941.4375
2266.70783	7924.5375
2269.59378	7904.8375
2272.4779	7911.6375
2275.36017	7878.0375
2278.24061	7839.1375
2281.11922	7830.0375
2283.996	7800.6375
2286.87094	7786.9375
2289.74405	7779.2375
2292.61534	7763.0375
2295.4848	7762.2375
2298.35243	7765.9375
2301.21824	7747.4375
2304.08223	7746.5375
2306.94439	7726.8375
2309.80474	7746.5375
2312.66327	7699.4375
2315.51999	7693.7375
2318.37489	7710.3375
2321.22797	7686.4375
2324.07925	7664.6375
2326.92871	7674.7375
2329.77637	7657.7375
2332.62222	7615.8375
2335.46626	7626.9375
2338.3085	7601.8375
2341.14893	7604.2375
2343.98756	7601.4375
2346.8244	7580.4375
2349.65943	7588.9375
2352.49267	7553.5375
2355.32411	7564.2375
2358.15376	7561.6375
2360.98161	7561.5375
2363.80768	7571.1375
2366.63195	7547.3375
2369.45444	7525.8375
2372.27514	7536.7375
2375.09405	7517.2375
2377.91118	7503.8375
2380.72652	7487.5375
2383.54009	7459.7375
2386.35187	7452.1375
2389.16188	7389.0375
2391.97011	7393.8375
2394.77657	7374.5375
2397.58125	7364.3375
2400.38416	7353.3375
2403.18529	7306.9375
2405.98466	7322.0375
2408.78226	7312.1375
2411.57809	7290.6375
2414.37216	7278.5375
2417.16446	7272.4375
2419.955	7256.0375
2422.74378	7251.5375
2425.5308	7253.5375
2428.31606	7231.6375
2431.09956	7222.8375
2433.88131	7208.8375
2436.6613	7212.6375
2439.43954	7196.0375
2442.21603	7204.5375
2444.99077	7211.4375
2447.76377	7182.9375
2450.53501	7177.0375
2453.30451	7183.6375
2456.07226	7165.4375
2458.83827	7157.5375
2461.60254	7159.3375
2464.36507	7166.7375
2467.12586	7131.1375
2469.88492	7113.6375
2472.64224	7132.7375
2475.39782	7115.7375
2478.15167	7103.2375
2480.90379	7121.9375
2483.65417	7118.0375
2486.40283	7107.5375
2489.14976	7127.8375
2491.89497	7105.0375
2494.63845	7118.9375
2497.3802	7112.1375
2500.12024	7111.3375
2502.85855	7091.7375
2505.59514	7066.9375
2508.33002	7057.9375
2511.06318	7044.1375
2513.79462	7029.3375
2516.52435	7011.9375
2519.25237	6995.3375
2521.97867	7000.9375
2524.70327	6980.7375
2527.42616	6959.8375
2530.14734	6957.0375
2532.86681	6950.3375
2535.58458	6938.7375
2538.30065	6940.0375
2541.01501	6938.0375
2543.72768	6919.8375
2546.43864	6899.6375
2549.14791	6891.7375
2551.85548	6888.1375
2554.56136	6856.0375
2557.26554	6840.5375
2559.96803	6844.0375
2562.66883	6832.3375
2565.36794	6818.4375
2568.06536	6808.3375
2570.7611	6779.0375
2573.45514	6779.7375
2576.14751	6774.2375
2578.83819	6768.1375
2581.52719	6763.0375
2584.21451	6734.2375
2586.90015	6714.9375
2589.58411	6713.1375
2592.2664	6705.3375
2594.94701	6672.9375
2597.62594	6677.2375
2600.30321	6656.9375
2602.9788	6644.6375
2605.65273	6646.8375
2608.32498	6622.6375
2610.99557	6623.6375
2613.66449	6626.9375
2616.33175	6622.7375
2618.99734	6623.4375
2621.66128	6604.4375
2624.32355	6583.1375
2626.98416	6578.9375
2629.64311	6577.4375
2632.30041	6571.9375
2634.95605	6559.4375
2637.61004	6563.3375
2640.26238	6551.5375
2642.91306	6541.9375
2645.56209	6517.2375
2648.20948	6504.4375
2650.85521	6514.2375
2653.4993	6496.5375
2656.14175	6510.7375
2658.78255	6514.3375
2661.42171	6523.6375
2664.05923	6514.9375
2666.6951	6498.2375
2669.32934	6517.2375
2671.96194	6507.2375
2674.59291	6500.4375
2677.22224	6498.3375
2679.84993	6493.3375
2682.476	6489.8375
2685.10043	6483.6375
2687.72324	6463.2375
2690.34441	6466.0375
2692.96396	6455.1375
2695.58188	6466.2375
2698.19818	6479.5375
2700.81285	6466.5375
2703.4259	6454.5375
2706.03733	6439.5375
2708.64714	6466.9375
2711.25533	6480.8375
2713.86191	6458.0375
2716.46687	6469.6375
2719.07021	6475.2375
2721.67194	6464.7375
2724.27206	6475.7375
2726.87057	6455.7375
2729.46747	6444.1375
2732.06276	6449.2375
2734.65644	6447.0375
2737.24852	6451.9375
2739.83899	6436.6375
2742.42786	6434.4375
2745.01513	6418.2375
2747.60079	6410.1375
2750.18486	6409.1375
2752.76733	6376.8375
2755.3482	6378.3375
2757.92747	6373.5375
2760.50515	6350.6375
2763.08123	6353.5375
2765.65573	6333.9375
2768.22863	6322.9375
2770.79994	6323.4375
2773.36967	6319.9375
2775.9378	6337.8375
2778.50435	6324.2375
2781.06932	6289.9375
2783.6327	6292.8375
2786.1945	6293.6375
2788.75471	6298.1375
2791.31335	6272.4375
2793.87041	6256.1375
2796.42589	6258.1375
2798.97979	6237.0375
2801.53212	6214.3375
2804.08288	6209.5375
2806.63206	6197.2375
2809.17967	6185.3375
2811.72571	6180.5375
2814.27018	6166.1375
2816.81308	6169.6375
2819.35442	6161.2375
2821.89419	6139.6375
2824.43239	6152.4375
2826.96904	6131.1375
2829.50412	6131.2375
2832.03763	6123.0375
2834.56959	6123.6375
2837.1	6109.7375
2839.62884	6130.0375
2842.15613	6119.7375
2844.68186	6146.5375
2847.20604	6140.6375
2849.72867	6166.0375
2852.24974	6138.5375
2854.76927	6145.9375
2857.28724	6121.9375
2859.80367	6121.3375
2862.31855	6125.6375
2864.83189	6127.4375
2867.34368	6101.4375
2869.85393	6101.1375
2872.36264	6097.2375
2874.8698	6092.3375
2877.37543	6074.2375
2879.87952	6086.0375
2882.38207	6102.2375
2884.88308	6082.1375
2887.38256	6096.3375
2889.88051	6103.5375
2892.37692	6105.5375
2894.8718	6095.6375
2897.36515	6106.9375
2899.85698	6086.1375
2902.34727	6115.2375
2904.83604	6132.7375
2907.32328	6132.0375
2909.809	6147.7375
2912.29319	6127.1375
2914.77587	6135.5375
2917.25702	6159.6375
2919.73665	6153.1375
2922.21476	6172.0375
2924.69136	6163.4375
2927.16644	6143.7375
2929.64	6150.3375
2932.11205	6133.9375
2934.58258	6123.4375
2937.05161	6145.6375
2939.51912	6128.9375
2941.98513	6115.0375
2944.44962	6095.0375
2946.91261	6076.1375
2949.37409	6092.8375
2951.83407	6075.3375
2954.29254	6055.7375
2956.74951	6064.7375
2959.20498	6080.9375
2961.65895	6036.5375
2964.11142	6033.2375
2966.56239	6010.5375
2969.01186	6010.2375
2971.45984	5974.4375
2973.90632	5956.0375
2976.35131	5944.4375
2978.7948	5925.6375
2981.23681	5918.0375
2983.67732	5908.4375
2986.11635	5882.2375
2988.55388	5859.1375
2990.98993	5851.1375
2993.4245	5846.7375
2995.85758	5839.9375
2998.28917	5823.0375
3000.71928	5796.2375
3003.14791	5807.6375
3005.57506	5799.8375
3008.00073	5770.7375
3010.42493	5759.0375
3012.84764	5751.1375
3015.26888	5724.8375
3017.68865	5730.4375
3020.10694	5745.6375
3022.52376	5716.3375
3024.9391	5704.6375
3027.35298	5701.7375
3029.76539	5686.4375
3032.17632	5679.1375
3034.5858	5644.6375
3036.9938	5641.4375
3039.40034	5636.8375
3041.80542	5649.6375
3044.20903	5630.8375
3046.61118	5633.9375
3049.01187	5633.3375
3051.4111	5616.3375
3053.80888	5616.6375
3056.20519	5600.3375
3058.60005	5568.0375
3060.99345	5569.5375
3063.3854	5557.2375
3065.7759	5532.7375
3068.16494	5540.6375
3070.55254	5538.4375
3072.93868	5504.5375
3075.32338	5485.2375
3077.70662	5491.6375
3080.08842	5477.1375
3082.46878	5467.3375
3084.84769	5485.7375
3087.22515	5477.7375
3089.60118	5467.3375
3091.97576	5469.9375
3094.3489	5492.2375
3096.72061	5471.2375
3099.09087	5469.0375
3101.4597	5454.9375
3103.82709	5456.8375
3106.19305	5453.2375
3108.55757	5466.1375
3110.92066	5434.8375
3113.28232	5435.7375
3115.64255	5442.2375
3118.00134	5436.4375
3120.35871	5425.1375
3122.71466	5409.8375
3125.06917	5392.2375
3127.42226	5394.6375
3129.77393	5399.7375
3132.12417	5412.3375
3134.47299	5406.9375
3136.82039	5419.5375
3139.16636	5422.9375
3141.51092	5405.3375
3143.85406	5404.6375
3146.19579	5407.6375
3148.53609	5399.3375
3150.87499	5436.9375
3153.21246	5432.7375
3155.54853	5424.8375
3157.88318	5420.2375
3160.21642	5449.0375
3162.54826	5440.3375
3164.87868	5456.2375
3167.2077	5457.0375
3169.5353	5437.4375
3171.86151	5442.1375
3174.18631	5435.3375
3176.5097	5444.2375
3178.83169	5419.2375
3181.15228	5436.9375
3183.47147	5390.2375
3185.78926	5415.3375
3188.10565	5415.5375
3190.42065	5401.7375
3192.73424	5405.9375
3195.04645	5409.4375
3197.35725	5418.0375
3199.66667	5425.9375
3201.97469	5435.1375
3204.28132	5428.5375
3206.58656	5435.0375
3208.8904	5424.5375
3211.19287	5427.4375
3213.49394	5434.4375
3215.79363	5431.2375
3218.09193	5442.6375
3220.38884	5443.5375
3222.68438	5456.0375
3224.97853	5452.0375
3227.2713	5449.0375
3229.56269	5456.5375
3231.8527	5445.8375
3234.14133	5429.5375
3236.42858	5411.6375
3238.71446	5412.4375
3240.99896	5396.4375
3243.28209	5379.7375
3245.56384	5370.6375
3247.84423	5367.0375
3250.12324	5377.2375
3252.40088	5378.9375
3254.67715	5363.6375
3256.95205	5356.0375
3259.22558	5355.6375
3261.49775	5366.0375
3263.76855	5358.1375
3266.03799	5347.7375
3268.30606	5348.5375
3270.57277	5330.3375
3272.83812	5339.0375
3275.10211	5320.5375
3277.36474	5308.4375
3279.62601	5310.7375
3281.88593	5288.4375
3284.14448	5297.1375
3286.40168	5297.5375
3288.65753	5295.0375
3290.91202	5292.3375
3293.16516	5258.1375
3295.41695	5249.1375
3297.66738	5248.7375
3299.91647	5239.9375
3302.16421	5189.2375
3304.4106	5172.2375
3306.65564	5138.5375
3308.89933	5133.4375
3311.14169	5089.9375
3313.38269	5029.9375
3315.62236	5003.6375
3317.86068	4972.2375
3320.09766	4922.5375
3322.3333	4906.5375
3324.5676	4891.3375
3326.80056	4822.0375
3329.03219	4783.7375
3331.26248	4.2375
3333.49143	-0.8625
3335.71905	-1.0625
