Data from AgNPs_FTO_APTES_UA_50uM_CRN_50uM_R6G_10uM_NaF_0.1M_Addition_RamanShift__19__14-54-54-985.txt Node

Date: Mon Feb 21 14:54:54 GMT 2022
User: TCL
Spectrometer: QEP01345
Trigger mode: 4
Integration Time (sec): 7.000000E0
Scans to average: 10
Electric dark correction enabled: true
Nonlinearity correction enabled: false
Boxcar width: 0
XAxis mode: Raman Shifts
Number of Pixels in Spectrum: 1044
>>>>>Begin Spectral Data<<<<<
46.04893	0.4
50.45542	-1.1
54.85868	-1.2
59.25871	-1.7
63.6555	53.6
68.04907	60.1
72.43941	62.6
76.82654	64.7
81.21044	72.4
85.59113	71
89.96862	75.8
94.34289	79.7
98.71396	77.5
103.08183	82.7
107.4465	85.7
111.80798	82.7
116.16626	86.7
120.52136	90.1
124.87327	91.8
129.222	94.5
133.56755	95.5
137.90993	104.8
142.24913	112
146.58517	123.9
150.91804	137.7
155.24774	162.5
159.57429	197.2
163.89768	241.9
168.21792	322.5
172.53501	434.8
176.84895	601.2
181.15975	837.5
185.46741	1176.7
189.77193	1629.7
194.07331	2170.2
198.37157	2783.2
202.6667	3448
206.9587	4096
211.24758	4769.8
215.53334	5416.9
219.81599	6105
224.09553	6878.7
228.37195	7709.6
232.64527	8671.2
236.91549	9649.8
241.18261	10637.5
245.44663	11534.2
249.70755	12303.5
253.96539	12982.6
258.22014	13537.9
262.4718	13976
266.72039	14294.3
270.96589	14468.7
275.20832	14451.4
279.44768	14313.6
283.68397	14140.3
287.91719	13960.5
292.14735	13881.1
296.37445	13917.6
300.59849	14022.1
304.81948	14112
309.03742	14203.9
313.25231	14055.7
317.46415	13731.6
321.67296	13272.1
325.87872	12942.7
330.08145	12762.5
334.28114	12751.7
338.47781	12897.6
342.67145	13086.9
346.86207	13332.9
351.04966	13656.2
355.23424	14019.4
359.4158	14346.1
363.59435	14566.7
367.76989	14689.7
371.94243	14782.6
376.11196	14886.9
380.27849	14903.6
384.44203	14961.9
388.60257	15005.6
392.76012	15067.3
396.91468	15186.2
401.06626	15410.5
405.21485	15583.8
409.36047	15461.4
413.50311	15115.3
417.64277	14802.8
421.77947	14664.4
425.9132	14606.5
430.04396	14615.6
434.17176	14718.4
438.2966	14848.4
442.41849	15111.4
446.53742	15488.7
450.6534	15851.7
454.76644	16154.9
458.87653	16294.1
462.98368	16240.2
467.08789	16105.3
471.18916	15905.7
475.2875	15671.7
479.38291	15501.8
483.4754	15379.2
487.56496	15207
491.6516	15095.7
495.73531	15003
499.81612	15010.1
503.89401	15116
507.96899	15213.9
512.04106	15230.6
516.11023	15249.9
520.1765	15194.9
524.23987	15147.6
528.30034	15054.8
532.35792	15016
536.41261	14871.9
540.46441	14757.9
544.51333	14684.5
548.55936	14722.3
552.60252	14948.3
556.64279	15181.7
560.6802	15298.8
564.71473	15317.1
568.7464	15476.4
572.7752	15735.5
576.80114	15867.9
580.82422	15909.2
584.84444	16039.1
588.86181	16241.7
592.87633	16425.8
596.888	16600.5
600.89682	16764.2
604.9028	17495.4
608.90594	19615.6
612.90624	21914.6
616.90371	20667.8
620.89834	17024.3
624.89015	15450.2
628.87913	15266.5
632.86528	15328.8
636.84862	15318.6
640.82913	15127.3
644.80683	14719.6
648.78172	14408.6
652.75379	14350
656.72306	14586.4
660.68952	14898.8
664.65319	14834.6
668.61405	14562.4
672.57211	14544.7
676.52738	14634.9
680.47986	14667.1
684.42955	14550.7
688.37646	14420.9
692.32058	14401.6
696.26192	14468.4
700.20048	14567.8
704.13626	14635.1
708.06928	14583.2
711.99952	14457.4
715.927	14410.7
719.85171	14461.3
723.77365	14474.7
727.69284	14401.6
731.60928	14285.8
735.52295	14314.5
739.43388	14336.3
743.34206	14354.9
747.24749	14389
751.15017	14455.8
755.05012	14592.4
758.94733	14939.8
762.8418	15755.7
766.73354	17122.4
770.62254	18552.9
774.50882	19230.8
778.39237	18521.9
782.27321	17002.5
786.15132	15655.6
790.02671	14834.1
793.89938	14427.2
797.76935	14252.3
801.6366	14215.1
805.50115	14119.2
809.36299	14044.1
813.22213	13900.4
817.07857	13825
820.93231	13787.4
824.78336	13753.6
828.63172	13736.1
832.47738	13715.9
836.32036	13762.9
840.16066	13800.1
843.99827	13826.3
847.8332	13799.6
851.66546	13721
855.49504	13720.1
859.32195	13742.6
863.1462	13766.8
866.96777	13744.6
870.78668	13746.9
874.60293	13780.6
878.41652	13780.3
882.22745	13827.9
886.03573	13858.5
889.84136	13847.7
893.64433	13782.4
897.44466	13727.8
901.24235	13669.2
905.0374	13603.1
908.8298	13518.4
912.61957	13506.8
916.40671	13521
920.19121	13690.2
923.97308	13877.1
927.75233	13962.6
931.52895	13974.6
935.30295	13858.2
939.07433	13626.9
942.84309	13382
946.60924	13295.4
950.37278	13232.5
954.13371	13197.7
957.89203	13084.7
961.64774	13062.1
965.40086	13012.7
969.15137	12967.3
972.89929	12932
976.64461	12912
980.38733	12914.3
984.12747	12966.8
987.86502	13030
991.59999	13167.4
995.33237	13425.3
999.06217	13792
1002.78939	14197.2
1006.51404	14408.1
1010.23611	14544.1
1013.95561	14661.6
1017.67255	14676.3
1021.38692	14611.6
1025.09872	14449.1
1028.80796	14536.5
1032.51465	14870.4
1036.21877	15244.5
1039.92035	15309
1043.61937	15172.5
1047.31584	14826.4
1051.00976	14517.4
1054.70114	14336.1
1058.38998	14296.7
1062.07627	14343.1
1065.76003	14367.5
1069.44126	14403.3
1073.11995	14493.9
1076.79611	14622.8
1080.46974	14757
1084.14085	14929.7
1087.80943	15111.7
1091.47549	15204.1
1095.13903	15173.4
1098.80005	14944.1
1102.45857	14668.5
1106.11456	14560.9
1109.76805	14566.6
1113.41903	14673.2
1117.06751	14854.9
1120.71348	15077.9
1124.35696	15304
1127.99793	15544.9
1131.63641	15659.6
1135.2724	15519.9
1138.90589	15297.7
1142.5369	15123.5
1146.16542	14950.1
1149.79145	14860.2
1153.415	14876.9
1157.03607	15019.4
1160.65467	15333.9
1164.27079	15853.1
1167.88443	16577.8
1171.49561	17596.8
1175.10432	18893.8
1178.71056	20635.6
1182.31434	22251
1185.91565	23097.6
1189.51451	22950.5
1193.11091	22074.4
1196.70485	20963
1200.29634	19939.9
1203.88538	19092.4
1207.47197	18331.9
1211.05612	17621.2
1214.63782	17181.4
1218.21708	17027.1
1221.79391	17055.5
1225.36829	17135.5
1228.94024	17059.3
1232.50976	16810.8
1236.07685	16582.1
1239.6415	16400.9
1243.20374	16383.1
1246.76355	16497.2
1250.32093	16717.3
1253.8759	17010.4
1257.42845	17384.5
1260.97859	17866.3
1264.52631	18346.7
1268.07163	18841
1271.61453	19456.9
1275.15503	19999.1
1278.69312	20553.2
1282.22882	20978.2
1285.76211	21328.8
1289.29301	21677
1292.82151	22209.6
1296.34761	22968.4
1299.87133	24074.5
1303.39266	25562.8
1306.9116	27456.4
1310.42815	29396.9
1313.94233	30567.4
1317.45412	30313.2
1320.96354	29314.9
1324.47058	28041.4
1327.97525	26917.6
1331.47754	26170.6
1334.97747	25758.1
1338.47502	25712.8
1341.97022	25849.3
1345.46305	26076.8
1348.95352	26441.8
1352.44163	27068.3
1355.92738	28227.6
1359.41078	30109.3
1362.89183	31738.7
1366.37053	31061.1
1369.84688	27930.6
1373.32088	24508.8
1376.79254	22188.2
1380.26186	21024
1383.72883	20548.7
1387.19347	20174.8
1390.65578	19757.3
1394.11575	19537.2
1397.57339	19541.7
1401.0287	19767.3
1404.48168	19973.2
1407.93234	20093.6
1411.38068	20023.9
1414.82669	19732.4
1418.27039	19259.3
1421.71177	18854
1425.15083	18387
1428.58758	18118.3
1432.02203	18126.8
1435.45416	18381.2
1438.88399	18723.5
1442.31151	18971.3
1445.73673	19166
1449.15965	19358.9
1452.58027	19465.3
1455.9986	19546.8
1459.41463	19695.8
1462.82837	19970
1466.23982	20361.4
1469.64898	20744.8
1473.05586	21013.4
1476.46045	21106.5
1479.86276	21166
1483.26279	21068.5
1486.66054	21104.9
1490.05602	21239.7
1493.44922	21540
1496.84016	22080.9
1500.22882	22944.1
1503.61521	24243.8
1506.99934	25784.7
1510.38121	27017.6
1513.76081	27253
1517.13816	26205.3
1520.51324	24463.6
1523.88607	22828.3
1527.25665	21747.8
1530.62498	21135.2
1533.99105	20806.8
1537.35488	20522.5
1540.71647	20275.9
1544.07581	20019
1547.4329	19761
1550.78776	19587.1
1554.14038	19519.8
1557.49077	19523.4
1560.83892	19629.9
1564.18484	19792.6
1567.52853	19976.6
1570.86999	20153.9
1574.20922	20366.4
1577.54624	20414.5
1580.88103	20019.1
1584.2136	19561.9
1587.54395	19539.7
1590.87208	20151.8
1594.19801	21243.9
1597.52172	22557.6
1600.84321	23147.7
1604.16251	22419.3
1607.47959	21069.1
1610.79447	19596.3
1614.10715	18167.3
1617.41763	17044.3
1620.7259	16199.4
1624.03199	15713.9
1627.33587	15685.2
1630.63757	16060.7
1633.93707	16882.7
1637.23439	18119.8
1640.52951	19914.5
1643.82246	22026.9
1647.11321	23848.1
1650.40179	24473.5
1653.68819	23233.8
1656.97241	20582
1660.25446	17844.9
1663.53433	15835.6
1666.81203	14591.5
1670.08756	13815.8
1673.36092	13383.1
1676.63211	13015.4
1679.90115	12781.8
1683.16801	12613.9
1686.43272	12485.7
1689.69527	12362.8
1692.95567	12227.9
1696.2139	12079.3
1699.46999	11922
1702.72392	11902.6
1705.97571	11924
1709.22535	12005.1
1712.47284	12058.4
1715.71819	12062.7
1718.96139	12017.4
1722.20246	11994.5
1725.44139	11944.6
1728.67818	11888.2
1731.91284	11827.4
1735.14537	11750.5
1738.37576	11741.7
1741.60403	11695.1
1744.83017	11665.4
1748.05418	11593.9
1751.27607	11593.1
1754.49584	11553
1757.71349	11486
1760.92903	11418
1764.14244	11416.7
1767.35375	11389.3
1770.56294	11316.7
1773.77002	11319.5
1776.97499	11348.2
1780.17785	11392.8
1783.37861	11377.9
1786.57727	11372.8
1789.77382	11377.5
1792.96828	11342.7
1796.16064	11319.1
1799.3509	11306.5
1802.53907	11285.4
1805.72514	11266.8
1808.90913	11258.4
1812.09102	11228
1815.27083	11210.6
1818.44856	11202.6
1821.6242	11154.9
1824.79776	11148.7
1827.96924	11153
1831.13864	11160.2
1834.30597	11120
1837.47122	11134.6
1840.6344	11130.3
1843.7955	11145
1846.95454	11145.3
1850.11151	11143.8
1853.26642	11124.8
1856.41926	11104.6
1859.57004	11105.8
1862.71876	11070.7
1865.86542	11084.6
1869.01003	11070.2
1872.15258	11073.9
1875.29308	11074.4
1878.43152	11061
1881.56792	11047.6
1884.70227	11051.7
1887.83457	11023.9
1890.96482	11008.4
1894.09304	10985.3
1897.21921	10998.1
1900.34335	10990.9
1903.46544	10947.1
1906.58551	10963.3
1909.70353	10945.2
1912.81953	10956
1915.93349	10945
1919.04543	10892.8
1922.15534	10893.2
1925.26322	10845.5
1928.36908	10821.9
1931.47292	10793.2
1934.57473	10764.4
1937.67453	10760.8
1940.77232	10736.7
1943.86808	10697.5
1946.96184	10661
1950.05358	10636.3
1953.14331	10613.3
1956.23103	10581
1959.31675	10556.8
1962.40046	10518.1
1965.48217	10485.6
1968.56188	10485.6
1971.63959	10465.4
1974.7153	10427.3
1977.78901	10395.9
1980.86073	10378.3
1983.93046	10298.8
1986.99819	10285.8
1990.06394	10270.9
1993.1277	10264.9
1996.18947	10192.2
1999.24925	10172
2002.30706	10144.8
2005.36288	10122.2
2008.41672	10092.1
2011.46859	10061.1
2014.51848	10033.1
2017.56639	10021.8
2020.61233	9984.6
2023.6563	9972
2026.6983	9959
2029.73833	9922
2032.7764	9901.8
2035.8125	9885.9
2038.84664	9882.3
2041.87881	9852.9
2044.90903	9866.2
2047.93729	9845
2050.96359	9868.9
2053.98794	9828.9
2057.01034	9818.9
2060.03078	9822
2063.04927	9790.7
2066.06582	9791.8
2069.08042	9788.3
2072.09307	9760.1
2075.10378	9765
2078.11255	9758.9
2081.11938	9763.3
2084.12426	9745.8
2087.12722	9753.6
2090.12824	9734.2
2093.12732	9725.1
2096.12447	9751.6
2099.11969	9743.5
2102.11299	9742
2105.10435	9766.6
2108.09379	9727.4
2111.08131	9754
2114.0669	9762.4
2117.05057	9737.3
2120.03233	9765.1
2123.01216	9809.3
2125.99008	9819.9
2128.96609	9823.6
2131.94018	9832.4
2134.91236	9840
2137.88263	9827.5
2140.851	9836.3
2143.81746	9856.2
2146.78201	9859.2
2149.74466	9861.2
2152.7054	9856
2155.66425	9853.1
2158.6212	9835.5
2161.57625	9852.9
2164.52941	9835
2167.48067	9833.6
2170.43004	9802.1
2173.37752	9849.4
2176.32311	9828.8
2179.26681	9828.3
2182.20863	9850.6
2185.14856	9850.8
2188.08661	9855.9
2191.02278	9872.5
2193.95707	9834.8
2196.88948	9828.4
2199.82001	9834.1
2202.74867	9820.3
2205.67545	9850.1
2208.60037	9821.9
2211.52341	9793.9
2214.44458	9802.3
2217.36388	9794.7
2220.28132	9776.9
2223.1969	9765.9
2226.11061	9760.5
2229.02246	9732.2
2231.93245	9722.9
2234.84058	9689.3
2237.74686	9652.5
2240.65128	9658.6
2243.55385	9656.4
2246.45456	9667.3
2249.35343	9641.7
2252.25044	9633.9
2255.14561	9601.1
2258.03893	9575.6
2260.93041	9582.8
2263.82004	9565.7
2266.70783	9545.6
2269.59378	9545.2
2272.4779	9512.7
2275.36017	9479.4
2278.24061	9481.6
2281.11922	9435.3
2283.996	9410.1
2286.87094	9429.2
2289.74405	9423.1
2292.61534	9413.6
2295.4848	9389.7
2298.35243	9415.2
2301.21824	9382.1
2304.08223	9409.3
2306.94439	9390
2309.80474	9418.8
2312.66327	9439.8
2315.51999	9426.3
2318.37489	9397.5
2321.22797	9398.1
2324.07925	9406.6
2326.92871	9401.1
2329.77637	9393.5
2332.62222	9361.1
2335.46626	9375.7
2338.3085	9357.1
2341.14893	9366.6
2343.98756	9376.4
2346.8244	9340.5
2349.65943	9384.7
2352.49267	9380.4
2355.32411	9378.1
2358.15376	9380.4
2360.98161	9386
2363.80768	9335.6
2366.63195	9325.8
2369.45444	9326.4
2372.27514	9313.6
2375.09405	9321.4
2377.91118	9305.6
2380.72652	9272.3
2383.54009	9248.4
2386.35187	9217.8
2389.16188	9159.5
2391.97011	9196
2394.77657	9174.3
2397.58125	9154.3
2400.38416	9139.5
2403.18529	9145.2
2405.98466	9127.4
2408.78226	9091.2
2411.57809	9085.6
2414.37216	9079.3
2417.16446	9052.8
2419.955	9041
2422.74378	9052.6
2425.5308	9040.4
2428.31606	9028.3
2431.09956	9045.1
2433.88131	9060
2436.6613	9044
2439.43954	9034
2442.21603	9038
2444.99077	9026.9
2447.76377	9050.5
2450.53501	9042.5
2453.30451	9040
2456.07226	9015.9
2458.83827	9002.3
2461.60254	8997.6
2464.36507	9041.2
2467.12586	9018.3
2469.88492	8995.7
2472.64224	9017.5
2475.39782	9011.8
2478.15167	9011.2
2480.90379	9022.6
2483.65417	9036.5
2486.40283	9034.7
2489.14976	9056.3
2491.89497	9042.4
2494.63845	9035.9
2497.3802	9030.2
2500.12024	9036.7
2502.85855	9049.3
2505.59514	9021.6
2508.33002	9014.7
2511.06318	9005.2
2513.79462	8967.6
2516.52435	8967.1
2519.25237	8982.4
2521.97867	8946.7
2524.70327	8930.1
2527.42616	8940.6
2530.14734	8945.6
2532.86681	8928.1
2535.58458	8936.2
2538.30065	8945.4
2541.01501	8939.7
2543.72768	8920.6
2546.43864	8901.9
2549.14791	8906.4
2551.85548	8878.5
2554.56136	8877.1
2557.26554	8857.3
2559.96803	8857.1
2562.66883	8848.2
2565.36794	8832.4
2568.06536	8867.5
2570.7611	8835.6
2573.45514	8819.4
2576.14751	8831.5
2578.83819	8802.8
2581.52719	8802.3
2584.21451	8816.5
2586.90015	8787.6
2589.58411	8770.2
2592.2664	8760
2594.94701	8764.7
2597.62594	8762.2
2600.30321	8763.8
2602.9788	8780.5
2605.65273	8756.8
2608.32498	8764.7
2610.99557	8758.3
2613.66449	8747.7
2616.33175	8743.3
2618.99734	8785.1
2621.66128	8772.1
2624.32355	8763.7
2626.98416	8749.1
2629.64311	8758.7
2632.30041	8757.6
2634.95605	8730.1
2637.61004	8726.7
2640.26238	8731.2
2642.91306	8706.5
2645.56209	8683.1
2648.20948	8691.3
2650.85521	8677.6
2653.4993	8692.2
2656.14175	8672.2
2658.78255	8664.8
2661.42171	8646.6
2664.05923	8697.3
2666.6951	8710.2
2669.32934	8740.1
2671.96194	8716.6
2674.59291	8725.2
2677.22224	8726.7
2679.84993	8699.4
2682.476	8700.4
2685.10043	8694.3
2687.72324	8672.6
2690.34441	8677.6
2692.96396	8673.1
2695.58188	8673.8
2698.19818	8649.9
2700.81285	8644.5
2703.4259	8617.1
2706.03733	8579.7
2708.64714	8616.3
2711.25533	8627.5
2713.86191	8655.7
2716.46687	8685.2
2719.07021	8666
2721.67194	8718.9
2724.27206	8689.6
2726.87057	8703.1
2729.46747	8708.3
2732.06276	8701.4
2734.65644	8684.7
2737.24852	8673.2
2739.83899	8688.1
2742.42786	8672.9
2745.01513	8680.1
2747.60079	8671.2
2750.18486	8671.7
2752.76733	8673.9
2755.3482	8654.8
2757.92747	8658.5
2760.50515	8648
2763.08123	8660.2
2765.65573	8629.1
2768.22863	8606.8
2770.79994	8615.3
2773.36967	8615.5
2775.9378	8577.7
2778.50435	8609.3
2781.06932	8618.2
2783.6327	8655.4
2786.1945	8624.7
2788.75471	8629.6
2791.31335	8592.1
2793.87041	8583.5
2796.42589	8549.6
2798.97979	8556
2801.53212	8554.3
2804.08288	8538.2
2806.63206	8505
2809.17967	8494.6
2811.72571	8489.3
2814.27018	8468.7
2816.81308	8472
2819.35442	8479.7
2821.89419	8478.3
2824.43239	8481.9
2826.96904	8490.7
2829.50412	8472.2
2832.03763	8441.1
2834.56959	8458.3
2837.1	8434.3
2839.62884	8459.3
2842.15613	8433.4
2844.68186	8405.5
2847.20604	8437.7
2849.72867	8428.2
2852.24974	8430.2
2854.76927	8402
2857.28724	8377.3
2859.80367	8380.4
2862.31855	8384.4
2864.83189	8374.6
2867.34368	8384.3
2869.85393	8364.2
2872.36264	8399.1
2874.8698	8401.8
2877.37543	8377.5
2879.87952	8392.7
2882.38207	8389.5
2884.88308	8401
2887.38256	8408.4
2889.88051	8398.1
2892.37692	8424.5
2894.8718	8418
2897.36515	8428.3
2899.85698	8426.1
2902.34727	8466.3
2904.83604	8452.8
2907.32328	8471.1
2909.809	8467.5
2912.29319	8479.7
2914.77587	8522.2
2917.25702	8480.6
2919.73665	8494.4
2922.21476	8504.8
2924.69136	8489.3
2927.16644	8493.3
2929.64	8471.1
2932.11205	8458.1
2934.58258	8433.5
2937.05161	8432.1
2939.51912	8442
2941.98513	8450.7
2944.44962	8428.5
2946.91261	8398.1
2949.37409	8404.6
2951.83407	8407.7
2954.29254	8399.9
2956.74951	8387.7
2959.20498	8382
2961.65895	8359
2964.11142	8355.7
2966.56239	8348
2969.01186	8342.2
2971.45984	8327.5
2973.90632	8303.3
2976.35131	8293.5
2978.7948	8264.8
2981.23681	8248.4
2983.67732	8262
2986.11635	8234.8
2988.55388	8191.4
2990.98993	8213.7
2993.4245	8198.3
2995.85758	8178.8
2998.28917	8167.5
3000.71928	8165.9
3003.14791	8139.1
3005.57506	8139.3
3008.00073	8116.4
3010.42493	8086.1
3012.84764	8085.5
3015.26888	8105.8
3017.68865	8069.8
3020.10694	8046
3022.52376	8053.4
3024.9391	8050.7
3027.35298	8050.8
3029.76539	8011.9
3032.17632	8014.9
3034.5858	8025.8
3036.9938	7988.7
3039.40034	7981.5
3041.80542	7997.7
3044.20903	7975.8
3046.61118	7977.3
3049.01187	7974.1
3051.4111	7960.9
3053.80888	7944.8
3056.20519	7919.7
3058.60005	7904.1
3060.99345	7925.8
3063.3854	7899.6
3065.7759	7905.5
3068.16494	7878.7
3070.55254	7851.5
3072.93868	7822.7
3075.32338	7808.4
3077.70662	7783.6
3080.08842	7791.9
3082.46878	7748.1
3084.84769	7751.8
3087.22515	7763.9
3089.60118	7750.9
3091.97576	7778.8
3094.3489	7770.6
3096.72061	7768
3099.09087	7762.5
3101.4597	7757.6
3103.82709	7770.2
3106.19305	7756.9
3108.55757	7784.4
3110.92066	7751.8
3113.28232	7746.4
3115.64255	7740.4
3118.00134	7706.3
3120.35871	7734.7
3122.71466	7706.1
3125.06917	7706.3
3127.42226	7711.6
3129.77393	7707.8
3132.12417	7684.9
3134.47299	7684.7
3136.82039	7697.8
3139.16636	7676.8
3141.51092	7679.1
3143.85406	7693
3146.19579	7681.6
3148.53609	7700.5
3150.87499	7678.3
3153.21246	7719.8
3155.54853	7739.8
3157.88318	7715.2
3160.21642	7730.5
3162.54826	7738.3
3164.87868	7737
3167.2077	7739.3
3169.5353	7738.7
3171.86151	7735.9
3174.18631	7747.8
3176.5097	7738.8
3178.83169	7726.6
3181.15228	7740.1
3183.47147	7709.4
3185.78926	7746.2
3188.10565	7741.8
3190.42065	7742.8
3192.73424	7741
3195.04645	7726.3
3197.35725	7745.6
3199.66667	7719.8
3201.97469	7713.6
3204.28132	7712.2
3206.58656	7708.3
3208.8904	7737.1
3211.19287	7729.5
3213.49394	7758.5
3215.79363	7754.3
3218.09193	7773.8
3220.38884	7744.9
3222.68438	7745.1
3224.97853	7736.8
3227.2713	7739.7
3229.56269	7724.5
3231.8527	7724.7
3234.14133	7728.9
3236.42858	7736
3238.71446	7706.4
3240.99896	7700.1
3243.28209	7682.9
3245.56384	7678.6
3247.84423	7689.7
3250.12324	7682
3252.40088	7678.6
3254.67715	7701.4
3256.95205	7692
3259.22558	7675.8
3261.49775	7677
3263.76855	7684.1
3266.03799	7673.1
3268.30606	7666.3
3270.57277	7652.7
3272.83812	7626.1
3275.10211	7637
3277.36474	7603.5
3279.62601	7621.7
3281.88593	7603.8
3284.14448	7607.4
3286.40168	7611.9
3288.65753	7591.3
3290.91202	7600.7
3293.16516	7597.4
3295.41695	7594.5
3297.66738	7541
3299.91647	7499.2
3302.16421	7464.6
3304.4106	7433.9
3306.65564	7400.4
3308.89933	7348.9
3311.14169	7296.2
3313.38269	7247.9
3315.62236	7188.2
3317.86068	7111
3320.09766	7065.7
3322.3333	7035.1
3324.5676	7026.7
3326.80056	6880.8
3329.03219	6831.1
3331.26248	2.6
3333.49143	-0
3335.71905	0.7
