Data from AgNPs_FTO_APTES_UA_50uM_CRN_5uM_R6G_10uM_NaF_0.1M_Addition_RamanShift__31__13-08-44-850.txt Node

Date: Mon Feb 21 13:08:44 GMT 2022
User: TCL
Spectrometer: QEP01345
Trigger mode: 4
Integration Time (sec): 7.000000E0
Scans to average: 10
Electric dark correction enabled: true
Nonlinearity correction enabled: false
Boxcar width: 0
XAxis mode: Raman Shifts
Number of Pixels in Spectrum: 1044
>>>>>Begin Spectral Data<<<<<
46.04893	0.9125
50.45542	-0.7875
54.85868	0.1125
59.25871	-1.2875
63.6555	44.7125
68.04907	47.7125
72.43941	53.9125
76.82654	54.6125
81.21044	56.6125
85.59113	58.4125
89.96862	62.1125
94.34289	66.1125
98.71396	63.2125
103.08183	68.2125
107.4465	71.1125
111.80798	70.0125
116.16626	69.1125
120.52136	71.8125
124.87327	79.3125
129.222	75.7125
133.56755	76.4125
137.90993	87.3125
142.24913	95.2125
146.58517	103.1125
150.91804	117.2125
155.24774	136.4125
159.57429	161.8125
163.89768	213.7125
168.21792	277.0125
172.53501	371.8125
176.84895	516.0125
181.15975	719.9125
185.46741	1008.5125
189.77193	1409.6125
194.07331	1872.7125
198.37157	2422.6125
202.6667	3004.7125
206.9587	3601.9125
211.24758	4229.3125
215.53334	4900.9125
219.81599	5687.9125
224.09553	6607.1125
228.37195	7650.6125
232.64527	8747.4125
236.91549	9817.0125
241.18261	10691.9125
245.44663	11306.7125
249.70755	11736.6125
253.96539	12003.1125
258.22014	12167.2125
262.4718	12247.3125
266.72039	12204.7125
270.96589	12058.8125
275.20832	11721.3125
279.44768	11255.0125
283.68397	10840.9125
287.91719	10697.9125
292.14735	10862.5125
296.37445	11524.5125
300.59849	12663.9125
304.81948	14034.9125
309.03742	15092.7125
313.25231	15281.9125
317.46415	14079.2125
321.67296	12111.0125
325.87872	10514.5125
330.08145	9809.7125
334.28114	9818.6125
338.47781	10189.7125
342.67145	10741.7125
346.86207	11660.9125
351.04966	13110.0125
355.23424	14740.4125
359.4158	15933.2125
363.59435	16314.3125
367.76989	16235.2125
371.94243	15870.0125
376.11196	15470.5125
380.27849	15068.5125
384.44203	14556.8125
388.60257	13979.9125
392.76012	13576.7125
396.91468	13565.8125
401.06626	14036.6125
405.21485	14334.5125
409.36047	13636.3125
413.50311	12111.3125
417.64277	10641.1125
421.77947	9739.3125
425.9132	9304.4125
430.04396	9122.7125
434.17176	9144.8125
438.2966	9406.7125
442.41849	9823.2125
446.53742	10298.4125
450.6534	10674.3125
454.76644	10796.4125
458.87653	10619.6125
462.98368	10404.6125
467.08789	10065.0125
471.18916	9626.4125
475.2875	9152.3125
479.38291	8752.1125
483.4754	8480.8125
487.56496	8320.7125
491.6516	8244.2125
495.73531	8230.6125
499.81612	8357.4125
503.89401	8607.6125
507.96899	8964.1125
512.04106	9435.5125
516.11023	9974.1125
520.1765	10327.8125
524.23987	10291.2125
528.30034	9924.1125
532.35792	9521.9125
536.41261	9076.7125
540.46441	8584.9125
544.51333	8270.8125
548.55936	8289.0125
552.60252	8594.0125
556.64279	9034.2125
560.6802	9282.3125
564.71473	9818.5125
568.7464	10926.8125
572.7752	11332.9125
576.80114	10158.2125
580.82422	8923.8125
584.84444	8401.5125
588.86181	8237.4125
592.87633	8248.5125
596.888	8493.2125
600.89682	9348.3125
604.9028	12305.2125
608.90594	20416.7125
612.90624	31195.8125
616.90371	29363.7125
620.89834	16303.9125
624.89015	10222.6125
628.87913	9138.5125
632.86528	9492.6125
636.84862	9996.8125
640.82913	9598.8125
644.80683	8499.4125
648.78172	7746.7125
652.75379	7815.0125
656.72306	8754.9125
660.68952	9851.9125
664.65319	9401.7125
668.61405	8130.4125
672.57211	7533.1125
676.52738	7495.2125
680.47986	7464.5125
684.42955	7271.0125
688.37646	7147.8125
692.32058	7204.3125
696.26192	7338.6125
700.20048	7569.4125
704.13626	7690.7125
708.06928	7608.4125
711.99952	7449.7125
715.927	7449.1125
719.85171	7595.9125
723.77365	7724.6125
727.69284	7603.5125
731.60928	7438.1125
735.52295	7403.6125
739.43388	7452.5125
743.34206	7501.0125
747.24749	7532.4125
751.15017	7587.8125
755.05012	7909.0125
758.94733	8983.8125
762.8418	11754.0125
766.73354	16134.8125
770.62254	20199.0125
774.50882	22619.4125
778.39237	21993.4125
782.27321	17407.7125
786.15132	12392.8125
790.02671	9524.0125
793.89938	8326.8125
797.76935	7838.6125
801.6366	7639.6125
805.50115	7519.0125
809.36299	7469.9125
813.22213	7404.2125
817.07857	7362.6125
820.93231	7320.2125
824.78336	7379.7125
828.63172	7483.3125
832.47738	7518.8125
836.32036	7421.2125
840.16066	7240.8125
843.99827	7122.2125
847.8332	7071.6125
851.66546	7069.1125
855.49504	7104.8125
859.32195	7080.1125
863.1462	6977.8125
866.96777	6928.1125
870.78668	6940.4125
874.60293	6993.4125
878.41652	7102.1125
882.22745	7279.8125
886.03573	7374.7125
889.84136	7366.2125
893.64433	7306.2125
897.44466	7332.4125
901.24235	7324.1125
905.0374	7215.5125
908.8298	7011.7125
912.61957	6884.6125
916.40671	6827.1125
920.19121	6892.6125
923.97308	7047.8125
927.75233	7412.7125
931.52895	7760.2125
935.30295	7604.0125
939.07433	7024.3125
942.84309	6558.8125
946.60924	6286.5125
950.37278	6158.4125
954.13371	6148.0125
957.89203	6099.3125
961.64774	6081.5125
965.40086	6071.7125
969.15137	6046.0125
972.89929	6012.9125
976.64461	6017.6125
980.38733	6028.8125
984.12747	6044.3125
987.86502	6062.7125
991.59999	6125.2125
995.33237	6232.1125
999.06217	6435.4125
1002.78939	6661.6125
1006.51404	6981.2125
1010.23611	7291.9125
1013.95561	7405.5125
1017.67255	7316.6125
1021.38692	7153.3125
1025.09872	6925.3125
1028.80796	6763.9125
1032.51465	6784.6125
1036.21877	6933.1125
1039.92035	7120.2125
1043.61937	7206.0125
1047.31584	7237.2125
1051.00976	7165.2125
1054.70114	7061.8125
1058.38998	6993.3125
1062.07627	6986.6125
1065.76003	6998.8125
1069.44126	7064.7125
1073.11995	7270.0125
1076.79611	7619.1125
1080.46974	8196.8125
1084.14085	8933.9125
1087.80943	9533.3125
1091.47549	9622.4125
1095.13903	9118.4125
1098.80005	8348.4125
1102.45857	7835.0125
1106.11456	7775.3125
1109.76805	8079.6125
1113.41903	8749.5125
1117.06751	9832.2125
1120.71348	11241.9125
1124.35696	12908.9125
1127.99793	13852.6125
1131.63641	12994.6125
1135.2724	11159.1125
1138.90589	9733.9125
1142.5369	8915.5125
1146.16542	8342.6125
1149.79145	8014.8125
1153.415	7925.5125
1157.03607	8043.9125
1160.65467	8360.3125
1164.27079	8966.2125
1167.88443	9934.6125
1171.49561	11583.2125
1175.10432	14438.6125
1178.71056	18296.6125
1182.31434	21230.1125
1185.91565	21630.6125
1189.51451	20080.7125
1193.11091	17746.7125
1196.70485	15464.8125
1200.29634	14008.9125
1203.88538	12822.2125
1207.47197	11168.7125
1211.05612	9710.7125
1214.63782	8869.9125
1218.21708	8450.9125
1221.79391	8307.2125
1225.36829	8298.2125
1228.94024	8321.3125
1232.50976	8325.8125
1236.07685	8374.6125
1239.6415	8465.7125
1243.20374	8606.1125
1246.76355	8704.9125
1250.32093	8882.9125
1253.8759	9211.4125
1257.42845	9719.4125
1260.97859	10421.6125
1264.52631	11189.6125
1268.07163	11917.9125
1271.61453	12428.6125
1275.15503	12668.1125
1278.69312	12641.3125
1282.22882	12838.4125
1285.76211	13534.3125
1289.29301	14417.9125
1292.82151	15290.6125
1296.34761	16289.7125
1299.87133	18024.3125
1303.39266	21273.0125
1306.9116	26289.8125
1310.42815	31078.7125
1313.94233	32036.2125
1317.45412	28526.2125
1320.96354	23600.2125
1324.47058	19282.4125
1327.97525	16185.6125
1331.47754	14576.4125
1334.97747	14160.4125
1338.47502	14687.0125
1341.97022	16114.0125
1345.46305	18662.0125
1348.95352	21900.1125
1352.44163	25929.5125
1355.92738	31851.4125
1359.41078	40297.5125
1362.89183	45764.0125
1366.37053	41232.8125
1369.84688	31455.3125
1373.32088	23557.7125
1376.79254	18754.4125
1380.26186	15978.7125
1383.72883	14115.5125
1387.19347	12668.1125
1390.65578	11331.7125
1394.11575	10455.3125
1397.57339	9969.5125
1401.0287	9858.8125
1404.48168	9814.0125
1407.93234	9897.0125
1411.38068	10117.1125
1414.82669	10326.7125
1418.27039	10440.6125
1421.71177	10305.8125
1425.15083	10148.5125
1428.58758	10224.8125
1432.02203	10501.3125
1435.45416	10616.5125
1438.88399	10524.5125
1442.31151	10445.5125
1445.73673	10509.4125
1449.15965	10569.1125
1452.58027	10460.9125
1455.9986	10243.2125
1459.41463	10218.9125
1462.82837	10484.6125
1466.23982	11006.4125
1469.64898	11398.6125
1473.05586	11570.3125
1476.46045	11698.5125
1479.86276	12060.4125
1483.26279	12628.0125
1486.66054	13551.4125
1490.05602	14863.9125
1493.44922	16876.4125
1496.84016	20172.6125
1500.22882	25305.9125
1503.61521	32317.7125
1506.99934	39946.0125
1510.38121	45238.4125
1513.76081	45015.1125
1517.13816	38776.3125
1520.51324	29967.5125
1523.88607	22704.3125
1527.25665	18297.7125
1530.62498	15939.4125
1533.99105	14572.1125
1537.35488	13738.7125
1540.71647	13362.7125
1544.07581	13348.1125
1547.4329	13602.4125
1550.78776	13873.4125
1554.14038	14072.1125
1557.49077	14275.9125
1560.83892	14772.8125
1564.18484	15896.8125
1567.52853	17354.3125
1570.86999	18573.7125
1574.20922	19114.9125
1577.54624	18586.0125
1580.88103	16337.9125
1584.2136	13625.5125
1587.54395	12021.9125
1590.87208	11824.9125
1594.19801	12782.2125
1597.52172	14206.6125
1600.84321	14706.5125
1604.16251	13885.3125
1607.47959	12610.2125
1610.79447	11269.5125
1614.10715	10006.0125
1617.41763	9078.9125
1620.7259	8567.6125
1624.03199	8419.6125
1627.33587	8547.4125
1630.63757	8988.2125
1633.93707	9792.0125
1637.23439	11245.6125
1640.52951	13696.3125
1643.82246	17544.0125
1647.11321	22283.8125
1650.40179	25305.1125
1653.68819	23810.1125
1656.97241	18713.7125
1660.25446	13747.6125
1663.53433	10461.7125
1666.81203	8695.4125
1670.08756	7698.1125
1673.36092	7138.8125
1676.63211	6788.0125
1679.90115	6530.8125
1683.16801	6346.0125
1686.43272	6203.1125
1689.69527	6080.8125
1692.95567	5956.2125
1696.2139	5843.6125
1699.46999	5720.2125
1702.72392	5700.8125
1705.97571	5780.2125
1709.22535	5874.0125
1712.47284	5926.8125
1715.71819	5963.5125
1718.96139	5946.9125
1722.20246	5910.7125
1725.44139	5821.9125
1728.67818	5723.3125
1731.91284	5629.6125
1735.14537	5524.4125
1738.37576	5482.3125
1741.60403	5420.2125
1744.83017	5377.7125
1748.05418	5333.7125
1751.27607	5271.8125
1754.49584	5206.7125
1757.71349	5128.4125
1760.92903	5071.6125
1764.14244	5018.7125
1767.35375	5016.9125
1770.56294	4950.0125
1773.77002	4935.6125
1776.97499	4936.7125
1780.17785	4949.4125
1783.37861	4957.3125
1786.57727	4947.4125
1789.77382	4933.9125
1792.96828	4946.5125
1796.16064	4933.0125
1799.3509	4913.2125
1802.53907	4903.7125
1805.72514	4880.2125
1808.90913	4847.3125
1812.09102	4842.2125
1815.27083	4796.0125
1818.44856	4779.4125
1821.6242	4751.3125
1824.79776	4738.0125
1827.96924	4740.6125
1831.13864	4734.0125
1834.30597	4700.4125
1837.47122	4693.3125
1840.6344	4679.5125
1843.7955	4685.1125
1846.95454	4670.4125
1850.11151	4650.6125
1853.26642	4626.9125
1856.41926	4654.9125
1859.57004	4661.0125
1862.71876	4657.2125
1865.86542	4655.1125
1869.01003	4660.4125
1872.15258	4659.8125
1875.29308	4649.1125
1878.43152	4674.2125
1881.56792	4663.8125
1884.70227	4653.9125
1887.83457	4648.5125
1890.96482	4658.3125
1894.09304	4640.5125
1897.21921	4649.3125
1900.34335	4659.0125
1903.46544	4658.2125
1906.58551	4664.7125
1909.70353	4668.7125
1912.81953	4683.5125
1915.93349	4671.7125
1919.04543	4660.3125
1922.15534	4638.7125
1925.26322	4614.2125
1928.36908	4599.0125
1931.47292	4535.4125
1934.57473	4498.0125
1937.67453	4493.8125
1940.77232	4462.0125
1943.86808	4429.8125
1946.96184	4433.4125
1950.05358	4402.4125
1953.14331	4394.3125
1956.23103	4364.8125
1959.31675	4353.1125
1962.40046	4353.8125
1965.48217	4360.3125
1968.56188	4357.0125
1971.63959	4366.4125
1974.7153	4345.7125
1977.78901	4339.9125
1980.86073	4287.0125
1983.93046	4266.5125
1986.99819	4232.2125
1990.06394	4211.0125
1993.1277	4188.9125
1996.18947	4165.3125
1999.24925	4156.4125
2002.30706	4134.0125
2005.36288	4112.5125
2008.41672	4078.5125
2011.46859	4077.1125
2014.51848	4072.5125
2017.56639	4051.1125
2020.61233	4048.8125
2023.6563	4020.3125
2026.6983	3995.5125
2029.73833	3998.2125
2032.7764	3992.5125
2035.8125	3968.2125
2038.84664	3977.5125
2041.87881	3968.7125
2044.90903	3963.9125
2047.93729	3959.6125
2050.96359	3934.9125
2053.98794	3942.4125
2057.01034	3919.7125
2060.03078	3901.0125
2063.04927	3911.5125
2066.06582	3901.0125
2069.08042	3900.1125
2072.09307	3871.8125
2075.10378	3880.3125
2078.11255	3890.8125
2081.11938	3894.0125
2084.12426	3887.9125
2087.12722	3875.7125
2090.12824	3876.9125
2093.12732	3877.3125
2096.12447	3868.8125
2099.11969	3862.9125
2102.11299	3871.1125
2105.10435	3883.9125
2108.09379	3878.1125
2111.08131	3875.6125
2114.0669	3882.0125
2117.05057	3894.6125
2120.03233	3885.3125
2123.01216	3905.9125
2125.99008	3911.8125
2128.96609	3921.0125
2131.94018	3914.0125
2134.91236	3921.0125
2137.88263	3920.0125
2140.851	3914.3125
2143.81746	3894.5125
2146.78201	3890.8125
2149.74466	3875.9125
2152.7054	3867.5125
2155.66425	3861.3125
2158.6212	3846.6125
2161.57625	3834.3125
2164.52941	3845.4125
2167.48067	3824.6125
2170.43004	3833.5125
2173.37752	3826.5125
2176.32311	3830.9125
2179.26681	3845.7125
2182.20863	3828.3125
2185.14856	3845.7125
2188.08661	3833.5125
2191.02278	3833.2125
2193.95707	3812.6125
2196.88948	3814.1125
2199.82001	3806.6125
2202.74867	3796.7125
2205.67545	3788.2125
2208.60037	3783.0125
2211.52341	3792.2125
2214.44458	3781.0125
2217.36388	3773.4125
2220.28132	3751.0125
2223.1969	3740.4125
2226.11061	3716.2125
2229.02246	3718.6125
2231.93245	3715.3125
2234.84058	3704.4125
2237.74686	3692.5125
2240.65128	3690.3125
2243.55385	3699.4125
2246.45456	3706.6125
2249.35343	3697.7125
2252.25044	3704.5125
2255.14561	3730.6125
2258.03893	3749.7125
2260.93041	3731.7125
2263.82004	3755.4125
2266.70783	3753.0125
2269.59378	3722.7125
2272.4779	3718.2125
2275.36017	3705.6125
2278.24061	3707.7125
2281.11922	3688.8125
2283.996	3676.7125
2286.87094	3661.2125
2289.74405	3650.9125
2292.61534	3625.0125
2295.4848	3617.5125
2298.35243	3592.9125
2301.21824	3609.2125
2304.08223	3588.1125
2306.94439	3591.9125
2309.80474	3577.7125
2312.66327	3588.2125
2315.51999	3592.2125
2318.37489	3578.2125
2321.22797	3580.1125
2324.07925	3581.2125
2326.92871	3557.1125
2329.77637	3560.0125
2332.62222	3542.6125
2335.46626	3555.2125
2338.3085	3539.2125
2341.14893	3569.5125
2343.98756	3557.8125
2346.8244	3577.1125
2349.65943	3609.2125
2352.49267	3612.0125
2355.32411	3637.3125
2358.15376	3651.3125
2360.98161	3665.5125
2363.80768	3701.5125
2366.63195	3731.8125
2369.45444	3737.9125
2372.27514	3743.5125
2375.09405	3745.0125
2377.91118	3741.3125
2380.72652	3698.3125
2383.54009	3663.0125
2386.35187	3647.4125
2389.16188	3602.3125
2391.97011	3578.1125
2394.77657	3548.6125
2397.58125	3521.7125
2400.38416	3504.3125
2403.18529	3488.9125
2405.98466	3481.9125
2408.78226	3475.9125
2411.57809	3456.7125
2414.37216	3450.4125
2417.16446	3442.8125
2419.955	3461.6125
2422.74378	3452.8125
2425.5308	3443.0125
2428.31606	3460.2125
2431.09956	3469.3125
2433.88131	3461.8125
2436.6613	3479.4125
2439.43954	3491.2125
2442.21603	3491.0125
2444.99077	3486.3125
2447.76377	3502.6125
2450.53501	3514.2125
2453.30451	3523.4125
2456.07226	3520.2125
2458.83827	3531.0125
2461.60254	3504.6125
2464.36507	3514.0125
2467.12586	3511.9125
2469.88492	3524.4125
2472.64224	3520.6125
2475.39782	3519.4125
2478.15167	3528.9125
2480.90379	3573.9125
2483.65417	3607.5125
2486.40283	3637.4125
2489.14976	3677.9125
2491.89497	3682.5125
2494.63845	3687.5125
2497.3802	3652.9125
2500.12024	3663.6125
2502.85855	3632.9125
2505.59514	3595.9125
2508.33002	3563.9125
2511.06318	3530.0125
2513.79462	3487.2125
2516.52435	3440.5125
2519.25237	3427.4125
2521.97867	3401.0125
2524.70327	3374.3125
2527.42616	3358.7125
2530.14734	3357.5125
2532.86681	3348.6125
2535.58458	3358.5125
2538.30065	3361.2125
2541.01501	3366.5125
2543.72768	3366.9125
2546.43864	3383.0125
2549.14791	3392.0125
2551.85548	3393.8125
2554.56136	3377.9125
2557.26554	3398.1125
2559.96803	3395.7125
2562.66883	3386.3125
2565.36794	3380.8125
2568.06536	3390.1125
2570.7611	3381.6125
2573.45514	3366.2125
2576.14751	3348.4125
2578.83819	3347.6125
2581.52719	3337.3125
2584.21451	3310.4125
2586.90015	3313.5125
2589.58411	3293.4125
2592.2664	3304.2125
2594.94701	3305.4125
2597.62594	3299.4125
2600.30321	3287.7125
2602.9788	3303.0125
2605.65273	3294.2125
2608.32498	3307.0125
2610.99557	3310.9125
2613.66449	3315.6125
2616.33175	3310.2125
2618.99734	3324.1125
2621.66128	3309.4125
2624.32355	3308.1125
2626.98416	3299.7125
2629.64311	3282.5125
2632.30041	3282.0125
2634.95605	3242.7125
2637.61004	3249.6125
2640.26238	3246.3125
2642.91306	3235.1125
2645.56209	3226.6125
2648.20948	3211.5125
2650.85521	3203.9125
2653.4993	3224.2125
2656.14175	3228.7125
2658.78255	3247.8125
2661.42171	3250.0125
2664.05923	3276.3125
2666.6951	3277.4125
2669.32934	3302.4125
2671.96194	3306.7125
2674.59291	3298.1125
2677.22224	3308.8125
2679.84993	3323.0125
2682.476	3300.5125
2685.10043	3299.7125
2687.72324	3306.1125
2690.34441	3300.1125
2692.96396	3282.8125
2695.58188	3306.6125
2698.19818	3282.3125
2700.81285	3281.5125
2703.4259	3265.7125
2706.03733	3201.0125
2708.64714	3240.7125
2711.25533	3291.5125
2713.86191	3286.1125
2716.46687	3311.5125
2719.07021	3324.5125
2721.67194	3340.3125
2724.27206	3334.6125
2726.87057	3340.9125
2729.46747	3332.9125
2732.06276	3320.4125
2734.65644	3307.2125
2737.24852	3313.2125
2739.83899	3282.7125
2742.42786	3275.9125
2745.01513	3270.3125
2747.60079	3267.6125
2750.18486	3259.5125
2752.76733	3249.9125
2755.3482	3241.5125
2757.92747	3227.0125
2760.50515	3213.3125
2763.08123	3213.9125
2765.65573	3219.8125
2768.22863	3213.8125
2770.79994	3210.0125
2773.36967	3219.2125
2775.9378	3215.2125
2778.50435	3225.0125
2781.06932	3215.3125
2783.6327	3232.0125
2786.1945	3231.2125
2788.75471	3247.5125
2791.31335	3263.3125
2793.87041	3263.7125
2796.42589	3268.2125
2798.97979	3268.3125
2801.53212	3278.2125
2804.08288	3288.6125
2806.63206	3298.6125
2809.17967	3332.0125
2811.72571	3331.5125
2814.27018	3342.2125
2816.81308	3358.7125
2819.35442	3383.5125
2821.89419	3399.2125
2824.43239	3425.0125
2826.96904	3428.6125
2829.50412	3426.9125
2832.03763	3419.6125
2834.56959	3430.1125
2837.1	3431.7125
2839.62884	3447.2125
2842.15613	3462.3125
2844.68186	3459.9125
2847.20604	3499.8125
2849.72867	3529.0125
2852.24974	3560.2125
2854.76927	3547.2125
2857.28724	3547.0125
2859.80367	3565.3125
2862.31855	3587.6125
2864.83189	3608.7125
2867.34368	3624.1125
2869.85393	3646.8125
2872.36264	3628.0125
2874.8698	3633.4125
2877.37543	3629.0125
2879.87952	3612.4125
2882.38207	3591.5125
2884.88308	3584.8125
2887.38256	3557.8125
2889.88051	3558.6125
2892.37692	3566.9125
2894.8718	3543.6125
2897.36515	3549.7125
2899.85698	3545.2125
2902.34727	3555.3125
2904.83604	3550.6125
2907.32328	3566.1125
2909.809	3540.0125
2912.29319	3539.2125
2914.77587	3521.0125
2917.25702	3519.2125
2919.73665	3497.3125
2922.21476	3495.4125
2924.69136	3489.1125
2927.16644	3480.0125
2929.64	3452.7125
2932.11205	3436.1125
2934.58258	3424.9125
2937.05161	3424.7125
2939.51912	3397.0125
2941.98513	3395.8125
2944.44962	3369.3125
2946.91261	3347.4125
2949.37409	3338.4125
2951.83407	3321.9125
2954.29254	3302.1125
2956.74951	3293.7125
2959.20498	3291.8125
2961.65895	3271.7125
2964.11142	3263.2125
2966.56239	3255.8125
2969.01186	3263.1125
2971.45984	3239.9125
2973.90632	3214.4125
2976.35131	3201.4125
2978.7948	3210.9125
2981.23681	3188.9125
2983.67732	3175.2125
2986.11635	3160.1125
2988.55388	3149.2125
2990.98993	3149.5125
2993.4245	3149.8125
2995.85758	3134.7125
2998.28917	3135.6125
3000.71928	3142.1125
3003.14791	3134.2125
3005.57506	3134.3125
3008.00073	3116.7125
3010.42493	3134.5125
3012.84764	3127.4125
3015.26888	3117.3125
3017.68865	3136.6125
3020.10694	3108.4125
3022.52376	3105.6125
3024.9391	3100.3125
3027.35298	3093.3125
3029.76539	3073.1125
3032.17632	3076.5125
3034.5858	3067.4125
3036.9938	3045.8125
3039.40034	3020.3125
3041.80542	3027.1125
3044.20903	3010.9125
3046.61118	3006.2125
3049.01187	3005.5125
3051.4111	3002.0125
3053.80888	3001.0125
3056.20519	2998.3125
3058.60005	2978.7125
3060.99345	2971.0125
3063.3854	2964.6125
3065.7759	2958.6125
3068.16494	2937.7125
3070.55254	2935.6125
3072.93868	2923.5125
3075.32338	2913.1125
3077.70662	2915.0125
3080.08842	2898.0125
3082.46878	2890.2125
3084.84769	2892.1125
3087.22515	2891.7125
3089.60118	2875.9125
3091.97576	2875.9125
3094.3489	2864.9125
3096.72061	2875.6125
3099.09087	2884.5125
3101.4597	2876.5125
3103.82709	2872.4125
3106.19305	2875.1125
3108.55757	2872.0125
3110.92066	2878.1125
3113.28232	2864.4125
3115.64255	2864.4125
3118.00134	2859.7125
3120.35871	2862.0125
3122.71466	2864.2125
3125.06917	2870.9125
3127.42226	2863.5125
3129.77393	2872.3125
3132.12417	2878.8125
3134.47299	2883.0125
3136.82039	2891.9125
3139.16636	2900.3125
3141.51092	2909.9125
3143.85406	2915.1125
3146.19579	2922.7125
3148.53609	2914.4125
3150.87499	2942.1125
3153.21246	2935.2125
3155.54853	2965.1125
3157.88318	2953.5125
3160.21642	2962.6125
3162.54826	2966.7125
3164.87868	2983.5125
3167.2077	2980.3125
3169.5353	2987.1125
3171.86151	2990.8125
3174.18631	3004.8125
3176.5097	2983.6125
3178.83169	3003.8125
3181.15228	3008.7125
3183.47147	2985.7125
3185.78926	3001.4125
3188.10565	2998.6125
3190.42065	3016.1125
3192.73424	3011.4125
3195.04645	3026.5125
3197.35725	3031.7125
3199.66667	3046.1125
3201.97469	3068.1125
3204.28132	3070.7125
3206.58656	3079.4125
3208.8904	3088.0125
3211.19287	3090.7125
3213.49394	3105.4125
3215.79363	3116.6125
3218.09193	3122.9125
3220.38884	3124.3125
3222.68438	3099.2125
3224.97853	3124.0125
3227.2713	3143.6125
3229.56269	3143.1125
3231.8527	3145.6125
3234.14133	3136.4125
3236.42858	3133.2125
3238.71446	3137.2125
3240.99896	3124.9125
3243.28209	3126.9125
3245.56384	3123.3125
3247.84423	3129.2125
3250.12324	3122.8125
3252.40088	3130.6125
3254.67715	3127.6125
3256.95205	3133.8125
3259.22558	3124.8125
3261.49775	3130.0125
3263.76855	3123.6125
3266.03799	3126.2125
3268.30606	3117.2125
3270.57277	3116.2125
3272.83812	3128.4125
3275.10211	3105.0125
3277.36474	3114.0125
3279.62601	3102.6125
3281.88593	3092.0125
3284.14448	3103.9125
3286.40168	3105.6125
3288.65753	3108.4125
3290.91202	3114.6125
3293.16516	3097.2125
3295.41695	3111.8125
3297.66738	3094.9125
3299.91647	3078.3125
3302.16421	3050.4125
3304.4106	3020.1125
3306.65564	3022.6125
3308.89933	2985.6125
3311.14169	2964.1125
3313.38269	2920.4125
3315.62236	2899.9125
3317.86068	2880.8125
3320.09766	2865.2125
3322.3333	2825.5125
3324.5676	2820.5125
3326.80056	2756.5125
3329.03219	2731.6125
3331.26248	-0.2875
3333.49143	-0.4875
3335.71905	0.8125
