Data from AgNPs_FTO_APTES_UA_50uM_CRN_100uM_R6G_10uM_NaF_0.1M_Addition_RamanShift__16__15-34-35-035.txt Node

Date: Mon Feb 21 15:34:35 GMT 2022
User: TCL
Spectrometer: QEP01345
Trigger mode: 4
Integration Time (sec): 7.000000E0
Scans to average: 10
Electric dark correction enabled: true
Nonlinearity correction enabled: false
Boxcar width: 0
XAxis mode: Raman Shifts
Number of Pixels in Spectrum: 1044
>>>>>Begin Spectral Data<<<<<
46.04893	0.6
50.45542	-0.8
54.85868	-0.6
59.25871	-0.9
63.6555	49.6
68.04907	54.9
72.43941	53.2
76.82654	55.4
81.21044	60.1
85.59113	63.4
89.96862	64.9
94.34289	70.7
98.71396	68.5
103.08183	72.2
107.4465	73.4
111.80798	76.8
116.16626	77.8
120.52136	77.7
124.87327	85.7
129.222	82.8
133.56755	86.8
137.90993	94.3
142.24913	97.5
146.58517	112.4
150.91804	122.8
155.24774	148.7
159.57429	181.1
163.89768	230.5
168.21792	298.2
172.53501	401.5
176.84895	562.5
181.15975	789.5
185.46741	1103.3
189.77193	1520.3
194.07331	2039
198.37157	2641.7
202.6667	3263.7
206.9587	3897.8
211.24758	4500.2
215.53334	5108.7
219.81599	5766.2
224.09553	6465.7
228.37195	7245.6
232.64527	8125.2
236.91549	9081.4
241.18261	9993.4
245.44663	10843.5
249.70755	11576.7
253.96539	12230.2
258.22014	12755
262.4718	13182.7
266.72039	13478.7
270.96589	13665.3
275.20832	13652
279.44768	13514.9
283.68397	13311
287.91719	13167.4
292.14735	13065.2
296.37445	13039.2
300.59849	13142.5
304.81948	13260.3
309.03742	13280.8
313.25231	13183.4
317.46415	12932.2
321.67296	12523.9
325.87872	12236.8
330.08145	12132.5
334.28114	12105.6
338.47781	12224.9
342.67145	12419.2
346.86207	12654.9
351.04966	12955.8
355.23424	13267.9
359.4158	13575
363.59435	13801.7
367.76989	13937
371.94243	14020.4
376.11196	14123.5
380.27849	14188.1
384.44203	14227.5
388.60257	14256
392.76012	14325.4
396.91468	14402.2
401.06626	14588.6
405.21485	14758.8
409.36047	14660
413.50311	14364.5
417.64277	14101.5
421.77947	13918.7
425.9132	13861.3
430.04396	13898.9
434.17176	13975.8
438.2966	14119.8
442.41849	14325.4
446.53742	14635.8
450.6534	14936.7
454.76644	15181.6
458.87653	15263.2
462.98368	15284.7
467.08789	15143.1
471.18916	14991
475.2875	14840.7
479.38291	14696.3
483.4754	14581.5
487.56496	14430.3
491.6516	14339.9
495.73531	14267.3
499.81612	14282.9
503.89401	14427.6
507.96899	14516.9
512.04106	14515
516.11023	14583.6
520.1765	14583.3
524.23987	14545.3
528.30034	14470.3
532.35792	14402.8
536.41261	14321.4
540.46441	14200.9
544.51333	14129.3
548.55936	14163.7
552.60252	14302.8
556.64279	14494
560.6802	14569.9
564.71473	14583.7
568.7464	14755.2
572.7752	14911.9
576.80114	14961.6
580.82422	14996.6
584.84444	15086.4
588.86181	15204.4
592.87633	15365.5
596.888	15507.4
600.89682	15645.3
604.9028	16320.8
608.90594	18153.4
612.90624	20233.4
616.90371	19327.4
620.89834	16166.7
624.89015	14779.3
628.87913	14642
632.86528	14658.4
636.84862	14708
640.82913	14549.6
644.80683	14243
648.78172	13997.1
652.75379	13967.3
656.72306	14147.1
660.68952	14419.7
664.65319	14395.4
668.61405	14181.7
672.57211	14174.1
676.52738	14265.7
680.47986	14332.6
684.42955	14262.9
688.37646	14128.2
692.32058	14052.4
696.26192	14088.4
700.20048	14148.4
704.13626	14196.2
708.06928	14107.5
711.99952	14052.4
715.927	14035.6
719.85171	14023.6
723.77365	14047.4
727.69284	13993
731.60928	13978.1
735.52295	13966.5
739.43388	13981.5
743.34206	13999.9
747.24749	14022.1
751.15017	14036.3
755.05012	14162.9
758.94733	14415.5
762.8418	15032.6
766.73354	16180
770.62254	17466.4
774.50882	18080.9
778.39237	17544.5
782.27321	16244
786.15132	15040.6
790.02671	14359.8
793.89938	14004.7
797.76935	13825.1
801.6366	13778.9
805.50115	13742.8
809.36299	13634.7
813.22213	13550.5
817.07857	13501.2
820.93231	13453.3
824.78336	13449.6
828.63172	13453
832.47738	13413.2
836.32036	13444.3
840.16066	13489.9
843.99827	13483.1
847.8332	13501.7
851.66546	13439.2
855.49504	13417.4
859.32195	13443.2
863.1462	13477.9
866.96777	13480.8
870.78668	13485.7
874.60293	13506.7
878.41652	13509.3
882.22745	13538.3
886.03573	13588.2
889.84136	13546.6
893.64433	13518.5
897.44466	13425.7
901.24235	13374.8
905.0374	13321.2
908.8298	13258.8
912.61957	13235.2
916.40671	13265.2
920.19121	13361.1
923.97308	13461.7
927.75233	13534.8
931.52895	13545.6
935.30295	13488.4
939.07433	13293.7
942.84309	13091.1
946.60924	13000.9
950.37278	12961.9
954.13371	12925.5
957.89203	12851.5
961.64774	12813
965.40086	12752.6
969.15137	12713.6
972.89929	12684.5
976.64461	12668.7
980.38733	12661.6
984.12747	12707.7
987.86502	12768.8
991.59999	12876.1
995.33237	13055.8
999.06217	13322.1
1002.78939	13599
1006.51404	13739.3
1010.23611	13835.4
1013.95561	13932.4
1017.67255	13954.1
1021.38692	13911.1
1025.09872	13760.4
1028.80796	13810.9
1032.51465	14050.3
1036.21877	14265.6
1039.92035	14352.6
1043.61937	14246.1
1047.31584	14042.3
1051.00976	13835.9
1054.70114	13742.4
1058.38998	13678.2
1062.07627	13712.6
1065.76003	13769.5
1069.44126	13761.7
1073.11995	13832
1076.79611	13950.9
1080.46974	14040.6
1084.14085	14195.6
1087.80943	14290.9
1091.47549	14382.7
1095.13903	14336.4
1098.80005	14191.5
1102.45857	13980.3
1106.11456	13923.9
1109.76805	13955.5
1113.41903	14024.1
1117.06751	14158.6
1120.71348	14376
1124.35696	14573.5
1127.99793	14788.8
1131.63641	14882.4
1135.2724	14755.2
1138.90589	14517.4
1142.5369	14339.3
1146.16542	14219.6
1149.79145	14105.7
1153.415	14063.3
1157.03607	14118.5
1160.65467	14369.8
1164.27079	14730.6
1167.88443	15297.2
1171.49561	16040.4
1175.10432	17064.9
1178.71056	18395.9
1182.31434	19645.4
1185.91565	20301.6
1189.51451	20171.1
1193.11091	19522.3
1196.70485	18610.3
1200.29634	17832.2
1203.88538	17189.6
1207.47197	16572.1
1211.05612	16011.8
1214.63782	15673.9
1218.21708	15497.1
1221.79391	15488.7
1225.36829	15570.5
1228.94024	15511.8
1232.50976	15356.7
1236.07685	15165.2
1239.6415	15089.8
1243.20374	15089.2
1246.76355	15170.7
1250.32093	15284.6
1253.8759	15533.5
1257.42845	15856.1
1260.97859	16143.5
1264.52631	16491.4
1268.07163	16870
1271.61453	17288.2
1275.15503	17676.7
1278.69312	18090.6
1282.22882	18365.1
1285.76211	18609.9
1289.29301	18910.9
1292.82151	19276
1296.34761	19864.7
1299.87133	20689.5
1303.39266	21821.6
1306.9116	23225.4
1310.42815	24739.6
1313.94233	25617.7
1317.45412	25365.6
1320.96354	24442.7
1324.47058	23388.3
1327.97525	22465.3
1331.47754	21796.3
1334.97747	21507.5
1338.47502	21434.2
1341.97022	21684.6
1345.46305	22056.4
1348.95352	22563.5
1352.44163	23261.5
1355.92738	24348.1
1359.41078	25927.5
1362.89183	27317.3
1366.37053	26746.4
1369.84688	24086.7
1373.32088	21236.1
1376.79254	19312.8
1380.26186	18297.7
1383.72883	17914.7
1387.19347	17575.4
1390.65578	17226.6
1394.11575	16955.6
1397.57339	16901.6
1401.0287	17023.2
1404.48168	17156.3
1407.93234	17171.9
1411.38068	17168.3
1414.82669	16981.3
1418.27039	16713.7
1421.71177	16459.4
1425.15083	16116.2
1428.58758	15932.5
1432.02203	15931.4
1435.45416	16119.5
1438.88399	16296.2
1442.31151	16477.4
1445.73673	16629.8
1449.15965	16757.5
1452.58027	16846.2
1455.9986	16860.4
1459.41463	16969.9
1462.82837	17187.5
1466.23982	17474.3
1469.64898	17754.9
1473.05586	18005
1476.46045	18074.4
1479.86276	18121.5
1483.26279	18087.6
1486.66054	18125.4
1490.05602	18255
1493.44922	18556.6
1496.84016	19052.4
1500.22882	19836.5
1503.61521	21025
1506.99934	22351.5
1510.38121	23481.9
1513.76081	23735.2
1517.13816	22881.5
1520.51324	21327.9
1523.88607	19841.2
1527.25665	18955
1530.62498	18403
1533.99105	18084.7
1537.35488	17849.9
1540.71647	17708.9
1544.07581	17507.2
1547.4329	17351.4
1550.78776	17202.9
1554.14038	17159.8
1557.49077	17208.9
1560.83892	17271.5
1564.18484	17442.7
1567.52853	17586.1
1570.86999	17787.7
1574.20922	17917.5
1577.54624	17910.3
1580.88103	17568.1
1584.2136	17113.6
1587.54395	16973.1
1590.87208	17323.5
1594.19801	18068.1
1597.52172	19049.7
1600.84321	19538.8
1604.16251	19081.4
1607.47959	18178.4
1610.79447	17151.1
1614.10715	16149.6
1617.41763	15303.9
1620.7259	14668.5
1624.03199	14273.3
1627.33587	14206.7
1630.63757	14426.1
1633.93707	14979.4
1637.23439	15843
1640.52951	17070.6
1643.82246	18627.1
1647.11321	20048.8
1650.40179	20678.8
1653.68819	19898.1
1656.97241	17908.3
1660.25446	15844.7
1663.53433	14338.4
1666.81203	13394.6
1670.08756	12808
1673.36092	12506.3
1676.63211	12238.4
1679.90115	12052.8
1683.16801	11922.1
1686.43272	11823.1
1689.69527	11742.1
1692.95567	11614.4
1696.2139	11469.8
1699.46999	11356
1702.72392	11310.2
1705.97571	11360.4
1709.22535	11393.9
1712.47284	11468.9
1715.71819	11488.7
1718.96139	11475.8
1722.20246	11470.3
1725.44139	11429.7
1728.67818	11378.7
1731.91284	11331.4
1735.14537	11250.5
1738.37576	11252
1741.60403	11199.2
1744.83017	11165.3
1748.05418	11140.1
1751.27607	11118.6
1754.49584	11075.6
1757.71349	10994.9
1760.92903	10967.1
1764.14244	10925
1767.35375	10923.4
1770.56294	10864.3
1773.77002	10841.5
1776.97499	10868.7
1780.17785	10894.8
1783.37861	10902.6
1786.57727	10907
1789.77382	10900.9
1792.96828	10856.2
1796.16064	10859.7
1799.3509	10827.2
1802.53907	10784.6
1805.72514	10784.3
1808.90913	10751.3
1812.09102	10737.2
1815.27083	10723.4
1818.44856	10707.5
1821.6242	10707.9
1824.79776	10668.1
1827.96924	10669.9
1831.13864	10668.7
1834.30597	10619
1837.47122	10648.9
1840.6344	10609.9
1843.7955	10623.4
1846.95454	10588.6
1850.11151	10593.2
1853.26642	10596.7
1856.41926	10560.7
1859.57004	10579.7
1862.71876	10547.3
1865.86542	10536.1
1869.01003	10550.3
1872.15258	10512.4
1875.29308	10535.5
1878.43152	10505.3
1881.56792	10517
1884.70227	10498.6
1887.83457	10496.7
1890.96482	10457.6
1894.09304	10470.7
1897.21921	10443.6
1900.34335	10433.9
1903.46544	10417.1
1906.58551	10404.6
1909.70353	10398.3
1912.81953	10416.3
1915.93349	10399.1
1919.04543	10365.6
1922.15534	10351.3
1925.26322	10321.6
1928.36908	10292.9
1931.47292	10283.1
1934.57473	10265.4
1937.67453	10239.7
1940.77232	10216.5
1943.86808	10183.2
1946.96184	10164.5
1950.05358	10106.9
1953.14331	10082.3
1956.23103	10080.6
1959.31675	10031.1
1962.40046	10006.7
1965.48217	9983.4
1968.56188	9984.3
1971.63959	9944.6
1974.7153	9939.4
1977.78901	9885.3
1980.86073	9891.1
1983.93046	9832.8
1986.99819	9792.7
1990.06394	9777.7
1993.1277	9738.6
1996.18947	9706
1999.24925	9696.1
2002.30706	9639.8
2005.36288	9620.6
2008.41672	9599.8
2011.46859	9549.7
2014.51848	9555.9
2017.56639	9536.8
2020.61233	9491.4
2023.6563	9499
2026.6983	9451.8
2029.73833	9439.6
2032.7764	9410.1
2035.8125	9400.8
2038.84664	9392.3
2041.87881	9387.3
2044.90903	9368.2
2047.93729	9348.7
2050.96359	9338.3
2053.98794	9316.5
2057.01034	9309.2
2060.03078	9310.7
2063.04927	9320.8
2066.06582	9280.6
2069.08042	9284.9
2072.09307	9269
2075.10378	9263.8
2078.11255	9265.2
2081.11938	9266.3
2084.12426	9273.6
2087.12722	9260.9
2090.12824	9250.2
2093.12732	9243.7
2096.12447	9242.3
2099.11969	9256.5
2102.11299	9250.1
2105.10435	9247.5
2108.09379	9242.5
2111.08131	9256.1
2114.0669	9261.7
2117.05057	9261.4
2120.03233	9260.2
2123.01216	9287.5
2125.99008	9290.4
2128.96609	9299.2
2131.94018	9311.5
2134.91236	9310.1
2137.88263	9309.1
2140.851	9339.4
2143.81746	9349
2146.78201	9356.3
2149.74466	9342.9
2152.7054	9335.7
2155.66425	9334.2
2158.6212	9347
2161.57625	9318.6
2164.52941	9319.8
2167.48067	9312.1
2170.43004	9318.3
2173.37752	9317
2176.32311	9319.1
2179.26681	9297.3
2182.20863	9294.7
2185.14856	9313.7
2188.08661	9309.4
2191.02278	9322.7
2193.95707	9299.8
2196.88948	9281.9
2199.82001	9288
2202.74867	9309.2
2205.67545	9299.8
2208.60037	9288.2
2211.52341	9258.9
2214.44458	9255.4
2217.36388	9236.8
2220.28132	9243.9
2223.1969	9230
2226.11061	9192.9
2229.02246	9171.6
2231.93245	9156.2
2234.84058	9142.6
2237.74686	9123.9
2240.65128	9117.3
2243.55385	9110.6
2246.45456	9123.6
2249.35343	9083
2252.25044	9072.3
2255.14561	9047.3
2258.03893	9061.8
2260.93041	9010.1
2263.82004	9013.3
2266.70783	9026.1
2269.59378	8969.7
2272.4779	8957.7
2275.36017	8930
2278.24061	8911.2
2281.11922	8885.8
2283.996	8869.2
2286.87094	8882.6
2289.74405	8866.2
2292.61534	8872.4
2295.4848	8834.9
2298.35243	8851.8
2301.21824	8862.8
2304.08223	8848.5
2306.94439	8849.8
2309.80474	8842.4
2312.66327	8862.9
2315.51999	8846.8
2318.37489	8821.8
2321.22797	8826.9
2324.07925	8830.6
2326.92871	8786.9
2329.77637	8816.7
2332.62222	8787.1
2335.46626	8766.1
2338.3085	8769.9
2341.14893	8763.1
2343.98756	8765.3
2346.8244	8753.6
2349.65943	8767.5
2352.49267	8751.7
2355.32411	8739.7
2358.15376	8732.7
2360.98161	8751.7
2363.80768	8729.7
2366.63195	8730.6
2369.45444	8729.5
2372.27514	8708.9
2375.09405	8684.4
2377.91118	8692.6
2380.72652	8656.4
2383.54009	8627.3
2386.35187	8632.4
2389.16188	8568.5
2391.97011	8588.3
2394.77657	8554.6
2397.58125	8555
2400.38416	8542.7
2403.18529	8540.6
2405.98466	8522.8
2408.78226	8484.7
2411.57809	8447.5
2414.37216	8449.4
2417.16446	8445.3
2419.955	8425.2
2422.74378	8462.3
2425.5308	8430.8
2428.31606	8443
2431.09956	8419.1
2433.88131	8411
2436.6613	8406.7
2439.43954	8424.5
2442.21603	8406.4
2444.99077	8410.9
2447.76377	8421
2450.53501	8396
2453.30451	8418.9
2456.07226	8383.3
2458.83827	8368.6
2461.60254	8381.3
2464.36507	8375.7
2467.12586	8376.6
2469.88492	8385.7
2472.64224	8389.2
2475.39782	8387.6
2478.15167	8372.5
2480.90379	8385.9
2483.65417	8391.1
2486.40283	8379.5
2489.14976	8374.7
2491.89497	8384.8
2494.63845	8379.3
2497.3802	8332.4
2500.12024	8381.4
2502.85855	8378.8
2505.59514	8357.7
2508.33002	8329.9
2511.06318	8348.7
2513.79462	8311.4
2516.52435	8320.6
2519.25237	8280.7
2521.97867	8251.9
2524.70327	8278.8
2527.42616	8237.4
2530.14734	8248.4
2532.86681	8258.7
2535.58458	8250.6
2538.30065	8238.6
2541.01501	8234.2
2543.72768	8229.5
2546.43864	8214.4
2549.14791	8205.8
2551.85548	8204.6
2554.56136	8177.5
2557.26554	8180.1
2559.96803	8165.3
2562.66883	8153.2
2565.36794	8170.6
2568.06536	8128
2570.7611	8122.5
2573.45514	8108.9
2576.14751	8111.5
2578.83819	8094.5
2581.52719	8076.8
2584.21451	8068.5
2586.90015	8078.1
2589.58411	8049.4
2592.2664	8053.7
2594.94701	8053.5
2597.62594	8011.6
2600.30321	8014.3
2602.9788	8014.2
2605.65273	8017.4
2608.32498	8004.7
2610.99557	8018.2
2613.66449	8020.8
2616.33175	7985.3
2618.99734	8004.8
2621.66128	8005.8
2624.32355	8002
2626.98416	7994.8
2629.64311	7982.5
2632.30041	7972.1
2634.95605	7965.1
2637.61004	7945.8
2640.26238	7944.1
2642.91306	7943.1
2645.56209	7933.6
2648.20948	7915.2
2650.85521	7897.6
2653.4993	7903.1
2656.14175	7901.3
2658.78255	7882.9
2661.42171	7907.7
2664.05923	7917.2
2666.6951	7935.2
2669.32934	7950.9
2671.96194	7926.9
2674.59291	7932.5
2677.22224	7915.7
2679.84993	7909.1
2682.476	7907
2685.10043	7873.9
2687.72324	7883.9
2690.34441	7902.9
2692.96396	7893.6
2695.58188	7895.2
2698.19818	7900.6
2700.81285	7869.2
2703.4259	7861.2
2706.03733	7806.1
2708.64714	7850
2711.25533	7869.4
2713.86191	7858.4
2716.46687	7889.9
2719.07021	7901.2
2721.67194	7889
2724.27206	7887.7
2726.87057	7883.1
2729.46747	7907.7
2732.06276	7909.7
2734.65644	7900.4
2737.24852	7903.3
2739.83899	7870.4
2742.42786	7878.3
2745.01513	7864.8
2747.60079	7867
2750.18486	7874.2
2752.76733	7876
2755.3482	7828.9
2757.92747	7828
2760.50515	7834.1
2763.08123	7831.3
2765.65573	7813.3
2768.22863	7838.5
2770.79994	7793
2773.36967	7794.4
2775.9378	7777.9
2778.50435	7776.7
2781.06932	7769.6
2783.6327	7806.2
2786.1945	7796.2
2788.75471	7769.1
2791.31335	7754.2
2793.87041	7740.6
2796.42589	7732.7
2798.97979	7727.8
2801.53212	7710.8
2804.08288	7705
2806.63206	7679.4
2809.17967	7663.7
2811.72571	7643.8
2814.27018	7644.2
2816.81308	7630.9
2819.35442	7612
2821.89419	7621.1
2824.43239	7621.8
2826.96904	7614.9
2829.50412	7603.2
2832.03763	7575.6
2834.56959	7593.3
2837.1	7606.8
2839.62884	7591.4
2842.15613	7585.9
2844.68186	7600.2
2847.20604	7587.3
2849.72867	7613.6
2852.24974	7590.6
2854.76927	7585.7
2857.28724	7552
2859.80367	7556.9
2862.31855	7536.6
2864.83189	7550.6
2867.34368	7520.9
2869.85393	7543.6
2872.36264	7563.4
2874.8698	7557.3
2877.37543	7555.4
2879.87952	7559
2882.38207	7564.3
2884.88308	7559.6
2887.38256	7550.7
2889.88051	7550.1
2892.37692	7578.3
2894.8718	7566.2
2897.36515	7592
2899.85698	7580.9
2902.34727	7596.8
2904.83604	7603.8
2907.32328	7626.3
2909.809	7619.9
2912.29319	7645.3
2914.77587	7639.9
2917.25702	7643.9
2919.73665	7639.5
2922.21476	7618.1
2924.69136	7616.5
2927.16644	7620.2
2929.64	7619
2932.11205	7603.8
2934.58258	7567.9
2937.05161	7598.6
2939.51912	7600
2941.98513	7586.9
2944.44962	7551.9
2946.91261	7557.3
2949.37409	7589.8
2951.83407	7591.9
2954.29254	7561.5
2956.74951	7529.2
2959.20498	7541.1
2961.65895	7517.5
2964.11142	7516.8
2966.56239	7494.8
2969.01186	7466.7
2971.45984	7458
2973.90632	7463.1
2976.35131	7448.3
2978.7948	7423.9
2981.23681	7410.6
2983.67732	7396.4
2986.11635	7373
2988.55388	7365.8
2990.98993	7354.4
2993.4245	7324.2
2995.85758	7324.2
2998.28917	7321
3000.71928	7317.6
3003.14791	7297.5
3005.57506	7276.5
3008.00073	7269
3010.42493	7278.7
3012.84764	7254.9
3015.26888	7246.7
3017.68865	7236.4
3020.10694	7239.5
3022.52376	7212.6
3024.9391	7205.6
3027.35298	7194.4
3029.76539	7195.8
3032.17632	7177.3
3034.5858	7157.5
3036.9938	7178.6
3039.40034	7150.9
3041.80542	7159.6
3044.20903	7154.3
3046.61118	7139.8
3049.01187	7136.9
3051.4111	7140
3053.80888	7124.1
3056.20519	7123
3058.60005	7094.5
3060.99345	7100.2
3063.3854	7076
3065.7759	7052.9
3068.16494	7041.9
3070.55254	7016.3
3072.93868	7015.8
3075.32338	6998.4
3077.70662	6969.6
3080.08842	6954.3
3082.46878	6981.6
3084.84769	6943.2
3087.22515	6952.6
3089.60118	6967.8
3091.97576	6962.1
3094.3489	6949.4
3096.72061	6954
3099.09087	6950.7
3101.4597	6973.4
3103.82709	6968
3106.19305	6970.2
3108.55757	6968.1
3110.92066	6953.3
3113.28232	6943
3115.64255	6917.4
3118.00134	6918.8
3120.35871	6909.6
3122.71466	6924
3125.06917	6891.5
3127.42226	6896.6
3129.77393	6910.2
3132.12417	6897.6
3134.47299	6902
3136.82039	6892.6
3139.16636	6900
3141.51092	6892.3
3143.85406	6878.3
3146.19579	6900
3148.53609	6894.1
3150.87499	6893.4
3153.21246	6899.8
3155.54853	6933.7
3157.88318	6915.9
3160.21642	6948.6
3162.54826	6941.9
3164.87868	6938.1
3167.2077	6939.5
3169.5353	6931.6
3171.86151	6948.7
3174.18631	6945.3
3176.5097	6940.4
3178.83169	6913.7
3181.15228	6931.2
3183.47147	6922.6
3185.78926	6921
3188.10565	6931.5
3190.42065	6937.1
3192.73424	6955.1
3195.04645	6929
3197.35725	6932.2
3199.66667	6917
3201.97469	6930.8
3204.28132	6917.8
3206.58656	6930.3
3208.8904	6935.1
3211.19287	6930.8
3213.49394	6941.4
3215.79363	6959.2
3218.09193	6952.6
3220.38884	6945.3
3222.68438	6931.7
3224.97853	6929.1
3227.2713	6940.9
3229.56269	6933.5
3231.8527	6952.2
3234.14133	6925.1
3236.42858	6910.6
3238.71446	6895.2
3240.99896	6905.5
3243.28209	6892
3245.56384	6881.1
3247.84423	6882.7
3250.12324	6886.7
3252.40088	6883.7
3254.67715	6877.1
3256.95205	6890.3
3259.22558	6876.8
3261.49775	6864.8
3263.76855	6876.1
3266.03799	6858.3
3268.30606	6860.8
3270.57277	6847.2
3272.83812	6849.8
3275.10211	6829
3277.36474	6816
3279.62601	6804.1
3281.88593	6803.4
3284.14448	6813.6
3286.40168	6816.1
3288.65753	6819
3290.91202	6807.6
3293.16516	6795.3
3295.41695	6796.7
3297.66738	6753.3
3299.91647	6695.1
3302.16421	6682.8
3304.4106	6641.6
3306.65564	6600.6
3308.89933	6559.1
3311.14169	6529.6
3313.38269	6457.7
3315.62236	6417.6
3317.86068	6389.4
3320.09766	6327.4
3322.3333	6283
3324.5676	6267.7
3326.80056	6149
3329.03219	6129.9
3331.26248	2.9
3333.49143	-0.2
3335.71905	-0.1
