Data from AgNPs_FTO_APTES_UA_50uM_CRN_1000uM_R6G_10uM_NaF_0.1M_Addition_RamanShift__5__17-32-03-578.txt Node

Date: Mon Feb 21 17:32:03 GMT 2022
User: TCL
Spectrometer: QEP01345
Trigger mode: 4
Integration Time (sec): 7.000000E0
Scans to average: 10
Electric dark correction enabled: true
Nonlinearity correction enabled: false
Boxcar width: 0
XAxis mode: Raman Shifts
Number of Pixels in Spectrum: 1044
>>>>>Begin Spectral Data<<<<<
46.04893	-0.7625
50.45542	-1.0625
54.85868	-0.2625
59.25871	-2.7625
63.6555	48.9375
68.04907	54.8375
72.43941	59.5375
76.82654	58.7375
81.21044	65.5375
85.59113	63.4375
89.96862	66.0375
94.34289	69.1375
98.71396	74.8375
103.08183	77.1375
107.4465	79.2375
111.80798	79.9375
116.16626	82.0375
120.52136	85.6375
124.87327	83.2375
129.222	87.8375
133.56755	90.8375
137.90993	94.0375
142.24913	94.4375
146.58517	110.7375
150.91804	117.2375
155.24774	141.8375
159.57429	167.7375
163.89768	211.7375
168.21792	280.7375
172.53501	371.9375
176.84895	515.0375
181.15975	724.3375
185.46741	1007.6375
189.77193	1397.8375
194.07331	1881.5375
198.37157	2415.5375
202.6667	3001.6375
206.9587	3563.2375
211.24758	4130.1375
215.53334	4705.8375
219.81599	5299.6375
224.09553	5955.7375
228.37195	6684.7375
232.64527	7487.4375
236.91549	8334.2375
241.18261	9146.5375
245.44663	9903.9375
249.70755	10556.6375
253.96539	11104.0375
258.22014	11552.2375
262.4718	11959.4375
266.72039	12195.4375
270.96589	12312.3375
275.20832	12329.7375
279.44768	12174.5375
283.68397	12001.7375
287.91719	11826.0375
292.14735	11713.9375
296.37445	11734.3375
300.59849	11777.2375
304.81948	11867.2375
309.03742	11891.3375
313.25231	11888.4375
317.46415	11726.5375
321.67296	11452.7375
325.87872	11260.1375
330.08145	11131.4375
334.28114	11129.2375
338.47781	11177.1375
342.67145	11325.5375
346.86207	11485.1375
351.04966	11766.5375
355.23424	12030.6375
359.4158	12235.5375
363.59435	12377.2375
367.76989	12475.6375
371.94243	12553.5375
376.11196	12601.6375
380.27849	12643.8375
384.44203	12701.9375
388.60257	12765.5375
392.76012	12849.5375
396.91468	12942.2375
401.06626	13101.5375
405.21485	13201.8375
409.36047	13094.3375
413.50311	12889.9375
417.64277	12693.9375
421.77947	12603.5375
425.9132	12565.2375
430.04396	12663.6375
434.17176	12739.9375
438.2966	12839.6375
442.41849	13019.9375
446.53742	13275.3375
450.6534	13593.7375
454.76644	13736.8375
458.87653	13795.3375
462.98368	13755.9375
467.08789	13628.7375
471.18916	13520.3375
475.2875	13341.6375
479.38291	13186.8375
483.4754	13083.3375
487.56496	12973.6375
491.6516	12871.7375
495.73531	12800.6375
499.81612	12782.1375
503.89401	12834.5375
507.96899	12886.7375
512.04106	12942.5375
516.11023	12984.0375
520.1765	13001.5375
524.23987	12979.1375
528.30034	12924.1375
532.35792	12847.5375
536.41261	12775.1375
540.46441	12643.7375
544.51333	12584.5375
548.55936	12659.3375
552.60252	12819.8375
556.64279	13037.7375
560.6802	13190.5375
564.71473	13213.7375
568.7464	13308.6375
572.7752	13486.6375
576.80114	13582.0375
580.82422	13629.1375
584.84444	13799.2375
588.86181	14164.2375
592.87633	14547.1375
596.888	14686.0375
600.89682	14531.2375
604.9028	14684.4375
608.90594	15868.6375
612.90624	17443.6375
616.90371	16842.4375
620.89834	14302.2375
624.89015	13102.2375
628.87913	12883.5375
632.86528	13025.0375
636.84862	13165.8375
640.82913	13099.3375
644.80683	12844.4375
648.78172	12659.4375
652.75379	12621.9375
656.72306	12739.0375
660.68952	12919.5375
664.65319	12870.1375
668.61405	12640.4375
672.57211	12607.7375
676.52738	12690.7375
680.47986	12759.6375
684.42955	12703.2375
688.37646	12587.6375
692.32058	12551.3375
696.26192	12592.9375
700.20048	12658.8375
704.13626	12719.2375
708.06928	12706.3375
711.99952	12664.0375
715.927	12642.9375
719.85171	12661.5375
723.77365	12685.1375
727.69284	12594.4375
731.60928	12542.6375
735.52295	12509.3375
739.43388	12499.1375
743.34206	12511.0375
747.24749	12544.8375
751.15017	12579.7375
755.05012	12700.5375
758.94733	12933.0375
762.8418	13503.8375
766.73354	14428.1375
770.62254	15389.1375
774.50882	15833.6375
778.39237	15344.2375
782.27321	14314.6375
786.15132	13397.4375
790.02671	12831.0375
793.89938	12530.9375
797.76935	12398.1375
801.6366	12357.3375
805.50115	12287.3375
809.36299	12255.5375
813.22213	12207.8375
817.07857	12179.9375
820.93231	12186.4375
824.78336	12127.6375
828.63172	12069.3375
832.47738	12083.9375
836.32036	12052.9375
840.16066	12032.2375
843.99827	12017.0375
847.8332	12010.2375
851.66546	12019.6375
855.49504	12026.1375
859.32195	12065.6375
863.1462	12025.1375
866.96777	12026.8375
870.78668	12025.5375
874.60293	12055.3375
878.41652	12039.7375
882.22745	12112.4375
886.03573	12154.5375
889.84136	12136.2375
893.64433	12123.4375
897.44466	12061.3375
901.24235	11989.2375
905.0374	11970.7375
908.8298	11922.9375
912.61957	11866.3375
916.40671	11911.2375
920.19121	11968.1375
923.97308	12026.2375
927.75233	12056.7375
931.52895	12025.2375
935.30295	11918.1375
939.07433	11748.1375
942.84309	11608.6375
946.60924	11519.0375
950.37278	11501.8375
954.13371	11481.1375
957.89203	11458.3375
961.64774	11456.4375
965.40086	11394.4375
969.15137	11359.8375
972.89929	11321.1375
976.64461	11291.9375
980.38733	11277.2375
984.12747	11274.4375
987.86502	11306.4375
991.59999	11332.6375
995.33237	11380.9375
999.06217	11539.2375
1002.78939	11641.8375
1006.51404	11787.7375
1010.23611	11928.2375
1013.95561	12007.5375
1017.67255	12094.9375
1021.38692	12047.3375
1025.09872	11890.9375
1028.80796	11749.8375
1032.51465	11672.4375
1036.21877	11651.8375
1039.92035	11700.4375
1043.61937	11734.9375
1047.31584	11765.5375
1051.00976	11796.8375
1054.70114	11813.9375
1058.38998	11834.4375
1062.07627	11862.1375
1065.76003	11904.6375
1069.44126	11986.5375
1073.11995	12089.8375
1076.79611	12163.6375
1080.46974	12272.6375
1084.14085	12346.0375
1087.80943	12426.5375
1091.47549	12507.3375
1095.13903	12512.6375
1098.80005	12352.9375
1102.45857	12198.3375
1106.11456	12090.1375
1109.76805	12045.7375
1113.41903	12093.2375
1117.06751	12247.1375
1120.71348	12440.1375
1124.35696	12680.9375
1127.99793	12910.0375
1131.63641	13011.7375
1135.2724	12907.8375
1138.90589	12690.0375
1142.5369	12549.6375
1146.16542	12462.5375
1149.79145	12447.2375
1153.415	12435.6375
1157.03607	12460.2375
1160.65467	12642.5375
1164.27079	12932.1375
1167.88443	13351.2375
1171.49561	13957.7375
1175.10432	14754.6375
1178.71056	15808.2375
1182.31434	16752.8375
1185.91565	17218.9375
1189.51451	17133.4375
1193.11091	16670.6375
1196.70485	16112.1375
1200.29634	15555.3375
1203.88538	15079.1375
1207.47197	14554.1375
1211.05612	14159.0375
1214.63782	13829.8375
1218.21708	13636.3375
1221.79391	13541.3375
1225.36829	13495.4375
1228.94024	13472.3375
1232.50976	13394.7375
1236.07685	13325.0375
1239.6415	13225.6375
1243.20374	13212.2375
1246.76355	13216.9375
1250.32093	13292.8375
1253.8759	13426.7375
1257.42845	13669.5375
1260.97859	13883.0375
1264.52631	14102.6375
1268.07163	14404.4375
1271.61453	14636.4375
1275.15503	14830.3375
1278.69312	15040.3375
1282.22882	15199.3375
1285.76211	15521.1375
1289.29301	15904.4375
1292.82151	16465.5375
1296.34761	17029.6375
1299.87133	17763.5375
1303.39266	18584.6375
1306.9116	19590.6375
1310.42815	20587.5375
1313.94233	21248.4375
1317.45412	21045.0375
1320.96354	20374.2375
1324.47058	19574.5375
1327.97525	18858.6375
1331.47754	18303.8375
1334.97747	18048.9375
1338.47502	17959.6375
1341.97022	18097.4375
1345.46305	18387.0375
1348.95352	18878.1375
1352.44163	19482.8375
1355.92738	20427.7375
1359.41078	21674.3375
1362.89183	22842.6375
1366.37053	22560.6375
1369.84688	20531.8375
1373.32088	18118.8375
1376.79254	16490.3375
1380.26186	15791.7375
1383.72883	15508.4375
1387.19347	15271.9375
1390.65578	15019.2375
1394.11575	14850.9375
1397.57339	14740.3375
1401.0287	14762.0375
1404.48168	14777.1375
1407.93234	14677.7375
1411.38068	14555.0375
1414.82669	14388.6375
1418.27039	14140.4375
1421.71177	13850.9375
1425.15083	13606.3375
1428.58758	13441.1375
1432.02203	13462.0375
1435.45416	13532.1375
1438.88399	13722.3375
1442.31151	13825.8375
1445.73673	13899.0375
1449.15965	13935.7375
1452.58027	13980.3375
1455.9986	13972.2375
1459.41463	13992.6375
1462.82837	14142.4375
1466.23982	14341.9375
1469.64898	14524.6375
1473.05586	14679.4375
1476.46045	14786.3375
1479.86276	14812.9375
1483.26279	14837.8375
1486.66054	14934.8375
1490.05602	15125.9375
1493.44922	15441.8375
1496.84016	15934.3375
1500.22882	16708.7375
1503.61521	17763.8375
1506.99934	18913.7375
1510.38121	19818.5375
1513.76081	19904.4375
1517.13816	19114.9375
1520.51324	17881.6375
1523.88607	16769.3375
1527.25665	16065.5375
1530.62498	15766.8375
1533.99105	15536.8375
1537.35488	15363.3375
1540.71647	15133.1375
1544.07581	14841.0375
1547.4329	14591.4375
1550.78776	14375.0375
1554.14038	14253.7375
1557.49077	14226.7375
1560.83892	14211.1375
1564.18484	14351.5375
1567.52853	14528.8375
1570.86999	14759.2375
1574.20922	14997.3375
1577.54624	15096.5375
1580.88103	14858.6375
1584.2136	14474.6375
1587.54395	14328.6375
1590.87208	14517.6375
1594.19801	14995.7375
1597.52172	15649.3375
1600.84321	15994.4375
1604.16251	15710.5375
1607.47959	15032.5375
1610.79447	14248.5375
1614.10715	13429.8375
1617.41763	12734.1375
1620.7259	12230.8375
1624.03199	11979.5375
1627.33587	11909.0375
1630.63757	12028.3375
1633.93707	12460.4375
1637.23439	13190.6375
1640.52951	14362.1375
1643.82246	15877.2375
1647.11321	17316.6375
1650.40179	17911.4375
1653.68819	17139.6375
1656.97241	15414.7375
1660.25446	13599.8375
1663.53433	12328.9375
1666.81203	11477.5375
1670.08756	11007.9375
1673.36092	10690.2375
1676.63211	10485.9375
1679.90115	10329.2375
1683.16801	10226.3375
1686.43272	10100.7375
1689.69527	10032.8375
1692.95567	9935.7375
1696.2139	9841.3375
1699.46999	9758.0375
1702.72392	9701.1375
1705.97571	9714.9375
1709.22535	9680.4375
1712.47284	9670.1375
1715.71819	9633.2375
1718.96139	9616.6375
1722.20246	9605.2375
1725.44139	9560.1375
1728.67818	9523.1375
1731.91284	9464.5375
1735.14537	9384.6375
1738.37576	9364.4375
1741.60403	9322.4375
1744.83017	9309.2375
1748.05418	9273.4375
1751.27607	9288.6375
1754.49584	9283.5375
1757.71349	9277.5375
1760.92903	9241.7375
1764.14244	9247.2375
1767.35375	9217.9375
1770.56294	9155.1375
1773.77002	9123.8375
1776.97499	9107.3375
1780.17785	9086.9375
1783.37861	9071.6375
1786.57727	9049.7375
1789.77382	8994.3375
1792.96828	9000.4375
1796.16064	8952.1375
1799.3509	8960.2375
1802.53907	8913.5375
1805.72514	8911.5375
1808.90913	8880.6375
1812.09102	8850.9375
1815.27083	8849.5375
1818.44856	8809.4375
1821.6242	8807.1375
1824.79776	8772.6375
1827.96924	8783.4375
1831.13864	8759.3375
1834.30597	8778.3375
1837.47122	8754.6375
1840.6344	8696.5375
1843.7955	8718.5375
1846.95454	8680.2375
1850.11151	8673.1375
1853.26642	8663.1375
1856.41926	8647.5375
1859.57004	8665.5375
1862.71876	8648.9375
1865.86542	8610.3375
1869.01003	8638.8375
1872.15258	8612.3375
1875.29308	8595.9375
1878.43152	8596.2375
1881.56792	8581.0375
1884.70227	8583.6375
1887.83457	8568.5375
1890.96482	8588.9375
1894.09304	8526.4375
1897.21921	8500.0375
1900.34335	8521.9375
1903.46544	8534.1375
1906.58551	8477.7375
1909.70353	8503.5375
1912.81953	8453.2375
1915.93349	8451.4375
1919.04543	8435.2375
1922.15534	8385.3375
1925.26322	8380.8375
1928.36908	8365.1375
1931.47292	8321.2375
1934.57473	8326.8375
1937.67453	8292.8375
1940.77232	8291.1375
1943.86808	8252.9375
1946.96184	8248.0375
1950.05358	8197.3375
1953.14331	8165.5375
1956.23103	8154.4375
1959.31675	8139.4375
1962.40046	8084.5375
1965.48217	8085.4375
1968.56188	8051.6375
1971.63959	8012.9375
1974.7153	7998.3375
1977.78901	7967.9375
1980.86073	7953.4375
1983.93046	7932.4375
1986.99819	7912.4375
1990.06394	7886.3375
1993.1277	7856.2375
1996.18947	7825.4375
1999.24925	7806.0375
2002.30706	7783.2375
2005.36288	7735.5375
2008.41672	7736.6375
2011.46859	7712.2375
2014.51848	7687.4375
2017.56639	7655.6375
2020.61233	7647.7375
2023.6563	7612.4375
2026.6983	7597.0375
2029.73833	7556.3375
2032.7764	7535.2375
2035.8125	7531.5375
2038.84664	7503.0375
2041.87881	7480.5375
2044.90903	7455.2375
2047.93729	7462.0375
2050.96359	7465.4375
2053.98794	7435.7375
2057.01034	7441.4375
2060.03078	7432.9375
2063.04927	7397.0375
2066.06582	7405.7375
2069.08042	7383.9375
2072.09307	7364.0375
2075.10378	7359.9375
2078.11255	7362.8375
2081.11938	7366.0375
2084.12426	7354.1375
2087.12722	7350.1375
2090.12824	7358.7375
2093.12732	7372.4375
2096.12447	7352.2375
2099.11969	7349.5375
2102.11299	7345.5375
2105.10435	7349.2375
2108.09379	7352.7375
2111.08131	7358.9375
2114.0669	7346.5375
2117.05057	7328.9375
2120.03233	7355.3375
2123.01216	7362.4375
2125.99008	7377.9375
2128.96609	7384.5375
2131.94018	7387.5375
2134.91236	7355.3375
2137.88263	7371.5375
2140.851	7378.0375
2143.81746	7375.6375
2146.78201	7368.0375
2149.74466	7378.8375
2152.7054	7367.3375
2155.66425	7361.2375
2158.6212	7354.6375
2161.57625	7329.1375
2164.52941	7331.0375
2167.48067	7340.3375
2170.43004	7328.9375
2173.37752	7320.5375
2176.32311	7318.2375
2179.26681	7316.0375
2182.20863	7318.5375
2185.14856	7336.4375
2188.08661	7296.6375
2191.02278	7307.5375
2193.95707	7306.7375
2196.88948	7300.4375
2199.82001	7286.2375
2202.74867	7295.7375
2205.67545	7261.1375
2208.60037	7245.8375
2211.52341	7244.1375
2214.44458	7223.0375
2217.36388	7208.9375
2220.28132	7208.2375
2223.1969	7183.5375
2226.11061	7151.2375
2229.02246	7145.5375
2231.93245	7129.1375
2234.84058	7139.5375
2237.74686	7116.2375
2240.65128	7087.2375
2243.55385	7092.3375
2246.45456	7067.4375
2249.35343	7060.5375
2252.25044	7052.5375
2255.14561	7033.8375
2258.03893	7031.0375
2260.93041	7014.8375
2263.82004	6989.1375
2266.70783	6980.5375
2269.59378	6980.7375
2272.4779	6954.5375
2275.36017	6923.5375
2278.24061	6923.9375
2281.11922	6903.0375
2283.996	6873.0375
2286.87094	6865.2375
2289.74405	6865.1375
2292.61534	6836.6375
2295.4848	6849.0375
2298.35243	6831.5375
2301.21824	6807.3375
2304.08223	6816.4375
2306.94439	6814.1375
2309.80474	6798.6375
2312.66327	6792.5375
2315.51999	6776.1375
2318.37489	6758.1375
2321.22797	6737.9375
2324.07925	6735.8375
2326.92871	6726.6375
2329.77637	6737.2375
2332.62222	6702.7375
2335.46626	6715.8375
2338.3085	6687.5375
2341.14893	6675.6375
2343.98756	6672.9375
2346.8244	6660.6375
2349.65943	6660.4375
2352.49267	6656.7375
2355.32411	6645.4375
2358.15376	6649.9375
2360.98161	6661.4375
2363.80768	6637.2375
2366.63195	6642.4375
2369.45444	6614.4375
2372.27514	6644.0375
2375.09405	6609.6375
2377.91118	6596.7375
2380.72652	6596.2375
2383.54009	6574.0375
2386.35187	6546.2375
2389.16188	6532.4375
2391.97011	6524.7375
2394.77657	6506.6375
2397.58125	6480.5375
2400.38416	6467.9375
2403.18529	6442.9375
2405.98466	6451.2375
2408.78226	6433.6375
2411.57809	6415.5375
2414.37216	6415.4375
2417.16446	6413.2375
2419.955	6412.4375
2422.74378	6409.3375
2425.5308	6376.6375
2428.31606	6381.3375
2431.09956	6372.8375
2433.88131	6360.2375
2436.6613	6365.7375
2439.43954	6354.9375
2442.21603	6352.1375
2444.99077	6341.4375
2447.76377	6342.0375
2450.53501	6347.9375
2453.30451	6342.9375
2456.07226	6319.0375
2458.83827	6309.3375
2461.60254	6331.2375
2464.36507	6309.2375
2467.12586	6299.5375
2469.88492	6295.2375
2472.64224	6287.4375
2475.39782	6272.5375
2478.15167	6294.1375
2480.90379	6283.9375
2483.65417	6282.5375
2486.40283	6269.4375
2489.14976	6304.9375
2491.89497	6275.7375
2494.63845	6287.2375
2497.3802	6264.6375
2500.12024	6288.3375
2502.85855	6243.3375
2505.59514	6237.5375
2508.33002	6221.1375
2511.06318	6211.9375
2513.79462	6220.5375
2516.52435	6181.6375
2519.25237	6201.1375
2521.97867	6170.5375
2524.70327	6173.6375
2527.42616	6134.5375
2530.14734	6145.2375
2532.86681	6121.4375
2535.58458	6121.5375
2538.30065	6111.0375
2541.01501	6114.5375
2543.72768	6090.2375
2546.43864	6101.9375
2549.14791	6086.5375
2551.85548	6072.1375
2554.56136	6046.1375
2557.26554	6059.3375
2559.96803	6033.8375
2562.66883	6041.7375
2565.36794	6026.3375
2568.06536	6006.1375
2570.7611	5989.5375
2573.45514	5983.3375
2576.14751	5974.2375
2578.83819	5959.8375
2581.52719	5964.0375
2584.21451	5952.0375
2586.90015	5925.8375
2589.58411	5910.5375
2592.2664	5907.9375
2594.94701	5904.5375
2597.62594	5886.1375
2600.30321	5878.4375
2602.9788	5879.1375
2605.65273	5859.7375
2608.32498	5862.5375
2610.99557	5844.7375
2613.66449	5861.2375
2616.33175	5851.8375
2618.99734	5832.2375
2621.66128	5831.7375
2624.32355	5800.0375
2626.98416	5796.8375
2629.64311	5781.5375
2632.30041	5785.4375
2634.95605	5775.0375
2637.61004	5754.0375
2640.26238	5753.2375
2642.91306	5753.2375
2645.56209	5748.6375
2648.20948	5762.7375
2650.85521	5741.1375
2653.4993	5739.2375
2656.14175	5736.5375
2658.78255	5751.2375
2661.42171	5732.9375
2664.05923	5744.2375
2666.6951	5751.2375
2669.32934	5729.9375
2671.96194	5749.7375
2674.59291	5728.8375
2677.22224	5728.5375
2679.84993	5735.7375
2682.476	5740.8375
2685.10043	5719.9375
2687.72324	5701.1375
2690.34441	5708.9375
2692.96396	5696.3375
2695.58188	5733.5375
2698.19818	5716.9375
2700.81285	5730.9375
2703.4259	5682.2375
2706.03733	5677.6375
2708.64714	5692.8375
2711.25533	5702.9375
2713.86191	5699.1375
2716.46687	5705.8375
2719.07021	5711.7375
2721.67194	5721.1375
2724.27206	5707.4375
2726.87057	5715.0375
2729.46747	5700.2375
2732.06276	5710.6375
2734.65644	5699.4375
2737.24852	5704.9375
2739.83899	5698.7375
2742.42786	5710.8375
2745.01513	5669.4375
2747.60079	5662.4375
2750.18486	5667.1375
2752.76733	5663.6375
2755.3482	5637.4375
2757.92747	5632.3375
2760.50515	5602.9375
2763.08123	5619.8375
2765.65573	5599.9375
2768.22863	5599.9375
2770.79994	5607.5375
2773.36967	5582.2375
2775.9378	5590.0375
2778.50435	5577.7375
2781.06932	5552.2375
2783.6327	5573.8375
2786.1945	5563.2375
2788.75471	5560.5375
2791.31335	5533.7375
2793.87041	5535.9375
2796.42589	5519.4375
2798.97979	5508.3375
2801.53212	5481.2375
2804.08288	5488.1375
2806.63206	5475.0375
2809.17967	5467.9375
2811.72571	5442.5375
2814.27018	5449.6375
2816.81308	5432.0375
2819.35442	5415.0375
2821.89419	5435.7375
2824.43239	5418.2375
2826.96904	5415.5375
2829.50412	5426.7375
2832.03763	5415.7375
2834.56959	5408.4375
2837.1	5415.9375
2839.62884	5415.9375
2842.15613	5416.3375
2844.68186	5448.1375
2847.20604	5451.0375
2849.72867	5471.3375
2852.24974	5450.4375
2854.76927	5452.1375
2857.28724	5432.1375
2859.80367	5441.8375
2862.31855	5435.5375
2864.83189	5434.3375
2867.34368	5424.2375
2869.85393	5411.0375
2872.36264	5396.4375
2874.8698	5393.8375
2877.37543	5385.6375
2879.87952	5387.5375
2882.38207	5401.5375
2884.88308	5381.9375
2887.38256	5396.8375
2889.88051	5394.2375
2892.37692	5396.4375
2894.8718	5388.9375
2897.36515	5391.4375
2899.85698	5396.5375
2902.34727	5410.5375
2904.83604	5415.3375
2907.32328	5425.7375
2909.809	5424.6375
2912.29319	5438.9375
2914.77587	5439.7375
2917.25702	5442.9375
2919.73665	5415.2375
2922.21476	5426.8375
2924.69136	5440.8375
2927.16644	5427.9375
2929.64	5428.1375
2932.11205	5412.6375
2934.58258	5405.6375
2937.05161	5417.5375
2939.51912	5408.0375
2941.98513	5405.1375
2944.44962	5376.2375
2946.91261	5349.0375
2949.37409	5380.7375
2951.83407	5345.8375
2954.29254	5343.3375
2956.74951	5318.1375
2959.20498	5321.6375
2961.65895	5316.8375
2964.11142	5320.6375
2966.56239	5300.3375
2969.01186	5270.3375
2971.45984	5248.4375
2973.90632	5254.4375
2976.35131	5223.4375
2978.7948	5220.3375
2981.23681	5206.4375
2983.67732	5188.6375
2986.11635	5187.3375
2988.55388	5154.4375
2990.98993	5166.2375
2993.4245	5159.8375
2995.85758	5139.3375
2998.28917	5120.3375
3000.71928	5111.6375
3003.14791	5097.3375
3005.57506	5089.4375
3008.00073	5085.5375
3010.42493	5072.1375
3012.84764	5061.8375
3015.26888	5083.5375
3017.68865	5064.7375
3020.10694	5036.4375
3022.52376	5049.2375
3024.9391	5030.9375
3027.35298	5014.4375
3029.76539	5005.1375
3032.17632	4995.0375
3034.5858	4992.4375
3036.9938	4990.3375
3039.40034	4989.3375
3041.80542	4985.9375
3044.20903	4986.1375
3046.61118	4947.0375
3049.01187	4947.0375
3051.4111	4942.3375
3053.80888	4949.9375
3056.20519	4947.2375
3058.60005	4933.5375
3060.99345	4936.6375
3063.3854	4908.9375
3065.7759	4890.7375
3068.16494	4900.1375
3070.55254	4892.0375
3072.93868	4880.2375
3075.32338	4840.0375
3077.70662	4851.5375
3080.08842	4831.5375
3082.46878	4828.4375
3084.84769	4821.2375
3087.22515	4830.3375
3089.60118	4829.4375
3091.97576	4833.5375
3094.3489	4826.0375
3096.72061	4834.6375
3099.09087	4818.4375
3101.4597	4815.0375
3103.82709	4844.1375
3106.19305	4819.8375
3108.55757	4833.7375
3110.92066	4818.6375
3113.28232	4797.1375
3115.64255	4787.5375
3118.00134	4798.8375
3120.35871	4785.3375
3122.71466	4766.1375
3125.06917	4753.9375
3127.42226	4764.1375
3129.77393	4757.0375
3132.12417	4780.1375
3134.47299	4779.1375
3136.82039	4769.9375
3139.16636	4762.9375
3141.51092	4771.4375
3143.85406	4773.3375
3146.19579	4775.7375
3148.53609	4801.8375
3150.87499	4797.1375
3153.21246	4792.1375
3155.54853	4788.8375
3157.88318	4808.1375
3160.21642	4824.0375
3162.54826	4812.7375
3164.87868	4802.2375
3167.2077	4799.6375
3169.5353	4811.5375
3171.86151	4818.4375
3174.18631	4809.2375
3176.5097	4809.1375
3178.83169	4799.6375
3181.15228	4807.1375
3183.47147	4783.7375
3185.78926	4775.3375
3188.10565	4774.9375
3190.42065	4780.6375
3192.73424	4780.0375
3195.04645	4776.0375
3197.35725	4798.1375
3199.66667	4788.6375
3201.97469	4794.2375
3204.28132	4791.4375
3206.58656	4811.4375
3208.8904	4789.6375
3211.19287	4805.5375
3213.49394	4795.3375
3215.79363	4797.6375
3218.09193	4804.2375
3220.38884	4805.2375
3222.68438	4818.9375
3224.97853	4804.3375
3227.2713	4814.7375
3229.56269	4815.4375
3231.8527	4808.2375
3234.14133	4798.9375
3236.42858	4773.1375
3238.71446	4768.1375
3240.99896	4744.9375
3243.28209	4748.2375
3245.56384	4718.8375
3247.84423	4746.2375
3250.12324	4746.6375
3252.40088	4736.1375
3254.67715	4735.3375
3256.95205	4732.6375
3259.22558	4726.2375
3261.49775	4733.8375
3263.76855	4727.9375
3266.03799	4714.8375
3268.30606	4714.2375
3270.57277	4704.8375
3272.83812	4685.2375
3275.10211	4679.7375
3277.36474	4670.6375
3279.62601	4670.9375
3281.88593	4663.4375
3284.14448	4678.1375
3286.40168	4667.0375
3288.65753	4662.3375
3290.91202	4644.0375
3293.16516	4646.4375
3295.41695	4626.9375
3297.66738	4619.2375
3299.91647	4598.1375
3302.16421	4585.8375
3304.4106	4560.3375
3306.65564	4526.9375
3308.89933	4496.5375
3311.14169	4474.4375
3313.38269	4429.3375
3315.62236	4412.6375
3317.86068	4361.2375
3320.09766	4349.4375
3322.3333	4311.1375
3324.5676	4292.0375
3326.80056	4220.0375
3329.03219	4213.2375
3331.26248	3.6375
3333.49143	-0.5625
3335.71905	-0.6625
