Data from AgNPs_FTO_APTES_UA_50uM_CRN_0uM_R6G_10uM_NaF_0.1M_Addition_RamanShift__2__10-12-34-616.txt Node

Date: Mon Feb 21 10:12:34 GMT 2022
User: TCL
Spectrometer: QEP01345
Trigger mode: 4
Integration Time (sec): 7.000000E0
Scans to average: 10
Electric dark correction enabled: true
Nonlinearity correction enabled: false
Boxcar width: 0
XAxis mode: Raman Shifts
Number of Pixels in Spectrum: 1044
>>>>>Begin Spectral Data<<<<<
46.04893	0.2
50.45542	0.1
54.85868	1.1
59.25871	1.1
63.6555	24.7
68.04907	27.4
72.43941	28.3
76.82654	27.6
81.21044	32.3
85.59113	36.7
89.96862	37.7
94.34289	36.7
98.71396	36
103.08183	45.4
107.4465	43
111.80798	41.5
116.16626	39.9
120.52136	38.1
124.87327	46.3
129.222	41.3
133.56755	40.6
137.90993	43.8
142.24913	45
146.58517	49.9
150.91804	51.5
155.24774	61.8
159.57429	68.2
163.89768	85.4
168.21792	109.2
172.53501	136.7
176.84895	184.3
181.15975	249.1
185.46741	345.8
189.77193	478.3
194.07331	640.1
198.37157	833.9
202.6667	1020.1
206.9587	1227
211.24758	1429.8
215.53334	1630.4
219.81599	1854.4
224.09553	2104.9
228.37195	2373.5
232.64527	2674.3
236.91549	2955
241.18261	3233
245.44663	3476.5
249.70755	3706.2
253.96539	3878.8
258.22014	4009.7
262.4718	4141.3
266.72039	4213.6
270.96589	4248.3
275.20832	4209.2
279.44768	4161
283.68397	4029.4
287.91719	3957.1
292.14735	3878.7
296.37445	3874.5
300.59849	3949
304.81948	4021.6
309.03742	4108.3
313.25231	4102.8
317.46415	3997.1
321.67296	3780.9
325.87872	3578.6
330.08145	3466.5
334.28114	3416.4
338.47781	3435.5
342.67145	3462.1
346.86207	3558
351.04966	3706
355.23424	3848.5
359.4158	3959.7
363.59435	4001.8
367.76989	3992
371.94243	3961
376.11196	3929.7
380.27849	3919.1
384.44203	3869.8
388.60257	3835.6
392.76012	3818.5
396.91468	3827.1
401.06626	3889.1
405.21485	3927.5
409.36047	3864.6
413.50311	3713.2
417.64277	3542.4
421.77947	3426.7
425.9132	3388.1
430.04396	3365.9
434.17176	3363.4
438.2966	3403.8
442.41849	3482.7
446.53742	3568.3
450.6534	3622.3
454.76644	3660.5
458.87653	3664.5
462.98368	3644.1
467.08789	3613.7
471.18916	3545.2
475.2875	3491.6
479.38291	3427.4
483.4754	3388.8
487.56496	3357.4
491.6516	3351.1
495.73531	3360.1
499.81612	3386.5
503.89401	3418.7
507.96899	3451.9
512.04106	3515.1
516.11023	3560.6
520.1765	3582.2
524.23987	3579.9
528.30034	3549.9
532.35792	3513
536.41261	3459.3
540.46441	3391.7
544.51333	3347.3
548.55936	3360.3
552.60252	3394.2
556.64279	3464.7
560.6802	3524
564.71473	3571.9
568.7464	3656
572.7752	3710.2
576.80114	3635.9
580.82422	3543.6
584.84444	3521.3
588.86181	3578.6
592.87633	3682.5
596.888	3719.5
600.89682	3716.6
604.9028	3898.7
608.90594	4684
612.90624	5926.1
616.90371	5994.1
620.89834	4472
624.89015	3609.5
628.87913	3408.9
632.86528	3418
636.84862	3478.3
640.82913	3457.8
644.80683	3370
648.78172	3286.6
652.75379	3293.1
656.72306	3373.7
660.68952	3522.3
664.65319	3512.6
668.61405	3390.2
672.57211	3321.8
676.52738	3337.8
680.47986	3367.5
684.42955	3359.2
688.37646	3339.4
692.32058	3335.6
696.26192	3337.2
700.20048	3322.9
704.13626	3344.2
708.06928	3331.3
711.99952	3333.9
715.927	3329.3
719.85171	3372.5
723.77365	3369.2
727.69284	3337.8
731.60928	3322.7
735.52295	3300.1
739.43388	3288.4
743.34206	3288.8
747.24749	3298.9
751.15017	3295.9
755.05012	3311.3
758.94733	3420.9
762.8418	3667.3
766.73354	4190.6
770.62254	4754.6
774.50882	5056.7
778.39237	4892.4
782.27321	4356.3
786.15132	3847
790.02671	3515.5
793.89938	3377.9
797.76935	3305.7
801.6366	3275.7
805.50115	3270.2
809.36299	3262.1
813.22213	3244.4
817.07857	3229.5
820.93231	3222.9
824.78336	3204.8
828.63172	3221.9
832.47738	3219.2
836.32036	3202.4
840.16066	3185.1
843.99827	3197.7
847.8332	3194.1
851.66546	3172
855.49504	3168.3
859.32195	3161.2
863.1462	3164.5
866.96777	3155.5
870.78668	3160
874.60293	3151.2
878.41652	3175.1
882.22745	3181.4
886.03573	3201.4
889.84136	3213
893.64433	3211.2
897.44466	3225.1
901.24235	3224.1
905.0374	3226
908.8298	3219.6
912.61957	3208.9
916.40671	3230.6
920.19121	3267.7
923.97308	3315.5
927.75233	3360.3
931.52895	3392.4
935.30295	3358
939.07433	3265.5
942.84309	3185.4
946.60924	3115.4
950.37278	3068.2
954.13371	3044.7
957.89203	3024.2
961.64774	2995.8
965.40086	2989
969.15137	2976.8
972.89929	2947.8
976.64461	2935.1
980.38733	2925.1
984.12747	2910.7
987.86502	2927.9
991.59999	2928.3
995.33237	2958.2
999.06217	2988.5
1002.78939	3037.8
1006.51404	3063.7
1010.23611	3115.6
1013.95561	3139
1017.67255	3121.2
1021.38692	3119.7
1025.09872	3070.7
1028.80796	3031.6
1032.51465	3013
1036.21877	3033.3
1039.92035	3048.4
1043.61937	3073
1047.31584	3102.1
1051.00976	3125.9
1054.70114	3156.6
1058.38998	3149
1062.07627	3180.2
1065.76003	3159.3
1069.44126	3148.8
1073.11995	3140.3
1076.79611	3161.5
1080.46974	3205.6
1084.14085	3249.6
1087.80943	3318.7
1091.47549	3350.8
1095.13903	3303.9
1098.80005	3182.3
1102.45857	3088.8
1106.11456	3043.3
1109.76805	3040.7
1113.41903	3101.5
1117.06751	3172.2
1120.71348	3267.5
1124.35696	3387
1127.99793	3518.7
1131.63641	3556.6
1135.2724	3405.7
1138.90589	3242.1
1142.5369	3146.1
1146.16542	3083.2
1149.79145	3024.3
1153.415	2993.5
1157.03607	3007.2
1160.65467	3050.8
1164.27079	3147.7
1167.88443	3313.1
1171.49561	3558.3
1175.10432	3943.4
1178.71056	4489
1182.31434	4943.8
1185.91565	5024.7
1189.51451	4841.7
1193.11091	4527.9
1196.70485	4180.6
1200.29634	3930.4
1203.88538	3715.9
1207.47197	3510.7
1211.05612	3319.7
1214.63782	3205.3
1218.21708	3169.7
1221.79391	3153.9
1225.36829	3187.3
1228.94024	3231.4
1232.50976	3196.8
1236.07685	3170.7
1239.6415	3130.1
1243.20374	3105.8
1246.76355	3075.3
1250.32093	3087.7
1253.8759	3110.8
1257.42845	3171.4
1260.97859	3276.7
1264.52631	3384.2
1268.07163	3506.6
1271.61453	3622.9
1275.15503	3710.4
1278.69312	3754.6
1282.22882	3785.1
1285.76211	3870
1289.29301	4033.9
1292.82151	4187.7
1296.34761	4351
1299.87133	4567
1303.39266	4895.7
1306.9116	5403.8
1310.42815	6044.8
1313.94233	6482.3
1317.45412	6369.5
1320.96354	5830.7
1324.47058	5258.7
1327.97525	4766.9
1331.47754	4474.3
1334.97747	4294.4
1338.47502	4254.4
1341.97022	4251.8
1345.46305	4406
1348.95352	4683.9
1352.44163	5138.4
1355.92738	5789.9
1359.41078	6700.2
1362.89183	7755.5
1366.37053	7905.1
1369.84688	6733.2
1373.32088	5365.1
1376.79254	4519.8
1380.26186	4109.8
1383.72883	3888.1
1387.19347	3727.1
1390.65578	3591.5
1394.11575	3518.9
1397.57339	3496
1401.0287	3522.1
1404.48168	3507
1407.93234	3488.4
1411.38068	3450.4
1414.82669	3405.6
1418.27039	3402.7
1421.71177	3390.3
1425.15083	3341.2
1428.58758	3295.6
1432.02203	3295
1435.45416	3338.1
1438.88399	3376.6
1442.31151	3369
1445.73673	3340.6
1449.15965	3345.1
1452.58027	3330.5
1455.9986	3294.1
1459.41463	3296.4
1462.82837	3306.9
1466.23982	3334.7
1469.64898	3404.1
1473.05586	3456.6
1476.46045	3480.1
1479.86276	3516.1
1483.26279	3565.8
1486.66054	3623.4
1490.05602	3740.9
1493.44922	3898.5
1496.84016	4163.2
1500.22882	4613
1503.61521	5248.9
1506.99934	6007
1510.38121	6802.1
1513.76081	7177
1517.13816	6854.9
1520.51324	5954.9
1523.88607	5019.7
1527.25665	4353.2
1530.62498	4001.4
1533.99105	3783.7
1537.35488	3612.4
1540.71647	3483.5
1544.07581	3385.9
1547.4329	3372.9
1550.78776	3360.5
1554.14038	3381.7
1557.49077	3444.8
1560.83892	3527.4
1564.18484	3629.9
1567.52853	3752.4
1570.86999	3913.4
1574.20922	4002.7
1577.54624	3998.5
1580.88103	3815.6
1584.2136	3510.8
1587.54395	3316
1590.87208	3286.3
1594.19801	3394.2
1597.52172	3595.6
1600.84321	3706.5
1604.16251	3581.7
1607.47959	3364.2
1610.79447	3150.1
1614.10715	2954.7
1617.41763	2776.2
1620.7259	2657.5
1624.03199	2599.4
1627.33587	2597.5
1630.63757	2637.9
1633.93707	2731
1637.23439	2927.5
1640.52951	3232.8
1643.82246	3736.2
1647.11321	4334.9
1650.40179	4788.4
1653.68819	4682.1
1656.97241	4012.1
1660.25446	3213.8
1663.53433	2670
1666.81203	2381.5
1670.08756	2223.6
1673.36092	2163
1676.63211	2139.7
1679.90115	2091.9
1683.16801	2066.3
1686.43272	2029.2
1689.69527	1991
1692.95567	1913.4
1696.2139	1803.6
1699.46999	1697.9
1702.72392	1662.7
1705.97571	1753.9
1709.22535	1854.2
1712.47284	1925.4
1715.71819	1976.7
1718.96139	1987
1722.20246	1998.7
1725.44139	1988.5
1728.67818	1988
1731.91284	1972.3
1735.14537	1983
1738.37576	1960.2
1741.60403	1955.5
1744.83017	1958
1748.05418	1938.5
1751.27607	1909.2
1754.49584	1872.7
1757.71349	1826.5
1760.92903	1807
1764.14244	1815.8
1767.35375	1850.2
1770.56294	1858.2
1773.77002	1888.1
1776.97499	1968.5
1780.17785	2032.6
1783.37861	2078.4
1786.57727	2104.3
1789.77382	2124.7
1792.96828	2134.4
1796.16064	2135.4
1799.3509	2128.4
1802.53907	2105.7
1805.72514	2105.1
1808.90913	2076.9
1812.09102	2053.7
1815.27083	2031.9
1818.44856	2018.8
1821.6242	1973
1824.79776	1960.2
1827.96924	1938.4
1831.13864	1910.7
1834.30597	1885.4
1837.47122	1870.8
1840.6344	1851.3
1843.7955	1827
1846.95454	1804
1850.11151	1791.6
1853.26642	1782.9
1856.41926	1762.5
1859.57004	1753.6
1862.71876	1748.8
1865.86542	1745.5
1869.01003	1728.2
1872.15258	1720.5
1875.29308	1719.4
1878.43152	1710.1
1881.56792	1705.9
1884.70227	1702.7
1887.83457	1691.8
1890.96482	1698.3
1894.09304	1684.3
1897.21921	1684.2
1900.34335	1679.5
1903.46544	1677.4
1906.58551	1680
1909.70353	1669.8
1912.81953	1664.8
1915.93349	1664.2
1919.04543	1662.3
1922.15534	1656.8
1925.26322	1652.4
1928.36908	1643.2
1931.47292	1629.7
1934.57473	1624.7
1937.67453	1620.7
1940.77232	1607.2
1943.86808	1607
1946.96184	1614.5
1950.05358	1596.6
1953.14331	1585.4
1956.23103	1587.6
1959.31675	1572.7
1962.40046	1571
1965.48217	1574.1
1968.56188	1572
1971.63959	1565.3
1974.7153	1570.4
1977.78901	1564.1
1980.86073	1553.9
1983.93046	1540.7
1986.99819	1540.9
1990.06394	1527.1
1993.1277	1510
1996.18947	1518.2
1999.24925	1509.7
2002.30706	1501.8
2005.36288	1500.3
2008.41672	1494.9
2011.46859	1482.5
2014.51848	1482.9
2017.56639	1472.5
2020.61233	1460.8
2023.6563	1461.9
2026.6983	1444.8
2029.73833	1447.1
2032.7764	1439.1
2035.8125	1438
2038.84664	1426
2041.87881	1426.7
2044.90903	1418.3
2047.93729	1413.4
2050.96359	1407.4
2053.98794	1410.4
2057.01034	1408.6
2060.03078	1404.7
2063.04927	1403.3
2066.06582	1402.6
2069.08042	1390.1
2072.09307	1408.2
2075.10378	1403.6
2078.11255	1399.9
2081.11938	1402.8
2084.12426	1400.8
2087.12722	1404.8
2090.12824	1399.7
2093.12732	1396.3
2096.12447	1404.1
2099.11969	1395.7
2102.11299	1405.3
2105.10435	1405.4
2108.09379	1403.5
2111.08131	1403.9
2114.0669	1409.5
2117.05057	1400.8
2120.03233	1400.3
2123.01216	1397.9
2125.99008	1399
2128.96609	1389.3
2131.94018	1384.2
2134.91236	1386.6
2137.88263	1381.9
2140.851	1385
2143.81746	1379.2
2146.78201	1376.4
2149.74466	1360.5
2152.7054	1365.2
2155.66425	1361.4
2158.6212	1359.9
2161.57625	1360.2
2164.52941	1348.3
2167.48067	1355.3
2170.43004	1351
2173.37752	1346.8
2176.32311	1348.9
2179.26681	1344
2182.20863	1336.2
2185.14856	1349.3
2188.08661	1341
2191.02278	1339.3
2193.95707	1336.9
2196.88948	1332
2199.82001	1333.2
2202.74867	1328.2
2205.67545	1318.3
2208.60037	1321.6
2211.52341	1314.8
2214.44458	1312.2
2217.36388	1310.9
2220.28132	1309.5
2223.1969	1302.4
2226.11061	1293.1
2229.02246	1293.5
2231.93245	1288.7
2234.84058	1286.4
2237.74686	1282.2
2240.65128	1282.5
2243.55385	1275.6
2246.45456	1272.9
2249.35343	1269.8
2252.25044	1273.6
2255.14561	1260.5
2258.03893	1258.5
2260.93041	1224.9
2263.82004	1239.6
2266.70783	1255.6
2269.59378	1252.7
2272.4779	1244.6
2275.36017	1243
2278.24061	1244.5
2281.11922	1236.9
2283.996	1235
2286.87094	1226.6
2289.74405	1223.6
2292.61534	1224.7
2295.4848	1222.3
2298.35243	1215.6
2301.21824	1210.5
2304.08223	1203.7
2306.94439	1203.3
2309.80474	1201.8
2312.66327	1200.2
2315.51999	1205.5
2318.37489	1202.9
2321.22797	1195.5
2324.07925	1181.6
2326.92871	1180.6
2329.77637	1184.9
2332.62222	1177.4
2335.46626	1178
2338.3085	1179
2341.14893	1172.4
2343.98756	1169.2
2346.8244	1167.8
2349.65943	1179.4
2352.49267	1178
2355.32411	1176.6
2358.15376	1178.8
2360.98161	1178.4
2363.80768	1179.8
2366.63195	1185.8
2369.45444	1180.2
2372.27514	1175.6
2375.09405	1177.1
2377.91118	1182.5
2380.72652	1167.8
2383.54009	1162.7
2386.35187	1159.5
2389.16188	1143.2
2391.97011	1146.2
2394.77657	1146
2397.58125	1131.6
2400.38416	1131.4
2403.18529	1133
2405.98466	1121.3
2408.78226	1124
2411.57809	1119.6
2414.37216	1115.8
2417.16446	1112.8
2419.955	1118.2
2422.74378	1110.9
2425.5308	1112.2
2428.31606	1110.9
2431.09956	1105.8
2433.88131	1099.7
2436.6613	1105
2439.43954	1104
2442.21603	1105.6
2444.99077	1106.4
2447.76377	1104
2450.53501	1108
2453.30451	1098.6
2456.07226	1104.6
2458.83827	1096.2
2461.60254	1103.3
2464.36507	1092.8
2467.12586	1088.4
2469.88492	1090.2
2472.64224	1081.6
2475.39782	1068.2
2478.15167	1064.3
2480.90379	1079.9
2483.65417	1086.3
2486.40283	1090.7
2489.14976	1086.5
2491.89497	1084.5
2494.63845	1061.9
2497.3802	1055.8
2500.12024	1085.3
2502.85855	1084.8
2505.59514	1076.8
2508.33002	1078.3
2511.06318	1067
2513.79462	1056.3
2516.52435	1064.7
2519.25237	1049.6
2521.97867	1050.3
2524.70327	1050.1
2527.42616	1044.2
2530.14734	1035.2
2532.86681	1038.1
2535.58458	1040.6
2538.30065	1033.1
2541.01501	1031.8
2543.72768	1028.7
2546.43864	1031.1
2549.14791	1032.7
2551.85548	1029
2554.56136	1025.4
2557.26554	1028.9
2559.96803	1015.4
2562.66883	1013.1
2565.36794	1019.3
2568.06536	1021.8
2570.7611	1016.8
2573.45514	1013.1
2576.14751	1011.3
2578.83819	1003.7
2581.52719	999.5
2584.21451	1000.1
2586.90015	993.1
2589.58411	993.1
2592.2664	991
2594.94701	988.9
2597.62594	984.5
2600.30321	982.8
2602.9788	972.7
2605.65273	990.2
2608.32498	981
2610.99557	974
2613.66449	972.4
2616.33175	977
2618.99734	981.1
2621.66128	969.3
2624.32355	964
2626.98416	970.8
2629.64311	962
2632.30041	963.5
2634.95605	959.8
2637.61004	954.2
2640.26238	955.5
2642.91306	950.4
2645.56209	946.1
2648.20948	938.2
2650.85521	932.7
2653.4993	941.3
2656.14175	942.5
2658.78255	946.3
2661.42171	944.4
2664.05923	943.6
2666.6951	948
2669.32934	954.1
2671.96194	958.3
2674.59291	949.7
2677.22224	955.5
2679.84993	946
2682.476	941.5
2685.10043	955.7
2687.72324	952
2690.34441	954
2692.96396	944.4
2695.58188	942.7
2698.19818	940
2700.81285	933.2
2703.4259	901.6
2706.03733	796.8
2708.64714	851.2
2711.25533	903.6
2713.86191	919.4
2716.46687	922.7
2719.07021	935.2
2721.67194	940.9
2724.27206	945.4
2726.87057	944
2729.46747	938.6
2732.06276	933.8
2734.65644	939.8
2737.24852	945
2739.83899	940.4
2742.42786	943.3
2745.01513	931.1
2747.60079	937.3
2750.18486	928.1
2752.76733	929
2755.3482	934.3
2757.92747	922.1
2760.50515	930.5
2763.08123	926.6
2765.65573	930.9
2768.22863	916.1
2770.79994	919.9
2773.36967	915.2
2775.9378	919.5
2778.50435	914.8
2781.06932	911.6
2783.6327	922.9
2786.1945	911.2
2788.75471	917.9
2791.31335	914
2793.87041	911.8
2796.42589	911.4
2798.97979	910.7
2801.53212	902.9
2804.08288	910.2
2806.63206	912.7
2809.17967	900.6
2811.72571	904
2814.27018	905.1
2816.81308	908.3
2819.35442	906.7
2821.89419	908.5
2824.43239	900.5
2826.96904	909.1
2829.50412	911
2832.03763	905.6
2834.56959	906.6
2837.1	914.6
2839.62884	920.1
2842.15613	918
2844.68186	933.3
2847.20604	947.1
2849.72867	947.9
2852.24974	951.8
2854.76927	941
2857.28724	918.3
2859.80367	947.3
2862.31855	949.9
2864.83189	964.1
2867.34368	961.2
2869.85393	970.9
2872.36264	986
2874.8698	982.5
2877.37543	994.2
2879.87952	989.5
2882.38207	993.7
2884.88308	997.2
2887.38256	993.7
2889.88051	1003.9
2892.37692	1002.9
2894.8718	994.8
2897.36515	1003.9
2899.85698	1010.9
2902.34727	1009.5
2904.83604	1013.3
2907.32328	1007.6
2909.809	1013.2
2912.29319	1015.6
2914.77587	1012.2
2917.25702	1014.4
2919.73665	1019.9
2922.21476	1014.5
2924.69136	1018.6
2927.16644	1014.4
2929.64	1006.8
2932.11205	1009.1
2934.58258	1004.7
2937.05161	996.5
2939.51912	999.7
2941.98513	988.6
2944.44962	969.1
2946.91261	960.4
2949.37409	964.4
2951.83407	943.5
2954.29254	940.4
2956.74951	936.3
2959.20498	939.9
2961.65895	923.3
2964.11142	922.9
2966.56239	912.9
2969.01186	915.4
2971.45984	904.3
2973.90632	903.9
2976.35131	894.9
2978.7948	884.9
2981.23681	884.9
2983.67732	873.4
2986.11635	876.4
2988.55388	871.7
2990.98993	873.6
2993.4245	872.3
2995.85758	864.5
2998.28917	860.1
3000.71928	860.5
3003.14791	862.9
3005.57506	863.9
3008.00073	862.3
3010.42493	863.9
3012.84764	857.7
3015.26888	854
3017.68865	857
3020.10694	859.2
3022.52376	857.3
3024.9391	853.2
3027.35298	857.2
3029.76539	854.3
3032.17632	859.3
3034.5858	862.8
3036.9938	852.9
3039.40034	849.7
3041.80542	852.7
3044.20903	856
3046.61118	851.8
3049.01187	847.9
3051.4111	850.9
3053.80888	846.7
3056.20519	847.1
3058.60005	856.8
3060.99345	852.5
3063.3854	858
3065.7759	854.9
3068.16494	862.1
3070.55254	863.4
3072.93868	859.4
3075.32338	855.1
3077.70662	861.3
3080.08842	856.1
3082.46878	862
3084.84769	865.1
3087.22515	862.2
3089.60118	865.6
3091.97576	867.1
3094.3489	872.3
3096.72061	877
3099.09087	879.6
3101.4597	882.1
3103.82709	883.9
3106.19305	884.5
3108.55757	888.4
3110.92066	890.8
3113.28232	892.8
3115.64255	897.5
3118.00134	898.7
3120.35871	903.3
3122.71466	905.3
3125.06917	907.2
3127.42226	912.8
3129.77393	916.9
3132.12417	916.9
3134.47299	919.2
3136.82039	920.8
3139.16636	921
3141.51092	936
3143.85406	937.1
3146.19579	939.5
3148.53609	947.1
3150.87499	950
3153.21246	955.9
3155.54853	966.4
3157.88318	968.6
3160.21642	968.6
3162.54826	978.4
3164.87868	984.5
3167.2077	986.2
3169.5353	994.3
3171.86151	995
3174.18631	1001.1
3176.5097	989.6
3178.83169	998.7
3181.15228	1012.3
3183.47147	1013.8
3185.78926	1012.9
3188.10565	1021.3
3190.42065	1016.6
3192.73424	1023.9
3195.04645	1026.8
3197.35725	1030.6
3199.66667	1037.4
3201.97469	1041.4
3204.28132	1038.5
3206.58656	1046.9
3208.8904	1052.7
3211.19287	1058.3
3213.49394	1062
3215.79363	1060.1
3218.09193	1065.8
3220.38884	1041.3
3222.68438	1017.9
3224.97853	1037.7
3227.2713	1056.7
3229.56269	1059.2
3231.8527	1061.9
3234.14133	1062.9
3236.42858	1063.6
3238.71446	1060.9
3240.99896	1063.5
3243.28209	1073.1
3245.56384	1071.3
3247.84423	1070.4
3250.12324	1068.2
3252.40088	1071.3
3254.67715	1074.1
3256.95205	1071.3
3259.22558	1078.6
3261.49775	1076
3263.76855	1072.3
3266.03799	1080.4
3268.30606	1071.2
3270.57277	1075.6
3272.83812	1069.3
3275.10211	1070.5
3277.36474	1071.1
3279.62601	1065.4
3281.88593	1069.8
3284.14448	1068.2
3286.40168	1068.5
3288.65753	1067.2
3290.91202	1062.7
3293.16516	1063.1
3295.41695	1066.5
3297.66738	1056.2
3299.91647	1052.7
3302.16421	1052.1
3304.4106	1045.4
3306.65564	1045.1
3308.89933	1035.9
3311.14169	1019.2
3313.38269	994.5
3315.62236	994.6
3317.86068	1003
3320.09766	993.1
3322.3333	985.6
3324.5676	978.8
3326.80056	922.1
3329.03219	930.4
3331.26248	0.4
3333.49143	-1.5
3335.71905	-1.1
