Data from AgNPs_FTO_APTES_UA_50uM_CRN_1uM_R6G_10uM_NaF_0.1M_Addition_RamanShift__29__11-49-24-747.txt Node

Date: Mon Feb 21 11:49:24 GMT 2022
User: TCL
Spectrometer: QEP01345
Trigger mode: 4
Integration Time (sec): 7.000000E0
Scans to average: 10
Electric dark correction enabled: true
Nonlinearity correction enabled: false
Boxcar width: 0
XAxis mode: Raman Shifts
Number of Pixels in Spectrum: 1044
>>>>>Begin Spectral Data<<<<<
46.04893	0.6
50.45542	-1
54.85868	-1.2
59.25871	-1.4
63.6555	45.8
68.04907	53
72.43941	56
76.82654	56.7
81.21044	59.9
85.59113	67.8
89.96862	63.6
94.34289	70.4
98.71396	69.4
103.08183	73.7
107.4465	77
111.80798	75.6
116.16626	71.9
120.52136	72.1
124.87327	82.7
129.222	80.4
133.56755	80
137.90993	88.1
142.24913	89.3
146.58517	99.9
150.91804	106.6
155.24774	123.6
159.57429	148
163.89768	185.3
168.21792	239
172.53501	320.4
176.84895	439.6
181.15975	614.7
185.46741	848.1
189.77193	1164.7
194.07331	1560.1
198.37157	2009.1
202.6667	2479.9
206.9587	2946.4
211.24758	3414.4
215.53334	3896
219.81599	4439.8
224.09553	5052.5
228.37195	5771
232.64527	6547.9
236.91549	7303.5
241.18261	8004.8
245.44663	8609.9
249.70755	9112.9
253.96539	9511.7
258.22014	9843.4
262.4718	10074
266.72039	10235.2
270.96589	10350.2
275.20832	10322.1
279.44768	10186.2
283.68397	10014.5
287.91719	9937.1
292.14735	9933.3
296.37445	10142.9
300.59849	10538.5
304.81948	10985.1
309.03742	11362.9
313.25231	11378
317.46415	10856.9
321.67296	10020
325.87872	9323.3
330.08145	8997.5
334.28114	8975.7
338.47781	9150.5
342.67145	9396.2
346.86207	9818.7
351.04966	10469.3
355.23424	11174.8
359.4158	11724.7
363.59435	12024.4
367.76989	12115
371.94243	12080.3
376.11196	11970.6
380.27849	11896.7
384.44203	11772.5
388.60257	11570.6
392.76012	11451.6
396.91468	11583.8
401.06626	11885.2
405.21485	12130.7
409.36047	11924.1
413.50311	11320.4
417.64277	10716.4
421.77947	10375.1
425.9132	10191.1
430.04396	10135.3
434.17176	10177.2
438.2966	10367.6
442.41849	10625
446.53742	10930.9
450.6534	11299
454.76644	11510.7
458.87653	11558.2
462.98368	11458.6
467.08789	11256.3
471.18916	10956.7
475.2875	10629.6
479.38291	10391.9
483.4754	10217.1
487.56496	10099.4
491.6516	10015.5
495.73531	9973.3
499.81612	9994.2
503.89401	10123.8
507.96899	10252.6
512.04106	10424
516.11023	10612
520.1765	10732.9
524.23987	10717.1
528.30034	10518.7
532.35792	10305
536.41261	10052.4
540.46441	9796.7
544.51333	9677.3
548.55936	9729.1
552.60252	9958.7
556.64279	10219.2
560.6802	10354
564.71473	10522
568.7464	10974.1
572.7752	11278.5
576.80114	11049.7
580.82422	10703.2
584.84444	10598.4
588.86181	10551.1
592.87633	10586.8
596.888	10747.5
600.89682	11112.4
604.9028	12393.1
608.90594	15974
612.90624	20742
616.90371	20048.7
620.89834	14075.6
624.89015	11151.5
628.87913	10601.9
632.86528	10655.1
636.84862	10827.8
640.82913	10623.1
644.80683	10112.3
648.78172	9716.2
652.75379	9730.3
656.72306	10173.4
660.68952	10772.4
664.65319	10635.8
668.61405	10077.4
672.57211	9794
676.52738	9738.9
680.47986	9757.8
684.42955	9611
688.37646	9606.6
692.32058	9664.3
696.26192	9769.2
700.20048	9912.5
704.13626	10011.9
708.06928	9979
711.99952	9892.9
715.927	9837.5
719.85171	9910.3
723.77365	9881.4
727.69284	9782.5
731.60928	9681.8
735.52295	9658.9
739.43388	9725.8
743.34206	9788
747.24749	9876.6
751.15017	9978.9
755.05012	10220.6
758.94733	10731.9
762.8418	11945
766.73354	13967.5
770.62254	16062.3
774.50882	17144.1
778.39237	16537.9
782.27321	14332.2
786.15132	12100.8
790.02671	10780.1
793.89938	10191.6
797.76935	9971.7
801.6366	9845.4
805.50115	9809.2
809.36299	9800.2
813.22213	9785.7
817.07857	9744.6
820.93231	9713.1
824.78336	9726.3
828.63172	9769.2
832.47738	9793.1
836.32036	9776.1
840.16066	9735.4
843.99827	9721
847.8332	9667.9
851.66546	9646.1
855.49504	9649.4
859.32195	9640.4
863.1462	9571.5
866.96777	9532.2
870.78668	9517.1
874.60293	9549
878.41652	9615.2
882.22745	9685.6
886.03573	9750.1
889.84136	9728.4
893.64433	9682.6
897.44466	9645.4
901.24235	9630.6
905.0374	9575.2
908.8298	9502.6
912.61957	9484.3
916.40671	9521.4
920.19121	9635.9
923.97308	9735.7
927.75233	9870.3
931.52895	9956.5
935.30295	9837.9
939.07433	9572.6
942.84309	9342.1
946.60924	9169.7
950.37278	9106.4
954.13371	9084.2
957.89203	9013.4
961.64774	8967.1
965.40086	8972
969.15137	8929.6
972.89929	8877.9
976.64461	8910.9
980.38733	8889.6
984.12747	8915.9
987.86502	8980.2
991.59999	9075.6
995.33237	9214.3
999.06217	9474.1
1002.78939	9805
1006.51404	10099.6
1010.23611	10301.9
1013.95561	10486.8
1017.67255	10475.1
1021.38692	10320.5
1025.09872	10163.9
1028.80796	10109.6
1032.51465	10275.2
1036.21877	10454.4
1039.92035	10592.3
1043.61937	10552.8
1047.31584	10399.6
1051.00976	10218.4
1054.70114	10111.6
1058.38998	10081.7
1062.07627	10140.2
1065.76003	10190.8
1069.44126	10276.3
1073.11995	10373.1
1076.79611	10524
1080.46974	10724.8
1084.14085	10968.1
1087.80943	11238.7
1091.47549	11379.5
1095.13903	11161.5
1098.80005	10766.2
1102.45857	10422
1106.11456	10310.8
1109.76805	10351.7
1113.41903	10613.9
1117.06751	10985.9
1120.71348	11494.5
1124.35696	12081.4
1127.99793	12527.7
1131.63641	12395.4
1135.2724	11801.3
1138.90589	11262.6
1142.5369	10921.6
1146.16542	10651.1
1149.79145	10506.6
1153.415	10499.5
1157.03607	10606.1
1160.65467	10810.9
1164.27079	11210.8
1167.88443	11806.2
1171.49561	12759.3
1175.10432	14347.2
1178.71056	16473.1
1182.31434	18127.6
1185.91565	18644.8
1189.51451	18194.6
1193.11091	17075.7
1196.70485	15725.5
1200.29634	14745.9
1203.88538	13986.5
1207.47197	13094.7
1211.05612	12356.1
1214.63782	11937.5
1218.21708	11814.7
1221.79391	11810.9
1225.36829	11879.4
1228.94024	11958.7
1232.50976	11978.1
1236.07685	11993.1
1239.6415	11981.9
1243.20374	12016.6
1246.76355	12075.1
1250.32093	12190.3
1253.8759	12481.5
1257.42845	12909.7
1260.97859	13320.8
1264.52631	13695.7
1268.07163	14107.3
1271.61453	14491.3
1275.15503	14820.1
1278.69312	15058.1
1282.22882	15295.4
1285.76211	15684.7
1289.29301	16190.2
1292.82151	16701.4
1296.34761	17282
1299.87133	18151
1303.39266	19701.6
1306.9116	21957.5
1310.42815	24370.6
1313.94233	25575.9
1317.45412	24819.9
1320.96354	23018.2
1324.47058	21131.9
1327.97525	19611.3
1331.47754	18752.4
1334.97747	18590.1
1338.47502	18854.6
1341.97022	19469.6
1345.46305	20221.8
1348.95352	21213.4
1352.44163	22557.9
1355.92738	24705.4
1359.41078	28040.9
1362.89183	30966.7
1366.37053	29695.2
1369.84688	25283.7
1373.32088	21080.5
1376.79254	18346.2
1380.26186	16820.9
1383.72883	15952
1387.19347	15297.6
1390.65578	14687.2
1394.11575	14272.3
1397.57339	14144.8
1401.0287	14234.3
1404.48168	14464.8
1407.93234	14765.8
1411.38068	15089.3
1414.82669	15168.5
1418.27039	14951.2
1421.71177	14573
1425.15083	14190.6
1428.58758	14068.6
1432.02203	14135.4
1435.45416	14218.9
1438.88399	14241.3
1442.31151	14216.9
1445.73673	14241.1
1449.15965	14352.2
1452.58027	14325
1455.9986	14190.9
1459.41463	14181.3
1462.82837	14303.3
1466.23982	14599.6
1469.64898	14946
1473.05586	15162.3
1476.46045	15351.3
1479.86276	15634
1483.26279	16047.4
1486.66054	16560
1490.05602	17242.5
1493.44922	18148.9
1496.84016	19517.3
1500.22882	21530.8
1503.61521	24111.1
1506.99934	26955.5
1510.38121	29122.8
1513.76081	29471.4
1517.13816	27357.4
1520.51324	23901.1
1523.88607	20758.3
1527.25665	18694
1530.62498	17535.3
1533.99105	16897.4
1537.35488	16435.8
1540.71647	16176.9
1544.07581	16124.8
1547.4329	16060.9
1550.78776	15953.1
1554.14038	15883.4
1557.49077	15899.3
1560.83892	16121.8
1564.18484	16470.1
1567.52853	16972.4
1570.86999	17384.2
1574.20922	17622.2
1577.54624	17496.4
1580.88103	16609.4
1584.2136	15563.2
1587.54395	15107
1590.87208	15476.6
1594.19801	16495
1597.52172	17772.3
1600.84321	18362.9
1604.16251	17772.3
1607.47959	16584.1
1610.79447	15185.1
1614.10715	13892.4
1617.41763	12925.5
1620.7259	12331.3
1624.03199	12060.6
1627.33587	12116.4
1630.63757	12459.7
1633.93707	13115.8
1637.23439	14124.9
1640.52951	15523.5
1643.82246	17303.7
1647.11321	19295.4
1650.40179	20512.4
1653.68819	19739.6
1656.97241	17106.2
1660.25446	14282.1
1663.53433	12268.5
1666.81203	11123.6
1670.08756	10465.8
1673.36092	10084.1
1676.63211	9849.4
1679.90115	9650.2
1683.16801	9508.7
1686.43272	9429.7
1689.69527	9313.9
1692.95567	9192.7
1696.2139	9075
1699.46999	8953.1
1702.72392	8942.9
1705.97571	9024.4
1709.22535	9074.4
1712.47284	9166.9
1715.71819	9231.6
1718.96139	9209.9
1722.20246	9176.5
1725.44139	9129.3
1728.67818	9071.7
1731.91284	9008.8
1735.14537	8942.3
1738.37576	8913.8
1741.60403	8849.1
1744.83017	8833.9
1748.05418	8793.7
1751.27607	8735.7
1754.49584	8678.5
1757.71349	8612
1760.92903	8558.4
1764.14244	8532.3
1767.35375	8537.1
1770.56294	8538.4
1773.77002	8533.2
1776.97499	8581.8
1780.17785	8595.1
1783.37861	8617.8
1786.57727	8618.7
1789.77382	8611.4
1792.96828	8623.9
1796.16064	8623.4
1799.3509	8627.1
1802.53907	8588.8
1805.72514	8577.1
1808.90913	8544.8
1812.09102	8531.6
1815.27083	8492.5
1818.44856	8517
1821.6242	8492.1
1824.79776	8502.5
1827.96924	8477.3
1831.13864	8478.5
1834.30597	8477
1837.47122	8480
1840.6344	8459.5
1843.7955	8440.3
1846.95454	8438.6
1850.11151	8448.5
1853.26642	8454.4
1856.41926	8447.2
1859.57004	8452.2
1862.71876	8436.5
1865.86542	8459.1
1869.01003	8472.1
1872.15258	8467.9
1875.29308	8474.5
1878.43152	8469.3
1881.56792	8472.3
1884.70227	8492.8
1887.83457	8467.7
1890.96482	8489.5
1894.09304	8465.7
1897.21921	8501.7
1900.34335	8471.7
1903.46544	8481.3
1906.58551	8485.1
1909.70353	8506.8
1912.81953	8515.9
1915.93349	8496.5
1919.04543	8473.8
1922.15534	8486.7
1925.26322	8466
1928.36908	8428.2
1931.47292	8394.3
1934.57473	8359.1
1937.67453	8325.8
1940.77232	8309.4
1943.86808	8264.5
1946.96184	8221.1
1950.05358	8199.6
1953.14331	8174.7
1956.23103	8159
1959.31675	8116
1962.40046	8064.2
1965.48217	8070.8
1968.56188	8040.8
1971.63959	8023.3
1974.7153	8035.8
1977.78901	7984.3
1980.86073	7957.1
1983.93046	7943.1
1986.99819	7894.6
1990.06394	7871.6
1993.1277	7852.1
1996.18947	7829.1
1999.24925	7797.2
2002.30706	7787.7
2005.36288	7778.1
2008.41672	7755.4
2011.46859	7717.3
2014.51848	7700.6
2017.56639	7659.6
2020.61233	7655
2023.6563	7635.3
2026.6983	7615.2
2029.73833	7589.5
2032.7764	7571.6
2035.8125	7566.8
2038.84664	7555.4
2041.87881	7559.4
2044.90903	7541
2047.93729	7502.7
2050.96359	7513.3
2053.98794	7495.3
2057.01034	7514.3
2060.03078	7467.1
2063.04927	7452.7
2066.06582	7459.4
2069.08042	7450.6
2072.09307	7460.8
2075.10378	7447.5
2078.11255	7441.3
2081.11938	7428.4
2084.12426	7447.5
2087.12722	7435
2090.12824	7417.9
2093.12732	7421.5
2096.12447	7407.3
2099.11969	7406.2
2102.11299	7419.5
2105.10435	7418.3
2108.09379	7418.8
2111.08131	7413.5
2114.0669	7422.7
2117.05057	7449
2120.03233	7455.8
2123.01216	7470.8
2125.99008	7461.5
2128.96609	7488.3
2131.94018	7467
2134.91236	7481.3
2137.88263	7464.7
2140.851	7498.7
2143.81746	7481.7
2146.78201	7463.5
2149.74466	7466.3
2152.7054	7483.5
2155.66425	7462.1
2158.6212	7461.8
2161.57625	7448.3
2164.52941	7466.5
2167.48067	7458.3
2170.43004	7460.2
2173.37752	7439.1
2176.32311	7439.8
2179.26681	7442.8
2182.20863	7442.6
2185.14856	7448.1
2188.08661	7448.1
2191.02278	7442.9
2193.95707	7438.4
2196.88948	7432.2
2199.82001	7447.2
2202.74867	7418.6
2205.67545	7415.2
2208.60037	7418.8
2211.52341	7403.8
2214.44458	7396
2217.36388	7397.9
2220.28132	7397
2223.1969	7369.7
2226.11061	7363
2229.02246	7325.1
2231.93245	7331.2
2234.84058	7298.6
2237.74686	7291.7
2240.65128	7267.5
2243.55385	7265.5
2246.45456	7282.7
2249.35343	7255.7
2252.25044	7253.5
2255.14561	7252.4
2258.03893	7247.7
2260.93041	7231.8
2263.82004	7222.2
2266.70783	7239.7
2269.59378	7226
2272.4779	7196
2275.36017	7178.2
2278.24061	7150.8
2281.11922	7148.5
2283.996	7142.6
2286.87094	7123.3
2289.74405	7097.8
2292.61534	7088.5
2295.4848	7058.5
2298.35243	7067.9
2301.21824	7072.1
2304.08223	7068.1
2306.94439	7069
2309.80474	7058.9
2312.66327	7074.1
2315.51999	7066.3
2318.37489	7066
2321.22797	7055.1
2324.07925	7059.8
2326.92871	7055.3
2329.77637	7047.2
2332.62222	7026.6
2335.46626	7022.8
2338.3085	7019.5
2341.14893	7016.2
2343.98756	7039.7
2346.8244	7051.5
2349.65943	7052.3
2352.49267	7035.3
2355.32411	7058.7
2358.15376	7055.2
2360.98161	7056
2363.80768	7057.3
2366.63195	7052.3
2369.45444	7058
2372.27514	7028.5
2375.09405	7024.9
2377.91118	7007.5
2380.72652	7000.9
2383.54009	6962.1
2386.35187	6947.7
2389.16188	6913.3
2391.97011	6901
2394.77657	6884.9
2397.58125	6882.1
2400.38416	6866.6
2403.18529	6837.8
2405.98466	6842.7
2408.78226	6826.5
2411.57809	6809.2
2414.37216	6787.2
2417.16446	6785.4
2419.955	6759.8
2422.74378	6777.5
2425.5308	6761
2428.31606	6757.4
2431.09956	6762.5
2433.88131	6767.1
2436.6613	6769.4
2439.43954	6761.4
2442.21603	6766.4
2444.99077	6751.4
2447.76377	6773.9
2450.53501	6746.2
2453.30451	6739.5
2456.07226	6751.5
2458.83827	6754.4
2461.60254	6745.9
2464.36507	6749
2467.12586	6720.8
2469.88492	6736.9
2472.64224	6718.7
2475.39782	6730.8
2478.15167	6725.4
2480.90379	6751.7
2483.65417	6793
2486.40283	6795.3
2489.14976	6809
2491.89497	6826.7
2494.63845	6798.7
2497.3802	6780.8
2500.12024	6802.6
2502.85855	6809.2
2505.59514	6774.8
2508.33002	6768.8
2511.06318	6735.8
2513.79462	6724.4
2516.52435	6700.9
2519.25237	6667.4
2521.97867	6657.3
2524.70327	6642.6
2527.42616	6633.9
2530.14734	6641
2532.86681	6628.6
2535.58458	6635.4
2538.30065	6633.6
2541.01501	6649
2543.72768	6625.8
2546.43864	6628.4
2549.14791	6622.8
2551.85548	6622.6
2554.56136	6625.6
2557.26554	6586.7
2559.96803	6582.2
2562.66883	6564.7
2565.36794	6558.9
2568.06536	6547
2570.7611	6557.1
2573.45514	6545.3
2576.14751	6549.8
2578.83819	6540.4
2581.52719	6522.1
2584.21451	6514.6
2586.90015	6517.3
2589.58411	6515.4
2592.2664	6494.6
2594.94701	6509.8
2597.62594	6511.4
2600.30321	6499.8
2602.9788	6501.4
2605.65273	6505.3
2608.32498	6513.2
2610.99557	6504.5
2613.66449	6484.5
2616.33175	6489.5
2618.99734	6507.8
2621.66128	6495
2624.32355	6465.7
2626.98416	6493.9
2629.64311	6476.1
2632.30041	6475.8
2634.95605	6444.5
2637.61004	6441.7
2640.26238	6446.6
2642.91306	6420.3
2645.56209	6411.3
2648.20948	6401.4
2650.85521	6396.8
2653.4993	6401.4
2656.14175	6401.1
2658.78255	6428.5
2661.42171	6407.2
2664.05923	6432.7
2666.6951	6441.1
2669.32934	6449.4
2671.96194	6448.4
2674.59291	6452.1
2677.22224	6454.7
2679.84993	6472.2
2682.476	6459.5
2685.10043	6481.9
2687.72324	6451.8
2690.34441	6457.7
2692.96396	6451.5
2695.58188	6447.3
2698.19818	6445.1
2700.81285	6443.5
2703.4259	6398.9
2706.03733	6331.9
2708.64714	6350.4
2711.25533	6413.1
2713.86191	6436.4
2716.46687	6451.2
2719.07021	6458.3
2721.67194	6491.4
2724.27206	6483.2
2726.87057	6473.9
2729.46747	6483.3
2732.06276	6476.4
2734.65644	6480.3
2737.24852	6477.4
2739.83899	6476
2742.42786	6470.2
2745.01513	6456.4
2747.60079	6466.1
2750.18486	6457.1
2752.76733	6456.2
2755.3482	6431
2757.92747	6435.2
2760.50515	6411.6
2763.08123	6392.8
2765.65573	6407.6
2768.22863	6393.4
2770.79994	6382.8
2773.36967	6378.5
2775.9378	6392
2778.50435	6393
2781.06932	6388.7
2783.6327	6393.6
2786.1945	6378.1
2788.75471	6394
2791.31335	6371.8
2793.87041	6372.6
2796.42589	6364.6
2798.97979	6360.8
2801.53212	6352.1
2804.08288	6357.7
2806.63206	6344.7
2809.17967	6336.8
2811.72571	6345.8
2814.27018	6336.8
2816.81308	6345.6
2819.35442	6332.2
2821.89419	6331.1
2824.43239	6348.1
2826.96904	6346.5
2829.50412	6336.2
2832.03763	6348.7
2834.56959	6352.2
2837.1	6346.3
2839.62884	6337.9
2842.15613	6341.1
2844.68186	6375.5
2847.20604	6357.1
2849.72867	6388.8
2852.24974	6384.9
2854.76927	6365.2
2857.28724	6333
2859.80367	6332.4
2862.31855	6352.7
2864.83189	6334.9
2867.34368	6345.7
2869.85393	6349.8
2872.36264	6351.9
2874.8698	6353.6
2877.37543	6342.7
2879.87952	6338.9
2882.38207	6338.6
2884.88308	6334.3
2887.38256	6330.1
2889.88051	6314.5
2892.37692	6335.9
2894.8718	6328.8
2897.36515	6323.8
2899.85698	6322.8
2902.34727	6341.1
2904.83604	6336.8
2907.32328	6332.6
2909.809	6322.7
2912.29319	6336.9
2914.77587	6338.9
2917.25702	6333.8
2919.73665	6322.9
2922.21476	6315
2924.69136	6307.1
2927.16644	6292.6
2929.64	6275.8
2932.11205	6275.1
2934.58258	6248.8
2937.05161	6278.6
2939.51912	6229.3
2941.98513	6256.2
2944.44962	6208.3
2946.91261	6187.8
2949.37409	6212.8
2951.83407	6193.3
2954.29254	6187.1
2956.74951	6150
2959.20498	6146.5
2961.65895	6129.6
2964.11142	6131.9
2966.56239	6136.9
2969.01186	6116.6
2971.45984	6098.1
2973.90632	6079.1
2976.35131	6081
2978.7948	6064.1
2981.23681	6065.3
2983.67732	6052.8
2986.11635	6012.6
2988.55388	5988.2
2990.98993	5996.6
2993.4245	5995.1
2995.85758	5982.8
2998.28917	5961.6
3000.71928	5959.9
3003.14791	5930.9
3005.57506	5919.4
3008.00073	5918.4
3010.42493	5899.5
3012.84764	5885.5
3015.26888	5890.6
3017.68865	5883.4
3020.10694	5867.5
3022.52376	5854
3024.9391	5838.1
3027.35298	5828
3029.76539	5842.8
3032.17632	5838.9
3034.5858	5807.9
3036.9938	5811.7
3039.40034	5804
3041.80542	5779.1
3044.20903	5766.3
3046.61118	5775.5
3049.01187	5762.1
3051.4111	5754.7
3053.80888	5741.3
3056.20519	5737.8
3058.60005	5710.3
3060.99345	5708.3
3063.3854	5675.5
3065.7759	5680.8
3068.16494	5657
3070.55254	5643.1
3072.93868	5630.8
3075.32338	5587.5
3077.70662	5573.7
3080.08842	5552.1
3082.46878	5539.3
3084.84769	5530.3
3087.22515	5537.4
3089.60118	5539.3
3091.97576	5525.4
3094.3489	5553.1
3096.72061	5532.9
3099.09087	5546.6
3101.4597	5515.1
3103.82709	5534.9
3106.19305	5511.4
3108.55757	5531.9
3110.92066	5496
3113.28232	5486.7
3115.64255	5478.5
3118.00134	5487.7
3120.35871	5462.4
3122.71466	5453
3125.06917	5449
3127.42226	5454
3129.77393	5442.6
3132.12417	5437.8
3134.47299	5434.4
3136.82039	5442
3139.16636	5439.5
3141.51092	5430.5
3143.85406	5440.9
3146.19579	5439.2
3148.53609	5457.4
3150.87499	5454.9
3153.21246	5445.9
3155.54853	5472.4
3157.88318	5454
3160.21642	5449.3
3162.54826	5463.1
3164.87868	5449.8
3167.2077	5446.7
3169.5353	5458.1
3171.86151	5464.3
3174.18631	5456.9
3176.5097	5440.5
3178.83169	5436
3181.15228	5419.5
3183.47147	5412.6
3185.78926	5416.5
3188.10565	5418.2
3190.42065	5421.9
3192.73424	5415.3
3195.04645	5394.7
3197.35725	5412.8
3199.66667	5413.4
3201.97469	5433.2
3204.28132	5427.4
3206.58656	5436.6
3208.8904	5442.5
3211.19287	5430.8
3213.49394	5452.3
3215.79363	5439.8
3218.09193	5459.1
3220.38884	5424.4
3222.68438	5415.1
3224.97853	5441.7
3227.2713	5438.7
3229.56269	5455.8
3231.8527	5450.6
3234.14133	5450.4
3236.42858	5432.7
3238.71446	5421.6
3240.99896	5404.6
3243.28209	5406.2
3245.56384	5391
3247.84423	5404.2
3250.12324	5386.1
3252.40088	5369
3254.67715	5369.5
3256.95205	5362
3259.22558	5373.1
3261.49775	5368.2
3263.76855	5342.6
3266.03799	5355.8
3268.30606	5333.2
3270.57277	5324.2
3272.83812	5314.9
3275.10211	5310.6
3277.36474	5299.2
3279.62601	5299.6
3281.88593	5283.4
3284.14448	5283.3
3286.40168	5294.9
3288.65753	5298
3290.91202	5280.9
3293.16516	5277.8
3295.41695	5272.8
3297.66738	5226.1
3299.91647	5200.6
3302.16421	5177.8
3304.4106	5168.2
3306.65564	5130.4
3308.89933	5077.4
3311.14169	5050.4
3313.38269	4995.3
3315.62236	4967.8
3317.86068	4944.8
3320.09766	4901.5
3322.3333	4876.6
3324.5676	4839
3326.80056	4726.2
3329.03219	4737.9
3331.26248	2.9
3333.49143	-0.5
3335.71905	0.4
