Data from AgNPs_FTO_APTES_UA_50uM_CRN_5uM_R6G_10uM_NaF_0.1M_Addition_RamanShift__17__12-52-24-830.txt Node

Date: Mon Feb 21 12:52:24 GMT 2022
User: TCL
Spectrometer: QEP01345
Trigger mode: 4
Integration Time (sec): 7.000000E0
Scans to average: 10
Electric dark correction enabled: true
Nonlinearity correction enabled: false
Boxcar width: 0
XAxis mode: Raman Shifts
Number of Pixels in Spectrum: 1044
>>>>>Begin Spectral Data<<<<<
46.04893	0.4
50.45542	-2.5
54.85868	-0.6
59.25871	-0.6
63.6555	54
68.04907	59.1
72.43941	63.2
76.82654	65
81.21044	69.1
85.59113	69.6
89.96862	69.3
94.34289	75.5
98.71396	78.4
103.08183	83.4
107.4465	85.5
111.80798	85.7
116.16626	84.9
120.52136	89.2
124.87327	93.1
129.222	96.9
133.56755	98.8
137.90993	110
142.24913	117.7
146.58517	129.3
150.91804	145.9
155.24774	174.8
159.57429	213.2
163.89768	277.2
168.21792	374.1
172.53501	504.1
176.84895	704.1
181.15975	988.6
185.46741	1374
189.77193	1907
194.07331	2547.8
198.37157	3284.7
202.6667	4050.5
206.9587	4844.9
211.24758	5658.7
215.53334	6496.5
219.81599	7440.3
224.09553	8511.2
228.37195	9711.9
232.64527	11002.9
236.91549	12265.9
241.18261	13370.3
245.44663	14217
249.70755	14812.3
253.96539	15319.2
258.22014	15770.8
262.4718	16191.8
266.72039	16515.9
270.96589	16586.8
275.20832	16438.3
279.44768	16119.3
283.68397	15710.2
287.91719	15485.3
292.14735	15427
296.37445	15755.4
300.59849	16392
304.81948	17175.3
309.03742	17679.6
313.25231	17629.8
317.46415	16849.9
321.67296	15589.7
325.87872	14518.6
330.08145	14017.8
334.28114	13966.2
338.47781	14184.6
342.67145	14553.3
346.86207	15086.8
351.04966	15931.1
355.23424	16839.1
359.4158	17647.7
363.59435	18072
367.76989	18171.3
371.94243	18095.2
376.11196	17962.2
380.27849	17829.5
384.44203	17697.2
388.60257	17549.3
392.76012	17413.7
396.91468	17516.3
401.06626	17847.5
405.21485	18145.3
409.36047	17728.7
413.50311	16715
417.64277	15767.5
421.77947	15231.6
425.9132	15031.7
430.04396	14941
434.17176	14983.5
438.2966	15144.7
442.41849	15581.6
446.53742	16122.1
450.6534	16637.4
454.76644	16915.6
458.87653	16956.8
462.98368	16774.9
467.08789	16505.4
471.18916	16159.7
475.2875	15810.2
479.38291	15511.9
483.4754	15286.9
487.56496	15059.5
491.6516	14889.1
495.73531	14739.7
499.81612	14748.9
503.89401	14960.5
507.96899	15123.8
512.04106	15308.6
516.11023	15455.9
520.1765	15548
524.23987	15542.5
528.30034	15325
532.35792	15105.1
536.41261	14823.7
540.46441	14501.9
544.51333	14261.8
548.55936	14400.7
552.60252	14736.4
556.64279	15223
560.6802	15562.8
564.71473	15973.6
568.7464	16738.7
572.7752	17227.6
576.80114	16827.9
580.82422	16336.4
584.84444	16205.5
588.86181	16440.3
592.87633	16821.4
596.888	17075.4
600.89682	17184.6
604.9028	18834.7
608.90594	24223.7
612.90624	30968.9
616.90371	28943.4
620.89834	19811.4
624.89015	15567.3
628.87913	14882.5
632.86528	15128.3
636.84862	15522.1
640.82913	15278.5
644.80683	14404.4
648.78172	13768.5
652.75379	13707
656.72306	14328.8
660.68952	15156.5
664.65319	14876.9
668.61405	14043.7
672.57211	13765.8
676.52738	13904.2
680.47986	14014.7
684.42955	13983.8
688.37646	13950.6
692.32058	13967.6
696.26192	14013.5
700.20048	14087.4
704.13626	14069.1
708.06928	13934.6
711.99952	13736
715.927	13646.3
719.85171	13743
723.77365	13767.8
727.69284	13595.5
731.60928	13393.6
735.52295	13355.8
739.43388	13429.6
743.34206	13496.4
747.24749	13545.4
751.15017	13626
755.05012	13853.8
758.94733	14632.6
762.8418	16554
766.73354	19918.1
770.62254	23358.6
774.50882	24838.1
778.39237	23516.8
782.27321	20149.3
786.15132	16902.5
790.02671	14919.8
793.89938	14002.8
797.76935	13577.7
801.6366	13401.6
805.50115	13258.6
809.36299	13130.4
813.22213	13033.8
817.07857	12962.9
820.93231	12898
824.78336	12896.6
828.63172	12889.1
832.47738	12899.4
836.32036	12847.7
840.16066	12784.4
843.99827	12746.9
847.8332	12697.9
851.66546	12676.1
855.49504	12698.3
859.32195	12704.8
863.1462	12691.4
866.96777	12617.3
870.78668	12621.9
874.60293	12625.7
878.41652	12656.7
882.22745	12758.4
886.03573	12877
889.84136	12857.9
893.64433	12799.2
897.44466	12739.9
901.24235	12708.8
905.0374	12592.3
908.8298	12402
912.61957	12336.6
916.40671	12318.9
920.19121	12459.3
923.97308	12655.8
927.75233	12852.4
931.52895	12990.8
935.30295	12821.9
939.07433	12391.2
942.84309	12023.6
946.60924	11810.5
950.37278	11714.5
954.13371	11695.2
957.89203	11625.3
961.64774	11588.9
965.40086	11551.1
969.15137	11512.3
972.89929	11487.9
976.64461	11453.3
980.38733	11413.5
984.12747	11472
987.86502	11533.4
991.59999	11669
995.33237	11864.3
999.06217	12200.3
1002.78939	12661.7
1006.51404	13084.5
1010.23611	13422.2
1013.95561	13608.3
1017.67255	13570.9
1021.38692	13364.5
1025.09872	13030.5
1028.80796	12865.8
1032.51465	12940.6
1036.21877	13098.9
1039.92035	13180.3
1043.61937	13198.1
1047.31584	13109.6
1051.00976	12975.9
1054.70114	12870.1
1058.38998	12862.5
1062.07627	12864.2
1065.76003	12955.3
1069.44126	13032.4
1073.11995	13296.8
1076.79611	13637.4
1080.46974	14005.6
1084.14085	14478.7
1087.80943	14990.2
1091.47549	15239.3
1095.13903	15007.5
1098.80005	14480.9
1102.45857	14007.1
1106.11456	13806.8
1109.76805	13840.9
1113.41903	14185.2
1117.06751	14722.8
1120.71348	15454.9
1124.35696	16242.5
1127.99793	16957.3
1131.63641	16940.9
1135.2724	16095
1138.90589	15325.7
1142.5369	14846.2
1146.16542	14455.7
1149.79145	14285.8
1153.415	14275.6
1157.03607	14403.8
1160.65467	14752.2
1164.27079	15530
1167.88443	16651.9
1171.49561	18380.9
1175.10432	20953.6
1178.71056	24530.4
1182.31434	27733.7
1185.91565	28785.9
1189.51451	27802
1193.11091	25847.9
1196.70485	23802.4
1200.29634	22081.5
1203.88538	20668
1207.47197	19218.8
1211.05612	17980.4
1214.63782	17212.3
1218.21708	16906
1221.79391	16928.5
1225.36829	17016
1228.94024	16903.5
1232.50976	16533.8
1236.07685	16164.2
1239.6415	15944.4
1243.20374	15927.8
1246.76355	15987.3
1250.32093	16230.5
1253.8759	16666.7
1257.42845	17300.6
1260.97859	18156.6
1264.52631	19080.7
1268.07163	20030.2
1271.61453	20895.2
1275.15503	21552.7
1278.69312	22036.8
1282.22882	22426.8
1285.76211	23122.9
1289.29301	24150.5
1292.82151	25363.7
1296.34761	26814.2
1299.87133	28747.2
1303.39266	31705.6
1306.9116	35758.2
1310.42815	39912
1313.94233	41779.8
1317.45412	40265
1320.96354	37065.4
1324.47058	33969.3
1327.97525	31399.7
1331.47754	29636
1334.97747	28824.5
1338.47502	28706
1341.97022	29045
1345.46305	30083.6
1348.95352	31648.9
1352.44163	33884.1
1355.92738	37275.8
1359.41078	42691.9
1362.89183	48046.1
1366.37053	46792.7
1369.84688	38914.5
1373.32088	31314.2
1376.79254	26797.2
1380.26186	24655.6
1383.72883	23393
1387.19347	22498.4
1390.65578	21729.8
1394.11575	21284.2
1397.57339	21168.9
1401.0287	21235.9
1404.48168	21268.9
1407.93234	21097.4
1411.38068	20864.4
1414.82669	20454.8
1418.27039	20000.2
1421.71177	19447.7
1425.15083	18909.8
1428.58758	18612.7
1432.02203	18892.9
1435.45416	19374
1438.88399	19739
1442.31151	19898.3
1445.73673	20011.6
1449.15965	20294.8
1452.58027	20464.4
1455.9986	20520.7
1459.41463	20662.1
1462.82837	21023.4
1466.23982	21522.3
1469.64898	21923.9
1473.05586	22144.4
1476.46045	22077.8
1479.86276	22074.3
1483.26279	22238.7
1486.66054	22655.4
1490.05602	23313.1
1493.44922	24401.5
1496.84016	26248.4
1500.22882	29228.9
1503.61521	33620.9
1506.99934	38902
1510.38121	43045.4
1513.76081	43586.1
1517.13816	39854.7
1520.51324	34030.4
1523.88607	28994.1
1527.25665	25860
1530.62498	24126
1533.99105	23188
1537.35488	22455
1540.71647	21829.8
1544.07581	21322.3
1547.4329	20945.3
1550.78776	20781.9
1554.14038	20801.5
1557.49077	20972.1
1560.83892	21384.9
1564.18484	22158.1
1567.52853	23182.6
1570.86999	24073.2
1574.20922	24685.5
1577.54624	24533.7
1580.88103	23319.7
1584.2136	21714.7
1587.54395	21017.2
1590.87208	21494.7
1594.19801	22968.8
1597.52172	24725.4
1600.84321	25202.5
1604.16251	23908.8
1607.47959	21846.1
1610.79447	19832.7
1614.10715	17917.3
1617.41763	16367.1
1620.7259	15373.7
1624.03199	14923.2
1627.33587	14946.9
1630.63757	15574.8
1633.93707	16785.8
1637.23439	18945.4
1640.52951	22134.7
1643.82246	26501.8
1647.11321	31029.9
1650.40179	33504.8
1653.68819	31639.5
1656.97241	26272.7
1660.25446	20596.9
1663.53433	16709.1
1666.81203	14414.5
1670.08756	13119.3
1673.36092	12337.6
1676.63211	11875
1679.90115	11507.2
1683.16801	11271.1
1686.43272	11067.3
1689.69527	10915
1692.95567	10748.2
1696.2139	10611.2
1699.46999	10447.9
1702.72392	10383.8
1705.97571	10407.8
1709.22535	10472
1712.47284	10475.1
1715.71819	10480.9
1718.96139	10434.5
1722.20246	10341.8
1725.44139	10234.1
1728.67818	10140.6
1731.91284	10032.2
1735.14537	9917.4
1738.37576	9874
1741.60403	9810.8
1744.83017	9718.6
1748.05418	9703.7
1751.27607	9628.6
1754.49584	9569
1757.71349	9497
1760.92903	9399.9
1764.14244	9383.2
1767.35375	9342
1770.56294	9308.3
1773.77002	9276.4
1776.97499	9299.3
1780.17785	9328.9
1783.37861	9306.1
1786.57727	9289
1789.77382	9242.2
1792.96828	9279.2
1796.16064	9219.4
1799.3509	9212.7
1802.53907	9174.3
1805.72514	9149.7
1808.90913	9117.9
1812.09102	9092.8
1815.27083	9063.6
1818.44856	9030.8
1821.6242	9005.6
1824.79776	8992.1
1827.96924	9002.7
1831.13864	8995.1
1834.30597	8992.7
1837.47122	9002.8
1840.6344	8971.7
1843.7955	8966.9
1846.95454	8947.4
1850.11151	8958.1
1853.26642	8961.7
1856.41926	8939.1
1859.57004	8935.1
1862.71876	8932.5
1865.86542	8926.7
1869.01003	8918.9
1872.15258	8888.5
1875.29308	8882.3
1878.43152	8899.2
1881.56792	8901.1
1884.70227	8906.5
1887.83457	8887.1
1890.96482	8851.9
1894.09304	8815.6
1897.21921	8814.6
1900.34335	8828.5
1903.46544	8815.2
1906.58551	8803
1909.70353	8812.7
1912.81953	8798.1
1915.93349	8755
1919.04543	8735.5
1922.15534	8676.2
1925.26322	8666.5
1928.36908	8607.4
1931.47292	8564.7
1934.57473	8524.9
1937.67453	8495.4
1940.77232	8465
1943.86808	8443.1
1946.96184	8439
1950.05358	8388.3
1953.14331	8352.4
1956.23103	8332.5
1959.31675	8297.3
1962.40046	8305.2
1965.48217	8271.2
1968.56188	8273.9
1971.63959	8252
1974.7153	8198.5
1977.78901	8196.1
1980.86073	8155.1
1983.93046	8113.3
1986.99819	8075.1
1990.06394	8042.7
1993.1277	8002.3
1996.18947	7987.8
1999.24925	7960.4
2002.30706	7932.5
2005.36288	7917
2008.41672	7876.6
2011.46859	7857.6
2014.51848	7830.5
2017.56639	7819.9
2020.61233	7785.2
2023.6563	7770.7
2026.6983	7764.3
2029.73833	7758.7
2032.7764	7736.1
2035.8125	7701.1
2038.84664	7662.9
2041.87881	7676.5
2044.90903	7666.6
2047.93729	7636.3
2050.96359	7630.3
2053.98794	7614
2057.01034	7633.9
2060.03078	7615.2
2063.04927	7590.8
2066.06582	7609.1
2069.08042	7575.6
2072.09307	7584.1
2075.10378	7581.8
2078.11255	7560.3
2081.11938	7575.4
2084.12426	7556.8
2087.12722	7546.2
2090.12824	7548.5
2093.12732	7555.3
2096.12447	7545.5
2099.11969	7568.7
2102.11299	7567.2
2105.10435	7575.9
2108.09379	7559.2
2111.08131	7595.3
2114.0669	7578.2
2117.05057	7600.1
2120.03233	7604.9
2123.01216	7602.3
2125.99008	7591.8
2128.96609	7595.7
2131.94018	7610
2134.91236	7595.3
2137.88263	7600.8
2140.851	7593.5
2143.81746	7595.9
2146.78201	7563.9
2149.74466	7541.7
2152.7054	7540.9
2155.66425	7527.7
2158.6212	7533
2161.57625	7529.6
2164.52941	7531.2
2167.48067	7521.5
2170.43004	7496.2
2173.37752	7493.7
2176.32311	7521.9
2179.26681	7533
2182.20863	7528.7
2185.14856	7528.8
2188.08661	7519.8
2191.02278	7512.8
2193.95707	7497.1
2196.88948	7488
2199.82001	7471.8
2202.74867	7462.1
2205.67545	7465.7
2208.60037	7438.4
2211.52341	7469.2
2214.44458	7457.7
2217.36388	7419.6
2220.28132	7409.5
2223.1969	7389.9
2226.11061	7373.3
2229.02246	7363.3
2231.93245	7371.4
2234.84058	7340
2237.74686	7337.4
2240.65128	7319.4
2243.55385	7321.5
2246.45456	7302.8
2249.35343	7302
2252.25044	7276.2
2255.14561	7282.1
2258.03893	7280.9
2260.93041	7278.4
2263.82004	7290.7
2266.70783	7255.8
2269.59378	7222.4
2272.4779	7233.2
2275.36017	7215.7
2278.24061	7190.7
2281.11922	7183.7
2283.996	7150.8
2286.87094	7140.1
2289.74405	7135.5
2292.61534	7103.8
2295.4848	7091.5
2298.35243	7098.1
2301.21824	7081.2
2304.08223	7078.4
2306.94439	7089.6
2309.80474	7077.9
2312.66327	7083.6
2315.51999	7078.2
2318.37489	7070.9
2321.22797	7076.2
2324.07925	7078
2326.92871	7057.5
2329.77637	7050.3
2332.62222	7037.4
2335.46626	7022.1
2338.3085	7022.4
2341.14893	7027.9
2343.98756	7026.7
2346.8244	7067.2
2349.65943	7062.5
2352.49267	7077.1
2355.32411	7094.4
2358.15376	7100.8
2360.98161	7102
2363.80768	7095.2
2366.63195	7124.6
2369.45444	7134.5
2372.27514	7114.6
2375.09405	7115.4
2377.91118	7100.3
2380.72652	7061.3
2383.54009	7032.7
2386.35187	6990.2
2389.16188	6955.1
2391.97011	6953.8
2394.77657	6950.4
2397.58125	6905.6
2400.38416	6883.3
2403.18529	6864.5
2405.98466	6858.8
2408.78226	6860.2
2411.57809	6831.5
2414.37216	6822.1
2417.16446	6831.6
2419.955	6818.4
2422.74378	6810.6
2425.5308	6805.8
2428.31606	6795.4
2431.09956	6795.8
2433.88131	6785.9
2436.6613	6811.2
2439.43954	6814
2442.21603	6819.2
2444.99077	6812.6
2447.76377	6823.4
2450.53501	6836.4
2453.30451	6829.4
2456.07226	6822.9
2458.83827	6816.9
2461.60254	6828.2
2464.36507	6823.6
2467.12586	6815.5
2469.88492	6823.3
2472.64224	6833.3
2475.39782	6828.8
2478.15167	6834.3
2480.90379	6856
2483.65417	6871.1
2486.40283	6913.4
2489.14976	6904.1
2491.89497	6921.7
2494.63845	6919.7
2497.3802	6899.5
2500.12024	6912.3
2502.85855	6857.6
2505.59514	6852.7
2508.33002	6828.7
2511.06318	6798.3
2513.79462	6777.1
2516.52435	6756
2519.25237	6748.7
2521.97867	6709
2524.70327	6697.8
2527.42616	6702.1
2530.14734	6702.8
2532.86681	6694.5
2535.58458	6676.8
2538.30065	6693
2541.01501	6688.3
2543.72768	6666.6
2546.43864	6686.9
2549.14791	6686.1
2551.85548	6681.7
2554.56136	6679
2557.26554	6678.1
2559.96803	6671.1
2562.66883	6681.7
2565.36794	6677.8
2568.06536	6656.3
2570.7611	6658.1
2573.45514	6667.5
2576.14751	6645.4
2578.83819	6647.6
2581.52719	6627.4
2584.21451	6592.4
2586.90015	6586.6
2589.58411	6584.2
2592.2664	6595.3
2594.94701	6587.1
2597.62594	6599.3
2600.30321	6589.7
2602.9788	6578.9
2605.65273	6587.3
2608.32498	6600
2610.99557	6562.1
2613.66449	6591.9
2616.33175	6589.9
2618.99734	6579.7
2621.66128	6581
2624.32355	6578.9
2626.98416	6564.1
2629.64311	6559.6
2632.30041	6555.2
2634.95605	6544.9
2637.61004	6551.9
2640.26238	6530.2
2642.91306	6497.3
2645.56209	6484.7
2648.20948	6497.9
2650.85521	6483.9
2653.4993	6502.9
2656.14175	6533.6
2658.78255	6527.8
2661.42171	6551.9
2664.05923	6575.2
2666.6951	6561.7
2669.32934	6596.1
2671.96194	6559.8
2674.59291	6587.5
2677.22224	6571.5
2679.84993	6573.1
2682.476	6559.1
2685.10043	6562
2687.72324	6551.4
2690.34441	6525.1
2692.96396	6535.4
2695.58188	6509.4
2698.19818	6508.6
2700.81285	6524.6
2703.4259	6487.6
2706.03733	6429.5
2708.64714	6464
2711.25533	6500.3
2713.86191	6513.4
2716.46687	6544.9
2719.07021	6557.6
2721.67194	6556.7
2724.27206	6557.7
2726.87057	6578.3
2729.46747	6558.7
2732.06276	6576.6
2734.65644	6568.4
2737.24852	6551.7
2739.83899	6545.1
2742.42786	6534.8
2745.01513	6522.9
2747.60079	6526.6
2750.18486	6517.8
2752.76733	6499.5
2755.3482	6481
2757.92747	6476.1
2760.50515	6478.3
2763.08123	6482.8
2765.65573	6465.9
2768.22863	6467.8
2770.79994	6453.2
2773.36967	6472.5
2775.9378	6467.4
2778.50435	6468
2781.06932	6458.1
2783.6327	6470
2786.1945	6450.1
2788.75471	6461.4
2791.31335	6455.3
2793.87041	6443.8
2796.42589	6435.8
2798.97979	6436.9
2801.53212	6442.6
2804.08288	6416.8
2806.63206	6417.2
2809.17967	6422.3
2811.72571	6401.4
2814.27018	6415.5
2816.81308	6394.2
2819.35442	6420.2
2821.89419	6417.4
2824.43239	6435.1
2826.96904	6444.2
2829.50412	6429
2832.03763	6413
2834.56959	6430.5
2837.1	6399.4
2839.62884	6402
2842.15613	6387.3
2844.68186	6389.1
2847.20604	6396.4
2849.72867	6408.8
2852.24974	6421.5
2854.76927	6404.3
2857.28724	6397.7
2859.80367	6422.1
2862.31855	6451.7
2864.83189	6443.1
2867.34368	6485
2869.85393	6491.4
2872.36264	6501.2
2874.8698	6506.9
2877.37543	6509.3
2879.87952	6513.8
2882.38207	6492.8
2884.88308	6499.7
2887.38256	6503.9
2889.88051	6508.5
2892.37692	6501.9
2894.8718	6499.8
2897.36515	6527
2899.85698	6524.9
2902.34727	6541.7
2904.83604	6534.5
2907.32328	6532.5
2909.809	6557.2
2912.29319	6561.4
2914.77587	6568.4
2917.25702	6559.9
2919.73665	6548.1
2922.21476	6532.8
2924.69136	6530.5
2927.16644	6519.2
2929.64	6492.9
2932.11205	6480.8
2934.58258	6446.5
2937.05161	6440.5
2939.51912	6441.3
2941.98513	6440.6
2944.44962	6404
2946.91261	6381.9
2949.37409	6413.2
2951.83407	6387.5
2954.29254	6379.7
2956.74951	6366.8
2959.20498	6344.2
2961.65895	6343.6
2964.11142	6330.6
2966.56239	6307.5
2969.01186	6277.8
2971.45984	6260.7
2973.90632	6257.7
2976.35131	6235.2
2978.7948	6237.1
2981.23681	6216.3
2983.67732	6208.7
2986.11635	6178
2988.55388	6152.2
2990.98993	6137.9
2993.4245	6147.5
2995.85758	6122.7
2998.28917	6120.7
3000.71928	6104
3003.14791	6092.2
3005.57506	6085.3
3008.00073	6060.5
3010.42493	6070.8
3012.84764	6044.4
3015.26888	6055.5
3017.68865	6038.2
3020.10694	6035.8
3022.52376	6007.7
3024.9391	5984.1
3027.35298	6006.5
3029.76539	5999.8
3032.17632	5995.5
3034.5858	5967.5
3036.9938	5966.3
3039.40034	5939.8
3041.80542	5923.9
3044.20903	5912.9
3046.61118	5914
3049.01187	5918.3
3051.4111	5905.3
3053.80888	5887.8
3056.20519	5890.7
3058.60005	5877.7
3060.99345	5875.2
3063.3854	5838.2
3065.7759	5835.2
3068.16494	5823.8
3070.55254	5797.5
3072.93868	5786.7
3075.32338	5769
3077.70662	5734.9
3080.08842	5739.8
3082.46878	5723.5
3084.84769	5722.7
3087.22515	5721.4
3089.60118	5706.1
3091.97576	5706.3
3094.3489	5714.6
3096.72061	5701.5
3099.09087	5714.6
3101.4597	5715.7
3103.82709	5705.8
3106.19305	5711.3
3108.55757	5717.7
3110.92066	5693.9
3113.28232	5689.3
3115.64255	5682.1
3118.00134	5643.3
3120.35871	5668.8
3122.71466	5656.6
3125.06917	5639.9
3127.42226	5637.5
3129.77393	5643.4
3132.12417	5636.3
3134.47299	5647.2
3136.82039	5629
3139.16636	5645.9
3141.51092	5645.7
3143.85406	5645.1
3146.19579	5658.6
3148.53609	5644.7
3150.87499	5648.8
3153.21246	5663.9
3155.54853	5683.8
3157.88318	5657.7
3160.21642	5677.7
3162.54826	5675.1
3164.87868	5685.8
3167.2077	5684.7
3169.5353	5666.3
3171.86151	5678.9
3174.18631	5689.8
3176.5097	5691.9
3178.83169	5671.3
3181.15228	5667.4
3183.47147	5644.7
3185.78926	5660.5
3188.10565	5658.3
3190.42065	5678.1
3192.73424	5657
3195.04645	5659.5
3197.35725	5665.9
3199.66667	5683.5
3201.97469	5678.5
3204.28132	5683.8
3206.58656	5698.8
3208.8904	5687.5
3211.19287	5701.6
3213.49394	5721.5
3215.79363	5701.3
3218.09193	5722.4
3220.38884	5725.9
3222.68438	5721.7
3224.97853	5712.8
3227.2713	5728.2
3229.56269	5725.2
3231.8527	5747.6
3234.14133	5726.3
3236.42858	5710.6
3238.71446	5721.5
3240.99896	5693.9
3243.28209	5704.2
3245.56384	5684.6
3247.84423	5680.4
3250.12324	5687.3
3252.40088	5690.6
3254.67715	5696.4
3256.95205	5674.5
3259.22558	5698.3
3261.49775	5681.6
3263.76855	5695.1
3266.03799	5690.5
3268.30606	5666.9
3270.57277	5691.3
3272.83812	5662.3
3275.10211	5660.4
3277.36474	5669.9
3279.62601	5667.5
3281.88593	5649.8
3284.14448	5657.1
3286.40168	5680.4
3288.65753	5670
3290.91202	5690.1
3293.16516	5676.9
3295.41695	5688.2
3297.66738	5655.3
3299.91647	5629.7
3302.16421	5593
3304.4106	5570.9
3306.65564	5559.7
3308.89933	5497.8
3311.14169	5447.3
3313.38269	5413.9
3315.62236	5360.2
3317.86068	5330.3
3320.09766	5283
3322.3333	5244
3324.5676	5220.2
3326.80056	5106.5
3329.03219	5093.6
3331.26248	1.3
3333.49143	-0.6
3335.71905	2.2
