Data from AgNPs_FTO_APTES_UA_50uM_CRN_5uM_R6G_10uM_NaF_0.1M_Addition_RamanShift__18__12-53-34-831.txt Node

Date: Mon Feb 21 12:53:34 GMT 2022
User: TCL
Spectrometer: QEP01345
Trigger mode: 4
Integration Time (sec): 7.000000E0
Scans to average: 10
Electric dark correction enabled: true
Nonlinearity correction enabled: false
Boxcar width: 0
XAxis mode: Raman Shifts
Number of Pixels in Spectrum: 1044
>>>>>Begin Spectral Data<<<<<
46.04893	1.1
50.45542	-0.1
54.85868	-0.4
59.25871	-1.8
63.6555	53.8
68.04907	60
72.43941	61.3
76.82654	68.7
81.21044	71.7
85.59113	71.7
89.96862	73.3
94.34289	76.8
98.71396	78.8
103.08183	87.8
107.4465	86.8
111.80798	84.4
116.16626	86.5
120.52136	86.3
124.87327	96.9
129.222	94.2
133.56755	100.9
137.90993	111.7
142.24913	120
146.58517	132.9
150.91804	150.6
155.24774	182.1
159.57429	220.2
163.89768	282.1
168.21792	378.6
172.53501	518.8
176.84895	728.5
181.15975	1006.7
185.46741	1414.4
189.77193	1956.1
194.07331	2611.8
198.37157	3367.4
202.6667	4164
206.9587	4973.2
211.24758	5794.3
215.53334	6673.4
219.81599	7648.8
224.09553	8757.6
228.37195	10025.9
232.64527	11345.6
236.91549	12667.2
241.18261	13765.4
245.44663	14625.9
249.70755	15237.4
253.96539	15771.9
258.22014	16220.7
262.4718	16640.5
266.72039	16910.8
270.96589	17000.9
275.20832	16852.1
279.44768	16520
283.68397	16108.8
287.91719	15818.9
292.14735	15821.8
296.37445	16151.3
300.59849	16845.3
304.81948	17660.6
309.03742	18207.8
313.25231	18219.6
317.46415	17387.8
321.67296	16065.1
325.87872	14956.3
330.08145	14417.6
334.28114	14368.4
338.47781	14550.7
342.67145	14957.6
346.86207	15542.3
351.04966	16381.2
355.23424	17422.8
359.4158	18236.2
363.59435	18622.7
367.76989	18742.2
371.94243	18677.2
376.11196	18511.8
380.27849	18378.6
384.44203	18213.8
388.60257	18037.2
392.76012	17888.5
396.91468	17989.1
401.06626	18387.7
405.21485	18630.9
409.36047	18202.5
413.50311	17151.1
417.64277	16137.2
421.77947	15581.5
425.9132	15371.4
430.04396	15282.7
434.17176	15322.6
438.2966	15560.2
442.41849	15958.9
446.53742	16535.8
450.6534	17106.8
454.76644	17436.5
458.87653	17429.8
462.98368	17219.9
467.08789	16937.9
471.18916	16569.4
475.2875	16165.7
479.38291	15827.1
483.4754	15621
487.56496	15389.4
491.6516	15150.5
495.73531	15007.3
499.81612	15020.3
503.89401	15215.5
507.96899	15412.4
512.04106	15592.4
516.11023	15782.6
520.1765	15920.1
524.23987	15838.6
528.30034	15662.9
532.35792	15440.9
536.41261	15113.2
540.46441	14743.1
544.51333	14572.3
548.55936	14662.5
552.60252	15068
556.64279	15548.6
560.6802	15927.4
564.71473	16296.5
568.7464	17131.4
572.7752	17674.2
576.80114	17260.9
580.82422	16678.1
584.84444	16592.3
588.86181	16836.3
592.87633	17330.8
596.888	17633.1
600.89682	17733
604.9028	19419.4
608.90594	25067
612.90624	32218.1
616.90371	30145.8
620.89834	20492.2
624.89015	15959
628.87913	15182.2
632.86528	15464.3
636.84862	15833.3
640.82913	15559.8
644.80683	14685.8
648.78172	13962.8
652.75379	13878.5
656.72306	14556.7
660.68952	15421.7
664.65319	15128.7
668.61405	14271.7
672.57211	13954.1
676.52738	14084.9
680.47986	14202.9
684.42955	14159.8
688.37646	14158.1
692.32058	14153.6
696.26192	14194.2
700.20048	14263.1
704.13626	14267.7
708.06928	14094.2
711.99952	13900.4
715.927	13837.4
719.85171	13926.9
723.77365	13960.9
727.69284	13806.1
731.60928	13595.6
735.52295	13546.1
739.43388	13611.1
743.34206	13704.3
747.24749	13746.1
751.15017	13801.8
755.05012	14090.2
758.94733	14889.8
762.8418	16933.4
766.73354	20543.1
770.62254	24166.5
774.50882	25737.3
778.39237	24281.1
782.27321	20708.7
786.15132	17289.3
790.02671	15223.8
793.89938	14221.4
797.76935	13798.8
801.6366	13582
805.50115	13457
809.36299	13318.6
813.22213	13186.7
817.07857	13106.1
820.93231	13051
824.78336	13047.6
828.63172	13047
832.47738	13085.3
836.32036	13024.9
840.16066	12925.1
843.99827	12912.3
847.8332	12869.5
851.66546	12859.6
855.49504	12856.5
859.32195	12870.3
863.1462	12800.6
866.96777	12822.3
870.78668	12749.8
874.60293	12762.4
878.41652	12797.9
882.22745	12919.1
886.03573	13023.1
889.84136	13021.9
893.64433	12952.7
897.44466	12893.7
901.24235	12837.9
905.0374	12740
908.8298	12581.9
912.61957	12457.6
916.40671	12482.9
920.19121	12620.1
923.97308	12819.1
927.75233	13037.1
931.52895	13181.8
935.30295	13025.7
939.07433	12547.8
942.84309	12174.5
946.60924	11919.4
950.37278	11850.1
954.13371	11763.7
957.89203	11725.1
961.64774	11696.3
965.40086	11660.3
969.15137	11618.7
972.89929	11595.9
976.64461	11528.2
980.38733	11542.4
984.12747	11553.5
987.86502	11635.2
991.59999	11791.8
995.33237	12010.3
999.06217	12391.8
1002.78939	12884.7
1006.51404	13351.6
1010.23611	13702.6
1013.95561	13855.6
1017.67255	13860.5
1021.38692	13638
1025.09872	13301.9
1028.80796	13129.3
1032.51465	13192.8
1036.21877	13399.8
1039.92035	13513
1043.61937	13513.3
1047.31584	13386.4
1051.00976	13191.2
1054.70114	13082
1058.38998	13019.8
1062.07627	13076.8
1065.76003	13128.6
1069.44126	13237.9
1073.11995	13495.7
1076.79611	13837.8
1080.46974	14190.4
1084.14085	14754.7
1087.80943	15274.9
1091.47549	15538.5
1095.13903	15297.1
1098.80005	14726.8
1102.45857	14185.2
1106.11456	13973.1
1109.76805	14074.1
1113.41903	14427.1
1117.06751	15017.5
1120.71348	15780.3
1124.35696	16639.6
1127.99793	17422
1131.63641	17352
1135.2724	16481.6
1138.90589	15633.6
1142.5369	15141.4
1146.16542	14747.1
1149.79145	14552.9
1153.415	14564.6
1157.03607	14691.2
1160.65467	15113
1164.27079	15889
1167.88443	17125.5
1171.49561	18951.9
1175.10432	21753.9
1178.71056	25516
1182.31434	28923
1185.91565	30059.3
1189.51451	28959.6
1193.11091	26854.1
1196.70485	24605.8
1200.29634	22800.3
1203.88538	21340
1207.47197	19764.9
1211.05612	18413.2
1214.63782	17643.4
1218.21708	17348.2
1221.79391	17434.8
1225.36829	17565.1
1228.94024	17392.9
1232.50976	16991.7
1236.07685	16586.6
1239.6415	16350.9
1243.20374	16280
1246.76355	16369.8
1250.32093	16617.9
1253.8759	17083.6
1257.42845	17761.4
1260.97859	18664.2
1264.52631	19674.5
1268.07163	20667.6
1271.61453	21572
1275.15503	22312.3
1278.69312	22830.5
1282.22882	23270.1
1285.76211	23967.9
1289.29301	25089.7
1292.82151	26432.6
1296.34761	27919.6
1299.87133	30086.8
1303.39266	33217.2
1306.9116	37640.6
1310.42815	42129
1313.94233	44099.2
1317.45412	42494.4
1320.96354	39041.6
1324.47058	35658.1
1327.97525	32793.9
1331.47754	30936.9
1334.97747	30027.5
1338.47502	29834.4
1341.97022	30244
1345.46305	31301.8
1348.95352	32946.2
1352.44163	35374.4
1355.92738	39030.5
1359.41078	44890.1
1362.89183	50620.1
1366.37053	49255.7
1369.84688	40822.1
1373.32088	32716.5
1376.79254	27965.7
1380.26186	25634.6
1383.72883	24282.5
1387.19347	23337.4
1390.65578	22546.2
1394.11575	22112.2
1397.57339	22033.6
1401.0287	22125.8
1404.48168	22132.6
1407.93234	21988.9
1411.38068	21673.9
1414.82669	21260.6
1418.27039	20778.4
1421.71177	20191.7
1425.15083	19593.9
1428.58758	19325
1432.02203	19566.4
1435.45416	20133.3
1438.88399	20508.6
1442.31151	20647.4
1445.73673	20850.4
1449.15965	21065.7
1452.58027	21251.4
1455.9986	21251.1
1459.41463	21400.7
1462.82837	21775.1
1466.23982	22320.6
1469.64898	22801.3
1473.05586	22986.8
1476.46045	22963.3
1479.86276	22963.6
1483.26279	23138.5
1486.66054	23555.8
1490.05602	24276.9
1493.44922	25421.9
1496.84016	27317.6
1500.22882	30472.1
1503.61521	35117.8
1506.99934	40684.3
1510.38121	45013.3
1513.76081	45549.2
1517.13816	41593.6
1520.51324	35451.8
1523.88607	30143.7
1527.25665	26832.8
1530.62498	25058.1
1533.99105	24080.9
1537.35488	23314.9
1540.71647	22628.8
1544.07581	22059.2
1547.4329	21733.2
1550.78776	21515.7
1554.14038	21508.9
1557.49077	21662.7
1560.83892	22144.4
1564.18484	22948.9
1567.52853	23998.3
1570.86999	24958.3
1574.20922	25589.5
1577.54624	25416.2
1580.88103	24093.2
1584.2136	22459.1
1587.54395	21701
1590.87208	22338.2
1594.19801	23924.3
1597.52172	25881.4
1600.84321	26414.7
1604.16251	25005.8
1607.47959	22783.7
1610.79447	20479
1614.10715	18457.2
1617.41763	16834.3
1620.7259	15769.3
1624.03199	15280.6
1627.33587	15340.9
1630.63757	16029.7
1633.93707	17389.8
1637.23439	19657.9
1640.52951	23127.2
1643.82246	27804
1647.11321	32589.1
1650.40179	35205.1
1653.68819	33164.8
1656.97241	27378.7
1660.25446	21346.3
1663.53433	17171.6
1666.81203	14763.7
1670.08756	13410.9
1673.36092	12589.1
1676.63211	12077.8
1679.90115	11706.5
1683.16801	11433.5
1686.43272	11235.6
1689.69527	11033
1692.95567	10891.9
1696.2139	10749.5
1699.46999	10583.3
1702.72392	10544.5
1705.97571	10533.8
1709.22535	10609.9
1712.47284	10624.8
1715.71819	10591.8
1718.96139	10546
1722.20246	10466.9
1725.44139	10335.5
1728.67818	10256.2
1731.91284	10131.6
1735.14537	10021.6
1738.37576	9976.4
1741.60403	9906
1744.83017	9856.3
1748.05418	9814.1
1751.27607	9741.1
1754.49584	9678.2
1757.71349	9580.5
1760.92903	9513
1764.14244	9485.4
1767.35375	9432
1770.56294	9405
1773.77002	9358.7
1776.97499	9359.3
1780.17785	9382.8
1783.37861	9367.1
1786.57727	9352.7
1789.77382	9339.2
1792.96828	9329.5
1796.16064	9294.5
1799.3509	9277.3
1802.53907	9238.6
1805.72514	9229.7
1808.90913	9195.2
1812.09102	9137.9
1815.27083	9127.7
1818.44856	9101.2
1821.6242	9108.3
1824.79776	9087.9
1827.96924	9086.2
1831.13864	9070.7
1834.30597	9058.1
1837.47122	9080.4
1840.6344	9047
1843.7955	9044.2
1846.95454	9033.4
1850.11151	9023.7
1853.26642	9012.4
1856.41926	9015
1859.57004	8994.1
1862.71876	8992.2
1865.86542	8988.3
1869.01003	8977.2
1872.15258	8951.8
1875.29308	8969.7
1878.43152	8947.3
1881.56792	8945.2
1884.70227	8962.1
1887.83457	8978
1890.96482	8950
1894.09304	8899.1
1897.21921	8902.6
1900.34335	8909.3
1903.46544	8908.9
1906.58551	8890
1909.70353	8878.7
1912.81953	8862.7
1915.93349	8839.1
1919.04543	8801.2
1922.15534	8764.5
1925.26322	8727.2
1928.36908	8692
1931.47292	8634.4
1934.57473	8587.6
1937.67453	8571.6
1940.77232	8518.3
1943.86808	8532.6
1946.96184	8477.3
1950.05358	8454.7
1953.14331	8429.6
1956.23103	8408.3
1959.31675	8380.1
1962.40046	8344.8
1965.48217	8351.2
1968.56188	8349.1
1971.63959	8311.6
1974.7153	8283.4
1977.78901	8256.5
1980.86073	8220
1983.93046	8181.5
1986.99819	8150.8
1990.06394	8106.3
1993.1277	8064.9
1996.18947	8024.7
1999.24925	8021.6
2002.30706	8001.8
2005.36288	7945.5
2008.41672	7939.1
2011.46859	7915.9
2014.51848	7885.6
2017.56639	7872.1
2020.61233	7851
2023.6563	7843.3
2026.6983	7819.2
2029.73833	7803.8
2032.7764	7781.3
2035.8125	7758
2038.84664	7760.6
2041.87881	7746.2
2044.90903	7700.3
2047.93729	7728.7
2050.96359	7711.4
2053.98794	7697
2057.01034	7677.4
2060.03078	7691.4
2063.04927	7678.9
2066.06582	7651.3
2069.08042	7626.3
2072.09307	7636.4
2075.10378	7641.8
2078.11255	7631
2081.11938	7610.1
2084.12426	7610.2
2087.12722	7633.5
2090.12824	7613.1
2093.12732	7614.3
2096.12447	7623.3
2099.11969	7606.5
2102.11299	7622.2
2105.10435	7643.8
2108.09379	7630
2111.08131	7627.9
2114.0669	7637
2117.05057	7639
2120.03233	7638.1
2123.01216	7664
2125.99008	7671.6
2128.96609	7661.4
2131.94018	7666.3
2134.91236	7671.2
2137.88263	7652
2140.851	7636.1
2143.81746	7640.1
2146.78201	7612
2149.74466	7615.9
2152.7054	7592.4
2155.66425	7622.6
2158.6212	7603.9
2161.57625	7588.7
2164.52941	7578.8
2167.48067	7560.3
2170.43004	7545
2173.37752	7572.9
2176.32311	7573.4
2179.26681	7594.6
2182.20863	7588.6
2185.14856	7597.2
2188.08661	7584.8
2191.02278	7576.4
2193.95707	7546.6
2196.88948	7538.2
2199.82001	7536.5
2202.74867	7539.2
2205.67545	7552.1
2208.60037	7521.4
2211.52341	7488.6
2214.44458	7512.5
2217.36388	7482.2
2220.28132	7467.8
2223.1969	7427.9
2226.11061	7425.1
2229.02246	7430.2
2231.93245	7423
2234.84058	7387
2237.74686	7390.2
2240.65128	7382.5
2243.55385	7362.7
2246.45456	7367.1
2249.35343	7364.6
2252.25044	7361.8
2255.14561	7333
2258.03893	7371.5
2260.93041	7338
2263.82004	7328.3
2266.70783	7330.6
2269.59378	7303.2
2272.4779	7272.1
2275.36017	7274.4
2278.24061	7258.1
2281.11922	7228.7
2283.996	7218.5
2286.87094	7205.3
2289.74405	7152.1
2292.61534	7179.1
2295.4848	7160.2
2298.35243	7158
2301.21824	7137.6
2304.08223	7140.7
2306.94439	7138.5
2309.80474	7146.9
2312.66327	7133.3
2315.51999	7157.9
2318.37489	7137.4
2321.22797	7132.1
2324.07925	7139.1
2326.92871	7146.3
2329.77637	7091.3
2332.62222	7088.1
2335.46626	7098.9
2338.3085	7090.4
2341.14893	7106.3
2343.98756	7130.1
2346.8244	7134.9
2349.65943	7143.9
2352.49267	7143.7
2355.32411	7155.1
2358.15376	7173.3
2360.98161	7180.5
2363.80768	7191.3
2366.63195	7198.9
2369.45444	7181.3
2372.27514	7203.6
2375.09405	7204.6
2377.91118	7173.2
2380.72652	7129.3
2383.54009	7088.3
2386.35187	7055.3
2389.16188	7037.6
2391.97011	7022.4
2394.77657	7011.2
2397.58125	6975.9
2400.38416	6966.1
2403.18529	6938.7
2405.98466	6925.7
2408.78226	6917.6
2411.57809	6908.7
2414.37216	6900.1
2417.16446	6887.2
2419.955	6884.1
2422.74378	6877.7
2425.5308	6873.1
2428.31606	6888.2
2431.09956	6863.3
2433.88131	6866.1
2436.6613	6882.4
2439.43954	6867.1
2442.21603	6890.4
2444.99077	6861.6
2447.76377	6914
2450.53501	6898.5
2453.30451	6910.1
2456.07226	6900.5
2458.83827	6899.1
2461.60254	6892.5
2464.36507	6895.8
2467.12586	6900.2
2469.88492	6908.4
2472.64224	6901.3
2475.39782	6893.5
2478.15167	6893
2480.90379	6933.5
2483.65417	6949.4
2486.40283	6995.6
2489.14976	7005.4
2491.89497	7016.4
2494.63845	7006.8
2497.3802	6988.4
2500.12024	6977.1
2502.85855	6975.8
2505.59514	6931.2
2508.33002	6921.6
2511.06318	6874.4
2513.79462	6861.8
2516.52435	6849.7
2519.25237	6820.2
2521.97867	6793.7
2524.70327	6778.5
2527.42616	6765.9
2530.14734	6762.7
2532.86681	6754.3
2535.58458	6786.6
2538.30065	6773.1
2541.01501	6771.6
2543.72768	6778.1
2546.43864	6770.9
2549.14791	6752.2
2551.85548	6766.1
2554.56136	6752.7
2557.26554	6758.9
2559.96803	6760.4
2562.66883	6761.4
2565.36794	6734.7
2568.06536	6765.6
2570.7611	6741.2
2573.45514	6725.2
2576.14751	6743.6
2578.83819	6739.3
2581.52719	6709.4
2584.21451	6688.8
2586.90015	6682.4
2589.58411	6665.4
2592.2664	6691.1
2594.94701	6689.1
2597.62594	6683.8
2600.30321	6687
2602.9788	6682.9
2605.65273	6694.8
2608.32498	6677.3
2610.99557	6659.7
2613.66449	6683.9
2616.33175	6699.3
2618.99734	6689.2
2621.66128	6669.4
2624.32355	6682.1
2626.98416	6680.2
2629.64311	6657.2
2632.30041	6650.9
2634.95605	6637.2
2637.61004	6632.2
2640.26238	6625.9
2642.91306	6612.8
2645.56209	6588.9
2648.20948	6587.2
2650.85521	6591.2
2653.4993	6621.7
2656.14175	6625.9
2658.78255	6646.8
2661.42171	6661.7
2664.05923	6673.5
2666.6951	6679.2
2669.32934	6689.5
2671.96194	6690.6
2674.59291	6693.5
2677.22224	6691.5
2679.84993	6660.2
2682.476	6666.4
2685.10043	6667.7
2687.72324	6623.7
2690.34441	6640.9
2692.96396	6619.6
2695.58188	6634.3
2698.19818	6615.4
2700.81285	6615.9
2703.4259	6581
2706.03733	6517.5
2708.64714	6550.5
2711.25533	6602.4
2713.86191	6627.5
2716.46687	6624.1
2719.07021	6676
2721.67194	6665.2
2724.27206	6656.7
2726.87057	6658.5
2729.46747	6669.5
2732.06276	6661.8
2734.65644	6650.1
2737.24852	6653.2
2739.83899	6643.2
2742.42786	6644.3
2745.01513	6618.9
2747.60079	6641.1
2750.18486	6607.8
2752.76733	6593.6
2755.3482	6590.2
2757.92747	6594.8
2760.50515	6588.2
2763.08123	6586.2
2765.65573	6576.2
2768.22863	6575.7
2770.79994	6577.6
2773.36967	6572.7
2775.9378	6577.3
2778.50435	6561.6
2781.06932	6565.1
2783.6327	6559.9
2786.1945	6555.6
2788.75471	6559.3
2791.31335	6568.6
2793.87041	6563.2
2796.42589	6556.5
2798.97979	6541.9
2801.53212	6535.9
2804.08288	6537.8
2806.63206	6523.1
2809.17967	6530
2811.72571	6523.1
2814.27018	6513.9
2816.81308	6513.2
2819.35442	6529.6
2821.89419	6545.4
2824.43239	6565
2826.96904	6541.4
2829.50412	6546.3
2832.03763	6538.5
2834.56959	6517.2
2837.1	6510.7
2839.62884	6519.2
2842.15613	6494.5
2844.68186	6496.2
2847.20604	6523.2
2849.72867	6540.1
2852.24974	6522
2854.76927	6524.3
2857.28724	6524.8
2859.80367	6556.3
2862.31855	6555.2
2864.83189	6584
2867.34368	6591.3
2869.85393	6630.9
2872.36264	6629.5
2874.8698	6646
2877.37543	6641.5
2879.87952	6637.8
2882.38207	6653.8
2884.88308	6629.6
2887.38256	6634.4
2889.88051	6627.9
2892.37692	6636.5
2894.8718	6641.3
2897.36515	6655
2899.85698	6655
2902.34727	6670.4
2904.83604	6673
2907.32328	6675.4
2909.809	6695.8
2912.29319	6708.5
2914.77587	6696
2917.25702	6693.4
2919.73665	6686.6
2922.21476	6674.1
2924.69136	6685.8
2927.16644	6651.1
2929.64	6642.3
2932.11205	6630.3
2934.58258	6581.2
2937.05161	6577.3
2939.51912	6578.1
2941.98513	6568.7
2944.44962	6535.3
2946.91261	6507.3
2949.37409	6522.5
2951.83407	6504.1
2954.29254	6493.3
2956.74951	6479.1
2959.20498	6469.1
2961.65895	6460.7
2964.11142	6447.5
2966.56239	6422.5
2969.01186	6426.5
2971.45984	6391.5
2973.90632	6373.1
2976.35131	6343
2978.7948	6358.6
2981.23681	6315.8
2983.67732	6319.4
2986.11635	6295.8
2988.55388	6263.7
2990.98993	6247.2
2993.4245	6255.8
2995.85758	6235.5
2998.28917	6231.1
3000.71928	6214.4
3003.14791	6195.7
3005.57506	6200
3008.00073	6168.2
3010.42493	6185.3
3012.84764	6171.5
3015.26888	6162.2
3017.68865	6146.7
3020.10694	6149.9
3022.52376	6115.4
3024.9391	6112.6
3027.35298	6104.8
3029.76539	6101
3032.17632	6104.1
3034.5858	6073.2
3036.9938	6048.8
3039.40034	6045.1
3041.80542	6037.7
3044.20903	6032.1
3046.61118	6029.3
3049.01187	6011.8
3051.4111	6006
3053.80888	5989.8
3056.20519	5990.8
3058.60005	5976.6
3060.99345	5971.6
3063.3854	5942.1
3065.7759	5945.9
3068.16494	5931
3070.55254	5889.2
3072.93868	5896.5
3075.32338	5878.1
3077.70662	5853.8
3080.08842	5833.1
3082.46878	5831.8
3084.84769	5821.9
3087.22515	5832.2
3089.60118	5818.4
3091.97576	5818.8
3094.3489	5816.4
3096.72061	5809.7
3099.09087	5811
3101.4597	5791
3103.82709	5809.2
3106.19305	5784.2
3108.55757	5799.9
3110.92066	5793.8
3113.28232	5775.8
3115.64255	5761.8
3118.00134	5770.4
3120.35871	5747.1
3122.71466	5766.2
3125.06917	5735.3
3127.42226	5733.3
3129.77393	5749
3132.12417	5749.2
3134.47299	5744.8
3136.82039	5722.4
3139.16636	5736.4
3141.51092	5729.1
3143.85406	5743.7
3146.19579	5747.6
3148.53609	5748.3
3150.87499	5735.2
3153.21246	5753.3
3155.54853	5783.5
3157.88318	5760.3
3160.21642	5763.8
3162.54826	5780.7
3164.87868	5786.7
3167.2077	5787.4
3169.5353	5783
3171.86151	5777
3174.18631	5781.2
3176.5097	5775.1
3178.83169	5757.5
3181.15228	5766.4
3183.47147	5752.8
3185.78926	5742
3188.10565	5750.2
3190.42065	5727.2
3192.73424	5758.5
3195.04645	5768.3
3197.35725	5780.4
3199.66667	5779.1
3201.97469	5792.9
3204.28132	5783.9
3206.58656	5797.1
3208.8904	5793.6
3211.19287	5800
3213.49394	5808.1
3215.79363	5826.2
3218.09193	5822.9
3220.38884	5815.1
3222.68438	5817.1
3224.97853	5807.9
3227.2713	5819.4
3229.56269	5837.5
3231.8527	5852.6
3234.14133	5813.1
3236.42858	5834.2
3238.71446	5810.1
3240.99896	5803.9
3243.28209	5800.1
3245.56384	5784.4
3247.84423	5801.1
3250.12324	5779.6
3252.40088	5784.6
3254.67715	5780.8
3256.95205	5787
3259.22558	5781
3261.49775	5791
3263.76855	5787.6
3266.03799	5776.4
3268.30606	5783.8
3270.57277	5771.6
3272.83812	5757.3
3275.10211	5754.1
3277.36474	5764.4
3279.62601	5773.5
3281.88593	5771
3284.14448	5766.7
3286.40168	5798.1
3288.65753	5780.4
3290.91202	5793.5
3293.16516	5797.5
3295.41695	5786.3
3297.66738	5756.6
3299.91647	5744
3302.16421	5694.2
3304.4106	5670
3306.65564	5644.1
3308.89933	5602.4
3311.14169	5559.6
3313.38269	5485.5
3315.62236	5463.4
3317.86068	5435.1
3320.09766	5383.7
3322.3333	5344.4
3324.5676	5318.7
3326.80056	5208.7
3329.03219	5190.2
3331.26248	2.1
3333.49143	-1.7
3335.71905	0.5
