Data from AgNPs_FTO_APTES_UA_50uM_CRN_5uM_R6G_10uM_NaF_0.1M_Addition_RamanShift__0__12-32-34-805.txt Node

Date: Mon Feb 21 12:32:34 GMT 2022
User: TCL
Spectrometer: QEP01345
Trigger mode: 4
Integration Time (sec): 7.000000E0
Scans to average: 10
Electric dark correction enabled: true
Nonlinearity correction enabled: false
Boxcar width: 0
XAxis mode: Raman Shifts
Number of Pixels in Spectrum: 1044
>>>>>Begin Spectral Data<<<<<
46.04893	0.3875
50.45542	-0.9125
54.85868	0.2875
59.25871	-1.5125
63.6555	26.4875
68.04907	30.1875
72.43941	27.6875
76.82654	30.8875
81.21044	32.8875
85.59113	34.0875
89.96862	37.2875
94.34289	38.2875
98.71396	37.6875
103.08183	44.3875
107.4465	43.3875
111.80798	40.5875
116.16626	40.0875
120.52136	43.3875
124.87327	47.1875
129.222	41.6875
133.56755	43.0875
137.90993	47.3875
142.24913	52.4875
146.58517	56.3875
150.91804	63.7875
155.24774	73.4875
159.57429	90.2875
163.89768	110.1875
168.21792	141.7875
172.53501	197.3875
176.84895	273.9875
181.15975	377.6875
185.46741	533.1875
189.77193	733.3875
194.07331	980.8875
198.37157	1259.7875
202.6667	1567.1875
206.9587	1874.9875
211.24758	2171.2875
215.53334	2493.1875
219.81599	2847.3875
224.09553	3257.9875
228.37195	3697.7875
232.64527	4174.5875
236.91549	4641.0875
241.18261	5076.3875
245.44663	5433.8875
249.70755	5709.9875
253.96539	5974.2875
258.22014	6178.6875
262.4718	6398.1875
266.72039	6553.0875
270.96589	6568.8875
275.20832	6476.8875
279.44768	6297.2875
283.68397	6096.0875
287.91719	5976.8875
292.14735	5923.0875
296.37445	6035.0875
300.59849	6251.0875
304.81948	6531.0875
309.03742	6765.7875
313.25231	6786.3875
317.46415	6521.5875
321.67296	6098.2875
325.87872	5723.2875
330.08145	5552.5875
334.28114	5557.8875
338.47781	5648.4875
342.67145	5773.7875
346.86207	5983.1875
351.04966	6303.5875
355.23424	6650.4875
359.4158	6940.4875
363.59435	7070.9875
367.76989	7129.3875
371.94243	7094.6875
376.11196	7093.8875
380.27849	7046.5875
384.44203	6993.0875
388.60257	6912.7875
392.76012	6860.8875
396.91468	6907.8875
401.06626	7028.2875
405.21485	7124.9875
409.36047	7016.0875
413.50311	6664.2875
417.64277	6371.9875
421.77947	6223.8875
425.9132	6211.4875
430.04396	6233.5875
434.17176	6241.7875
438.2966	6278.6875
442.41849	6370.6875
446.53742	6527.0875
450.6534	6673.4875
454.76644	6777.5875
458.87653	6737.8875
462.98368	6618.3875
467.08789	6504.3875
471.18916	6345.6875
475.2875	6202.7875
479.38291	6129.1875
483.4754	6020.6875
487.56496	5976.6875
491.6516	5977.5875
495.73531	5999.0875
499.81612	5984.0875
503.89401	6059.9875
507.96899	6089.7875
512.04106	6145.2875
516.11023	6249.0875
520.1765	6321.4875
524.23987	6329.5875
528.30034	6271.9875
532.35792	6195.9875
536.41261	6094.7875
540.46441	5969.3875
544.51333	5886.1875
548.55936	5882.7875
552.60252	5976.1875
556.64279	6107.5875
560.6802	6176.2875
564.71473	6253.8875
568.7464	6465.3875
572.7752	6546.1875
576.80114	6352.7875
580.82422	6166.2875
584.84444	6131.7875
588.86181	6269.8875
592.87633	6473.9875
596.888	6725.2875
600.89682	6964.7875
604.9028	7636.3875
608.90594	9633.3875
612.90624	12224.5875
616.90371	11621.0875
620.89834	8197.7875
624.89015	6579.7875
628.87913	6314.7875
632.86528	6394.2875
636.84862	6543.8875
640.82913	6404.4875
644.80683	6073.7875
648.78172	5844.4875
652.75379	5836.1875
656.72306	6084.1875
660.68952	6385.5875
664.65319	6308.6875
668.61405	5991.8875
672.57211	5859.1875
676.52738	5859.2875
680.47986	5870.9875
684.42955	5783.5875
688.37646	5795.7875
692.32058	5843.3875
696.26192	5950.0875
700.20048	6090.5875
704.13626	6152.3875
708.06928	6133.0875
711.99952	6047.8875
715.927	5987.3875
719.85171	5996.2875
723.77365	5976.3875
727.69284	5894.1875
731.60928	5821.2875
735.52295	5794.8875
739.43388	5818.0875
743.34206	5836.4875
747.24749	5821.8875
751.15017	5830.5875
755.05012	5894.3875
758.94733	6150.2875
762.8418	6794.4875
766.73354	7962.0875
770.62254	9145.0875
774.50882	9846.0875
778.39237	9545.0875
782.27321	8396.0875
786.15132	7166.1875
790.02671	6381.2875
793.89938	6030.8875
797.76935	5893.9875
801.6366	5838.2875
805.50115	5814.4875
809.36299	5804.7875
813.22213	5766.2875
817.07857	5741.6875
820.93231	5714.4875
824.78336	5716.8875
828.63172	5743.8875
832.47738	5762.2875
836.32036	5753.5875
840.16066	5755.2875
843.99827	5733.8875
847.8332	5718.7875
851.66546	5689.9875
855.49504	5677.6875
859.32195	5678.2875
863.1462	5654.0875
866.96777	5626.9875
870.78668	5626.0875
874.60293	5637.2875
878.41652	5669.7875
882.22745	5728.3875
886.03573	5784.2875
889.84136	5778.0875
893.64433	5736.9875
897.44466	5719.9875
901.24235	5705.2875
905.0374	5671.3875
908.8298	5623.0875
912.61957	5586.2875
916.40671	5597.4875
920.19121	5621.5875
923.97308	5690.8875
927.75233	5766.0875
931.52895	5886.1875
935.30295	5820.6875
939.07433	5678.1875
942.84309	5518.9875
946.60924	5449.2875
950.37278	5393.8875
954.13371	5374.8875
957.89203	5343.9875
961.64774	5337.2875
965.40086	5315.3875
969.15137	5302.7875
972.89929	5292.4875
976.64461	5317.5875
980.38733	5308.1875
984.12747	5344.9875
987.86502	5373.4875
991.59999	5436.4875
995.33237	5488.7875
999.06217	5632.7875
1002.78939	5785.0875
1006.51404	5891.6875
1010.23611	5966.1875
1013.95561	6019.8875
1017.67255	6021.0875
1021.38692	5951.7875
1025.09872	5879.9875
1028.80796	5869.9875
1032.51465	5946.7875
1036.21877	6059.9875
1039.92035	6134.8875
1043.61937	6129.1875
1047.31584	6027.3875
1051.00976	5958.5875
1054.70114	5898.8875
1058.38998	5844.0875
1062.07627	5835.1875
1065.76003	5820.0875
1069.44126	5864.9875
1073.11995	5938.7875
1076.79611	6074.8875
1080.46974	6233.1875
1084.14085	6432.8875
1087.80943	6586.9875
1091.47549	6641.8875
1095.13903	6540.2875
1098.80005	6282.0875
1102.45857	6145.2875
1106.11456	6088.4875
1109.76805	6143.5875
1113.41903	6273.1875
1117.06751	6503.9875
1120.71348	6792.9875
1124.35696	7085.2875
1127.99793	7372.4875
1131.63641	7311.1875
1135.2724	6988.1875
1138.90589	6649.2875
1142.5369	6396.2875
1146.16542	6232.7875
1149.79145	6127.4875
1153.415	6087.7875
1157.03607	6083.5875
1160.65467	6176.5875
1164.27079	6360.4875
1167.88443	6696.4875
1171.49561	7227.4875
1175.10432	8070.7875
1178.71056	9317.1875
1182.31434	10411.2875
1185.91565	10778.5875
1189.51451	10456.3875
1193.11091	9757.8875
1196.70485	8976.8875
1200.29634	8412.6875
1203.88538	7939.8875
1207.47197	7378.2875
1211.05612	6921.7875
1214.63782	6636.9875
1218.21708	6582.3875
1221.79391	6592.8875
1225.36829	6653.2875
1228.94024	6654.8875
1232.50976	6594.4875
1236.07685	6546.8875
1239.6415	6548.2875
1243.20374	6610.8875
1246.76355	6672.6875
1250.32093	6753.0875
1253.8759	6923.1875
1257.42845	7155.0875
1260.97859	7452.7875
1264.52631	7732.7875
1268.07163	8047.5875
1271.61453	8279.1875
1275.15503	8403.9875
1278.69312	8433.7875
1282.22882	8470.7875
1285.76211	8615.4875
1289.29301	8915.5875
1292.82151	9262.7875
1296.34761	9644.5875
1299.87133	10260.4875
1303.39266	11238.0875
1306.9116	12648.6875
1310.42815	14074.6875
1313.94233	14648.1875
1317.45412	13924.8875
1320.96354	12568.9875
1324.47058	11261.5875
1327.97525	10159.5875
1331.47754	9376.8875
1334.97747	9056.2875
1338.47502	9022.0875
1341.97022	9229.0875
1345.46305	9705.4875
1348.95352	10505.6875
1352.44163	11636.2875
1355.92738	13260.2875
1359.41078	15551.8875
1362.89183	17708.8875
1366.37053	17326.1875
1369.84688	14472.9875
1373.32088	11710.6875
1376.79254	10063.3875
1380.26186	9250.6875
1383.72883	8821.0875
1387.19347	8451.1875
1390.65578	8021.3875
1394.11575	7577.2875
1397.57339	7323.5875
1401.0287	7211.7875
1404.48168	7152.3875
1407.93234	7101.7875
1411.38068	7105.1875
1414.82669	7157.2875
1418.27039	7145.0875
1421.71177	7091.5875
1425.15083	6988.4875
1428.58758	6985.8875
1432.02203	7087.4875
1435.45416	7220.0875
1438.88399	7265.2875
1442.31151	7252.5875
1445.73673	7288.4875
1449.15965	7302.3875
1452.58027	7169.1875
1455.9986	7033.6875
1459.41463	6982.2875
1462.82837	7045.5875
1466.23982	7252.2875
1469.64898	7444.3875
1473.05586	7617.3875
1476.46045	7780.9875
1479.86276	7938.1875
1483.26279	8146.0875
1486.66054	8359.5875
1490.05602	8718.6875
1493.44922	9151.1875
1496.84016	9856.6875
1500.22882	10955.7875
1503.61521	12535.3875
1506.99934	14388.6875
1510.38121	15890.1875
1513.76081	16143.0875
1517.13816	14817.3875
1520.51324	12665.4875
1523.88607	10734.7875
1527.25665	9489.0875
1530.62498	8838.9875
1533.99105	8420.5875
1537.35488	8119.3875
1540.71647	7921.3875
1544.07581	7790.4875
1547.4329	7731.7875
1550.78776	7689.8875
1554.14038	7703.3875
1557.49077	7741.5875
1560.83892	7891.6875
1564.18484	8149.4875
1567.52853	8569.1875
1570.86999	9001.1875
1574.20922	9225.4875
1577.54624	9171.7875
1580.88103	8670.9875
1584.2136	7999.7875
1587.54395	7635.4875
1590.87208	7720.7875
1594.19801	8210.0875
1597.52172	8847.6875
1600.84321	9123.1875
1604.16251	8797.6875
1607.47959	8195.7875
1610.79447	7494.3875
1614.10715	6917.5875
1617.41763	6526.8875
1620.7259	6295.2875
1624.03199	6240.6875
1627.33587	6315.2875
1630.63757	6504.9875
1633.93707	6865.4875
1637.23439	7439.3875
1640.52951	8438.4875
1643.82246	9845.6875
1647.11321	11479.1875
1650.40179	12542.0875
1653.68819	12195.2875
1656.97241	10531.1875
1660.25446	8797.2875
1663.53433	7577.0875
1666.81203	6857.1875
1670.08756	6383.9875
1673.36092	6067.4875
1676.63211	5831.3875
1679.90115	5666.0875
1683.16801	5588.0875
1686.43272	5541.2875
1689.69527	5568.9875
1692.95567	5733.6875
1696.2139	6008.8875
1699.46999	6282.1875
1702.72392	6294.9875
1705.97571	5990.8875
1709.22535	5652.4875
1712.47284	5417.2875
1715.71819	5298.3875
1718.96139	5200.3875
1722.20246	5135.0875
1725.44139	5078.7875
1728.67818	5044.5875
1731.91284	4997.6875
1735.14537	4975.3875
1738.37576	4965.7875
1741.60403	4966.3875
1744.83017	4991.2875
1748.05418	5032.4875
1751.27607	5082.1875
1754.49584	5263.9875
1757.71349	5447.5875
1760.92903	5527.1875
1764.14244	5512.3875
1767.35375	5474.0875
1770.56294	5475.6875
1773.77002	5351.1875
1776.97499	5162.9875
1780.17785	4981.3875
1783.37861	4843.8875
1786.57727	4789.5875
1789.77382	4742.1875
1792.96828	4708.2875
1796.16064	4705.1875
1799.3509	4674.8875
1802.53907	4665.8875
1805.72514	4642.9875
1808.90913	4613.1875
1812.09102	4594.3875
1815.27083	4586.2875
1818.44856	4562.3875
1821.6242	4566.7875
1824.79776	4564.2875
1827.96924	4546.0875
1831.13864	4520.5875
1834.30597	4534.1875
1837.47122	4526.1875
1840.6344	4522.7875
1843.7955	4498.1875
1846.95454	4496.0875
1850.11151	4490.4875
1853.26642	4489.3875
1856.41926	4477.6875
1859.57004	4491.5875
1862.71876	4464.9875
1865.86542	4480.2875
1869.01003	4467.5875
1872.15258	4467.1875
1875.29308	4471.7875
1878.43152	4473.4875
1881.56792	4454.6875
1884.70227	4484.4875
1887.83457	4451.7875
1890.96482	4442.3875
1894.09304	4439.6875
1897.21921	4444.8875
1900.34335	4432.5875
1903.46544	4441.7875
1906.58551	4436.6875
1909.70353	4419.2875
1912.81953	4426.8875
1915.93349	4423.2875
1919.04543	4419.7875
1922.15534	4406.5875
1925.26322	4393.3875
1928.36908	4382.4875
1931.47292	4379.5875
1934.57473	4371.6875
1937.67453	4383.4875
1940.77232	4349.8875
1943.86808	4334.3875
1946.96184	4337.3875
1950.05358	4326.4875
1953.14331	4294.3875
1956.23103	4284.0875
1959.31675	4283.2875
1962.40046	4269.7875
1965.48217	4278.1875
1968.56188	4251.3875
1971.63959	4243.2875
1974.7153	4226.3875
1977.78901	4224.4875
1980.86073	4204.4875
1983.93046	4197.0875
1986.99819	4178.5875
1990.06394	4159.5875
1993.1277	4147.4875
1996.18947	4148.4875
1999.24925	4136.9875
2002.30706	4120.5875
2005.36288	4118.4875
2008.41672	4104.0875
2011.46859	4077.9875
2014.51848	4077.2875
2017.56639	4047.1875
2020.61233	4039.0875
2023.6563	4044.5875
2026.6983	4024.8875
2029.73833	4020.4875
2032.7764	4011.3875
2035.8125	4024.5875
2038.84664	3993.2875
2041.87881	3998.4875
2044.90903	3986.2875
2047.93729	3978.5875
2050.96359	3983.6875
2053.98794	3991.9875
2057.01034	3999.5875
2060.03078	3978.8875
2063.04927	3978.8875
2066.06582	3970.8875
2069.08042	3963.2875
2072.09307	3963.3875
2075.10378	3966.5875
2078.11255	3951.3875
2081.11938	3966.1875
2084.12426	3951.4875
2087.12722	3949.6875
2090.12824	3964.5875
2093.12732	3960.8875
2096.12447	3960.5875
2099.11969	3955.2875
2102.11299	3961.4875
2105.10435	3968.9875
2108.09379	3962.1875
2111.08131	3982.0875
2114.0669	3961.4875
2117.05057	3980.9875
2120.03233	3982.1875
2123.01216	3987.3875
2125.99008	3997.5875
2128.96609	4000.6875
2131.94018	4004.2875
2134.91236	3997.7875
2137.88263	3999.8875
2140.851	3994.0875
2143.81746	4005.9875
2146.78201	3990.5875
2149.74466	4007.7875
2152.7054	3980.5875
2155.66425	3983.0875
2158.6212	3990.6875
2161.57625	3983.9875
2164.52941	3999.3875
2167.48067	3987.7875
2170.43004	3983.8875
2173.37752	3976.3875
2176.32311	3968.1875
2179.26681	3977.7875
2182.20863	3976.6875
2185.14856	3993.8875
2188.08661	3969.3875
2191.02278	3975.7875
2193.95707	3981.9875
2196.88948	3986.0875
2199.82001	3963.9875
2202.74867	3969.6875
2205.67545	3972.2875
2208.60037	3975.0875
2211.52341	3969.8875
2214.44458	3952.1875
2217.36388	3964.1875
2220.28132	3955.7875
2223.1969	3930.9875
2226.11061	3934.0875
2229.02246	3923.4875
2231.93245	3910.1875
2234.84058	3902.4875
2237.74686	3904.9875
2240.65128	3899.4875
2243.55385	3893.2875
2246.45456	3900.5875
2249.35343	3895.7875
2252.25044	3907.4875
2255.14561	3907.1875
2258.03893	3939.0875
2260.93041	4005.0875
2263.82004	3955.0875
2266.70783	3904.4875
2269.59378	3884.7875
2272.4779	3851.5875
2275.36017	3861.6875
2278.24061	3849.7875
2281.11922	3834.7875
2283.996	3833.6875
2286.87094	3828.7875
2289.74405	3826.6875
2292.61534	3815.8875
2295.4848	3809.1875
2298.35243	3806.3875
2301.21824	3787.6875
2304.08223	3804.2875
2306.94439	3815.8875
2309.80474	3796.6875
2312.66327	3813.8875
2315.51999	3800.6875
2318.37489	3793.0875
2321.22797	3801.5875
2324.07925	3806.3875
2326.92871	3806.2875
2329.77637	3802.0875
2332.62222	3805.8875
2335.46626	3793.9875
2338.3085	3798.2875
2341.14893	3783.3875
2343.98756	3794.9875
2346.8244	3806.1875
2349.65943	3795.8875
2352.49267	3782.7875
2355.32411	3793.3875
2358.15376	3784.0875
2360.98161	3788.0875
2363.80768	3797.0875
2366.63195	3788.9875
2369.45444	3797.1875
2372.27514	3790.5875
2375.09405	3767.6875
2377.91118	3769.6875
2380.72652	3768.6875
2383.54009	3749.2875
2386.35187	3747.1875
2389.16188	3735.9875
2391.97011	3699.2875
2394.77657	3704.6875
2397.58125	3704.2875
2400.38416	3698.0875
2403.18529	3691.6875
2405.98466	3696.8875
2408.78226	3693.2875
2411.57809	3669.3875
2414.37216	3661.8875
2417.16446	3685.2875
2419.955	3656.6875
2422.74378	3652.2875
2425.5308	3656.0875
2428.31606	3651.7875
2431.09956	3660.0875
2433.88131	3648.8875
2436.6613	3648.1875
2439.43954	3661.8875
2442.21603	3644.8875
2444.99077	3654.6875
2447.76377	3656.1875
2450.53501	3656.4875
2453.30451	3659.1875
2456.07226	3641.5875
2458.83827	3640.6875
2461.60254	3646.5875
2464.36507	3645.7875
2467.12586	3641.1875
2469.88492	3636.1875
2472.64224	3639.4875
2475.39782	3698.9875
2478.15167	3731.4875
2480.90379	3700.8875
2483.65417	3682.2875
2486.40283	3677.4875
2489.14976	3684.8875
2491.89497	3678.8875
2494.63845	3763.1875
2497.3802	3763.3875
2500.12024	3717.9875
2502.85855	3695.8875
2505.59514	3675.1875
2508.33002	3664.9875
2511.06318	3633.3875
2513.79462	3619.6875
2516.52435	3606.7875
2519.25237	3595.5875
2521.97867	3580.0875
2524.70327	3575.4875
2527.42616	3578.1875
2530.14734	3579.3875
2532.86681	3566.6875
2535.58458	3576.7875
2538.30065	3560.9875
2541.01501	3557.6875
2543.72768	3564.6875
2546.43864	3554.4875
2549.14791	3555.8875
2551.85548	3561.7875
2554.56136	3547.0875
2557.26554	3532.1875
2559.96803	3549.0875
2562.66883	3555.8875
2565.36794	3555.9875
2568.06536	3543.8875
2570.7611	3530.0875
2573.45514	3549.5875
2576.14751	3524.4875
2578.83819	3518.5875
2581.52719	3523.9875
2584.21451	3521.2875
2586.90015	3530.2875
2589.58411	3501.7875
2592.2664	3494.0875
2594.94701	3497.3875
2597.62594	3482.0875
2600.30321	3485.9875
2602.9788	3474.9875
2605.65273	3468.9875
2608.32498	3479.7875
2610.99557	3475.8875
2613.66449	3477.0875
2616.33175	3469.2875
2618.99734	3472.4875
2621.66128	3469.2875
2624.32355	3460.5875
2626.98416	3455.8875
2629.64311	3464.8875
2632.30041	3442.3875
2634.95605	3447.5875
2637.61004	3431.5875
2640.26238	3416.2875
2642.91306	3420.1875
2645.56209	3419.8875
2648.20948	3433.2875
2650.85521	3409.6875
2653.4993	3392.6875
2656.14175	3421.7875
2658.78255	3430.2875
2661.42171	3428.0875
2664.05923	3418.4875
2666.6951	3421.8875
2669.32934	3449.9875
2671.96194	3431.9875
2674.59291	3434.4875
2677.22224	3433.9875
2679.84993	3444.9875
2682.476	3434.2875
2685.10043	3446.8875
2687.72324	3443.0875
2690.34441	3434.8875
2692.96396	3432.9875
2695.58188	3432.6875
2698.19818	3439.4875
2700.81285	3432.2875
2703.4259	3587.2875
2706.03733	3875.8875
2708.64714	3672.9875
2711.25533	3548.4875
2713.86191	3528.3875
2716.46687	3518.8875
2719.07021	3492.8875
2721.67194	3457.4875
2724.27206	3455.8875
2726.87057	3450.8875
2729.46747	3458.9875
2732.06276	3462.6875
2734.65644	3456.6875
2737.24852	3453.0875
2739.83899	3447.9875
2742.42786	3442.1875
2745.01513	3437.0875
2747.60079	3422.3875
2750.18486	3433.3875
2752.76733	3432.4875
2755.3482	3422.1875
2757.92747	3420.9875
2760.50515	3410.2875
2763.08123	3421.5875
2765.65573	3409.9875
2768.22863	3400.1875
2770.79994	3401.4875
2773.36967	3405.5875
2775.9378	3400.0875
2778.50435	3402.3875
2781.06932	3399.1875
2783.6327	3404.8875
2786.1945	3406.1875
2788.75471	3398.5875
2791.31335	3396.9875
2793.87041	3390.0875
2796.42589	3395.3875
2798.97979	3396.5875
2801.53212	3370.6875
2804.08288	3393.6875
2806.63206	3404.7875
2809.17967	3395.3875
2811.72571	3383.0875
2814.27018	3378.8875
2816.81308	3378.6875
2819.35442	3376.3875
2821.89419	3377.5875
2824.43239	3382.4875
2826.96904	3383.3875
2829.50412	3376.5875
2832.03763	3365.6875
2834.56959	3384.2875
2837.1	3384.8875
2839.62884	3391.8875
2842.15613	3388.3875
2844.68186	3398.2875
2847.20604	3410.2875
2849.72867	3429.3875
2852.24974	3423.0875
2854.76927	3511.3875
2857.28724	3582.2875
2859.80367	3529.3875
2862.31855	3488.7875
2864.83189	3501.5875
2867.34368	3485.1875
2869.85393	3492.1875
2872.36264	3482.3875
2874.8698	3505.0875
2877.37543	3495.9875
2879.87952	3495.7875
2882.38207	3489.6875
2884.88308	3482.3875
2887.38256	3478.4875
2889.88051	3479.6875
2892.37692	3471.9875
2894.8718	3486.4875
2897.36515	3476.5875
2899.85698	3479.4875
2902.34727	3481.8875
2904.83604	3472.7875
2907.32328	3482.8875
2909.809	3478.6875
2912.29319	3489.8875
2914.77587	3487.6875
2917.25702	3472.7875
2919.73665	3465.2875
2922.21476	3478.1875
2924.69136	3478.0875
2927.16644	3488.2875
2929.64	3461.5875
2932.11205	3464.0875
2934.58258	3444.9875
2937.05161	3442.1875
2939.51912	3433.1875
2941.98513	3413.9875
2944.44962	3390.1875
2946.91261	3369.2875
2949.37409	3399.7875
2951.83407	3381.9875
2954.29254	3369.7875
2956.74951	3366.8875
2959.20498	3345.9875
2961.65895	3343.9875
2964.11142	3357.4875
2966.56239	3344.3875
2969.01186	3346.9875
2971.45984	3335.1875
2973.90632	3319.5875
2976.35131	3304.5875
2978.7948	3298.8875
2981.23681	3291.1875
2983.67732	3290.1875
2986.11635	3276.0875
2988.55388	3251.4875
2990.98993	3263.4875
2993.4245	3246.4875
2995.85758	3226.7875
2998.28917	3219.9875
3000.71928	3234.5875
3003.14791	3232.8875
3005.57506	3228.7875
3008.00073	3208.4875
3010.42493	3219.2875
3012.84764	3218.7875
3015.26888	3213.8875
3017.68865	3209.0875
3020.10694	3212.0875
3022.52376	3200.8875
3024.9391	3204.1875
3027.35298	3195.6875
3029.76539	3190.7875
3032.17632	3193.8875
3034.5858	3182.6875
3036.9938	3172.3875
3039.40034	3179.0875
3041.80542	3155.7875
3044.20903	3160.1875
3046.61118	3159.5875
3049.01187	3149.2875
3051.4111	3167.2875
3053.80888	3163.2875
3056.20519	3153.2875
3058.60005	3159.0875
3060.99345	3151.8875
3063.3854	3144.4875
3065.7759	3145.9875
3068.16494	3132.6875
3070.55254	3147.8875
3072.93868	3134.0875
3075.32338	3117.0875
3077.70662	3116.0875
3080.08842	3108.7875
3082.46878	3111.6875
3084.84769	3093.6875
3087.22515	3095.6875
3089.60118	3098.1875
3091.97576	3089.9875
3094.3489	3109.3875
3096.72061	3123.7875
3099.09087	3124.9875
3101.4597	3115.1875
3103.82709	3121.2875
3106.19305	3118.4875
3108.55757	3118.2875
3110.92066	3111.8875
3113.28232	3107.1875
3115.64255	3105.9875
3118.00134	3106.5875
3120.35871	3105.3875
3122.71466	3102.0875
3125.06917	3099.9875
3127.42226	3103.4875
3129.77393	3090.3875
3132.12417	3099.4875
3134.47299	3105.4875
3136.82039	3097.3875
3139.16636	3103.9875
3141.51092	3113.2875
3143.85406	3105.2875
3146.19579	3121.0875
3148.53609	3135.8875
3150.87499	3131.0875
3153.21246	3124.8875
3155.54853	3131.9875
3157.88318	3133.7875
3160.21642	3137.7875
3162.54826	3144.8875
3164.87868	3153.0875
3167.2077	3154.1875
3169.5353	3159.6875
3171.86151	3158.3875
3174.18631	3162.0875
3176.5097	3156.2875
3178.83169	3149.1875
3181.15228	3152.2875
3183.47147	3154.0875
3185.78926	3140.3875
3188.10565	3170.5875
3190.42065	3162.6875
3192.73424	3173.5875
3195.04645	3160.5875
3197.35725	3165.5875
3199.66667	3169.1875
3201.97469	3170.1875
3204.28132	3179.6875
3206.58656	3175.0875
3208.8904	3195.9875
3211.19287	3192.7875
3213.49394	3185.5875
3215.79363	3210.6875
3218.09193	3215.3875
3220.38884	3278.9875
3222.68438	3346.6875
3224.97853	3272.0875
3227.2713	3240.8875
3229.56269	3229.4875
3231.8527	3219.4875
3234.14133	3219.1875
3236.42858	3212.5875
3238.71446	3214.8875
3240.99896	3196.6875
3243.28209	3203.2875
3245.56384	3188.5875
3247.84423	3196.6875
3250.12324	3186.2875
3252.40088	3179.3875
3254.67715	3194.5875
3256.95205	3203.3875
3259.22558	3201.1875
3261.49775	3187.4875
3263.76855	3186.0875
3266.03799	3199.1875
3268.30606	3192.0875
3270.57277	3189.1875
3272.83812	3174.8875
3275.10211	3178.6875
3277.36474	3188.6875
3279.62601	3194.4875
3281.88593	3178.8875
3284.14448	3170.0875
3286.40168	3187.9875
3288.65753	3172.8875
3290.91202	3181.3875
3293.16516	3179.9875
3295.41695	3156.1875
3297.66738	3149.0875
3299.91647	3129.9875
3302.16421	3120.1875
3304.4106	3118.6875
3306.65564	3103.8875
3308.89933	3083.0875
3311.14169	3073.3875
3313.38269	3088.4875
3315.62236	3062.4875
3317.86068	3011.6875
3320.09766	2991.0875
3322.3333	2965.4875
3324.5676	3009.1875
3326.80056	3043.1875
3329.03219	2973.8875
3331.26248	1.6875
3333.49143	-1.5125
3335.71905	0.8875
