Data from AgNPs_FTO_APTES_UA_50uM_CRN_10uM_R6G_10uM_NaF_0.1M_Addition_RamanShift__0__13-13-24-857.txt Node

Date: Mon Feb 21 13:13:24 GMT 2022
User: TCL
Spectrometer: QEP01345
Trigger mode: 4
Integration Time (sec): 7.000000E0
Scans to average: 10
Electric dark correction enabled: true
Nonlinearity correction enabled: false
Boxcar width: 0
XAxis mode: Raman Shifts
Number of Pixels in Spectrum: 1044
>>>>>Begin Spectral Data<<<<<
46.04893	2.2
50.45542	-2.7
54.85868	-0.6
59.25871	-1.5
63.6555	62.9
68.04907	68.1
72.43941	72.6
76.82654	72
81.21044	77.1
85.59113	80.5
89.96862	82.3
94.34289	87.8
98.71396	91.1
103.08183	94.6
107.4465	93.3
111.80798	95.8
116.16626	95.4
120.52136	99.8
124.87327	106.9
129.222	104.6
133.56755	110.3
137.90993	119.8
142.24913	133.1
146.58517	146.7
150.91804	165.1
155.24774	195.3
159.57429	243.3
163.89768	305.6
168.21792	406
172.53501	547
176.84895	769.7
181.15975	1077.9
185.46741	1506.2
189.77193	2083.8
194.07331	2783.8
198.37157	3587
202.6667	4425.6
206.9587	5270.9
211.24758	6112.4
215.53334	6988.5
219.81599	7900.7
224.09553	8993
228.37195	10155.6
232.64527	11478.1
236.91549	12800.3
241.18261	14057.3
245.44663	15136.7
249.70755	15961.7
253.96539	16672.4
258.22014	17336.9
262.4718	17901.7
266.72039	18280.6
270.96589	18400.9
275.20832	18303.3
279.44768	18028.3
283.68397	17684.3
287.91719	17384.9
292.14735	17232.9
296.37445	17386.3
300.59849	17658.5
304.81948	18058.6
309.03742	18389.6
313.25231	18488.7
317.46415	18200.5
321.67296	17672.4
325.87872	17224.7
330.08145	17065.5
334.28114	17117.8
338.47781	17260.8
342.67145	17524.2
346.86207	17912.4
351.04966	18446.4
355.23424	19064.5
359.4158	19489.9
363.59435	19755.1
367.76989	19867.7
371.94243	19928.8
376.11196	19942.8
380.27849	20044.8
384.44203	20075.5
388.60257	20120.3
392.76012	20156.1
396.91468	20260.5
401.06626	20549.7
405.21485	20770.9
409.36047	20505.3
413.50311	19893.6
417.64277	19378.3
421.77947	19135.5
425.9132	19046.8
430.04396	19115.4
434.17176	19291.1
438.2966	19691.2
442.41849	20439.1
446.53742	21401.9
450.6534	22342.1
454.76644	22809.8
458.87653	22669.1
462.98368	22195.5
467.08789	21594.4
471.18916	20964.5
475.2875	20306.1
479.38291	19771.1
483.4754	19368.2
487.56496	19086.3
491.6516	18925.4
495.73531	18894.4
499.81612	18961.8
503.89401	19143.2
507.96899	19220.7
512.04106	19209.3
516.11023	19259.3
520.1765	19335.2
524.23987	19436.2
528.30034	19512.7
532.35792	19501.5
536.41261	19211.6
540.46441	18809
544.51333	18557
548.55936	18630.1
552.60252	18994.8
556.64279	19641.5
560.6802	20036.9
564.71473	20090.6
568.7464	20188
572.7752	20492.1
576.80114	20502
580.82422	20626.4
584.84444	21307.2
588.86181	22864.9
592.87633	25070.5
596.888	26628.9
600.89682	26042.9
604.9028	25810.4
608.90594	28568.1
612.90624	32605.6
616.90371	30489.2
620.89834	23661.9
624.89015	20469.8
628.87913	19919.1
632.86528	20058.5
636.84862	20091.7
640.82913	19663.4
644.80683	18930.1
648.78172	18517
652.75379	18524
656.72306	19073.3
660.68952	19710
664.65319	19506.8
668.61405	18816.2
672.57211	18693.3
676.52738	18836.7
680.47986	18744.1
684.42955	18454.8
688.37646	18349.9
692.32058	18473.8
696.26192	18839.8
700.20048	19164.4
704.13626	19273.9
708.06928	19071.4
711.99952	18848.8
715.927	18885.6
719.85171	19146.9
723.77365	19128.8
727.69284	18886.2
731.60928	18677.8
735.52295	18721.5
739.43388	18801.1
743.34206	18882.6
747.24749	18974.7
751.15017	19029
755.05012	19262.8
758.94733	19859.6
762.8418	21265.6
766.73354	23672.7
770.62254	26152
774.50882	27221.1
778.39237	26243.5
782.27321	23856
786.15132	21525.8
790.02671	20073.9
793.89938	19258.2
797.76935	18997.2
801.6366	18831.4
805.50115	18651.9
809.36299	18572.9
813.22213	18461.2
817.07857	18381.8
820.93231	18326.9
824.78336	18303.8
828.63172	18388.1
832.47738	18403.5
836.32036	18460.4
840.16066	18528.2
843.99827	18531.8
847.8332	18458
851.66546	18427.7
855.49504	18426.9
859.32195	18410.9
863.1462	18341.1
866.96777	18288.9
870.78668	18268.5
874.60293	18333.6
878.41652	18393.9
882.22745	18545.5
886.03573	18671.8
889.84136	18674.4
893.64433	18552.6
897.44466	18469.8
901.24235	18401.1
905.0374	18330.3
908.8298	18204.3
912.61957	18157.3
916.40671	18236
920.19121	18379.1
923.97308	18669.5
927.75233	18871.3
931.52895	18996.7
935.30295	18841.3
939.07433	18385
942.84309	18065.2
946.60924	17908.9
950.37278	17838.2
954.13371	17823.8
957.89203	17772.5
961.64774	17690.1
965.40086	17696.9
969.15137	17693.8
972.89929	17727.2
976.64461	17758
980.38733	17844.7
984.12747	17943.2
987.86502	18094.3
991.59999	18298.2
995.33237	18636.2
999.06217	19183.6
1002.78939	19856.6
1006.51404	20369.8
1010.23611	20734.8
1013.95561	20970.1
1017.67255	21046.1
1021.38692	20743.3
1025.09872	20255.1
1028.80796	20125.4
1032.51465	20362.2
1036.21877	20658.8
1039.92035	20775.4
1043.61937	20627.5
1047.31584	20317.5
1051.00976	19952.8
1054.70114	19702.3
1058.38998	19653.6
1062.07627	19655.3
1065.76003	19733.6
1069.44126	19852.5
1073.11995	20207.4
1076.79611	20570.7
1080.46974	20973.5
1084.14085	21434.4
1087.80943	21882.2
1091.47549	21987.7
1095.13903	21732.8
1098.80005	21246.6
1102.45857	20751.4
1106.11456	20616.6
1109.76805	20674
1113.41903	20890.7
1117.06751	21258.5
1120.71348	21778
1124.35696	22298.9
1127.99793	22754.8
1131.63641	22710.6
1135.2724	22199.9
1138.90589	21722.1
1142.5369	21450.6
1146.16542	21375.7
1149.79145	21395.7
1153.415	21419.3
1157.03607	21524.9
1160.65467	21908.8
1164.27079	22694.8
1167.88443	23970.3
1171.49561	25901.5
1175.10432	28642.9
1178.71056	32238.5
1182.31434	35461.7
1185.91565	36573.5
1189.51451	35562.6
1193.11091	33520.4
1196.70485	31364.3
1200.29634	29529.4
1203.88538	27958.1
1207.47197	26592.1
1211.05612	25553.6
1214.63782	24959.1
1218.21708	24918.1
1221.79391	25246.4
1225.36829	25653.1
1228.94024	25670.7
1232.50976	25111.5
1236.07685	24435.6
1239.6415	24030
1243.20374	23953.7
1246.76355	24043.9
1250.32093	24270.3
1253.8759	24729.1
1257.42845	25522.3
1260.97859	26480.8
1264.52631	27529.5
1268.07163	28573.2
1271.61453	29431.3
1275.15503	30130.1
1278.69312	30751.6
1282.22882	31451.8
1285.76211	32488.5
1289.29301	33919.2
1292.82151	35416.3
1296.34761	37306
1299.87133	39570.2
1303.39266	42586.5
1306.9116	46333.9
1310.42815	50044.4
1313.94233	52147.7
1317.45412	51191.5
1320.96354	48127.3
1324.47058	44567.5
1327.97525	41324
1331.47754	39236
1334.97747	38191.3
1338.47502	37839.4
1341.97022	37618.8
1345.46305	37858.7
1348.95352	38987.3
1352.44163	41405.7
1355.92738	45330.3
1359.41078	50701
1362.89183	55241
1366.37053	54471.1
1369.84688	47824.2
1373.32088	40270
1376.79254	35591.7
1380.26186	33674
1383.72883	32985.3
1387.19347	32123
1390.65578	31008.8
1394.11575	30320.5
1397.57339	30268.6
1401.0287	30526.6
1404.48168	30766.9
1407.93234	30744.4
1411.38068	30618.5
1414.82669	30396.3
1418.27039	29980.7
1421.71177	29306.8
1425.15083	28644.7
1428.58758	28402.8
1432.02203	28895.1
1435.45416	29657
1438.88399	30261.9
1442.31151	30373.2
1445.73673	30357.6
1449.15965	30236.2
1452.58027	29912.9
1455.9986	29316.3
1459.41463	29005.1
1462.82837	29374.2
1466.23982	30269.4
1469.64898	31241.8
1473.05586	32075.5
1476.46045	32726.5
1479.86276	33225.6
1483.26279	33581.2
1486.66054	33995.5
1490.05602	34688.9
1493.44922	35451.4
1496.84016	36229
1500.22882	37346.2
1503.61521	39278.3
1506.99934	41713.4
1510.38121	43742.4
1513.76081	43899.6
1517.13816	41783.5
1520.51324	38387.4
1523.88607	35296.7
1527.25665	33498.8
1530.62498	32732.6
1533.99105	32214.7
1537.35488	31563.4
1540.71647	30820.2
1544.07581	30100.9
1547.4329	29477.2
1550.78776	28969.5
1554.14038	28560.6
1557.49077	28317.7
1560.83892	28409.1
1564.18484	28758.6
1567.52853	29352
1570.86999	30027.1
1574.20922	30684.1
1577.54624	30787.9
1580.88103	30109.2
1584.2136	29259
1587.54395	29446
1590.87208	30958.5
1594.19801	33647.8
1597.52172	36784.4
1600.84321	38290.4
1604.16251	37059.5
1607.47959	33819.7
1610.79447	30071.8
1614.10715	26887.5
1617.41763	24682.4
1620.7259	23456.9
1624.03199	22924.2
1627.33587	23226.3
1630.63757	24036.1
1633.93707	25680.3
1637.23439	28514.7
1640.52951	32996.3
1643.82246	38764.6
1647.11321	43817.1
1650.40179	44984.2
1653.68819	40998.5
1656.97241	34301
1660.25446	28283
1663.53433	24309.1
1666.81203	22018.2
1670.08756	20723.9
1673.36092	19987.9
1676.63211	19468.9
1679.90115	19151.5
1683.16801	18891.3
1686.43272	18667.5
1689.69527	18500.7
1692.95567	18348.7
1696.2139	18191.5
1699.46999	18017.6
1702.72392	17927.9
1705.97571	17979.9
1709.22535	18034.8
1712.47284	18118.8
1715.71819	18115.9
1718.96139	18079.2
1722.20246	18043.8
1725.44139	17944.3
1728.67818	17819
1731.91284	17743.9
1735.14537	17623.7
1738.37576	17551.2
1741.60403	17482.6
1744.83017	17447.9
1748.05418	17351.6
1751.27607	17276.3
1754.49584	17218.9
1757.71349	17180.4
1760.92903	17117.8
1764.14244	17098.6
1767.35375	17118.3
1770.56294	17080.2
1773.77002	17052.3
1776.97499	17057.9
1780.17785	17068.8
1783.37861	17105.1
1786.57727	17092.4
1789.77382	17079.4
1792.96828	17036.5
1796.16064	17042.4
1799.3509	16989.7
1802.53907	16961.9
1805.72514	16950.5
1808.90913	16911.2
1812.09102	16878.6
1815.27083	16855.2
1818.44856	16821.2
1821.6242	16799.7
1824.79776	16790.9
1827.96924	16799.7
1831.13864	16767.1
1834.30597	16798.9
1837.47122	16777.2
1840.6344	16771.3
1843.7955	16781.7
1846.95454	16747.1
1850.11151	16729.4
1853.26642	16752.8
1856.41926	16720.8
1859.57004	16662.1
1862.71876	16661.4
1865.86542	16689
1869.01003	16676.5
1872.15258	16653.3
1875.29308	16656.6
1878.43152	16631.1
1881.56792	16674.3
1884.70227	16645.2
1887.83457	16674.4
1890.96482	16678.9
1894.09304	16603.7
1897.21921	16638.7
1900.34335	16579.1
1903.46544	16601.6
1906.58551	16607.5
1909.70353	16583.5
1912.81953	16554
1915.93349	16562.8
1919.04543	16509.5
1922.15534	16493.7
1925.26322	16424.1
1928.36908	16420.5
1931.47292	16354.1
1934.57473	16303.5
1937.67453	16279.5
1940.77232	16256.8
1943.86808	16216.2
1946.96184	16167
1950.05358	16136.7
1953.14331	16097.1
1956.23103	16080.8
1959.31675	16038.9
1962.40046	16000.7
1965.48217	15962.7
1968.56188	15970.2
1971.63959	15898
1974.7153	15851
1977.78901	15852.9
1980.86073	15739.9
1983.93046	15677.6
1986.99819	15660.6
1990.06394	15621.9
1993.1277	15567.3
1996.18947	15530.7
1999.24925	15474.5
2002.30706	15405.1
2005.36288	15376.2
2008.41672	15371.4
2011.46859	15309.5
2014.51848	15287.4
2017.56639	15249.9
2020.61233	15204.5
2023.6563	15189.4
2026.6983	15137.5
2029.73833	15145.1
2032.7764	15110.2
2035.8125	15097.3
2038.84664	15080.2
2041.87881	15097.2
2044.90903	15035.4
2047.93729	15027.7
2050.96359	15003.1
2053.98794	14978
2057.01034	14967.9
2060.03078	14979.6
2063.04927	15006.1
2066.06582	14984.3
2069.08042	14964.8
2072.09307	14945.3
2075.10378	14932.9
2078.11255	14953
2081.11938	14934.5
2084.12426	14941.9
2087.12722	14946.3
2090.12824	14936.8
2093.12732	14986.8
2096.12447	14961.3
2099.11969	14960.9
2102.11299	14949.2
2105.10435	14957
2108.09379	14957.2
2111.08131	14956.1
2114.0669	14969.2
2117.05057	14975.7
2120.03233	15019.8
2123.01216	15017.2
2125.99008	15041.6
2128.96609	15070.2
2131.94018	15094.4
2134.91236	15104.1
2137.88263	15111.7
2140.851	15115.5
2143.81746	15106.7
2146.78201	15128
2149.74466	15119
2152.7054	15133.6
2155.66425	15117.6
2158.6212	15083.9
2161.57625	15098.3
2164.52941	15091.4
2167.48067	15077.7
2170.43004	15076.1
2173.37752	15062.4
2176.32311	15063.7
2179.26681	15102.5
2182.20863	15121.2
2185.14856	15155.7
2188.08661	15137.4
2191.02278	15145.8
2193.95707	15130.2
2196.88948	15127.7
2199.82001	15150.2
2202.74867	15106.6
2205.67545	15120.6
2208.60037	15092.6
2211.52341	15065.5
2214.44458	15021.7
2217.36388	15009.2
2220.28132	14982.9
2223.1969	14967.5
2226.11061	14970.1
2229.02246	14928.6
2231.93245	14929.6
2234.84058	14883.8
2237.74686	14888.8
2240.65128	14905.8
2243.55385	14898.7
2246.45456	14879.2
2249.35343	14817.4
2252.25044	14835.4
2255.14561	14813.7
2258.03893	14816.9
2260.93041	14776.9
2263.82004	14727.5
2266.70783	14707.9
2269.59378	14684.4
2272.4779	14678.4
2275.36017	14638
2278.24061	14626.6
2281.11922	14576.5
2283.996	14551.1
2286.87094	14531.3
2289.74405	14500.3
2292.61534	14497.9
2295.4848	14475.5
2298.35243	14478.3
2301.21824	14495
2304.08223	14495.9
2306.94439	14517.2
2309.80474	14519.4
2312.66327	14525.6
2315.51999	14519.8
2318.37489	14493.1
2321.22797	14456
2324.07925	14465.4
2326.92871	14464.3
2329.77637	14440.6
2332.62222	14354.4
2335.46626	14373.6
2338.3085	14359.9
2341.14893	14395.3
2343.98756	14373.4
2346.8244	14408.5
2349.65943	14420.1
2352.49267	14399.6
2355.32411	14383.4
2358.15376	14396.3
2360.98161	14397
2363.80768	14381.2
2366.63195	14391.3
2369.45444	14377
2372.27514	14365.9
2375.09405	14397.2
2377.91118	14362.2
2380.72652	14333.6
2383.54009	14297.7
2386.35187	14290.5
2389.16188	14245
2391.97011	14247.7
2394.77657	14208.3
2397.58125	14184.5
2400.38416	14174
2403.18529	14118
2405.98466	14122.5
2408.78226	14081.2
2411.57809	14038
2414.37216	14034.9
2417.16446	14059.2
2419.955	14032.2
2422.74378	14038.2
2425.5308	14006
2428.31606	13966.6
2431.09956	13992
2433.88131	13985.2
2436.6613	13999.9
2439.43954	14015
2442.21603	14006.5
2444.99077	13972.4
2447.76377	14025.1
2450.53501	14044.5
2453.30451	14014.4
2456.07226	14020.4
2458.83827	14007.9
2461.60254	14021.7
2464.36507	13999.5
2467.12586	13990.4
2469.88492	14029.6
2472.64224	14010.5
2475.39782	14008.9
2478.15167	14027.1
2480.90379	14047.8
2483.65417	14054.4
2486.40283	14066.6
2489.14976	14075.2
2491.89497	14073.6
2494.63845	14104.8
2497.3802	14083.8
2500.12024	14080
2502.85855	14058.1
2505.59514	14035.6
2508.33002	14016.8
2511.06318	13992.5
2513.79462	14004.7
2516.52435	13931.9
2519.25237	13934.1
2521.97867	13910.4
2524.70327	13896.2
2527.42616	13901.9
2530.14734	13895.1
2532.86681	13881.6
2535.58458	13903.4
2538.30065	13891.4
2541.01501	13874.2
2543.72768	13851.5
2546.43864	13849.3
2549.14791	13825.8
2551.85548	13831.3
2554.56136	13810.8
2557.26554	13810.7
2559.96803	13784.1
2562.66883	13834.2
2565.36794	13820.8
2568.06536	13815.3
2570.7611	13813.5
2573.45514	13771.1
2576.14751	13796.9
2578.83819	13753.3
2581.52719	13760.1
2584.21451	13743.2
2586.90015	13716.2
2589.58411	13666.4
2592.2664	13732.7
2594.94701	13679.5
2597.62594	13704.8
2600.30321	13677.8
2602.9788	13688.4
2605.65273	13649.3
2608.32498	13680.9
2610.99557	13632.4
2613.66449	13672.8
2616.33175	13678.7
2618.99734	13669.8
2621.66128	13644.4
2624.32355	13627.2
2626.98416	13591.5
2629.64311	13603.9
2632.30041	13626.6
2634.95605	13592.8
2637.61004	13572.4
2640.26238	13554.5
2642.91306	13531.8
2645.56209	13476.9
2648.20948	13521.5
2650.85521	13534
2653.4993	13537.2
2656.14175	13547.3
2658.78255	13566.8
2661.42171	13602
2664.05923	13610.8
2666.6951	13621.3
2669.32934	13651.7
2671.96194	13635.3
2674.59291	13623.5
2677.22224	13639.8
2679.84993	13668.4
2682.476	13607.6
2685.10043	13617.1
2687.72324	13570.2
2690.34441	13597.9
2692.96396	13560.8
2695.58188	13608
2698.19818	13613.8
2700.81285	13595.5
2703.4259	13566
2706.03733	13522.4
2708.64714	13556.8
2711.25533	13567.1
2713.86191	13605.9
2716.46687	13616.6
2719.07021	13630.1
2721.67194	13654.3
2724.27206	13647.1
2726.87057	13688.2
2729.46747	13733.3
2732.06276	13697.1
2734.65644	13647.1
2737.24852	13645.8
2739.83899	13646.9
2742.42786	13689.7
2745.01513	13654.1
2747.60079	13649.8
2750.18486	13628.7
2752.76733	13595.5
2755.3482	13603.7
2757.92747	13588.9
2760.50515	13560.9
2763.08123	13594.5
2765.65573	13576.2
2768.22863	13548
2770.79994	13532.1
2773.36967	13567.2
2775.9378	13542
2778.50435	13607.5
2781.06932	13597.1
2783.6327	13591.4
2786.1945	13597.7
2788.75471	13570.7
2791.31335	13561.1
2793.87041	13527
2796.42589	13514
2798.97979	13469.3
2801.53212	13477.5
2804.08288	13471
2806.63206	13461.5
2809.17967	13427.8
2811.72571	13384.6
2814.27018	13340.1
2816.81308	13349.4
2819.35442	13331.1
2821.89419	13300.1
2824.43239	13352
2826.96904	13343.2
2829.50412	13370.2
2832.03763	13335.2
2834.56959	13331.4
2837.1	13303.3
2839.62884	13300
2842.15613	13267.8
2844.68186	13267.8
2847.20604	13283.1
2849.72867	13301.3
2852.24974	13322.7
2854.76927	13283.8
2857.28724	13268.6
2859.80367	13282.2
2862.31855	13260.1
2864.83189	13278.9
2867.34368	13254.5
2869.85393	13271.2
2872.36264	13276.9
2874.8698	13278.4
2877.37543	13289
2879.87952	13288.8
2882.38207	13261.1
2884.88308	13272.3
2887.38256	13273.9
2889.88051	13283.9
2892.37692	13288.3
2894.8718	13295.7
2897.36515	13338
2899.85698	13313.3
2902.34727	13342.1
2904.83604	13373.5
2907.32328	13358.8
2909.809	13383.6
2912.29319	13379.3
2914.77587	13390.7
2917.25702	13395.4
2919.73665	13389.1
2922.21476	13376.9
2924.69136	13409.8
2927.16644	13373.8
2929.64	13325.8
2932.11205	13298
2934.58258	13278.2
2937.05161	13269.6
2939.51912	13287.9
2941.98513	13276.6
2944.44962	13260.3
2946.91261	13197.9
2949.37409	13211.3
2951.83407	13196.8
2954.29254	13201.6
2956.74951	13172.7
2959.20498	13166.2
2961.65895	13177.6
2964.11142	13162.7
2966.56239	13147.9
2969.01186	13117.6
2971.45984	13090.7
2973.90632	13059.7
2976.35131	13034.2
2978.7948	13043.4
2981.23681	13000.9
2983.67732	12977.1
2986.11635	12968
2988.55388	12918.5
2990.98993	12903.9
2993.4245	12867.9
2995.85758	12886.2
2998.28917	12864.5
3000.71928	12850.6
3003.14791	12784
3005.57506	12784.6
3008.00073	12755.8
3010.42493	12749.2
3012.84764	12723.9
3015.26888	12713.6
3017.68865	12644.1
3020.10694	12671.9
3022.52376	12612.9
3024.9391	12616
3027.35298	12619.4
3029.76539	12614.8
3032.17632	12608.2
3034.5858	12570.5
3036.9938	12529.9
3039.40034	12557.9
3041.80542	12532.7
3044.20903	12524
3046.61118	12521.8
3049.01187	12491.2
3051.4111	12468.9
3053.80888	12475.5
3056.20519	12501.7
3058.60005	12452.5
3060.99345	12436.2
3063.3854	12409.2
3065.7759	12386.6
3068.16494	12353.1
3070.55254	12301.1
3072.93868	12268.4
3075.32338	12241.3
3077.70662	12228.5
3080.08842	12220.2
3082.46878	12210
3084.84769	12185.6
3087.22515	12188.3
3089.60118	12187
3091.97576	12182.8
3094.3489	12177.8
3096.72061	12164.6
3099.09087	12172.2
3101.4597	12161.7
3103.82709	12171.4
3106.19305	12140.7
3108.55757	12122.5
3110.92066	12104.4
3113.28232	12102.6
3115.64255	12053.5
3118.00134	12038.8
3120.35871	12015.6
3122.71466	11986.7
3125.06917	11973.7
3127.42226	11960.9
3129.77393	11990.2
3132.12417	11990
3134.47299	11961.9
3136.82039	11966.8
3139.16636	11976.2
3141.51092	11953.9
3143.85406	11962.5
3146.19579	11949.5
3148.53609	11945.8
3150.87499	11921.1
3153.21246	11948.9
3155.54853	11958.3
3157.88318	11945.9
3160.21642	11967.3
3162.54826	11997.9
3164.87868	11987.3
3167.2077	11963.8
3169.5353	11971.1
3171.86151	11966.8
3174.18631	11960.1
3176.5097	11948.3
3178.83169	11907.2
3181.15228	11921.9
3183.47147	11873.6
3185.78926	11876.4
3188.10565	11857.3
3190.42065	11842.8
3192.73424	11875.9
3195.04645	11890.8
3197.35725	11916.5
3199.66667	11889.9
3201.97469	11891.8
3204.28132	11882.6
3206.58656	11903.9
3208.8904	11881.4
3211.19287	11894.1
3213.49394	11887.2
3215.79363	11876.8
3218.09193	11898.7
3220.38884	11885.2
3222.68438	11918.7
3224.97853	11879.8
3227.2713	11905.2
3229.56269	11877.9
3231.8527	11879.2
3234.14133	11881.8
3236.42858	11854.8
3238.71446	11847.6
3240.99896	11820.3
3243.28209	11832.1
3245.56384	11792
3247.84423	11797.6
3250.12324	11795.1
3252.40088	11778.4
3254.67715	11802.4
3256.95205	11784.4
3259.22558	11778.9
3261.49775	11759.8
3263.76855	11761.1
3266.03799	11745.1
3268.30606	11739.6
3270.57277	11690.1
3272.83812	11698.9
3275.10211	11663.4
3277.36474	11631.1
3279.62601	11631.9
3281.88593	11606.5
3284.14448	11656.9
3286.40168	11645.7
3288.65753	11657.1
3290.91202	11653.9
3293.16516	11643.3
3295.41695	11649.4
3297.66738	11554.2
3299.91647	11531.6
3302.16421	11448.8
3304.4106	11419
3306.65564	11316.1
3308.89933	11278.4
3311.14169	11211.3
3313.38269	11119.2
3315.62236	11026.3
3317.86068	10915.4
3320.09766	10849
3322.3333	10791.7
3324.5676	10730.9
3326.80056	10558
3329.03219	10496.4
3331.26248	4
3333.49143	-0.6
3335.71905	0.3
