Data from AgNPs_FTO_APTES_UA_50uM_CRN_10uM_R6G_10uM_NaF_0.1M_Addition_RamanShift__1__13-14-34-858.txt Node

Date: Mon Feb 21 13:14:34 GMT 2022
User: TCL
Spectrometer: QEP01345
Trigger mode: 4
Integration Time (sec): 7.000000E0
Scans to average: 10
Electric dark correction enabled: true
Nonlinearity correction enabled: false
Boxcar width: 0
XAxis mode: Raman Shifts
Number of Pixels in Spectrum: 1044
>>>>>Begin Spectral Data<<<<<
46.04893	-0.2125
50.45542	-0.1125
54.85868	-0.3125
59.25871	-2.2125
63.6555	69.8875
68.04907	79.9875
72.43941	78.9875
76.82654	81.0875
81.21044	84.4875
85.59113	87.2875
89.96862	93.0875
94.34289	97.7875
98.71396	96.2875
103.08183	102.3875
107.4465	106.3875
111.80798	104.5875
116.16626	105.5875
120.52136	110.4875
124.87327	119.9875
129.222	116.2875
133.56755	124.8875
137.90993	135.4875
142.24913	145.6875
146.58517	161.6875
150.91804	187.8875
155.24774	223.0875
159.57429	279.3875
163.89768	352.6875
168.21792	471.8875
172.53501	640.6875
176.84895	900.7875
181.15975	1257.7875
185.46741	1750.9875
189.77193	2425.1875
194.07331	3242.3875
198.37157	4175.7875
202.6667	5139.4875
206.9587	6119.8875
211.24758	7080.4875
215.53334	8048.6875
219.81599	9104.0875
224.09553	10251.3875
228.37195	11552.7875
232.64527	13010.1875
236.91549	14532.2875
241.18261	15974.6875
245.44663	17290.2875
249.70755	18383.2875
253.96539	19294.2875
258.22014	20059.0875
262.4718	20678.5875
266.72039	21133.2875
270.96589	21320.5875
275.20832	21251.5875
279.44768	20989.3875
283.68397	20664.7875
287.91719	20373.3875
292.14735	20178.8875
296.37445	20153.5875
300.59849	20293.5875
304.81948	20497.6875
309.03742	20659.9875
313.25231	20709.5875
317.46415	20508.2875
321.67296	20171.1875
325.87872	19927.8875
330.08145	19877.2875
334.28114	19870.3875
338.47781	20014.3875
342.67145	20262.6875
346.86207	20654.7875
351.04966	21072.2875
355.23424	21580.2875
359.4158	21978.3875
363.59435	22233.2875
367.76989	22337.4875
371.94243	22493.3875
376.11196	22586.8875
380.27849	22708.2875
384.44203	22798.2875
388.60257	23000.7875
392.76012	23089.4875
396.91468	23236.7875
401.06626	23584.3875
405.21485	23782.4875
409.36047	23605.6875
413.50311	23167.9875
417.64277	22856.2875
421.77947	22765.8875
425.9132	22797.3875
430.04396	22945.5875
434.17176	23096.0875
438.2966	23470.1875
442.41849	24168.1875
446.53742	25168.6875
450.6534	26134.8875
454.76644	26612.0875
458.87653	26566.1875
462.98368	26158.5875
467.08789	25560.3875
471.18916	24925.4875
475.2875	24229.5875
479.38291	23663.4875
483.4754	23235.2875
487.56496	22954.2875
491.6516	22747.8875
495.73531	22721.2875
499.81612	22799.0875
503.89401	22964.9875
507.96899	23035.7875
512.04106	22987.4875
516.11023	22894.0875
520.1765	22883.7875
524.23987	22921.7875
528.30034	22963.0875
532.35792	22943.2875
536.41261	22692.5875
540.46441	22250.0875
544.51333	22077.1875
548.55936	22157.1875
552.60252	22567.7875
556.64279	23310.7875
560.6802	23774.8875
564.71473	23773.4875
568.7464	23866.9875
572.7752	24279.1875
576.80114	24687.6875
580.82422	25223.2875
584.84444	26340.1875
588.86181	28383.6875
592.87633	30992.6875
596.888	32299.8875
600.89682	30940.5875
604.9028	29782.2875
608.90594	31606.5875
612.90624	34393.1875
616.90371	32143.0875
620.89834	26426.9875
624.89015	23795.6875
628.87913	23451.8875
632.86528	23529.6875
636.84862	23497.5875
640.82913	23026.3875
644.80683	22350.0875
648.78172	21970.3875
652.75379	21964.8875
656.72306	22426.0875
660.68952	22998.7875
664.65319	22774.6875
668.61405	22226.7875
672.57211	22196.8875
676.52738	22396.7875
680.47986	22349.4875
684.42955	22072.2875
688.37646	21913.9875
692.32058	22105.6875
696.26192	22502.6875
700.20048	22901.3875
704.13626	23062.7875
708.06928	22863.1875
711.99952	22670.7875
715.927	22705.7875
719.85171	22909.0875
723.77365	22880.3875
727.69284	22559.1875
731.60928	22313.3875
735.52295	22289.6875
739.43388	22408.3875
743.34206	22527.1875
747.24749	22630.2875
751.15017	22740.7875
755.05012	23022.5875
758.94733	23629.9875
762.8418	24839.1875
766.73354	26962.8875
770.62254	29149.0875
774.50882	29810.6875
778.39237	28682.4875
782.27321	26622.8875
786.15132	24738.7875
790.02671	23514.9875
793.89938	22833.4875
797.76935	22516.0875
801.6366	22380.9875
805.50115	22263.4875
809.36299	22108.5875
813.22213	22003.4875
817.07857	21824.8875
820.93231	21744.0875
824.78336	21711.0875
828.63172	21716.1875
832.47738	21744.7875
836.32036	21760.9875
840.16066	21805.2875
843.99827	21897.8875
847.8332	21871.4875
851.66546	21807.1875
855.49504	21848.7875
859.32195	21822.0875
863.1462	21771.3875
866.96777	21774.0875
870.78668	21720.2875
874.60293	21768.1875
878.41652	21828.9875
882.22745	21964.3875
886.03573	22109.6875
889.84136	22032.7875
893.64433	21971.7875
897.44466	21894.4875
901.24235	21796.4875
905.0374	21713.5875
908.8298	21626.4875
912.61957	21578.5875
916.40671	21671.4875
920.19121	21911.7875
923.97308	22191.7875
927.75233	22424.9875
931.52895	22419.4875
935.30295	22152.5875
939.07433	21742.7875
942.84309	21396.4875
946.60924	21263.9875
950.37278	21218.1875
954.13371	21176.2875
957.89203	21158.7875
961.64774	21088.1875
965.40086	21108.3875
969.15137	21109.7875
972.89929	21108.0875
976.64461	21189.8875
980.38733	21255.5875
984.12747	21362.6875
987.86502	21512.4875
991.59999	21729.2875
995.33237	22084.9875
999.06217	22658.9875
1002.78939	23417.7875
1006.51404	23990.0875
1010.23611	24471.2875
1013.95561	24809.6875
1017.67255	24861.6875
1021.38692	24495.0875
1025.09872	23987.9875
1028.80796	23715.8875
1032.51465	23943.6875
1036.21877	24201.7875
1039.92035	24297.6875
1043.61937	24220.7875
1047.31584	23899.9875
1051.00976	23517.1875
1054.70114	23322.3875
1058.38998	23304.3875
1062.07627	23355.3875
1065.76003	23513.5875
1069.44126	23766.5875
1073.11995	24190.3875
1076.79611	24613.0875
1080.46974	24977.7875
1084.14085	25356.1875
1087.80943	25724.3875
1091.47549	25892.1875
1095.13903	25721.1875
1098.80005	25231.6875
1102.45857	24735.8875
1106.11456	24464.8875
1109.76805	24404.9875
1113.41903	24554.6875
1117.06751	24773.2875
1120.71348	25154.7875
1124.35696	25508.6875
1127.99793	25918.7875
1131.63641	25986.8875
1135.2724	25737.9875
1138.90589	25464.7875
1142.5369	25380.6875
1146.16542	25431.2875
1149.79145	25576.7875
1153.415	25695.7875
1157.03607	25873.6875
1160.65467	26371.6875
1164.27079	27482.0875
1167.88443	28913.7875
1171.49561	30894.4875
1175.10432	33583.2875
1178.71056	37052.5875
1182.31434	40045.6875
1185.91565	41235.2875
1189.51451	40363.7875
1193.11091	38626.7875
1196.70485	36678.0875
1200.29634	34861.6875
1203.88538	33366.8875
1207.47197	32217.5875
1211.05612	31302.7875
1214.63782	30700.1875
1218.21708	30446.3875
1221.79391	30575.3875
1225.36829	30860.6875
1228.94024	30800.0875
1232.50976	30173.6875
1236.07685	29387.5875
1239.6415	28899.0875
1243.20374	28770.9875
1246.76355	28890.1875
1250.32093	29163.1875
1253.8759	29711.5875
1257.42845	30571.0875
1260.97859	31627.4875
1264.52631	32814.8875
1268.07163	34015.5875
1271.61453	35085.8875
1275.15503	35997.4875
1278.69312	36917.6875
1282.22882	37868.7875
1285.76211	39205.2875
1289.29301	40770.2875
1292.82151	42571.3875
1296.34761	44731.0875
1299.87133	47307.7875
1303.39266	50420.5875
1306.9116	53794.3875
1310.42815	56883.3875
1313.94233	58694.6875
1317.45412	57927.2875
1320.96354	55418.8875
1324.47058	52587.0875
1327.97525	50021.3875
1331.47754	48294.2875
1334.97747	47373.1875
1338.47502	46753.4875
1341.97022	46319.4875
1345.46305	45978.0875
1348.95352	46339.0875
1352.44163	48015.6875
1355.92738	51194.4875
1359.41078	55604.4875
1362.89183	59213.0875
1366.37053	58776.4875
1369.84688	53167.3875
1373.32088	46044.5875
1376.79254	41344.4875
1380.26186	39480.6875
1383.72883	38961.7875
1387.19347	38458.6875
1390.65578	37546.3875
1394.11575	36990.3875
1397.57339	37009.4875
1401.0287	37342.8875
1404.48168	37663.3875
1407.93234	37647.0875
1411.38068	37447.0875
1414.82669	37002.0875
1418.27039	36348.2875
1421.71177	35450.9875
1425.15083	34557.4875
1428.58758	34220.5875
1432.02203	34661.6875
1435.45416	35497.6875
1438.88399	36306.1875
1442.31151	36603.4875
1445.73673	36647.2875
1449.15965	36603.0875
1452.58027	36315.4875
1455.9986	35809.3875
1459.41463	35630.0875
1462.82837	36157.3875
1466.23982	37190.8875
1469.64898	38204.6875
1473.05586	39090.9875
1476.46045	39711.6875
1479.86276	40094.5875
1483.26279	40213.0875
1486.66054	40455.4875
1490.05602	41041.9875
1493.44922	41757.4875
1496.84016	42243.5875
1500.22882	42801.3875
1503.61521	43706.2875
1506.99934	45194.5875
1510.38121	46227.8875
1513.76081	46253.8875
1517.13816	44759.2875
1520.51324	42480.9875
1523.88607	40491.5875
1527.25665	39425.9875
1530.62498	39040.5875
1533.99105	38671.1875
1537.35488	38017.7875
1540.71647	37093.3875
1544.07581	36156.9875
1547.4329	35282.5875
1550.78776	34585.3875
1554.14038	34122.0875
1557.49077	33858.2875
1560.83892	33787.6875
1564.18484	34046.5875
1567.52853	34413.4875
1570.86999	34865.9875
1574.20922	35437.0875
1577.54624	35746.0875
1580.88103	35478.5875
1584.2136	35205.2875
1587.54395	35962.3875
1590.87208	38025.7875
1594.19801	41208.4875
1597.52172	44482.6875
1600.84321	45797.0875
1604.16251	44119.5875
1607.47959	40268.3875
1610.79447	36002.5875
1614.10715	32343.3875
1617.41763	29742.9875
1620.7259	28243.8875
1624.03199	27619.2875
1627.33587	27835.3875
1630.63757	28892.7875
1633.93707	30943.5875
1637.23439	34388.5875
1640.52951	39686.7875
1643.82246	46198.2875
1647.11321	51328.5875
1650.40179	51858.1875
1653.68819	47072.2875
1656.97241	39653.0875
1660.25446	33117.8875
1663.53433	28702.4875
1666.81203	26150.7875
1670.08756	24601.2875
1673.36092	23753.8875
1676.63211	23166.8875
1679.90115	22758.7875
1683.16801	22420.5875
1686.43272	22148.7875
1689.69527	21944.6875
1692.95567	21768.2875
1696.2139	21582.8875
1699.46999	21420.4875
1702.72392	21351.3875
1705.97571	21374.2875
1709.22535	21406.4875
1712.47284	21419.3875
1715.71819	21486.1875
1718.96139	21435.2875
1722.20246	21349.8875
1725.44139	21273.9875
1728.67818	21113.6875
1731.91284	21044.6875
1735.14537	20941.0875
1738.37576	20832.7875
1741.60403	20768.8875
1744.83017	20692.1875
1748.05418	20592.5875
1751.27607	20496.2875
1754.49584	20439.2875
1757.71349	20373.7875
1760.92903	20371.5875
1764.14244	20323.7875
1767.35375	20339.2875
1770.56294	20297.4875
1773.77002	20283.4875
1776.97499	20239.0875
1780.17785	20263.0875
1783.37861	20302.8875
1786.57727	20326.4875
1789.77382	20277.6875
1792.96828	20268.5875
1796.16064	20254.1875
1799.3509	20185.1875
1802.53907	20136.9875
1805.72514	20112.3875
1808.90913	20094.8875
1812.09102	20053.2875
1815.27083	20014.9875
1818.44856	20000.1875
1821.6242	20002.0875
1824.79776	20011.2875
1827.96924	20003.3875
1831.13864	19977.2875
1834.30597	20015.6875
1837.47122	20010.4875
1840.6344	19991.2875
1843.7955	20022.1875
1846.95454	19996.0875
1850.11151	19985.8875
1853.26642	19956.8875
1856.41926	19922.3875
1859.57004	19928.4875
1862.71876	19896.6875
1865.86542	19911.6875
1869.01003	19906.1875
1872.15258	19900.1875
1875.29308	19870.9875
1878.43152	19838.4875
1881.56792	19876.0875
1884.70227	19881.0875
1887.83457	19885.6875
1890.96482	19823.3875
1894.09304	19831.5875
1897.21921	19797.2875
1900.34335	19773.2875
1903.46544	19769.3875
1906.58551	19742.4875
1909.70353	19699.5875
1912.81953	19703.5875
1915.93349	19648.1875
1919.04543	19599.8875
1922.15534	19606.7875
1925.26322	19547.4875
1928.36908	19493.7875
1931.47292	19439.2875
1934.57473	19365.0875
1937.67453	19305.5875
1940.77232	19296.4875
1943.86808	19252.0875
1946.96184	19219.4875
1950.05358	19184.9875
1953.14331	19104.0875
1956.23103	19050.6875
1959.31675	19038.2875
1962.40046	19007.8875
1965.48217	18935.1875
1968.56188	18923.4875
1971.63959	18878.1875
1974.7153	18801.8875
1977.78901	18776.1875
1980.86073	18722.4875
1983.93046	18647.7875
1986.99819	18603.7875
1990.06394	18533.0875
1993.1277	18505.0875
1996.18947	18446.4875
1999.24925	18377.9875
2002.30706	18312.7875
2005.36288	18309.6875
2008.41672	18226.3875
2011.46859	18184.0875
2014.51848	18167.8875
2017.56639	18114.8875
2020.61233	18090.7875
2023.6563	18049.9875
2026.6983	18000.6875
2029.73833	17997.8875
2032.7764	17941.1875
2035.8125	17959.9875
2038.84664	17920.1875
2041.87881	17869.1875
2044.90903	17854.1875
2047.93729	17837.2875
2050.96359	17846.8875
2053.98794	17827.9875
2057.01034	17771.6875
2060.03078	17807.9875
2063.04927	17791.6875
2066.06582	17788.5875
2069.08042	17775.8875
2072.09307	17762.0875
2075.10378	17744.5875
2078.11255	17753.8875
2081.11938	17751.8875
2084.12426	17761.9875
2087.12722	17731.5875
2090.12824	17747.6875
2093.12732	17770.9875
2096.12447	17793.1875
2099.11969	17738.5875
2102.11299	17777.7875
2105.10435	17760.7875
2108.09379	17774.8875
2111.08131	17773.6875
2114.0669	17801.4875
2117.05057	17823.8875
2120.03233	17843.9875
2123.01216	17836.4875
2125.99008	17860.1875
2128.96609	17856.3875
2131.94018	17902.6875
2134.91236	17931.4875
2137.88263	17965.8875
2140.851	17955.3875
2143.81746	18005.5875
2146.78201	17953.6875
2149.74466	17957.5875
2152.7054	17993.3875
2155.66425	17982.3875
2158.6212	17963.1875
2161.57625	17955.7875
2164.52941	17988.6875
2167.48067	17931.9875
2170.43004	17921.4875
2173.37752	17912.0875
2176.32311	17919.6875
2179.26681	17983.4875
2182.20863	17975.0875
2185.14856	17982.9875
2188.08661	17994.0875
2191.02278	18027.6875
2193.95707	17984.8875
2196.88948	17980.9875
2199.82001	18006.0875
2202.74867	17966.4875
2205.67545	17950.1875
2208.60037	17945.0875
2211.52341	17887.5875
2214.44458	17884.8875
2217.36388	17863.7875
2220.28132	17836.8875
2223.1969	17750.6875
2226.11061	17794.9875
2229.02246	17740.9875
2231.93245	17739.1875
2234.84058	17716.1875
2237.74686	17730.9875
2240.65128	17718.3875
2243.55385	17717.5875
2246.45456	17739.6875
2249.35343	17665.6875
2252.25044	17654.3875
2255.14561	17635.0875
2258.03893	17620.1875
2260.93041	17543.7875
2263.82004	17542.5875
2266.70783	17463.0875
2269.59378	17445.3875
2272.4779	17471.1875
2275.36017	17397.0875
2278.24061	17387.6875
2281.11922	17314.4875
2283.996	17294.1875
2286.87094	17298.9875
2289.74405	17270.4875
2292.61534	17236.1875
2295.4848	17207.5875
2298.35243	17265.7875
2301.21824	17251.2875
2304.08223	17265.1875
2306.94439	17297.4875
2309.80474	17330.5875
2312.66327	17278.4875
2315.51999	17239.0875
2318.37489	17264.7875
2321.22797	17228.3875
2324.07925	17223.4875
2326.92871	17216.4875
2329.77637	17200.2875
2332.62222	17124.3875
2335.46626	17116.8875
2338.3085	17132.0875
2341.14893	17142.5875
2343.98756	17137.8875
2346.8244	17150.1875
2349.65943	17156.0875
2352.49267	17140.6875
2355.32411	17163.3875
2358.15376	17150.3875
2360.98161	17143.6875
2363.80768	17112.2875
2366.63195	17116.6875
2369.45444	17136.8875
2372.27514	17155.2875
2375.09405	17104.0875
2377.91118	17075.1875
2380.72652	17040.6875
2383.54009	16977.2875
2386.35187	17000.4875
2389.16188	16977.9875
2391.97011	16956.8875
2394.77657	16937.6875
2397.58125	16903.3875
2400.38416	16856.7875
2403.18529	16817.3875
2405.98466	16864.3875
2408.78226	16825.0875
2411.57809	16777.9875
2414.37216	16758.6875
2417.16446	16739.8875
2419.955	16707.1875
2422.74378	16766.3875
2425.5308	16703.5875
2428.31606	16698.5875
2431.09956	16707.5875
2433.88131	16721.0875
2436.6613	16721.0875
2439.43954	16700.7875
2442.21603	16663.0875
2444.99077	16687.2875
2447.76377	16712.0875
2450.53501	16691.2875
2453.30451	16742.4875
2456.07226	16737.2875
2458.83827	16701.0875
2461.60254	16704.0875
2464.36507	16694.1875
2467.12586	16714.9875
2469.88492	16723.9875
2472.64224	16722.3875
2475.39782	16703.2875
2478.15167	16732.3875
2480.90379	16726.7875
2483.65417	16720.0875
2486.40283	16746.2875
2489.14976	16764.8875
2491.89497	16747.9875
2494.63845	16800.9875
2497.3802	16760.2875
2500.12024	16759.3875
2502.85855	16750.7875
2505.59514	16759.2875
2508.33002	16687.6875
2511.06318	16703.9875
2513.79462	16708.2875
2516.52435	16672.2875
2519.25237	16682.3875
2521.97867	16653.6875
2524.70327	16629.1875
2527.42616	16639.1875
2530.14734	16623.2875
2532.86681	16608.5875
2535.58458	16623.1875
2538.30065	16600.1875
2541.01501	16604.7875
2543.72768	16592.7875
2546.43864	16584.6875
2549.14791	16553.2875
2551.85548	16538.3875
2554.56136	16513.5875
2557.26554	16501.2875
2559.96803	16547.5875
2562.66883	16524.5875
2565.36794	16552.2875
2568.06536	16549.3875
2570.7611	16514.8875
2573.45514	16527.2875
2576.14751	16475.4875
2578.83819	16487.8875
2581.52719	16474.0875
2584.21451	16422.0875
2586.90015	16445.2875
2589.58411	16442.8875
2592.2664	16446.9875
2594.94701	16421.1875
2597.62594	16435.9875
2600.30321	16410.6875
2602.9788	16407.6875
2605.65273	16371.5875
2608.32498	16361.5875
2610.99557	16331.3875
2613.66449	16385.1875
2616.33175	16389.2875
2618.99734	16387.5875
2621.66128	16364.1875
2624.32355	16332.1875
2626.98416	16305.7875
2629.64311	16337.5875
2632.30041	16304.1875
2634.95605	16337.7875
2637.61004	16303.4875
2640.26238	16276.1875
2642.91306	16226.6875
2645.56209	16200.4875
2648.20948	16238.0875
2650.85521	16262.4875
2653.4993	16273.0875
2656.14175	16274.2875
2658.78255	16312.3875
2661.42171	16314.3875
2664.05923	16370.3875
2666.6951	16351.1875
2669.32934	16362.3875
2671.96194	16404.1875
2674.59291	16393.7875
2677.22224	16389.5875
2679.84993	16400.7875
2682.476	16383.1875
2685.10043	16356.9875
2687.72324	16310.1875
2690.34441	16336.4875
2692.96396	16326.4875
2695.58188	16364.4875
2698.19818	16338.5875
2700.81285	16352.6875
2703.4259	16311.7875
2706.03733	16282.0875
2708.64714	16267.4875
2711.25533	16342.3875
2713.86191	16349.9875
2716.46687	16390.9875
2719.07021	16413.3875
2721.67194	16408.9875
2724.27206	16444.0875
2726.87057	16463.5875
2729.46747	16504.9875
2732.06276	16485.0875
2734.65644	16486.2875
2737.24852	16459.1875
2739.83899	16418.6875
2742.42786	16466.5875
2745.01513	16471.4875
2747.60079	16479.3875
2750.18486	16409.2875
2752.76733	16407.6875
2755.3482	16385.7875
2757.92747	16369.3875
2760.50515	16375.9875
2763.08123	16394.9875
2765.65573	16381.7875
2768.22863	16355.0875
2770.79994	16348.7875
2773.36967	16327.1875
2775.9378	16380.9875
2778.50435	16419.6875
2781.06932	16383.7875
2783.6327	16386.7875
2786.1945	16363.3875
2788.75471	16377.6875
2791.31335	16328.5875
2793.87041	16297.9875
2796.42589	16281.5875
2798.97979	16264.2875
2801.53212	16248.7875
2804.08288	16222.2875
2806.63206	16211.2875
2809.17967	16186.1875
2811.72571	16136.0875
2814.27018	16103.7875
2816.81308	16068.6875
2819.35442	16091.5875
2821.89419	16022.2875
2824.43239	16053.9875
2826.96904	16053.7875
2829.50412	16053.1875
2832.03763	16032.8875
2834.56959	16006.4875
2837.1	16011.2875
2839.62884	15965.6875
2842.15613	15927.3875
2844.68186	15959.1875
2847.20604	15966.3875
2849.72867	15975.3875
2852.24974	15964.9875
2854.76927	15955.9875
2857.28724	15947.6875
2859.80367	15938.7875
2862.31855	15905.9875
2864.83189	15916.8875
2867.34368	15923.6875
2869.85393	15941.3875
2872.36264	15917.1875
2874.8698	15899.7875
2877.37543	15911.3875
2879.87952	15908.1875
2882.38207	15920.3875
2884.88308	15934.7875
2887.38256	15918.5875
2889.88051	15900.4875
2892.37692	15964.2875
2894.8718	15944.5875
2897.36515	15977.4875
2899.85698	15954.8875
2902.34727	16007.1875
2904.83604	16016.0875
2907.32328	16056.9875
2909.809	16019.5875
2912.29319	16070.4875
2914.77587	16072.7875
2917.25702	16067.8875
2919.73665	16035.6875
2922.21476	16063.7875
2924.69136	16086.2875
2927.16644	16051.6875
2929.64	16007.0875
2932.11205	16006.4875
2934.58258	15936.4875
2937.05161	15987.8875
2939.51912	15993.8875
2941.98513	15966.3875
2944.44962	15951.1875
2946.91261	15872.1875
2949.37409	15895.3875
2951.83407	15884.5875
2954.29254	15892.9875
2956.74951	15869.2875
2959.20498	15854.8875
2961.65895	15859.5875
2964.11142	15852.2875
2966.56239	15826.4875
2969.01186	15832.5875
2971.45984	15760.0875
2973.90632	15772.9875
2976.35131	15727.9875
2978.7948	15719.7875
2981.23681	15716.3875
2983.67732	15641.8875
2986.11635	15645.5875
2988.55388	15606.7875
2990.98993	15558.1875
2993.4245	15550.5875
2995.85758	15540.6875
2998.28917	15501.5875
3000.71928	15492.6875
3003.14791	15416.2875
3005.57506	15429.8875
3008.00073	15386.9875
3010.42493	15405.9875
3012.84764	15364.3875
3015.26888	15333.9875
3017.68865	15267.1875
3020.10694	15251.3875
3022.52376	15229.4875
3024.9391	15234.8875
3027.35298	15191.6875
3029.76539	15196.4875
3032.17632	15185.2875
3034.5858	15165.4875
3036.9938	15165.5875
3039.40034	15126.6875
3041.80542	15138.9875
3044.20903	15112.4875
3046.61118	15125.8875
3049.01187	15086.7875
3051.4111	15079.1875
3053.80888	15090.1875
3056.20519	15077.6875
3058.60005	15060.7875
3060.99345	14981.3875
3063.3854	14989.1875
3065.7759	14938.0875
3068.16494	14883.8875
3070.55254	14837.4875
3072.93868	14775.0875
3075.32338	14767.6875
3077.70662	14768.5875
3080.08842	14736.4875
3082.46878	14725.4875
3084.84769	14708.8875
3087.22515	14696.8875
3089.60118	14697.4875
3091.97576	14706.1875
3094.3489	14727.9875
3096.72061	14722.5875
3099.09087	14679.4875
3101.4597	14691.7875
3103.82709	14694.8875
3106.19305	14656.8875
3108.55757	14643.2875
3110.92066	14654.0875
3113.28232	14595.1875
3115.64255	14527.5875
3118.00134	14529.2875
3120.35871	14466.8875
3122.71466	14485.8875
3125.06917	14456.0875
3127.42226	14417.7875
3129.77393	14449.7875
3132.12417	14422.0875
3134.47299	14466.3875
3136.82039	14419.0875
3139.16636	14421.1875
3141.51092	14418.3875
3143.85406	14420.8875
3146.19579	14428.9875
3148.53609	14421.2875
3150.87499	14394.0875
3153.21246	14391.7875
3155.54853	14413.2875
3157.88318	14418.1875
3160.21642	14436.2875
3162.54826	14458.9875
3164.87868	14438.6875
3167.2077	14412.6875
3169.5353	14420.2875
3171.86151	14427.8875
3174.18631	14424.3875
3176.5097	14383.3875
3178.83169	14375.4875
3181.15228	14374.8875
3183.47147	14321.2875
3185.78926	14278.4875
3188.10565	14302.1875
3190.42065	14270.8875
3192.73424	14322.8875
3195.04645	14304.6875
3197.35725	14314.4875
3199.66667	14289.5875
3201.97469	14290.5875
3204.28132	14309.1875
3206.58656	14289.3875
3208.8904	14279.6875
3211.19287	14288.3875
3213.49394	14318.6875
3215.79363	14296.6875
3218.09193	14321.8875
3220.38884	14315.6875
3222.68438	14319.0875
3224.97853	14269.7875
3227.2713	14271.2875
3229.56269	14292.4875
3231.8527	14273.9875
3234.14133	14281.0875
3236.42858	14274.6875
3238.71446	14252.2875
3240.99896	14213.6875
3243.28209	14176.0875
3245.56384	14155.6875
3247.84423	14176.8875
3250.12324	14166.6875
3252.40088	14126.6875
3254.67715	14126.9875
3256.95205	14107.1875
3259.22558	14121.7875
3261.49775	14108.1875
3263.76855	14103.2875
3266.03799	14094.9875
3268.30606	14055.0875
3270.57277	14042.7875
3272.83812	14036.2875
3275.10211	13977.6875
3277.36474	13976.4875
3279.62601	13974.6875
3281.88593	13955.1875
3284.14448	13955.9875
3286.40168	13985.7875
3288.65753	13978.5875
3290.91202	14001.6875
3293.16516	13961.7875
3295.41695	13973.0875
3297.66738	13872.3875
3299.91647	13800.7875
3302.16421	13704.5875
3304.4106	13635.8875
3306.65564	13569.2875
3308.89933	13480.1875
3311.14169	13412.7875
3313.38269	13278.6875
3315.62236	13201.2875
3317.86068	13099.7875
3320.09766	13001.8875
3322.3333	12921.9875
3324.5676	12853.9875
3326.80056	12671.9875
3329.03219	12591.4875
3331.26248	2.9875
3333.49143	-0.4125
3335.71905	1.0875
