Data from AgNPs_FTO_APTES_UA_50uM_CRN_1uM_R6G_10uM_NaF_0.1M_Addition_RamanShift__13__11-30-44-722.txt Node

Date: Mon Feb 21 11:30:44 GMT 2022
User: TCL
Spectrometer: QEP01345
Trigger mode: 4
Integration Time (sec): 7.000000E0
Scans to average: 10
Electric dark correction enabled: true
Nonlinearity correction enabled: false
Boxcar width: 0
XAxis mode: Raman Shifts
Number of Pixels in Spectrum: 1044
>>>>>Begin Spectral Data<<<<<
46.04893	1.0375
50.45542	-0.0625
54.85868	-0.1625
59.25871	-0.9625
63.6555	59.1375
68.04907	64.1375
72.43941	64.2375
76.82654	67.1375
81.21044	69.2375
85.59113	73.4375
89.96862	77.6375
94.34289	77.2375
98.71396	79.2375
103.08183	86.7375
107.4465	84.8375
111.80798	82.6375
116.16626	87.4375
120.52136	87.2375
124.87327	100.3375
129.222	94.9375
133.56755	100.1375
137.90993	110.5375
142.24913	119.0375
146.58517	127.2375
150.91804	147.8375
155.24774	175.3375
159.57429	219.1375
163.89768	273.4375
168.21792	362.0375
172.53501	496.3375
176.84895	690.4375
181.15975	963.2375
185.46741	1352.5375
189.77193	1865.0375
194.07331	2498.9375
198.37157	3234.1375
202.6667	4006.3375
206.9587	4763.2375
211.24758	5499.5375
215.53334	6238.1375
219.81599	7025.5375
224.09553	7877.2375
228.37195	8810.5375
232.64527	9857.8375
236.91549	10991.3375
241.18261	12111.4375
245.44663	13175.6375
249.70755	14151.0375
253.96539	15004.0375
258.22014	15722.3375
262.4718	16233.3375
266.72039	16569.1375
270.96589	16731.2375
275.20832	16716.2375
279.44768	16600.1375
283.68397	16422.5375
287.91719	16233.1375
292.14735	16117.1375
296.37445	16060.7375
300.59849	16065.3375
304.81948	16087.4375
309.03742	16064.1375
313.25231	15997.5375
317.46415	15786.4375
321.67296	15461.0375
325.87872	15222.9375
330.08145	15085.9375
334.28114	15034.2375
338.47781	15104.0375
342.67145	15279.3375
346.86207	15468.2375
351.04966	15720.9375
355.23424	15981.6375
359.4158	16204.7375
363.59435	16417.9375
367.76989	16552.8375
371.94243	16613.7375
376.11196	16658.7375
380.27849	16675.9375
384.44203	16710.5375
388.60257	16835.8375
392.76012	17010.6375
396.91468	17241.5375
401.06626	17541.7375
405.21485	17737.9375
409.36047	17685.7375
413.50311	17467.9375
417.64277	17347.8375
421.77947	17345.7375
425.9132	17385.0375
430.04396	17512.6375
434.17176	17546.4375
438.2966	17686.9375
442.41849	17823.2375
446.53742	18104.5375
450.6534	18451.2375
454.76644	18730.4375
458.87653	18903.3375
462.98368	18922.1375
467.08789	18875.2375
471.18916	18786.2375
475.2875	18562.9375
479.38291	18493.2375
483.4754	18462.0375
487.56496	18384.0375
491.6516	18197.4375
495.73531	17992.9375
499.81612	17855.9375
503.89401	17883.1375
507.96899	17955.0375
512.04106	17976.2375
516.11023	17938.1375
520.1765	17809.7375
524.23987	17672.3375
528.30034	17520.9375
532.35792	17407.0375
536.41261	17279.8375
540.46441	17139.5375
544.51333	17120.9375
548.55936	17261.6375
552.60252	17543.9375
556.64279	17850.8375
560.6802	18119.7375
564.71473	18312.7375
568.7464	18650.5375
572.7752	19233.1375
576.80114	19927.8375
580.82422	20497.0375
584.84444	20998.1375
588.86181	21424.2375
592.87633	21874.4375
596.888	21858.0375
600.89682	21181.0375
604.9028	20976.0375
608.90594	21851.5375
612.90624	22814.3375
616.90371	21663.9375
620.89834	19115.3375
624.89015	17957.8375
628.87913	17870.9375
632.86528	18045.1375
636.84862	18136.5375
640.82913	17906.5375
644.80683	17523.9375
648.78172	17241.2375
652.75379	17154.0375
656.72306	17256.8375
660.68952	17568.1375
664.65319	17524.2375
668.61405	17349.5375
672.57211	17350.1375
676.52738	17375.4375
680.47986	17390.5375
684.42955	17301.2375
688.37646	17252.3375
692.32058	17332.3375
696.26192	17498.1375
700.20048	17664.8375
704.13626	17783.7375
708.06928	17851.9375
711.99952	17803.3375
715.927	17777.3375
719.85171	17771.9375
723.77365	17653.9375
727.69284	17408.7375
731.60928	17215.9375
735.52295	17113.0375
739.43388	17062.1375
743.34206	17125.2375
747.24749	17201.1375
751.15017	17375.5375
755.05012	17620.5375
758.94733	18023.1375
762.8418	18718.6375
766.73354	19739.8375
770.62254	20711.3375
774.50882	20856.9375
778.39237	20170.6375
782.27321	19129.6375
786.15132	18287.6375
790.02671	17726.4375
793.89938	17392.0375
797.76935	17193.3375
801.6366	17086.5375
805.50115	17063.5375
809.36299	16971.6375
813.22213	16924.9375
817.07857	16867.2375
820.93231	16869.6375
824.78336	16823.0375
828.63172	16784.6375
832.47738	16713.1375
836.32036	16679.1375
840.16066	16696.6375
843.99827	16702.2375
847.8332	16716.0375
851.66546	16741.9375
855.49504	16769.2375
859.32195	16779.0375
863.1462	16747.7375
866.96777	16731.3375
870.78668	16702.7375
874.60293	16771.5375
878.41652	16776.8375
882.22745	16814.7375
886.03573	16848.9375
889.84136	16841.2375
893.64433	16833.4375
897.44466	16793.0375
901.24235	16792.0375
905.0374	16756.2375
908.8298	16719.2375
912.61957	16745.5375
916.40671	16851.4375
920.19121	17039.4375
923.97308	17179.7375
927.75233	17209.9375
931.52895	17045.1375
935.30295	16802.8375
939.07433	16558.1375
942.84309	16383.5375
946.60924	16262.2375
950.37278	16228.4375
954.13371	16181.5375
957.89203	16175.2375
961.64774	16126.2375
965.40086	16157.7375
969.15137	16124.8375
972.89929	16073.9375
976.64461	16021.5375
980.38733	15998.4375
984.12747	15992.4375
987.86502	16050.3375
991.59999	16124.3375
995.33237	16251.0375
999.06217	16420.0375
1002.78939	16620.6375
1006.51404	16853.2375
1010.23611	17128.3375
1013.95561	17308.5375
1017.67255	17378.2375
1021.38692	17233.0375
1025.09872	17002.3375
1028.80796	16820.9375
1032.51465	16710.2375
1036.21877	16721.9375
1039.92035	16771.7375
1043.61937	16882.1375
1047.31584	16949.0375
1051.00976	17017.3375
1054.70114	17048.8375
1058.38998	17144.3375
1062.07627	17333.2375
1065.76003	17523.0375
1069.44126	17730.2375
1073.11995	18018.2375
1076.79611	18297.7375
1080.46974	18428.5375
1084.14085	18474.3375
1087.80943	18645.3375
1091.47549	18814.5375
1095.13903	18895.7375
1098.80005	18736.2375
1102.45857	18321.8375
1106.11456	17996.2375
1109.76805	17784.4375
1113.41903	17710.1375
1117.06751	17706.7375
1120.71348	17832.8375
1124.35696	17986.7375
1127.99793	18144.4375
1131.63641	18304.6375
1135.2724	18282.2375
1138.90589	18267.7375
1142.5369	18275.1375
1146.16542	18369.8375
1149.79145	18484.3375
1153.415	18616.4375
1157.03607	18820.6375
1160.65467	19127.1375
1164.27079	19682.5375
1167.88443	20399.8375
1171.49561	21257.9375
1175.10432	22303.5375
1178.71056	23576.0375
1182.31434	24754.2375
1185.91565	25483.3375
1189.51451	25731.0375
1193.11091	25535.5375
1196.70485	24940.0375
1200.29634	24174.4375
1203.88538	23511.2375
1207.47197	23108.0375
1211.05612	22884.3375
1214.63782	22622.4375
1218.21708	22094.0375
1221.79391	21536.3375
1225.36829	21078.2375
1228.94024	20837.5375
1232.50976	20700.8375
1236.07685	20626.4375
1239.6415	20488.9375
1243.20374	20490.3375
1246.76355	20508.4375
1250.32093	20703.9375
1253.8759	21033.3375
1257.42845	21505.2375
1260.97859	21998.2375
1264.52631	22659.4375
1268.07163	23221.7375
1271.61453	23803.1375
1275.15503	24261.5375
1278.69312	24843.1375
1282.22882	25432.3375
1285.76211	26176.2375
1289.29301	26959.3375
1292.82151	27831.1375
1296.34761	28852.5375
1299.87133	30029.7375
1303.39266	31144.9375
1306.9116	32145.1375
1310.42815	32919.2375
1313.94233	33244.3375
1317.45412	33162.6375
1320.96354	32836.3375
1324.47058	32638.1375
1327.97525	32535.5375
1331.47754	32561.3375
1334.97747	32569.5375
1338.47502	32576.0375
1341.97022	32612.2375
1345.46305	32619.7375
1348.95352	32427.2375
1352.44163	32262.0375
1355.92738	32236.8375
1359.41078	32656.0375
1362.89183	33153.9375
1366.37053	32778.3375
1369.84688	30993.3375
1373.32088	28567.8375
1376.79254	26694.0375
1380.26186	25864.0375
1383.72883	25663.9375
1387.19347	25508.8375
1390.65578	25251.9375
1394.11575	25060.1375
1397.57339	25068.2375
1401.0287	25158.8375
1404.48168	25316.9375
1407.93234	25181.6375
1411.38068	24765.2375
1414.82669	24190.9375
1418.27039	23430.4375
1421.71177	22748.9375
1425.15083	22248.3375
1428.58758	21999.4375
1432.02203	22083.0375
1435.45416	22462.9375
1438.88399	22945.7375
1442.31151	23272.0375
1445.73673	23513.7375
1449.15965	23721.6375
1452.58027	23952.9375
1455.9986	24095.2375
1459.41463	24309.1375
1462.82837	24627.9375
1466.23982	24944.2375
1469.64898	25255.7375
1473.05586	25360.7375
1476.46045	25413.9375
1479.86276	25329.1375
1483.26279	25343.9375
1486.66054	25399.7375
1490.05602	25563.7375
1493.44922	25994.7375
1496.84016	26533.9375
1500.22882	27223.7375
1503.61521	28059.8375
1506.99934	28821.4375
1510.38121	29391.5375
1513.76081	29419.3375
1517.13816	28944.0375
1520.51324	28239.3375
1523.88607	27717.8375
1527.25665	27413.9375
1530.62498	27225.9375
1533.99105	26896.7375
1537.35488	26464.8375
1540.71647	25848.7375
1544.07581	25126.1375
1547.4329	24491.4375
1550.78776	24040.6375
1554.14038	23724.2375
1557.49077	23586.9375
1560.83892	23615.6375
1564.18484	23655.1375
1567.52853	23717.2375
1570.86999	23917.1375
1574.20922	24300.8375
1577.54624	24570.2375
1580.88103	24608.9375
1584.2136	24714.7375
1587.54395	25071.8375
1590.87208	25889.9375
1594.19801	26852.3375
1597.52172	27730.3375
1600.84321	27761.6375
1604.16251	26722.9375
1607.47959	25258.6375
1610.79447	23638.3375
1614.10715	22115.4375
1617.41763	20808.5375
1620.7259	19868.2375
1624.03199	19375.3375
1627.33587	19313.4375
1630.63757	19734.7375
1633.93707	20660.9375
1637.23439	22319.8375
1640.52951	24711.1375
1643.82246	27543.4375
1647.11321	29820.5375
1650.40179	30437.9375
1653.68819	28820.2375
1656.97241	25644.9375
1660.25446	22478.6375
1663.53433	19929.8375
1666.81203	18289.1375
1670.08756	17284.8375
1673.36092	16673.5375
1676.63211	16308.7375
1679.90115	15999.7375
1683.16801	15772.6375
1686.43272	15616.4375
1689.69527	15470.9375
1692.95567	15293.3375
1696.2139	15188.1375
1699.46999	14988.1375
1702.72392	14944.8375
1705.97571	14977.6375
1709.22535	15051.7375
1712.47284	15088.9375
1715.71819	15114.6375
1718.96139	15071.8375
1722.20246	15054.5375
1725.44139	14972.2375
1728.67818	14909.5375
1731.91284	14822.5375
1735.14537	14767.2375
1738.37576	14731.5375
1741.60403	14647.9375
1744.83017	14573.1375
1748.05418	14514.5375
1751.27607	14448.8375
1754.49584	14384.1375
1757.71349	14340.9375
1760.92903	14270.7375
1764.14244	14216.9375
1767.35375	14247.1375
1770.56294	14220.3375
1773.77002	14217.6375
1776.97499	14256.0375
1780.17785	14290.5375
1783.37861	14281.3375
1786.57727	14296.3375
1789.77382	14252.9375
1792.96828	14259.9375
1796.16064	14258.5375
1799.3509	14213.4375
1802.53907	14205.7375
1805.72514	14147.8375
1808.90913	14106.5375
1812.09102	14088.5375
1815.27083	14103.0375
1818.44856	14077.9375
1821.6242	14063.3375
1824.79776	14035.5375
1827.96924	14037.1375
1831.13864	14048.6375
1834.30597	14046.8375
1837.47122	14059.2375
1840.6344	14042.5375
1843.7955	14018.8375
1846.95454	14021.5375
1850.11151	13994.4375
1853.26642	13974.6375
1856.41926	13975.7375
1859.57004	13954.8375
1862.71876	13940.3375
1865.86542	13946.0375
1869.01003	13913.8375
1872.15258	13910.2375
1875.29308	13866.1375
1878.43152	13853.2375
1881.56792	13848.6375
1884.70227	13785.5375
1887.83457	13777.8375
1890.96482	13770.2375
1894.09304	13723.4375
1897.21921	13712.3375
1900.34335	13691.0375
1903.46544	13670.4375
1906.58551	13671.7375
1909.70353	13644.3375
1912.81953	13638.1375
1915.93349	13601.1375
1919.04543	13566.6375
1922.15534	13555.6375
1925.26322	13513.5375
1928.36908	13481.3375
1931.47292	13417.6375
1934.57473	13409.4375
1937.67453	13386.8375
1940.77232	13332.8375
1943.86808	13315.2375
1946.96184	13300.6375
1950.05358	13247.8375
1953.14331	13188.9375
1956.23103	13146.7375
1959.31675	13127.4375
1962.40046	13085.5375
1965.48217	13057.6375
1968.56188	13018.3375
1971.63959	12986.1375
1974.7153	12957.8375
1977.78901	12917.7375
1980.86073	12843.4375
1983.93046	12816.9375
1986.99819	12750.9375
1990.06394	12746.1375
1993.1277	12721.6375
1996.18947	12692.8375
1999.24925	12633.5375
2002.30706	12588.5375
2005.36288	12561.9375
2008.41672	12514.8375
2011.46859	12509.0375
2014.51848	12454.0375
2017.56639	12407.9375
2020.61233	12380.6375
2023.6563	12353.8375
2026.6983	12326.5375
2029.73833	12280.0375
2032.7764	12208.4375
2035.8125	12228.3375
2038.84664	12199.1375
2041.87881	12196.2375
2044.90903	12165.7375
2047.93729	12123.4375
2050.96359	12133.9375
2053.98794	12097.3375
2057.01034	12109.6375
2060.03078	12071.8375
2063.04927	12076.0375
2066.06582	12047.5375
2069.08042	12031.4375
2072.09307	12058.1375
2075.10378	12042.6375
2078.11255	12072.8375
2081.11938	12050.6375
2084.12426	12039.8375
2087.12722	12080.1375
2090.12824	12041.0375
2093.12732	12037.1375
2096.12447	12043.5375
2099.11969	12036.9375
2102.11299	12028.1375
2105.10435	12035.6375
2108.09379	12045.6375
2111.08131	12078.0375
2114.0669	12062.4375
2117.05057	12086.2375
2120.03233	12089.9375
2123.01216	12086.7375
2125.99008	12126.2375
2128.96609	12122.8375
2131.94018	12108.2375
2134.91236	12108.8375
2137.88263	12110.1375
2140.851	12133.6375
2143.81746	12131.5375
2146.78201	12130.4375
2149.74466	12127.3375
2152.7054	12135.4375
2155.66425	12119.4375
2158.6212	12114.8375
2161.57625	12128.9375
2164.52941	12088.8375
2167.48067	12103.3375
2170.43004	12097.5375
2173.37752	12071.0375
2176.32311	12050.8375
2179.26681	12064.3375
2182.20863	12062.2375
2185.14856	12092.9375
2188.08661	12072.1375
2191.02278	12042.1375
2193.95707	12046.8375
2196.88948	12035.7375
2199.82001	12028.3375
2202.74867	12014.7375
2205.67545	12006.6375
2208.60037	11966.7375
2211.52341	11976.0375
2214.44458	11939.7375
2217.36388	11945.3375
2220.28132	11922.8375
2223.1969	11886.6375
2226.11061	11858.3375
2229.02246	11844.0375
2231.93245	11824.9375
2234.84058	11782.9375
2237.74686	11780.7375
2240.65128	11781.4375
2243.55385	11771.2375
2246.45456	11726.0375
2249.35343	11717.9375
2252.25044	11689.1375
2255.14561	11698.8375
2258.03893	11689.2375
2260.93041	11612.2375
2263.82004	11601.2375
2266.70783	11605.0375
2269.59378	11564.8375
2272.4779	11533.4375
2275.36017	11529.1375
2278.24061	11504.0375
2281.11922	11471.9375
2283.996	11477.2375
2286.87094	11461.9375
2289.74405	11425.0375
2292.61534	11391.4375
2295.4848	11382.5375
2298.35243	11385.1375
2301.21824	11359.5375
2304.08223	11381.7375
2306.94439	11357.6375
2309.80474	11340.2375
2312.66327	11341.7375
2315.51999	11321.2375
2318.37489	11312.0375
2321.22797	11281.8375
2324.07925	11300.4375
2326.92871	11235.2375
2329.77637	11238.7375
2332.62222	11211.3375
2335.46626	11212.4375
2338.3085	11198.4375
2341.14893	11189.9375
2343.98756	11182.2375
2346.8244	11173.6375
2349.65943	11181.8375
2352.49267	11140.3375
2355.32411	11161.8375
2358.15376	11142.9375
2360.98161	11147.0375
2363.80768	11132.3375
2366.63195	11120.6375
2369.45444	11115.8375
2372.27514	11098.5375
2375.09405	11117.7375
2377.91118	11077.7375
2380.72652	11052.2375
2383.54009	11008.4375
2386.35187	11021.0375
2389.16188	10979.5375
2391.97011	10977.9375
2394.77657	10954.2375
2397.58125	10954.7375
2400.38416	10934.7375
2403.18529	10900.9375
2405.98466	10904.9375
2408.78226	10916.3375
2411.57809	10872.0375
2414.37216	10843.0375
2417.16446	10867.0375
2419.955	10840.0375
2422.74378	10853.1375
2425.5308	10818.8375
2428.31606	10801.0375
2431.09956	10825.7375
2433.88131	10795.1375
2436.6613	10792.9375
2439.43954	10809.5375
2442.21603	10789.1375
2444.99077	10768.1375
2447.76377	10767.3375
2450.53501	10762.6375
2453.30451	10763.3375
2456.07226	10728.8375
2458.83827	10755.9375
2461.60254	10750.5375
2464.36507	10737.7375
2467.12586	10702.8375
2469.88492	10692.5375
2472.64224	10705.3375
2475.39782	10696.7375
2478.15167	10664.4375
2480.90379	10691.3375
2483.65417	10679.4375
2486.40283	10687.5375
2489.14976	10694.1375
2491.89497	10674.0375
2494.63845	10662.0375
2497.3802	10646.7375
2500.12024	10673.6375
2502.85855	10661.5375
2505.59514	10653.0375
2508.33002	10632.9375
2511.06318	10650.7375
2513.79462	10614.3375
2516.52435	10610.5375
2519.25237	10573.0375
2521.97867	10581.9375
2524.70327	10566.7375
2527.42616	10559.5375
2530.14734	10562.5375
2532.86681	10561.8375
2535.58458	10573.0375
2538.30065	10542.7375
2541.01501	10545.8375
2543.72768	10506.0375
2546.43864	10508.7375
2549.14791	10496.0375
2551.85548	10501.8375
2554.56136	10465.7375
2557.26554	10435.7375
2559.96803	10435.4375
2562.66883	10412.9375
2565.36794	10376.6375
2568.06536	10362.1375
2570.7611	10361.9375
2573.45514	10338.0375
2576.14751	10361.3375
2578.83819	10331.5375
2581.52719	10280.9375
2584.21451	10289.1375
2586.90015	10277.1375
2589.58411	10253.6375
2592.2664	10267.1375
2594.94701	10255.9375
2597.62594	10246.0375
2600.30321	10234.6375
2602.9788	10229.8375
2605.65273	10208.1375
2608.32498	10228.0375
2610.99557	10198.1375
2613.66449	10193.5375
2616.33175	10184.9375
2618.99734	10167.6375
2621.66128	10155.3375
2624.32355	10124.2375
2626.98416	10119.5375
2629.64311	10120.4375
2632.30041	10134.1375
2634.95605	10101.9375
2637.61004	10083.3375
2640.26238	10057.9375
2642.91306	10071.4375
2645.56209	10090.7375
2648.20948	10082.8375
2650.85521	10065.3375
2653.4993	10054.7375
2656.14175	10060.5375
2658.78255	10082.3375
2661.42171	10087.1375
2664.05923	10101.8375
2666.6951	10095.2375
2669.32934	10099.9375
2671.96194	10078.8375
2674.59291	10089.0375
2677.22224	10094.8375
2679.84993	10079.0375
2682.476	10053.8375
2685.10043	10106.8375
2687.72324	10097.1375
2690.34441	10073.4375
2692.96396	10067.7375
2695.58188	10082.9375
2698.19818	10059.6375
2700.81285	10061.3375
2703.4259	10021.2375
2706.03733	9945.0375
2708.64714	9977.2375
2711.25533	10047.3375
2713.86191	10075.8375
2716.46687	10095.5375
2719.07021	10103.7375
2721.67194	10100.1375
2724.27206	10123.7375
2726.87057	10116.0375
2729.46747	10104.5375
2732.06276	10101.9375
2734.65644	10121.4375
2737.24852	10120.1375
2739.83899	10123.0375
2742.42786	10112.2375
2745.01513	10098.5375
2747.60079	10085.3375
2750.18486	10061.3375
2752.76733	10069.2375
2755.3482	10028.4375
2757.92747	10036.5375
2760.50515	10009.1375
2763.08123	10009.8375
2765.65573	9979.9375
2768.22863	9980.2375
2770.79994	9961.5375
2773.36967	9987.5375
2775.9378	9966.6375
2778.50435	9923.4375
2781.06932	9954.2375
2783.6327	9946.7375
2786.1945	9942.8375
2788.75471	9919.9375
2791.31335	9912.4375
2793.87041	9910.1375
2796.42589	9873.2375
2798.97979	9841.4375
2801.53212	9826.0375
2804.08288	9822.2375
2806.63206	9804.0375
2809.17967	9789.7375
2811.72571	9767.7375
2814.27018	9742.7375
2816.81308	9712.8375
2819.35442	9730.0375
2821.89419	9692.1375
2824.43239	9681.1375
2826.96904	9670.3375
2829.50412	9662.6375
2832.03763	9613.3375
2834.56959	9616.4375
2837.1	9595.6375
2839.62884	9619.9375
2842.15613	9605.4375
2844.68186	9622.3375
2847.20604	9589.0375
2849.72867	9580.6375
2852.24974	9579.2375
2854.76927	9544.7375
2857.28724	9506.7375
2859.80367	9500.0375
2862.31855	9479.4375
2864.83189	9497.3375
2867.34368	9489.1375
2869.85393	9481.2375
2872.36264	9515.6375
2874.8698	9490.2375
2877.37543	9481.3375
2879.87952	9487.9375
2882.38207	9483.7375
2884.88308	9470.4375
2887.38256	9477.9375
2889.88051	9462.0375
2892.37692	9481.6375
2894.8718	9469.2375
2897.36515	9474.9375
2899.85698	9476.8375
2902.34727	9479.1375
2904.83604	9510.4375
2907.32328	9485.2375
2909.809	9477.0375
2912.29319	9511.1375
2914.77587	9509.0375
2917.25702	9492.6375
2919.73665	9492.4375
2922.21476	9498.6375
2924.69136	9490.7375
2927.16644	9474.2375
2929.64	9461.7375
2932.11205	9420.8375
2934.58258	9430.2375
2937.05161	9434.2375
2939.51912	9429.0375
2941.98513	9435.1375
2944.44962	9417.1375
2946.91261	9377.8375
2949.37409	9383.8375
2951.83407	9405.2375
2954.29254	9386.8375
2956.74951	9386.5375
2959.20498	9366.1375
2961.65895	9381.4375
2964.11142	9365.0375
2966.56239	9359.7375
2969.01186	9306.6375
2971.45984	9309.1375
2973.90632	9320.2375
2976.35131	9319.7375
2978.7948	9276.6375
2981.23681	9265.5375
2983.67732	9264.7375
2986.11635	9242.5375
2988.55388	9202.4375
2990.98993	9196.3375
2993.4245	9184.1375
2995.85758	9160.1375
2998.28917	9145.2375
3000.71928	9141.4375
3003.14791	9106.9375
3005.57506	9076.6375
3008.00073	9069.7375
3010.42493	9051.5375
3012.84764	9045.3375
3015.26888	9032.4375
3017.68865	8983.4375
3020.10694	8980.9375
3022.52376	8968.2375
3024.9391	8960.5375
3027.35298	8934.3375
3029.76539	8952.2375
3032.17632	8958.3375
3034.5858	8921.4375
3036.9938	8936.7375
3039.40034	8923.9375
3041.80542	8882.2375
3044.20903	8878.1375
3046.61118	8873.3375
3049.01187	8840.8375
3051.4111	8854.8375
3053.80888	8813.5375
3056.20519	8819.8375
3058.60005	8803.7375
3060.99345	8775.0375
3063.3854	8748.3375
3065.7759	8738.6375
3068.16494	8722.6375
3070.55254	8711.7375
3072.93868	8659.3375
3075.32338	8625.5375
3077.70662	8631.6375
3080.08842	8599.9375
3082.46878	8604.2375
3084.84769	8554.9375
3087.22515	8570.4375
3089.60118	8565.2375
3091.97576	8576.8375
3094.3489	8565.2375
3096.72061	8585.8375
3099.09087	8576.2375
3101.4597	8567.6375
3103.82709	8559.7375
3106.19305	8558.0375
3108.55757	8550.4375
3110.92066	8522.5375
3113.28232	8507.7375
3115.64255	8525.7375
3118.00134	8492.8375
3120.35871	8492.4375
3122.71466	8443.0375
3125.06917	8429.9375
3127.42226	8410.5375
3129.77393	8407.5375
3132.12417	8401.2375
3134.47299	8387.2375
3136.82039	8404.1375
3139.16636	8367.8375
3141.51092	8381.0375
3143.85406	8391.2375
3146.19579	8411.0375
3148.53609	8401.5375
3150.87499	8408.4375
3153.21246	8397.8375
3155.54853	8432.4375
3157.88318	8386.6375
3160.21642	8410.9375
3162.54826	8405.3375
3164.87868	8428.4375
3167.2077	8398.3375
3169.5353	8398.4375
3171.86151	8387.1375
3174.18631	8377.8375
3176.5097	8346.3375
3178.83169	8348.6375
3181.15228	8336.8375
3183.47147	8326.1375
3185.78926	8335.0375
3188.10565	8301.3375
3190.42065	8295.8375
3192.73424	8289.5375
3195.04645	8267.2375
3197.35725	8286.4375
3199.66667	8273.8375
3201.97469	8286.6375
3204.28132	8300.7375
3206.58656	8279.1375
3208.8904	8302.8375
3211.19287	8300.4375
3213.49394	8298.8375
3215.79363	8300.4375
3218.09193	8282.0375
3220.38884	8251.3375
3222.68438	8249.5375
3224.97853	8237.6375
3227.2713	8240.5375
3229.56269	8247.8375
3231.8527	8269.1375
3234.14133	8229.1375
3236.42858	8226.0375
3238.71446	8219.0375
3240.99896	8180.5375
3243.28209	8187.6375
3245.56384	8175.6375
3247.84423	8167.8375
3250.12324	8171.0375
3252.40088	8139.6375
3254.67715	8125.3375
3256.95205	8126.4375
3259.22558	8134.2375
3261.49775	8090.0375
3263.76855	8127.4375
3266.03799	8080.2375
3268.30606	8091.3375
3270.57277	8079.3375
3272.83812	8055.9375
3275.10211	8039.4375
3277.36474	8011.3375
3279.62601	7998.9375
3281.88593	7975.5375
3284.14448	7987.7375
3286.40168	8017.4375
3288.65753	8002.6375
3290.91202	7983.1375
3293.16516	7957.7375
3295.41695	7932.0375
3297.66738	7888.7375
3299.91647	7845.9375
3302.16421	7808.4375
3304.4106	7778.6375
3306.65564	7734.1375
3308.89933	7681.3375
3311.14169	7621.4375
3313.38269	7536.0375
3315.62236	7506.4375
3317.86068	7429.6375
3320.09766	7385.3375
3322.3333	7309.3375
3324.5676	7284.9375
3326.80056	7145.7375
3329.03219	7144.5375
3331.26248	2.5375
3333.49143	-1.1625
3335.71905	-0.6625
