Data from AgNPs_FTO_APTES_UA_50uM_CRN_100uM_R6G_10uM_NaF_0.1M_Addition_RamanShift__17__15-35-45-037.txt Node

Date: Mon Feb 21 15:35:45 GMT 2022
User: TCL
Spectrometer: QEP01345
Trigger mode: 4
Integration Time (sec): 7.000000E0
Scans to average: 10
Electric dark correction enabled: true
Nonlinearity correction enabled: false
Boxcar width: 0
XAxis mode: Raman Shifts
Number of Pixels in Spectrum: 1044
>>>>>Begin Spectral Data<<<<<
46.04893	0.3
50.45542	-0.4
54.85868	-0.6
59.25871	-1.5
63.6555	49.2
68.04907	55.2
72.43941	54.7
76.82654	61.1
81.21044	64.3
85.59113	67.3
89.96862	67.5
94.34289	75.6
98.71396	72.2
103.08183	76.1
107.4465	78.7
111.80798	77
116.16626	78.1
120.52136	80.3
124.87327	87.3
129.222	84.5
133.56755	89.5
137.90993	93.9
142.24913	102.3
146.58517	110.4
150.91804	125.6
155.24774	149.2
159.57429	176.9
163.89768	221.8
168.21792	298.9
172.53501	398.5
176.84895	555.2
181.15975	777.1
185.46741	1097.3
189.77193	1504.9
194.07331	2022.7
198.37157	2608.8
202.6667	3225.9
206.9587	3842.3
211.24758	4445.3
215.53334	5042.2
219.81599	5657.1
224.09553	6374.6
228.37195	7130.3
232.64527	8027.1
236.91549	8941.6
241.18261	9850.6
245.44663	10670.7
249.70755	11406.9
253.96539	12037.8
258.22014	12535.6
262.4718	12933.1
266.72039	13264.1
270.96589	13425.3
275.20832	13423.6
279.44768	13288.2
283.68397	13107.4
287.91719	12961.1
292.14735	12852.1
296.37445	12851.9
300.59849	12909.6
304.81948	13027.3
309.03742	13054.7
313.25231	12965.2
317.46415	12679.5
321.67296	12332.4
325.87872	12051.5
330.08145	11904.7
334.28114	11925
338.47781	12039.5
342.67145	12221.4
346.86207	12434.2
351.04966	12731.9
355.23424	13065.4
359.4158	13348.7
363.59435	13556.3
367.76989	13691.4
371.94243	13833.4
376.11196	13864.3
380.27849	13946.2
384.44203	13967.6
388.60257	14027.5
392.76012	14083.1
396.91468	14165.9
401.06626	14367
405.21485	14506.6
409.36047	14400.3
413.50311	14113.9
417.64277	13831.9
421.77947	13692.5
425.9132	13659
430.04396	13682.4
434.17176	13753.4
438.2966	13893.6
442.41849	14141.9
446.53742	14419.5
450.6534	14733.5
454.76644	14968.9
458.87653	15070.5
462.98368	15078.1
467.08789	14967.9
471.18916	14816
475.2875	14611.5
479.38291	14484.6
483.4754	14371
487.56496	14207.1
491.6516	14131.2
495.73531	14048.1
499.81612	14088.9
503.89401	14191.8
507.96899	14284.3
512.04106	14297.1
516.11023	14319.8
520.1765	14316.1
524.23987	14284.4
528.30034	14236.6
532.35792	14175.8
536.41261	14071.7
540.46441	13949.8
544.51333	13891.6
548.55936	13917.8
552.60252	14078.6
556.64279	14291.2
560.6802	14377.7
564.71473	14392.2
568.7464	14510.6
572.7752	14700
576.80114	14757.4
580.82422	14775.6
584.84444	14892.9
588.86181	15041.2
592.87633	15222.7
596.888	15389.4
600.89682	15506.6
604.9028	16146.7
608.90594	17931.3
612.90624	19931.4
616.90371	18949.7
620.89834	15896.1
624.89015	14566.9
628.87913	14398.6
632.86528	14458.5
636.84862	14445
640.82913	14316.4
644.80683	14028.2
648.78172	13751.5
652.75379	13700.6
656.72306	13898.8
660.68952	14139.8
664.65319	14138
668.61405	13904.5
672.57211	13935.4
676.52738	14023.1
680.47986	14083.7
684.42955	13978.7
688.37646	13861.2
692.32058	13796.5
696.26192	13824.1
700.20048	13895.3
704.13626	13956.5
708.06928	13888.8
711.99952	13775.8
715.927	13740.9
719.85171	13781.5
723.77365	13787.4
727.69284	13758.6
731.60928	13704.2
735.52295	13727.5
739.43388	13707.3
743.34206	13725.2
747.24749	13774.5
751.15017	13786.1
755.05012	13858.1
758.94733	14153.5
762.8418	14769.6
766.73354	15891.4
770.62254	17149.5
774.50882	17760.1
778.39237	17209.7
782.27321	15939.8
786.15132	14806.5
790.02671	14100.6
793.89938	13765.5
797.76935	13592.6
801.6366	13551.4
805.50115	13473
809.36299	13408.3
813.22213	13314.1
817.07857	13255.1
820.93231	13223.1
824.78336	13172.5
828.63172	13187.2
832.47738	13180.7
836.32036	13192.3
840.16066	13216.1
843.99827	13276.6
847.8332	13242.1
851.66546	13187.4
855.49504	13174.1
859.32195	13228.3
863.1462	13222.4
866.96777	13259.5
870.78668	13231.2
874.60293	13216.8
878.41652	13237.1
882.22745	13285.5
886.03573	13323.9
889.84136	13306.3
893.64433	13210.3
897.44466	13192.1
901.24235	13125.7
905.0374	13041.9
908.8298	12989.7
912.61957	12972.7
916.40671	13021.8
920.19121	13103.1
923.97308	13235.6
927.75233	13310.4
931.52895	13339
935.30295	13259.1
939.07433	13066.7
942.84309	12868.2
946.60924	12755.5
950.37278	12724.5
954.13371	12674.4
957.89203	12594.3
961.64774	12557.3
965.40086	12531.8
969.15137	12465.1
972.89929	12451.7
976.64461	12417.1
980.38733	12427.3
984.12747	12468.4
987.86502	12538.3
991.59999	12639.8
995.33237	12839.6
999.06217	13129.8
1002.78939	13401.2
1006.51404	13566.8
1010.23611	13637.8
1013.95561	13740.1
1017.67255	13751.6
1021.38692	13698.1
1025.09872	13611.1
1028.80796	13632.5
1032.51465	13906
1036.21877	14172.9
1039.92035	14278.8
1043.61937	14124.8
1047.31584	13889.1
1051.00976	13651.8
1054.70114	13523.2
1058.38998	13499.6
1062.07627	13519.3
1065.76003	13539.7
1069.44126	13522.6
1073.11995	13583.9
1076.79611	13698.6
1080.46974	13770
1084.14085	13926.9
1087.80943	14042.8
1091.47549	14137.1
1095.13903	14077.4
1098.80005	13949.8
1102.45857	13715.2
1106.11456	13651
1109.76805	13666.9
1113.41903	13758
1117.06751	13912
1120.71348	14118.3
1124.35696	14339.9
1127.99793	14538.3
1131.63641	14628
1135.2724	14487.7
1138.90589	14271.8
1142.5369	14074.5
1146.16542	14000.3
1149.79145	13868.7
1153.415	13843
1157.03607	13921.4
1160.65467	14163.6
1164.27079	14556.3
1167.88443	15131.4
1171.49561	15858.2
1175.10432	16890.1
1178.71056	18227.8
1182.31434	19513
1185.91565	20139.3
1189.51451	20045.1
1193.11091	19345.5
1196.70485	18452.6
1200.29634	17652.9
1203.88538	16995.9
1207.47197	16408.6
1211.05612	15887.8
1214.63782	15543.2
1218.21708	15396.3
1221.79391	15389.1
1225.36829	15451.2
1228.94024	15401.6
1232.50976	15179.2
1236.07685	14968.7
1239.6415	14914.7
1243.20374	14901.2
1246.76355	14992.6
1250.32093	15140
1253.8759	15351.4
1257.42845	15668.2
1260.97859	15964.1
1264.52631	16347.4
1268.07163	16717.9
1271.61453	17159.7
1275.15503	17583.6
1278.69312	17968.8
1282.22882	18269.6
1285.76211	18548.3
1289.29301	18818
1292.82151	19231.9
1296.34761	19810.7
1299.87133	20657.1
1303.39266	21810.5
1306.9116	23318.6
1310.42815	24804
1313.94233	25677.6
1317.45412	25499.8
1320.96354	24536.5
1324.47058	23508.4
1327.97525	22478
1331.47754	21874
1334.97747	21511.4
1338.47502	21512.6
1341.97022	21661.5
1345.46305	22015.5
1348.95352	22497.8
1352.44163	23169.2
1355.92738	24264.9
1359.41078	25786.6
1362.89183	27139.3
1366.37053	26608
1369.84688	23994.5
1373.32088	21138.8
1376.79254	19190.4
1380.26186	18228.9
1383.72883	17821.8
1387.19347	17530.3
1390.65578	17176.2
1394.11575	16909.6
1397.57339	16894.7
1401.0287	17030.3
1404.48168	17202.1
1407.93234	17236.1
1411.38068	17161
1414.82669	16983.3
1418.27039	16695.3
1421.71177	16393.1
1425.15083	16052.3
1428.58758	15838.7
1432.02203	15853.5
1435.45416	16031.1
1438.88399	16254.2
1442.31151	16452.5
1445.73673	16558.8
1449.15965	16712.8
1452.58027	16805
1455.9986	16834.1
1459.41463	16932.1
1462.82837	17148.1
1466.23982	17470.2
1469.64898	17710.7
1473.05586	17920
1476.46045	18098.9
1479.86276	18113
1483.26279	18043.9
1486.66054	18063.6
1490.05602	18201.3
1493.44922	18452.5
1496.84016	18884.2
1500.22882	19653.6
1503.61521	20731.7
1506.99934	22065.7
1510.38121	23144
1513.76081	23420.2
1517.13816	22608.8
1520.51324	21121.7
1523.88607	19690.1
1527.25665	18804.2
1530.62498	18290.8
1533.99105	17987.2
1537.35488	17755.5
1540.71647	17609.3
1544.07581	17432.9
1547.4329	17257
1550.78776	17109.1
1554.14038	17035.7
1557.49077	17061.4
1560.83892	17141.4
1564.18484	17250.5
1567.52853	17410.1
1570.86999	17603
1574.20922	17743.8
1577.54624	17755.8
1580.88103	17433.7
1584.2136	16977.7
1587.54395	16914.3
1590.87208	17295.3
1594.19801	18100.1
1597.52172	19113
1600.84321	19585.5
1604.16251	19129.8
1607.47959	18182.5
1610.79447	17086.1
1614.10715	16040.9
1617.41763	15114.6
1620.7259	14486.3
1624.03199	14115.4
1627.33587	14086.7
1630.63757	14308.2
1633.93707	14860.6
1637.23439	15763.7
1640.52951	17041.7
1643.82246	18595.8
1647.11321	20033
1650.40179	20635.8
1653.68819	19765.8
1656.97241	17790
1660.25446	15687.2
1663.53433	14173.6
1666.81203	13225.7
1670.08756	12631.1
1673.36092	12305.6
1676.63211	12063.3
1679.90115	11908.6
1683.16801	11742.3
1686.43272	11672.5
1689.69527	11536.6
1692.95567	11395.3
1696.2139	11277.4
1699.46999	11158.2
1702.72392	11094.4
1705.97571	11157.7
1709.22535	11214.7
1712.47284	11267.9
1715.71819	11291.6
1718.96139	11283
1722.20246	11269.7
1725.44139	11223.7
1728.67818	11173.1
1731.91284	11141.1
1735.14537	11065.3
1738.37576	11059.7
1741.60403	11014.5
1744.83017	10966.6
1748.05418	10940
1751.27607	10923.3
1754.49584	10889.6
1757.71349	10824.5
1760.92903	10773.8
1764.14244	10752.1
1767.35375	10708.7
1770.56294	10667.2
1773.77002	10635.8
1776.97499	10684.5
1780.17785	10723.7
1783.37861	10716.7
1786.57727	10697.7
1789.77382	10710
1792.96828	10692.2
1796.16064	10648.7
1799.3509	10636.1
1802.53907	10595.4
1805.72514	10573.4
1808.90913	10550.3
1812.09102	10554.1
1815.27083	10545.2
1818.44856	10520.9
1821.6242	10501.4
1824.79776	10482.4
1827.96924	10475.5
1831.13864	10458.6
1834.30597	10460.1
1837.47122	10421.1
1840.6344	10435.7
1843.7955	10436.8
1846.95454	10416.7
1850.11151	10419.3
1853.26642	10405.2
1856.41926	10395.4
1859.57004	10371.7
1862.71876	10391.2
1865.86542	10382.2
1869.01003	10342.1
1872.15258	10321.9
1875.29308	10348
1878.43152	10317.1
1881.56792	10324.8
1884.70227	10328.6
1887.83457	10293.3
1890.96482	10279.6
1894.09304	10266.2
1897.21921	10264.1
1900.34335	10244.9
1903.46544	10248
1906.58551	10232.8
1909.70353	10221
1912.81953	10200.6
1915.93349	10227.7
1919.04543	10184.3
1922.15534	10184.9
1925.26322	10140.5
1928.36908	10130.7
1931.47292	10110.2
1934.57473	10092.2
1937.67453	10051.5
1940.77232	10047.1
1943.86808	10000.9
1946.96184	9984.2
1950.05358	9941.3
1953.14331	9926.7
1956.23103	9900.6
1959.31675	9864.4
1962.40046	9861.6
1965.48217	9822.2
1968.56188	9827
1971.63959	9780.2
1974.7153	9770.4
1977.78901	9750.4
1980.86073	9699.1
1983.93046	9671.3
1986.99819	9630.2
1990.06394	9623.4
1993.1277	9601.1
1996.18947	9549.3
1999.24925	9514.7
2002.30706	9496.1
2005.36288	9474.5
2008.41672	9440
2011.46859	9402.4
2014.51848	9394.7
2017.56639	9390.1
2020.61233	9337.3
2023.6563	9317.7
2026.6983	9316.3
2029.73833	9288.5
2032.7764	9249.5
2035.8125	9262.6
2038.84664	9236.8
2041.87881	9231.1
2044.90903	9196.3
2047.93729	9192
2050.96359	9194.5
2053.98794	9189.2
2057.01034	9164.9
2060.03078	9168.2
2063.04927	9154.4
2066.06582	9148.4
2069.08042	9135.9
2072.09307	9137.5
2075.10378	9114.4
2078.11255	9114.2
2081.11938	9125
2084.12426	9111.9
2087.12722	9105.5
2090.12824	9100.4
2093.12732	9092.2
2096.12447	9108.9
2099.11969	9110.7
2102.11299	9097.3
2105.10435	9101.1
2108.09379	9104
2111.08131	9109.3
2114.0669	9112.6
2117.05057	9124
2120.03233	9127.8
2123.01216	9152.6
2125.99008	9180.1
2128.96609	9157.7
2131.94018	9172.5
2134.91236	9166.8
2137.88263	9188.6
2140.851	9182.8
2143.81746	9213.4
2146.78201	9197.1
2149.74466	9207.8
2152.7054	9189.9
2155.66425	9181.9
2158.6212	9198.1
2161.57625	9180
2164.52941	9174.8
2167.48067	9150.1
2170.43004	9173.2
2173.37752	9182.4
2176.32311	9162.4
2179.26681	9161.1
2182.20863	9163
2185.14856	9174.6
2188.08661	9182.6
2191.02278	9169.9
2193.95707	9166.2
2196.88948	9146.2
2199.82001	9179.2
2202.74867	9177.2
2205.67545	9188
2208.60037	9151.3
2211.52341	9133.2
2214.44458	9130.3
2217.36388	9127.8
2220.28132	9108.2
2223.1969	9072.9
2226.11061	9062.1
2229.02246	9050.2
2231.93245	9042.5
2234.84058	9020.8
2237.74686	8985.9
2240.65128	9000.7
2243.55385	8998.9
2246.45456	8965.9
2249.35343	8954.8
2252.25044	8940.8
2255.14561	8941.5
2258.03893	8920.3
2260.93041	8916.9
2263.82004	8911.9
2266.70783	8867.4
2269.59378	8838.2
2272.4779	8828.3
2275.36017	8829.1
2278.24061	8783.1
2281.11922	8784.6
2283.996	8759.7
2286.87094	8755.6
2289.74405	8748
2292.61534	8747
2295.4848	8727.1
2298.35243	8742.6
2301.21824	8724
2304.08223	8729.7
2306.94439	8725.9
2309.80474	8729.4
2312.66327	8737.8
2315.51999	8714.9
2318.37489	8720
2321.22797	8705.8
2324.07925	8711.8
2326.92871	8690.3
2329.77637	8697.6
2332.62222	8669
2335.46626	8661
2338.3085	8669.1
2341.14893	8654.3
2343.98756	8673.1
2346.8244	8660.4
2349.65943	8652.3
2352.49267	8658.8
2355.32411	8647.7
2358.15376	8642.2
2360.98161	8619.1
2363.80768	8635.6
2366.63195	8621.5
2369.45444	8605.7
2372.27514	8599.1
2375.09405	8567.1
2377.91118	8570.2
2380.72652	8558.4
2383.54009	8524.5
2386.35187	8532.1
2389.16188	8495.9
2391.97011	8493
2394.77657	8478.4
2397.58125	8460.1
2400.38416	8449.3
2403.18529	8436.7
2405.98466	8410.5
2408.78226	8403.7
2411.57809	8351.3
2414.37216	8366.8
2417.16446	8344.4
2419.955	8344.4
2422.74378	8346.7
2425.5308	8330.1
2428.31606	8348.1
2431.09956	8336.3
2433.88131	8322.6
2436.6613	8309.2
2439.43954	8300.7
2442.21603	8312.7
2444.99077	8314.6
2447.76377	8326.9
2450.53501	8312.4
2453.30451	8312.7
2456.07226	8290.9
2458.83827	8270.3
2461.60254	8283.7
2464.36507	8279.4
2467.12586	8282.5
2469.88492	8296
2472.64224	8316.1
2475.39782	8287
2478.15167	8287.5
2480.90379	8283.2
2483.65417	8300.8
2486.40283	8292.4
2489.14976	8312.2
2491.89497	8280.6
2494.63845	8298.5
2497.3802	8259.6
2500.12024	8279.7
2502.85855	8287.3
2505.59514	8263.7
2508.33002	8265.6
2511.06318	8236.7
2513.79462	8221.3
2516.52435	8216.6
2519.25237	8196.5
2521.97867	8172.7
2524.70327	8190.2
2527.42616	8167.8
2530.14734	8188.2
2532.86681	8171.3
2535.58458	8170.1
2538.30065	8191.3
2541.01501	8174.9
2543.72768	8157.8
2546.43864	8125.9
2549.14791	8131.3
2551.85548	8114.1
2554.56136	8081.6
2557.26554	8079.8
2559.96803	8072.2
2562.66883	8082.6
2565.36794	8093.4
2568.06536	8079.7
2570.7611	8048.3
2573.45514	8040.2
2576.14751	8032.5
2578.83819	8014.1
2581.52719	8026.1
2584.21451	7993.4
2586.90015	7988.8
2589.58411	7992.8
2592.2664	7969.3
2594.94701	7972.3
2597.62594	7972.3
2600.30321	7958.9
2602.9788	7957.3
2605.65273	7966.1
2608.32498	7955.1
2610.99557	7931
2613.66449	7957.3
2616.33175	7929.8
2618.99734	7941.3
2621.66128	7937.3
2624.32355	7955.1
2626.98416	7926.9
2629.64311	7927.2
2632.30041	7917.5
2634.95605	7917.9
2637.61004	7880.3
2640.26238	7862.6
2642.91306	7870.3
2645.56209	7875.4
2648.20948	7862.6
2650.85521	7840.2
2653.4993	7862.8
2656.14175	7844.5
2658.78255	7853.4
2661.42171	7850
2664.05923	7865
2666.6951	7867.3
2669.32934	7883.4
2671.96194	7889
2674.59291	7872.2
2677.22224	7872.3
2679.84993	7866.7
2682.476	7847.8
2685.10043	7835
2687.72324	7827.8
2690.34441	7869.2
2692.96396	7818.7
2695.58188	7846.2
2698.19818	7833.8
2700.81285	7823.3
2703.4259	7784.6
2706.03733	7729.2
2708.64714	7777.7
2711.25533	7779.5
2713.86191	7834.4
2716.46687	7820.7
2719.07021	7844.9
2721.67194	7827.8
2724.27206	7821.8
2726.87057	7847.9
2729.46747	7845.2
2732.06276	7867.5
2734.65644	7856.4
2737.24852	7841.4
2739.83899	7832.9
2742.42786	7844.6
2745.01513	7822.3
2747.60079	7812
2750.18486	7804.9
2752.76733	7814.3
2755.3482	7805.2
2757.92747	7781.4
2760.50515	7801
2763.08123	7796.2
2765.65573	7787.6
2768.22863	7772.9
2770.79994	7732.7
2773.36967	7747
2775.9378	7724.6
2778.50435	7724.8
2781.06932	7734.8
2783.6327	7762.1
2786.1945	7742
2788.75471	7723.6
2791.31335	7713.8
2793.87041	7694.5
2796.42589	7700.6
2798.97979	7693.1
2801.53212	7672.9
2804.08288	7634.2
2806.63206	7649
2809.17967	7625
2811.72571	7615.7
2814.27018	7591.9
2816.81308	7593.1
2819.35442	7601.6
2821.89419	7580.6
2824.43239	7606.4
2826.96904	7567.5
2829.50412	7582.5
2832.03763	7557.5
2834.56959	7564.6
2837.1	7546.5
2839.62884	7568
2842.15613	7540.9
2844.68186	7587.3
2847.20604	7576.1
2849.72867	7563
2852.24974	7552.7
2854.76927	7552.1
2857.28724	7548.1
2859.80367	7546.4
2862.31855	7513
2864.83189	7522.7
2867.34368	7493
2869.85393	7529.6
2872.36264	7522.7
2874.8698	7526.9
2877.37543	7532.4
2879.87952	7532.9
2882.38207	7530.2
2884.88308	7519.1
2887.38256	7507.5
2889.88051	7524.8
2892.37692	7535.8
2894.8718	7517.8
2897.36515	7554.2
2899.85698	7561.6
2902.34727	7571.2
2904.83604	7597.4
2907.32328	7595.7
2909.809	7606.4
2912.29319	7618.3
2914.77587	7641.7
2917.25702	7637.8
2919.73665	7610.1
2922.21476	7607.3
2924.69136	7601.1
2927.16644	7601.9
2929.64	7571.3
2932.11205	7575.8
2934.58258	7572.9
2937.05161	7579.3
2939.51912	7565.8
2941.98513	7568.9
2944.44962	7549.2
2946.91261	7538
2949.37409	7548
2951.83407	7545.4
2954.29254	7526.2
2956.74951	7514.6
2959.20498	7507.8
2961.65895	7496.5
2964.11142	7484.8
2966.56239	7458.8
2969.01186	7455.9
2971.45984	7434
2973.90632	7445.2
2976.35131	7401.4
2978.7948	7409.2
2981.23681	7391.6
2983.67732	7390.5
2986.11635	7349.5
2988.55388	7344.8
2990.98993	7353.1
2993.4245	7325.3
2995.85758	7304.6
2998.28917	7296.3
3000.71928	7307.6
3003.14791	7256.4
3005.57506	7274.9
3008.00073	7255.1
3010.42493	7251
3012.84764	7256.5
3015.26888	7225.9
3017.68865	7216.4
3020.10694	7224.2
3022.52376	7205.1
3024.9391	7194.9
3027.35298	7187.8
3029.76539	7184.8
3032.17632	7150.4
3034.5858	7159.4
3036.9938	7152.4
3039.40034	7162
3041.80542	7132.1
3044.20903	7136.6
3046.61118	7138.5
3049.01187	7120.6
3051.4111	7133.8
3053.80888	7122.3
3056.20519	7087.7
3058.60005	7089
3060.99345	7074.6
3063.3854	7070.1
3065.7759	7040.7
3068.16494	7027.7
3070.55254	7022.4
3072.93868	6994.1
3075.32338	6987.7
3077.70662	6988.7
3080.08842	6962.4
3082.46878	6952.9
3084.84769	6947
3087.22515	6938.9
3089.60118	6978
3091.97576	6956.8
3094.3489	6969.8
3096.72061	6951.4
3099.09087	6974.9
3101.4597	6964.4
3103.82709	6952.4
3106.19305	6964
3108.55757	6965.3
3110.92066	6942.9
3113.28232	6935.5
3115.64255	6929.4
3118.00134	6907.9
3120.35871	6918.5
3122.71466	6915.4
3125.06917	6922.9
3127.42226	6887.2
3129.77393	6925.6
3132.12417	6900.5
3134.47299	6896.2
3136.82039	6906.7
3139.16636	6902.2
3141.51092	6875.3
3143.85406	6882.9
3146.19579	6886.4
3148.53609	6900.6
3150.87499	6891.9
3153.21246	6912.6
3155.54853	6918.4
3157.88318	6915.7
3160.21642	6937.4
3162.54826	6931.3
3164.87868	6950.7
3167.2077	6948.7
3169.5353	6955.3
3171.86151	6953.6
3174.18631	6953.2
3176.5097	6958.6
3178.83169	6949.4
3181.15228	6934.6
3183.47147	6911.7
3185.78926	6942.6
3188.10565	6939.1
3190.42065	6936.9
3192.73424	6945.5
3195.04645	6937.1
3197.35725	6947.7
3199.66667	6920.9
3201.97469	6928.6
3204.28132	6911.5
3206.58656	6938.8
3208.8904	6941.8
3211.19287	6957.7
3213.49394	6971.5
3215.79363	6966.9
3218.09193	6996.3
3220.38884	6953
3222.68438	6955.4
3224.97853	6973.5
3227.2713	6959.3
3229.56269	6942
3231.8527	6949.4
3234.14133	6930.1
3236.42858	6946.4
3238.71446	6926.5
3240.99896	6891.1
3243.28209	6907.6
3245.56384	6911.2
3247.84423	6894.6
3250.12324	6902.8
3252.40088	6897.2
3254.67715	6883.8
3256.95205	6906
3259.22558	6895.1
3261.49775	6903
3263.76855	6892.9
3266.03799	6886.7
3268.30606	6868.2
3270.57277	6871.8
3272.83812	6845.1
3275.10211	6855.3
3277.36474	6829.3
3279.62601	6850.2
3281.88593	6834.4
3284.14448	6826.7
3286.40168	6849.5
3288.65753	6822.5
3290.91202	6830
3293.16516	6818.5
3295.41695	6812.9
3297.66738	6773.1
3299.91647	6735.3
3302.16421	6710.1
3304.4106	6673.1
3306.65564	6621.8
3308.89933	6596.3
3311.14169	6535.4
3313.38269	6493.5
3315.62236	6428
3317.86068	6388.6
3320.09766	6348.2
3322.3333	6322.4
3324.5676	6280.8
3326.80056	6172.5
3329.03219	6157
3331.26248	2.8
3333.49143	-1.1
3335.71905	0.3
