Data from AgNPs_FTO_APTES_UA_50uM_CRN_10uM_R6G_10uM_NaF_0.1M_Addition_RamanShift__13__13-28-34-876.txt Node

Date: Mon Feb 21 13:28:34 GMT 2022
User: TCL
Spectrometer: QEP01345
Trigger mode: 4
Integration Time (sec): 7.000000E0
Scans to average: 10
Electric dark correction enabled: true
Nonlinearity correction enabled: false
Boxcar width: 0
XAxis mode: Raman Shifts
Number of Pixels in Spectrum: 1044
>>>>>Begin Spectral Data<<<<<
46.04893	-0.0625
50.45542	-1.7625
54.85868	-0.3625
59.25871	-1.1625
63.6555	62.5375
68.04907	64.6375
72.43941	66.4375
76.82654	73.5375
81.21044	73.9375
85.59113	79.0375
89.96862	78.0375
94.34289	83.6375
98.71396	85.2375
103.08183	94.3375
107.4465	93.6375
111.80798	89.4375
116.16626	91.0375
120.52136	96.9375
124.87327	102.2375
129.222	105.9375
133.56755	110.8375
137.90993	115.5375
142.24913	129.6375
146.58517	142.6375
150.91804	159.6375
155.24774	189.0375
159.57429	235.6375
163.89768	297.6375
168.21792	398.2375
172.53501	540.6375
176.84895	752.1375
181.15975	1043.4375
185.46741	1478.4375
189.77193	2028.1375
194.07331	2712.7375
198.37157	3504.0375
202.6667	4328.4375
206.9587	5148.6375
211.24758	5956.9375
215.53334	6721.9375
219.81599	7581.0375
224.09553	8500.3375
228.37195	9532.7375
232.64527	10629.0375
236.91549	11858.4375
241.18261	13111.7375
245.44663	14262.6375
249.70755	15317.1375
253.96539	16148.1375
258.22014	16865.0375
262.4718	17441.5375
266.72039	17781.8375
270.96589	17953.4375
275.20832	17884.3375
279.44768	17748.1375
283.68397	17493.5375
287.91719	17326.8375
292.14735	17153.1375
296.37445	17082.1375
300.59849	17046.4375
304.81948	17057.7375
309.03742	17050.2375
313.25231	16978.5375
317.46415	16737.0375
321.67296	16422.9375
325.87872	16194.1375
330.08145	16130.5375
334.28114	16145.6375
338.47781	16239.6375
342.67145	16390.0375
346.86207	16655.5375
351.04966	16988.4375
355.23424	17260.6375
359.4158	17520.3375
363.59435	17707.5375
367.76989	17800.0375
371.94243	17879.1375
376.11196	17931.0375
380.27849	17957.8375
384.44203	18028.1375
388.60257	18149.1375
392.76012	18350.5375
396.91468	18578.4375
401.06626	18833.7375
405.21485	19036.3375
409.36047	18949.6375
413.50311	18710.7375
417.64277	18525.0375
421.77947	18482.7375
425.9132	18580.1375
430.04396	18695.2375
434.17176	18808.0375
438.2966	18970.8375
442.41849	19297.2375
446.53742	19672.4375
450.6534	20095.8375
454.76644	20344.2375
458.87653	20479.7375
462.98368	20460.1375
467.08789	20352.5375
471.18916	20117.8375
475.2875	19905.2375
479.38291	19706.2375
483.4754	19576.1375
487.56496	19481.9375
491.6516	19293.8375
495.73531	19151.5375
499.81612	19075.4375
503.89401	19161.4375
507.96899	19260.2375
512.04106	19304.3375
516.11023	19247.3375
520.1765	19121.0375
524.23987	19008.9375
528.30034	18937.7375
532.35792	18815.5375
536.41261	18630.1375
540.46441	18500.8375
544.51333	18462.4375
548.55936	18646.2375
552.60252	18928.5375
556.64279	19235.9375
560.6802	19459.3375
564.71473	19613.5375
568.7464	19866.5375
572.7752	20388.4375
576.80114	21022.7375
580.82422	21584.0375
584.84444	22110.1375
588.86181	22799.9375
592.87633	23624.8375
596.888	23960.5375
600.89682	23509.6375
604.9028	23254.5375
608.90594	24217.6375
612.90624	25367.5375
616.90371	23899.8375
620.89834	20852.0375
624.89015	19456.1375
628.87913	19334.1375
632.86528	19552.1375
636.84862	19628.3375
640.82913	19335.7375
644.80683	18909.4375
648.78172	18577.5375
652.75379	18546.5375
656.72306	18753.2375
660.68952	19050.0375
664.65319	18990.1375
668.61405	18779.0375
672.57211	18780.4375
676.52738	18838.0375
680.47986	18850.9375
684.42955	18762.4375
688.37646	18725.8375
692.32058	18734.3375
696.26192	18895.2375
700.20048	19046.1375
704.13626	19165.2375
708.06928	19251.5375
711.99952	19146.2375
715.927	19094.8375
719.85171	19072.8375
723.77365	19009.7375
727.69284	18767.4375
731.60928	18619.6375
735.52295	18547.1375
739.43388	18541.8375
743.34206	18631.4375
747.24749	18751.2375
751.15017	18908.0375
755.05012	19189.9375
758.94733	19637.1375
762.8418	20439.0375
766.73354	21756.7375
770.62254	23017.6375
774.50882	23232.4375
778.39237	22364.5375
782.27321	21125.5375
786.15132	20033.6375
790.02671	19361.6375
793.89938	18976.0375
797.76935	18729.1375
801.6366	18611.3375
805.50115	18489.9375
809.36299	18389.3375
813.22213	18337.5375
817.07857	18260.4375
820.93231	18218.7375
824.78336	18180.1375
828.63172	18156.3375
832.47738	18127.0375
836.32036	18107.6375
840.16066	18108.1375
843.99827	18072.9375
847.8332	18126.1375
851.66546	18139.0375
855.49504	18180.1375
859.32195	18203.7375
863.1462	18149.3375
866.96777	18156.2375
870.78668	18119.2375
874.60293	18152.2375
878.41652	18180.2375
882.22745	18241.2375
886.03573	18303.7375
889.84136	18331.4375
893.64433	18294.1375
897.44466	18272.6375
901.24235	18258.9375
905.0374	18297.8375
908.8298	18198.4375
912.61957	18224.3375
916.40671	18290.3375
920.19121	18477.6375
923.97308	18678.9375
927.75233	18703.8375
931.52895	18569.8375
935.30295	18300.7375
939.07433	18004.9375
942.84309	17790.6375
946.60924	17684.5375
950.37278	17641.5375
954.13371	17609.2375
957.89203	17647.4375
961.64774	17641.1375
965.40086	17617.4375
969.15137	17595.0375
972.89929	17550.9375
976.64461	17502.3375
980.38733	17465.6375
984.12747	17492.2375
987.86502	17488.0375
991.59999	17565.6375
995.33237	17742.4375
999.06217	17940.1375
1002.78939	18251.2375
1006.51404	18596.4375
1010.23611	18956.4375
1013.95561	19151.3375
1017.67255	19165.2375
1021.38692	19053.2375
1025.09872	18743.7375
1028.80796	18475.7375
1032.51465	18349.3375
1036.21877	18321.0375
1039.92035	18401.3375
1043.61937	18491.8375
1047.31584	18498.1375
1051.00976	18601.5375
1054.70114	18660.2375
1058.38998	18766.0375
1062.07627	18934.7375
1065.76003	19121.4375
1069.44126	19361.1375
1073.11995	19660.1375
1076.79611	19936.6375
1080.46974	20056.5375
1084.14085	20229.5375
1087.80943	20397.3375
1091.47549	20587.9375
1095.13903	20659.0375
1098.80005	20458.7375
1102.45857	20105.3375
1106.11456	19736.4375
1109.76805	19559.5375
1113.41903	19527.5375
1117.06751	19674.2375
1120.71348	19801.3375
1124.35696	19993.0375
1127.99793	20178.6375
1131.63641	20312.2375
1135.2724	20290.1375
1138.90589	20245.8375
1142.5369	20250.8375
1146.16542	20328.4375
1149.79145	20490.5375
1153.415	20691.5375
1157.03607	20901.0375
1160.65467	21203.7375
1164.27079	21759.4375
1167.88443	22612.5375
1171.49561	23625.9375
1175.10432	24957.9375
1178.71056	26594.4375
1182.31434	28141.5375
1185.91565	29047.5375
1189.51451	29260.1375
1193.11091	28979.2375
1196.70485	28146.0375
1200.29634	27101.4375
1203.88538	26155.6375
1207.47197	25464.3375
1211.05612	24951.9375
1214.63782	24494.9375
1218.21708	24045.1375
1221.79391	23678.9375
1225.36829	23498.7375
1228.94024	23381.3375
1232.50976	23146.3375
1236.07685	22921.9375
1239.6415	22739.7375
1243.20374	22727.5375
1246.76355	22728.2375
1250.32093	22882.1375
1253.8759	23228.4375
1257.42845	23769.1375
1260.97859	24412.7375
1264.52631	25106.7375
1268.07163	25710.9375
1271.61453	26349.0375
1275.15503	26923.5375
1278.69312	27572.5375
1282.22882	28199.7375
1285.76211	28936.1375
1289.29301	29834.3375
1292.82151	30819.0375
1296.34761	32024.8375
1299.87133	33337.1375
1303.39266	34727.1375
1306.9116	36018.1375
1310.42815	37014.6375
1313.94233	37609.9375
1317.45412	37430.9375
1320.96354	36837.7375
1324.47058	36354.9375
1327.97525	35825.1375
1331.47754	35585.3375
1334.97747	35510.3375
1338.47502	35557.8375
1341.97022	35695.9375
1345.46305	35915.5375
1348.95352	35990.2375
1352.44163	36177.7375
1355.92738	36539.1375
1359.41078	37307.3375
1362.89183	38070.8375
1366.37053	37619.6375
1369.84688	35389.8375
1373.32088	32333.4375
1376.79254	30081.9375
1380.26186	28960.9375
1383.72883	28581.5375
1387.19347	28275.9375
1390.65578	27876.5375
1394.11575	27614.2375
1397.57339	27604.0375
1401.0287	27692.0375
1404.48168	27747.0375
1407.93234	27639.9375
1411.38068	27263.8375
1414.82669	26733.7375
1418.27039	26110.8375
1421.71177	25454.3375
1425.15083	24881.0375
1428.58758	24553.7375
1432.02203	24578.5375
1435.45416	24882.9375
1438.88399	25290.9375
1442.31151	25656.7375
1445.73673	25934.2375
1449.15965	26123.2375
1452.58027	26307.7375
1455.9986	26430.8375
1459.41463	26726.8375
1462.82837	27147.6375
1466.23982	27663.5375
1469.64898	28081.6375
1473.05586	28417.1375
1476.46045	28586.8375
1479.86276	28626.6375
1483.26279	28657.9375
1486.66054	28800.7375
1490.05602	29123.2375
1493.44922	29622.9375
1496.84016	30312.1375
1500.22882	31155.2375
1503.61521	32007.7375
1506.99934	32858.4375
1510.38121	33354.9375
1513.76081	33219.2375
1517.13816	32484.1375
1520.51324	31574.5375
1523.88607	30866.4375
1527.25665	30380.7375
1530.62498	30087.1375
1533.99105	29755.0375
1537.35488	29157.0375
1540.71647	28504.2375
1544.07581	27798.4375
1547.4329	27142.2375
1550.78776	26730.1375
1554.14038	26451.5375
1557.49077	26446.4375
1560.83892	26519.5375
1564.18484	26631.2375
1567.52853	26771.0375
1570.86999	26966.4375
1574.20922	27321.5375
1577.54624	27541.0375
1580.88103	27399.2375
1584.2136	27231.9375
1587.54395	27520.7375
1590.87208	28335.7375
1594.19801	29522.5375
1597.52172	30669.8375
1600.84321	30956.4375
1604.16251	29920.8375
1607.47959	28250.3375
1610.79447	26455.7375
1614.10715	24737.1375
1617.41763	23305.6375
1620.7259	22250.1375
1624.03199	21649.7375
1627.33587	21655.6375
1630.63757	22096.1375
1633.93707	23169.0375
1637.23439	25071.9375
1640.52951	27880.0375
1643.82246	31165.7375
1647.11321	33770.9375
1650.40179	34328.2375
1653.68819	32292.2375
1656.97241	28737.9375
1660.25446	25069.6375
1663.53433	22305.5375
1666.81203	20480.9375
1670.08756	19378.0375
1673.36092	18695.1375
1676.63211	18238.3375
1679.90115	17940.1375
1683.16801	17713.6375
1686.43272	17489.5375
1689.69527	17305.7375
1692.95567	17190.9375
1696.2139	17001.4375
1699.46999	16856.2375
1702.72392	16765.5375
1705.97571	16811.1375
1709.22535	16875.7375
1712.47284	16949.6375
1715.71819	16922.1375
1718.96139	16897.9375
1722.20246	16791.5375
1725.44139	16736.0375
1728.67818	16657.5375
1731.91284	16559.2375
1735.14537	16473.0375
1738.37576	16442.5375
1741.60403	16345.6375
1744.83017	16338.0375
1748.05418	16257.6375
1751.27607	16174.7375
1754.49584	16103.8375
1757.71349	16025.7375
1760.92903	15982.9375
1764.14244	15979.6375
1767.35375	15952.7375
1770.56294	15950.2375
1773.77002	15909.0375
1776.97499	15926.5375
1780.17785	15915.7375
1783.37861	15940.9375
1786.57727	15940.0375
1789.77382	15918.9375
1792.96828	15865.6375
1796.16064	15850.8375
1799.3509	15832.7375
1802.53907	15798.8375
1805.72514	15777.6375
1808.90913	15752.8375
1812.09102	15750.0375
1815.27083	15700.5375
1818.44856	15685.9375
1821.6242	15637.4375
1824.79776	15652.3375
1827.96924	15688.7375
1831.13864	15654.3375
1834.30597	15661.9375
1837.47122	15696.4375
1840.6344	15686.6375
1843.7955	15685.8375
1846.95454	15721.1375
1850.11151	15664.3375
1853.26642	15683.1375
1856.41926	15672.4375
1859.57004	15657.2375
1862.71876	15643.2375
1865.86542	15625.7375
1869.01003	15620.9375
1872.15258	15563.1375
1875.29308	15534.4375
1878.43152	15517.2375
1881.56792	15461.4375
1884.70227	15471.2375
1887.83457	15436.7375
1890.96482	15415.9375
1894.09304	15364.9375
1897.21921	15366.9375
1900.34335	15345.2375
1903.46544	15322.7375
1906.58551	15297.3375
1909.70353	15259.7375
1912.81953	15202.2375
1915.93349	15209.5375
1919.04543	15157.2375
1922.15534	15160.2375
1925.26322	15133.3375
1928.36908	15073.5375
1931.47292	15056.6375
1934.57473	15004.0375
1937.67453	14972.4375
1940.77232	14896.2375
1943.86808	14871.8375
1946.96184	14837.8375
1950.05358	14818.6375
1953.14331	14747.5375
1956.23103	14722.2375
1959.31675	14666.4375
1962.40046	14600.5375
1965.48217	14589.7375
1968.56188	14562.7375
1971.63959	14493.0375
1974.7153	14460.5375
1977.78901	14401.6375
1980.86073	14379.1375
1983.93046	14328.2375
1986.99819	14298.6375
1990.06394	14240.3375
1993.1277	14199.3375
1996.18947	14125.0375
1999.24925	14101.1375
2002.30706	14046.1375
2005.36288	14043.2375
2008.41672	13985.8375
2011.46859	13957.7375
2014.51848	13926.3375
2017.56639	13845.5375
2020.61233	13843.8375
2023.6563	13819.8375
2026.6983	13767.9375
2029.73833	13733.1375
2032.7764	13723.4375
2035.8125	13670.3375
2038.84664	13663.3375
2041.87881	13601.9375
2044.90903	13597.5375
2047.93729	13583.8375
2050.96359	13558.5375
2053.98794	13554.8375
2057.01034	13570.9375
2060.03078	13554.6375
2063.04927	13521.2375
2066.06582	13536.9375
2069.08042	13502.8375
2072.09307	13501.7375
2075.10378	13498.0375
2078.11255	13464.3375
2081.11938	13467.6375
2084.12426	13487.9375
2087.12722	13500.9375
2090.12824	13517.0375
2093.12732	13510.1375
2096.12447	13524.2375
2099.11969	13507.8375
2102.11299	13502.7375
2105.10435	13516.1375
2108.09379	13529.5375
2111.08131	13531.2375
2114.0669	13533.2375
2117.05057	13566.0375
2120.03233	13526.8375
2123.01216	13538.1375
2125.99008	13536.4375
2128.96609	13574.9375
2131.94018	13618.2375
2134.91236	13625.5375
2137.88263	13613.9375
2140.851	13599.9375
2143.81746	13600.8375
2146.78201	13593.5375
2149.74466	13618.4375
2152.7054	13578.8375
2155.66425	13609.7375
2158.6212	13577.4375
2161.57625	13581.8375
2164.52941	13571.1375
2167.48067	13548.3375
2170.43004	13522.6375
2173.37752	13544.2375
2176.32311	13532.4375
2179.26681	13542.4375
2182.20863	13493.2375
2185.14856	13550.3375
2188.08661	13521.3375
2191.02278	13500.9375
2193.95707	13510.0375
2196.88948	13463.8375
2199.82001	13460.3375
2202.74867	13469.8375
2205.67545	13468.5375
2208.60037	13448.4375
2211.52341	13405.8375
2214.44458	13404.8375
2217.36388	13343.5375
2220.28132	13348.8375
2223.1969	13298.9375
2226.11061	13302.2375
2229.02246	13284.7375
2231.93245	13216.5375
2234.84058	13235.0375
2237.74686	13206.3375
2240.65128	13214.5375
2243.55385	13218.6375
2246.45456	13198.5375
2249.35343	13141.3375
2252.25044	13120.8375
2255.14561	13128.6375
2258.03893	13088.6375
2260.93041	13074.9375
2263.82004	13039.2375
2266.70783	12993.4375
2269.59378	12961.9375
2272.4779	12924.0375
2275.36017	12937.6375
2278.24061	12909.8375
2281.11922	12876.7375
2283.996	12848.4375
2286.87094	12824.7375
2289.74405	12813.5375
2292.61534	12799.6375
2295.4848	12773.3375
2298.35243	12757.0375
2301.21824	12752.8375
2304.08223	12779.8375
2306.94439	12758.8375
2309.80474	12748.4375
2312.66327	12759.5375
2315.51999	12717.7375
2318.37489	12700.6375
2321.22797	12656.6375
2324.07925	12652.5375
2326.92871	12643.1375
2329.77637	12608.3375
2332.62222	12580.2375
2335.46626	12577.8375
2338.3085	12574.2375
2341.14893	12544.8375
2343.98756	12570.4375
2346.8244	12537.9375
2349.65943	12534.1375
2352.49267	12538.4375
2355.32411	12524.0375
2358.15376	12539.1375
2360.98161	12526.0375
2363.80768	12511.9375
2366.63195	12522.6375
2369.45444	12486.9375
2372.27514	12485.5375
2375.09405	12494.1375
2377.91118	12480.2375
2380.72652	12454.1375
2383.54009	12425.4375
2386.35187	12409.2375
2389.16188	12340.4375
2391.97011	12369.1375
2394.77657	12339.2375
2397.58125	12323.8375
2400.38416	12321.6375
2403.18529	12268.5375
2405.98466	12275.3375
2408.78226	12268.6375
2411.57809	12217.2375
2414.37216	12195.7375
2417.16446	12217.1375
2419.955	12204.1375
2422.74378	12197.3375
2425.5308	12190.7375
2428.31606	12186.3375
2431.09956	12158.2375
2433.88131	12164.8375
2436.6613	12196.5375
2439.43954	12178.5375
2442.21603	12124.4375
2444.99077	12141.2375
2447.76377	12132.9375
2450.53501	12118.2375
2453.30451	12118.3375
2456.07226	12146.0375
2458.83827	12111.7375
2461.60254	12075.9375
2464.36507	12097.1375
2467.12586	12079.8375
2469.88492	12080.6375
2472.64224	12055.3375
2475.39782	12039.6375
2478.15167	12021.3375
2480.90379	12032.8375
2483.65417	12028.4375
2486.40283	12053.5375
2489.14976	12062.5375
2491.89497	12035.1375
2494.63845	12032.2375
2497.3802	11994.2375
2500.12024	11993.7375
2502.85855	11998.0375
2505.59514	12021.0375
2508.33002	11989.9375
2511.06318	11986.7375
2513.79462	11963.2375
2516.52435	11949.7375
2519.25237	11961.7375
2521.97867	11912.1375
2524.70327	11913.7375
2527.42616	11905.8375
2530.14734	11917.8375
2532.86681	11874.3375
2535.58458	11883.9375
2538.30065	11873.8375
2541.01501	11870.5375
2543.72768	11850.6375
2546.43864	11833.0375
2549.14791	11803.0375
2551.85548	11791.0375
2554.56136	11801.8375
2557.26554	11766.8375
2559.96803	11757.7375
2562.66883	11722.4375
2565.36794	11750.7375
2568.06536	11733.9375
2570.7611	11712.6375
2573.45514	11721.0375
2576.14751	11711.6375
2578.83819	11643.7375
2581.52719	11651.9375
2584.21451	11626.8375
2586.90015	11608.3375
2589.58411	11601.1375
2592.2664	11592.8375
2594.94701	11587.4375
2597.62594	11576.3375
2600.30321	11553.2375
2602.9788	11535.3375
2605.65273	11527.5375
2608.32498	11540.5375
2610.99557	11486.7375
2613.66449	11507.0375
2616.33175	11508.3375
2618.99734	11496.3375
2621.66128	11495.7375
2624.32355	11478.7375
2626.98416	11470.6375
2629.64311	11439.5375
2632.30041	11431.5375
2634.95605	11426.8375
2637.61004	11409.8375
2640.26238	11404.1375
2642.91306	11382.5375
2645.56209	11336.6375
2648.20948	11379.1375
2650.85521	11374.3375
2653.4993	11377.9375
2656.14175	11375.7375
2658.78255	11405.8375
2661.42171	11432.2375
2664.05923	11420.4375
2666.6951	11396.2375
2669.32934	11434.4375
2671.96194	11400.7375
2674.59291	11416.8375
2677.22224	11405.7375
2679.84993	11433.8375
2682.476	11413.5375
2685.10043	11394.6375
2687.72324	11409.5375
2690.34441	11397.5375
2692.96396	11396.8375
2695.58188	11398.3375
2698.19818	11410.5375
2700.81285	11398.8375
2703.4259	11397.6375
2706.03733	11329.9375
2708.64714	11310.3375
2711.25533	11378.4375
2713.86191	11397.4375
2716.46687	11398.3375
2719.07021	11410.7375
2721.67194	11423.9375
2724.27206	11445.7375
2726.87057	11426.9375
2729.46747	11410.7375
2732.06276	11438.5375
2734.65644	11419.6375
2737.24852	11433.8375
2739.83899	11413.4375
2742.42786	11438.3375
2745.01513	11402.1375
2747.60079	11393.6375
2750.18486	11344.1375
2752.76733	11351.1375
2755.3482	11340.8375
2757.92747	11338.6375
2760.50515	11341.9375
2763.08123	11324.5375
2765.65573	11318.0375
2768.22863	11252.0375
2770.79994	11268.0375
2773.36967	11261.4375
2775.9378	11264.5375
2778.50435	11260.8375
2781.06932	11254.1375
2783.6327	11258.8375
2786.1945	11233.1375
2788.75471	11222.5375
2791.31335	11216.3375
2793.87041	11211.5375
2796.42589	11177.2375
2798.97979	11161.8375
2801.53212	11119.9375
2804.08288	11115.5375
2806.63206	11099.0375
2809.17967	11088.4375
2811.72571	11046.3375
2814.27018	11005.6375
2816.81308	10997.7375
2819.35442	10974.6375
2821.89419	10951.9375
2824.43239	10966.9375
2826.96904	10964.7375
2829.50412	10963.9375
2832.03763	10929.8375
2834.56959	10915.7375
2837.1	10905.1375
2839.62884	10895.4375
2842.15613	10863.2375
2844.68186	10885.5375
2847.20604	10862.3375
2849.72867	10888.4375
2852.24974	10862.3375
2854.76927	10839.3375
2857.28724	10791.0375
2859.80367	10803.6375
2862.31855	10810.6375
2864.83189	10803.9375
2867.34368	10760.2375
2869.85393	10777.6375
2872.36264	10762.7375
2874.8698	10756.2375
2877.37543	10746.8375
2879.87952	10753.5375
2882.38207	10754.4375
2884.88308	10738.3375
2887.38256	10741.7375
2889.88051	10760.5375
2892.37692	10746.9375
2894.8718	10754.7375
2897.36515	10761.3375
2899.85698	10793.9375
2902.34727	10793.3375
2904.83604	10799.2375
2907.32328	10813.6375
2909.809	10788.9375
2912.29319	10805.1375
2914.77587	10809.1375
2917.25702	10805.6375
2919.73665	10807.0375
2922.21476	10807.6375
2924.69136	10817.7375
2927.16644	10812.9375
2929.64	10805.2375
2932.11205	10764.2375
2934.58258	10700.4375
2937.05161	10711.3375
2939.51912	10735.5375
2941.98513	10742.7375
2944.44962	10719.5375
2946.91261	10664.0375
2949.37409	10684.0375
2951.83407	10678.6375
2954.29254	10649.1375
2956.74951	10645.1375
2959.20498	10634.9375
2961.65895	10635.0375
2964.11142	10641.8375
2966.56239	10617.4375
2969.01186	10618.4375
2971.45984	10588.1375
2973.90632	10577.9375
2976.35131	10555.3375
2978.7948	10525.7375
2981.23681	10523.6375
2983.67732	10534.0375
2986.11635	10482.0375
2988.55388	10461.1375
2990.98993	10425.6375
2993.4245	10430.7375
2995.85758	10416.2375
2998.28917	10391.9375
3000.71928	10363.2375
3003.14791	10317.9375
3005.57506	10308.4375
3008.00073	10282.2375
3010.42493	10253.3375
3012.84764	10249.6375
3015.26888	10233.1375
3017.68865	10195.7375
3020.10694	10194.5375
3022.52376	10168.8375
3024.9391	10176.6375
3027.35298	10156.9375
3029.76539	10153.6375
3032.17632	10145.0375
3034.5858	10110.0375
3036.9938	10108.0375
3039.40034	10118.6375
3041.80542	10069.2375
3044.20903	10076.0375
3046.61118	10082.8375
3049.01187	10057.6375
3051.4111	10036.5375
3053.80888	10038.3375
3056.20519	10030.5375
3058.60005	10004.5375
3060.99345	9989.7375
3063.3854	9977.5375
3065.7759	9954.5375
3068.16494	9897.3375
3070.55254	9851.5375
3072.93868	9847.5375
3075.32338	9811.8375
3077.70662	9786.5375
3080.08842	9775.6375
3082.46878	9780.7375
3084.84769	9767.7375
3087.22515	9749.2375
3089.60118	9767.7375
3091.97576	9739.4375
3094.3489	9730.3375
3096.72061	9755.9375
3099.09087	9748.2375
3101.4597	9730.6375
3103.82709	9750.0375
3106.19305	9723.5375
3108.55757	9717.0375
3110.92066	9724.8375
3113.28232	9698.2375
3115.64255	9639.0375
3118.00134	9611.1375
3120.35871	9606.7375
3122.71466	9584.0375
3125.06917	9559.3375
3127.42226	9530.3375
3129.77393	9555.8375
3132.12417	9554.8375
3134.47299	9535.4375
3136.82039	9530.3375
3139.16636	9532.3375
3141.51092	9535.8375
3143.85406	9547.7375
3146.19579	9537.2375
3148.53609	9536.6375
3150.87499	9568.1375
3153.21246	9537.9375
3155.54853	9562.2375
3157.88318	9549.3375
3160.21642	9570.9375
3162.54826	9557.4375
3164.87868	9562.9375
3167.2077	9573.8375
3169.5353	9567.3375
3171.86151	9574.9375
3174.18631	9556.9375
3176.5097	9524.5375
3178.83169	9515.6375
3181.15228	9511.7375
3183.47147	9465.1375
3185.78926	9480.9375
3188.10565	9474.0375
3190.42065	9451.2375
3192.73424	9479.4375
3195.04645	9435.4375
3197.35725	9477.7375
3199.66667	9477.5375
3201.97469	9462.6375
3204.28132	9461.3375
3206.58656	9453.1375
3208.8904	9445.4375
3211.19287	9436.7375
3213.49394	9447.1375
3215.79363	9457.0375
3218.09193	9446.9375
3220.38884	9447.2375
3222.68438	9422.5375
3224.97853	9408.8375
3227.2713	9425.2375
3229.56269	9447.1375
3231.8527	9412.0375
3234.14133	9380.2375
3236.42858	9390.6375
3238.71446	9382.9375
3240.99896	9333.6375
3243.28209	9338.1375
3245.56384	9328.4375
3247.84423	9316.7375
3250.12324	9297.1375
3252.40088	9315.2375
3254.67715	9291.8375
3256.95205	9277.7375
3259.22558	9290.2375
3261.49775	9272.8375
3263.76855	9291.2375
3266.03799	9245.3375
3268.30606	9224.9375
3270.57277	9234.5375
3272.83812	9180.5375
3275.10211	9166.0375
3277.36474	9166.0375
3279.62601	9137.3375
3281.88593	9161.4375
3284.14448	9128.3375
3286.40168	9142.2375
3288.65753	9147.0375
3290.91202	9149.3375
3293.16516	9130.2375
3295.41695	9116.9375
3297.66738	9072.7375
3299.91647	9007.4375
3302.16421	8939.4375
3304.4106	8906.7375
3306.65564	8840.2375
3308.89933	8765.8375
3311.14169	8741.6375
3313.38269	8636.7375
3315.62236	8592.5375
3317.86068	8519.5375
3320.09766	8460.8375
3322.3333	8408.0375
3324.5676	8358.3375
3326.80056	8222.8375
3329.03219	8153.8375
3331.26248	3.0375
3333.49143	-0.0625
3335.71905	-0.4625
