Data from AgNPs_FTO_APTES_UA_50uM_CRN_50uM_R6G_10uM_NaF_0.1M_Addition_RamanShift__28__15-05-24-998.txt Node

Date: Mon Feb 21 15:05:24 GMT 2022
User: TCL
Spectrometer: QEP01345
Trigger mode: 4
Integration Time (sec): 7.000000E0
Scans to average: 10
Electric dark correction enabled: true
Nonlinearity correction enabled: false
Boxcar width: 0
XAxis mode: Raman Shifts
Number of Pixels in Spectrum: 1044
>>>>>Begin Spectral Data<<<<<
46.04893	1.0375
50.45542	-0.7625
54.85868	-0.4625
59.25871	-2.1625
63.6555	55.1375
68.04907	62.5375
72.43941	64.3375
76.82654	70.2375
81.21044	72.2375
85.59113	78.2375
89.96862	80.4375
94.34289	83.5375
98.71396	82.5375
103.08183	91.4375
107.4465	90.4375
111.80798	87.4375
116.16626	90.8375
120.52136	93.1375
124.87327	99.3375
129.222	99.1375
133.56755	104.8375
137.90993	110.8375
142.24913	119.5375
146.58517	131.2375
150.91804	147.3375
155.24774	167.0375
159.57429	211.4375
163.89768	266.6375
168.21792	348.7375
172.53501	467.8375
176.84895	649.0375
181.15975	898.8375
185.46741	1261.2375
189.77193	1741.1375
194.07331	2327.7375
198.37157	3013.9375
202.6667	3710.1375
206.9587	4447.6375
211.24758	5176.2375
215.53334	5936.4375
219.81599	6821.9375
224.09553	7782.0375
228.37195	8872.7375
232.64527	10051.7375
236.91549	11235.8375
241.18261	12286.1375
245.44663	13113.7375
249.70755	13856.5375
253.96539	14490.0375
258.22014	15008.4375
262.4718	15388.0375
266.72039	15668.3375
270.96589	15709.0375
275.20832	15522.0375
279.44768	15182.1375
283.68397	14833.4375
287.91719	14608.1375
292.14735	14661.0375
296.37445	15061.3375
300.59849	15848.5375
304.81948	16717.4375
309.03742	17321.4375
313.25231	17288.5375
317.46415	16365.4375
321.67296	14936.0375
325.87872	13791.5375
330.08145	13308.6375
334.28114	13289.4375
338.47781	13563.7375
342.67145	14008.8375
346.86207	14740.4375
351.04966	15746.1375
355.23424	16954.3375
359.4158	17860.9375
363.59435	18208.0375
367.76989	18334.9375
371.94243	18246.1375
376.11196	18125.5375
380.27849	17948.0375
384.44203	17701.4375
388.60257	17396.4375
392.76012	17170.1375
396.91468	17243.2375
401.06626	17701.5375
405.21485	18057.2375
409.36047	17622.9375
413.50311	16513.9375
417.64277	15434.1375
421.77947	14780.8375
425.9132	14499.3375
430.04396	14435.3375
434.17176	14513.2375
438.2966	14747.8375
442.41849	15152.9375
446.53742	15676.1375
450.6534	16152.8375
454.76644	16449.4375
458.87653	16511.9375
462.98368	16328.3375
467.08789	16028.9375
471.18916	15621.3375
475.2875	15198.5375
479.38291	14835.2375
483.4754	14568.5375
487.56496	14354.7375
491.6516	14200.5375
495.73531	14123.9375
499.81612	14141.9375
503.89401	14384.8375
507.96899	14661.4375
512.04106	14921.9375
516.11023	15298.0375
520.1765	15540.1375
524.23987	15497.2375
528.30034	15236.2375
532.35792	14932.6375
536.41261	14612.8375
540.46441	14247.4375
544.51333	14041.4375
548.55936	14106.7375
552.60252	14449.1375
556.64279	14847.0375
560.6802	15060.6375
564.71473	15340.8375
568.7464	16093.9375
572.7752	16396.3375
576.80114	15750.7375
580.82422	15010.8375
584.84444	14808.9375
588.86181	14757.8375
592.87633	15009.4375
596.888	15293.2375
600.89682	15901.9375
604.9028	18109.5375
608.90594	24224.6375
612.90624	32113.2375
616.90371	30426.5375
620.89834	20468.5375
624.89015	15936.2375
628.87913	15158.1375
632.86528	15327.4375
636.84862	15577.9375
640.82913	15215.2375
644.80683	14391.2375
648.78172	13741.0375
652.75379	13725.2375
656.72306	14446.0375
660.68952	15249.6375
664.65319	15037.4375
668.61405	14149.9375
672.57211	13764.5375
676.52738	13768.9375
680.47986	13762.3375
684.42955	13586.7375
688.37646	13462.0375
692.32058	13522.7375
696.26192	13639.0375
700.20048	13821.5375
704.13626	13919.9375
708.06928	13829.6375
711.99952	13696.9375
715.927	13660.7375
719.85171	13808.7375
723.77365	13840.9375
727.69284	13758.3375
731.60928	13643.5375
735.52295	13645.6375
739.43388	13706.1375
743.34206	13806.0375
747.24749	13859.4375
751.15017	13916.2375
755.05012	14178.2375
758.94733	14986.3375
762.8418	16945.8375
766.73354	20307.9375
770.62254	23730.2375
774.50882	25573.3375
778.39237	24435.1375
782.27321	20704.9375
786.15132	17120.6375
790.02671	15113.8375
793.89938	14236.0375
797.76935	13845.1375
801.6366	13713.5375
805.50115	13669.8375
809.36299	13577.6375
813.22213	13546.0375
817.07857	13535.5375
820.93231	13488.6375
824.78336	13517.9375
828.63172	13572.7375
832.47738	13619.2375
836.32036	13592.3375
840.16066	13523.8375
843.99827	13502.5375
847.8332	13460.2375
851.66546	13408.1375
855.49504	13377.0375
859.32195	13383.5375
863.1462	13321.6375
866.96777	13308.5375
870.78668	13287.5375
874.60293	13306.7375
878.41652	13366.0375
882.22745	13509.1375
886.03573	13576.1375
889.84136	13537.7375
893.64433	13426.0375
897.44466	13408.5375
901.24235	13434.8375
905.0374	13341.3375
908.8298	13229.3375
912.61957	13158.9375
916.40671	13188.7375
920.19121	13316.4375
923.97308	13512.0375
927.75233	13770.1375
931.52895	14032.9375
935.30295	13887.8375
939.07433	13437.2375
942.84309	13031.8375
946.60924	12789.0375
950.37278	12664.1375
954.13371	12584.5375
957.89203	12538.9375
961.64774	12494.2375
965.40086	12435.8375
969.15137	12378.3375
972.89929	12343.1375
976.64461	12324.4375
980.38733	12334.5375
984.12747	12392.1375
987.86502	12479.6375
991.59999	12629.8375
995.33237	12909.6375
999.06217	13347.7375
1002.78939	13801.2375
1006.51404	14165.3375
1010.23611	14443.7375
1013.95561	14623.9375
1017.67255	14615.7375
1021.38692	14448.0375
1025.09872	14264.3375
1028.80796	14341.8375
1032.51465	14706.1375
1036.21877	15062.6375
1039.92035	15148.4375
1043.61937	15013.9375
1047.31584	14698.1375
1051.00976	14336.2375
1054.70114	14078.2375
1058.38998	13966.0375
1062.07627	13949.6375
1065.76003	13988.9375
1069.44126	13981.0375
1073.11995	14129.9375
1076.79611	14325.2375
1080.46974	14682.2375
1084.14085	15233.6375
1087.80943	15724.3375
1091.47549	15862.5375
1095.13903	15508.1375
1098.80005	14892.7375
1102.45857	14467.4375
1106.11456	14380.5375
1109.76805	14618.3375
1113.41903	15111.7375
1117.06751	15853.2375
1120.71348	16774.9375
1124.35696	17748.6375
1127.99793	18426.0375
1131.63641	18068.8375
1135.2724	16915.8375
1138.90589	15997.0375
1142.5369	15380.4375
1146.16542	14922.7375
1149.79145	14688.2375
1153.415	14653.1375
1157.03607	14777.6375
1160.65467	15109.9375
1164.27079	15690.2375
1167.88443	16628.9375
1171.49561	18158.0375
1175.10432	20596.9375
1178.71056	23986.6375
1182.31434	26779.9375
1185.91565	27498.3375
1189.51451	26446.1375
1193.11091	24274.5375
1196.70485	22063.4375
1200.29634	20586.5375
1203.88538	19517.2375
1207.47197	18237.8375
1211.05612	17131.2375
1214.63782	16471.1375
1218.21708	16276.1375
1221.79391	16306.8375
1225.36829	16383.9375
1228.94024	16349.2375
1232.50976	16199.7375
1236.07685	16142.7375
1239.6415	16087.3375
1243.20374	16216.1375
1246.76355	16395.6375
1250.32093	16638.0375
1253.8759	17082.8375
1257.42845	17697.2375
1260.97859	18347.1375
1264.52631	18998.4375
1268.07163	19648.4375
1271.61453	20295.5375
1275.15503	20790.6375
1278.69312	21090.4375
1282.22882	21420.3375
1285.76211	21997.8375
1289.29301	22666.3375
1292.82151	23437.6375
1296.34761	24412.9375
1299.87133	26050.2375
1303.39266	28859.0375
1306.9116	33063.1375
1310.42815	37322.9375
1313.94233	38861.5375
1317.45412	36727.1375
1320.96354	33035.9375
1324.47058	29534.9375
1327.97525	26764.5375
1331.47754	25265.8375
1334.97747	24817.3375
1338.47502	25187.7375
1341.97022	26280.5375
1345.46305	27880.4375
1348.95352	29902.9375
1352.44163	32509.3375
1355.92738	36572.4375
1359.41078	42940.5375
1362.89183	48263.3375
1366.37053	45431.8375
1369.84688	36952.9375
1373.32088	29636.3375
1376.79254	25273.9375
1380.26186	22966.9375
1383.72883	21687.4375
1387.19347	20749.1375
1390.65578	19857.7375
1394.11575	19240.7375
1397.57339	19087.3375
1401.0287	19171.8375
1404.48168	19452.6375
1407.93234	19697.2375
1411.38068	20023.7375
1414.82669	20210.8375
1418.27039	20021.5375
1421.71177	19648.2375
1425.15083	19162.6375
1428.58758	19001.6375
1432.02203	19178.0375
1435.45416	19405.2375
1438.88399	19458.6375
1442.31151	19457.9375
1445.73673	19591.9375
1449.15965	19752.3375
1452.58027	19714.9375
1455.9986	19526.6375
1459.41463	19440.1375
1462.82837	19677.4375
1466.23982	20211.2375
1469.64898	20725.2375
1473.05586	21093.1375
1476.46045	21243.3375
1479.86276	21605.5375
1483.26279	22074.1375
1486.66054	22680.3375
1490.05602	23648.8375
1493.44922	24942.4375
1496.84016	26979.2375
1500.22882	30256.6375
1503.61521	35024.6375
1506.99934	40573.9375
1510.38121	44879.7375
1513.76081	45356.6375
1517.13816	41256.5375
1520.51324	34813.2375
1523.88607	29194.6375
1527.25665	25699.3375
1530.62498	23689.0375
1533.99105	22573.3375
1537.35488	21828.8375
1540.71647	21536.5375
1544.07581	21470.7375
1547.4329	21552.4375
1550.78776	21629.0375
1554.14038	21791.1375
1557.49077	22052.6375
1560.83892	22530.8375
1564.18484	23226.1375
1567.52853	24057.3375
1570.86999	24648.9375
1574.20922	24926.0375
1577.54624	24667.5375
1580.88103	23162.2375
1584.2136	21391.9375
1587.54395	20568.0375
1590.87208	20958.5375
1594.19801	22438.4375
1597.52172	24321.4375
1600.84321	25152.2375
1604.16251	24340.5375
1607.47959	22627.8375
1610.79447	20680.8375
1614.10715	18912.4375
1617.41763	17524.0375
1620.7259	16665.6375
1624.03199	16354.8375
1627.33587	16473.3375
1630.63757	17032.5375
1633.93707	18077.0375
1637.23439	19628.9375
1640.52951	21954.7375
1643.82246	25150.5375
1647.11321	28966.4375
1650.40179	31281.9375
1653.68819	29800.1375
1656.97241	25118.7375
1660.25446	20455.5375
1663.53433	17299.9375
1666.81203	15537.5375
1670.08756	14519.2375
1673.36092	13953.6375
1676.63211	13526.5375
1679.90115	13261.9375
1683.16801	13061.8375
1686.43272	12914.8375
1689.69527	12785.1375
1692.95567	12636.1375
1696.2139	12494.7375
1699.46999	12388.2375
1702.72392	12310.2375
1705.97571	12374.4375
1709.22535	12483.2375
1712.47284	12507.8375
1715.71819	12524.1375
1718.96139	12533.8375
1722.20246	12490.3375
1725.44139	12464.0375
1728.67818	12359.9375
1731.91284	12278.6375
1735.14537	12190.9375
1738.37576	12145.8375
1741.60403	12111.5375
1744.83017	12042.0375
1748.05418	11987.9375
1751.27607	11959.5375
1754.49584	11866.1375
1757.71349	11820.5375
1760.92903	11747.1375
1764.14244	11739.9375
1767.35375	11744.0375
1770.56294	11688.6375
1773.77002	11685.8375
1776.97499	11674.6375
1780.17785	11701.0375
1783.37861	11697.1375
1786.57727	11702.2375
1789.77382	11711.7375
1792.96828	11689.2375
1796.16064	11699.0375
1799.3509	11684.1375
1802.53907	11655.4375
1805.72514	11644.1375
1808.90913	11614.8375
1812.09102	11587.9375
1815.27083	11583.1375
1818.44856	11530.9375
1821.6242	11499.3375
1824.79776	11488.9375
1827.96924	11488.9375
1831.13864	11443.6375
1834.30597	11437.7375
1837.47122	11440.2375
1840.6344	11424.9375
1843.7955	11423.5375
1846.95454	11411.2375
1850.11151	11389.2375
1853.26642	11421.0375
1856.41926	11416.3375
1859.57004	11403.6375
1862.71876	11388.9375
1865.86542	11396.9375
1869.01003	11434.9375
1872.15258	11429.1375
1875.29308	11433.2375
1878.43152	11430.8375
1881.56792	11427.6375
1884.70227	11448.1375
1887.83457	11433.3375
1890.96482	11437.7375
1894.09304	11417.1375
1897.21921	11402.3375
1900.34335	11435.8375
1903.46544	11418.0375
1906.58551	11416.1375
1909.70353	11401.8375
1912.81953	11433.6375
1915.93349	11419.0375
1919.04543	11376.2375
1922.15534	11378.1375
1925.26322	11345.1375
1928.36908	11334.4375
1931.47292	11297.5375
1934.57473	11260.9375
1937.67453	11204.9375
1940.77232	11210.8375
1943.86808	11173.6375
1946.96184	11097.6375
1950.05358	11043.4375
1953.14331	11077.1375
1956.23103	11000.4375
1959.31675	10987.6375
1962.40046	10963.3375
1965.48217	10944.6375
1968.56188	10915.5375
1971.63959	10890.4375
1974.7153	10887.9375
1977.78901	10825.6375
1980.86073	10802.1375
1983.93046	10732.8375
1986.99819	10693.6375
1990.06394	10683.8375
1993.1277	10660.3375
1996.18947	10598.8375
1999.24925	10585.1375
2002.30706	10532.7375
2005.36288	10501.1375
2008.41672	10467.3375
2011.46859	10427.6375
2014.51848	10436.1375
2017.56639	10379.6375
2020.61233	10366.4375
2023.6563	10326.5375
2026.6983	10334.6375
2029.73833	10317.3375
2032.7764	10287.4375
2035.8125	10250.0375
2038.84664	10277.2375
2041.87881	10265.1375
2044.90903	10232.9375
2047.93729	10232.8375
2050.96359	10224.7375
2053.98794	10199.6375
2057.01034	10197.1375
2060.03078	10187.3375
2063.04927	10194.5375
2066.06582	10160.1375
2069.08042	10140.2375
2072.09307	10133.3375
2075.10378	10132.0375
2078.11255	10113.4375
2081.11938	10105.5375
2084.12426	10103.0375
2087.12722	10097.1375
2090.12824	10069.0375
2093.12732	10098.2375
2096.12447	10110.8375
2099.11969	10098.3375
2102.11299	10083.5375
2105.10435	10120.8375
2108.09379	10108.7375
2111.08131	10123.3375
2114.0669	10108.8375
2117.05057	10114.3375
2120.03233	10147.3375
2123.01216	10176.8375
2125.99008	10197.9375
2128.96609	10193.7375
2131.94018	10167.1375
2134.91236	10189.6375
2137.88263	10190.4375
2140.851	10202.3375
2143.81746	10214.3375
2146.78201	10211.8375
2149.74466	10205.4375
2152.7054	10178.4375
2155.66425	10185.6375
2158.6212	10157.6375
2161.57625	10153.9375
2164.52941	10174.9375
2167.48067	10125.0375
2170.43004	10173.5375
2173.37752	10168.7375
2176.32311	10172.4375
2179.26681	10151.4375
2182.20863	10178.1375
2185.14856	10191.7375
2188.08661	10198.0375
2191.02278	10186.1375
2193.95707	10175.6375
2196.88948	10174.4375
2199.82001	10161.5375
2202.74867	10184.0375
2205.67545	10168.8375
2208.60037	10174.1375
2211.52341	10162.0375
2214.44458	10154.6375
2217.36388	10133.9375
2220.28132	10109.4375
2223.1969	10097.5375
2226.11061	10078.0375
2229.02246	10043.7375
2231.93245	10061.9375
2234.84058	10041.8375
2237.74686	10002.5375
2240.65128	9993.2375
2243.55385	10009.1375
2246.45456	10003.7375
2249.35343	9972.6375
2252.25044	9960.4375
2255.14561	9959.3375
2258.03893	9993.2375
2260.93041	9959.6375
2263.82004	9936.6375
2266.70783	9921.7375
2269.59378	9913.4375
2272.4779	9897.1375
2275.36017	9890.9375
2278.24061	9861.9375
2281.11922	9817.7375
2283.996	9815.7375
2286.87094	9778.1375
2289.74405	9792.3375
2292.61534	9769.1375
2295.4848	9741.9375
2298.35243	9758.8375
2301.21824	9750.8375
2304.08223	9744.9375
2306.94439	9744.2375
2309.80474	9766.7375
2312.66327	9775.7375
2315.51999	9777.1375
2318.37489	9775.0375
2321.22797	9760.0375
2324.07925	9765.8375
2326.92871	9757.8375
2329.77637	9748.1375
2332.62222	9714.2375
2335.46626	9733.0375
2338.3085	9716.2375
2341.14893	9736.1375
2343.98756	9748.5375
2346.8244	9746.9375
2349.65943	9751.8375
2352.49267	9790.4375
2355.32411	9802.3375
2358.15376	9815.2375
2360.98161	9809.4375
2363.80768	9814.5375
2366.63195	9811.4375
2369.45444	9798.7375
2372.27514	9789.7375
2375.09405	9774.5375
2377.91118	9734.6375
2380.72652	9725.3375
2383.54009	9669.8375
2386.35187	9637.9375
2389.16188	9577.6375
2391.97011	9568.9375
2394.77657	9554.6375
2397.58125	9527.3375
2400.38416	9518.4375
2403.18529	9496.1375
2405.98466	9467.5375
2408.78226	9428.5375
2411.57809	9418.5375
2414.37216	9389.5375
2417.16446	9384.2375
2419.955	9366.6375
2422.74378	9380.3375
2425.5308	9381.0375
2428.31606	9368.9375
2431.09956	9390.7375
2433.88131	9392.1375
2436.6613	9391.0375
2439.43954	9393.1375
2442.21603	9386.0375
2444.99077	9377.8375
2447.76377	9434.4375
2450.53501	9414.0375
2453.30451	9403.6375
2456.07226	9375.8375
2458.83827	9389.8375
2461.60254	9385.8375
2464.36507	9402.7375
2467.12586	9401.8375
2469.88492	9385.6375
2472.64224	9408.9375
2475.39782	9415.0375
2478.15167	9396.6375
2480.90379	9450.6375
2483.65417	9465.2375
2486.40283	9484.9375
2489.14976	9509.1375
2491.89497	9506.7375
2494.63845	9516.8375
2497.3802	9477.1375
2500.12024	9477.9375
2502.85855	9491.9375
2505.59514	9450.8375
2508.33002	9425.9375
2511.06318	9389.7375
2513.79462	9343.5375
2516.52435	9337.0375
2519.25237	9287.0375
2521.97867	9287.2375
2524.70327	9263.6375
2527.42616	9254.7375
2530.14734	9244.5375
2532.86681	9258.5375
2535.58458	9257.3375
2538.30065	9259.9375
2541.01501	9255.9375
2543.72768	9246.7375
2546.43864	9249.3375
2549.14791	9226.9375
2551.85548	9223.0375
2554.56136	9237.3375
2557.26554	9219.2375
2559.96803	9212.2375
2562.66883	9191.3375
2565.36794	9178.8375
2568.06536	9216.7375
2570.7611	9171.4375
2573.45514	9155.5375
2576.14751	9156.0375
2578.83819	9140.6375
2581.52719	9127.6375
2584.21451	9111.5375
2586.90015	9123.0375
2589.58411	9103.9375
2592.2664	9092.2375
2594.94701	9084.4375
2597.62594	9099.1375
2600.30321	9098.9375
2602.9788	9106.7375
2605.65273	9100.2375
2608.32498	9105.8375
2610.99557	9117.1375
2613.66449	9120.4375
2616.33175	9126.0375
2618.99734	9147.3375
2621.66128	9149.2375
2624.32355	9135.5375
2626.98416	9127.6375
2629.64311	9108.4375
2632.30041	9095.5375
2634.95605	9059.2375
2637.61004	9075.0375
2640.26238	9046.4375
2642.91306	9050.2375
2645.56209	9033.5375
2648.20948	8982.0375
2650.85521	8980.6375
2653.4993	8971.5375
2656.14175	8981.0375
2658.78255	8997.1375
2661.42171	9010.5375
2664.05923	9026.9375
2666.6951	9055.8375
2669.32934	9084.3375
2671.96194	9105.7375
2674.59291	9104.0375
2677.22224	9067.2375
2679.84993	9082.0375
2682.476	9057.2375
2685.10043	9047.4375
2687.72324	9048.2375
2690.34441	9046.6375
2692.96396	9049.6375
2695.58188	9041.2375
2698.19818	9005.7375
2700.81285	9012.6375
2703.4259	8997.8375
2706.03733	8933.7375
2708.64714	8947.5375
2711.25533	8992.5375
2713.86191	9022.2375
2716.46687	9047.1375
2719.07021	9045.3375
2721.67194	9055.8375
2724.27206	9056.9375
2726.87057	9063.1375
2729.46747	9071.8375
2732.06276	9063.6375
2734.65644	9046.8375
2737.24852	9028.4375
2739.83899	9016.0375
2742.42786	9010.5375
2745.01513	9008.6375
2747.60079	9002.0375
2750.18486	8980.2375
2752.76733	8993.0375
2755.3482	9000.2375
2757.92747	8954.4375
2760.50515	8978.1375
2763.08123	8958.3375
2765.65573	8955.7375
2768.22863	8950.2375
2770.79994	8932.6375
2773.36967	8948.3375
2775.9378	8915.6375
2778.50435	8927.1375
2781.06932	8920.9375
2783.6327	8936.8375
2786.1945	8941.6375
2788.75471	8951.8375
2791.31335	8922.5375
2793.87041	8897.7375
2796.42589	8903.6375
2798.97979	8905.1375
2801.53212	8890.5375
2804.08288	8903.5375
2806.63206	8877.7375
2809.17967	8892.3375
2811.72571	8866.4375
2814.27018	8848.8375
2816.81308	8875.9375
2819.35442	8872.3375
2821.89419	8895.5375
2824.43239	8881.4375
2826.96904	8878.9375
2829.50412	8888.3375
2832.03763	8870.4375
2834.56959	8888.5375
2837.1	8885.2375
2839.62884	8874.3375
2842.15613	8898.2375
2844.68186	8888.7375
2847.20604	8904.3375
2849.72867	8898.1375
2852.24974	8894.9375
2854.76927	8909.5375
2857.28724	8878.0375
2859.80367	8880.0375
2862.31855	8888.0375
2864.83189	8872.2375
2867.34368	8879.2375
2869.85393	8894.6375
2872.36264	8915.4375
2874.8698	8908.2375
2877.37543	8889.9375
2879.87952	8884.6375
2882.38207	8894.4375
2884.88308	8868.6375
2887.38256	8867.9375
2889.88051	8895.3375
2892.37692	8900.0375
2894.8718	8875.2375
2897.36515	8894.5375
2899.85698	8882.0375
2902.34727	8876.6375
2904.83604	8901.4375
2907.32328	8899.6375
2909.809	8916.0375
2912.29319	8912.0375
2914.77587	8928.2375
2917.25702	8925.5375
2919.73665	8897.9375
2922.21476	8894.1375
2924.69136	8887.4375
2927.16644	8859.0375
2929.64	8863.0375
2932.11205	8830.4375
2934.58258	8801.3375
2937.05161	8806.1375
2939.51912	8827.5375
2941.98513	8809.0375
2944.44962	8783.4375
2946.91261	8748.2375
2949.37409	8748.5375
2951.83407	8753.2375
2954.29254	8729.4375
2956.74951	8715.7375
2959.20498	8722.0375
2961.65895	8711.1375
2964.11142	8688.8375
2966.56239	8657.7375
2969.01186	8655.3375
2971.45984	8647.1375
2973.90632	8625.0375
2976.35131	8600.7375
2978.7948	8564.7375
2981.23681	8566.1375
2983.67732	8544.3375
2986.11635	8514.5375
2988.55388	8521.1375
2990.98993	8524.2375
2993.4245	8477.9375
2995.85758	8495.9375
2998.28917	8461.0375
3000.71928	8449.2375
3003.14791	8438.0375
3005.57506	8431.2375
3008.00073	8425.2375
3010.42493	8416.8375
3012.84764	8413.3375
3015.26888	8429.5375
3017.68865	8382.6375
3020.10694	8370.6375
3022.52376	8363.8375
3024.9391	8334.0375
3027.35298	8315.4375
3029.76539	8325.7375
3032.17632	8291.9375
3034.5858	8272.9375
3036.9938	8252.6375
3039.40034	8263.5375
3041.80542	8257.8375
3044.20903	8222.0375
3046.61118	8240.3375
3049.01187	8218.1375
3051.4111	8215.1375
3053.80888	8192.8375
3056.20519	8161.0375
3058.60005	8142.9375
3060.99345	8148.4375
3063.3854	8125.5375
3065.7759	8092.5375
3068.16494	8092.2375
3070.55254	8034.0375
3072.93868	8022.6375
3075.32338	7993.8375
3077.70662	7971.1375
3080.08842	7971.5375
3082.46878	7963.5375
3084.84769	7916.4375
3087.22515	7949.9375
3089.60118	7926.0375
3091.97576	7918.3375
3094.3489	7944.7375
3096.72061	7912.7375
3099.09087	7907.2375
3101.4597	7920.7375
3103.82709	7911.3375
3106.19305	7911.1375
3108.55757	7898.1375
3110.92066	7878.7375
3113.28232	7883.5375
3115.64255	7841.7375
3118.00134	7855.6375
3120.35871	7837.0375
3122.71466	7827.6375
3125.06917	7827.1375
3127.42226	7809.2375
3129.77393	7802.0375
3132.12417	7811.4375
3134.47299	7796.8375
3136.82039	7807.3375
3139.16636	7783.2375
3141.51092	7795.6375
3143.85406	7781.4375
3146.19579	7794.2375
3148.53609	7801.2375
3150.87499	7803.3375
3153.21246	7804.2375
3155.54853	7847.3375
3157.88318	7829.4375
3160.21642	7826.0375
3162.54826	7833.9375
3164.87868	7820.7375
3167.2077	7821.6375
3169.5353	7835.0375
3171.86151	7826.9375
3174.18631	7824.3375
3176.5097	7826.0375
3178.83169	7814.2375
3181.15228	7805.0375
3183.47147	7793.0375
3185.78926	7799.3375
3188.10565	7810.1375
3190.42065	7825.2375
3192.73424	7822.0375
3195.04645	7791.7375
3197.35725	7820.9375
3199.66667	7792.5375
3201.97469	7831.7375
3204.28132	7813.8375
3206.58656	7820.5375
3208.8904	7838.0375
3211.19287	7843.7375
3213.49394	7846.3375
3215.79363	7871.6375
3218.09193	7891.0375
3220.38884	7869.8375
3222.68438	7853.4375
3224.97853	7863.0375
3227.2713	7852.5375
3229.56269	7854.2375
3231.8527	7863.1375
3234.14133	7825.0375
3236.42858	7831.9375
3238.71446	7823.6375
3240.99896	7793.4375
3243.28209	7795.8375
3245.56384	7777.3375
3247.84423	7809.6375
3250.12324	7787.7375
3252.40088	7810.9375
3254.67715	7798.4375
3256.95205	7800.3375
3259.22558	7806.5375
3261.49775	7777.5375
3263.76855	7786.0375
3266.03799	7787.9375
3268.30606	7762.3375
3270.57277	7762.2375
3272.83812	7745.1375
3275.10211	7738.6375
3277.36474	7732.2375
3279.62601	7713.5375
3281.88593	7709.9375
3284.14448	7715.2375
3286.40168	7725.0375
3288.65753	7716.5375
3290.91202	7716.9375
3293.16516	7700.9375
3295.41695	7693.8375
3297.66738	7649.1375
3299.91647	7602.5375
3302.16421	7552.4375
3304.4106	7533.6375
3306.65564	7499.6375
3308.89933	7422.0375
3311.14169	7376.4375
3313.38269	7306.0375
3315.62236	7269.4375
3317.86068	7202.1375
3320.09766	7142.6375
3322.3333	7100.1375
3324.5676	7080.8375
3326.80056	6912.8375
3329.03219	6906.5375
3331.26248	3.5375
3333.49143	0.0375
3335.71905	-0.7625
