Data from AgNPs_FTO_APTES_UA_50uM_CRN_0uM_R6G_10uM_NaF_0.1M_Addition_RamanShift__24__10-38-14-652.txt Node

Date: Mon Feb 21 10:38:14 GMT 2022
User: TCL
Spectrometer: QEP01345
Trigger mode: 4
Integration Time (sec): 7.000000E0
Scans to average: 10
Electric dark correction enabled: true
Nonlinearity correction enabled: false
Boxcar width: 0
XAxis mode: Raman Shifts
Number of Pixels in Spectrum: 1044
>>>>>Begin Spectral Data<<<<<
46.04893	1.1375
50.45542	-1.7625
54.85868	0.3375
59.25871	-1.0625
63.6555	43.1375
68.04907	49.7375
72.43941	46.4375
76.82654	50.7375
81.21044	51.4375
85.59113	56.0375
89.96862	59.3375
94.34289	60.5375
98.71396	62.1375
103.08183	64.2375
107.4465	62.8375
111.80798	64.9375
116.16626	64.7375
120.52136	63.6375
124.87327	73.2375
129.222	67.2375
133.56755	72.8375
137.90993	75.8375
142.24913	82.3375
146.58517	89.7375
150.91804	102.3375
155.24774	122.9375
159.57429	145.1375
163.89768	181.5375
168.21792	238.5375
172.53501	323.4375
176.84895	448.3375
181.15975	618.6375
185.46741	866.5375
189.77193	1191.9375
194.07331	1605.2375
198.37157	2058.9375
202.6667	2543.5375
206.9587	3010.9375
211.24758	3495.3375
215.53334	3963.5375
219.81599	4477.4375
224.09553	5055.2375
228.37195	5664.6375
232.64527	6356.9375
236.91549	7067.2375
241.18261	7762.7375
245.44663	8412.4375
249.70755	8964.2375
253.96539	9465.0375
258.22014	9857.4375
262.4718	10223.6375
266.72039	10430.0375
270.96589	10527.3375
275.20832	10501.6375
279.44768	10375.0375
283.68397	10225.8375
287.91719	10106.4375
292.14735	10005.9375
296.37445	9985.3375
300.59849	10046.9375
304.81948	10129.9375
309.03742	10243.0375
313.25231	10225.0375
317.46415	10152.8375
321.67296	10029.4375
325.87872	9915.2375
330.08145	9847.2375
334.28114	9856.7375
338.47781	9894.7375
342.67145	10008.3375
346.86207	10178.2375
351.04966	10407.2375
355.23424	10610.0375
359.4158	10775.3375
363.59435	10927.9375
367.76989	10982.3375
371.94243	11058.1375
376.11196	11111.3375
380.27849	11131.0375
384.44203	11228.4375
388.60257	11282.4375
392.76012	11336.7375
396.91468	11425.2375
401.06626	11588.1375
405.21485	11714.6375
409.36047	11682.0375
413.50311	11587.1375
417.64277	11539.4375
421.77947	11570.9375
425.9132	11580.7375
430.04396	11640.9375
434.17176	11720.4375
438.2966	11826.1375
442.41849	12112.1375
446.53742	12546.7375
450.6534	13013.9375
454.76644	13303.7375
458.87653	13341.5375
462.98368	13120.8375
467.08789	12787.5375
471.18916	12479.6375
475.2875	12128.3375
479.38291	11845.0375
483.4754	11710.0375
487.56496	11643.2375
491.6516	11563.5375
495.73531	11558.5375
499.81612	11585.7375
503.89401	11681.6375
507.96899	11701.0375
512.04106	11640.3375
516.11023	11607.6375
520.1765	11529.1375
524.23987	11540.4375
528.30034	11554.3375
532.35792	11511.7375
536.41261	11373.9375
540.46441	11176.3375
544.51333	11086.3375
548.55936	11128.1375
552.60252	11313.6375
556.64279	11650.9375
560.6802	11901.9375
564.71473	11977.1375
568.7464	12046.1375
572.7752	12251.2375
576.80114	12488.8375
580.82422	12828.3375
584.84444	13444.2375
588.86181	14387.9375
592.87633	15440.6375
596.888	15722.3375
600.89682	14841.1375
604.9028	14247.6375
608.90594	14970.0375
612.90624	16133.7375
616.90371	15407.7375
620.89834	13149.0375
624.89015	12034.0375
628.87913	11825.2375
632.86528	11832.4375
636.84862	11731.5375
640.82913	11485.8375
644.80683	11237.8375
648.78172	11070.1375
652.75379	11107.6375
656.72306	11270.7375
660.68952	11487.6375
664.65319	11460.9375
668.61405	11231.5375
672.57211	11229.0375
676.52738	11309.2375
680.47986	11299.1375
684.42955	11151.8375
688.37646	11101.9375
692.32058	11188.5375
696.26192	11404.0375
700.20048	11581.8375
704.13626	11655.4375
708.06928	11605.3375
711.99952	11523.6375
715.927	11570.2375
719.85171	11713.1375
723.77365	11704.9375
727.69284	11503.2375
731.60928	11335.0375
735.52295	11318.3375
739.43388	11329.1375
743.34206	11409.5375
747.24749	11448.4375
751.15017	11518.9375
755.05012	11629.3375
758.94733	11928.8375
762.8418	12389.5375
766.73354	13183.9375
770.62254	13965.2375
774.50882	14249.8375
778.39237	13824.5375
782.27321	13013.9375
786.15132	12308.1375
790.02671	11800.3375
793.89938	11556.2375
797.76935	11468.2375
801.6366	11450.6375
805.50115	11454.2375
809.36299	11453.0375
813.22213	11358.2375
817.07857	11256.2375
820.93231	11203.6375
824.78336	11174.9375
828.63172	11174.9375
832.47738	11188.1375
836.32036	11206.8375
840.16066	11248.9375
843.99827	11270.4375
847.8332	11279.9375
851.66546	11232.6375
855.49504	11203.8375
859.32195	11216.9375
863.1462	11202.1375
866.96777	11136.4375
870.78668	11118.7375
874.60293	11141.5375
878.41652	11173.1375
882.22745	11287.3375
886.03573	11322.7375
889.84136	11320.4375
893.64433	11247.7375
897.44466	11192.7375
901.24235	11170.9375
905.0374	11102.0375
908.8298	11061.3375
912.61957	11079.6375
916.40671	11122.8375
920.19121	11270.1375
923.97308	11421.9375
927.75233	11518.4375
931.52895	11540.5375
935.30295	11354.5375
939.07433	11176.5375
942.84309	11018.4375
946.60924	10971.9375
950.37278	10959.0375
954.13371	10915.0375
957.89203	10883.4375
961.64774	10845.2375
965.40086	10853.6375
969.15137	10829.7375
972.89929	10838.8375
976.64461	10835.1375
980.38733	10868.4375
984.12747	10890.7375
987.86502	10992.2375
991.59999	11093.8375
995.33237	11298.5375
999.06217	11568.8375
1002.78939	11934.1375
1006.51404	12195.6375
1010.23611	12392.0375
1013.95561	12506.0375
1017.67255	12540.7375
1021.38692	12392.1375
1025.09872	12201.0375
1028.80796	12236.9375
1032.51465	12459.4375
1036.21877	12720.2375
1039.92035	12835.7375
1043.61937	12709.6375
1047.31584	12487.9375
1051.00976	12192.4375
1054.70114	11984.6375
1058.38998	11934.1375
1062.07627	11910.9375
1065.76003	11925.6375
1069.44126	11997.7375
1073.11995	12181.1375
1076.79611	12364.7375
1080.46974	12501.9375
1084.14085	12665.7375
1087.80943	12774.5375
1091.47549	12857.5375
1095.13903	12789.9375
1098.80005	12540.7375
1102.45857	12276.7375
1106.11456	12137.5375
1109.76805	12103.2375
1113.41903	12164.4375
1117.06751	12223.0375
1120.71348	12340.6375
1124.35696	12474.5375
1127.99793	12632.6375
1131.63641	12692.1375
1135.2724	12645.3375
1138.90589	12562.8375
1142.5369	12531.1375
1146.16542	12540.5375
1149.79145	12584.7375
1153.415	12653.5375
1157.03607	12739.1375
1160.65467	12980.4375
1164.27079	13480.0375
1167.88443	14113.0375
1171.49561	14858.4375
1175.10432	15944.0375
1178.71056	17323.2375
1182.31434	18681.0375
1185.91565	19216.9375
1189.51451	18874.4375
1193.11091	18110.3375
1196.70485	17306.8375
1200.29634	16612.2375
1203.88538	16094.0375
1207.47197	15734.2375
1211.05612	15430.8375
1214.63782	15140.8375
1218.21708	14988.2375
1221.79391	14951.5375
1225.36829	15003.5375
1228.94024	14881.2375
1232.50976	14556.2375
1236.07685	14165.8375
1239.6415	13901.9375
1243.20374	13843.0375
1246.76355	13891.9375
1250.32093	14063.3375
1253.8759	14374.9375
1257.42845	14745.0375
1260.97859	15210.6375
1264.52631	15688.2375
1268.07163	16171.3375
1271.61453	16657.4375
1275.15503	17119.2375
1278.69312	17657.4375
1282.22882	18159.8375
1285.76211	18779.9375
1289.29301	19472.2375
1292.82151	20269.4375
1296.34761	21287.8375
1299.87133	22625.5375
1303.39266	24112.8375
1306.9116	25602.5375
1310.42815	26873.4375
1313.94233	27572.4375
1317.45412	27232.5375
1320.96354	26030.2375
1324.47058	24732.8375
1327.97525	23684.8375
1331.47754	23024.6375
1334.97747	22603.6375
1338.47502	22176.0375
1341.97022	21610.2375
1345.46305	21124.3375
1348.95352	21061.9375
1352.44163	21752.6375
1355.92738	23260.1375
1359.41078	25209.7375
1362.89183	26920.3375
1366.37053	26998.1375
1369.84688	24839.4375
1373.32088	21693.9375
1376.79254	19436.3375
1380.26186	18537.8375
1383.72883	18390.8375
1387.19347	18168.3375
1390.65578	17767.7375
1394.11575	17516.5375
1397.57339	17686.3375
1401.0287	17962.5375
1404.48168	18240.7375
1407.93234	18256.3375
1411.38068	18121.1375
1414.82669	17823.2375
1418.27039	17330.2375
1421.71177	16837.0375
1425.15083	16345.1375
1428.58758	16144.6375
1432.02203	16379.1375
1435.45416	16838.1375
1438.88399	17287.1375
1442.31151	17472.4375
1445.73673	17496.3375
1449.15965	17440.4375
1452.58027	17278.2375
1455.9986	17007.3375
1459.41463	16897.7375
1462.82837	17094.8375
1466.23982	17509.1375
1469.64898	17973.4375
1473.05586	18314.8375
1476.46045	18561.3375
1479.86276	18627.3375
1483.26279	18604.2375
1486.66054	18621.0375
1490.05602	18784.5375
1493.44922	18931.5375
1496.84016	18988.5375
1500.22882	19072.2375
1503.61521	19344.1375
1506.99934	19759.9375
1510.38121	20183.3375
1513.76081	20345.2375
1517.13816	20010.5375
1520.51324	19300.4375
1523.88607	18671.9375
1527.25665	18347.4375
1530.62498	18375.6375
1533.99105	18277.2375
1537.35488	18102.2375
1540.71647	17721.5375
1544.07581	17294.0375
1547.4329	16868.9375
1550.78776	16519.3375
1554.14038	16243.1375
1557.49077	16006.8375
1560.83892	15895.5375
1564.18484	15894.6375
1567.52853	15980.2375
1570.86999	16177.6375
1574.20922	16405.6375
1577.54624	16571.2375
1580.88103	16610.1375
1584.2136	16713.9375
1587.54395	17266.0375
1590.87208	18436.7375
1594.19801	19941.2375
1597.52172	21431.3375
1600.84321	21992.8375
1604.16251	21070.9375
1607.47959	19198.0375
1610.79447	17136.3375
1614.10715	15445.2375
1617.41763	14280.1375
1620.7259	13645.7375
1624.03199	13402.8375
1627.33587	13520.4375
1630.63757	13914.1375
1633.93707	14706.1375
1637.23439	16030.8375
1640.52951	18169.2375
1643.82246	20882.5375
1647.11321	22999.8375
1650.40179	23249.1375
1653.68819	21158.5375
1656.97241	18060.2375
1660.25446	15277.5375
1663.53433	13481.3375
1666.81203	12456.1375
1670.08756	11893.0375
1673.36092	11565.0375
1676.63211	11350.8375
1679.90115	11180.6375
1683.16801	11029.6375
1686.43272	10940.3375
1689.69527	10828.8375
1692.95567	10713.5375
1696.2139	10614.2375
1699.46999	10462.9375
1702.72392	10422.9375
1705.97571	10478.5375
1709.22535	10563.8375
1712.47284	10641.8375
1715.71819	10654.5375
1718.96139	10684.0375
1722.20246	10637.3375
1725.44139	10617.1375
1728.67818	10561.9375
1731.91284	10506.1375
1735.14537	10451.2375
1738.37576	10439.9375
1741.60403	10404.2375
1744.83017	10367.8375
1748.05418	10314.2375
1751.27607	10257.8375
1754.49584	10213.0375
1757.71349	10157.7375
1760.92903	10077.7375
1764.14244	10063.7375
1767.35375	10072.8375
1770.56294	10050.1375
1773.77002	10110.7375
1776.97499	10143.1375
1780.17785	10170.9375
1783.37861	10212.8375
1786.57727	10233.7375
1789.77382	10201.3375
1792.96828	10203.6375
1796.16064	10214.2375
1799.3509	10198.9375
1802.53907	10160.9375
1805.72514	10146.1375
1808.90913	10143.1375
1812.09102	10108.1375
1815.27083	10117.0375
1818.44856	10130.4375
1821.6242	10112.3375
1824.79776	10088.7375
1827.96924	10090.9375
1831.13864	10071.2375
1834.30597	10086.2375
1837.47122	10094.7375
1840.6344	10103.0375
1843.7955	10073.9375
1846.95454	10041.2375
1850.11151	10056.2375
1853.26642	10024.6375
1856.41926	10035.9375
1859.57004	10038.6375
1862.71876	10034.0375
1865.86542	10020.8375
1869.01003	10024.4375
1872.15258	10037.2375
1875.29308	10030.9375
1878.43152	10019.2375
1881.56792	10046.4375
1884.70227	10037.9375
1887.83457	9999.3375
1890.96482	9990.4375
1894.09304	9970.3375
1897.21921	9994.8375
1900.34335	9976.8375
1903.46544	9995.4375
1906.58551	9961.2375
1909.70353	9950.4375
1912.81953	9947.7375
1915.93349	9947.5375
1919.04543	9902.5375
1922.15534	9906.0375
1925.26322	9882.9375
1928.36908	9861.4375
1931.47292	9877.7375
1934.57473	9861.4375
1937.67453	9827.0375
1940.77232	9790.8375
1943.86808	9789.8375
1946.96184	9784.3375
1950.05358	9742.2375
1953.14331	9706.2375
1956.23103	9691.1375
1959.31675	9660.3375
1962.40046	9645.7375
1965.48217	9619.0375
1968.56188	9620.0375
1971.63959	9577.5375
1974.7153	9584.3375
1977.78901	9536.6375
1980.86073	9488.4375
1983.93046	9481.8375
1986.99819	9445.6375
1990.06394	9428.9375
1993.1277	9415.0375
1996.18947	9389.9375
1999.24925	9367.7375
2002.30706	9348.5375
2005.36288	9323.4375
2008.41672	9312.7375
2011.46859	9289.8375
2014.51848	9271.1375
2017.56639	9220.5375
2020.61233	9205.0375
2023.6563	9220.3375
2026.6983	9189.3375
2029.73833	9169.7375
2032.7764	9154.9375
2035.8125	9127.2375
2038.84664	9114.3375
2041.87881	9136.1375
2044.90903	9099.3375
2047.93729	9078.3375
2050.96359	9091.9375
2053.98794	9092.1375
2057.01034	9097.2375
2060.03078	9075.6375
2063.04927	9046.6375
2066.06582	9043.8375
2069.08042	9047.0375
2072.09307	9066.1375
2075.10378	9055.6375
2078.11255	9063.7375
2081.11938	9059.6375
2084.12426	9066.9375
2087.12722	9076.1375
2090.12824	9049.8375
2093.12732	9046.5375
2096.12447	9064.6375
2099.11969	9068.1375
2102.11299	9055.9375
2105.10435	9092.3375
2108.09379	9090.6375
2111.08131	9086.6375
2114.0669	9086.3375
2117.05057	9092.3375
2120.03233	9109.6375
2123.01216	9127.0375
2125.99008	9132.9375
2128.96609	9132.0375
2131.94018	9157.9375
2134.91236	9145.4375
2137.88263	9159.0375
2140.851	9158.8375
2143.81746	9176.6375
2146.78201	9185.8375
2149.74466	9191.3375
2152.7054	9212.4375
2155.66425	9194.4375
2158.6212	9196.9375
2161.57625	9193.8375
2164.52941	9195.3375
2167.48067	9183.6375
2170.43004	9174.1375
2173.37752	9203.8375
2176.32311	9166.2375
2179.26681	9194.4375
2182.20863	9179.4375
2185.14856	9219.2375
2188.08661	9213.3375
2191.02278	9229.8375
2193.95707	9229.7375
2196.88948	9196.8375
2199.82001	9206.5375
2202.74867	9221.0375
2205.67545	9196.9375
2208.60037	9204.7375
2211.52341	9184.1375
2214.44458	9186.0375
2217.36388	9169.4375
2220.28132	9188.7375
2223.1969	9159.9375
2226.11061	9144.3375
2229.02246	9119.4375
2231.93245	9139.4375
2234.84058	9103.9375
2237.74686	9108.0375
2240.65128	9082.0375
2243.55385	9075.1375
2246.45456	9069.3375
2249.35343	9058.9375
2252.25044	9056.6375
2255.14561	9024.8375
2258.03893	9020.8375
2260.93041	8962.7375
2263.82004	8963.4375
2266.70783	8938.9375
2269.59378	8945.5375
2272.4779	8944.5375
2275.36017	8937.1375
2278.24061	8921.3375
2281.11922	8895.4375
2283.996	8897.4375
2286.87094	8889.7375
2289.74405	8878.4375
2292.61534	8897.1375
2295.4848	8893.1375
2298.35243	8873.4375
2301.21824	8870.9375
2304.08223	8892.4375
2306.94439	8899.8375
2309.80474	8904.5375
2312.66327	8916.2375
2315.51999	8887.5375
2318.37489	8894.3375
2321.22797	8904.5375
2324.07925	8869.6375
2326.92871	8840.6375
2329.77637	8871.2375
2332.62222	8858.4375
2335.46626	8836.6375
2338.3085	8842.6375
2341.14893	8820.1375
2343.98756	8835.9375
2346.8244	8859.7375
2349.65943	8850.7375
2352.49267	8844.3375
2355.32411	8858.1375
2358.15376	8848.0375
2360.98161	8827.7375
2363.80768	8837.8375
2366.63195	8812.8375
2369.45444	8787.1375
2372.27514	8786.8375
2375.09405	8773.1375
2377.91118	8763.3375
2380.72652	8758.4375
2383.54009	8741.3375
2386.35187	8732.5375
2389.16188	8720.7375
2391.97011	8720.8375
2394.77657	8695.9375
2397.58125	8706.4375
2400.38416	8688.8375
2403.18529	8687.0375
2405.98466	8671.9375
2408.78226	8661.6375
2411.57809	8636.2375
2414.37216	8630.9375
2417.16446	8651.5375
2419.955	8621.5375
2422.74378	8616.4375
2425.5308	8611.0375
2428.31606	8607.0375
2431.09956	8602.5375
2433.88131	8596.7375
2436.6613	8635.2375
2439.43954	8615.5375
2442.21603	8608.0375
2444.99077	8611.1375
2447.76377	8609.1375
2450.53501	8581.5375
2453.30451	8608.6375
2456.07226	8577.6375
2458.83827	8573.3375
2461.60254	8579.9375
2464.36507	8537.9375
2467.12586	8552.0375
2469.88492	8559.7375
2472.64224	8580.0375
2475.39782	8560.3375
2478.15167	8580.6375
2480.90379	8585.9375
2483.65417	8590.3375
2486.40283	8584.9375
2489.14976	8626.6375
2491.89497	8610.2375
2494.63845	8621.2375
2497.3802	8584.4375
2500.12024	8596.3375
2502.85855	8596.1375
2505.59514	8592.9375
2508.33002	8585.6375
2511.06318	8593.5375
2513.79462	8573.3375
2516.52435	8568.9375
2519.25237	8575.7375
2521.97867	8548.9375
2524.70327	8524.5375
2527.42616	8550.4375
2530.14734	8534.3375
2532.86681	8549.7375
2535.58458	8562.7375
2538.30065	8554.5375
2541.01501	8557.4375
2543.72768	8516.4375
2546.43864	8519.8375
2549.14791	8503.1375
2551.85548	8513.2375
2554.56136	8490.1375
2557.26554	8481.9375
2559.96803	8474.5375
2562.66883	8487.0375
2565.36794	8466.2375
2568.06536	8480.7375
2570.7611	8483.1375
2573.45514	8482.9375
2576.14751	8471.2375
2578.83819	8460.9375
2581.52719	8474.3375
2584.21451	8446.9375
2586.90015	8418.4375
2589.58411	8427.4375
2592.2664	8415.2375
2594.94701	8424.9375
2597.62594	8414.6375
2600.30321	8432.6375
2602.9788	8418.5375
2605.65273	8384.1375
2608.32498	8426.1375
2610.99557	8429.4375
2613.66449	8421.8375
2616.33175	8415.8375
2618.99734	8411.5375
2621.66128	8399.0375
2624.32355	8378.4375
2626.98416	8389.7375
2629.64311	8377.3375
2632.30041	8391.9375
2634.95605	8360.0375
2637.61004	8346.0375
2640.26238	8332.8375
2642.91306	8352.3375
2645.56209	8327.8375
2648.20948	8329.4375
2650.85521	8303.3375
2653.4993	8332.7375
2656.14175	8347.3375
2658.78255	8341.6375
2661.42171	8352.7375
2664.05923	8365.9375
2666.6951	8391.2375
2669.32934	8387.1375
2671.96194	8374.6375
2674.59291	8376.0375
2677.22224	8387.8375
2679.84993	8392.2375
2682.476	8371.5375
2685.10043	8393.9375
2687.72324	8387.7375
2690.34441	8358.3375
2692.96396	8367.2375
2695.58188	8354.5375
2698.19818	8362.8375
2700.81285	8371.6375
2703.4259	8337.2375
2706.03733	8245.0375
2708.64714	8282.2375
2711.25533	8355.8375
2713.86191	8376.4375
2716.46687	8410.1375
2719.07021	8444.0375
2721.67194	8418.3375
2724.27206	8437.8375
2726.87057	8424.6375
2729.46747	8447.6375
2732.06276	8439.2375
2734.65644	8444.5375
2737.24852	8431.5375
2739.83899	8447.6375
2742.42786	8459.7375
2745.01513	8428.0375
2747.60079	8449.7375
2750.18486	8451.8375
2752.76733	8416.1375
2755.3482	8408.5375
2757.92747	8400.2375
2760.50515	8386.3375
2763.08123	8399.5375
2765.65573	8397.5375
2768.22863	8398.2375
2770.79994	8381.8375
2773.36967	8417.9375
2775.9378	8400.0375
2778.50435	8402.5375
2781.06932	8401.4375
2783.6327	8395.1375
2786.1945	8391.4375
2788.75471	8393.2375
2791.31335	8372.5375
2793.87041	8323.1375
2796.42589	8350.8375
2798.97979	8344.2375
2801.53212	8309.0375
2804.08288	8310.6375
2806.63206	8315.7375
2809.17967	8290.5375
2811.72571	8270.1375
2814.27018	8266.9375
2816.81308	8224.1375
2819.35442	8249.7375
2821.89419	8238.3375
2824.43239	8235.4375
2826.96904	8226.0375
2829.50412	8239.0375
2832.03763	8201.6375
2834.56959	8221.0375
2837.1	8204.8375
2839.62884	8220.2375
2842.15613	8220.5375
2844.68186	8260.9375
2847.20604	8242.6375
2849.72867	8281.6375
2852.24974	8252.9375
2854.76927	8241.2375
2857.28724	8204.1375
2859.80367	8238.3375
2862.31855	8214.8375
2864.83189	8213.8375
2867.34368	8206.5375
2869.85393	8234.8375
2872.36264	8224.1375
2874.8698	8233.5375
2877.37543	8248.2375
2879.87952	8211.7375
2882.38207	8245.3375
2884.88308	8248.5375
2887.38256	8267.0375
2889.88051	8283.6375
2892.37692	8277.8375
2894.8718	8282.2375
2897.36515	8277.6375
2899.85698	8295.8375
2902.34727	8322.5375
2904.83604	8322.5375
2907.32328	8320.0375
2909.809	8321.8375
2912.29319	8335.4375
2914.77587	8341.3375
2917.25702	8332.6375
2919.73665	8339.9375
2922.21476	8349.2375
2924.69136	8322.7375
2927.16644	8337.3375
2929.64	8311.8375
2932.11205	8308.4375
2934.58258	8276.7375
2937.05161	8290.2375
2939.51912	8278.3375
2941.98513	8271.4375
2944.44962	8242.5375
2946.91261	8227.8375
2949.37409	8256.0375
2951.83407	8253.9375
2954.29254	8246.2375
2956.74951	8226.4375
2959.20498	8231.0375
2961.65895	8215.3375
2964.11142	8221.0375
2966.56239	8213.2375
2969.01186	8211.2375
2971.45984	8196.1375
2973.90632	8190.3375
2976.35131	8158.5375
2978.7948	8134.9375
2981.23681	8123.0375
2983.67732	8128.1375
2986.11635	8103.1375
2988.55388	8098.0375
2990.98993	8053.8375
2993.4245	8061.0375
2995.85758	8058.3375
2998.28917	8025.4375
3000.71928	8008.0375
3003.14791	7992.8375
3005.57506	7995.3375
3008.00073	7984.4375
3010.42493	7977.2375
3012.84764	7965.9375
3015.26888	7968.3375
3017.68865	7941.1375
3020.10694	7938.4375
3022.52376	7908.7375
3024.9391	7914.8375
3027.35298	7908.2375
3029.76539	7913.8375
3032.17632	7927.2375
3034.5858	7886.0375
3036.9938	7904.8375
3039.40034	7918.8375
3041.80542	7880.1375
3044.20903	7879.0375
3046.61118	7872.6375
3049.01187	7855.5375
3051.4111	7882.8375
3053.80888	7869.1375
3056.20519	7850.6375
3058.60005	7846.7375
3060.99345	7829.4375
3063.3854	7818.0375
3065.7759	7810.6375
3068.16494	7789.6375
3070.55254	7780.1375
3072.93868	7772.0375
3075.32338	7754.2375
3077.70662	7722.8375
3080.08842	7709.4375
3082.46878	7738.8375
3084.84769	7723.4375
3087.22515	7789.0375
3089.60118	7722.6375
3091.97576	7709.1375
3094.3489	7717.9375
3096.72061	7722.1375
3099.09087	7717.6375
3101.4597	7732.6375
3103.82709	7709.6375
3106.19305	7722.1375
3108.55757	7704.1375
3110.92066	7706.2375
3113.28232	7701.3375
3115.64255	7696.5375
3118.00134	7672.1375
3120.35871	7661.3375
3122.71466	7672.6375
3125.06917	7657.4375
3127.42226	7649.5375
3129.77393	7639.8375
3132.12417	7639.7375
3134.47299	7621.8375
3136.82039	7655.3375
3139.16636	7635.5375
3141.51092	7658.9375
3143.85406	7637.1375
3146.19579	7662.7375
3148.53609	7654.1375
3150.87499	7671.4375
3153.21246	7662.6375
3155.54853	7692.2375
3157.88318	7683.7375
3160.21642	7695.5375
3162.54826	7683.1375
3164.87868	7708.9375
3167.2077	7697.3375
3169.5353	7699.4375
3171.86151	7694.6375
3174.18631	7703.0375
3176.5097	7682.1375
3178.83169	7658.9375
3181.15228	7691.6375
3183.47147	7676.6375
3185.78926	7687.1375
3188.10565	7690.7375
3190.42065	7659.3375
3192.73424	7662.8375
3195.04645	7662.7375
3197.35725	7674.1375
3199.66667	7663.5375
3201.97469	7673.9375
3204.28132	7659.8375
3206.58656	7702.2375
3208.8904	7700.0375
3211.19287	7706.7375
3213.49394	7725.1375
3215.79363	7716.9375
3218.09193	7699.9375
3220.38884	7696.4375
3222.68438	7677.7375
3224.97853	7703.0375
3227.2713	7720.8375
3229.56269	7717.2375
3231.8527	7732.7375
3234.14133	7702.0375
3236.42858	7689.4375
3238.71446	7664.8375
3240.99896	7679.8375
3243.28209	7679.0375
3245.56384	7660.7375
3247.84423	7663.2375
3250.12324	7649.5375
3252.40088	7633.4375
3254.67715	7649.0375
3256.95205	7647.1375
3259.22558	7651.1375
3261.49775	7636.6375
3263.76855	7645.1375
3266.03799	7613.8375
3268.30606	7603.3375
3270.57277	7610.5375
3272.83812	7570.4375
3275.10211	7596.3375
3277.36474	7554.7375
3279.62601	7599.5375
3281.88593	7575.1375
3284.14448	7578.9375
3286.40168	7575.0375
3288.65753	7588.7375
3290.91202	7571.3375
3293.16516	7552.1375
3295.41695	7533.7375
3297.66738	7499.0375
3299.91647	7455.6375
3302.16421	7404.9375
3304.4106	7397.6375
3306.65564	7366.0375
3308.89933	7290.6375
3311.14169	7252.6375
3313.38269	7208.8375
3315.62236	7173.5375
3317.86068	7103.8375
3320.09766	7050.4375
3322.3333	7014.0375
3324.5676	6993.0375
3326.80056	6867.8375
3329.03219	6824.7375
3331.26248	2.1375
3333.49143	-0.9625
3335.71905	-0.1625
