Data from AgNPs_FTO_APTES_UA_0um_CRN_0.1mM_R6G_10uM_NaF_0.1M_Addition_RamanShift__67__11-29-28-978.txt Node

Date: Tue Dec 21 11:29:28 GMT 2021
User: TCL
Spectrometer: QEP01345
Trigger mode: 4
Integration Time (sec): 7.000000E0
Scans to average: 10
Electric dark correction enabled: true
Nonlinearity correction enabled: false
Boxcar width: 0
XAxis mode: Raman Shifts
Number of Pixels in Spectrum: 1044
>>>>>Begin Spectral Data<<<<<
46.04893	-0.8
50.45542	-0.4
54.85868	-2.6
59.25871	0.9
63.6555	42.8
68.04907	47.1
72.43941	49.1
76.82654	48.8
81.21044	56.2
85.59113	57.4
89.96862	57.2
94.34289	59.4
98.71396	62.5
103.08183	64.4
107.4465	65.2
111.80798	69.3
116.16626	69.3
120.52136	71.8
124.87327	73.2
129.222	73.4
133.56755	81.9
137.90993	93.6
142.24913	94.7
146.58517	105.7
150.91804	120.6
155.24774	141.9
159.57429	175.5
163.89768	227.3
168.21792	298.5
172.53501	401.7
176.84895	563.2
181.15975	791.9
185.46741	1094.5
189.77193	1507.2
194.07331	2025.7
198.37157	2600.8
202.6667	3217.6
206.9587	3854.9
211.24758	4463.9
215.53334	5093.7
219.81599	5761
224.09553	6468.3
228.37195	7287.7
232.64527	8150.3
236.91549	9023.5
241.18261	9872.7
245.44663	10650.1
249.70755	11373.2
253.96539	11968
258.22014	12456.9
262.4718	12917.6
266.72039	13205.1
270.96589	13314.2
275.20832	13309
279.44768	13171
283.68397	13043
287.91719	12894.5
292.14735	12808
296.37445	12784.8
300.59849	12865.2
304.81948	13014.2
309.03742	13106.7
313.25231	13084.7
317.46415	12930.8
321.67296	12623.4
325.87872	12379.8
330.08145	12279.2
334.28114	12296
338.47781	12408.3
342.67145	12513
346.86207	12659.8
351.04966	12866.3
355.23424	13195.1
359.4158	13451.2
363.59435	13614.6
367.76989	13712.5
371.94243	13759.8
376.11196	13785.8
380.27849	13867.9
384.44203	13946.9
388.60257	14009.5
392.76012	14047.4
396.91468	14204.4
401.06626	14461.2
405.21485	14675.5
409.36047	14706.5
413.50311	14534
417.64277	14428.3
421.77947	14444.9
425.9132	14508.5
430.04396	14688.5
434.17176	14876.6
438.2966	15203.5
442.41849	15779.6
446.53742	16711
450.6534	17663.4
454.76644	18212.5
458.87653	18144.2
462.98368	17572.1
467.08789	16878.3
471.18916	16344.6
475.2875	15870.6
479.38291	15613.3
483.4754	15401
487.56496	15185.1
491.6516	14857.2
495.73531	14571
499.81612	14410.4
503.89401	14411.3
507.96899	14374.1
512.04106	14274.1
516.11023	14136.1
520.1765	14053.6
524.23987	14079.9
528.30034	14137.3
532.35792	14135.8
536.41261	13896.7
540.46441	13535.5
544.51333	13396
548.55936	13496
552.60252	13841.2
556.64279	14347.2
560.6802	14805
564.71473	15083.6
568.7464	15433.1
572.7752	15842
576.80114	15986.2
580.82422	16143.7
584.84444	16613.5
588.86181	17648.5
592.87633	19157.1
596.888	20059.4
600.89682	19435.7
604.9028	18896.1
608.90594	19775.3
612.90624	20971.4
616.90371	19604.8
620.89834	16164.4
624.89015	14526.9
628.87913	14356.3
632.86528	14341.6
636.84862	14116.6
640.82913	13724.7
644.80683	13312.4
648.78172	13049.7
652.75379	13036.9
656.72306	13275.8
660.68952	13604.7
664.65319	13568.8
668.61405	13255.3
672.57211	13183.1
676.52738	13213.7
680.47986	13144.6
684.42955	13038.5
688.37646	12964.8
692.32058	13066.3
696.26192	13263.3
700.20048	13499.5
704.13626	13624
708.06928	13514.8
711.99952	13391.1
715.927	13370.8
719.85171	13463.1
723.77365	13456.9
727.69284	13300.1
731.60928	13117.7
735.52295	13182.2
739.43388	13241.3
743.34206	13307.6
747.24749	13340.4
751.15017	13460.2
755.05012	13665.3
758.94733	14071
762.8418	14782.9
766.73354	15928.8
770.62254	17077.1
774.50882	17411
778.39237	16727.6
782.27321	15515.9
786.15132	14376.5
790.02671	13637.5
793.89938	13368
797.76935	13224.6
801.6366	13213.8
805.50115	13190.8
809.36299	13129.1
813.22213	13050.5
817.07857	12973.2
820.93231	12964.5
824.78336	12921.5
828.63172	12967
832.47738	12986.9
836.32036	13032.3
840.16066	13112.8
843.99827	13166.5
847.8332	13070.9
851.66546	12973.4
855.49504	12905.7
859.32195	12891.5
863.1462	12834.4
866.96777	12740.8
870.78668	12715.2
874.60293	12690.2
878.41652	12716.5
882.22745	12778.9
886.03573	12833.5
889.84136	12801.9
893.64433	12729.9
897.44466	12639.7
901.24235	12572
905.0374	12527.6
908.8298	12471.6
912.61957	12505.6
916.40671	12590.7
920.19121	12762.6
923.97308	12964.8
927.75233	13138.4
931.52895	13160
935.30295	12953.9
939.07433	12659.7
942.84309	12409.5
946.60924	12311.9
950.37278	12306.4
954.13371	12251.2
957.89203	12171.9
961.64774	12096.8
965.40086	12093.9
969.15137	12047.7
972.89929	12004.5
976.64461	11987.8
980.38733	12012.2
984.12747	12108.3
987.86502	12295.1
991.59999	12489.7
995.33237	12833.4
999.06217	13402
1002.78939	14072.7
1006.51404	14450.8
1010.23611	14581.7
1013.95561	14664.7
1017.67255	14599.2
1021.38692	14267.8
1025.09872	13877.7
1028.80796	13903.5
1032.51465	14337
1036.21877	14794.3
1039.92035	14915.3
1043.61937	14707.3
1047.31584	14274
1051.00976	13836.8
1054.70114	13528.8
1058.38998	13421.1
1062.07627	13358.5
1065.76003	13387
1069.44126	13436.9
1073.11995	13632.5
1076.79611	13847.1
1080.46974	14009.3
1084.14085	14189.6
1087.80943	14422.9
1091.47549	14548.1
1095.13903	14504.1
1098.80005	14232.5
1102.45857	13855.4
1106.11456	13622.4
1109.76805	13636
1113.41903	13703.5
1117.06751	13807.1
1120.71348	13972.1
1124.35696	14189.4
1127.99793	14374.7
1131.63641	14479.9
1135.2724	14323.7
1138.90589	14182.2
1142.5369	14162.8
1146.16542	14218
1149.79145	14334.6
1153.415	14466.3
1157.03607	14650.8
1160.65467	15010.7
1164.27079	15661.2
1167.88443	16661.4
1171.49561	18028.3
1175.10432	19797.3
1178.71056	22137.6
1182.31434	24261.5
1185.91565	25177.5
1189.51451	24708.1
1193.11091	23477.6
1196.70485	22066.8
1200.29634	20788
1203.88538	19740.8
1207.47197	19019.6
1211.05612	18551.6
1214.63782	18239.8
1218.21708	18251
1221.79391	18588.6
1225.36829	18795.3
1228.94024	18491.8
1232.50976	17741.7
1236.07685	17086.6
1239.6415	16689.8
1243.20374	16657.5
1246.76355	16764.2
1250.32093	17024
1253.8759	17515.3
1257.42845	18164.1
1260.97859	18838.1
1264.52631	19440
1268.07163	20093.3
1271.61453	20644
1275.15503	21210.1
1278.69312	21785.7
1282.22882	22530.2
1285.76211	23380.9
1289.29301	24458.2
1292.82151	25698.7
1296.34761	27154
1299.87133	28943
1303.39266	31023.6
1306.9116	33428.5
1310.42815	35950.6
1313.94233	37894.7
1317.45412	38239.8
1320.96354	37087.7
1324.47058	35229.9
1327.97525	33332.6
1331.47754	31924.3
1334.97747	31189.2
1338.47502	30756.2
1341.97022	29899.9
1345.46305	28743.2
1348.95352	28111.9
1352.44163	28587.6
1355.92738	30311.1
1359.41078	32931.4
1362.89183	35230.4
1366.37053	35664.8
1369.84688	33009.3
1373.32088	28627
1376.79254	25434.7
1380.26186	24288
1383.72883	24202.1
1387.19347	24023.8
1390.65578	23501.2
1394.11575	23389.3
1397.57339	24039.5
1401.0287	25037.4
1404.48168	25949.3
1407.93234	26276.4
1411.38068	25970.3
1414.82669	25031.9
1418.27039	23689.8
1421.71177	22280.2
1425.15083	21106.5
1428.58758	20662
1432.02203	20897.5
1435.45416	21618.2
1438.88399	22386.9
1442.31151	22848.3
1445.73673	23317.5
1449.15965	23711.8
1452.58027	23756.4
1455.9986	23321.9
1459.41463	22996.7
1462.82837	23176.4
1466.23982	23844.2
1469.64898	24646.3
1473.05586	25146.3
1476.46045	25396.9
1479.86276	25562.6
1483.26279	25441.1
1486.66054	25251.3
1490.05602	25172.5
1493.44922	25045.3
1496.84016	24527.5
1500.22882	23986.6
1503.61521	23820.5
1506.99934	24038.7
1510.38121	24502.7
1513.76081	24787.3
1517.13816	24426.9
1520.51324	23568.2
1523.88607	22761.3
1527.25665	22449.7
1530.62498	22533.9
1533.99105	22665.8
1537.35488	22678.9
1540.71647	22488.8
1544.07581	21973.9
1547.4329	21346.5
1550.78776	20638.3
1554.14038	19967.9
1557.49077	19446.5
1560.83892	19124.4
1564.18484	19052.3
1567.52853	19142.5
1570.86999	19411.2
1574.20922	19784.9
1577.54624	20127
1580.88103	20196.1
1584.2136	20426.8
1587.54395	21320.6
1590.87208	23107.9
1594.19801	25610
1597.52172	28308.9
1600.84321	29898.6
1604.16251	28920.8
1607.47959	25858.4
1610.79447	22087.5
1614.10715	18985.5
1617.41763	16984.9
1620.7259	15896.5
1624.03199	15481.4
1627.33587	15605
1630.63757	16209.3
1633.93707	17426.5
1637.23439	19529.5
1640.52951	22761
1643.82246	26890.3
1647.11321	30416.1
1650.40179	31181.1
1653.68819	28360.8
1656.97241	23686.7
1660.25446	19339.8
1663.53433	16319.4
1666.81203	14563.2
1670.08756	13544.2
1673.36092	12907.8
1676.63211	12522.5
1679.90115	12249
1683.16801	12001.6
1686.43272	11835.8
1689.69527	11725.3
1692.95567	11653.8
1696.2139	11627.2
1699.46999	11595.9
1702.72392	11546.6
1705.97571	11494.9
1709.22535	11443.3
1712.47284	11435.7
1715.71819	11411.5
1718.96139	11384.1
1722.20246	11323.2
1725.44139	11277.6
1728.67818	11245
1731.91284	11185.6
1735.14537	11142.2
1738.37576	11064.4
1741.60403	11030
1744.83017	11003.1
1748.05418	10971.5
1751.27607	10973.5
1754.49584	10980.5
1757.71349	10964.6
1760.92903	10932.7
1764.14244	10942.3
1767.35375	10937.9
1770.56294	10903.9
1773.77002	10866.7
1776.97499	10815.8
1780.17785	10795.4
1783.37861	10802.1
1786.57727	10779.4
1789.77382	10743.7
1792.96828	10721.1
1796.16064	10674.4
1799.3509	10667.1
1802.53907	10620
1805.72514	10605.7
1808.90913	10579.5
1812.09102	10551.5
1815.27083	10522.6
1818.44856	10512.2
1821.6242	10454.2
1824.79776	10462.1
1827.96924	10443.6
1831.13864	10435.1
1834.30597	10430.3
1837.47122	10417.7
1840.6344	10399.8
1843.7955	10411.9
1846.95454	10397.5
1850.11151	10380.6
1853.26642	10384.5
1856.41926	10392.3
1859.57004	10397.8
1862.71876	10384
1865.86542	10373.1
1869.01003	10376.3
1872.15258	10371.3
1875.29308	10386.5
1878.43152	10353.9
1881.56792	10332.5
1884.70227	10360.7
1887.83457	10372.3
1890.96482	10351.3
1894.09304	10339.4
1897.21921	10354.6
1900.34335	10332.4
1903.46544	10339.1
1906.58551	10337.6
1909.70353	10333.2
1912.81953	10326.7
1915.93349	10315.9
1919.04543	10296.2
1922.15534	10262.8
1925.26322	10265.2
1928.36908	10239.1
1931.47292	10213.6
1934.57473	10161.2
1937.67453	10122.4
1940.77232	10128.3
1943.86808	10076.7
1946.96184	10064.6
1950.05358	10024
1953.14331	9984
1956.23103	9980.5
1959.31675	9933.7
1962.40046	9909
1965.48217	9890.7
1968.56188	9864.3
1971.63959	9814.8
1974.7153	9787.7
1977.78901	9773.9
1980.86073	9728.9
1983.93046	9704.2
1986.99819	9673.7
1990.06394	9633.7
1993.1277	9633.1
1996.18947	9584
1999.24925	9560.8
2002.30706	9550.8
2005.36288	9505.7
2008.41672	9501.4
2011.46859	9459.9
2014.51848	9458.2
2017.56639	9428.6
2020.61233	9416.2
2023.6563	9383.5
2026.6983	9356.1
2029.73833	9363.7
2032.7764	9330.5
2035.8125	9308.4
2038.84664	9296.9
2041.87881	9299.4
2044.90903	9281.9
2047.93729	9262
2050.96359	9288.9
2053.98794	9274.5
2057.01034	9255.8
2060.03078	9244
2063.04927	9228.9
2066.06582	9221.1
2069.08042	9204.1
2072.09307	9197.4
2075.10378	9187.5
2078.11255	9179.8
2081.11938	9203
2084.12426	9172.3
2087.12722	9177.7
2090.12824	9166.8
2093.12732	9180.5
2096.12447	9169.7
2099.11969	9163.7
2102.11299	9166.5
2105.10435	9177.5
2108.09379	9179.1
2111.08131	9173.7
2114.0669	9172.9
2117.05057	9166.9
2120.03233	9189.4
2123.01216	9176.6
2125.99008	9200.1
2128.96609	9173.7
2131.94018	9180.4
2134.91236	9181.9
2137.88263	9207.6
2140.851	9196.8
2143.81746	9222.6
2146.78201	9196.1
2149.74466	9198.6
2152.7054	9196.4
2155.66425	9212.5
2158.6212	9208
2161.57625	9208.4
2164.52941	9205.3
2167.48067	9191.1
2170.43004	9173.5
2173.37752	9214
2176.32311	9176.5
2179.26681	9192.3
2182.20863	9176.1
2185.14856	9205.4
2188.08661	9197.5
2191.02278	9205.5
2193.95707	9211.1
2196.88948	9185.9
2199.82001	9210.2
2202.74867	9184.8
2205.67545	9192.3
2208.60037	9164.3
2211.52341	9149.8
2214.44458	9163.2
2217.36388	9116.5
2220.28132	9145.2
2223.1969	9111.3
2226.11061	9110.8
2229.02246	9083.9
2231.93245	9069.3
2234.84058	9041.9
2237.74686	9016.1
2240.65128	9014.3
2243.55385	8994.2
2246.45456	9014.5
2249.35343	8983.8
2252.25044	8975.9
2255.14561	8949.7
2258.03893	8937.2
2260.93041	8946.1
2263.82004	8905.3
2266.70783	8880
2269.59378	8841.7
2272.4779	8836.5
2275.36017	8803.6
2278.24061	8791.3
2281.11922	8764.5
2283.996	8768.1
2286.87094	8758.7
2289.74405	8743.3
2292.61534	8749.7
2295.4848	8737.2
2298.35243	8747.3
2301.21824	8749.2
2304.08223	8740.8
2306.94439	8743.2
2309.80474	8747.5
2312.66327	8746.3
2315.51999	8742.1
2318.37489	8730.9
2321.22797	8715.1
2324.07925	8705.4
2326.92871	8712.7
2329.77637	8716.4
2332.62222	8708.1
2335.46626	8682.9
2338.3085	8686.6
2341.14893	8725.1
2343.98756	8696.4
2346.8244	8704.4
2349.65943	8701.3
2352.49267	8688.2
2355.32411	8677.5
2358.15376	8662.3
2360.98161	8664.6
2363.80768	8630.7
2366.63195	8632.8
2369.45444	8650.5
2372.27514	8641.5
2375.09405	8604.1
2377.91118	8606
2380.72652	8572
2383.54009	8549.5
2386.35187	8550.6
2389.16188	8498.6
2391.97011	8491.7
2394.77657	8512.3
2397.58125	8475.7
2400.38416	8475
2403.18529	8474.9
2405.98466	8464
2408.78226	8424.6
2411.57809	8392.3
2414.37216	8398
2417.16446	8391.5
2419.955	8381.4
2422.74378	8361.8
2425.5308	8365.7
2428.31606	8369
2431.09956	8334.1
2433.88131	8323.8
2436.6613	8365.7
2439.43954	8348.4
2442.21603	8331.9
2444.99077	8325.5
2447.76377	8336.9
2450.53501	8326.8
2453.30451	8317.7
2456.07226	8319
2458.83827	8317.8
2461.60254	8324.5
2464.36507	8332
2467.12586	8330
2469.88492	8329.4
2472.64224	8340.9
2475.39782	8346.3
2478.15167	8341.9
2480.90379	8355.7
2483.65417	8348.5
2486.40283	8342
2489.14976	8384.2
2491.89497	8356.9
2494.63845	8383.2
2497.3802	8386.1
2500.12024	8376.6
2502.85855	8372.6
2505.59514	8362.3
2508.33002	8345.9
2511.06318	8325.6
2513.79462	8312.4
2516.52435	8314.6
2519.25237	8295.5
2521.97867	8288
2524.70327	8303
2527.42616	8269
2530.14734	8244.4
2532.86681	8244.7
2535.58458	8247
2538.30065	8229.3
2541.01501	8252.8
2543.72768	8241.8
2546.43864	8215.9
2549.14791	8212.6
2551.85548	8224.9
2554.56136	8214.5
2557.26554	8211.1
2559.96803	8217.6
2562.66883	8213.2
2565.36794	8214.5
2568.06536	8212.9
2570.7611	8223.7
2573.45514	8219
2576.14751	8193.9
2578.83819	8206.8
2581.52719	8195.7
2584.21451	8191.4
2586.90015	8218.6
2589.58411	8206.3
2592.2664	8183.6
2594.94701	8164.1
2597.62594	8160.8
2600.30321	8147.3
2602.9788	8144.1
2605.65273	8167.3
2608.32498	8153.5
2610.99557	8169.1
2613.66449	8156.7
2616.33175	8145.2
2618.99734	8151.8
2621.66128	8133.1
2624.32355	8139.1
2626.98416	8132
2629.64311	8149
2632.30041	8136.7
2634.95605	8131.9
2637.61004	8130.2
2640.26238	8157
2642.91306	8120.8
2645.56209	8092.4
2648.20948	8097.5
2650.85521	8087.9
2653.4993	8096.4
2656.14175	8116.4
2658.78255	8106.5
2661.42171	8115.9
2664.05923	8123
2666.6951	8127.7
2669.32934	8125.5
2671.96194	8137.4
2674.59291	8130.7
2677.22224	8122.4
2679.84993	8120.1
2682.476	8111.6
2685.10043	8092.4
2687.72324	8087.3
2690.34441	8105
2692.96396	8081.1
2695.58188	8087.7
2698.19818	8072.5
2700.81285	8096.8
2703.4259	8119.7
2706.03733	8173.1
2708.64714	8160.8
2711.25533	8163.9
2713.86191	8147.6
2716.46687	8154.2
2719.07021	8161.5
2721.67194	8166.1
2724.27206	8130.9
2726.87057	8160.7
2729.46747	8181.4
2732.06276	8190.1
2734.65644	8171.8
2737.24852	8175.3
2739.83899	8145.5
2742.42786	8147.4
2745.01513	8125
2747.60079	8138.7
2750.18486	8117.3
2752.76733	8125.6
2755.3482	8132.8
2757.92747	8157.4
2760.50515	8142.5
2763.08123	8138.3
2765.65573	8116.4
2768.22863	8142.7
2770.79994	8117.6
2773.36967	8155.7
2775.9378	8158.6
2778.50435	8171
2781.06932	8129
2783.6327	8149.6
2786.1945	8166.8
2788.75471	8154.5
2791.31335	8115.8
2793.87041	8102.9
2796.42589	8086.9
2798.97979	8104.3
2801.53212	8086
2804.08288	8076.6
2806.63206	8074.1
2809.17967	8066.5
2811.72571	8054.5
2814.27018	8053.7
2816.81308	8031.2
2819.35442	8011.3
2821.89419	8003.3
2824.43239	8016.1
2826.96904	8021.7
2829.50412	8036.9
2832.03763	8001.7
2834.56959	8004.9
2837.1	7991.2
2839.62884	8028.8
2842.15613	8036.4
2844.68186	8087.6
2847.20604	8137.2
2849.72867	8140.4
2852.24974	8123.6
2854.76927	8143.4
2857.28724	8140.7
2859.80367	8121.2
2862.31855	8100.6
2864.83189	8089.4
2867.34368	8084.8
2869.85393	8072.3
2872.36264	8051
2874.8698	8080.6
2877.37543	8051.9
2879.87952	8069.8
2882.38207	8080.4
2884.88308	8063.6
2887.38256	8068.6
2889.88051	8080
2892.37692	8078.2
2894.8718	8095.4
2897.36515	8102.8
2899.85698	8092.5
2902.34727	8146.3
2904.83604	8151.1
2907.32328	8168.3
2909.809	8149
2912.29319	8155.9
2914.77587	8152.4
2917.25702	8150.5
2919.73665	8130.1
2922.21476	8138.9
2924.69136	8133.1
2927.16644	8146.7
2929.64	8116.9
2932.11205	8118.7
2934.58258	8064.7
2937.05161	8082.6
2939.51912	8083.8
2941.98513	8055.4
2944.44962	8018.3
2946.91261	7981.1
2949.37409	7985.3
2951.83407	7957.1
2954.29254	7943.1
2956.74951	7936.6
2959.20498	7927.3
2961.65895	7890.1
2964.11142	7888.6
2966.56239	7857.5
2969.01186	7841.6
2971.45984	7832.9
2973.90632	7821.9
2976.35131	7762.4
2978.7948	7745.2
2981.23681	7746.7
2983.67732	7701.5
2986.11635	7692.4
2988.55388	7689.7
2990.98993	7676.5
2993.4245	7647.2
2995.85758	7626
2998.28917	7609
3000.71928	7600.1
3003.14791	7580.1
3005.57506	7575.6
3008.00073	7559.3
3010.42493	7558.6
3012.84764	7543.4
3015.26888	7543.5
3017.68865	7503
3020.10694	7492.1
3022.52376	7475.2
3024.9391	7472.2
3027.35298	7457
3029.76539	7464.8
3032.17632	7457.7
3034.5858	7423.1
3036.9938	7434.8
3039.40034	7429.5
3041.80542	7442.5
3044.20903	7416.3
3046.61118	7405.7
3049.01187	7385.7
3051.4111	7399.4
3053.80888	7375.2
3056.20519	7384.6
3058.60005	7366.5
3060.99345	7351.1
3063.3854	7349.5
3065.7759	7331.2
3068.16494	7295.8
3070.55254	7268.1
3072.93868	7268.7
3075.32338	7242.1
3077.70662	7224.4
3080.08842	7230.8
3082.46878	7203
3084.84769	7176.7
3087.22515	7202.2
3089.60118	7202.2
3091.97576	7192.8
3094.3489	7194.5
3096.72061	7178.8
3099.09087	7168.6
3101.4597	7167.6
3103.82709	7156.8
3106.19305	7144.2
3108.55757	7133.1
3110.92066	7102.5
3113.28232	7120.7
3115.64255	7079.8
3118.00134	7071
3120.35871	7065.7
3122.71466	7030.6
3125.06917	7036.7
3127.42226	7041.5
3129.77393	7033.4
3132.12417	7029.8
3134.47299	7033.2
3136.82039	7016.2
3139.16636	7047.1
3141.51092	7010.9
3143.85406	7027.6
3146.19579	7028.1
3148.53609	7011.8
3150.87499	7035.8
3153.21246	7006.7
3155.54853	7027.8
3157.88318	7032.6
3160.21642	7038
3162.54826	7011.7
3164.87868	7001
3167.2077	6994.3
3169.5353	6996.3
3171.86151	6987.1
3174.18631	7003.4
3176.5097	7010.8
3178.83169	6975.3
3181.15228	7005.8
3183.47147	6990.2
3185.78926	6982
3188.10565	6990.5
3190.42065	6977.6
3192.73424	6974.3
3195.04645	6969
3197.35725	6984.3
3199.66667	6968.8
3201.97469	6981.3
3204.28132	6986.1
3206.58656	6977.9
3208.8904	6996.1
3211.19287	6972
3213.49394	6992.2
3215.79363	6963.2
3218.09193	6985.4
3220.38884	6991.1
3222.68438	6999
3224.97853	7002.1
3227.2713	6973.2
3229.56269	6975.7
3231.8527	6982.6
3234.14133	6967.6
3236.42858	6943
3238.71446	6946.1
3240.99896	6929.8
3243.28209	6923.5
3245.56384	6923.1
3247.84423	6958.9
3250.12324	6924
3252.40088	6931.8
3254.67715	6924.2
3256.95205	6904.1
3259.22558	6888.7
3261.49775	6876.3
3263.76855	6863.9
3266.03799	6854.3
3268.30606	6848.5
3270.57277	6819.5
3272.83812	6809.9
3275.10211	6824.1
3277.36474	6805.7
3279.62601	6838.6
3281.88593	6809.9
3284.14448	6825.5
3286.40168	6814.5
3288.65753	6825.2
3290.91202	6829
3293.16516	6779.8
3295.41695	6797.4
3297.66738	6741.6
3299.91647	6699.9
3302.16421	6672.9
3304.4106	6636.6
3306.65564	6609.6
3308.89933	6571.8
3311.14169	6539.4
3313.38269	6507.2
3315.62236	6472.6
3317.86068	6400.9
3320.09766	6331.7
3322.3333	6300.7
3324.5676	6315.3
3326.80056	6213.3
3329.03219	6194.3
3331.26248	3.4
3333.49143	-0.8
3335.71905	1
