Data from AgNPs_FTO_APTES_UA_2um_CRN_0.1mM_R6G_10uM_NaF_0.1M_Addition_RamanShift__5__12-20-49-036.txt Node

Date: Tue Dec 21 12:20:49 GMT 2021
User: TCL
Spectrometer: QEP01345
Trigger mode: 4
Integration Time (sec): 7.000000E0
Scans to average: 10
Electric dark correction enabled: true
Nonlinearity correction enabled: false
Boxcar width: 0
XAxis mode: Raman Shifts
Number of Pixels in Spectrum: 1044
>>>>>Begin Spectral Data<<<<<
46.04893	-0.5
50.45542	-0.7
54.85868	-1
59.25871	-1.1
63.6555	46.4
68.04907	53.1
72.43941	55.3
76.82654	55.2
81.21044	57.6
85.59113	62.2
89.96862	63.1
94.34289	66.1
98.71396	66
103.08183	69.4
107.4465	73.2
111.80798	77
116.16626	74.4
120.52136	77
124.87327	81.1
129.222	84.1
133.56755	92
137.90993	101.2
142.24913	108.5
146.58517	118.8
150.91804	142.3
155.24774	165
159.57429	204.3
163.89768	264
168.21792	348.9
172.53501	476.1
176.84895	652.6
181.15975	924
185.46741	1283.1
189.77193	1776
194.07331	2363
198.37157	3033.2
202.6667	3752.5
206.9587	4460.9
211.24758	5178.3
215.53334	5904.4
219.81599	6676.3
224.09553	7513.6
228.37195	8470.2
232.64527	9473.9
236.91549	10494.2
241.18261	11547.2
245.44663	12472.4
249.70755	13235.3
253.96539	13932.6
258.22014	14472.9
262.4718	14933.2
266.72039	15210.3
270.96589	15340.6
275.20832	15259.9
279.44768	15105.7
283.68397	14911.1
287.91719	14815.6
292.14735	14720.5
296.37445	14743.6
300.59849	14794.4
304.81948	14908.2
309.03742	15059
313.25231	15101.5
317.46415	14926.9
321.67296	14683.3
325.87872	14441.2
330.08145	14221.8
334.28114	14148.6
338.47781	14175.6
342.67145	14303.5
346.86207	14549.3
351.04966	14809.2
355.23424	15071.8
359.4158	15302.6
363.59435	15428.9
367.76989	15444
371.94243	15449.1
376.11196	15447.6
380.27849	15496.7
384.44203	15637.7
388.60257	15824.7
392.76012	16015.3
396.91468	16205.5
401.06626	16448.6
405.21485	16612.2
409.36047	16534.6
413.50311	16378.1
417.64277	16354.8
421.77947	16467.1
425.9132	16654
430.04396	16818
434.17176	16871
438.2966	16996.8
442.41849	17372.4
446.53742	18147.1
450.6534	18932.1
454.76644	19319.6
458.87653	19190.6
462.98368	18717.4
467.08789	18239.6
471.18916	17681.7
475.2875	17146.2
479.38291	16822.2
483.4754	16633.3
487.56496	16470.3
491.6516	16209.3
495.73531	16020.4
499.81612	15923.1
503.89401	15991.7
507.96899	16083
512.04106	15965.9
516.11023	15690.5
520.1765	15421.2
524.23987	15293.4
528.30034	15278.5
532.35792	15170.6
536.41261	14889.1
540.46441	14565.7
544.51333	14436.4
548.55936	14563.6
552.60252	15048.1
556.64279	15728.8
560.6802	16307.8
564.71473	16497.3
568.7464	16652.5
572.7752	17242.1
576.80114	17997.3
580.82422	18925
584.84444	20312.9
588.86181	22405.5
592.87633	24566.8
596.888	24957.9
600.89682	22757.5
604.9028	20737.5
608.90594	21046.2
612.90624	22164.9
616.90371	20537.6
620.89834	16738.8
624.89015	14969
628.87913	14768.8
632.86528	14915.9
636.84862	14846.2
640.82913	14488.3
644.80683	14055
648.78172	13806
652.75379	13794.6
656.72306	13947.3
660.68952	14132.3
664.65319	13968.6
668.61405	13612.1
672.57211	13584.8
676.52738	13736.3
680.47986	13791.6
684.42955	13615.5
688.37646	13441.2
692.32058	13467.5
696.26192	13732.2
700.20048	14033.3
704.13626	14229.9
708.06928	14289.9
711.99952	14226
715.927	14276.1
719.85171	14382.8
723.77365	14274.2
727.69284	13996.4
731.60928	13693
735.52295	13659.8
739.43388	13704.8
743.34206	13798.2
747.24749	13942.7
751.15017	14129.3
755.05012	14438.3
758.94733	15005.4
762.8418	15961.1
766.73354	17408.1
770.62254	18767.9
774.50882	18851.1
778.39237	17720.1
782.27321	16201.4
786.15132	15014.5
790.02671	14204.9
793.89938	13842.3
797.76935	13662.3
801.6366	13642.8
805.50115	13570.3
809.36299	13460.2
813.22213	13275.2
817.07857	13131.5
820.93231	12973.9
824.78336	12858.7
828.63172	12753.8
832.47738	12689.6
836.32036	12738.1
840.16066	12755.9
843.99827	12781.2
847.8332	12718.5
851.66546	12699.4
855.49504	12698.5
859.32195	12687
863.1462	12623.2
866.96777	12570.7
870.78668	12534.6
874.60293	12549.2
878.41652	12562.6
882.22745	12616.6
886.03573	12671.6
889.84136	12693.1
893.64433	12623.8
897.44466	12558.6
901.24235	12515.5
905.0374	12425.4
908.8298	12319
912.61957	12344.7
916.40671	12456.8
920.19121	12701.9
923.97308	13027.8
927.75233	13146.5
931.52895	12995.8
935.30295	12623
939.07433	12239.1
942.84309	11921.5
946.60924	11831.6
950.37278	11785
954.13371	11819.2
957.89203	11774.9
961.64774	11791.4
965.40086	11800.2
969.15137	11771.4
972.89929	11651.2
976.64461	11569.2
980.38733	11532.5
984.12747	11548.8
987.86502	11596.1
991.59999	11743.3
995.33237	11941.8
999.06217	12324.4
1002.78939	12798.2
1006.51404	13247.1
1010.23611	13662.6
1013.95561	13949.8
1017.67255	14103.3
1021.38692	13912.2
1025.09872	13405.1
1028.80796	13018
1032.51465	13009.1
1036.21877	13213.5
1039.92035	13317.6
1043.61937	13313.1
1047.31584	13182.2
1051.00976	13045
1054.70114	12939
1058.38998	12933.5
1062.07627	12983.7
1065.76003	13129.6
1069.44126	13329.9
1073.11995	13685.9
1076.79611	13962.8
1080.46974	14093.8
1084.14085	14260.7
1087.80943	14513.1
1091.47549	14743.6
1095.13903	14773.8
1098.80005	14434.3
1102.45857	13871.7
1106.11456	13464.8
1109.76805	13313
1113.41903	13358.9
1117.06751	13512.4
1120.71348	13750.4
1124.35696	14016.9
1127.99793	14264.1
1131.63641	14434.1
1135.2724	14399.4
1138.90589	14376.5
1142.5369	14451.7
1146.16542	14639
1149.79145	14880.2
1153.415	15092.2
1157.03607	15400.5
1160.65467	16119
1164.27079	17327.1
1167.88443	18795.7
1171.49561	20469
1175.10432	22481
1178.71056	25007.2
1182.31434	27327.1
1185.91565	28042.5
1189.51451	27172.1
1193.11091	25664.6
1196.70485	24195.5
1200.29634	22803.1
1203.88538	21827.1
1207.47197	21293.2
1211.05612	20882.1
1214.63782	20392.7
1218.21708	19866.7
1221.79391	19508.7
1225.36829	19475.9
1228.94024	19468.2
1232.50976	19001
1236.07685	18305.3
1239.6415	17697.8
1243.20374	17446.7
1246.76355	17511.1
1250.32093	17748.7
1253.8759	18236.3
1257.42845	18980.9
1260.97859	19773.1
1264.52631	20608
1268.07163	21407.9
1271.61453	22200
1275.15503	22987.3
1278.69312	23982.9
1282.22882	25143.9
1285.76211	26638.4
1289.29301	28385.3
1292.82151	30344.7
1296.34761	32494.9
1299.87133	35140.6
1303.39266	37861
1306.9116	40378.4
1310.42815	42485.5
1313.94233	43796.3
1317.45412	43479
1320.96354	41843.1
1324.47058	39980.4
1327.97525	38631.6
1331.47754	37625.1
1334.97747	36845.2
1338.47502	35868.6
1341.97022	34689.9
1345.46305	33540.4
1348.95352	33022.6
1352.44163	33645.1
1355.92738	35631.1
1359.41078	38565.4
1362.89183	40966.3
1366.37053	41138
1369.84688	37929.3
1373.32088	32399.5
1376.79254	28354.5
1380.26186	26864
1383.72883	26763.3
1387.19347	26598.1
1390.65578	26063.7
1394.11575	25962.5
1397.57339	26653.4
1401.0287	27625.1
1404.48168	28306.8
1407.93234	28374.6
1411.38068	27677.9
1414.82669	26542.7
1418.27039	25302.5
1421.71177	23921.2
1425.15083	22693.7
1428.58758	22075.5
1432.02203	22389.9
1435.45416	23318.1
1438.88399	24307.4
1442.31151	24882.7
1445.73673	25199.8
1449.15965	25403.9
1452.58027	25281.9
1455.9986	24903.5
1459.41463	24727.9
1462.82837	25098.5
1466.23982	25843.8
1469.64898	26713
1473.05586	27236.6
1476.46045	27469.8
1479.86276	27494.6
1483.26279	27222.5
1486.66054	27097.7
1490.05602	27279.1
1493.44922	27638.4
1496.84016	27820.5
1500.22882	27853.5
1503.61521	28149.8
1506.99934	28527.7
1510.38121	28976.3
1513.76081	28990.7
1517.13816	28377.5
1520.51324	27468.8
1523.88607	26910.6
1527.25665	26875.8
1530.62498	27129.8
1533.99105	27071.7
1537.35488	26626.3
1540.71647	25823.7
1544.07581	24777.9
1547.4329	23650.7
1550.78776	22652.9
1554.14038	21911.8
1557.49077	21459.1
1560.83892	21192
1564.18484	21143.3
1567.52853	21308.1
1570.86999	21596.6
1574.20922	22142.7
1577.54624	22625.3
1580.88103	22835.5
1584.2136	23122.7
1587.54395	24140.2
1590.87208	26091.6
1594.19801	28717
1597.52172	31398
1600.84321	32549.8
1604.16251	31035.6
1607.47959	27603.2
1610.79447	23730.1
1614.10715	20486.6
1617.41763	18116.2
1620.7259	16708.7
1624.03199	16085.2
1627.33587	16117.8
1630.63757	16858.9
1633.93707	18532.1
1637.23439	21430.1
1640.52951	26103.4
1643.82246	32109.1
1647.11321	37228.1
1650.40179	38223.5
1653.68819	34355.4
1656.97241	27866.7
1660.25446	21981.3
1663.53433	17850.7
1666.81203	15355.8
1670.08756	13893.3
1673.36092	12980.9
1676.63211	12393.5
1679.90115	11980.8
1683.16801	11686.5
1686.43272	11457.3
1689.69527	11313.5
1692.95567	11204.4
1696.2139	11147.5
1699.46999	11086.9
1702.72392	11012.3
1705.97571	10933.6
1709.22535	10901.9
1712.47284	10858.6
1715.71819	10784.9
1718.96139	10781.8
1722.20246	10696.3
1725.44139	10623.4
1728.67818	10550.3
1731.91284	10461
1735.14537	10348.3
1738.37576	10299.4
1741.60403	10251.6
1744.83017	10228.3
1748.05418	10185.5
1751.27607	10195.5
1754.49584	10195.6
1757.71349	10200.7
1760.92903	10206
1764.14244	10172.8
1767.35375	10134.8
1770.56294	10094.5
1773.77002	10025.8
1776.97499	9956.2
1780.17785	9931.5
1783.37861	9888.3
1786.57727	9860.2
1789.77382	9810.1
1792.96828	9804.2
1796.16064	9764.7
1799.3509	9728.8
1802.53907	9726.3
1805.72514	9691.7
1808.90913	9661.7
1812.09102	9635.4
1815.27083	9606.9
1818.44856	9578.7
1821.6242	9571.5
1824.79776	9566.2
1827.96924	9569.1
1831.13864	9583.6
1834.30597	9563.2
1837.47122	9560.2
1840.6344	9573.6
1843.7955	9587
1846.95454	9558.5
1850.11151	9568.4
1853.26642	9550.4
1856.41926	9538.3
1859.57004	9546.5
1862.71876	9499.7
1865.86542	9500.8
1869.01003	9489.3
1872.15258	9495
1875.29308	9479.7
1878.43152	9472.6
1881.56792	9459.9
1884.70227	9438.4
1887.83457	9428.6
1890.96482	9421.9
1894.09304	9373.2
1897.21921	9408.2
1900.34335	9394.7
1903.46544	9381.4
1906.58551	9360.1
1909.70353	9324.8
1912.81953	9341.9
1915.93349	9277
1919.04543	9268
1922.15534	9233.5
1925.26322	9188.6
1928.36908	9155.5
1931.47292	9141.6
1934.57473	9122.5
1937.67453	9064.5
1940.77232	9056.1
1943.86808	9011.8
1946.96184	9022.9
1950.05358	8978
1953.14331	8955.8
1956.23103	8913.3
1959.31675	8911.4
1962.40046	8874.3
1965.48217	8842.8
1968.56188	8814.3
1971.63959	8791.8
1974.7153	8746.7
1977.78901	8700.8
1980.86073	8676
1983.93046	8666.2
1986.99819	8626.9
1990.06394	8604.7
1993.1277	8562.8
1996.18947	8532.8
1999.24925	8518.5
2002.30706	8502.3
2005.36288	8477.1
2008.41672	8445.2
2011.46859	8400.6
2014.51848	8388.9
2017.56639	8363.6
2020.61233	8359.3
2023.6563	8322.3
2026.6983	8335.1
2029.73833	8319.7
2032.7764	8286
2035.8125	8281.5
2038.84664	8245.5
2041.87881	8262
2044.90903	8219.7
2047.93729	8226.5
2050.96359	8207.8
2053.98794	8223
2057.01034	8200.1
2060.03078	8188.5
2063.04927	8153.1
2066.06582	8161.9
2069.08042	8139.5
2072.09307	8142.6
2075.10378	8145
2078.11255	8126.5
2081.11938	8109.8
2084.12426	8113.5
2087.12722	8123.1
2090.12824	8116.8
2093.12732	8124.1
2096.12447	8141.9
2099.11969	8104.2
2102.11299	8089.4
2105.10435	8117.8
2108.09379	8113.6
2111.08131	8115.5
2114.0669	8095.3
2117.05057	8122.5
2120.03233	8110.9
2123.01216	8103.6
2125.99008	8124.3
2128.96609	8119.4
2131.94018	8134.1
2134.91236	8137
2137.88263	8121.3
2140.851	8109.5
2143.81746	8126.8
2146.78201	8087.5
2149.74466	8105.6
2152.7054	8065.9
2155.66425	8086.6
2158.6212	8085.8
2161.57625	8072.1
2164.52941	8089.3
2167.48067	8081.5
2170.43004	8084.5
2173.37752	8057.5
2176.32311	8072.8
2179.26681	8081.9
2182.20863	8066.2
2185.14856	8078.9
2188.08661	8060.3
2191.02278	8073.6
2193.95707	8048
2196.88948	8062.1
2199.82001	8066.6
2202.74867	8048
2205.67545	8031.2
2208.60037	8017.8
2211.52341	8002.6
2214.44458	8004.9
2217.36388	7964.7
2220.28132	7946.7
2223.1969	7927.8
2226.11061	7945.9
2229.02246	7943.5
2231.93245	7934.1
2234.84058	7930.1
2237.74686	7924.1
2240.65128	7919.3
2243.55385	7904.1
2246.45456	7879.7
2249.35343	7837.3
2252.25044	7822
2255.14561	7808.7
2258.03893	7813.3
2260.93041	7804.6
2263.82004	7757.9
2266.70783	7741.5
2269.59378	7695.2
2272.4779	7683.1
2275.36017	7637
2278.24061	7665.1
2281.11922	7602.9
2283.996	7605.6
2286.87094	7631.8
2289.74405	7609.7
2292.61534	7597
2295.4848	7583.2
2298.35243	7565.6
2301.21824	7572.1
2304.08223	7593.9
2306.94439	7571.7
2309.80474	7576.9
2312.66327	7602.1
2315.51999	7560.8
2318.37489	7552.1
2321.22797	7544
2324.07925	7529.4
2326.92871	7530.5
2329.77637	7551.7
2332.62222	7521.9
2335.46626	7536.9
2338.3085	7507.6
2341.14893	7534.3
2343.98756	7534.7
2346.8244	7533.2
2349.65943	7536.7
2352.49267	7533.9
2355.32411	7525.8
2358.15376	7540.8
2360.98161	7536.1
2363.80768	7539.9
2366.63195	7517.1
2369.45444	7519.1
2372.27514	7503.2
2375.09405	7494.7
2377.91118	7470.8
2380.72652	7434.9
2383.54009	7434.1
2386.35187	7401.3
2389.16188	7360.8
2391.97011	7380.9
2394.77657	7382.8
2397.58125	7361.4
2400.38416	7381.1
2403.18529	7334.7
2405.98466	7315.9
2408.78226	7311
2411.57809	7304.5
2414.37216	7280.5
2417.16446	7287.7
2419.955	7292.4
2422.74378	7265.4
2425.5308	7268.8
2428.31606	7276.3
2431.09956	7274.5
2433.88131	7251.2
2436.6613	7257.3
2439.43954	7257.5
2442.21603	7249.4
2444.99077	7251.2
2447.76377	7266.9
2450.53501	7257.9
2453.30451	7260.1
2456.07226	7261.1
2458.83827	7286.4
2461.60254	7252.8
2464.36507	7277.8
2467.12586	7261
2469.88492	7257.4
2472.64224	7264.3
2475.39782	7280.9
2478.15167	7285.6
2480.90379	7290.4
2483.65417	7288.2
2486.40283	7279.8
2489.14976	7279.9
2491.89497	7286.7
2494.63845	7299.1
2497.3802	7310.1
2500.12024	7295.8
2502.85855	7267.5
2505.59514	7277.2
2508.33002	7273.8
2511.06318	7270.5
2513.79462	7245.7
2516.52435	7258.6
2519.25237	7243
2521.97867	7215.9
2524.70327	7213.6
2527.42616	7209.9
2530.14734	7223.7
2532.86681	7219.9
2535.58458	7206.5
2538.30065	7186
2541.01501	7197.3
2543.72768	7171.3
2546.43864	7175.3
2549.14791	7178.8
2551.85548	7185
2554.56136	7170.8
2557.26554	7181.4
2559.96803	7185.3
2562.66883	7197.4
2565.36794	7193.2
2568.06536	7193.1
2570.7611	7165
2573.45514	7175.4
2576.14751	7182
2578.83819	7177.9
2581.52719	7189.1
2584.21451	7160
2586.90015	7174.2
2589.58411	7152.1
2592.2664	7157.1
2594.94701	7126.8
2597.62594	7156.1
2600.30321	7141.7
2602.9788	7152.7
2605.65273	7145.4
2608.32498	7154.2
2610.99557	7141.9
2613.66449	7157.5
2616.33175	7139.6
2618.99734	7153.1
2621.66128	7140.3
2624.32355	7151.2
2626.98416	7148.9
2629.64311	7124.2
2632.30041	7141.9
2634.95605	7123
2637.61004	7125.1
2640.26238	7105.4
2642.91306	7115.1
2645.56209	7132.4
2648.20948	7119.9
2650.85521	7132.7
2653.4993	7132.7
2656.14175	7116.5
2658.78255	7150.1
2661.42171	7150
2664.05923	7145.7
2666.6951	7149.3
2669.32934	7159.1
2671.96194	7161.5
2674.59291	7158.4
2677.22224	7160.4
2679.84993	7168
2682.476	7130.5
2685.10043	7138.8
2687.72324	7122.2
2690.34441	7133
2692.96396	7130.7
2695.58188	7135.4
2698.19818	7137.1
2700.81285	7151.8
2703.4259	7178.2
2706.03733	7242.3
2708.64714	7198.4
2711.25533	7186.6
2713.86191	7162.6
2716.46687	7195.5
2719.07021	7178.8
2721.67194	7188.8
2724.27206	7194.3
2726.87057	7203.1
2729.46747	7227.5
2732.06276	7233.2
2734.65644	7229.3
2737.24852	7232.5
2739.83899	7207.1
2742.42786	7202.2
2745.01513	7219.8
2747.60079	7216.2
2750.18486	7202.6
2752.76733	7202.8
2755.3482	7200.5
2757.92747	7220.7
2760.50515	7190.2
2763.08123	7218.2
2765.65573	7178.6
2768.22863	7224.4
2770.79994	7207.2
2773.36967	7209.6
2775.9378	7206
2778.50435	7205.1
2781.06932	7204.1
2783.6327	7214.3
2786.1945	7225.2
2788.75471	7221.7
2791.31335	7195.7
2793.87041	7192.1
2796.42589	7191.5
2798.97979	7170.3
2801.53212	7162
2804.08288	7172.6
2806.63206	7137.3
2809.17967	7132.6
2811.72571	7103.1
2814.27018	7135.9
2816.81308	7122.2
2819.35442	7102.4
2821.89419	7123.4
2824.43239	7099.8
2826.96904	7109.7
2829.50412	7113.7
2832.03763	7110
2834.56959	7094.3
2837.1	7090.1
2839.62884	7088.1
2842.15613	7094.7
2844.68186	7117.3
2847.20604	7117.4
2849.72867	7127.4
2852.24974	7128.8
2854.76927	7124.9
2857.28724	7138.6
2859.80367	7124.8
2862.31855	7096.9
2864.83189	7093.7
2867.34368	7080.1
2869.85393	7094.5
2872.36264	7064
2874.8698	7054.9
2877.37543	7077.8
2879.87952	7068.9
2882.38207	7076.7
2884.88308	7056.4
2887.38256	7068.6
2889.88051	7076
2892.37692	7094.2
2894.8718	7067.9
2897.36515	7094.4
2899.85698	7097.9
2902.34727	7129.3
2904.83604	7122
2907.32328	7147.8
2909.809	7133.7
2912.29319	7140.3
2914.77587	7159.4
2917.25702	7134.1
2919.73665	7135.2
2922.21476	7161.9
2924.69136	7155.6
2927.16644	7143.9
2929.64	7152
2932.11205	7144.1
2934.58258	7117.5
2937.05161	7129.8
2939.51912	7172.1
2941.98513	7120.1
2944.44962	7124.4
2946.91261	7092.4
2949.37409	7120.8
2951.83407	7091.3
2954.29254	7082.9
2956.74951	7068.2
2959.20498	7067.5
2961.65895	7043
2964.11142	7009.8
2966.56239	6988.2
2969.01186	6989.7
2971.45984	6945
2973.90632	6923.1
2976.35131	6910.6
2978.7948	6885.2
2981.23681	6860.4
2983.67732	6850.8
2986.11635	6833.2
2988.55388	6800.1
2990.98993	6777.7
2993.4245	6768.5
2995.85758	6762.5
2998.28917	6755.5
3000.71928	6734
3003.14791	6739.1
3005.57506	6742.7
3008.00073	6722.1
3010.42493	6716.5
3012.84764	6692.8
3015.26888	6674.9
3017.68865	6652
3020.10694	6654.6
3022.52376	6605.9
3024.9391	6623.6
3027.35298	6608.9
3029.76539	6607.6
3032.17632	6597.3
3034.5858	6555.8
3036.9938	6550.4
3039.40034	6563.8
3041.80542	6556.4
3044.20903	6546.7
3046.61118	6537.2
3049.01187	6531.6
3051.4111	6531.1
3053.80888	6495.6
3056.20519	6494
3058.60005	6491.1
3060.99345	6475.8
3063.3854	6457.4
3065.7759	6421.4
3068.16494	6416.1
3070.55254	6405.8
3072.93868	6388
3075.32338	6360
3077.70662	6379.3
3080.08842	6332.8
3082.46878	6325.3
3084.84769	6312.1
3087.22515	6309
3089.60118	6300.5
3091.97576	6317.4
3094.3489	6300.6
3096.72061	6308.7
3099.09087	6290.9
3101.4597	6301.6
3103.82709	6263.7
3106.19305	6256.8
3108.55757	6248.9
3110.92066	6232.2
3113.28232	6220.6
3115.64255	6207.7
3118.00134	6179.1
3120.35871	6185.8
3122.71466	6175.4
3125.06917	6162.8
3127.42226	6145.7
3129.77393	6167.7
3132.12417	6148.9
3134.47299	6152.8
3136.82039	6136.7
3139.16636	6144.4
3141.51092	6155
3143.85406	6129.2
3146.19579	6144.8
3148.53609	6151.1
3150.87499	6126.9
3153.21246	6138.9
3155.54853	6143.6
3157.88318	6157.5
3160.21642	6149.5
3162.54826	6130.6
3164.87868	6145.4
3167.2077	6127.5
3169.5353	6120.8
3171.86151	6117
3174.18631	6130.8
3176.5097	6109.9
3178.83169	6099.3
3181.15228	6115
3183.47147	6102.2
3185.78926	6094.3
3188.10565	6093.4
3190.42065	6096.6
3192.73424	6095.1
3195.04645	6081
3197.35725	6071.8
3199.66667	6093.1
3201.97469	6078.2
3204.28132	6066.3
3206.58656	6075.6
3208.8904	6078.4
3211.19287	6080
3213.49394	6055.7
3215.79363	6045.8
3218.09193	6072.4
3220.38884	6069.4
3222.68438	6081.5
3224.97853	6069.2
3227.2713	6057.8
3229.56269	6062.3
3231.8527	6060.3
3234.14133	6050
3236.42858	6040.9
3238.71446	6046.8
3240.99896	6013.7
3243.28209	6030.2
3245.56384	6011.5
3247.84423	6021
3250.12324	6016.5
3252.40088	5998.5
3254.67715	6013.9
3256.95205	5986.5
3259.22558	5970.5
3261.49775	5938.6
3263.76855	5938.2
3266.03799	5904.4
3268.30606	5909.7
3270.57277	5880.3
3272.83812	5912.4
3275.10211	5894
3277.36474	5871.7
3279.62601	5890.7
3281.88593	5867.3
3284.14448	5897
3286.40168	5897
3288.65753	5892
3290.91202	5878.1
3293.16516	5869.3
3295.41695	5851.1
3297.66738	5812.7
3299.91647	5792.7
3302.16421	5759.8
3304.4106	5730.7
3306.65564	5702.2
3308.89933	5665.7
3311.14169	5617.5
3313.38269	5583.1
3315.62236	5544.5
3317.86068	5498
3320.09766	5444.4
3322.3333	5414.2
3324.5676	5412.2
3326.80056	5323.6
3329.03219	5303
3331.26248	2.5
3333.49143	0.4
3335.71905	0.5
