Data from AgNPs_FTO_APTES_UA_2um_CRN_0.1mM_R6G_10uM_NaF_0.1M_Addition_RamanShift__26__12-45-19-064.txt Node

Date: Tue Dec 21 12:45:19 GMT 2021
User: TCL
Spectrometer: QEP01345
Trigger mode: 4
Integration Time (sec): 7.000000E0
Scans to average: 10
Electric dark correction enabled: true
Nonlinearity correction enabled: false
Boxcar width: 0
XAxis mode: Raman Shifts
Number of Pixels in Spectrum: 1044
>>>>>Begin Spectral Data<<<<<
46.04893	-0.5
50.45542	-0.6
54.85868	-1.2
59.25871	-0.4
63.6555	50.3
68.04907	56.4
72.43941	58.8
76.82654	59.2
81.21044	65.6
85.59113	68.6
89.96862	69.3
94.34289	72.4
98.71396	71.2
103.08183	77.4
107.4465	81.3
111.80798	82.3
116.16626	83.9
120.52136	86.4
124.87327	87.5
129.222	90.3
133.56755	99.9
137.90993	108.8
142.24913	115.7
146.58517	131.8
150.91804	153.2
155.24774	182.8
159.57429	225.8
163.89768	288.4
168.21792	384
172.53501	516.4
176.84895	716.1
181.15975	1006.4
185.46741	1412.1
189.77193	1943.1
194.07331	2602.6
198.37157	3361.7
202.6667	4171.6
206.9587	4993.1
211.24758	5806.1
215.53334	6642.3
219.81599	7552.8
224.09553	8599.7
228.37195	9713.5
232.64527	10938.9
236.91549	12197.8
241.18261	13364.5
245.44663	14370
249.70755	15271.1
253.96539	16011.2
258.22014	16635.8
262.4718	17180.4
266.72039	17492.8
270.96589	17646.1
275.20832	17579.4
279.44768	17435.7
283.68397	17263.1
287.91719	17161.6
292.14735	17191.8
296.37445	17426.6
300.59849	17826.6
304.81948	18340.6
309.03742	18742.2
313.25231	18686.3
317.46415	17920.4
321.67296	16758.6
325.87872	15776.1
330.08145	15297.8
334.28114	15265.6
338.47781	15467.6
342.67145	15887.2
346.86207	16419.4
351.04966	17247.4
355.23424	18174.7
359.4158	18949.2
363.59435	19311.5
367.76989	19359.3
371.94243	19322.3
376.11196	19206
380.27849	19140.3
384.44203	19014.5
388.60257	18876.9
392.76012	18789.4
396.91468	18961.6
401.06626	19401.3
405.21485	19825.8
409.36047	19578.7
413.50311	18789.8
417.64277	18113
421.77947	17743.1
425.9132	17672.8
430.04396	17795.2
434.17176	17973
438.2966	18263.6
442.41849	18793.6
446.53742	19626.9
450.6534	20467.8
454.76644	20998.9
458.87653	21023.5
462.98368	20667.6
467.08789	20200.4
471.18916	19724.7
475.2875	19297.5
479.38291	19090.5
483.4754	18781.5
487.56496	18518.2
491.6516	18077.4
495.73531	17777.9
499.81612	17662.1
503.89401	17780.4
507.96899	17928.3
512.04106	17973.6
516.11023	17964.1
520.1765	17909.4
524.23987	17807.5
528.30034	17605.9
532.35792	17405.4
536.41261	17056.4
540.46441	16637.6
544.51333	16415.8
548.55936	16472.1
552.60252	16898.4
556.64279	17441.9
560.6802	17959.2
564.71473	18476.2
568.7464	19322.7
572.7752	20027
576.80114	19837.3
580.82422	19305.9
584.84444	19207.4
588.86181	19453.1
592.87633	20064.3
596.888	20515.5
600.89682	20704.2
604.9028	21876.4
608.90594	26110.3
612.90624	31695.9
616.90371	30266
620.89834	21901.8
624.89015	17793.4
628.87913	17099.6
632.86528	17220.3
636.84862	17318.6
640.82913	16962
644.80683	16178
648.78172	15618.1
652.75379	15525.9
656.72306	16009.4
660.68952	16678.5
664.65319	16690.4
668.61405	16046.2
672.57211	15784.8
676.52738	15787.4
680.47986	15796
684.42955	15563.6
688.37646	15419.4
692.32058	15445.2
696.26192	15574.1
700.20048	15812.3
704.13626	15981.8
708.06928	15925.4
711.99952	15750
715.927	15622.6
719.85171	15642.1
723.77365	15654.8
727.69284	15507.2
731.60928	15412.4
735.52295	15416.8
739.43388	15474
743.34206	15550.6
747.24749	15640.5
751.15017	15791.7
755.05012	16096.3
758.94733	16877.9
762.8418	18557.9
766.73354	21407.6
770.62254	24276.7
774.50882	25577.5
778.39237	24358
782.27321	21339.6
786.15132	18303.8
790.02671	16477.5
793.89938	15632.5
797.76935	15307
801.6366	15173.8
805.50115	15129.3
809.36299	15029.9
813.22213	14933.9
817.07857	14896
820.93231	14843.8
824.78336	14827.3
828.63172	14869.6
832.47738	14882.6
836.32036	14849.3
840.16066	14808.5
843.99827	14743.4
847.8332	14652.1
851.66546	14612.1
855.49504	14593.7
859.32195	14588
863.1462	14534.8
866.96777	14484.8
870.78668	14446.7
874.60293	14456.3
878.41652	14475.9
882.22745	14548.5
886.03573	14636.4
889.84136	14623.7
893.64433	14474.3
897.44466	14387.6
901.24235	14359.8
905.0374	14258.1
908.8298	14177.7
912.61957	14121.5
916.40671	14205.6
920.19121	14430.9
923.97308	14672
927.75233	14834.5
931.52895	14929.8
935.30295	14687.8
939.07433	14254
942.84309	13855.1
946.60924	13661.4
950.37278	13548.6
954.13371	13456.2
957.89203	13419.2
961.64774	13363
965.40086	13302.9
969.15137	13243.4
972.89929	13153.8
976.64461	13100.9
980.38733	13075.6
984.12747	13118.1
987.86502	13242
991.59999	13422.5
995.33237	13684.7
999.06217	14257.7
1002.78939	14952.7
1006.51404	15532.2
1010.23611	15914.8
1013.95561	16103
1017.67255	15969
1021.38692	15625.6
1025.09872	15205.6
1028.80796	15069.4
1032.51465	15290
1036.21877	15626.1
1039.92035	15742.3
1043.61937	15653.6
1047.31584	15391.9
1051.00976	15010.1
1054.70114	14813.2
1058.38998	14699.1
1062.07627	14780.5
1065.76003	14830.2
1069.44126	14942.5
1073.11995	15154.3
1076.79611	15376.5
1080.46974	15620.4
1084.14085	15960.9
1087.80943	16366.9
1091.47549	16594.1
1095.13903	16406.6
1098.80005	15925
1102.45857	15426.7
1106.11456	15128.1
1109.76805	15157.6
1113.41903	15424.9
1117.06751	15878.6
1120.71348	16477.9
1124.35696	17155.2
1127.99793	17757.6
1131.63641	17703.6
1135.2724	17090.7
1138.90589	16451.6
1142.5369	16057.1
1146.16542	15837.1
1149.79145	15803
1153.415	15832.7
1157.03607	15988.3
1160.65467	16407.7
1164.27079	17176.1
1167.88443	18366.5
1171.49561	20122.8
1175.10432	22731.4
1178.71056	26088.2
1182.31434	28926.6
1185.91565	29944.6
1189.51451	29376.9
1193.11091	27816
1196.70485	25936.2
1200.29634	24263
1203.88538	22916.8
1207.47197	21599.5
1211.05612	20528.6
1214.63782	19913.7
1218.21708	19823.3
1221.79391	19919.5
1225.36829	19901.6
1228.94024	19605.4
1232.50976	19108.6
1236.07685	18732.8
1239.6415	18544.2
1243.20374	18524.4
1246.76355	18594.5
1250.32093	18894.5
1253.8759	19460.2
1257.42845	20188.4
1260.97859	20979.2
1264.52631	21674.6
1268.07163	22385.6
1271.61453	23114.7
1275.15503	23832.3
1278.69312	24412.7
1282.22882	25003.5
1285.76211	25723.7
1289.29301	26766.8
1292.82151	27958.1
1296.34761	29421.6
1299.87133	31404.9
1303.39266	34093.3
1306.9116	37772
1310.42815	41802.4
1313.94233	44282.7
1317.45412	43947.3
1320.96354	41893.6
1324.47058	39466.4
1327.97525	37323
1331.47754	35820.3
1334.97747	35204.5
1338.47502	35277.5
1341.97022	35600.8
1345.46305	35815.7
1348.95352	36086
1352.44163	36896.5
1355.92738	39004.8
1359.41078	42920.9
1362.89183	46571.9
1366.37053	45559.3
1369.84688	39729.2
1373.32088	33639.1
1376.79254	29497.4
1380.26186	27498.3
1383.72883	26709.9
1387.19347	26192
1390.65578	25768.1
1394.11575	25740.7
1397.57339	26330.4
1401.0287	27379.5
1404.48168	28395.5
1407.93234	29015
1411.38068	29133.6
1414.82669	28411.3
1418.27039	27151.7
1421.71177	25496.3
1425.15083	24151.5
1428.58758	23417.3
1432.02203	23335
1435.45416	23651.3
1438.88399	24032.1
1442.31151	24365.2
1445.73673	24796.8
1449.15965	25355.7
1452.58027	25649
1455.9986	25697.9
1459.41463	25796.2
1462.82837	26349.8
1466.23982	27102
1469.64898	27814.2
1473.05586	28181.2
1476.46045	28225.3
1479.86276	28195.3
1483.26279	28169.2
1486.66054	28228.7
1490.05602	28558.5
1493.44922	29007.8
1496.84016	29495
1500.22882	30553
1503.61521	32542.4
1506.99934	35173.2
1510.38121	37805.7
1513.76081	38895.7
1517.13816	37339.6
1520.51324	33730.2
1523.88607	30189
1527.25665	27855.4
1530.62498	26684.4
1533.99105	26162.5
1537.35488	25861.5
1540.71647	25697.9
1544.07581	25475.5
1547.4329	25087
1550.78776	24748.3
1554.14038	24399.7
1557.49077	24253.6
1560.83892	24378
1564.18484	24707.8
1567.52853	25086.7
1570.86999	25391.9
1574.20922	25627
1577.54624	25662.4
1580.88103	25000.4
1584.2136	24154.7
1587.54395	24205.3
1590.87208	25500.9
1594.19801	27821.2
1597.52172	30562.7
1600.84321	32117.8
1604.16251	31192.3
1607.47959	28480.8
1610.79447	25165.1
1614.10715	22054.2
1617.41763	19727.3
1620.7259	18266.8
1624.03199	17569.6
1627.33587	17502.7
1630.63757	18028.5
1633.93707	19287.3
1637.23439	21358
1640.52951	24469.5
1643.82246	28480.1
1647.11321	32432.3
1650.40179	34348.6
1653.68819	32699.2
1656.97241	27843.5
1660.25446	22643.8
1663.53433	18792.6
1666.81203	16438.2
1670.08756	14983.7
1673.36092	14107.2
1676.63211	13605.7
1679.90115	13213.5
1683.16801	12911
1686.43272	12745.5
1689.69527	12602.3
1692.95567	12473
1696.2139	12417.1
1699.46999	12389.5
1702.72392	12332.3
1705.97571	12285.9
1709.22535	12231.7
1712.47284	12183.3
1715.71819	12185.6
1718.96139	12137.4
1722.20246	12105.6
1725.44139	12039.6
1728.67818	11933.7
1731.91284	11864.9
1735.14537	11795.2
1738.37576	11705.5
1741.60403	11674.2
1744.83017	11636.8
1748.05418	11596.6
1751.27607	11596.9
1754.49584	11575.9
1757.71349	11585.4
1760.92903	11536.7
1764.14244	11496
1767.35375	11501.2
1770.56294	11446.9
1773.77002	11395.8
1776.97499	11343.2
1780.17785	11316.2
1783.37861	11289
1786.57727	11226.6
1789.77382	11217.4
1792.96828	11181.1
1796.16064	11162.4
1799.3509	11148.1
1802.53907	11099.9
1805.72514	11094.9
1808.90913	11038.3
1812.09102	11028.5
1815.27083	10970.7
1818.44856	10943.5
1821.6242	10950.3
1824.79776	10920.7
1827.96924	10918.9
1831.13864	10904.5
1834.30597	10856.4
1837.47122	10856.6
1840.6344	10849.6
1843.7955	10856.3
1846.95454	10844.6
1850.11151	10862
1853.26642	10841.4
1856.41926	10828.3
1859.57004	10874.6
1862.71876	10836.3
1865.86542	10843.8
1869.01003	10865
1872.15258	10866
1875.29308	10850.2
1878.43152	10864.6
1881.56792	10871.1
1884.70227	10845.4
1887.83457	10850.8
1890.96482	10873.4
1894.09304	10864.8
1897.21921	10869.8
1900.34335	10885.8
1903.46544	10885.3
1906.58551	10876
1909.70353	10882.3
1912.81953	10855.7
1915.93349	10848.8
1919.04543	10837.5
1922.15534	10795.2
1925.26322	10756.1
1928.36908	10730.7
1931.47292	10705.5
1934.57473	10648.4
1937.67453	10603.7
1940.77232	10532.8
1943.86808	10510
1946.96184	10476.8
1950.05358	10409
1953.14331	10372.4
1956.23103	10328.9
1959.31675	10287.7
1962.40046	10252.8
1965.48217	10250.1
1968.56188	10221.8
1971.63959	10182.5
1974.7153	10147.7
1977.78901	10111
1980.86073	10060.3
1983.93046	10034.3
1986.99819	9984.5
1990.06394	9956.7
1993.1277	9888.7
1996.18947	9877.1
1999.24925	9838.7
2002.30706	9848.4
2005.36288	9807.1
2008.41672	9758.1
2011.46859	9733.5
2014.51848	9719.5
2017.56639	9667.7
2020.61233	9641.2
2023.6563	9621.4
2026.6983	9616.8
2029.73833	9576.6
2032.7764	9579.5
2035.8125	9559.3
2038.84664	9533.1
2041.87881	9533.5
2044.90903	9519.9
2047.93729	9505.1
2050.96359	9489.2
2053.98794	9473
2057.01034	9447.9
2060.03078	9434.3
2063.04927	9393.9
2066.06582	9406.8
2069.08042	9388.2
2072.09307	9378.8
2075.10378	9370.8
2078.11255	9339
2081.11938	9358.9
2084.12426	9341.5
2087.12722	9330.7
2090.12824	9336.2
2093.12732	9314.7
2096.12447	9306
2099.11969	9312.8
2102.11299	9306.5
2105.10435	9304
2108.09379	9308.9
2111.08131	9302.9
2114.0669	9299.6
2117.05057	9300.3
2120.03233	9315.3
2123.01216	9318.1
2125.99008	9334.9
2128.96609	9330.9
2131.94018	9310.8
2134.91236	9321.7
2137.88263	9321.3
2140.851	9298.2
2143.81746	9341.5
2146.78201	9331.9
2149.74466	9315.2
2152.7054	9320.1
2155.66425	9301.6
2158.6212	9290.4
2161.57625	9265.8
2164.52941	9293
2167.48067	9278.8
2170.43004	9255.8
2173.37752	9253.1
2176.32311	9245.9
2179.26681	9252.9
2182.20863	9259.9
2185.14856	9254.3
2188.08661	9264.7
2191.02278	9243.8
2193.95707	9224.4
2196.88948	9229.6
2199.82001	9248.6
2202.74867	9227.4
2205.67545	9215
2208.60037	9182.3
2211.52341	9205.7
2214.44458	9187.6
2217.36388	9170.3
2220.28132	9149.1
2223.1969	9125
2226.11061	9116.2
2229.02246	9084.6
2231.93245	9072.2
2234.84058	9049.8
2237.74686	9046.1
2240.65128	9025.5
2243.55385	9010.4
2246.45456	9008
2249.35343	8961.8
2252.25044	8972.2
2255.14561	8972.7
2258.03893	8968.4
2260.93041	8941.2
2263.82004	8924.7
2266.70783	8877.1
2269.59378	8864.1
2272.4779	8840.8
2275.36017	8802
2278.24061	8788.8
2281.11922	8787.8
2283.996	8781.6
2286.87094	8754.9
2289.74405	8720.6
2292.61534	8704.7
2295.4848	8687.8
2298.35243	8684.7
2301.21824	8683.4
2304.08223	8678
2306.94439	8688.9
2309.80474	8671.7
2312.66327	8666.8
2315.51999	8674.6
2318.37489	8678.7
2321.22797	8683.1
2324.07925	8680.7
2326.92871	8652.1
2329.77637	8659.7
2332.62222	8641.6
2335.46626	8628.2
2338.3085	8647.7
2341.14893	8657.5
2343.98756	8645.7
2346.8244	8663
2349.65943	8670.3
2352.49267	8666.7
2355.32411	8677.7
2358.15376	8667.1
2360.98161	8673.6
2363.80768	8676.2
2366.63195	8655.2
2369.45444	8661.5
2372.27514	8652.7
2375.09405	8607
2377.91118	8596.6
2380.72652	8556.3
2383.54009	8525.8
2386.35187	8500.6
2389.16188	8470.5
2391.97011	8448.8
2394.77657	8435.9
2397.58125	8427.5
2400.38416	8400.1
2403.18529	8395.3
2405.98466	8360.3
2408.78226	8339.1
2411.57809	8330
2414.37216	8301.7
2417.16446	8295.3
2419.955	8300.3
2422.74378	8294
2425.5308	8274.1
2428.31606	8284.3
2431.09956	8270.5
2433.88131	8269
2436.6613	8250.7
2439.43954	8241.9
2442.21603	8236.7
2444.99077	8235.8
2447.76377	8259.2
2450.53501	8249.5
2453.30451	8256.3
2456.07226	8244.7
2458.83827	8256.2
2461.60254	8243.9
2464.36507	8234.7
2467.12586	8238.1
2469.88492	8241.9
2472.64224	8239
2475.39782	8244.6
2478.15167	8275.7
2480.90379	8270.5
2483.65417	8276.3
2486.40283	8298.1
2489.14976	8296.4
2491.89497	8302.9
2494.63845	8341.2
2497.3802	8332.3
2500.12024	8297.3
2502.85855	8306.6
2505.59514	8285.8
2508.33002	8276
2511.06318	8257.7
2513.79462	8235
2516.52435	8207.6
2519.25237	8196.4
2521.97867	8175.9
2524.70327	8172.1
2527.42616	8168.6
2530.14734	8159.1
2532.86681	8141.8
2535.58458	8155.3
2538.30065	8128.9
2541.01501	8111.1
2543.72768	8126.4
2546.43864	8127.6
2549.14791	8103
2551.85548	8108.8
2554.56136	8118.1
2557.26554	8087.3
2559.96803	8093.3
2562.66883	8096.1
2565.36794	8077
2568.06536	8079
2570.7611	8054.3
2573.45514	8065.9
2576.14751	8053.7
2578.83819	8042.2
2581.52719	8054.5
2584.21451	8050
2586.90015	8043.3
2589.58411	8030.2
2592.2664	8039.7
2594.94701	8028.9
2597.62594	8022.6
2600.30321	8015.7
2602.9788	8024.7
2605.65273	8026
2608.32498	8018.6
2610.99557	8020.2
2613.66449	8034.1
2616.33175	8022.4
2618.99734	8040.3
2621.66128	8034
2624.32355	8043.7
2626.98416	8040.9
2629.64311	8040.7
2632.30041	8018.2
2634.95605	8042.4
2637.61004	8017.5
2640.26238	7998.1
2642.91306	8007.7
2645.56209	7973
2648.20948	7990.1
2650.85521	7968.6
2653.4993	7964.8
2656.14175	7952.7
2658.78255	8000
2661.42171	7972.2
2664.05923	7990.9
2666.6951	8004.6
2669.32934	7989.4
2671.96194	8009.2
2674.59291	8017.7
2677.22224	8001.1
2679.84993	8017.6
2682.476	7990.7
2685.10043	7993.1
2687.72324	7987.6
2690.34441	7964
2692.96396	7983
2695.58188	7966.7
2698.19818	7964.3
2700.81285	7986.8
2703.4259	8019.4
2706.03733	8039.5
2708.64714	8049.7
2711.25533	8025.8
2713.86191	7973.8
2716.46687	7992.1
2719.07021	8000.7
2721.67194	8017.9
2724.27206	7988.4
2726.87057	8007.4
2729.46747	8008.5
2732.06276	8014.8
2734.65644	8023
2737.24852	7982.1
2739.83899	7977.8
2742.42786	8003
2745.01513	7966.6
2747.60079	7982.9
2750.18486	7957.1
2752.76733	7979.6
2755.3482	7973.7
2757.92747	7967.6
2760.50515	7952.9
2763.08123	7979.7
2765.65573	7960.4
2768.22863	7974.8
2770.79994	7954.3
2773.36967	7982.1
2775.9378	7968.6
2778.50435	7976.1
2781.06932	7951.8
2783.6327	7979.4
2786.1945	7969.7
2788.75471	7959.1
2791.31335	7944.9
2793.87041	7952.4
2796.42589	7914.1
2798.97979	7938.1
2801.53212	7923.2
2804.08288	7899.3
2806.63206	7901.2
2809.17967	7910.3
2811.72571	7877.5
2814.27018	7879.3
2816.81308	7896
2819.35442	7879.7
2821.89419	7862
2824.43239	7870.3
2826.96904	7879.3
2829.50412	7902.3
2832.03763	7874.9
2834.56959	7861
2837.1	7865.8
2839.62884	7870.7
2842.15613	7865
2844.68186	7879.7
2847.20604	7898.7
2849.72867	7913.8
2852.24974	7903.2
2854.76927	7928.8
2857.28724	7919.7
2859.80367	7903.3
2862.31855	7878.5
2864.83189	7874.6
2867.34368	7892.3
2869.85393	7877.4
2872.36264	7867.6
2874.8698	7871.1
2877.37543	7857
2879.87952	7859.3
2882.38207	7849.5
2884.88308	7858.1
2887.38256	7859.3
2889.88051	7863.1
2892.37692	7847.3
2894.8718	7838
2897.36515	7864.3
2899.85698	7886.6
2902.34727	7873.8
2904.83604	7874
2907.32328	7897.8
2909.809	7907.7
2912.29319	7902
2914.77587	7901.9
2917.25702	7907.3
2919.73665	7888.4
2922.21476	7881.4
2924.69136	7874.5
2927.16644	7863.9
2929.64	7859
2932.11205	7861.6
2934.58258	7801.4
2937.05161	7826.9
2939.51912	7825.6
2941.98513	7771.5
2944.44962	7767.8
2946.91261	7736.2
2949.37409	7728.2
2951.83407	7708.8
2954.29254	7695.5
2956.74951	7674.3
2959.20498	7643.9
2961.65895	7636.3
2964.11142	7618.9
2966.56239	7560.8
2969.01186	7562.6
2971.45984	7541.3
2973.90632	7496.6
2976.35131	7478.2
2978.7948	7469.2
2981.23681	7447.6
2983.67732	7438.8
2986.11635	7405.3
2988.55388	7388.7
2990.98993	7360.4
2993.4245	7352.5
2995.85758	7357.1
2998.28917	7315.6
3000.71928	7308.2
3003.14791	7316.3
3005.57506	7295.4
3008.00073	7289.4
3010.42493	7279.4
3012.84764	7249.5
3015.26888	7262.9
3017.68865	7213.2
3020.10694	7191.5
3022.52376	7180
3024.9391	7174.1
3027.35298	7162.7
3029.76539	7161.1
3032.17632	7128.5
3034.5858	7122.4
3036.9938	7093.4
3039.40034	7074.5
3041.80542	7090.5
3044.20903	7054.2
3046.61118	7044
3049.01187	7030
3051.4111	7016.4
3053.80888	6999
3056.20519	6995.9
3058.60005	6975.4
3060.99345	6955.2
3063.3854	6945.3
3065.7759	6906
3068.16494	6889.8
3070.55254	6863.2
3072.93868	6844.5
3075.32338	6810.9
3077.70662	6803.5
3080.08842	6779.2
3082.46878	6764.5
3084.84769	6745.1
3087.22515	6736
3089.60118	6738.4
3091.97576	6721.3
3094.3489	6722.2
3096.72061	6725.3
3099.09087	6722.3
3101.4597	6694.5
3103.82709	6706.1
3106.19305	6663.4
3108.55757	6643.2
3110.92066	6637.5
3113.28232	6612.6
3115.64255	6597.3
3118.00134	6588.6
3120.35871	6583.8
3122.71466	6579.3
3125.06917	6555.1
3127.42226	6553.1
3129.77393	6557.4
3132.12417	6548.1
3134.47299	6536.1
3136.82039	6544.5
3139.16636	6531.4
3141.51092	6535.3
3143.85406	6522.3
3146.19579	6523.9
3148.53609	6514.3
3150.87499	6514.8
3153.21246	6497.9
3155.54853	6516.1
3157.88318	6522.9
3160.21642	6504.4
3162.54826	6507.4
3164.87868	6501.8
3167.2077	6484.3
3169.5353	6494.1
3171.86151	6467.5
3174.18631	6478
3176.5097	6465.3
3178.83169	6474.3
3181.15228	6464.7
3183.47147	6435
3185.78926	6446.4
3188.10565	6461.1
3190.42065	6444.8
3192.73424	6421.4
3195.04645	6446.2
3197.35725	6455.2
3199.66667	6462.6
3201.97469	6454
3204.28132	6464.2
3206.58656	6467.3
3208.8904	6465.9
3211.19287	6482.8
3213.49394	6455.2
3215.79363	6452.7
3218.09193	6463.6
3220.38884	6446.1
3222.68438	6468.2
3224.97853	6458.7
3227.2713	6443
3229.56269	6444.2
3231.8527	6444.1
3234.14133	6433
3236.42858	6419
3238.71446	6407.3
3240.99896	6402.9
3243.28209	6395.8
3245.56384	6388.9
3247.84423	6394.4
3250.12324	6382.2
3252.40088	6369.7
3254.67715	6368.7
3256.95205	6339.1
3259.22558	6339.4
3261.49775	6316.7
3263.76855	6290.7
3266.03799	6289.4
3268.30606	6280.5
3270.57277	6287.9
3272.83812	6249.1
3275.10211	6253
3277.36474	6239.4
3279.62601	6265.1
3281.88593	6235.4
3284.14448	6247.2
3286.40168	6268
3288.65753	6223.2
3290.91202	6234.6
3293.16516	6205.8
3295.41695	6191.7
3297.66738	6150
3299.91647	6145.8
3302.16421	6094.3
3304.4106	6087.9
3306.65564	6038.6
3308.89933	6001.5
3311.14169	5973.2
3313.38269	5903.3
3315.62236	5896.9
3317.86068	5823.2
3320.09766	5765.8
3322.3333	5715.9
3324.5676	5722.3
3326.80056	5639.9
3329.03219	5606.3
3331.26248	3.6
3333.49143	-0.3
3335.71905	-0.1
