Data from AgNPs_FTO_APTES_UA_2um_CRN_0.1mM_R6G_10uM_NaF_0.1M_Addition_RamanShift__14__12-31-19-048.txt Node

Date: Tue Dec 21 12:31:19 GMT 2021
User: TCL
Spectrometer: QEP01345
Trigger mode: 4
Integration Time (sec): 7.000000E0
Scans to average: 10
Electric dark correction enabled: true
Nonlinearity correction enabled: false
Boxcar width: 0
XAxis mode: Raman Shifts
Number of Pixels in Spectrum: 1044
>>>>>Begin Spectral Data<<<<<
46.04893	0.9
50.45542	-0.4
54.85868	-1.4
59.25871	-0.4
63.6555	40.3
68.04907	46.1
72.43941	47.9
76.82654	49.2
81.21044	59.3
85.59113	55.5
89.96862	59.4
94.34289	58.1
98.71396	61.4
103.08183	61.5
107.4465	66.1
111.80798	66
116.16626	67.6
120.52136	70.5
124.87327	75
129.222	72.2
133.56755	78.1
137.90993	88.6
142.24913	96.2
146.58517	105.2
150.91804	121.9
155.24774	145.4
159.57429	172.4
163.89768	226.2
168.21792	293.2
172.53501	400.1
176.84895	553.2
181.15975	779.8
185.46741	1095.4
189.77193	1513.4
194.07331	2037.1
198.37157	2635.8
202.6667	3276.9
206.9587	3915.4
211.24758	4555.4
215.53334	5194.4
219.81599	5866.4
224.09553	6612
228.37195	7426.8
232.64527	8324.4
236.91549	9252.4
241.18261	10174.6
245.44663	11014.6
249.70755	11766.1
253.96539	12387
258.22014	12895.2
262.4718	13296.2
266.72039	13612.4
270.96589	13688
275.20832	13714.6
279.44768	13607.2
283.68397	13481.6
287.91719	13408.1
292.14735	13340.5
296.37445	13332.9
300.59849	13387.8
304.81948	13449.5
309.03742	13546.3
313.25231	13461.2
317.46415	13239
321.67296	12827.3
325.87872	12439.6
330.08145	12210.5
334.28114	12106.9
338.47781	12196.4
342.67145	12341.7
346.86207	12535
351.04966	12790.9
355.23424	13067.2
359.4158	13271.8
363.59435	13422.9
367.76989	13480.5
371.94243	13504.8
376.11196	13496.9
380.27849	13515
384.44203	13518.4
388.60257	13602.8
392.76012	13727.5
396.91468	13934.5
401.06626	14198.8
405.21485	14360.4
409.36047	14295.8
413.50311	14044.8
417.64277	13796.3
421.77947	13736.3
425.9132	13728.1
430.04396	13818.3
434.17176	13914.2
438.2966	13956.8
442.41849	14112.4
446.53742	14353.2
450.6534	14617.1
454.76644	14832.6
458.87653	14890.8
462.98368	14865
467.08789	14759.3
471.18916	14612.2
475.2875	14486.9
479.38291	14329.9
483.4754	14259.9
487.56496	14168.6
491.6516	14039.2
495.73531	13935.2
499.81612	13887.2
503.89401	13942.7
507.96899	13980.4
512.04106	13955.2
516.11023	13901
520.1765	13729.3
524.23987	13646.4
528.30034	13496.6
532.35792	13369.4
536.41261	13252.1
540.46441	13084.2
544.51333	13088.5
548.55936	13185.8
552.60252	13451.7
556.64279	13737.1
560.6802	13905.4
564.71473	14029.5
568.7464	14213.8
572.7752	14644.6
576.80114	15073.1
580.82422	15554.6
584.84444	15955
588.86181	16252
592.87633	16409.6
596.888	16349.3
600.89682	16128.8
604.9028	16268.6
608.90594	17457.6
612.90624	18974.4
616.90371	18016.4
620.89834	14862.4
624.89015	13331.1
628.87913	13138.8
632.86528	13304.8
636.84862	13458.3
640.82913	13375.5
644.80683	13006
648.78172	12737.8
652.75379	12672.7
656.72306	12768.2
660.68952	13027.2
664.65319	12994.9
668.61405	12804.9
672.57211	12727.1
676.52738	12821.3
680.47986	12830.9
684.42955	12723.2
688.37646	12638
692.32058	12603.2
696.26192	12667.9
700.20048	12814.2
704.13626	12929.4
708.06928	12990.2
711.99952	12979.3
715.927	12928.6
719.85171	12871.8
723.77365	12797.7
727.69284	12655.9
731.60928	12510.6
735.52295	12412.2
739.43388	12401.5
743.34206	12429.1
747.24749	12505.8
751.15017	12615.6
755.05012	12830.3
758.94733	13246.5
762.8418	14010
766.73354	15330.4
770.62254	16580.5
774.50882	16848.5
778.39237	15995.7
782.27321	14759.5
786.15132	13634.2
790.02671	12917.1
793.89938	12537
797.76935	12356.2
801.6366	12286.9
805.50115	12227.7
809.36299	12154.5
813.22213	12052.4
817.07857	11985.3
820.93231	11939.4
824.78336	11874
828.63172	11859.9
832.47738	11823.8
836.32036	11785.4
840.16066	11761.7
843.99827	11698.1
847.8332	11686.1
851.66546	11708.1
855.49504	11718.8
859.32195	11708.7
863.1462	11697.5
866.96777	11672
870.78668	11661.9
874.60293	11669.6
878.41652	11667.8
882.22745	11709.3
886.03573	11742.3
889.84136	11777.3
893.64433	11731.8
897.44466	11689.1
901.24235	11696.4
905.0374	11629.1
908.8298	11582.3
912.61957	11544.8
916.40671	11638.3
920.19121	11783.3
923.97308	11944.8
927.75233	11960
931.52895	11905.5
935.30295	11701.2
939.07433	11483.6
942.84309	11258.1
946.60924	11122.6
950.37278	11064.1
954.13371	11003.8
957.89203	10986.8
961.64774	10980.8
965.40086	10967.7
969.15137	10962.9
972.89929	10901.4
976.64461	10841
980.38733	10796.4
984.12747	10802.3
987.86502	10808.5
991.59999	10855
995.33237	10935.9
999.06217	11054.3
1002.78939	11210
1006.51404	11415.9
1010.23611	11607.3
1013.95561	11800.9
1017.67255	11825.7
1021.38692	11775.8
1025.09872	11570.9
1028.80796	11415.2
1032.51465	11345.2
1036.21877	11348.8
1039.92035	11444.9
1043.61937	11503.3
1047.31584	11546.8
1051.00976	11618.8
1054.70114	11662.2
1058.38998	11708.8
1062.07627	11795.1
1065.76003	11930.5
1069.44126	12102.5
1073.11995	12339.9
1076.79611	12522.4
1080.46974	12610.9
1084.14085	12673
1087.80943	12814.7
1091.47549	12949.4
1095.13903	13013.8
1098.80005	12851.3
1102.45857	12537.8
1106.11456	12160.8
1109.76805	11963.5
1113.41903	11936.2
1117.06751	12010.9
1120.71348	12179.4
1124.35696	12373
1127.99793	12632.1
1131.63641	12735.2
1135.2724	12675.5
1138.90589	12531.1
1142.5369	12441
1146.16542	12461.6
1149.79145	12484.4
1153.415	12565.3
1157.03607	12717.4
1160.65467	13036.1
1164.27079	13562.6
1167.88443	14288
1171.49561	15176.1
1175.10432	16315.2
1178.71056	17748.9
1182.31434	19050.5
1185.91565	19721.7
1189.51451	19846.7
1193.11091	19405.8
1196.70485	18626.9
1200.29634	17636.7
1203.88538	16810.6
1207.47197	16170.4
1211.05612	15657.1
1214.63782	15240.5
1218.21708	14874.5
1221.79391	14576.4
1225.36829	14402.8
1228.94024	14283.6
1232.50976	14190.4
1236.07685	14063.2
1239.6415	13937.8
1243.20374	13897.7
1246.76355	13890.2
1250.32093	14037.3
1253.8759	14215.8
1257.42845	14640.5
1260.97859	15083.6
1264.52631	15557.1
1268.07163	16000.3
1271.61453	16426.2
1275.15503	16845.9
1278.69312	17293.2
1282.22882	17714.7
1285.76211	18234.5
1289.29301	18840.4
1292.82151	19490
1296.34761	20302.6
1299.87133	21234.5
1303.39266	22321.5
1306.9116	23477.1
1310.42815	24636.1
1313.94233	25314.7
1317.45412	25290.8
1320.96354	24826.9
1324.47058	24422.6
1327.97525	24107.3
1331.47754	23883.8
1334.97747	23837.5
1338.47502	23802
1341.97022	23788.9
1345.46305	23810.4
1348.95352	23834.6
1352.44163	23968.1
1355.92738	24323.8
1359.41078	25088.7
1362.89183	25989.3
1366.37053	25826.3
1369.84688	23984.7
1373.32088	21434.7
1376.79254	19431.9
1380.26186	18362.4
1383.72883	17960.7
1387.19347	17693.4
1390.65578	17392.9
1394.11575	17207.2
1397.57339	17198.6
1401.0287	17289.4
1404.48168	17345.2
1407.93234	17299.4
1411.38068	17065.2
1414.82669	16641.1
1418.27039	16082.6
1421.71177	15508.1
1425.15083	15022.4
1428.58758	14748.3
1432.02203	14729.7
1435.45416	14962.4
1438.88399	15242.9
1442.31151	15531.1
1445.73673	15785.3
1449.15965	16042.8
1452.58027	16214.5
1455.9986	16345
1459.41463	16501.3
1462.82837	16725
1466.23982	17081.7
1469.64898	17421.7
1473.05586	17628.2
1476.46045	17736.8
1479.86276	17809.4
1483.26279	17873
1486.66054	18035.2
1490.05602	18380.4
1493.44922	18875.7
1496.84016	19557.9
1500.22882	20521.7
1503.61521	21692.2
1506.99934	22928.4
1510.38121	23765.7
1513.76081	23794.1
1517.13816	22931.2
1520.51324	21562.4
1523.88607	20345.9
1527.25665	19533.1
1530.62498	19078.1
1533.99105	18746
1537.35488	18419.1
1540.71647	17960.1
1544.07581	17419.5
1547.4329	16910.6
1550.78776	16479.9
1554.14038	16208.5
1557.49077	16127.9
1560.83892	16211.3
1564.18484	16394.3
1567.52853	16646.9
1570.86999	16865.5
1574.20922	17114.4
1577.54624	17165
1580.88103	16920.1
1584.2136	16537.3
1587.54395	16458.7
1590.87208	16785.6
1594.19801	17528.8
1597.52172	18434.4
1600.84321	18811.4
1604.16251	18268.8
1607.47959	17253.8
1610.79447	16103.1
1614.10715	14950.8
1617.41763	13886.6
1620.7259	13035
1624.03199	12550.5
1627.33587	12418.9
1630.63757	12609.6
1633.93707	13195.7
1637.23439	14295.5
1640.52951	16020.4
1643.82246	18292
1647.11321	20539.5
1650.40179	21814
1653.68819	21264.4
1656.97241	19096.7
1660.25446	16359.5
1663.53433	14046.8
1666.81203	12466
1670.08756	11451.4
1673.36092	10825.6
1676.63211	10463.6
1679.90115	10164.7
1683.16801	9972.4
1686.43272	9803.4
1689.69527	9724.4
1692.95567	9640
1696.2139	9606.6
1699.46999	9568
1702.72392	9486.2
1705.97571	9462
1709.22535	9414
1712.47284	9388.2
1715.71819	9340.5
1718.96139	9313
1722.20246	9258.7
1725.44139	9217.7
1728.67818	9167.7
1731.91284	9097.4
1735.14537	9050.5
1738.37576	8992.9
1741.60403	8976.6
1744.83017	8941
1748.05418	8917.3
1751.27607	8923.9
1754.49584	8948
1757.71349	8951.6
1760.92903	8936.8
1764.14244	8958.6
1767.35375	8905.8
1770.56294	8864.2
1773.77002	8799.9
1776.97499	8741.6
1780.17785	8688.4
1783.37861	8659.8
1786.57727	8624.4
1789.77382	8590.1
1792.96828	8577.7
1796.16064	8548.3
1799.3509	8513
1802.53907	8493.4
1805.72514	8460.5
1808.90913	8440.2
1812.09102	8429.1
1815.27083	8393.1
1818.44856	8374.2
1821.6242	8365.6
1824.79776	8357.9
1827.96924	8334.6
1831.13864	8334.5
1834.30597	8310.2
1837.47122	8309.4
1840.6344	8301
1843.7955	8312.8
1846.95454	8308.6
1850.11151	8296.8
1853.26642	8271.6
1856.41926	8268.5
1859.57004	8279.8
1862.71876	8244.2
1865.86542	8235.1
1869.01003	8235.5
1872.15258	8216.3
1875.29308	8201.1
1878.43152	8152.3
1881.56792	8158.4
1884.70227	8150
1887.83457	8135.2
1890.96482	8108.7
1894.09304	8097.4
1897.21921	8085.2
1900.34335	8064.5
1903.46544	8042
1906.58551	8039.5
1909.70353	8027.9
1912.81953	8009.7
1915.93349	7974.4
1919.04543	7976.8
1922.15534	7938.4
1925.26322	7920.8
1928.36908	7895.2
1931.47292	7872.3
1934.57473	7844.2
1937.67453	7828.2
1940.77232	7792.6
1943.86808	7765.1
1946.96184	7763.8
1950.05358	7735.3
1953.14331	7698.9
1956.23103	7676.4
1959.31675	7638
1962.40046	7618.5
1965.48217	7607.3
1968.56188	7579.9
1971.63959	7555
1974.7153	7522.4
1977.78901	7501.8
1980.86073	7450.2
1983.93046	7457.6
1986.99819	7413.6
1990.06394	7388.8
1993.1277	7350.3
1996.18947	7322.2
1999.24925	7327.2
2002.30706	7286.4
2005.36288	7260.6
2008.41672	7237
2011.46859	7208.7
2014.51848	7186.3
2017.56639	7174
2020.61233	7132
2023.6563	7115.4
2026.6983	7095
2029.73833	7087.5
2032.7764	7072.5
2035.8125	7040.8
2038.84664	7034.2
2041.87881	7012.9
2044.90903	6993.8
2047.93729	6977.1
2050.96359	6990.1
2053.98794	6971.1
2057.01034	6946.6
2060.03078	6931.3
2063.04927	6937.6
2066.06582	6908.8
2069.08042	6922.3
2072.09307	6897.3
2075.10378	6903.9
2078.11255	6889.9
2081.11938	6897.8
2084.12426	6888.8
2087.12722	6875
2090.12824	6863.8
2093.12732	6868.7
2096.12447	6877.5
2099.11969	6871.5
2102.11299	6854.8
2105.10435	6870.2
2108.09379	6876.1
2111.08131	6874.2
2114.0669	6867.3
2117.05057	6855.1
2120.03233	6886.8
2123.01216	6865.5
2125.99008	6869.3
2128.96609	6877.9
2131.94018	6859.7
2134.91236	6887.3
2137.88263	6886.2
2140.851	6878.7
2143.81746	6881.6
2146.78201	6848.8
2149.74466	6860.6
2152.7054	6874.9
2155.66425	6842.4
2158.6212	6833.5
2161.57625	6829.8
2164.52941	6845.2
2167.48067	6835.1
2170.43004	6839.7
2173.37752	6836.2
2176.32311	6830
2179.26681	6812.7
2182.20863	6795.8
2185.14856	6829.3
2188.08661	6798.4
2191.02278	6780.9
2193.95707	6775.1
2196.88948	6769.6
2199.82001	6776.7
2202.74867	6754.7
2205.67545	6764
2208.60037	6722.3
2211.52341	6713.5
2214.44458	6691.1
2217.36388	6681.2
2220.28132	6659
2223.1969	6648.2
2226.11061	6661.1
2229.02246	6628.4
2231.93245	6630.1
2234.84058	6612.1
2237.74686	6586.1
2240.65128	6577.7
2243.55385	6567.4
2246.45456	6560.8
2249.35343	6555
2252.25044	6547.4
2255.14561	6520.8
2258.03893	6537.6
2260.93041	6530.3
2263.82004	6493.3
2266.70783	6466.2
2269.59378	6455.8
2272.4779	6436.2
2275.36017	6420.6
2278.24061	6415.5
2281.11922	6410.7
2283.996	6376.8
2286.87094	6364.3
2289.74405	6337.9
2292.61534	6325.3
2295.4848	6317.7
2298.35243	6309
2301.21824	6285.6
2304.08223	6297
2306.94439	6293.5
2309.80474	6273.4
2312.66327	6259.3
2315.51999	6252.8
2318.37489	6247
2321.22797	6248.7
2324.07925	6224.9
2326.92871	6217.3
2329.77637	6230.1
2332.62222	6194.6
2335.46626	6215.1
2338.3085	6195
2341.14893	6194.2
2343.98756	6195
2346.8244	6181.2
2349.65943	6177.4
2352.49267	6159
2355.32411	6157.2
2358.15376	6184.5
2360.98161	6176.7
2363.80768	6192.4
2366.63195	6168.5
2369.45444	6160
2372.27514	6136.3
2375.09405	6128
2377.91118	6122.4
2380.72652	6112.7
2383.54009	6100.5
2386.35187	6077.9
2389.16188	6043.6
2391.97011	6031.7
2394.77657	6023.3
2397.58125	6031.9
2400.38416	6000.2
2403.18529	5979
2405.98466	5989.1
2408.78226	5959.7
2411.57809	5950.7
2414.37216	5948.3
2417.16446	5940.1
2419.955	5934.6
2422.74378	5932.2
2425.5308	5920.1
2428.31606	5915.8
2431.09956	5905
2433.88131	5877.5
2436.6613	5904.9
2439.43954	5902.8
2442.21603	5881.1
2444.99077	5882.1
2447.76377	5886.3
2450.53501	5871.8
2453.30451	5869.8
2456.07226	5869.8
2458.83827	5843.5
2461.60254	5851.3
2464.36507	5836.8
2467.12586	5854.5
2469.88492	5821.4
2472.64224	5838.6
2475.39782	5836.5
2478.15167	5857.9
2480.90379	5836.5
2483.65417	5820.1
2486.40283	5810
2489.14976	5811.4
2491.89497	5813.1
2494.63845	5816.6
2497.3802	5831.5
2500.12024	5820.1
2502.85855	5796
2505.59514	5783.3
2508.33002	5772.1
2511.06318	5776
2513.79462	5757.1
2516.52435	5761.8
2519.25237	5734.8
2521.97867	5725
2524.70327	5723.1
2527.42616	5732.2
2530.14734	5703
2532.86681	5697
2535.58458	5695.8
2538.30065	5677.7
2541.01501	5659
2543.72768	5648.8
2546.43864	5629.8
2549.14791	5643.9
2551.85548	5638.3
2554.56136	5606.3
2557.26554	5615.8
2559.96803	5612.2
2562.66883	5587.9
2565.36794	5578.1
2568.06536	5584.4
2570.7611	5580.2
2573.45514	5558.6
2576.14751	5550.5
2578.83819	5557.6
2581.52719	5553.2
2584.21451	5536.7
2586.90015	5518.1
2589.58411	5510.2
2592.2664	5500.5
2594.94701	5483.2
2597.62594	5482.4
2600.30321	5475.3
2602.9788	5452.2
2605.65273	5449.1
2608.32498	5449.5
2610.99557	5439.6
2613.66449	5425.6
2616.33175	5447.2
2618.99734	5427.4
2621.66128	5415.8
2624.32355	5412.3
2626.98416	5415
2629.64311	5383.3
2632.30041	5396.1
2634.95605	5392.3
2637.61004	5393.1
2640.26238	5389.9
2642.91306	5373.5
2645.56209	5371.2
2648.20948	5377.7
2650.85521	5374
2653.4993	5368.1
2656.14175	5365.8
2658.78255	5355.7
2661.42171	5364
2664.05923	5362
2666.6951	5352.3
2669.32934	5353
2671.96194	5347.7
2674.59291	5376
2677.22224	5362.4
2679.84993	5350.6
2682.476	5339.2
2685.10043	5338.3
2687.72324	5325.2
2690.34441	5334.3
2692.96396	5344.5
2695.58188	5344.2
2698.19818	5338.7
2700.81285	5326
2703.4259	5361.4
2706.03733	5405.1
2708.64714	5386.2
2711.25533	5336.7
2713.86191	5347.3
2716.46687	5343.6
2719.07021	5334.9
2721.67194	5337.7
2724.27206	5330.1
2726.87057	5328.9
2729.46747	5347.2
2732.06276	5333.1
2734.65644	5334.6
2737.24852	5315
2739.83899	5312.4
2742.42786	5306.3
2745.01513	5320
2747.60079	5311.2
2750.18486	5283.5
2752.76733	5278.9
2755.3482	5271.1
2757.92747	5293
2760.50515	5263.3
2763.08123	5257.3
2765.65573	5251.2
2768.22863	5258.8
2770.79994	5240.9
2773.36967	5256.3
2775.9378	5242.9
2778.50435	5227.2
2781.06932	5228.7
2783.6327	5246.2
2786.1945	5227.4
2788.75471	5232.3
2791.31335	5214.4
2793.87041	5199.9
2796.42589	5163.4
2798.97979	5170.5
2801.53212	5154.5
2804.08288	5152.6
2806.63206	5154.3
2809.17967	5132
2811.72571	5137
2814.27018	5136.5
2816.81308	5114.8
2819.35442	5115.4
2821.89419	5104.7
2824.43239	5092.5
2826.96904	5103.1
2829.50412	5124.9
2832.03763	5091.3
2834.56959	5077.4
2837.1	5089.9
2839.62884	5099.6
2842.15613	5100.1
2844.68186	5095.2
2847.20604	5100.7
2849.72867	5115.4
2852.24974	5102.8
2854.76927	5107.5
2857.28724	5102.1
2859.80367	5098.2
2862.31855	5074.7
2864.83189	5082.2
2867.34368	5064.3
2869.85393	5059.6
2872.36264	5059
2874.8698	5041.6
2877.37543	5054.6
2879.87952	5072.1
2882.38207	5036.2
2884.88308	5032.8
2887.38256	5043
2889.88051	5043.4
2892.37692	5038.3
2894.8718	5039.9
2897.36515	5046.1
2899.85698	5046.3
2902.34727	5052.4
2904.83604	5047.3
2907.32328	5056.1
2909.809	5051.1
2912.29319	5060.8
2914.77587	5069
2917.25702	5073.7
2919.73665	5061.9
2922.21476	5068.9
2924.69136	5082.9
2927.16644	5077.8
2929.64	5060.6
2932.11205	5066.4
2934.58258	5028.3
2937.05161	5050.1
2939.51912	5039.5
2941.98513	5045.4
2944.44962	5026.4
2946.91261	5017.5
2949.37409	5011.6
2951.83407	4999
2954.29254	4998.6
2956.74951	4973.3
2959.20498	4971.7
2961.65895	4960.8
2964.11142	4939
2966.56239	4930.1
2969.01186	4925.6
2971.45984	4906.2
2973.90632	4901.5
2976.35131	4859.8
2978.7948	4857.2
2981.23681	4867.5
2983.67732	4830.8
2986.11635	4835
2988.55388	4806.8
2990.98993	4808.4
2993.4245	4790.8
2995.85758	4770.2
2998.28917	4766
3000.71928	4765.3
3003.14791	4755.6
3005.57506	4750
3008.00073	4731.6
3010.42493	4711.1
3012.84764	4709
3015.26888	4718.1
3017.68865	4689
3020.10694	4696.9
3022.52376	4666.8
3024.9391	4673
3027.35298	4656.4
3029.76539	4653.5
3032.17632	4645.9
3034.5858	4640.6
3036.9938	4630.1
3039.40034	4613.9
3041.80542	4594
3044.20903	4600.9
3046.61118	4579.7
3049.01187	4573.4
3051.4111	4570.6
3053.80888	4564.4
3056.20519	4573.7
3058.60005	4550
3060.99345	4554.5
3063.3854	4545.6
3065.7759	4525
3068.16494	4515.5
3070.55254	4496.7
3072.93868	4504.1
3075.32338	4471.7
3077.70662	4470.1
3080.08842	4464.4
3082.46878	4462.7
3084.84769	4442.8
3087.22515	4434.7
3089.60118	4425.8
3091.97576	4426.6
3094.3489	4434.7
3096.72061	4451
3099.09087	4439.9
3101.4597	4414.2
3103.82709	4423.4
3106.19305	4421.5
3108.55757	4408.2
3110.92066	4412.1
3113.28232	4401.1
3115.64255	4391.7
3118.00134	4361.3
3120.35871	4377.2
3122.71466	4367.9
3125.06917	4348.2
3127.42226	4352.5
3129.77393	4355.9
3132.12417	4354.9
3134.47299	4349.1
3136.82039	4327.8
3139.16636	4341.9
3141.51092	4342.6
3143.85406	4351.4
3146.19579	4350.7
3148.53609	4354.3
3150.87499	4353
3153.21246	4367.2
3155.54853	4367.6
3157.88318	4378
3160.21642	4379.6
3162.54826	4345.1
3164.87868	4352.4
3167.2077	4354.5
3169.5353	4342.3
3171.86151	4334.3
3174.18631	4355
3176.5097	4348.7
3178.83169	4345.3
3181.15228	4338.5
3183.47147	4309.6
3185.78926	4329.2
3188.10565	4324.2
3190.42065	4322.2
3192.73424	4321.6
3195.04645	4313.6
3197.35725	4315.6
3199.66667	4315.6
3201.97469	4325.8
3204.28132	4316.4
3206.58656	4342.5
3208.8904	4319.6
3211.19287	4325.5
3213.49394	4309.4
3215.79363	4329.4
3218.09193	4324.1
3220.38884	4328.8
3222.68438	4333.7
3224.97853	4320.5
3227.2713	4313.5
3229.56269	4314.4
3231.8527	4306.6
3234.14133	4297.7
3236.42858	4289.9
3238.71446	4274.2
3240.99896	4281
3243.28209	4265.3
3245.56384	4262.4
3247.84423	4270.7
3250.12324	4268.1
3252.40088	4257.7
3254.67715	4257.7
3256.95205	4236.6
3259.22558	4237.3
3261.49775	4226
3263.76855	4206.1
3266.03799	4202.4
3268.30606	4189.2
3270.57277	4183.5
3272.83812	4181.5
3275.10211	4174.3
3277.36474	4155.8
3279.62601	4158.8
3281.88593	4168.3
3284.14448	4182.3
3286.40168	4143.5
3288.65753	4146.7
3290.91202	4150.8
3293.16516	4132.7
3295.41695	4123
3297.66738	4090.3
3299.91647	4096
3302.16421	4062
3304.4106	4042.1
3306.65564	4031.2
3308.89933	4001.8
3311.14169	3980
3313.38269	3968.1
3315.62236	3952
3317.86068	3898.8
3320.09766	3861.5
3322.3333	3832.4
3324.5676	3846.6
3326.80056	3776.7
3329.03219	3755
3331.26248	1.2
3333.49143	0.1
3335.71905	0.5
