Data from AgNPs_FTO_APTES_UA_2um_CRN_0.1mM_R6G_10uM_NaF_0.1M_Addition_RamanShift__15__12-32-29-052.txt Node

Date: Tue Dec 21 12:32:29 GMT 2021
User: TCL
Spectrometer: QEP01345
Trigger mode: 4
Integration Time (sec): 7.000000E0
Scans to average: 10
Electric dark correction enabled: true
Nonlinearity correction enabled: false
Boxcar width: 0
XAxis mode: Raman Shifts
Number of Pixels in Spectrum: 1044
>>>>>Begin Spectral Data<<<<<
46.04893	-0.5
50.45542	-0.1
54.85868	-0
59.25871	-0.4
63.6555	45.9
68.04907	50.8
72.43941	52.3
76.82654	54.3
81.21044	61.1
85.59113	60.7
89.96862	61.8
94.34289	64.9
98.71396	65.5
103.08183	69.1
107.4465	71.6
111.80798	72.2
116.16626	75.2
120.52136	77.6
124.87327	79.9
129.222	86.2
133.56755	88.3
137.90993	96.9
142.24913	103.4
146.58517	117.7
150.91804	137.4
155.24774	159.9
159.57429	195.3
163.89768	254.9
168.21792	333.6
172.53501	450
176.84895	619.2
181.15975	872.2
185.46741	1228.2
189.77193	1695.1
194.07331	2275.8
198.37157	2938.9
202.6667	3634.6
206.9587	4348.4
211.24758	5057.9
215.53334	5736.5
219.81599	6481
224.09553	7279.9
228.37195	8168
232.64527	9188.2
236.91549	10212.3
241.18261	11225.1
245.44663	12156.3
249.70755	12974.8
253.96539	13671.6
258.22014	14248.5
262.4718	14718.1
266.72039	15049.7
270.96589	15181.5
275.20832	15184.6
279.44768	15078.4
283.68397	14939.7
287.91719	14880.6
292.14735	14798.1
296.37445	14826.3
300.59849	14864
304.81948	14988.5
309.03742	15043.3
313.25231	14915.6
317.46415	14613.3
321.67296	14143
325.87872	13700.4
330.08145	13455.8
334.28114	13370.1
338.47781	13457.7
342.67145	13616.5
346.86207	13818.1
351.04966	14123.1
355.23424	14421.3
359.4158	14653.1
363.59435	14822.6
367.76989	14899.8
371.94243	14939
376.11196	14964
380.27849	14981.2
384.44203	15050.3
388.60257	15191.5
392.76012	15334.8
396.91468	15549.8
401.06626	15785.3
405.21485	15961.3
409.36047	15913.6
413.50311	15650.5
417.64277	15400.4
421.77947	15353.9
425.9132	15412.4
430.04396	15513.5
434.17176	15580.5
438.2966	15654
442.41849	15865.1
446.53742	16326.1
450.6534	16770.4
454.76644	17129.6
458.87653	17210.4
462.98368	17087.6
467.08789	16889.3
471.18916	16634
475.2875	16424
479.38291	16271.1
483.4754	16218.7
487.56496	16044.3
491.6516	15849.9
495.73531	15660.3
499.81612	15555.9
503.89401	15638.6
507.96899	15682.3
512.04106	15636.8
516.11023	15433
520.1765	15249.6
524.23987	15052
528.30034	14948
532.35792	14828.4
536.41261	14677.9
540.46441	14448.7
544.51333	14443.9
548.55936	14587.9
552.60252	14922.4
556.64279	15334
560.6802	15583.1
564.71473	15737
568.7464	16041.7
572.7752	16516.4
576.80114	16988
580.82422	17471.6
584.84444	17903.8
588.86181	18305.7
592.87633	18693.1
596.888	18667.4
600.89682	18322.3
604.9028	18408.6
608.90594	19806.5
612.90624	21427.9
616.90371	20090.6
620.89834	16463.1
624.89015	14700.1
628.87913	14489.5
632.86528	14687.2
636.84862	14829.1
640.82913	14725.1
644.80683	14297.4
648.78172	13960.8
652.75379	13845.4
656.72306	13961.3
660.68952	14194
664.65319	14149.6
668.61405	13885.3
672.57211	13876.5
676.52738	13947.5
680.47986	13994.6
684.42955	13868.5
688.37646	13679.9
692.32058	13681.1
696.26192	13772.8
700.20048	13912.6
704.13626	14038.5
708.06928	14100.8
711.99952	14028.3
715.927	13990.2
719.85171	13953.9
723.77365	13915.8
727.69284	13754.4
731.60928	13639.9
735.52295	13593.3
739.43388	13590.8
743.34206	13565.1
747.24749	13677.7
751.15017	13783.7
755.05012	14019.3
758.94733	14481.3
762.8418	15424.1
766.73354	16899.2
770.62254	18324.4
774.50882	18656.1
778.39237	17610
782.27321	16133.3
786.15132	14848.1
790.02671	14002.9
793.89938	13569.7
797.76935	13390.8
801.6366	13362.7
805.50115	13330
809.36299	13196.7
813.22213	13056.9
817.07857	12959.5
820.93231	12874.8
824.78336	12805.1
828.63172	12741.1
832.47738	12709
836.32036	12687.1
840.16066	12666.4
843.99827	12633.7
847.8332	12632.4
851.66546	12584.4
855.49504	12605
859.32195	12628.3
863.1462	12606.5
866.96777	12558.9
870.78668	12558.7
874.60293	12553.2
878.41652	12567
882.22745	12588.1
886.03573	12632.5
889.84136	12652.4
893.64433	12623.3
897.44466	12616.9
901.24235	12534.1
905.0374	12421.6
908.8298	12317
912.61957	12303.1
916.40671	12397.1
920.19121	12568.9
923.97308	12734.2
927.75233	12791.6
931.52895	12713.9
935.30295	12498.2
939.07433	12214.6
942.84309	11964.3
946.60924	11817.5
950.37278	11760
954.13371	11746.8
957.89203	11716.3
961.64774	11700.8
965.40086	11681
969.15137	11647.5
972.89929	11569
976.64461	11505.9
980.38733	11484.4
984.12747	11479.3
987.86502	11519.1
991.59999	11606.8
995.33237	11738.4
999.06217	11993.3
1002.78939	12269.7
1006.51404	12548.1
1010.23611	12842
1013.95561	13032.6
1017.67255	13102.6
1021.38692	12977.7
1025.09872	12681.5
1028.80796	12433.3
1032.51465	12418.3
1036.21877	12469.5
1039.92035	12541.8
1043.61937	12589.6
1047.31584	12563.7
1051.00976	12532.8
1054.70114	12557.6
1058.38998	12583.7
1062.07627	12705
1065.76003	12817.2
1069.44126	13006.8
1073.11995	13235
1076.79611	13455
1080.46974	13520.2
1084.14085	13597.2
1087.80943	13793.8
1091.47549	13966.4
1095.13903	14035.9
1098.80005	13850.3
1102.45857	13463.6
1106.11456	13116.8
1109.76805	12911.3
1113.41903	12896.5
1117.06751	13017.2
1120.71348	13236.6
1124.35696	13460.4
1127.99793	13706.1
1131.63641	13870.5
1135.2724	13793.6
1138.90589	13671.6
1142.5369	13610.1
1146.16542	13623.9
1149.79145	13629.5
1153.415	13772.6
1157.03607	13952.8
1160.65467	14402.1
1164.27079	15101.4
1167.88443	16080.7
1171.49561	17292.8
1175.10432	18832.5
1178.71056	20730.4
1182.31434	22414.5
1185.91565	23287.9
1189.51451	23266.4
1193.11091	22567.7
1196.70485	21528.1
1200.29634	20284.7
1203.88538	19274.1
1207.47197	18527.5
1211.05612	17920.5
1214.63782	17430.8
1218.21708	17101.4
1221.79391	16862.4
1225.36829	16765.1
1228.94024	16639.8
1232.50976	16362.8
1236.07685	16054.1
1239.6415	15875.6
1243.20374	15685.5
1246.76355	15690.8
1250.32093	15826.6
1253.8759	16129.3
1257.42845	16649.3
1260.97859	17218.1
1264.52631	17810.2
1268.07163	18375.3
1271.61453	18964.8
1275.15503	19582.2
1278.69312	20158.8
1282.22882	20753.3
1285.76211	21495
1289.29301	22330.8
1292.82151	23284.6
1296.34761	24512.3
1299.87133	25940.5
1303.39266	27509.4
1306.9116	29187.2
1310.42815	30877.5
1313.94233	32086.5
1317.45412	32245
1320.96354	31815.6
1324.47058	31201.8
1327.97525	30626.5
1331.47754	30145.8
1334.97747	29800.1
1338.47502	29470.6
1341.97022	29170.8
1345.46305	28873.2
1348.95352	28566.9
1352.44163	28522.5
1355.92738	28950.7
1359.41078	30017.7
1362.89183	31161
1366.37053	30939.4
1369.84688	28674.2
1373.32088	25415.2
1376.79254	22952.7
1380.26186	21776.4
1383.72883	21422.1
1387.19347	21256.4
1390.65578	21046.8
1394.11575	21016.9
1397.57339	21296
1401.0287	21749.8
1404.48168	22176.8
1407.93234	22284.7
1411.38068	21937.3
1414.82669	21175.8
1418.27039	20239.2
1421.71177	19268.4
1425.15083	18403.6
1428.58758	17907
1432.02203	17941.2
1435.45416	18323.2
1438.88399	18872.9
1442.31151	19370.9
1445.73673	19835.8
1449.15965	20208.2
1452.58027	20459.8
1455.9986	20590.5
1459.41463	20755.7
1462.82837	21114.2
1466.23982	21610.5
1469.64898	22071.7
1473.05586	22286
1476.46045	22320.1
1479.86276	22228.1
1483.26279	22021.6
1486.66054	21931
1490.05602	22129.2
1493.44922	22414.2
1496.84016	22829.4
1500.22882	23447.6
1503.61521	24411.5
1506.99934	25550.1
1510.38121	26444.8
1513.76081	26579.6
1517.13816	25777
1520.51324	24347.4
1523.88607	23061.6
1527.25665	22247.3
1530.62498	21897.2
1533.99105	21676.3
1537.35488	21444.8
1540.71647	21053.6
1544.07581	20518
1547.4329	19907.7
1550.78776	19417.3
1554.14038	19082.7
1557.49077	18914.3
1560.83892	18917.2
1564.18484	19067.5
1567.52853	19245.4
1570.86999	19452.8
1574.20922	19722.9
1577.54624	19882.7
1580.88103	19737.7
1584.2136	19557.8
1587.54395	19778.5
1590.87208	20508
1594.19801	21793.9
1597.52172	23256.8
1600.84321	23962.5
1604.16251	23261.5
1607.47959	21565.6
1610.79447	19601.2
1614.10715	17764.3
1617.41763	16138.9
1620.7259	15000.3
1624.03199	14339.2
1627.33587	14194.3
1630.63757	14524.6
1633.93707	15518.5
1637.23439	17192.1
1640.52951	19785.4
1643.82246	22986.6
1647.11321	25933.1
1650.40179	27079.8
1653.68819	25659
1656.97241	22293.5
1660.25446	18602.8
1663.53433	15678.9
1666.81203	13807.5
1670.08756	12602.3
1673.36092	11853.3
1676.63211	11411.7
1679.90115	11055.5
1683.16801	10817.1
1686.43272	10638
1689.69527	10503.3
1692.95567	10403
1696.2139	10370.2
1699.46999	10342.4
1702.72392	10282.1
1705.97571	10215.4
1709.22535	10146.4
1712.47284	10093.6
1715.71819	10078.3
1718.96139	10004.7
1722.20246	9954.4
1725.44139	9920.8
1728.67818	9839.4
1731.91284	9775.4
1735.14537	9705.7
1738.37576	9643.9
1741.60403	9630
1744.83017	9612.4
1748.05418	9579.5
1751.27607	9590.6
1754.49584	9634.2
1757.71349	9620.2
1760.92903	9616.4
1764.14244	9554.6
1767.35375	9523.8
1770.56294	9486.1
1773.77002	9439.9
1776.97499	9350.6
1780.17785	9296.4
1783.37861	9287.2
1786.57727	9228.1
1789.77382	9202.9
1792.96828	9171.3
1796.16064	9152.6
1799.3509	9106.4
1802.53907	9093.3
1805.72514	9066.8
1808.90913	9024.5
1812.09102	9007.5
1815.27083	8967.4
1818.44856	8937.3
1821.6242	8939.6
1824.79776	8918.9
1827.96924	8919.8
1831.13864	8893.4
1834.30597	8918.9
1837.47122	8898.2
1840.6344	8889.1
1843.7955	8874
1846.95454	8879.4
1850.11151	8880
1853.26642	8876.9
1856.41926	8860.2
1859.57004	8850.8
1862.71876	8845.2
1865.86542	8830.9
1869.01003	8820.9
1872.15258	8797.5
1875.29308	8801.5
1878.43152	8785.7
1881.56792	8751
1884.70227	8743.8
1887.83457	8744.1
1890.96482	8714.7
1894.09304	8723.1
1897.21921	8734.5
1900.34335	8706.8
1903.46544	8687.4
1906.58551	8683.1
1909.70353	8645.2
1912.81953	8631
1915.93349	8581
1919.04543	8570.2
1922.15534	8534.9
1925.26322	8526.8
1928.36908	8505.1
1931.47292	8464.7
1934.57473	8467.6
1937.67453	8423.3
1940.77232	8385.4
1943.86808	8370.8
1946.96184	8327.6
1950.05358	8303.8
1953.14331	8286
1956.23103	8245.6
1959.31675	8195.3
1962.40046	8181.9
1965.48217	8182
1968.56188	8139.9
1971.63959	8096
1974.7153	8088.9
1977.78901	8034.3
1980.86073	8011.8
1983.93046	8004.9
1986.99819	7957.7
1990.06394	7933.9
1993.1277	7921.8
1996.18947	7875.6
1999.24925	7871.7
2002.30706	7845.2
2005.36288	7797.4
2008.41672	7777.2
2011.46859	7761
2014.51848	7719.6
2017.56639	7710.9
2020.61233	7690
2023.6563	7664.1
2026.6983	7651.3
2029.73833	7639.7
2032.7764	7613.6
2035.8125	7592.1
2038.84664	7569.3
2041.87881	7553.4
2044.90903	7559.7
2047.93729	7572.8
2050.96359	7553.4
2053.98794	7520.3
2057.01034	7507.6
2060.03078	7508
2063.04927	7481.3
2066.06582	7474.4
2069.08042	7461.1
2072.09307	7436.3
2075.10378	7436.1
2078.11255	7433.3
2081.11938	7446
2084.12426	7424.2
2087.12722	7437.4
2090.12824	7411.8
2093.12732	7416.5
2096.12447	7399.4
2099.11969	7396.3
2102.11299	7416.4
2105.10435	7397.9
2108.09379	7415.6
2111.08131	7406.3
2114.0669	7406.5
2117.05057	7398.3
2120.03233	7406.9
2123.01216	7404.7
2125.99008	7409.8
2128.96609	7401.9
2131.94018	7412.6
2134.91236	7413.4
2137.88263	7407
2140.851	7406.3
2143.81746	7413.1
2146.78201	7390.9
2149.74466	7389.7
2152.7054	7383.7
2155.66425	7391.5
2158.6212	7366.5
2161.57625	7379.7
2164.52941	7362.9
2167.48067	7347.9
2170.43004	7367.6
2173.37752	7344.1
2176.32311	7352.1
2179.26681	7332.5
2182.20863	7337.2
2185.14856	7350.2
2188.08661	7326.8
2191.02278	7332.9
2193.95707	7330.1
2196.88948	7322.9
2199.82001	7316.7
2202.74867	7298.4
2205.67545	7294.9
2208.60037	7277
2211.52341	7271
2214.44458	7266.2
2217.36388	7214.8
2220.28132	7197.8
2223.1969	7207.5
2226.11061	7182
2229.02246	7183.5
2231.93245	7181.9
2234.84058	7146.3
2237.74686	7136.1
2240.65128	7122.4
2243.55385	7130.9
2246.45456	7103.3
2249.35343	7074.8
2252.25044	7082.1
2255.14561	7061.4
2258.03893	7068.9
2260.93041	7042.3
2263.82004	7006.7
2266.70783	7004
2269.59378	6961.7
2272.4779	6946.8
2275.36017	6939.3
2278.24061	6932.7
2281.11922	6874.1
2283.996	6892.1
2286.87094	6889
2289.74405	6858.7
2292.61534	6831.6
2295.4848	6826.1
2298.35243	6828.5
2301.21824	6824.1
2304.08223	6811.1
2306.94439	6813.2
2309.80474	6799
2312.66327	6791.6
2315.51999	6774.1
2318.37489	6779.4
2321.22797	6763.8
2324.07925	6763.1
2326.92871	6750
2329.77637	6753.4
2332.62222	6712.7
2335.46626	6730.3
2338.3085	6714.9
2341.14893	6716.6
2343.98756	6717
2346.8244	6707.6
2349.65943	6714.7
2352.49267	6707.2
2355.32411	6709.7
2358.15376	6735.5
2360.98161	6707.5
2363.80768	6695
2366.63195	6711
2369.45444	6712.6
2372.27514	6683.4
2375.09405	6677.4
2377.91118	6660.4
2380.72652	6637.8
2383.54009	6610.6
2386.35187	6582.8
2389.16188	6581.1
2391.97011	6561.6
2394.77657	6558.8
2397.58125	6549.2
2400.38416	6522.5
2403.18529	6522.1
2405.98466	6491.4
2408.78226	6495.6
2411.57809	6477.6
2414.37216	6457.3
2417.16446	6457.4
2419.955	6459.9
2422.74378	6454.5
2425.5308	6436.5
2428.31606	6430.3
2431.09956	6424.8
2433.88131	6420.5
2436.6613	6425.1
2439.43954	6394.2
2442.21603	6388.7
2444.99077	6387.8
2447.76377	6392.2
2450.53501	6395.9
2453.30451	6389.5
2456.07226	6393.4
2458.83827	6403
2461.60254	6378.3
2464.36507	6380.2
2467.12586	6393.2
2469.88492	6367.6
2472.64224	6371.1
2475.39782	6380.3
2478.15167	6391.4
2480.90379	6372.9
2483.65417	6386.6
2486.40283	6382.4
2489.14976	6376.6
2491.89497	6376.5
2494.63845	6396.8
2497.3802	6399.5
2500.12024	6380.9
2502.85855	6357.9
2505.59514	6349.9
2508.33002	6340.5
2511.06318	6325.5
2513.79462	6331.3
2516.52435	6297.1
2519.25237	6294.8
2521.97867	6288.5
2524.70327	6282.6
2527.42616	6265.9
2530.14734	6260.2
2532.86681	6263.3
2535.58458	6257.4
2538.30065	6232
2541.01501	6242
2543.72768	6222.7
2546.43864	6210
2549.14791	6209.4
2551.85548	6193.7
2554.56136	6195.5
2557.26554	6177.1
2559.96803	6190.2
2562.66883	6173.5
2565.36794	6178.7
2568.06536	6159.5
2570.7611	6170.7
2573.45514	6151.5
2576.14751	6148.5
2578.83819	6159.7
2581.52719	6143.9
2584.21451	6118.1
2586.90015	6123.8
2589.58411	6115.1
2592.2664	6106.3
2594.94701	6103.8
2597.62594	6093.9
2600.30321	6094.2
2602.9788	6069.4
2605.65273	6064.1
2608.32498	6068
2610.99557	6060.5
2613.66449	6057.2
2616.33175	6070.3
2618.99734	6061.1
2621.66128	6056.1
2624.32355	6046
2626.98416	6058.8
2629.64311	6051
2632.30041	6050.9
2634.95605	6033.2
2637.61004	6015.7
2640.26238	6010.5
2642.91306	6022
2645.56209	6007.8
2648.20948	6020.3
2650.85521	6011.4
2653.4993	6004.4
2656.14175	6013.9
2658.78255	6021.6
2661.42171	5996.1
2664.05923	6009
2666.6951	6031.5
2669.32934	6014.1
2671.96194	6027.5
2674.59291	6009.7
2677.22224	6007.7
2679.84993	6019.2
2682.476	5988.5
2685.10043	6007.7
2687.72324	5988.5
2690.34441	6000.7
2692.96396	5981.8
2695.58188	5984.3
2698.19818	5985.3
2700.81285	5985.1
2703.4259	6004.1
2706.03733	6089.2
2708.64714	6043.9
2711.25533	6033.2
2713.86191	6002.7
2716.46687	6002.2
2719.07021	6011.9
2721.67194	6013.7
2724.27206	6013.2
2726.87057	5994.7
2729.46747	6013.9
2732.06276	6002.7
2734.65644	5998.2
2737.24852	6020.9
2739.83899	6001.5
2742.42786	5985.2
2745.01513	5978.7
2747.60079	5994.9
2750.18486	5975
2752.76733	5958.1
2755.3482	5956.9
2757.92747	5971.1
2760.50515	5980.2
2763.08123	5964.6
2765.65573	5945.3
2768.22863	5980.5
2770.79994	5944.5
2773.36967	5952.2
2775.9378	5944
2778.50435	5956
2781.06932	5947.8
2783.6327	5941.9
2786.1945	5927.2
2788.75471	5943.5
2791.31335	5924.4
2793.87041	5915.7
2796.42589	5896.1
2798.97979	5893.9
2801.53212	5897.8
2804.08288	5882.3
2806.63206	5878.9
2809.17967	5853.9
2811.72571	5841.4
2814.27018	5859.9
2816.81308	5847
2819.35442	5845.8
2821.89419	5835.1
2824.43239	5842.5
2826.96904	5840.3
2829.50412	5838.9
2832.03763	5806.4
2834.56959	5800.7
2837.1	5794.8
2839.62884	5799.5
2842.15613	5798.4
2844.68186	5802
2847.20604	5834.1
2849.72867	5845.3
2852.24974	5809.4
2854.76927	5821.9
2857.28724	5834.9
2859.80367	5803.5
2862.31855	5795.7
2864.83189	5782.4
2867.34368	5783.7
2869.85393	5784.3
2872.36264	5770.5
2874.8698	5760.7
2877.37543	5755.8
2879.87952	5765.2
2882.38207	5762.4
2884.88308	5755.7
2887.38256	5773.5
2889.88051	5753.6
2892.37692	5760.8
2894.8718	5771.5
2897.36515	5782.8
2899.85698	5791.2
2902.34727	5792.6
2904.83604	5777.3
2907.32328	5808.8
2909.809	5801.8
2912.29319	5805.3
2914.77587	5816.5
2917.25702	5821.4
2919.73665	5808.6
2922.21476	5821.8
2924.69136	5820.3
2927.16644	5820
2929.64	5812.2
2932.11205	5810.3
2934.58258	5782
2937.05161	5805.4
2939.51912	5794.7
2941.98513	5801.3
2944.44962	5786.6
2946.91261	5763.3
2949.37409	5764.9
2951.83407	5760.5
2954.29254	5742.3
2956.74951	5718.3
2959.20498	5720.5
2961.65895	5710.3
2964.11142	5692.1
2966.56239	5662.1
2969.01186	5636.1
2971.45984	5633.2
2973.90632	5620.8
2976.35131	5592
2978.7948	5588.3
2981.23681	5576
2983.67732	5551.1
2986.11635	5517.7
2988.55388	5529.1
2990.98993	5499.1
2993.4245	5472.9
2995.85758	5481.4
2998.28917	5460.9
3000.71928	5465.4
3003.14791	5461.5
3005.57506	5450.1
3008.00073	5415.3
3010.42493	5406.2
3012.84764	5396.1
3015.26888	5414.9
3017.68865	5369.4
3020.10694	5365.4
3022.52376	5350.2
3024.9391	5363.1
3027.35298	5347.3
3029.76539	5347.7
3032.17632	5336.9
3034.5858	5305.4
3036.9938	5302.8
3039.40034	5310.5
3041.80542	5310.8
3044.20903	5269.6
3046.61118	5270.8
3049.01187	5255.8
3051.4111	5249
3053.80888	5247.4
3056.20519	5217.6
3058.60005	5222.8
3060.99345	5227.7
3063.3854	5195.4
3065.7759	5176.5
3068.16494	5176.6
3070.55254	5151.3
3072.93868	5142.2
3075.32338	5134.2
3077.70662	5131.6
3080.08842	5103.2
3082.46878	5093.2
3084.84769	5073.4
3087.22515	5089.4
3089.60118	5083.8
3091.97576	5088.7
3094.3489	5089
3096.72061	5081.3
3099.09087	5077
3101.4597	5068.7
3103.82709	5087.1
3106.19305	5057.7
3108.55757	5066.6
3110.92066	5031.1
3113.28232	5033.9
3115.64255	5016.7
3118.00134	4990.2
3120.35871	5008.3
3122.71466	4982.8
3125.06917	4978
3127.42226	4971.9
3129.77393	4964.3
3132.12417	4956.8
3134.47299	4966.1
3136.82039	4963
3139.16636	4955.4
3141.51092	4950.1
3143.85406	4962.1
3146.19579	4959.9
3148.53609	4955.1
3150.87499	4974.5
3153.21246	4965
3155.54853	4957.8
3157.88318	4977
3160.21642	4993.4
3162.54826	4961.9
3164.87868	4954.1
3167.2077	4984.3
3169.5353	4951.1
3171.86151	4961.4
3174.18631	4935.7
3176.5097	4950.1
3178.83169	4940.5
3181.15228	4929.2
3183.47147	4915.1
3185.78926	4922.8
3188.10565	4935.5
3190.42065	4919
3192.73424	4919.7
3195.04645	4911.9
3197.35725	4929.6
3199.66667	4941
3201.97469	4933.1
3204.28132	4915
3206.58656	4929.4
3208.8904	4917.4
3211.19287	4925.5
3213.49394	4921.1
3215.79363	4926.8
3218.09193	4934.8
3220.38884	4930.6
3222.68438	4962.6
3224.97853	4921.4
3227.2713	4909.2
3229.56269	4912.1
3231.8527	4912.1
3234.14133	4897
3236.42858	4887.7
3238.71446	4891.3
3240.99896	4860.4
3243.28209	4866.1
3245.56384	4859.4
3247.84423	4864.1
3250.12324	4872
3252.40088	4862.2
3254.67715	4854.2
3256.95205	4838.9
3259.22558	4816.9
3261.49775	4815
3263.76855	4788.4
3266.03799	4800.7
3268.30606	4788.8
3270.57277	4758.8
3272.83812	4763
3275.10211	4769.4
3277.36474	4758.4
3279.62601	4759.1
3281.88593	4752.6
3284.14448	4760.7
3286.40168	4762.8
3288.65753	4751.8
3290.91202	4755.8
3293.16516	4720.7
3295.41695	4712.4
3297.66738	4687.8
3299.91647	4653.2
3302.16421	4651.4
3304.4106	4632.5
3306.65564	4586.5
3308.89933	4566
3311.14169	4540.8
3313.38269	4517.8
3315.62236	4486.4
3317.86068	4451.3
3320.09766	4400.7
3322.3333	4384.8
3324.5676	4372.5
3326.80056	4310.5
3329.03219	4269.8
3331.26248	1.2
3333.49143	0.4
3335.71905	-1.1
