Data from AgNPs_FTO_APTES_UA_10um_CRN_0.1mM_R6G_10uM_NaF_0.1M_Addition_RamanShift__31__14-11-39-161.txt Node

Date: Tue Dec 21 14:11:39 GMT 2021
User: TCL
Spectrometer: QEP01345
Trigger mode: 4
Integration Time (sec): 7.000000E0
Scans to average: 10
Electric dark correction enabled: true
Nonlinearity correction enabled: false
Boxcar width: 0
XAxis mode: Raman Shifts
Number of Pixels in Spectrum: 1044
>>>>>Begin Spectral Data<<<<<
46.04893	0.2
50.45542	-1.1
54.85868	-0.1
59.25871	-0.4
63.6555	26.5
68.04907	32.5
72.43941	34.4
76.82654	36.3
81.21044	39.1
85.59113	39.2
89.96862	42.4
94.34289	46.1
98.71396	40.6
103.08183	47.4
107.4465	46.3
111.80798	45.6
116.16626	46.7
120.52136	47.2
124.87327	50.4
129.222	47.3
133.56755	54.2
137.90993	58.8
142.24913	57.5
146.58517	64.1
150.91804	73.5
155.24774	80
159.57429	96.1
163.89768	124
168.21792	157.2
172.53501	212.1
176.84895	282.5
181.15975	393.7
185.46741	553.4
189.77193	751.4
194.07331	1004.3
198.37157	1301.5
202.6667	1602.7
206.9587	1903.3
211.24758	2197.5
215.53334	2530
219.81599	2880.8
224.09553	3272.2
228.37195	3710.2
232.64527	4196.8
236.91549	4676.1
241.18261	5130.7
245.44663	5492.3
249.70755	5820.1
253.96539	6036.4
258.22014	6233
262.4718	6369.9
266.72039	6475.8
270.96589	6529.3
275.20832	6503.3
279.44768	6448.5
283.68397	6361.2
287.91719	6311.3
292.14735	6346.2
296.37445	6460.2
300.59849	6698.9
304.81948	6990.7
309.03742	7213.7
313.25231	7214.6
317.46415	6887.9
321.67296	6337.3
325.87872	5822.5
330.08145	5596.7
334.28114	5541.3
338.47781	5666.3
342.67145	5840.5
346.86207	6127.8
351.04966	6510.8
355.23424	6982.9
359.4158	7343.9
363.59435	7494
367.76989	7518.5
371.94243	7465
376.11196	7383.5
380.27849	7331.9
384.44203	7229.6
388.60257	7118.7
392.76012	7059.8
396.91468	7136.9
401.06626	7368
405.21485	7551.6
409.36047	7457.2
413.50311	7045.6
417.64277	6653.7
421.77947	6411.6
425.9132	6319.4
430.04396	6263.4
434.17176	6290.3
438.2966	6354.3
442.41849	6494.4
446.53742	6676.2
450.6534	6868.9
454.76644	7012.7
458.87653	7032.2
462.98368	6979.9
467.08789	6845.9
471.18916	6696.5
475.2875	6518
479.38291	6346.8
483.4754	6233.4
487.56496	6170.1
491.6516	6124.7
495.73531	6092
499.81612	6096.5
503.89401	6166.6
507.96899	6240.9
512.04106	6307.2
516.11023	6433.1
520.1765	6478
524.23987	6472
528.30034	6371.1
532.35792	6188.2
536.41261	6013.8
540.46441	5837.6
544.51333	5737.7
548.55936	5752.9
552.60252	5901.1
556.64279	6061
560.6802	6165.9
564.71473	6285.2
568.7464	6612.7
572.7752	6845.9
576.80114	6693.4
580.82422	6433.8
584.84444	6348.2
588.86181	6327
592.87633	6300.6
596.888	6348
600.89682	6590.9
604.9028	7364.7
608.90594	9465.8
612.90624	12348.1
616.90371	12182.5
620.89834	8464.2
624.89015	6535.8
628.87913	6171.6
632.86528	6249.4
636.84862	6371.4
640.82913	6275.5
644.80683	5953.5
648.78172	5693.8
652.75379	5696.4
656.72306	5948.2
660.68952	6305.8
664.65319	6250.1
668.61405	5898.7
672.57211	5705.4
676.52738	5695.9
680.47986	5696.8
684.42955	5655.4
688.37646	5602.6
692.32058	5619.8
696.26192	5681.1
700.20048	5770.1
704.13626	5873.4
708.06928	5875.2
711.99952	5791.4
715.927	5736.5
719.85171	5717.8
723.77365	5703.8
727.69284	5631.6
731.60928	5540.5
735.52295	5519.9
739.43388	5499.9
743.34206	5549.5
747.24749	5595.5
751.15017	5663.4
755.05012	5802.7
758.94733	6139.9
762.8418	6839
766.73354	8059.6
770.62254	9367.5
774.50882	10081.4
778.39237	9773.8
782.27321	8427.1
786.15132	7004.5
790.02671	6151.8
793.89938	5767.1
797.76935	5639.9
801.6366	5588.4
805.50115	5555.4
809.36299	5569.4
813.22213	5577.6
817.07857	5557.2
820.93231	5495.5
824.78336	5462.4
828.63172	5470.9
832.47738	5476
836.32036	5447.6
840.16066	5410.5
843.99827	5370.3
847.8332	5331.9
851.66546	5338.9
855.49504	5314.1
859.32195	5316.3
863.1462	5286.6
866.96777	5238.7
870.78668	5241.7
874.60293	5261.2
878.41652	5281.5
882.22745	5357.9
886.03573	5406.4
889.84136	5397.8
893.64433	5352.2
897.44466	5315.5
901.24235	5279.3
905.0374	5232.9
908.8298	5198.8
912.61957	5161.7
916.40671	5203.1
920.19121	5249.6
923.97308	5319.2
927.75233	5368.6
931.52895	5411.6
935.30295	5328.6
939.07433	5170.4
942.84309	4996.1
946.60924	4897.4
950.37278	4834.5
954.13371	4801.7
957.89203	4790.2
961.64774	4754
965.40086	4759.3
969.15137	4727.7
972.89929	4694.5
976.64461	4693.2
980.38733	4697.5
984.12747	4687.7
987.86502	4720.8
991.59999	4742.9
995.33237	4803.9
999.06217	4892.2
1002.78939	5035.5
1006.51404	5188.4
1010.23611	5360.3
1013.95561	5471
1017.67255	5462.7
1021.38692	5358.3
1025.09872	5263.7
1028.80796	5182.5
1032.51465	5189.6
1036.21877	5282.6
1039.92035	5382.5
1043.61937	5431.1
1047.31584	5431.2
1051.00976	5385.8
1054.70114	5346.9
1058.38998	5347.6
1062.07627	5363.7
1065.76003	5425.4
1069.44126	5468.5
1073.11995	5533.9
1076.79611	5608
1080.46974	5701.9
1084.14085	5808.2
1087.80943	5960
1091.47549	6038.2
1095.13903	5940.6
1098.80005	5696.3
1102.45857	5456
1106.11456	5365.7
1109.76805	5368.3
1113.41903	5491.8
1117.06751	5690.8
1120.71348	5991
1124.35696	6335
1127.99793	6621.5
1131.63641	6641
1135.2724	6325.9
1138.90589	5974.3
1142.5369	5766.2
1146.16542	5622.5
1149.79145	5531.8
1153.415	5507.7
1157.03607	5558.9
1160.65467	5660.1
1164.27079	5870.3
1167.88443	6179.3
1171.49561	6707.8
1175.10432	7615.2
1178.71056	8799.1
1182.31434	9676
1185.91565	9864.2
1189.51451	9584.8
1193.11091	9080.6
1196.70485	8485.7
1200.29634	7971.4
1203.88538	7578.7
1207.47197	7046.2
1211.05612	6576.2
1214.63782	6293.5
1218.21708	6174
1221.79391	6142.5
1225.36829	6148
1228.94024	6167.9
1232.50976	6187.7
1236.07685	6226.1
1239.6415	6262.2
1243.20374	6281.7
1246.76355	6315.2
1250.32093	6407.4
1253.8759	6550.3
1257.42845	6742.8
1260.97859	6962.9
1264.52631	7176.6
1268.07163	7385.3
1271.61453	7562.8
1275.15503	7702.3
1278.69312	7803.4
1282.22882	7855.9
1285.76211	8048.2
1289.29301	8317.6
1292.82151	8619.8
1296.34761	8890.3
1299.87133	9336.7
1303.39266	10116.9
1306.9116	11241.3
1310.42815	12487.1
1313.94233	13245.1
1317.45412	12993.1
1320.96354	12063.5
1324.47058	11105.7
1327.97525	10345.3
1331.47754	9915.4
1334.97747	9811.1
1338.47502	9901.7
1341.97022	10173.6
1345.46305	10561.9
1348.95352	11125.4
1352.44163	11855.7
1355.92738	12975.3
1359.41078	14708.8
1362.89183	16276.5
1366.37053	15831.3
1369.84688	13661.7
1373.32088	11425.1
1376.79254	9825.2
1380.26186	8949
1383.72883	8423.9
1387.19347	8109.1
1390.65578	7783.4
1394.11575	7524.9
1397.57339	7406.5
1401.0287	7402.6
1404.48168	7530.4
1407.93234	7643.1
1411.38068	7717.4
1414.82669	7673.9
1418.27039	7552.2
1421.71177	7358.5
1425.15083	7154.9
1428.58758	7051.1
1432.02203	7047.9
1435.45416	7072.2
1438.88399	7104.3
1442.31151	7091.9
1445.73673	7140.4
1449.15965	7157.8
1452.58027	7149.3
1455.9986	7113.7
1459.41463	7116.1
1462.82837	7195
1466.23982	7326.9
1469.64898	7488
1473.05586	7619.7
1476.46045	7720.1
1479.86276	7837.2
1483.26279	8040.1
1486.66054	8289.1
1490.05602	8628.5
1493.44922	9099.3
1496.84016	9758.5
1500.22882	10769.6
1503.61521	12110.3
1506.99934	13513.3
1510.38121	14728.2
1513.76081	15255.3
1517.13816	14499.6
1520.51324	12714.1
1523.88607	10924.3
1527.25665	9684.7
1530.62498	9026.4
1533.99105	8631.7
1537.35488	8409.1
1540.71647	8277
1544.07581	8187.5
1547.4329	8150.1
1550.78776	8090.5
1554.14038	8053.5
1557.49077	8066.4
1560.83892	8166.7
1564.18484	8409.4
1567.52853	8715.6
1570.86999	8977.9
1574.20922	9136.4
1577.54624	9071.1
1580.88103	8620.2
1584.2136	7994.6
1587.54395	7634.2
1590.87208	7716.4
1594.19801	8129.3
1597.52172	8735.8
1600.84321	9047.5
1604.16251	8765
1607.47959	8185.2
1610.79447	7521.5
1614.10715	6892.7
1617.41763	6366.5
1620.7259	6069.6
1624.03199	5907.4
1627.33587	5891.9
1630.63757	5980.7
1633.93707	6259.1
1637.23439	6684.4
1640.52951	7366.7
1643.82246	8287.3
1647.11321	9418
1650.40179	10285.5
1653.68819	10185.9
1656.97241	8970
1660.25446	7496.2
1663.53433	6357
1666.81203	5672.3
1670.08756	5260.6
1673.36092	5016.1
1676.63211	4833.4
1679.90115	4714.8
1683.16801	4613.1
1686.43272	4547.8
1689.69527	4471.9
1692.95567	4423.1
1696.2139	4421.5
1699.46999	4427.5
1702.72392	4388.6
1705.97571	4363
1709.22535	4330.4
1712.47284	4313.7
1715.71819	4318.7
1718.96139	4323
1722.20246	4312.4
1725.44139	4279.5
1728.67818	4273.9
1731.91284	4216.7
1735.14537	4185.9
1738.37576	4146.4
1741.60403	4109.7
1744.83017	4106.4
1748.05418	4077.8
1751.27607	4080
1754.49584	4080.1
1757.71349	4080.4
1760.92903	4063.6
1764.14244	4035.7
1767.35375	4023.7
1770.56294	4008.9
1773.77002	3959.6
1776.97499	3955.7
1780.17785	3920.7
1783.37861	3896.9
1786.57727	3885.4
1789.77382	3870.5
1792.96828	3873.6
1796.16064	3838
1799.3509	3826.4
1802.53907	3828.7
1805.72514	3827.9
1808.90913	3803.5
1812.09102	3800.9
1815.27083	3784.6
1818.44856	3764.9
1821.6242	3765.7
1824.79776	3756.5
1827.96924	3751.7
1831.13864	3741
1834.30597	3736.2
1837.47122	3730
1840.6344	3717.5
1843.7955	3712.8
1846.95454	3705.3
1850.11151	3706
1853.26642	3710.4
1856.41926	3692.9
1859.57004	3698.9
1862.71876	3706
1865.86542	3696.3
1869.01003	3695.3
1872.15258	3705.6
1875.29308	3693.7
1878.43152	3681
1881.56792	3685.1
1884.70227	3680.5
1887.83457	3671.3
1890.96482	3676
1894.09304	3661.1
1897.21921	3662.7
1900.34335	3657.2
1903.46544	3672.3
1906.58551	3670.8
1909.70353	3675.6
1912.81953	3650.9
1915.93349	3644.2
1919.04543	3649.1
1922.15534	3648.8
1925.26322	3641.4
1928.36908	3620.4
1931.47292	3610.2
1934.57473	3592
1937.67453	3585.1
1940.77232	3558.6
1943.86808	3545.6
1946.96184	3538
1950.05358	3532.4
1953.14331	3522
1956.23103	3496
1959.31675	3489.7
1962.40046	3472.2
1965.48217	3458
1968.56188	3446.2
1971.63959	3455.7
1974.7153	3431.6
1977.78901	3418.8
1980.86073	3410.4
1983.93046	3405.6
1986.99819	3398.1
1990.06394	3374.2
1993.1277	3355.5
1996.18947	3339.8
1999.24925	3342.1
2002.30706	3318.4
2005.36288	3304.1
2008.41672	3301.5
2011.46859	3287.6
2014.51848	3272.9
2017.56639	3267.8
2020.61233	3256.5
2023.6563	3237.8
2026.6983	3238.7
2029.73833	3235.8
2032.7764	3225.2
2035.8125	3201.3
2038.84664	3212.5
2041.87881	3188.1
2044.90903	3191.7
2047.93729	3189.3
2050.96359	3192.2
2053.98794	3162.4
2057.01034	3170.1
2060.03078	3165.6
2063.04927	3165.8
2066.06582	3154.9
2069.08042	3141
2072.09307	3142.4
2075.10378	3136.3
2078.11255	3138.2
2081.11938	3122.7
2084.12426	3124.2
2087.12722	3124.2
2090.12824	3118
2093.12732	3131.2
2096.12447	3114.3
2099.11969	3112.7
2102.11299	3110.2
2105.10435	3120.9
2108.09379	3122.6
2111.08131	3117.3
2114.0669	3123.5
2117.05057	3119.1
2120.03233	3122.8
2123.01216	3112.9
2125.99008	3112
2128.96609	3128.6
2131.94018	3130.5
2134.91236	3133.1
2137.88263	3128.4
2140.851	3113
2143.81746	3113.5
2146.78201	3112.1
2149.74466	3110.9
2152.7054	3112.3
2155.66425	3106.7
2158.6212	3107.5
2161.57625	3109.1
2164.52941	3097.8
2167.48067	3084.1
2170.43004	3088.6
2173.37752	3090.8
2176.32311	3083.3
2179.26681	3075.6
2182.20863	3075.3
2185.14856	3078
2188.08661	3079.2
2191.02278	3083.1
2193.95707	3074.9
2196.88948	3065
2199.82001	3060.7
2202.74867	3056.8
2205.67545	3059.2
2208.60037	3046.8
2211.52341	3038
2214.44458	3039.5
2217.36388	3031.8
2220.28132	3025.9
2223.1969	3007.7
2226.11061	3005.5
2229.02246	3001.4
2231.93245	2986.8
2234.84058	2986
2237.74686	2988.4
2240.65128	2972
2243.55385	2984.7
2246.45456	2964.1
2249.35343	2953.6
2252.25044	2955.8
2255.14561	2962.3
2258.03893	2967.2
2260.93041	2973.3
2263.82004	2946.1
2266.70783	2957.7
2269.59378	2931.2
2272.4779	2924.7
2275.36017	2916.9
2278.24061	2918.1
2281.11922	2906.3
2283.996	2892.6
2286.87094	2882.7
2289.74405	2873
2292.61534	2867.2
2295.4848	2864.5
2298.35243	2860
2301.21824	2857.7
2304.08223	2848.4
2306.94439	2846.1
2309.80474	2850
2312.66327	2846.6
2315.51999	2843.2
2318.37489	2830.6
2321.22797	2826.3
2324.07925	2824.3
2326.92871	2830.9
2329.77637	2830
2332.62222	2826.6
2335.46626	2810.2
2338.3085	2814.2
2341.14893	2814
2343.98756	2819.1
2346.8244	2804.6
2349.65943	2803.4
2352.49267	2808.2
2355.32411	2798.6
2358.15376	2824.2
2360.98161	2821.2
2363.80768	2828.8
2366.63195	2823.7
2369.45444	2825.1
2372.27514	2818.7
2375.09405	2816.8
2377.91118	2812.8
2380.72652	2797
2383.54009	2784
2386.35187	2782.8
2389.16188	2762.7
2391.97011	2748.7
2394.77657	2746.7
2397.58125	2734.6
2400.38416	2712.6
2403.18529	2712.5
2405.98466	2702.4
2408.78226	2711.3
2411.57809	2695.1
2414.37216	2685.2
2417.16446	2698
2419.955	2678.2
2422.74378	2682.7
2425.5308	2676
2428.31606	2666.6
2431.09956	2689.9
2433.88131	2661.9
2436.6613	2668.8
2439.43954	2662.3
2442.21603	2655.5
2444.99077	2666.5
2447.76377	2670.2
2450.53501	2664.1
2453.30451	2664.4
2456.07226	2661.8
2458.83827	2675.8
2461.60254	2660.9
2464.36507	2663.4
2467.12586	2652.6
2469.88492	2657
2472.64224	2656.1
2475.39782	2659.3
2478.15167	2671.6
2480.90379	2660.7
2483.65417	2679.5
2486.40283	2662.5
2489.14976	2667.1
2491.89497	2677.4
2494.63845	2696.3
2497.3802	2688.1
2500.12024	2674
2502.85855	2661
2505.59514	2661.4
2508.33002	2649.8
2511.06318	2641.8
2513.79462	2623.6
2516.52435	2619.8
2519.25237	2614.3
2521.97867	2602
2524.70327	2592.9
2527.42616	2588.2
2530.14734	2573.3
2532.86681	2579.2
2535.58458	2568.9
2538.30065	2571.8
2541.01501	2563.1
2543.72768	2563.8
2546.43864	2574.2
2549.14791	2567
2551.85548	2554.7
2554.56136	2562.2
2557.26554	2552.5
2559.96803	2547.9
2562.66883	2547.2
2565.36794	2559.4
2568.06536	2537
2570.7611	2538.5
2573.45514	2543.8
2576.14751	2533.6
2578.83819	2535.6
2581.52719	2530.6
2584.21451	2528.1
2586.90015	2524.6
2589.58411	2514.4
2592.2664	2510.6
2594.94701	2496
2597.62594	2499.3
2600.30321	2497.8
2602.9788	2494
2605.65273	2495.9
2608.32498	2504.1
2610.99557	2491
2613.66449	2480.1
2616.33175	2477.3
2618.99734	2496.5
2621.66128	2470.6
2624.32355	2479.2
2626.98416	2476
2629.64311	2473.2
2632.30041	2461.2
2634.95605	2468.5
2637.61004	2466
2640.26238	2453.5
2642.91306	2449.8
2645.56209	2463.8
2648.20948	2453
2650.85521	2442
2653.4993	2446.7
2656.14175	2442.9
2658.78255	2454.1
2661.42171	2449.9
2664.05923	2463
2666.6951	2461.2
2669.32934	2470.2
2671.96194	2470.7
2674.59291	2470
2677.22224	2468.4
2679.84993	2480.8
2682.476	2461.4
2685.10043	2464.5
2687.72324	2474.3
2690.34441	2470.8
2692.96396	2472.5
2695.58188	2464.6
2698.19818	2467.7
2700.81285	2476.7
2703.4259	2511.5
2706.03733	2548
2708.64714	2515
2711.25533	2497.2
2713.86191	2501.5
2716.46687	2514.7
2719.07021	2502.1
2721.67194	2511.4
2724.27206	2497
2726.87057	2497.9
2729.46747	2496.3
2732.06276	2505.5
2734.65644	2498.7
2737.24852	2496.8
2739.83899	2480.6
2742.42786	2497.6
2745.01513	2468.9
2747.60079	2474.2
2750.18486	2467.2
2752.76733	2463.4
2755.3482	2458.6
2757.92747	2458
2760.50515	2451.3
2763.08123	2456.3
2765.65573	2452.5
2768.22863	2456.9
2770.79994	2441.1
2773.36967	2460
2775.9378	2437.1
2778.50435	2449.4
2781.06932	2447.9
2783.6327	2457.6
2786.1945	2442.3
2788.75471	2461.3
2791.31335	2460.9
2793.87041	2455
2796.42589	2454.1
2798.97979	2473.6
2801.53212	2473.8
2804.08288	2463.6
2806.63206	2470.9
2809.17967	2483.5
2811.72571	2479.8
2814.27018	2490.8
2816.81308	2497.1
2819.35442	2502.8
2821.89419	2503.8
2824.43239	2506.5
2826.96904	2510.1
2829.50412	2516.8
2832.03763	2515.3
2834.56959	2524.9
2837.1	2529.8
2839.62884	2548.1
2842.15613	2564.4
2844.68186	2615.8
2847.20604	2680.2
2849.72867	2723.6
2852.24974	2741.4
2854.76927	2738.4
2857.28724	2739.3
2859.80367	2717.6
2862.31855	2702.6
2864.83189	2678.4
2867.34368	2674.3
2869.85393	2669.4
2872.36264	2651.5
2874.8698	2658.7
2877.37543	2646.7
2879.87952	2661.6
2882.38207	2646.4
2884.88308	2646.3
2887.38256	2649.6
2889.88051	2636
2892.37692	2651.8
2894.8718	2636.8
2897.36515	2649.9
2899.85698	2637.4
2902.34727	2659.4
2904.83604	2651.2
2907.32328	2649
2909.809	2646.1
2912.29319	2651.9
2914.77587	2657.8
2917.25702	2646.4
2919.73665	2624.1
2922.21476	2641.5
2924.69136	2632.8
2927.16644	2630.6
2929.64	2622.5
2932.11205	2613.3
2934.58258	2595.5
2937.05161	2593.7
2939.51912	2576.7
2941.98513	2559.5
2944.44962	2543.6
2946.91261	2501.2
2949.37409	2475.2
2951.83407	2457
2954.29254	2445
2956.74951	2431.7
2959.20498	2413.7
2961.65895	2406.4
2964.11142	2381.8
2966.56239	2368.5
2969.01186	2371.5
2971.45984	2360.1
2973.90632	2351.6
2976.35131	2337.2
2978.7948	2312.8
2981.23681	2322.7
2983.67732	2313.1
2986.11635	2304.7
2988.55388	2280.5
2990.98993	2288.1
2993.4245	2277.5
2995.85758	2276.1
2998.28917	2267.3
3000.71928	2271.2
3003.14791	2269.4
3005.57506	2256.3
3008.00073	2248.4
3010.42493	2243.9
3012.84764	2241.9
3015.26888	2238.6
3017.68865	2233
3020.10694	2230.2
3022.52376	2231.2
3024.9391	2227.3
3027.35298	2224.2
3029.76539	2225.3
3032.17632	2217.9
3034.5858	2216.8
3036.9938	2204.9
3039.40034	2216.7
3041.80542	2202.6
3044.20903	2192.8
3046.61118	2189.3
3049.01187	2192.2
3051.4111	2186.7
3053.80888	2187.2
3056.20519	2185.5
3058.60005	2180.9
3060.99345	2180.8
3063.3854	2163.1
3065.7759	2167.3
3068.16494	2170.3
3070.55254	2170.4
3072.93868	2159.3
3075.32338	2161.5
3077.70662	2137.2
3080.08842	2139.3
3082.46878	2131.8
3084.84769	2115.5
3087.22515	2122
3089.60118	2120.5
3091.97576	2120.5
3094.3489	2120.8
3096.72061	2124.6
3099.09087	2123.2
3101.4597	2114.4
3103.82709	2117.6
3106.19305	2118.3
3108.55757	2113.9
3110.92066	2107.7
3113.28232	2103
3115.64255	2110.2
3118.00134	2101.5
3120.35871	2093.8
3122.71466	2100.3
3125.06917	2105.2
3127.42226	2109.5
3129.77393	2109.2
3132.12417	2118.4
3134.47299	2114
3136.82039	2111.1
3139.16636	2106.6
3141.51092	2122.8
3143.85406	2121.9
3146.19579	2131.8
3148.53609	2139.5
3150.87499	2138.2
3153.21246	2140.7
3155.54853	2141.4
3157.88318	2152.8
3160.21642	2152.5
3162.54826	2148
3164.87868	2153
3167.2077	2150.1
3169.5353	2156.4
3171.86151	2155.9
3174.18631	2162.5
3176.5097	2155.5
3178.83169	2165.9
3181.15228	2172.9
3183.47147	2160.9
3185.78926	2168.1
3188.10565	2170.9
3190.42065	2174.6
3192.73424	2180
3195.04645	2182.9
3197.35725	2180.2
3199.66667	2185.1
3201.97469	2185.7
3204.28132	2194
3206.58656	2200.3
3208.8904	2207.9
3211.19287	2205.8
3213.49394	2205.2
3215.79363	2196.8
3218.09193	2206.9
3220.38884	2210.9
3222.68438	2219.9
3224.97853	2210.4
3227.2713	2213.9
3229.56269	2198.7
3231.8527	2219
3234.14133	2206.3
3236.42858	2190
3238.71446	2201.6
3240.99896	2184.6
3243.28209	2198.8
3245.56384	2189.6
3247.84423	2188.4
3250.12324	2175.2
3252.40088	2194.5
3254.67715	2188
3256.95205	2170.4
3259.22558	2179.2
3261.49775	2163.7
3263.76855	2172.1
3266.03799	2175.9
3268.30606	2163.6
3270.57277	2160.5
3272.83812	2150.9
3275.10211	2151.5
3277.36474	2138
3279.62601	2152.9
3281.88593	2138.9
3284.14448	2152.9
3286.40168	2142.6
3288.65753	2144.8
3290.91202	2143.8
3293.16516	2137.4
3295.41695	2123.2
3297.66738	2121.5
3299.91647	2123.6
3302.16421	2105.5
3304.4106	2088.7
3306.65564	2074.6
3308.89933	2061.6
3311.14169	2059
3313.38269	2062.8
3315.62236	2038.8
3317.86068	2013.1
3320.09766	2003.7
3322.3333	1987.5
3324.5676	1984.5
3326.80056	1969.6
3329.03219	1945.2
3331.26248	1.3
3333.49143	-0.7
3335.71905	0.7
