Data from AgNPs_FTO_APTES_UA_10um_CRN_0.1mM_R6G_10uM_NaF_0.1M_Addition_RamanShift__22__14-01-09-151.txt Node

Date: Tue Dec 21 14:01:09 GMT 2021
User: TCL
Spectrometer: QEP01345
Trigger mode: 4
Integration Time (sec): 7.000000E0
Scans to average: 10
Electric dark correction enabled: true
Nonlinearity correction enabled: false
Boxcar width: 0
XAxis mode: Raman Shifts
Number of Pixels in Spectrum: 1044
>>>>>Begin Spectral Data<<<<<
46.04893	-1.9
50.45542	-0.4
54.85868	-1.6
59.25871	0.2
63.6555	46.7
68.04907	51.1
72.43941	55.5
76.82654	57.8
81.21044	60.6
85.59113	65.1
89.96862	63.4
94.34289	66.4
98.71396	67.6
103.08183	73.5
107.4465	75.4
111.80798	75.2
116.16626	76
120.52136	79
124.87327	82.8
129.222	84.7
133.56755	94.8
137.90993	103.6
142.24913	106.2
146.58517	124.8
150.91804	146.9
155.24774	170.3
159.57429	209
163.89768	267.8
168.21792	356.4
172.53501	481.7
176.84895	667.3
181.15975	939
185.46741	1310.6
189.77193	1813.1
194.07331	2441.2
198.37157	3150.7
202.6667	3915.1
206.9587	4675.1
211.24758	5428.9
215.53334	6160.6
219.81599	6950.6
224.09553	7836.9
228.37195	8783
232.64527	9829.9
236.91549	10961.6
241.18261	12083.1
245.44663	13140.8
249.70755	14071.7
253.96539	14859.1
258.22014	15535.3
262.4718	16059
266.72039	16445.5
270.96589	16615
275.20832	16649.6
279.44768	16557.3
283.68397	16445.9
287.91719	16362.1
292.14735	16318
296.37445	16327
300.59849	16382.3
304.81948	16420.2
309.03742	16281.8
313.25231	16035.1
317.46415	15611.5
321.67296	15121.6
325.87872	14764.3
330.08145	14552.3
334.28114	14555.4
338.47781	14648.8
342.67145	14813.6
346.86207	15066
351.04966	15372.5
355.23424	15721.4
359.4158	16004.9
363.59435	16217.9
367.76989	16380.2
371.94243	16505.1
376.11196	16585
380.27849	16674.1
384.44203	16801.5
388.60257	16944
392.76012	17092.3
396.91468	17302.7
401.06626	17550
405.21485	17782
409.36047	17754.4
413.50311	17536.3
417.64277	17250
421.77947	17187.6
425.9132	17218.1
430.04396	17361.8
434.17176	17443
438.2966	17676
442.41849	17987.5
446.53742	18537.8
450.6534	19131.1
454.76644	19619.2
458.87653	19810.5
462.98368	19686.2
467.08789	19462.3
471.18916	19261.1
475.2875	19113.4
479.38291	19132.9
483.4754	19030.8
487.56496	18832.9
491.6516	18476.2
495.73531	18088.8
499.81612	17873.8
503.89401	17893.9
507.96899	17911.8
512.04106	17777.9
516.11023	17620.9
520.1765	17502.7
524.23987	17396.7
528.30034	17339.8
532.35792	17252.6
536.41261	17162.7
540.46441	16981.8
544.51333	16909.8
548.55936	17004
552.60252	17249.8
556.64279	17610.1
560.6802	17921.9
564.71473	18085.5
568.7464	18392.6
572.7752	18784.3
576.80114	19048.3
580.82422	19158.9
584.84444	19305.1
588.86181	19558.1
592.87633	19928.4
596.888	20284.9
600.89682	20313.1
604.9028	20779.3
608.90594	22326.5
612.90624	23892.4
616.90371	22456.4
620.89834	18930.2
624.89015	17315.4
628.87913	17184.7
632.86528	17369.7
636.84862	17464.8
640.82913	17275.9
644.80683	16815.3
648.78172	16376.2
652.75379	16217
656.72306	16322.6
660.68952	16547.3
664.65319	16602.1
668.61405	16433.4
672.57211	16496.8
676.52738	16625
680.47986	16676.4
684.42955	16554
688.37646	16408.8
692.32058	16381.1
696.26192	16380.5
700.20048	16516.5
704.13626	16618.1
708.06928	16576.6
711.99952	16429.5
715.927	16353.4
719.85171	16316.1
723.77365	16319.1
727.69284	16233.8
731.60928	16171.2
735.52295	16178.4
739.43388	16199
743.34206	16211.8
747.24749	16243
751.15017	16337
755.05012	16500.4
758.94733	16958.6
762.8418	17774.7
766.73354	19099.8
770.62254	20507.9
774.50882	21012.6
778.39237	20200.5
782.27321	18611.6
786.15132	17260.2
790.02671	16354.3
793.89938	15915.1
797.76935	15761.5
801.6366	15724.9
805.50115	15711.7
809.36299	15624.2
813.22213	15563.4
817.07857	15509.9
820.93231	15468.4
824.78336	15365.1
828.63172	15299.8
832.47738	15302.9
836.32036	15267.7
840.16066	15245.7
843.99827	15265.9
847.8332	15185.2
851.66546	15155
855.49504	15142.5
859.32195	15183.7
863.1462	15210.1
866.96777	15203.4
870.78668	15181
874.60293	15169.6
878.41652	15188
882.22745	15202.8
886.03573	15227.4
889.84136	15236.6
893.64433	15169.9
897.44466	15074.5
901.24235	14949.5
905.0374	14851.8
908.8298	14771.1
912.61957	14776
916.40671	14845.2
920.19121	15044.4
923.97308	15214.3
927.75233	15219.3
931.52895	15184.4
935.30295	15043
939.07433	14768.6
942.84309	14550.1
946.60924	14467.1
950.37278	14376.5
954.13371	14331.1
957.89203	14290
961.64774	14225.3
965.40086	14174.8
969.15137	14113
972.89929	13962.3
976.64461	13904.3
980.38733	13871.4
984.12747	13902.9
987.86502	14021
991.59999	14151.2
995.33237	14363.9
999.06217	14735.1
1002.78939	15211.3
1006.51404	15593.4
1010.23611	15838.4
1013.95561	16011.4
1017.67255	16023.3
1021.38692	15857.7
1025.09872	15570.1
1028.80796	15493.8
1032.51465	15670.5
1036.21877	15912.1
1039.92035	16014.1
1043.61937	15960.7
1047.31584	15742.1
1051.00976	15514.9
1054.70114	15362.4
1058.38998	15337.9
1062.07627	15415.7
1065.76003	15500.6
1069.44126	15618.4
1073.11995	15781.9
1076.79611	15900.7
1080.46974	15958.2
1084.14085	15987.9
1087.80943	16097
1091.47549	16281.7
1095.13903	16346.5
1098.80005	16217
1102.45857	15884.4
1106.11456	15612.1
1109.76805	15516.5
1113.41903	15568.7
1117.06751	15720.3
1120.71348	15942.2
1124.35696	16153.5
1127.99793	16449.8
1131.63641	16616.4
1135.2724	16607.6
1138.90589	16435.2
1142.5369	16341
1146.16542	16256.8
1149.79145	16243
1153.415	16335.9
1157.03607	16518.5
1160.65467	16847.4
1164.27079	17506.1
1167.88443	18375.5
1171.49561	19506
1175.10432	20949.3
1178.71056	22733.2
1182.31434	24431.4
1185.91565	25330.2
1189.51451	25407.2
1193.11091	24800.1
1196.70485	23846.9
1200.29634	22823.3
1203.88538	21942.9
1207.47197	21267.2
1211.05612	20706.9
1214.63782	20274.7
1218.21708	20003.1
1221.79391	19835.2
1225.36829	19693.9
1228.94024	19417.4
1232.50976	19050.9
1236.07685	18722.5
1239.6415	18638
1243.20374	18609.9
1246.76355	18718.1
1250.32093	18950.3
1253.8759	19324.8
1257.42845	19896.5
1260.97859	20427.8
1264.52631	20891.8
1268.07163	21380.5
1271.61453	22008.5
1275.15503	22607.6
1278.69312	23292.4
1282.22882	23911.4
1285.76211	24554.1
1289.29301	25391.8
1292.82151	26410.9
1296.34761	27635.6
1299.87133	29159.6
1303.39266	30779.1
1306.9116	32587.2
1310.42815	34339
1313.94233	35543.6
1317.45412	35786.6
1320.96354	35339.3
1324.47058	34699.6
1327.97525	34043.6
1331.47754	33528
1334.97747	33283.4
1338.47502	33318.8
1341.97022	33295.8
1345.46305	33007.3
1348.95352	32427.4
1352.44163	32106.7
1355.92738	32405.8
1359.41078	33326.3
1362.89183	34256.7
1366.37053	33696.3
1369.84688	31269
1373.32088	28129.8
1376.79254	25896.3
1380.26186	24902.3
1383.72883	24657.1
1387.19347	24669.9
1390.65578	24605.1
1394.11575	24794.4
1397.57339	25306.8
1401.0287	26022.2
1404.48168	26777
1407.93234	27133.1
1411.38068	26964.4
1414.82669	26209.8
1418.27039	25049
1421.71177	23761.2
1425.15083	22650.5
1428.58758	21919.7
1432.02203	21792.9
1435.45416	22061.2
1438.88399	22555.9
1442.31151	23055.4
1445.73673	23565.2
1449.15965	24102.4
1452.58027	24522.2
1455.9986	24785.1
1459.41463	25086.1
1462.82837	25493.1
1466.23982	26034.6
1469.64898	26471.2
1473.05586	26643.4
1476.46045	26597.5
1479.86276	26340.5
1483.26279	26065.2
1486.66054	25822.3
1490.05602	25741.3
1493.44922	25740
1496.84016	25678.2
1500.22882	25752.2
1503.61521	26090.4
1506.99934	26748.7
1510.38121	27431.4
1513.76081	27588
1517.13816	27141
1520.51324	26045.5
1523.88607	25097.9
1527.25665	24527.6
1530.62498	24258.8
1533.99105	24243.4
1537.35488	24185.6
1540.71647	24007.8
1544.07581	23695.5
1547.4329	23252.9
1550.78776	22849.8
1554.14038	22524.9
1557.49077	22443.2
1560.83892	22435.9
1564.18484	22518.5
1567.52853	22524.7
1570.86999	22595.3
1574.20922	22838.3
1577.54624	23007.9
1580.88103	23069.6
1584.2136	23130
1587.54395	23667.5
1590.87208	24759.7
1594.19801	26315.9
1597.52172	27948.3
1600.84321	28702.5
1604.16251	27823.6
1607.47959	25773.3
1610.79447	23404.2
1614.10715	21212
1617.41763	19466.7
1620.7259	18213.3
1624.03199	17622.5
1627.33587	17477.3
1630.63757	17928.8
1633.93707	18915.6
1637.23439	20581.5
1640.52951	22927.6
1643.82246	25777.2
1647.11321	28148
1650.40179	28942.4
1653.68819	27414.9
1656.97241	24242.7
1660.25446	20827.3
1663.53433	18163.9
1666.81203	16343.7
1670.08756	15259.4
1673.36092	14485
1676.63211	14048.7
1679.90115	13706.7
1683.16801	13424.3
1686.43272	13239
1689.69527	13105.4
1692.95567	12987.9
1696.2139	12934.5
1699.46999	12848.4
1702.72392	12825.6
1705.97571	12753
1709.22535	12686.5
1712.47284	12644.1
1715.71819	12629.7
1718.96139	12541.7
1722.20246	12504
1725.44139	12455.4
1728.67818	12390.6
1731.91284	12329.7
1735.14537	12291.9
1738.37576	12257.8
1741.60403	12202
1744.83017	12149.8
1748.05418	12142.4
1751.27607	12126.7
1754.49584	12135.3
1757.71349	12147
1760.92903	12118
1764.14244	12037.4
1767.35375	12039.3
1770.56294	11983.4
1773.77002	11920.5
1776.97499	11879.3
1780.17785	11864.2
1783.37861	11809.4
1786.57727	11806
1789.77382	11756.5
1792.96828	11713.6
1796.16064	11695.3
1799.3509	11668.8
1802.53907	11629.4
1805.72514	11625
1808.90913	11584.5
1812.09102	11566.8
1815.27083	11532.4
1818.44856	11497.8
1821.6242	11482.2
1824.79776	11482.9
1827.96924	11459.1
1831.13864	11439.2
1834.30597	11430.9
1837.47122	11409.5
1840.6344	11440.5
1843.7955	11414.3
1846.95454	11443.3
1850.11151	11414.8
1853.26642	11389
1856.41926	11388.7
1859.57004	11398.2
1862.71876	11393.1
1865.86542	11408.8
1869.01003	11383.7
1872.15258	11357.8
1875.29308	11392.4
1878.43152	11370.3
1881.56792	11367
1884.70227	11324.3
1887.83457	11306.4
1890.96482	11351.4
1894.09304	11301.7
1897.21921	11322.8
1900.34335	11324.1
1903.46544	11321.4
1906.58551	11305.2
1909.70353	11260.1
1912.81953	11268.6
1915.93349	11227.7
1919.04543	11212.9
1922.15534	11198.3
1925.26322	11156.4
1928.36908	11125.2
1931.47292	11096.5
1934.57473	11070.1
1937.67453	11013.5
1940.77232	10998.8
1943.86808	10966.5
1946.96184	10909.5
1950.05358	10882.3
1953.14331	10856
1956.23103	10828.1
1959.31675	10758.2
1962.40046	10731.7
1965.48217	10714.9
1968.56188	10686
1971.63959	10649.3
1974.7153	10608.1
1977.78901	10595.4
1980.86073	10543.4
1983.93046	10522.1
1986.99819	10488.2
1990.06394	10425.2
1993.1277	10406.7
1996.18947	10342.8
1999.24925	10344.2
2002.30706	10304.6
2005.36288	10276.4
2008.41672	10273.8
2011.46859	10216.3
2014.51848	10175.8
2017.56639	10180.6
2020.61233	10122.7
2023.6563	10107.6
2026.6983	10080.1
2029.73833	10072.5
2032.7764	10043.3
2035.8125	10045.8
2038.84664	10012.5
2041.87881	10010.8
2044.90903	9997.2
2047.93729	9952.3
2050.96359	9992.2
2053.98794	9953.3
2057.01034	9935.6
2060.03078	9918
2063.04927	9894.5
2066.06582	9878.2
2069.08042	9892.6
2072.09307	9847.3
2075.10378	9862.8
2078.11255	9857.7
2081.11938	9856.9
2084.12426	9859.1
2087.12722	9828.7
2090.12824	9819.4
2093.12732	9807.5
2096.12447	9816.6
2099.11969	9803.2
2102.11299	9811.6
2105.10435	9807.1
2108.09379	9791.3
2111.08131	9791.7
2114.0669	9819.5
2117.05057	9815.4
2120.03233	9828.4
2123.01216	9821.9
2125.99008	9836
2128.96609	9824.4
2131.94018	9842.1
2134.91236	9844.5
2137.88263	9838.2
2140.851	9833.8
2143.81746	9843.6
2146.78201	9818.3
2149.74466	9826.1
2152.7054	9825
2155.66425	9816.4
2158.6212	9818.4
2161.57625	9792.1
2164.52941	9807.6
2167.48067	9780.7
2170.43004	9814.3
2173.37752	9784.7
2176.32311	9770.5
2179.26681	9783.6
2182.20863	9766.4
2185.14856	9784.7
2188.08661	9763.7
2191.02278	9756.2
2193.95707	9750.1
2196.88948	9751.7
2199.82001	9762.4
2202.74867	9733.8
2205.67545	9737.3
2208.60037	9717.7
2211.52341	9718.8
2214.44458	9710.1
2217.36388	9691.6
2220.28132	9657.7
2223.1969	9638.7
2226.11061	9625.6
2229.02246	9603.3
2231.93245	9592.6
2234.84058	9571.6
2237.74686	9556.9
2240.65128	9542.5
2243.55385	9522.7
2246.45456	9527.9
2249.35343	9481.5
2252.25044	9466.7
2255.14561	9462.3
2258.03893	9465.8
2260.93041	9427.1
2263.82004	9415.2
2266.70783	9368.1
2269.59378	9332.3
2272.4779	9310.2
2275.36017	9312
2278.24061	9284.6
2281.11922	9254
2283.996	9247.3
2286.87094	9222
2289.74405	9221
2292.61534	9215
2295.4848	9183.2
2298.35243	9191.9
2301.21824	9177
2304.08223	9193.8
2306.94439	9172.4
2309.80474	9169.3
2312.66327	9151.3
2315.51999	9145.9
2318.37489	9154.8
2321.22797	9140.8
2324.07925	9126.7
2326.92871	9119.3
2329.77637	9117.7
2332.62222	9106
2335.46626	9102.4
2338.3085	9089.9
2341.14893	9097.1
2343.98756	9093.7
2346.8244	9093.8
2349.65943	9082
2352.49267	9089.8
2355.32411	9083.5
2358.15376	9085
2360.98161	9069
2363.80768	9053.7
2366.63195	9053.4
2369.45444	9009.2
2372.27514	9021.9
2375.09405	8994.1
2377.91118	8989.6
2380.72652	8942.6
2383.54009	8949.6
2386.35187	8912.6
2389.16188	8891.1
2391.97011	8874.7
2394.77657	8855.8
2397.58125	8860.3
2400.38416	8839.6
2403.18529	8805.1
2405.98466	8802.5
2408.78226	8777.9
2411.57809	8805.4
2414.37216	8766.2
2417.16446	8746.1
2419.955	8700.4
2422.74378	8715
2425.5308	8683.6
2428.31606	8675.3
2431.09956	8667.3
2433.88131	8657
2436.6613	8673.6
2439.43954	8668.7
2442.21603	8644.3
2444.99077	8644.2
2447.76377	8653.6
2450.53501	8645.6
2453.30451	8637.4
2456.07226	8654.4
2458.83827	8643.2
2461.60254	8637.8
2464.36507	8627.4
2467.12586	8626.6
2469.88492	8629.8
2472.64224	8628.5
2475.39782	8631.6
2478.15167	8638.1
2480.90379	8647.2
2483.65417	8634
2486.40283	8630.7
2489.14976	8632.8
2491.89497	8619.7
2494.63845	8634.3
2497.3802	8654.9
2500.12024	8628.5
2502.85855	8620.3
2505.59514	8619.2
2508.33002	8610
2511.06318	8619.2
2513.79462	8606.7
2516.52435	8579.9
2519.25237	8568.2
2521.97867	8569.4
2524.70327	8559.2
2527.42616	8519.1
2530.14734	8520
2532.86681	8520
2535.58458	8530.4
2538.30065	8491.9
2541.01501	8482.2
2543.72768	8491.9
2546.43864	8476.9
2549.14791	8454.5
2551.85548	8458.3
2554.56136	8443.7
2557.26554	8433.3
2559.96803	8435
2562.66883	8431.2
2565.36794	8426.3
2568.06536	8418.7
2570.7611	8395.2
2573.45514	8395.9
2576.14751	8413.6
2578.83819	8366
2581.52719	8394.9
2584.21451	8389.9
2586.90015	8377.5
2589.58411	8376.9
2592.2664	8368
2594.94701	8357.3
2597.62594	8343.9
2600.30321	8336.7
2602.9788	8334.4
2605.65273	8325.4
2608.32498	8342.8
2610.99557	8329.6
2613.66449	8325.1
2616.33175	8309.1
2618.99734	8311.3
2621.66128	8298.8
2624.32355	8299.3
2626.98416	8334.5
2629.64311	8318
2632.30041	8327.8
2634.95605	8314.3
2637.61004	8300.4
2640.26238	8298.4
2642.91306	8279.3
2645.56209	8286.7
2648.20948	8277.3
2650.85521	8277.7
2653.4993	8280.1
2656.14175	8270.7
2658.78255	8256.4
2661.42171	8255.2
2664.05923	8290.7
2666.6951	8268.3
2669.32934	8281.1
2671.96194	8306.5
2674.59291	8290.3
2677.22224	8276.2
2679.84993	8278.6
2682.476	8262.4
2685.10043	8255.5
2687.72324	8236.1
2690.34441	8241.5
2692.96396	8241.4
2695.58188	8251.8
2698.19818	8253.7
2700.81285	8237.2
2703.4259	8272.3
2706.03733	8324
2708.64714	8272.3
2711.25533	8266.8
2713.86191	8261.7
2716.46687	8267.1
2719.07021	8244.3
2721.67194	8257.8
2724.27206	8263.7
2726.87057	8265.5
2729.46747	8273.4
2732.06276	8287.2
2734.65644	8259.4
2737.24852	8280.1
2739.83899	8254.9
2742.42786	8270.8
2745.01513	8265.8
2747.60079	8274.3
2750.18486	8251.3
2752.76733	8224.5
2755.3482	8253
2757.92747	8232.6
2760.50515	8247.7
2763.08123	8229.4
2765.65573	8235
2768.22863	8254
2770.79994	8235.7
2773.36967	8236.3
2775.9378	8215.7
2778.50435	8222.9
2781.06932	8231.5
2783.6327	8227.8
2786.1945	8207.4
2788.75471	8210.2
2791.31335	8197.1
2793.87041	8198.3
2796.42589	8154.7
2798.97979	8174.6
2801.53212	8124.9
2804.08288	8159.3
2806.63206	8133.7
2809.17967	8097.3
2811.72571	8064.4
2814.27018	8095
2816.81308	8083
2819.35442	8067.4
2821.89419	8056.6
2824.43239	8072.5
2826.96904	8059.8
2829.50412	8052.8
2832.03763	8026.5
2834.56959	8032.4
2837.1	8026.1
2839.62884	8021
2842.15613	8011.5
2844.68186	8018.2
2847.20604	8031.4
2849.72867	8005.3
2852.24974	8000.9
2854.76927	8007.5
2857.28724	7992.5
2859.80367	7974.3
2862.31855	7986.3
2864.83189	7955.6
2867.34368	7958.6
2869.85393	7964
2872.36264	7937.8
2874.8698	7931
2877.37543	7935
2879.87952	7961.3
2882.38207	7970
2884.88308	7962.3
2887.38256	7955.9
2889.88051	7977.6
2892.37692	7967.1
2894.8718	7958.5
2897.36515	7988.4
2899.85698	7986.6
2902.34727	8015.3
2904.83604	7997.3
2907.32328	8025.7
2909.809	8038.3
2912.29319	8044
2914.77587	8036.9
2917.25702	8046.2
2919.73665	8051.3
2922.21476	8055.7
2924.69136	8033.7
2927.16644	8027.3
2929.64	8035.7
2932.11205	8011.6
2934.58258	8005
2937.05161	8015.1
2939.51912	8009.2
2941.98513	7997.9
2944.44962	7992.8
2946.91261	7968.6
2949.37409	7972.8
2951.83407	7947.3
2954.29254	7936.1
2956.74951	7927.4
2959.20498	7894.8
2961.65895	7869.1
2964.11142	7864.4
2966.56239	7828.7
2969.01186	7817.5
2971.45984	7766.8
2973.90632	7771.3
2976.35131	7754
2978.7948	7730.8
2981.23681	7711.6
2983.67732	7686.4
2986.11635	7660.7
2988.55388	7625.3
2990.98993	7612.4
2993.4245	7609.2
2995.85758	7600.7
2998.28917	7577.8
3000.71928	7563.3
3003.14791	7567.4
3005.57506	7551
3008.00073	7528.8
3010.42493	7519.3
3012.84764	7504.4
3015.26888	7497
3017.68865	7467.6
3020.10694	7447.5
3022.52376	7427.8
3024.9391	7422.9
3027.35298	7415.1
3029.76539	7410.6
3032.17632	7387.3
3034.5858	7373.6
3036.9938	7347.5
3039.40034	7337.7
3041.80542	7358.2
3044.20903	7323.4
3046.61118	7323.8
3049.01187	7303.6
3051.4111	7295.6
3053.80888	7293.6
3056.20519	7279
3058.60005	7247
3060.99345	7233.3
3063.3854	7221.6
3065.7759	7183.2
3068.16494	7173.6
3070.55254	7144.9
3072.93868	7127.8
3075.32338	7124.6
3077.70662	7108.3
3080.08842	7091.6
3082.46878	7063
3084.84769	7048.6
3087.22515	7047.9
3089.60118	7052.5
3091.97576	7048.4
3094.3489	7046.9
3096.72061	7058.2
3099.09087	7044.7
3101.4597	7016.5
3103.82709	7035
3106.19305	7004.9
3108.55757	7003.6
3110.92066	6977.1
3113.28232	6964.1
3115.64255	6944.9
3118.00134	6952.2
3120.35871	6928.1
3122.71466	6914.2
3125.06917	6899.7
3127.42226	6887.7
3129.77393	6895.3
3132.12417	6884.8
3134.47299	6886.8
3136.82039	6877.3
3139.16636	6868.4
3141.51092	6854.6
3143.85406	6856.6
3146.19579	6881.3
3148.53609	6864.6
3150.87499	6875.5
3153.21246	6862.4
3155.54853	6886.4
3157.88318	6859
3160.21642	6861
3162.54826	6857.6
3164.87868	6851.3
3167.2077	6852.7
3169.5353	6857.7
3171.86151	6840.3
3174.18631	6832.6
3176.5097	6833.2
3178.83169	6807.1
3181.15228	6827.9
3183.47147	6820.1
3185.78926	6825.9
3188.10565	6800.9
3190.42065	6799.9
3192.73424	6815.4
3195.04645	6799.1
3197.35725	6811.9
3199.66667	6822.1
3201.97469	6803.9
3204.28132	6818.1
3206.58656	6826.9
3208.8904	6813.7
3211.19287	6817
3213.49394	6809
3215.79363	6819.2
3218.09193	6807.9
3220.38884	6803.9
3222.68438	6829.3
3224.97853	6806.9
3227.2713	6789.5
3229.56269	6791
3231.8527	6775.3
3234.14133	6756.5
3236.42858	6750.2
3238.71446	6728
3240.99896	6733.4
3243.28209	6743.2
3245.56384	6732.9
3247.84423	6731
3250.12324	6718.6
3252.40088	6724
3254.67715	6698.3
3256.95205	6691
3259.22558	6672.8
3261.49775	6646.3
3263.76855	6647.7
3266.03799	6634.9
3268.30606	6611.8
3270.57277	6616.6
3272.83812	6606.4
3275.10211	6601.3
3277.36474	6583.5
3279.62601	6582
3281.88593	6560.7
3284.14448	6575.8
3286.40168	6571.6
3288.65753	6557.6
3290.91202	6575.2
3293.16516	6537
3295.41695	6532.7
3297.66738	6487.6
3299.91647	6467.2
3302.16421	6420.1
3304.4106	6388.6
3306.65564	6355.1
3308.89933	6322.1
3311.14169	6286.8
3313.38269	6255.6
3315.62236	6210
3317.86068	6155.7
3320.09766	6080.1
3322.3333	6056.9
3324.5676	6043.2
3326.80056	5978.4
3329.03219	5917.4
3331.26248	3.1
3333.49143	0.7
3335.71905	0.2
