Data from AgNPs_FTO_APTES_UA_50um_CRN_0.1mM_R6G_10uM_NaF_0.1M_Addition_RamanShift__22__15-28-39-251.txt Node

Date: Tue Dec 21 15:28:39 GMT 2021
User: TCL
Spectrometer: QEP01345
Trigger mode: 4
Integration Time (sec): 7.000000E0
Scans to average: 10
Electric dark correction enabled: true
Nonlinearity correction enabled: false
Boxcar width: 0
XAxis mode: Raman Shifts
Number of Pixels in Spectrum: 1044
>>>>>Begin Spectral Data<<<<<
46.04893	0.4
50.45542	-1.2
54.85868	-0.7
59.25871	-0.5
63.6555	41.4
68.04907	44.7
72.43941	51.1
76.82654	51.1
81.21044	57.9
85.59113	59.9
89.96862	60.7
94.34289	62
98.71396	64.6
103.08183	64.5
107.4465	68.5
111.80798	71.6
116.16626	66.9
120.52136	71.3
124.87327	72.4
129.222	74.8
133.56755	82.4
137.90993	88.6
142.24913	92.4
146.58517	101
150.91804	119.4
155.24774	138.1
159.57429	163
163.89768	212.7
168.21792	272.3
172.53501	369.7
176.84895	511.2
181.15975	719.1
185.46741	995.6
189.77193	1378.1
194.07331	1845.4
198.37157	2386.9
202.6667	2956.9
206.9587	3522.1
211.24758	4098
215.53334	4647
219.81599	5254.5
224.09553	5908.5
228.37195	6626.1
232.64527	7415.2
236.91549	8269.3
241.18261	9136.6
245.44663	9960.1
249.70755	10592.5
253.96539	11234.5
258.22014	11704.9
262.4718	12119
266.72039	12414.3
270.96589	12564
275.20832	12565.2
279.44768	12466.8
283.68397	12323
287.91719	12234.6
292.14735	12162.4
296.37445	12186.5
300.59849	12255.7
304.81948	12341.8
309.03742	12329.3
313.25231	12137.2
317.46415	11796.8
321.67296	11417.5
325.87872	11133.9
330.08145	10984.9
334.28114	10972.2
338.47781	11052
342.67145	11210.5
346.86207	11413.2
351.04966	11700.1
355.23424	11961.5
359.4158	12193.8
363.59435	12419
367.76989	12504
371.94243	12616.6
376.11196	12693.2
380.27849	12743.6
384.44203	12825.9
388.60257	12881.2
392.76012	12958.5
396.91468	13076.1
401.06626	13250.1
405.21485	13392.7
409.36047	13307.7
413.50311	13056.5
417.64277	12820.5
421.77947	12675.4
425.9132	12656.6
430.04396	12699.8
434.17176	12774.4
438.2966	12898.3
442.41849	13116.2
446.53742	13438.3
450.6534	13763.2
454.76644	14078
458.87653	14145.9
462.98368	14119.8
467.08789	13998.9
471.18916	13858
475.2875	13738.8
479.38291	13728.9
483.4754	13633.4
487.56496	13477.2
491.6516	13259.4
495.73531	13116.1
499.81612	13005.6
503.89401	13085.8
507.96899	13117.9
512.04106	13082.1
516.11023	13056.6
520.1765	13010.9
524.23987	12989
528.30034	12916.3
532.35792	12876.7
536.41261	12799.4
540.46441	12664.4
544.51333	12577.9
548.55936	12618.6
552.60252	12760.4
556.64279	12971.5
560.6802	13132.7
564.71473	13218.4
568.7464	13358.8
572.7752	13575.2
576.80114	13632.3
580.82422	13626.2
584.84444	13737.8
588.86181	13869.5
592.87633	14108.4
596.888	14273.2
600.89682	14332.8
604.9028	14773
608.90594	16201.2
612.90624	17926.4
616.90371	17185.9
620.89834	14312.5
624.89015	12874.2
628.87913	12689
632.86528	12861.8
636.84862	13037
640.82913	12967.5
644.80683	12605.2
648.78172	12225.6
652.75379	12085.8
656.72306	12140.1
660.68952	12384.4
664.65319	12405.1
668.61405	12239.9
672.57211	12253.9
676.52738	12340.5
680.47986	12349.1
684.42955	12240.3
688.37646	12085
692.32058	11973.1
696.26192	11983.8
700.20048	12078.6
704.13626	12097.6
708.06928	12100
711.99952	12011
715.927	11978.6
719.85171	11962.6
723.77365	11987.2
727.69284	11939.5
731.60928	11930.2
735.52295	11869.8
739.43388	11915
743.34206	11917.8
747.24749	11943.9
751.15017	11936.1
755.05012	12042.4
758.94733	12311.8
762.8418	12871.3
766.73354	13969.7
770.62254	15193.1
774.50882	15795
778.39237	15255.2
782.27321	13923.9
786.15132	12784.8
790.02671	12028.3
793.89938	11671.1
797.76935	11551.1
801.6366	11486.6
805.50115	11470.3
809.36299	11453.8
813.22213	11389.3
817.07857	11358.1
820.93231	11297.5
824.78336	11204.4
828.63172	11180.1
832.47738	11095.3
836.32036	11112.2
840.16066	11088.8
843.99827	11062
847.8332	11026.7
851.66546	11015
855.49504	10989.9
859.32195	11011.9
863.1462	11023.7
866.96777	11046.3
870.78668	11048.2
874.60293	11061.9
878.41652	11017.7
882.22745	11061.4
886.03573	11108.3
889.84136	11108.6
893.64433	11055.3
897.44466	10952.7
901.24235	10881.8
905.0374	10747.9
908.8298	10727.8
912.61957	10655.7
916.40671	10733.3
920.19121	10804.4
923.97308	10903.7
927.75233	10881.3
931.52895	10855.7
935.30295	10762.3
939.07433	10616.4
942.84309	10472.1
946.60924	10383.8
950.37278	10323.7
954.13371	10316.3
957.89203	10261.6
961.64774	10246.6
965.40086	10182.3
969.15137	10106.3
972.89929	10030.1
976.64461	9996.3
980.38733	9953.9
984.12747	9966.8
987.86502	10027
991.59999	10072.4
995.33237	10174.1
999.06217	10350.3
1002.78939	10571.8
1006.51404	10777.2
1010.23611	10904.6
1013.95561	11030
1017.67255	11077.8
1021.38692	10972.2
1025.09872	10813.3
1028.80796	10684.2
1032.51465	10681
1036.21877	10765.6
1039.92035	10833.4
1043.61937	10825.4
1047.31584	10778.9
1051.00976	10718.9
1054.70114	10680.9
1058.38998	10661.5
1062.07627	10717.5
1065.76003	10800.6
1069.44126	10822
1073.11995	10925.9
1076.79611	10991.4
1080.46974	11017.8
1084.14085	11091.4
1087.80943	11148.3
1091.47549	11273.9
1095.13903	11252.4
1098.80005	11140
1102.45857	10965.3
1106.11456	10808.6
1109.76805	10784.1
1113.41903	10880.2
1117.06751	10998.3
1120.71348	11208.4
1124.35696	11463.6
1127.99793	11670.9
1131.63641	11867.4
1135.2724	11859
1138.90589	11683.7
1142.5369	11481.6
1146.16542	11339.5
1149.79145	11246.7
1153.415	11205.7
1157.03607	11264.5
1160.65467	11453.6
1164.27079	11800.6
1167.88443	12345.2
1171.49561	13040.2
1175.10432	13936.6
1178.71056	15165.5
1182.31434	16288
1185.91565	16786.5
1189.51451	16722.1
1193.11091	16178.6
1196.70485	15565
1200.29634	14939.7
1203.88538	14374
1207.47197	13884
1211.05612	13449.6
1214.63782	13095.9
1218.21708	12869.9
1221.79391	12723.4
1225.36829	12645.2
1228.94024	12533.4
1232.50976	12353.5
1236.07685	12193.5
1239.6415	12145.6
1243.20374	12143.6
1246.76355	12207
1250.32093	12322.3
1253.8759	12553.2
1257.42845	12855.2
1260.97859	13115.7
1264.52631	13434
1268.07163	13694.9
1271.61453	14042.4
1275.15503	14358.4
1278.69312	14665.6
1282.22882	14945.3
1285.76211	15324.9
1289.29301	15768.2
1292.82151	16346.4
1296.34761	17147.5
1299.87133	18049.3
1303.39266	19116
1306.9116	20239.7
1310.42815	21338.1
1313.94233	22061.1
1317.45412	22079.2
1320.96354	21671.4
1324.47058	21049.7
1327.97525	20471.4
1331.47754	19976.4
1334.97747	19788.3
1338.47502	19732.7
1341.97022	19770.5
1345.46305	19772.8
1348.95352	19835.9
1352.44163	20171.4
1355.92738	20848.9
1359.41078	21938.8
1362.89183	22947.6
1366.37053	22703.1
1369.84688	20622.6
1373.32088	18111.9
1376.79254	16422.9
1380.26186	15632.2
1383.72883	15455.9
1387.19347	15315.3
1390.65578	15175.7
1394.11575	15156.4
1397.57339	15290
1401.0287	15606.5
1404.48168	15866
1407.93234	16032.7
1411.38068	15868.7
1414.82669	15474.7
1418.27039	14888.1
1421.71177	14227.3
1425.15083	13622.6
1428.58758	13283.9
1432.02203	13238.7
1435.45416	13432.9
1438.88399	13666.9
1442.31151	13964.4
1445.73673	14199.8
1449.15965	14449.3
1452.58027	14638.7
1455.9986	14755.5
1459.41463	14950.6
1462.82837	15165.2
1466.23982	15406.7
1469.64898	15590.9
1473.05586	15742.7
1476.46045	15719.8
1479.86276	15689.5
1483.26279	15546.1
1486.66054	15474.3
1490.05602	15477.9
1493.44922	15614.5
1496.84016	15815.9
1500.22882	16173.4
1503.61521	16903.7
1506.99934	17834.5
1510.38121	18650.1
1513.76081	19006.9
1517.13816	18474.6
1520.51324	17359.7
1523.88607	16299.4
1527.25665	15589.4
1530.62498	15255.7
1533.99105	15118.7
1537.35488	14970.6
1540.71647	14795.3
1544.07581	14585.4
1547.4329	14348.3
1550.78776	14137.7
1554.14038	14008.8
1557.49077	13995.2
1560.83892	14076.4
1564.18484	14205.3
1567.52853	14310.7
1570.86999	14429.4
1574.20922	14573.8
1577.54624	14672
1580.88103	14562
1584.2136	14324.1
1587.54395	14352.3
1590.87208	14762.6
1594.19801	15491.2
1597.52172	16365.2
1600.84321	16823.8
1604.16251	16417.9
1607.47959	15397.6
1610.79447	14210.5
1614.10715	13035.2
1617.41763	12117.4
1620.7259	11483.4
1624.03199	11076.4
1627.33587	11008.4
1630.63757	11214.9
1633.93707	11711.3
1637.23439	12585.4
1640.52951	13921.9
1643.82246	15554.8
1647.11321	17158.5
1650.40179	17908.6
1653.68819	17270.7
1656.97241	15408.6
1660.25446	13305.9
1663.53433	11726
1666.81203	10662.6
1670.08756	9973.5
1673.36092	9534.8
1676.63211	9242
1679.90115	9069
1683.16801	8895.1
1686.43272	8759.4
1689.69527	8702
1692.95567	8602.2
1696.2139	8540.6
1699.46999	8497.5
1702.72392	8442.8
1705.97571	8377.5
1709.22535	8346.8
1712.47284	8295
1715.71819	8242.1
1718.96139	8218.6
1722.20246	8176.9
1725.44139	8149.1
1728.67818	8087.4
1731.91284	8048.1
1735.14537	7989.9
1738.37576	7989.7
1741.60403	7948.3
1744.83017	7908.5
1748.05418	7932.2
1751.27607	7915.1
1754.49584	7890
1757.71349	7919.8
1760.92903	7893.4
1764.14244	7858.2
1767.35375	7835
1770.56294	7805.3
1773.77002	7754
1776.97499	7739.7
1780.17785	7688.6
1783.37861	7664.5
1786.57727	7641.9
1789.77382	7629.9
1792.96828	7598
1796.16064	7583.1
1799.3509	7550.9
1802.53907	7547.8
1805.72514	7502.7
1808.90913	7509.4
1812.09102	7462.4
1815.27083	7456.4
1818.44856	7441.4
1821.6242	7410.9
1824.79776	7405.4
1827.96924	7380.4
1831.13864	7392.5
1834.30597	7379.5
1837.47122	7346.5
1840.6344	7353.9
1843.7955	7362.1
1846.95454	7319
1850.11151	7336.2
1853.26642	7308.6
1856.41926	7292.5
1859.57004	7301.1
1862.71876	7292.4
1865.86542	7274.6
1869.01003	7297.3
1872.15258	7277
1875.29308	7268.6
1878.43152	7249.3
1881.56792	7228.9
1884.70227	7247.8
1887.83457	7249.8
1890.96482	7226.4
1894.09304	7195.7
1897.21921	7204.9
1900.34335	7198.4
1903.46544	7176.1
1906.58551	7176.1
1909.70353	7168.5
1912.81953	7152
1915.93349	7143.6
1919.04543	7125.1
1922.15534	7093.9
1925.26322	7092.3
1928.36908	7051.5
1931.47292	7032.5
1934.57473	7029.4
1937.67453	6997
1940.77232	6985.4
1943.86808	6962.2
1946.96184	6919.6
1950.05358	6911
1953.14331	6880.5
1956.23103	6860
1959.31675	6844.8
1962.40046	6822.3
1965.48217	6815
1968.56188	6798.3
1971.63959	6758.4
1974.7153	6749.3
1977.78901	6728
1980.86073	6700.9
1983.93046	6648.4
1986.99819	6644.1
1990.06394	6618.9
1993.1277	6604.4
1996.18947	6575.2
1999.24925	6548.2
2002.30706	6527.1
2005.36288	6503.5
2008.41672	6498.5
2011.46859	6457
2014.51848	6432.9
2017.56639	6437.8
2020.61233	6415.6
2023.6563	6388.2
2026.6983	6371.7
2029.73833	6339.4
2032.7764	6332.5
2035.8125	6324.9
2038.84664	6323.6
2041.87881	6315
2044.90903	6314.3
2047.93729	6286.1
2050.96359	6274.8
2053.98794	6275.6
2057.01034	6274.9
2060.03078	6240.6
2063.04927	6227.5
2066.06582	6234.6
2069.08042	6216.2
2072.09307	6208.1
2075.10378	6208.8
2078.11255	6194.8
2081.11938	6209.8
2084.12426	6194.3
2087.12722	6190
2090.12824	6190
2093.12732	6158.2
2096.12447	6164
2099.11969	6170.2
2102.11299	6160.3
2105.10435	6158.2
2108.09379	6172.2
2111.08131	6173.8
2114.0669	6162
2117.05057	6175.8
2120.03233	6173.4
2123.01216	6176.9
2125.99008	6166.7
2128.96609	6170.6
2131.94018	6164.9
2134.91236	6172.5
2137.88263	6170.2
2140.851	6168
2143.81746	6166.1
2146.78201	6170.5
2149.74466	6159.3
2152.7054	6167.8
2155.66425	6146.3
2158.6212	6144.3
2161.57625	6136.4
2164.52941	6154.5
2167.48067	6149.1
2170.43004	6131.2
2173.37752	6122
2176.32311	6119.7
2179.26681	6111
2182.20863	6113.7
2185.14856	6121.1
2188.08661	6115.2
2191.02278	6132.2
2193.95707	6092.7
2196.88948	6084.8
2199.82001	6081.9
2202.74867	6059.3
2205.67545	6068.1
2208.60037	6067.5
2211.52341	6052.5
2214.44458	6052.4
2217.36388	6019.7
2220.28132	6030.4
2223.1969	5997.2
2226.11061	5992.4
2229.02246	5980.4
2231.93245	5971.6
2234.84058	5943.4
2237.74686	5940.4
2240.65128	5933.3
2243.55385	5913.4
2246.45456	5927
2249.35343	5914.5
2252.25044	5891.6
2255.14561	5893
2258.03893	5891.8
2260.93041	5894.7
2263.82004	5856.4
2266.70783	5828.9
2269.59378	5816.9
2272.4779	5791.6
2275.36017	5772.5
2278.24061	5769.4
2281.11922	5748.2
2283.996	5744.8
2286.87094	5744.5
2289.74405	5728.5
2292.61534	5729.2
2295.4848	5718.2
2298.35243	5714.9
2301.21824	5689.9
2304.08223	5693.3
2306.94439	5687.6
2309.80474	5669.2
2312.66327	5681.8
2315.51999	5677.4
2318.37489	5668.5
2321.22797	5660.6
2324.07925	5642.3
2326.92871	5637.4
2329.77637	5643.8
2332.62222	5626.6
2335.46626	5624.8
2338.3085	5614.8
2341.14893	5614.6
2343.98756	5604.4
2346.8244	5609.3
2349.65943	5605.7
2352.49267	5607
2355.32411	5608.2
2358.15376	5599.1
2360.98161	5579.3
2363.80768	5579.6
2366.63195	5576.5
2369.45444	5570.9
2372.27514	5550.3
2375.09405	5550.9
2377.91118	5525.9
2380.72652	5513.7
2383.54009	5511.1
2386.35187	5489.7
2389.16188	5482
2391.97011	5467.6
2394.77657	5469.9
2397.58125	5435.6
2400.38416	5436.3
2403.18529	5405.6
2405.98466	5408.5
2408.78226	5418.3
2411.57809	5398
2414.37216	5381.4
2417.16446	5388.3
2419.955	5371.9
2422.74378	5372.3
2425.5308	5356
2428.31606	5360.8
2431.09956	5326.8
2433.88131	5326.9
2436.6613	5337.3
2439.43954	5331.7
2442.21603	5319.6
2444.99077	5312.9
2447.76377	5306.8
2450.53501	5324.9
2453.30451	5306.5
2456.07226	5311.2
2458.83827	5288.2
2461.60254	5293.6
2464.36507	5293.2
2467.12586	5285
2469.88492	5292
2472.64224	5291.1
2475.39782	5294.7
2478.15167	5302.6
2480.90379	5294.9
2483.65417	5298.3
2486.40283	5281.4
2489.14976	5284.1
2491.89497	5281.6
2494.63845	5295.4
2497.3802	5293.9
2500.12024	5300.7
2502.85855	5275.9
2505.59514	5277.3
2508.33002	5245.4
2511.06318	5237.3
2513.79462	5239.2
2516.52435	5226.9
2519.25237	5226.7
2521.97867	5217
2524.70327	5185.8
2527.42616	5211.2
2530.14734	5183.1
2532.86681	5190.1
2535.58458	5179
2538.30065	5165.4
2541.01501	5162.9
2543.72768	5178.7
2546.43864	5143
2549.14791	5146.3
2551.85548	5129.8
2554.56136	5131.5
2557.26554	5117.2
2559.96803	5097.2
2562.66883	5111.3
2565.36794	5090.8
2568.06536	5108.4
2570.7611	5102.6
2573.45514	5081.4
2576.14751	5079.9
2578.83819	5082.6
2581.52719	5069.5
2584.21451	5053.2
2586.90015	5053.4
2589.58411	5057
2592.2664	5037.9
2594.94701	5033.8
2597.62594	5041.7
2600.30321	5021.7
2602.9788	5011.1
2605.65273	5015.3
2608.32498	5016.7
2610.99557	5016.5
2613.66449	5001.6
2616.33175	5001.8
2618.99734	4990.3
2621.66128	4996.3
2624.32355	4985.8
2626.98416	4993.8
2629.64311	4979.5
2632.30041	4990
2634.95605	4969.6
2637.61004	4983.8
2640.26238	4963.2
2642.91306	4953.7
2645.56209	4961.7
2648.20948	4965.2
2650.85521	4950.6
2653.4993	4947.2
2656.14175	4951.1
2658.78255	4947.3
2661.42171	4951.9
2664.05923	4949.1
2666.6951	4950.8
2669.32934	4962
2671.96194	4944.5
2674.59291	4948.3
2677.22224	4953.3
2679.84993	4950.2
2682.476	4945.9
2685.10043	4945.6
2687.72324	4923.7
2690.34441	4936.6
2692.96396	4943.1
2695.58188	4927.2
2698.19818	4937.7
2700.81285	4948.6
2703.4259	4975.9
2706.03733	5016.4
2708.64714	4954.4
2711.25533	4949.8
2713.86191	4937.7
2716.46687	4946.9
2719.07021	4926.9
2721.67194	4937.2
2724.27206	4914.2
2726.87057	4934.3
2729.46747	4937.4
2732.06276	4929.6
2734.65644	4927.6
2737.24852	4929
2739.83899	4914.4
2742.42786	4925.9
2745.01513	4906
2747.60079	4892.2
2750.18486	4913.2
2752.76733	4914.7
2755.3482	4894.5
2757.92747	4890.4
2760.50515	4899.2
2763.08123	4903.7
2765.65573	4879.9
2768.22863	4896.9
2770.79994	4870.4
2773.36967	4890.3
2775.9378	4866.9
2778.50435	4855.6
2781.06932	4860.9
2783.6327	4881.3
2786.1945	4849
2788.75471	4868.7
2791.31335	4852
2793.87041	4840.4
2796.42589	4825
2798.97979	4824.3
2801.53212	4821.2
2804.08288	4821.6
2806.63206	4809.6
2809.17967	4781.4
2811.72571	4778.7
2814.27018	4788.2
2816.81308	4782.1
2819.35442	4772.9
2821.89419	4763
2824.43239	4757.7
2826.96904	4756.1
2829.50412	4755.1
2832.03763	4755.1
2834.56959	4758.7
2837.1	4723.1
2839.62884	4727.4
2842.15613	4750.4
2844.68186	4741.3
2847.20604	4742
2849.72867	4748.5
2852.24974	4747.6
2854.76927	4746.9
2857.28724	4745.6
2859.80367	4734.6
2862.31855	4722.6
2864.83189	4729.5
2867.34368	4710.8
2869.85393	4712.3
2872.36264	4707.1
2874.8698	4706.1
2877.37543	4694.1
2879.87952	4692.9
2882.38207	4707.8
2884.88308	4697.1
2887.38256	4698.5
2889.88051	4693.4
2892.37692	4706.1
2894.8718	4716.7
2897.36515	4722.8
2899.85698	4723.8
2902.34727	4732.4
2904.83604	4725.6
2907.32328	4731.3
2909.809	4716.8
2912.29319	4732.2
2914.77587	4724.5
2917.25702	4738.4
2919.73665	4729.7
2922.21476	4743.1
2924.69136	4729.8
2927.16644	4745.4
2929.64	4734.4
2932.11205	4741.4
2934.58258	4724.5
2937.05161	4730.8
2939.51912	4729.4
2941.98513	4710.6
2944.44962	4697.3
2946.91261	4683.4
2949.37409	4701.1
2951.83407	4688.2
2954.29254	4676
2956.74951	4688.8
2959.20498	4668.8
2961.65895	4669.1
2964.11142	4634.3
2966.56239	4644.5
2969.01186	4626.2
2971.45984	4610.7
2973.90632	4592.4
2976.35131	4586.2
2978.7948	4562.2
2981.23681	4545.7
2983.67732	4551.8
2986.11635	4545.4
2988.55388	4505.8
2990.98993	4498.4
2993.4245	4499.1
2995.85758	4489.6
2998.28917	4483.1
3000.71928	4473.7
3003.14791	4472.4
3005.57506	4472.6
3008.00073	4464.4
3010.42493	4471
3012.84764	4433
3015.26888	4458.3
3017.68865	4440.3
3020.10694	4404.6
3022.52376	4414.9
3024.9391	4406.8
3027.35298	4403.8
3029.76539	4408.4
3032.17632	4402.1
3034.5858	4380.7
3036.9938	4364.6
3039.40034	4365.6
3041.80542	4371.1
3044.20903	4362.4
3046.61118	4357.6
3049.01187	4353.7
3051.4111	4345
3053.80888	4322
3056.20519	4334.7
3058.60005	4327.9
3060.99345	4324.7
3063.3854	4307.4
3065.7759	4285.4
3068.16494	4282
3070.55254	4273.3
3072.93868	4276.4
3075.32338	4258.4
3077.70662	4261.2
3080.08842	4247.6
3082.46878	4243.9
3084.84769	4243.4
3087.22515	4235.9
3089.60118	4245.7
3091.97576	4246.9
3094.3489	4244.5
3096.72061	4234.4
3099.09087	4217.7
3101.4597	4237.7
3103.82709	4229.7
3106.19305	4220.9
3108.55757	4215.3
3110.92066	4215.6
3113.28232	4201
3115.64255	4191.7
3118.00134	4188.4
3120.35871	4180.5
3122.71466	4174.7
3125.06917	4159.9
3127.42226	4150.3
3129.77393	4168.7
3132.12417	4154.2
3134.47299	4161.9
3136.82039	4185.8
3139.16636	4176.9
3141.51092	4177.6
3143.85406	4190.7
3146.19579	4181.2
3148.53609	4195.8
3150.87499	4190.1
3153.21246	4185.2
3155.54853	4187.1
3157.88318	4195.4
3160.21642	4203
3162.54826	4194
3164.87868	4199
3167.2077	4203.8
3169.5353	4194.1
3171.86151	4193.9
3174.18631	4182.2
3176.5097	4189.2
3178.83169	4208.2
3181.15228	4193.2
3183.47147	4187.9
3185.78926	4180.9
3188.10565	4179.9
3190.42065	4181.4
3192.73424	4181.5
3195.04645	4186.3
3197.35725	4197.4
3199.66667	4194.5
3201.97469	4204.2
3204.28132	4205
3206.58656	4219.8
3208.8904	4207.8
3211.19287	4208.2
3213.49394	4210.1
3215.79363	4206.9
3218.09193	4224.8
3220.38884	4231
3222.68438	4231.1
3224.97853	4217
3227.2713	4215.7
3229.56269	4203.9
3231.8527	4209
3234.14133	4202.4
3236.42858	4188.6
3238.71446	4196.6
3240.99896	4184.4
3243.28209	4176.6
3245.56384	4191.2
3247.84423	4193.7
3250.12324	4181.9
3252.40088	4178.3
3254.67715	4178.8
3256.95205	4156.8
3259.22558	4157.2
3261.49775	4152.1
3263.76855	4145.1
3266.03799	4133.5
3268.30606	4127.1
3270.57277	4116.5
3272.83812	4111.7
3275.10211	4099.4
3277.36474	4103.4
3279.62601	4107.5
3281.88593	4105.6
3284.14448	4109.5
3286.40168	4104
3288.65753	4096.4
3290.91202	4090.7
3293.16516	4088
3295.41695	4064.9
3297.66738	4035.2
3299.91647	4047.7
3302.16421	4006.1
3304.4106	3999.4
3306.65564	3968.6
3308.89933	3935.8
3311.14169	3919.6
3313.38269	3910
3315.62236	3872.7
3317.86068	3841.4
3320.09766	3796
3322.3333	3771.7
3324.5676	3781.7
3326.80056	3722.6
3329.03219	3704.7
3331.26248	1.4
3333.49143	0
3335.71905	0.5
