Data from AgNPs_FTO_APTES_UA_50um_CRN_0.1mM_R6G_10uM_NaF_0.1M_Addition_RamanShift__3__15-06-29-226.txt Node

Date: Tue Dec 21 15:06:29 GMT 2021
User: TCL
Spectrometer: QEP01345
Trigger mode: 4
Integration Time (sec): 7.000000E0
Scans to average: 10
Electric dark correction enabled: true
Nonlinearity correction enabled: false
Boxcar width: 0
XAxis mode: Raman Shifts
Number of Pixels in Spectrum: 1044
>>>>>Begin Spectral Data<<<<<
46.04893	0.525
50.45542	-0.775
54.85868	-1.575
59.25871	1.325
63.6555	33.025
68.04907	45.325
72.43941	48.125
76.82654	45.725
81.21044	51.125
85.59113	52.925
89.96862	54.025
94.34289	53.025
98.71396	57.125
103.08183	61.225
107.4465	63.125
111.80798	62.825
116.16626	63.325
120.52136	63.825
124.87327	67.725
129.222	60.925
133.56755	68.025
137.90993	76.525
142.24913	77.825
146.58517	86.425
150.91804	100.625
155.24774	117.425
159.57429	137.925
163.89768	175.425
168.21792	227.625
172.53501	301.125
176.84895	409.325
181.15975	575.325
185.46741	811.525
189.77193	1106.125
194.07331	1486.925
198.37157	1915.625
202.6667	2375.925
206.9587	2839.325
211.24758	3282.125
215.53334	3748.425
219.81599	4250.225
224.09553	4780.025
228.37195	5396.025
232.64527	6039.325
236.91549	6727.525
241.18261	7393.525
245.44663	7977.225
249.70755	8485.425
253.96539	8888.925
258.22014	9258.225
262.4718	9541.425
266.72039	9757.425
270.96589	9852.225
275.20832	9847.925
279.44768	9766.525
283.68397	9646.025
287.91719	9544.625
292.14735	9500.025
296.37445	9543.625
300.59849	9616.625
304.81948	9768.125
309.03742	9838.725
313.25231	9769.425
317.46415	9575.325
321.67296	9224.125
325.87872	8912.625
330.08145	8735.725
334.28114	8677.325
338.47781	8739.525
342.67145	8862.025
346.86207	9017.925
351.04966	9224.325
355.23424	9442.125
359.4158	9660.225
363.59435	9786.725
367.76989	9861.325
371.94243	9896.225
376.11196	9923.625
380.27849	9906.625
384.44203	9980.725
388.60257	10003.425
392.76012	10100.325
396.91468	10218.325
401.06626	10372.125
405.21485	10488.825
409.36047	10425.025
413.50311	10162.325
417.64277	9910.525
421.77947	9785.625
425.9132	9747.225
430.04396	9777.125
434.17176	9804.125
438.2966	9872.325
442.41849	9978.225
446.53742	10233.025
450.6534	10485.425
454.76644	10630.425
458.87653	10678.225
462.98368	10638.925
467.08789	10561.525
471.18916	10460.425
475.2875	10328.525
479.38291	10251.925
483.4754	10179.225
487.56496	10113.325
491.6516	10001.325
495.73531	9890.225
499.81612	9802.025
503.89401	9819.925
507.96899	9858.625
512.04106	9860.725
516.11023	9825.525
520.1765	9802.725
524.23987	9747.025
528.30034	9685.325
532.35792	9583.625
536.41261	9464.225
540.46441	9344.425
544.51333	9298.625
548.55936	9369.725
552.60252	9563.225
556.64279	9791.225
560.6802	9896.425
564.71473	9968.525
568.7464	10154.425
572.7752	10386.025
576.80114	10559.425
580.82422	10667.225
584.84444	10858.725
588.86181	11104.825
592.87633	11303.025
596.888	11332.525
600.89682	11178.325
604.9028	11402.025
608.90594	12612.525
612.90624	14253.225
616.90371	13653.725
620.89834	11006.125
624.89015	9655.825
628.87913	9477.425
632.86528	9636.225
636.84862	9789.625
640.82913	9723.825
644.80683	9412.725
648.78172	9141.925
652.75379	9015.025
656.72306	9140.625
660.68952	9305.425
664.65319	9258.625
668.61405	9044.025
672.57211	8981.125
676.52738	8988.525
680.47986	9006.025
684.42955	8956.425
688.37646	8902.625
692.32058	8840.125
696.26192	8919.325
700.20048	8995.825
704.13626	9049.225
708.06928	9087.225
711.99952	9005.525
715.927	9000.725
719.85171	9007.925
723.77365	9006.025
727.69284	8927.625
731.60928	8805.525
735.52295	8777.025
739.43388	8775.325
743.34206	8814.125
747.24749	8818.525
751.15017	8918.025
755.05012	9028.225
758.94733	9301.225
762.8418	9857.425
766.73354	10843.925
770.62254	11889.125
774.50882	12307.325
778.39237	11792.925
782.27321	10668.125
786.15132	9697.225
790.02671	9093.625
793.89938	8815.225
797.76935	8711.125
801.6366	8635.525
805.50115	8621.325
809.36299	8564.125
813.22213	8528.225
817.07857	8509.125
820.93231	8469.825
824.78336	8422.825
828.63172	8403.225
832.47738	8338.925
836.32036	8332.325
840.16066	8326.925
843.99827	8291.525
847.8332	8267.625
851.66546	8253.925
855.49504	8218.725
859.32195	8233.025
863.1462	8199.725
866.96777	8203.425
870.78668	8178.425
874.60293	8202.925
878.41652	8188.825
882.22745	8240.825
886.03573	8280.325
889.84136	8280.225
893.64433	8271.725
897.44466	8222.525
901.24235	8169.825
905.0374	8093.125
908.8298	8057.525
912.61957	8027.925
916.40671	8082.025
920.19121	8155.125
923.97308	8244.025
927.75233	8265.625
931.52895	8232.725
935.30295	8129.825
939.07433	7947.325
942.84309	7806.325
946.60924	7717.425
950.37278	7662.625
954.13371	7647.525
957.89203	7629.325
961.64774	7599.725
965.40086	7599.025
969.15137	7563.225
972.89929	7530.825
976.64461	7486.525
980.38733	7496.125
984.12747	7490.225
987.86502	7527.425
991.59999	7561.425
995.33237	7634.125
999.06217	7731.025
1002.78939	7881.125
1006.51404	8020.025
1010.23611	8136.425
1013.95561	8212.225
1017.67255	8262.225
1021.38692	8202.225
1025.09872	8086.725
1028.80796	7988.625
1032.51465	7997.925
1036.21877	8054.825
1039.92035	8082.225
1043.61937	8126.525
1047.31584	8117.325
1051.00976	8087.525
1054.70114	8073.625
1058.38998	8093.325
1062.07627	8123.125
1065.76003	8214.925
1069.44126	8306.125
1073.11995	8449.425
1076.79611	8567.625
1080.46974	8616.725
1084.14085	8664.125
1087.80943	8753.125
1091.47549	8808.325
1095.13903	8821.125
1098.80005	8724.425
1102.45857	8501.125
1106.11456	8335.925
1109.76805	8227.625
1113.41903	8273.625
1117.06751	8391.225
1120.71348	8578.025
1124.35696	8783.625
1127.99793	9000.525
1131.63641	9138.425
1135.2724	9060.625
1138.90589	8877.525
1142.5369	8776.525
1146.16542	8718.425
1149.79145	8691.825
1153.415	8703.825
1157.03607	8762.525
1160.65467	8932.525
1164.27079	9241.925
1167.88443	9733.925
1171.49561	10341.825
1175.10432	11210.925
1178.71056	12312.625
1182.31434	13309.225
1185.91565	13730.025
1189.51451	13564.925
1193.11091	13049.925
1196.70485	12437.825
1200.29634	11835.725
1203.88538	11386.725
1207.47197	10991.625
1211.05612	10650.925
1214.63782	10351.525
1218.21708	10063.625
1221.79391	9905.525
1225.36829	9816.125
1228.94024	9747.625
1232.50976	9678.225
1236.07685	9549.825
1239.6415	9469.525
1243.20374	9477.825
1246.76355	9514.625
1250.32093	9604.325
1253.8759	9775.925
1257.42845	10034.325
1260.97859	10316.525
1264.52631	10623.525
1268.07163	10904.725
1271.61453	11168.125
1275.15503	11437.725
1278.69312	11687.325
1282.22882	11942.425
1285.76211	12324.725
1289.29301	12804.525
1292.82151	13362.625
1296.34761	14052.425
1299.87133	14820.125
1303.39266	15718.825
1306.9116	16701.425
1310.42815	17633.325
1313.94233	18184.925
1317.45412	18023.125
1320.96354	17448.225
1324.47058	16853.925
1327.97525	16294.225
1331.47754	15873.625
1334.97747	15613.925
1338.47502	15438.025
1341.97022	15342.125
1345.46305	15351.825
1348.95352	15539.425
1352.44163	15885.825
1355.92738	16641.125
1359.41078	17823.225
1362.89183	19106.225
1366.37053	19146.125
1369.84688	17335.525
1373.32088	15029.525
1376.79254	13420.625
1380.26186	12677.125
1383.72883	12427.425
1387.19347	12261.125
1390.65578	12038.325
1394.11575	11888.025
1397.57339	11867.725
1401.0287	11922.825
1404.48168	11933.225
1407.93234	11842.925
1411.38068	11594.925
1414.82669	11244.225
1418.27039	10876.025
1421.71177	10497.425
1425.15083	10181.925
1428.58758	9997.925
1432.02203	10002.225
1435.45416	10179.725
1438.88399	10413.425
1442.31151	10547.925
1445.73673	10673.125
1449.15965	10816.825
1452.58027	10899.925
1455.9986	10892.525
1459.41463	11007.725
1462.82837	11140.825
1466.23982	11318.025
1469.64898	11481.625
1473.05586	11620.125
1476.46045	11669.525
1479.86276	11704.125
1483.26279	11712.325
1486.66054	11806.925
1490.05602	12023.525
1493.44922	12346.425
1496.84016	12845.625
1500.22882	13565.225
1503.61521	14557.525
1506.99934	15690.425
1510.38121	16613.225
1513.76081	16857.125
1517.13816	16168.725
1520.51324	14977.025
1523.88607	13841.425
1527.25665	13152.225
1530.62498	12734.425
1533.99105	12539.525
1537.35488	12279.825
1540.71647	11987.525
1544.07581	11631.825
1547.4329	11305.825
1550.78776	11020.325
1554.14038	10887.625
1557.49077	10858.325
1560.83892	10942.425
1564.18484	11079.425
1567.52853	11290.725
1570.86999	11509.225
1574.20922	11767.225
1577.54624	11894.625
1580.88103	11710.725
1584.2136	11413.925
1587.54395	11350.925
1590.87208	11568.625
1594.19801	12056.925
1597.52172	12643.125
1600.84321	12899.325
1604.16251	12436.125
1607.47959	11654.125
1610.79447	10731.525
1614.10715	9908.425
1617.41763	9231.825
1620.7259	8735.425
1624.03199	8503.125
1627.33587	8455.925
1630.63757	8632.025
1633.93707	9058.725
1637.23439	9828.225
1640.52951	11012.925
1643.82246	12578.525
1647.11321	14137.925
1650.40179	14995.025
1653.68819	14431.225
1656.97241	12767.025
1660.25446	10819.425
1663.53433	9323.125
1666.81203	8362.625
1670.08756	7756.925
1673.36092	7371.425
1676.63211	7120.325
1679.90115	6959.325
1683.16801	6815.925
1686.43272	6729.925
1689.69527	6655.625
1692.95567	6593.825
1696.2139	6540.925
1699.46999	6516.325
1702.72392	6444.225
1705.97571	6404.425
1709.22535	6352.025
1712.47284	6300.825
1715.71819	6292.025
1718.96139	6253.025
1722.20246	6241.025
1725.44139	6179.125
1728.67818	6144.325
1731.91284	6099.825
1735.14537	6068.325
1738.37576	6032.225
1741.60403	6017.625
1744.83017	6000.225
1748.05418	5991.525
1751.27607	5988.625
1754.49584	5981.025
1757.71349	5988.525
1760.92903	5991.525
1764.14244	5954.825
1767.35375	5948.125
1770.56294	5910.525
1773.77002	5898.125
1776.97499	5846.825
1780.17785	5826.625
1783.37861	5794.125
1786.57727	5798.525
1789.77382	5759.625
1792.96828	5747.025
1796.16064	5726.625
1799.3509	5712.225
1802.53907	5694.325
1805.72514	5676.425
1808.90913	5653.825
1812.09102	5637.225
1815.27083	5641.625
1818.44856	5613.225
1821.6242	5588.425
1824.79776	5573.725
1827.96924	5578.425
1831.13864	5559.925
1834.30597	5555.025
1837.47122	5557.825
1840.6344	5529.425
1843.7955	5543.925
1846.95454	5545.125
1850.11151	5525.325
1853.26642	5519.925
1856.41926	5507.825
1859.57004	5501.125
1862.71876	5486.025
1865.86542	5485.625
1869.01003	5481.125
1872.15258	5479.825
1875.29308	5472.525
1878.43152	5463.725
1881.56792	5437.825
1884.70227	5431.125
1887.83457	5428.525
1890.96482	5423.425
1894.09304	5399.825
1897.21921	5408.825
1900.34335	5385.025
1903.46544	5396.525
1906.58551	5374.825
1909.70353	5371.325
1912.81953	5354.625
1915.93349	5355.125
1919.04543	5342.025
1922.15534	5338.825
1925.26322	5304.825
1928.36908	5287.025
1931.47292	5275.525
1934.57473	5264.025
1937.67453	5255.425
1940.77232	5213.125
1943.86808	5206.525
1946.96184	5190.525
1950.05358	5172.625
1953.14331	5158.525
1956.23103	5145.625
1959.31675	5128.225
1962.40046	5098.725
1965.48217	5072.725
1968.56188	5097.525
1971.63959	5072.025
1974.7153	5054.225
1977.78901	5040.125
1980.86073	5018.425
1983.93046	5000.625
1986.99819	4973.025
1990.06394	4960.325
1993.1277	4949.625
1996.18947	4930.225
1999.24925	4918.225
2002.30706	4897.225
2005.36288	4875.725
2008.41672	4873.725
2011.46859	4841.525
2014.51848	4824.325
2017.56639	4831.425
2020.61233	4811.225
2023.6563	4790.025
2026.6983	4766.425
2029.73833	4750.225
2032.7764	4742.825
2035.8125	4737.225
2038.84664	4731.425
2041.87881	4715.825
2044.90903	4717.025
2047.93729	4689.725
2050.96359	4686.225
2053.98794	4702.225
2057.01034	4690.125
2060.03078	4685.525
2063.04927	4665.625
2066.06582	4644.225
2069.08042	4649.025
2072.09307	4666.225
2075.10378	4665.825
2078.11255	4632.325
2081.11938	4632.025
2084.12426	4634.125
2087.12722	4641.325
2090.12824	4627.025
2093.12732	4616.425
2096.12447	4628.625
2099.11969	4623.025
2102.11299	4605.325
2105.10435	4622.725
2108.09379	4634.925
2111.08131	4638.825
2114.0669	4626.825
2117.05057	4636.025
2120.03233	4626.425
2123.01216	4620.625
2125.99008	4628.925
2128.96609	4630.125
2131.94018	4619.625
2134.91236	4620.425
2137.88263	4615.225
2140.851	4615.325
2143.81746	4631.125
2146.78201	4616.525
2149.74466	4617.625
2152.7054	4613.925
2155.66425	4618.125
2158.6212	4604.825
2161.57625	4604.825
2164.52941	4597.525
2167.48067	4591.825
2170.43004	4591.425
2173.37752	4581.825
2176.32311	4578.125
2179.26681	4588.625
2182.20863	4581.725
2185.14856	4574.825
2188.08661	4566.325
2191.02278	4589.725
2193.95707	4562.825
2196.88948	4559.825
2199.82001	4556.325
2202.74867	4548.825
2205.67545	4533.325
2208.60037	4531.625
2211.52341	4524.225
2214.44458	4514.225
2217.36388	4512.625
2220.28132	4506.725
2223.1969	4474.425
2226.11061	4473.925
2229.02246	4469.825
2231.93245	4451.225
2234.84058	4459.025
2237.74686	4436.325
2240.65128	4441.325
2243.55385	4442.225
2246.45456	4427.225
2249.35343	4409.325
2252.25044	4414.025
2255.14561	4406.125
2258.03893	4397.525
2260.93041	4396.025
2263.82004	4359.025
2266.70783	4357.625
2269.59378	4345.525
2272.4779	4333.325
2275.36017	4337.725
2278.24061	4340.925
2281.11922	4299.325
2283.996	4301.525
2286.87094	4312.425
2289.74405	4294.225
2292.61534	4279.825
2295.4848	4272.425
2298.35243	4291.925
2301.21824	4257.225
2304.08223	4261.625
2306.94439	4254.725
2309.80474	4231.625
2312.66327	4237.025
2315.51999	4248.925
2318.37489	4248.325
2321.22797	4229.125
2324.07925	4213.025
2326.92871	4224.325
2329.77637	4218.925
2332.62222	4208.525
2335.46626	4204.225
2338.3085	4193.025
2341.14893	4182.525
2343.98756	4194.925
2346.8244	4179.825
2349.65943	4181.325
2352.49267	4184.325
2355.32411	4177.225
2358.15376	4175.825
2360.98161	4177.225
2363.80768	4180.925
2366.63195	4188.025
2369.45444	4177.125
2372.27514	4167.025
2375.09405	4173.625
2377.91118	4152.925
2380.72652	4144.125
2383.54009	4130.025
2386.35187	4098.425
2389.16188	4093.125
2391.97011	4094.925
2394.77657	4075.125
2397.58125	4066.725
2400.38416	4069.025
2403.18529	4070.025
2405.98466	4057.725
2408.78226	4026.525
2411.57809	4037.125
2414.37216	4045.125
2417.16446	4028.925
2419.955	4010.825
2422.74378	4009.325
2425.5308	4019.725
2428.31606	4023.025
2431.09956	4011.125
2433.88131	3999.425
2436.6613	3998.325
2439.43954	3998.125
2442.21603	3995.525
2444.99077	3989.725
2447.76377	3985.225
2450.53501	3973.625
2453.30451	3987.925
2456.07226	3980.025
2458.83827	3961.425
2461.60254	3977.825
2464.36507	3971.525
2467.12586	3959.525
2469.88492	3972.425
2472.64224	3960.225
2475.39782	3972.425
2478.15167	3983.225
2480.90379	3972.325
2483.65417	3970.725
2486.40283	3977.825
2489.14976	3972.325
2491.89497	3968.425
2494.63845	3987.925
2497.3802	3985.525
2500.12024	3979.325
2502.85855	3955.625
2505.59514	3950.225
2508.33002	3929.325
2511.06318	3935.725
2513.79462	3934.625
2516.52435	3923.325
2519.25237	3914.725
2521.97867	3898.625
2524.70327	3879.025
2527.42616	3891.125
2530.14734	3880.025
2532.86681	3877.125
2535.58458	3881.925
2538.30065	3859.625
2541.01501	3866.825
2543.72768	3873.725
2546.43864	3870.725
2549.14791	3841.225
2551.85548	3841.425
2554.56136	3837.225
2557.26554	3829.125
2559.96803	3838.725
2562.66883	3822.025
2565.36794	3822.425
2568.06536	3814.025
2570.7611	3824.625
2573.45514	3795.725
2576.14751	3794.125
2578.83819	3792.425
2581.52719	3781.125
2584.21451	3799.625
2586.90015	3795.925
2589.58411	3763.425
2592.2664	3773.625
2594.94701	3767.925
2597.62594	3757.825
2600.30321	3755.725
2602.9788	3747.525
2605.65273	3735.225
2608.32498	3743.025
2610.99557	3736.125
2613.66449	3752.425
2616.33175	3730.725
2618.99734	3730.525
2621.66128	3716.225
2624.32355	3715.125
2626.98416	3705.825
2629.64311	3702.725
2632.30041	3709.625
2634.95605	3716.425
2637.61004	3700.225
2640.26238	3681.325
2642.91306	3687.225
2645.56209	3687.025
2648.20948	3683.225
2650.85521	3681.925
2653.4993	3688.325
2656.14175	3682.125
2658.78255	3670.625
2661.42171	3685.125
2664.05923	3686.225
2666.6951	3687.625
2669.32934	3689.325
2671.96194	3684.625
2674.59291	3687.425
2677.22224	3685.325
2679.84993	3688.225
2682.476	3673.325
2685.10043	3684.525
2687.72324	3660.225
2690.34441	3667.325
2692.96396	3680.125
2695.58188	3683.225
2698.19818	3675.625
2700.81285	3674.625
2703.4259	3689.425
2706.03733	3739.725
2708.64714	3697.125
2711.25533	3682.725
2713.86191	3675.725
2716.46687	3682.425
2719.07021	3685.125
2721.67194	3674.625
2724.27206	3670.925
2726.87057	3673.425
2729.46747	3669.825
2732.06276	3681.725
2734.65644	3679.325
2737.24852	3675.825
2739.83899	3666.125
2742.42786	3648.525
2745.01513	3644.225
2747.60079	3644.525
2750.18486	3651.625
2752.76733	3642.225
2755.3482	3642.925
2757.92747	3641.525
2760.50515	3639.325
2763.08123	3632.425
2765.65573	3625.425
2768.22863	3627.125
2770.79994	3620.125
2773.36967	3612.925
2775.9378	3621.825
2778.50435	3618.525
2781.06932	3608.625
2783.6327	3622.825
2786.1945	3616.925
2788.75471	3609.225
2791.31335	3596.325
2793.87041	3590.025
2796.42589	3586.525
2798.97979	3575.825
2801.53212	3558.725
2804.08288	3576.825
2806.63206	3560.625
2809.17967	3548.725
2811.72571	3552.525
2814.27018	3559.525
2816.81308	3541.425
2819.35442	3550.225
2821.89419	3536.025
2824.43239	3540.925
2826.96904	3532.325
2829.50412	3544.325
2832.03763	3530.325
2834.56959	3539.925
2837.1	3530.725
2839.62884	3528.625
2842.15613	3531.025
2844.68186	3539.525
2847.20604	3573.125
2849.72867	3562.225
2852.24974	3579.225
2854.76927	3563.025
2857.28724	3573.525
2859.80367	3556.825
2862.31855	3558.525
2864.83189	3545.225
2867.34368	3550.425
2869.85393	3544.125
2872.36264	3530.125
2874.8698	3536.325
2877.37543	3538.825
2879.87952	3530.925
2882.38207	3524.925
2884.88308	3524.325
2887.38256	3537.525
2889.88051	3537.725
2892.37692	3526.225
2894.8718	3529.925
2897.36515	3536.425
2899.85698	3543.925
2902.34727	3553.925
2904.83604	3542.425
2907.32328	3560.025
2909.809	3545.925
2912.29319	3562.425
2914.77587	3557.625
2917.25702	3555.125
2919.73665	3555.425
2922.21476	3562.525
2924.69136	3545.425
2927.16644	3549.925
2929.64	3554.325
2932.11205	3545.625
2934.58258	3544.625
2937.05161	3552.625
2939.51912	3536.325
2941.98513	3534.725
2944.44962	3532.525
2946.91261	3498.325
2949.37409	3519.025
2951.83407	3516.125
2954.29254	3493.025
2956.74951	3489.525
2959.20498	3498.425
2961.65895	3466.925
2964.11142	3471.225
2966.56239	3459.325
2969.01186	3463.625
2971.45984	3433.925
2973.90632	3431.025
2976.35131	3415.925
2978.7948	3406.825
2981.23681	3399.125
2983.67732	3385.625
2986.11635	3387.325
2988.55388	3373.125
2990.98993	3367.625
2993.4245	3366.825
2995.85758	3351.525
2998.28917	3346.025
3000.71928	3345.725
3003.14791	3346.225
3005.57506	3341.125
3008.00073	3315.925
3010.42493	3326.025
3012.84764	3327.625
3015.26888	3323.125
3017.68865	3324.925
3020.10694	3311.225
3022.52376	3315.625
3024.9391	3308.325
3027.35298	3300.025
3029.76539	3295.525
3032.17632	3282.125
3034.5858	3268.025
3036.9938	3278.725
3039.40034	3273.025
3041.80542	3273.325
3044.20903	3260.525
3046.61118	3260.825
3049.01187	3249.125
3051.4111	3242.725
3053.80888	3245.225
3056.20519	3248.525
3058.60005	3237.325
3060.99345	3236.825
3063.3854	3238.525
3065.7759	3218.925
3068.16494	3222.525
3070.55254	3214.525
3072.93868	3221.925
3075.32338	3216.925
3077.70662	3205.525
3080.08842	3199.725
3082.46878	3187.225
3084.84769	3180.225
3087.22515	3195.425
3089.60118	3188.225
3091.97576	3205.025
3094.3489	3196.025
3096.72061	3191.725
3099.09087	3183.325
3101.4597	3185.025
3103.82709	3187.525
3106.19305	3181.625
3108.55757	3184.225
3110.92066	3180.325
3113.28232	3175.625
3115.64255	3154.125
3118.00134	3165.225
3120.35871	3175.225
3122.71466	3156.925
3125.06917	3153.825
3127.42226	3164.725
3129.77393	3164.425
3132.12417	3165.925
3134.47299	3195.025
3136.82039	3159.525
3139.16636	3171.625
3141.51092	3172.625
3143.85406	3164.825
3146.19579	3174.725
3148.53609	3181.925
3150.87499	3181.325
3153.21246	3189.025
3155.54853	3187.425
3157.88318	3193.425
3160.21642	3210.325
3162.54826	3206.225
3164.87868	3198.925
3167.2077	3197.525
3169.5353	3211.625
3171.86151	3207.225
3174.18631	3211.225
3176.5097	3209.325
3178.83169	3208.025
3181.15228	3208.825
3183.47147	3201.525
3185.78926	3209.325
3188.10565	3195.925
3190.42065	3205.925
3192.73424	3206.525
3195.04645	3208.925
3197.35725	3205.825
3199.66667	3219.325
3201.97469	3213.625
3204.28132	3220.225
3206.58656	3230.525
3208.8904	3223.825
3211.19287	3225.625
3213.49394	3216.825
3215.79363	3241.125
3218.09193	3242.925
3220.38884	3238.625
3222.68438	3252.625
3224.97853	3247.025
3227.2713	3233.125
3229.56269	3228.425
3231.8527	3226.325
3234.14133	3215.325
3236.42858	3226.525
3238.71446	3222.525
3240.99896	3213.525
3243.28209	3210.725
3245.56384	3204.125
3247.84423	3216.825
3250.12324	3207.525
3252.40088	3206.825
3254.67715	3207.525
3256.95205	3190.525
3259.22558	3197.125
3261.49775	3197.225
3263.76855	3188.125
3266.03799	3165.225
3268.30606	3165.825
3270.57277	3172.525
3272.83812	3158.425
3275.10211	3147.225
3277.36474	3137.625
3279.62601	3151.225
3281.88593	3150.425
3284.14448	3149.625
3286.40168	3145.425
3288.65753	3151.425
3290.91202	3154.625
3293.16516	3137.825
3295.41695	3121.525
3297.66738	3112.925
3299.91647	3093.125
3302.16421	3080.025
3304.4106	3067.925
3306.65564	3055.625
3308.89933	3031.225
3311.14169	3029.625
3313.38269	3008.025
3315.62236	2985.225
3317.86068	2961.125
3320.09766	2926.625
3322.3333	2907.925
3324.5676	2905.925
3326.80056	2881.325
3329.03219	2869.825
3331.26248	1.425
3333.49143	-0.675
3335.71905	0.725
