Data from AgNPs_FTO_APTES_UA_10um_CRN_0.1mM_R6G_10uM_NaF_0.1M_Addition_RamanShift__15__13-52-59-136.txt Node

Date: Tue Dec 21 13:52:59 GMT 2021
User: TCL
Spectrometer: QEP01345
Trigger mode: 4
Integration Time (sec): 7.000000E0
Scans to average: 10
Electric dark correction enabled: true
Nonlinearity correction enabled: false
Boxcar width: 0
XAxis mode: Raman Shifts
Number of Pixels in Spectrum: 1044
>>>>>Begin Spectral Data<<<<<
46.04893	0.5375
50.45542	-1.7625
54.85868	-0.0625
59.25871	0.5375
63.6555	41.7375
68.04907	49.0375
72.43941	50.8375
76.82654	50.5375
81.21044	54.5375
85.59113	58.4375
89.96862	55.8375
94.34289	60.4375
98.71396	61.6375
103.08183	65.7375
107.4465	66.7375
111.80798	69.1375
116.16626	67.5375
120.52136	69.0375
124.87327	71.8375
129.222	76.2375
133.56755	81.6375
137.90993	91.4375
142.24913	96.3375
146.58517	104.6375
150.91804	125.8375
155.24774	143.0375
159.57429	178.8375
163.89768	237.8375
168.21792	307.2375
172.53501	414.8375
176.84895	577.8375
181.15975	810.8375
185.46741	1140.6375
189.77193	1580.9375
194.07331	2126.4375
198.37157	2749.9375
202.6667	3424.4375
206.9587	4074.3375
211.24758	4753.5375
215.53334	5430.3375
219.81599	6118.2375
224.09553	6890.6375
228.37195	7702.3375
232.64527	8623.5375
236.91549	9555.0375
241.18261	10495.0375
245.44663	11395.6375
249.70755	12202.2375
253.96539	12847.7375
258.22014	13396.4375
262.4718	13826.2375
266.72039	14124.3375
270.96589	14273.3375
275.20832	14280.3375
279.44768	14207.4375
283.68397	14078.5375
287.91719	13982.1375
292.14735	13898.7375
296.37445	13876.2375
300.59849	13966.2375
304.81948	14044.7375
309.03742	14031.1375
313.25231	13923.6375
317.46415	13559.1375
321.67296	13134.0375
325.87872	12731.6375
330.08145	12537.4375
334.28114	12485.8375
338.47781	12571.7375
342.67145	12743.6375
346.86207	12964.4375
351.04966	13163.0375
355.23424	13465.7375
359.4158	13667.1375
363.59435	13833.4375
367.76989	13980.8375
371.94243	13991.8375
376.11196	14040.5375
380.27849	14078.2375
384.44203	14122.8375
388.60257	14246.7375
392.76012	14376.5375
396.91468	14555.1375
401.06626	14783.5375
405.21485	14962.4375
409.36047	14902.3375
413.50311	14651.7375
417.64277	14370.1375
421.77947	14243.4375
425.9132	14172.8375
430.04396	14226.7375
434.17176	14277.6375
438.2966	14326.0375
442.41849	14484.0375
446.53742	14723.3375
450.6534	15004.3375
454.76644	15256.6375
458.87653	15393.9375
462.98368	15421.7375
467.08789	15377.1375
471.18916	15308.9375
475.2875	15204.2375
479.38291	15169.2375
483.4754	15095.2375
487.56496	14977.3375
491.6516	14805.4375
495.73531	14649.7375
499.81612	14585.6375
503.89401	14614.9375
507.96899	14670.2375
512.04106	14659.0375
516.11023	14640.5375
520.1765	14553.6375
524.23987	14396.5375
528.30034	14305.5375
532.35792	14183.7375
536.41261	14068.9375
540.46441	13936.8375
544.51333	13928.9375
548.55936	14060.7375
552.60252	14298.2375
556.64279	14530.4375
560.6802	14676.6375
564.71473	14805.3375
568.7464	14980.5375
572.7752	15322.4375
576.80114	15571.5375
580.82422	15826.7375
584.84444	16039.0375
588.86181	16105.7375
592.87633	16044.3375
596.888	15900.6375
600.89682	15880.1375
604.9028	16383.7375
608.90594	17839.7375
612.90624	19449.6375
616.90371	18575.3375
620.89834	15605.9375
624.89015	14139.4375
628.87913	13906.7375
632.86528	14069.7375
636.84862	14283.1375
640.82913	14162.2375
644.80683	13878.3375
648.78172	13609.0375
652.75379	13526.0375
656.72306	13629.0375
660.68952	13855.3375
664.65319	13875.0375
668.61405	13736.3375
672.57211	13722.4375
676.52738	13853.5375
680.47986	13896.9375
684.42955	13866.3375
688.37646	13727.9375
692.32058	13652.2375
696.26192	13653.7375
700.20048	13737.0375
704.13626	13845.3375
708.06928	13873.0375
711.99952	13804.6375
715.927	13721.9375
719.85171	13738.8375
723.77365	13695.0375
727.69284	13539.7375
731.60928	13429.5375
735.52295	13384.7375
739.43388	13342.8375
743.34206	13365.8375
747.24749	13390.3375
751.15017	13463.4375
755.05012	13608.2375
758.94733	13935.4375
762.8418	14605.9375
766.73354	15763.3375
770.62254	16931.9375
774.50882	17384.0375
778.39237	16756.3375
782.27321	15567.1375
786.15132	14457.5375
790.02671	13707.3375
793.89938	13330.5375
797.76935	13169.0375
801.6366	13098.3375
805.50115	13053.8375
809.36299	12984.6375
813.22213	12853.4375
817.07857	12841.8375
820.93231	12790.4375
824.78336	12779.5375
828.63172	12741.7375
832.47738	12678.2375
836.32036	12644.0375
840.16066	12632.9375
843.99827	12572.9375
847.8332	12523.2375
851.66546	12538.7375
855.49504	12549.6375
859.32195	12545.9375
863.1462	12549.5375
866.96777	12554.1375
870.78668	12536.3375
874.60293	12563.2375
878.41652	12540.5375
882.22745	12598.4375
886.03573	12625.0375
889.84136	12646.7375
893.64433	12621.3375
897.44466	12560.9375
901.24235	12493.7375
905.0374	12413.7375
908.8298	12386.8375
912.61957	12336.9375
916.40671	12422.5375
920.19121	12536.1375
923.97308	12636.7375
927.75233	12632.8375
931.52895	12572.6375
935.30295	12450.9375
939.07433	12234.0375
942.84309	12062.2375
946.60924	11947.2375
950.37278	11897.8375
954.13371	11877.9375
957.89203	11818.8375
961.64774	11807.7375
965.40086	11783.2375
969.15137	11743.1375
972.89929	11670.9375
976.64461	11614.5375
980.38733	11651.9375
984.12747	11604.9375
987.86502	11648.4375
991.59999	11690.5375
995.33237	11767.9375
999.06217	11890.4375
1002.78939	12029.3375
1006.51404	12190.5375
1010.23611	12362.3375
1013.95561	12489.2375
1017.67255	12554.0375
1021.38692	12477.2375
1025.09872	12346.6375
1028.80796	12172.9375
1032.51465	12151.9375
1036.21877	12179.6375
1039.92035	12266.3375
1043.61937	12340.6375
1047.31584	12389.5375
1051.00976	12439.4375
1054.70114	12482.8375
1058.38998	12499.5375
1062.07627	12616.0375
1065.76003	12764.7375
1069.44126	12900.8375
1073.11995	13076.0375
1076.79611	13268.9375
1080.46974	13329.8375
1084.14085	13341.5375
1087.80943	13399.3375
1091.47549	13535.3375
1095.13903	13614.0375
1098.80005	13504.1375
1102.45857	13255.1375
1106.11456	12957.8375
1109.76805	12776.1375
1113.41903	12723.3375
1117.06751	12802.9375
1120.71348	12940.7375
1124.35696	13142.2375
1127.99793	13336.3375
1131.63641	13468.8375
1135.2724	13406.1375
1138.90589	13279.2375
1142.5369	13204.8375
1146.16542	13171.0375
1149.79145	13200.4375
1153.415	13266.7375
1157.03607	13344.9375
1160.65467	13595.8375
1164.27079	13993.9375
1167.88443	14568.3375
1171.49561	15335.5375
1175.10432	16273.1375
1178.71056	17502.2375
1182.31434	18675.6375
1185.91565	19306.8375
1189.51451	19461.2375
1193.11091	19150.8375
1196.70485	18466.8375
1200.29634	17759.5375
1203.88538	17119.9375
1207.47197	16518.8375
1211.05612	16055.9375
1214.63782	15669.0375
1218.21708	15301.2375
1221.79391	14996.9375
1225.36829	14772.5375
1228.94024	14650.3375
1232.50976	14516.7375
1236.07685	14450.8375
1239.6415	14392.2375
1243.20374	14390.3375
1246.76355	14504.0375
1250.32093	14608.2375
1253.8759	14852.9375
1257.42845	15207.2375
1260.97859	15572.5375
1264.52631	15967.8375
1268.07163	16365.4375
1271.61453	16721.0375
1275.15503	17086.9375
1278.69312	17435.2375
1282.22882	17770.3375
1285.76211	18196.5375
1289.29301	18678.4375
1292.82151	19291.0375
1296.34761	20016.7375
1299.87133	20801.5375
1303.39266	21664.4375
1306.9116	22617.8375
1310.42815	23565.4375
1313.94233	24153.7375
1317.45412	24162.1375
1320.96354	23865.8375
1324.47058	23540.3375
1327.97525	23254.1375
1331.47754	23086.3375
1334.97747	23027.2375
1338.47502	23024.9375
1341.97022	23140.5375
1345.46305	23304.8375
1348.95352	23432.8375
1352.44163	23551.2375
1355.92738	23803.7375
1359.41078	24365.3375
1362.89183	25062.7375
1366.37053	24767.6375
1369.84688	23010.6375
1373.32088	20819.5375
1376.79254	19185.2375
1380.26186	18346.8375
1383.72883	18019.7375
1387.19347	17813.3375
1390.65578	17602.6375
1394.11575	17421.0375
1397.57339	17337.5375
1401.0287	17365.3375
1404.48168	17405.4375
1407.93234	17302.8375
1411.38068	17096.8375
1414.82669	16675.6375
1418.27039	16170.7375
1421.71177	15644.6375
1425.15083	15217.6375
1428.58758	14958.0375
1432.02203	14921.8375
1435.45416	15079.4375
1438.88399	15322.3375
1442.31151	15562.2375
1445.73673	15802.6375
1449.15965	16034.8375
1452.58027	16268.6375
1455.9986	16427.9375
1459.41463	16595.1375
1462.82837	16825.9375
1466.23982	17106.9375
1469.64898	17348.4375
1473.05586	17501.4375
1476.46045	17536.5375
1479.86276	17533.9375
1483.26279	17504.0375
1486.66054	17604.6375
1490.05602	17800.7375
1493.44922	18147.1375
1496.84016	18699.8375
1500.22882	19498.1375
1503.61521	20651.7375
1506.99934	21797.8375
1510.38121	22711.0375
1513.76081	22893.2375
1517.13816	22246.3375
1520.51324	21016.7375
1523.88607	19892.3375
1527.25665	19122.6375
1530.62498	18613.1375
1533.99105	18341.2375
1537.35488	18028.9375
1540.71647	17670.9375
1544.07581	17239.2375
1547.4329	16804.7375
1550.78776	16507.0375
1554.14038	16293.1375
1557.49077	16260.3375
1560.83892	16384.3375
1564.18484	16563.7375
1567.52853	16772.1375
1570.86999	17020.8375
1574.20922	17243.5375
1577.54624	17325.9375
1580.88103	17169.2375
1584.2136	16894.6375
1587.54395	16773.2375
1590.87208	16992.6375
1594.19801	17542.1375
1597.52172	18185.1375
1600.84321	18459.1375
1604.16251	17992.6375
1607.47959	17106.2375
1610.79447	16132.8375
1614.10715	15119.6375
1617.41763	14175.6375
1620.7259	13464.6375
1624.03199	13018.2375
1627.33587	12892.0375
1630.63757	13031.9375
1633.93707	13509.2375
1637.23439	14402.4375
1640.52951	15749.1375
1643.82246	17471.3375
1647.11321	19216.4375
1650.40179	20249.4375
1653.68819	19898.6375
1656.97241	18204.2375
1660.25446	16046.9375
1663.53433	14189.5375
1666.81203	12823.1375
1670.08756	11925.5375
1673.36092	11356.5375
1676.63211	11010.4375
1679.90115	10743.6375
1683.16801	10543.3375
1686.43272	10412.1375
1689.69527	10295.8375
1692.95567	10239.2375
1696.2139	10182.2375
1699.46999	10164.5375
1702.72392	10113.2375
1705.97571	10064.0375
1709.22535	10013.3375
1712.47284	9968.4375
1715.71819	9918.6375
1718.96139	9893.5375
1722.20246	9860.1375
1725.44139	9802.3375
1728.67818	9740.3375
1731.91284	9709.8375
1735.14537	9631.2375
1738.37576	9619.4375
1741.60403	9574.9375
1744.83017	9553.3375
1748.05418	9557.4375
1751.27607	9539.7375
1754.49584	9576.5375
1757.71349	9604.3375
1760.92903	9612.7375
1764.14244	9554.7375
1767.35375	9507.2375
1770.56294	9441.6375
1773.77002	9398.5375
1776.97499	9326.4375
1780.17785	9287.6375
1783.37861	9259.7375
1786.57727	9222.3375
1789.77382	9175.2375
1792.96828	9139.1375
1796.16064	9117.4375
1799.3509	9080.8375
1802.53907	9070.1375
1805.72514	9010.4375
1808.90913	8995.7375
1812.09102	8989.1375
1815.27083	8937.2375
1818.44856	8924.1375
1821.6242	8903.0375
1824.79776	8893.4375
1827.96924	8887.7375
1831.13864	8875.0375
1834.30597	8874.9375
1837.47122	8856.2375
1840.6344	8833.9375
1843.7955	8828.7375
1846.95454	8820.6375
1850.11151	8811.3375
1853.26642	8794.7375
1856.41926	8789.2375
1859.57004	8784.5375
1862.71876	8754.7375
1865.86542	8754.7375
1869.01003	8737.8375
1872.15258	8727.6375
1875.29308	8732.1375
1878.43152	8692.9375
1881.56792	8668.5375
1884.70227	8680.0375
1887.83457	8635.3375
1890.96482	8614.2375
1894.09304	8618.6375
1897.21921	8620.6375
1900.34335	8602.0375
1903.46544	8596.2375
1906.58551	8577.3375
1909.70353	8555.9375
1912.81953	8536.6375
1915.93349	8514.5375
1919.04543	8493.9375
1922.15534	8455.5375
1925.26322	8456.3375
1928.36908	8416.7375
1931.47292	8399.4375
1934.57473	8397.2375
1937.67453	8365.9375
1940.77232	8345.4375
1943.86808	8325.5375
1946.96184	8296.9375
1950.05358	8273.9375
1953.14331	8232.0375
1956.23103	8197.2375
1959.31675	8185.9375
1962.40046	8149.2375
1965.48217	8151.3375
1968.56188	8110.5375
1971.63959	8071.4375
1974.7153	8055.6375
1977.78901	8010.9375
1980.86073	7998.0375
1983.93046	7977.2375
1986.99819	7946.2375
1990.06394	7916.4375
1993.1277	7889.1375
1996.18947	7829.7375
1999.24925	7835.4375
2002.30706	7808.3375
2005.36288	7779.1375
2008.41672	7748.8375
2011.46859	7733.5375
2014.51848	7703.5375
2017.56639	7670.6375
2020.61233	7671.4375
2023.6563	7625.2375
2026.6983	7619.7375
2029.73833	7599.0375
2032.7764	7575.2375
2035.8125	7555.4375
2038.84664	7542.5375
2041.87881	7524.9375
2044.90903	7525.3375
2047.93729	7486.6375
2050.96359	7486.3375
2053.98794	7469.0375
2057.01034	7459.5375
2060.03078	7451.8375
2063.04927	7432.7375
2066.06582	7412.5375
2069.08042	7417.9375
2072.09307	7420.6375
2075.10378	7398.9375
2078.11255	7383.5375
2081.11938	7398.5375
2084.12426	7395.4375
2087.12722	7377.4375
2090.12824	7357.9375
2093.12732	7391.2375
2096.12447	7374.8375
2099.11969	7379.3375
2102.11299	7363.0375
2105.10435	7347.1375
2108.09379	7374.0375
2111.08131	7387.0375
2114.0669	7361.6375
2117.05057	7359.7375
2120.03233	7379.7375
2123.01216	7358.3375
2125.99008	7368.3375
2128.96609	7367.8375
2131.94018	7382.1375
2134.91236	7369.9375
2137.88263	7394.4375
2140.851	7375.3375
2143.81746	7371.0375
2146.78201	7366.7375
2149.74466	7371.1375
2152.7054	7363.9375
2155.66425	7365.6375
2158.6212	7358.9375
2161.57625	7368.7375
2164.52941	7332.1375
2167.48067	7349.8375
2170.43004	7349.0375
2173.37752	7312.2375
2176.32311	7308.6375
2179.26681	7314.9375
2182.20863	7302.8375
2185.14856	7302.1375
2188.08661	7303.8375
2191.02278	7296.3375
2193.95707	7291.0375
2196.88948	7259.5375
2199.82001	7248.0375
2202.74867	7261.7375
2205.67545	7235.8375
2208.60037	7247.1375
2211.52341	7220.3375
2214.44458	7209.0375
2217.36388	7172.6375
2220.28132	7181.6375
2223.1969	7148.6375
2226.11061	7133.8375
2229.02246	7123.3375
2231.93245	7109.6375
2234.84058	7098.4375
2237.74686	7084.5375
2240.65128	7069.1375
2243.55385	7045.2375
2246.45456	7050.7375
2249.35343	7034.1375
2252.25044	7043.2375
2255.14561	7023.5375
2258.03893	7006.8375
2260.93041	7020.9375
2263.82004	6984.0375
2266.70783	6968.4375
2269.59378	6919.5375
2272.4779	6925.1375
2275.36017	6887.0375
2278.24061	6882.1375
2281.11922	6866.7375
2283.996	6849.2375
2286.87094	6843.2375
2289.74405	6830.2375
2292.61534	6791.1375
2295.4848	6794.9375
2298.35243	6801.5375
2301.21824	6772.0375
2304.08223	6765.6375
2306.94439	6773.1375
2309.80474	6750.5375
2312.66327	6738.7375
2315.51999	6739.3375
2318.37489	6719.4375
2321.22797	6721.4375
2324.07925	6705.6375
2326.92871	6689.9375
2329.77637	6677.7375
2332.62222	6694.0375
2335.46626	6651.3375
2338.3085	6649.4375
2341.14893	6663.5375
2343.98756	6646.1375
2346.8244	6629.0375
2349.65943	6638.6375
2352.49267	6631.8375
2355.32411	6636.0375
2358.15376	6645.1375
2360.98161	6630.1375
2363.80768	6623.4375
2366.63195	6625.6375
2369.45444	6620.5375
2372.27514	6601.5375
2375.09405	6578.5375
2377.91118	6580.1375
2380.72652	6564.4375
2383.54009	6540.9375
2386.35187	6539.3375
2389.16188	6497.3375
2391.97011	6484.9375
2394.77657	6470.2375
2397.58125	6461.3375
2400.38416	6450.7375
2403.18529	6418.9375
2405.98466	6433.7375
2408.78226	6420.6375
2411.57809	6389.8375
2414.37216	6385.1375
2417.16446	6368.3375
2419.955	6358.5375
2422.74378	6359.9375
2425.5308	6347.2375
2428.31606	6352.6375
2431.09956	6336.8375
2433.88131	6319.0375
2436.6613	6328.8375
2439.43954	6326.7375
2442.21603	6311.0375
2444.99077	6293.2375
2447.76377	6304.1375
2450.53501	6306.7375
2453.30451	6295.7375
2456.07226	6288.9375
2458.83827	6291.8375
2461.60254	6276.5375
2464.36507	6282.3375
2467.12586	6275.6375
2469.88492	6255.4375
2472.64224	6248.2375
2475.39782	6251.0375
2478.15167	6262.4375
2480.90379	6238.3375
2483.65417	6252.8375
2486.40283	6234.3375
2489.14976	6241.0375
2491.89497	6221.2375
2494.63845	6249.2375
2497.3802	6260.0375
2500.12024	6229.5375
2502.85855	6206.7375
2505.59514	6194.8375
2508.33002	6199.1375
2511.06318	6190.0375
2513.79462	6176.0375
2516.52435	6162.9375
2519.25237	6147.1375
2521.97867	6130.3375
2524.70327	6134.4375
2527.42616	6130.2375
2530.14734	6108.2375
2532.86681	6109.1375
2535.58458	6102.9375
2538.30065	6083.6375
2541.01501	6080.9375
2543.72768	6064.0375
2546.43864	6059.4375
2549.14791	6042.1375
2551.85548	6044.3375
2554.56136	6038.1375
2557.26554	6020.7375
2559.96803	6009.2375
2562.66883	6016.4375
2565.36794	5994.9375
2568.06536	5992.8375
2570.7611	5984.1375
2573.45514	5984.1375
2576.14751	5979.7375
2578.83819	5953.9375
2581.52719	5944.2375
2584.21451	5934.2375
2586.90015	5914.3375
2589.58411	5894.6375
2592.2664	5905.5375
2594.94701	5900.5375
2597.62594	5873.0375
2600.30321	5871.4375
2602.9788	5839.8375
2605.65273	5850.9375
2608.32498	5855.2375
2610.99557	5839.3375
2613.66449	5832.4375
2616.33175	5808.6375
2618.99734	5817.8375
2621.66128	5804.0375
2624.32355	5796.0375
2626.98416	5796.7375
2629.64311	5786.8375
2632.30041	5794.5375
2634.95605	5774.2375
2637.61004	5764.9375
2640.26238	5766.4375
2642.91306	5744.1375
2645.56209	5765.2375
2648.20948	5739.9375
2650.85521	5745.5375
2653.4993	5739.8375
2656.14175	5719.0375
2658.78255	5730.6375
2661.42171	5735.5375
2664.05923	5737.4375
2666.6951	5722.4375
2669.32934	5729.9375
2671.96194	5748.5375
2674.59291	5748.6375
2677.22224	5725.1375
2679.84993	5755.2375
2682.476	5719.6375
2685.10043	5718.7375
2687.72324	5709.9375
2690.34441	5721.0375
2692.96396	5713.6375
2695.58188	5710.5375
2698.19818	5694.1375
2700.81285	5709.6375
2703.4259	5727.3375
2706.03733	5797.3375
2708.64714	5753.3375
2711.25533	5728.7375
2713.86191	5730.5375
2716.46687	5722.9375
2719.07021	5720.8375
2721.67194	5717.1375
2724.27206	5711.7375
2726.87057	5691.0375
2729.46747	5701.9375
2732.06276	5723.9375
2734.65644	5691.9375
2737.24852	5693.7375
2739.83899	5669.7375
2742.42786	5682.5375
2745.01513	5664.9375
2747.60079	5662.8375
2750.18486	5653.1375
2752.76733	5649.4375
2755.3482	5653.6375
2757.92747	5657.7375
2760.50515	5637.0375
2763.08123	5610.0375
2765.65573	5605.1375
2768.22863	5616.1375
2770.79994	5596.6375
2773.36967	5623.9375
2775.9378	5601.5375
2778.50435	5586.6375
2781.06932	5583.0375
2783.6327	5581.1375
2786.1945	5571.4375
2788.75471	5565.5375
2791.31335	5562.2375
2793.87041	5544.0375
2796.42589	5519.6375
2798.97979	5520.6375
2801.53212	5508.9375
2804.08288	5512.7375
2806.63206	5511.2375
2809.17967	5482.5375
2811.72571	5481.3375
2814.27018	5456.3375
2816.81308	5467.5375
2819.35442	5465.2375
2821.89419	5456.9375
2824.43239	5456.4375
2826.96904	5469.7375
2829.50412	5437.5375
2832.03763	5424.8375
2834.56959	5420.1375
2837.1	5416.0375
2839.62884	5425.1375
2842.15613	5418.5375
2844.68186	5403.8375
2847.20604	5436.6375
2849.72867	5441.2375
2852.24974	5427.1375
2854.76927	5437.0375
2857.28724	5455.7375
2859.80367	5424.5375
2862.31855	5403.6375
2864.83189	5387.0375
2867.34368	5377.5375
2869.85393	5391.9375
2872.36264	5369.9375
2874.8698	5374.8375
2877.37543	5367.5375
2879.87952	5382.1375
2882.38207	5401.3375
2884.88308	5385.8375
2887.38256	5366.7375
2889.88051	5357.3375
2892.37692	5370.9375
2894.8718	5357.8375
2897.36515	5361.0375
2899.85698	5369.5375
2902.34727	5375.0375
2904.83604	5363.1375
2907.32328	5384.1375
2909.809	5383.5375
2912.29319	5404.1375
2914.77587	5393.2375
2917.25702	5396.7375
2919.73665	5401.8375
2922.21476	5407.4375
2924.69136	5406.3375
2927.16644	5412.6375
2929.64	5403.4375
2932.11205	5404.4375
2934.58258	5397.8375
2937.05161	5408.4375
2939.51912	5400.1375
2941.98513	5383.8375
2944.44962	5379.7375
2946.91261	5360.6375
2949.37409	5368.1375
2951.83407	5357.8375
2954.29254	5361.3375
2956.74951	5338.3375
2959.20498	5315.7375
2961.65895	5287.5375
2964.11142	5286.1375
2966.56239	5259.9375
2969.01186	5260.2375
2971.45984	5236.7375
2973.90632	5227.9375
2976.35131	5221.2375
2978.7948	5190.1375
2981.23681	5186.4375
2983.67732	5169.7375
2986.11635	5161.0375
2988.55388	5143.5375
2990.98993	5131.9375
2993.4245	5121.6375
2995.85758	5092.3375
2998.28917	5095.6375
3000.71928	5084.6375
3003.14791	5084.7375
3005.57506	5083.1375
3008.00073	5045.9375
3010.42493	5043.6375
3012.84764	5051.9375
3015.26888	5046.3375
3017.68865	5031.4375
3020.10694	5020.1375
3022.52376	4992.1375
3024.9391	5001.8375
3027.35298	4977.5375
3029.76539	4978.5375
3032.17632	4964.8375
3034.5858	4956.7375
3036.9938	4950.1375
3039.40034	4923.7375
3041.80542	4925.4375
3044.20903	4923.9375
3046.61118	4905.6375
3049.01187	4897.0375
3051.4111	4887.9375
3053.80888	4877.9375
3056.20519	4871.0375
3058.60005	4862.6375
3060.99345	4856.2375
3063.3854	4854.6375
3065.7759	4833.1375
3068.16494	4818.6375
3070.55254	4797.9375
3072.93868	4805.0375
3075.32338	4796.2375
3077.70662	4790.3375
3080.08842	4781.0375
3082.46878	4771.6375
3084.84769	4747.0375
3087.22515	4765.6375
3089.60118	4748.3375
3091.97576	4772.3375
3094.3489	4758.7375
3096.72061	4738.2375
3099.09087	4736.8375
3101.4597	4731.3375
3103.82709	4741.0375
3106.19305	4718.3375
3108.55757	4735.6375
3110.92066	4719.4375
3113.28232	4714.7375
3115.64255	4701.3375
3118.00134	4692.1375
3120.35871	4686.0375
3122.71466	4667.7375
3125.06917	4678.9375
3127.42226	4669.9375
3129.77393	4661.0375
3132.12417	4656.4375
3134.47299	4677.6375
3136.82039	4666.0375
3139.16636	4669.5375
3141.51092	4667.5375
3143.85406	4663.7375
3146.19579	4665.5375
3148.53609	4676.2375
3150.87499	4677.2375
3153.21246	4666.3375
3155.54853	4692.8375
3157.88318	4666.6375
3160.21642	4681.9375
3162.54826	4683.8375
3164.87868	4669.1375
3167.2077	4687.8375
3169.5353	4669.9375
3171.86151	4666.3375
3174.18631	4677.9375
3176.5097	4656.8375
3178.83169	4652.3375
3181.15228	4651.5375
3183.47147	4643.2375
3185.78926	4640.3375
3188.10565	4650.2375
3190.42065	4649.5375
3192.73424	4641.7375
3195.04645	4631.7375
3197.35725	4646.8375
3199.66667	4655.6375
3201.97469	4649.8375
3204.28132	4643.3375
3206.58656	4652.5375
3208.8904	4659.0375
3211.19287	4649.5375
3213.49394	4640.7375
3215.79363	4643.6375
3218.09193	4643.8375
3220.38884	4668.2375
3222.68438	4683.4375
3224.97853	4646.7375
3227.2713	4628.7375
3229.56269	4628.5375
3231.8527	4635.7375
3234.14133	4623.7375
3236.42858	4611.8375
3238.71446	4615.7375
3240.99896	4614.2375
3243.28209	4599.4375
3245.56384	4592.6375
3247.84423	4584.2375
3250.12324	4590.8375
3252.40088	4595.0375
3254.67715	4574.2375
3256.95205	4574.3375
3259.22558	4557.2375
3261.49775	4546.9375
3263.76855	4541.8375
3266.03799	4524.6375
3268.30606	4519.7375
3270.57277	4523.4375
3272.83812	4513.9375
3275.10211	4497.2375
3277.36474	4500.7375
3279.62601	4503.3375
3281.88593	4496.8375
3284.14448	4491.3375
3286.40168	4499.2375
3288.65753	4473.1375
3290.91202	4467.9375
3293.16516	4452.5375
3295.41695	4453.3375
3297.66738	4427.3375
3299.91647	4403.7375
3302.16421	4385.1375
3304.4106	4353.3375
3306.65564	4349.7375
3308.89933	4318.3375
3311.14169	4309.9375
3313.38269	4271.6375
3315.62236	4246.7375
3317.86068	4213.6375
3320.09766	4179.5375
3322.3333	4145.6375
3324.5676	4140.2375
3326.80056	4082.4375
3329.03219	4050.8375
3331.26248	2.0375
3333.49143	0.0375
3335.71905	-0.2625
