Data from AgNPs_FTO_APTES_UA_0um_CRN_0.1mM_R6G_10uM_NaF_0.1M_Addition_RamanShift__47__11-06-08-951.txt Node

Date: Tue Dec 21 11:06:08 GMT 2021
User: TCL
Spectrometer: QEP01345
Trigger mode: 4
Integration Time (sec): 7.000000E0
Scans to average: 10
Electric dark correction enabled: true
Nonlinearity correction enabled: false
Boxcar width: 0
XAxis mode: Raman Shifts
Number of Pixels in Spectrum: 1044
>>>>>Begin Spectral Data<<<<<
46.04893	-0.2875
50.45542	-1.4875
54.85868	-1.0875
59.25871	1.0125
63.6555	26.7125
68.04907	34.9125
72.43941	35.5125
76.82654	36.4125
81.21044	41.4125
85.59113	38.5125
89.96862	41.3125
94.34289	42.5125
98.71396	45.1125
103.08183	48.8125
107.4465	49.4125
111.80798	50.7125
116.16626	52.0125
120.52136	52.4125
124.87327	51.4125
129.222	56.3125
133.56755	61.1125
137.90993	67.7125
142.24913	69.8125
146.58517	80.6125
150.91804	91.9125
155.24774	108.2125
159.57429	133.9125
163.89768	178.8125
168.21792	227.5125
172.53501	308.1125
176.84895	428.9125
181.15975	603.9125
185.46741	843.6125
189.77193	1157.2125
194.07331	1562.4125
198.37157	2010.3125
202.6667	2482.6125
206.9587	2965.1125
211.24758	3437.6125
215.53334	3928.3125
219.81599	4412.8125
224.09553	4949.6125
228.37195	5580.1125
232.64527	6199.1125
236.91549	6902.6125
241.18261	7567.9125
245.44663	8185.4125
249.70755	8737.0125
253.96539	9189.6125
258.22014	9559.7125
262.4718	9845.3125
266.72039	10030.2125
270.96589	10089.6125
275.20832	10057.3125
279.44768	9966.6125
283.68397	9912.5125
287.91719	9844.0125
292.14735	9793.0125
296.37445	9778.0125
300.59849	9797.5125
304.81948	9826.0125
309.03742	9846.5125
313.25231	9850.0125
317.46415	9692.5125
321.67296	9530.0125
325.87872	9294.8125
330.08145	9170.4125
334.28114	9089.3125
338.47781	9083.6125
342.67145	9170.3125
346.86207	9328.5125
351.04966	9497.4125
355.23424	9627.5125
359.4158	9780.8125
363.59435	9827.7125
367.76989	9856.2125
371.94243	9830.5125
376.11196	9757.5125
380.27849	9710.6125
384.44203	9689.4125
388.60257	9735.5125
392.76012	9847.3125
396.91468	10040.2125
401.06626	10265.4125
405.21485	10394.8125
409.36047	10362.5125
413.50311	10264.7125
417.64277	10332.1125
421.77947	10477.2125
425.9132	10405.0125
430.04396	10408.7125
434.17176	10477.2125
438.2966	10534.7125
442.41849	10712.1125
446.53742	10997.4125
450.6534	11273.4125
454.76644	11403.2125
458.87653	11368.3125
462.98368	11296.8125
467.08789	11119.5125
471.18916	10939.3125
475.2875	10713.1125
479.38291	10598.3125
483.4754	10503.6125
487.56496	10425.2125
491.6516	10320.6125
495.73531	10213.4125
499.81612	10126.4125
503.89401	10156.2125
507.96899	10205.4125
512.04106	10148.8125
516.11023	10032.0125
520.1765	9829.9125
524.23987	9672.9125
528.30034	9563.3125
532.35792	9477.2125
536.41261	9305.1125
540.46441	9167.9125
544.51333	9121.1125
548.55936	9231.1125
552.60252	9482.0125
556.64279	9769.3125
560.6802	9964.2125
564.71473	10086.8125
568.7464	10333.5125
572.7752	10824.0125
576.80114	11522.4125
580.82422	12224.3125
584.84444	12998.4125
588.86181	13884.7125
592.87633	14873.2125
596.888	15263.6125
600.89682	14472.2125
604.9028	13414.6125
608.90594	13161.2125
612.90624	13437.9125
616.90371	12351.3125
620.89834	10352.0125
624.89015	9460.1125
628.87913	9458.8125
632.86528	9678.6125
636.84862	9694.8125
640.82913	9434.8125
644.80683	9102.4125
648.78172	8894.0125
652.75379	8883.6125
656.72306	8969.4125
660.68952	9045.4125
664.65319	9026.0125
668.61405	8860.0125
672.57211	8857.5125
676.52738	8863.4125
680.47986	8887.3125
684.42955	8811.0125
688.37646	8706.5125
692.32058	8723.7125
696.26192	8841.5125
700.20048	8991.1125
704.13626	9128.6125
708.06928	9290.1125
711.99952	9337.8125
715.927	9320.1125
719.85171	9253.1125
723.77365	9113.5125
727.69284	8871.3125
731.60928	8682.3125
735.52295	8601.5125
739.43388	8641.6125
743.34206	8656.1125
747.24749	8763.9125
751.15017	8925.3125
755.05012	9217.1125
758.94733	9589.2125
762.8418	10205.1125
766.73354	11130.7125
770.62254	11932.2125
774.50882	11871.2125
778.39237	11042.2125
782.27321	10125.4125
786.15132	9452.2125
790.02671	8974.2125
793.89938	8720.6125
797.76935	8569.3125
801.6366	8497.7125
805.50115	8456.5125
809.36299	8403.2125
813.22213	8330.3125
817.07857	8294.5125
820.93231	8217.2125
824.78336	8164.1125
828.63172	8112.0125
832.47738	8076.9125
836.32036	8048.9125
840.16066	8009.4125
843.99827	8027.4125
847.8332	8025.1125
851.66546	8021.1125
855.49504	8047.9125
859.32195	8032.7125
863.1462	7982.6125
866.96777	7963.3125
870.78668	7919.6125
874.60293	7914.0125
878.41652	7907.3125
882.22745	7934.3125
886.03573	7968.2125
889.84136	7980.3125
893.64433	7957.6125
897.44466	7974.3125
901.24235	7959.8125
905.0374	7932.2125
908.8298	7896.0125
912.61957	7910.2125
916.40671	8028.7125
920.19121	8219.2125
923.97308	8418.6125
927.75233	8506.9125
931.52895	8385.2125
935.30295	8100.9125
939.07433	7813.2125
942.84309	7575.1125
946.60924	7459.6125
950.37278	7392.5125
954.13371	7398.9125
957.89203	7367.3125
961.64774	7396.1125
965.40086	7379.1125
969.15137	7384.1125
972.89929	7316.3125
976.64461	7235.7125
980.38733	7193.2125
984.12747	7167.2125
987.86502	7166.0125
991.59999	7221.2125
995.33237	7267.8125
999.06217	7358.9125
1002.78939	7519.0125
1006.51404	7705.1125
1010.23611	7936.8125
1013.95561	8078.8125
1017.67255	8155.7125
1021.38692	8053.0125
1025.09872	7860.2125
1028.80796	7705.9125
1032.51465	7612.7125
1036.21877	7593.9125
1039.92035	7664.0125
1043.61937	7747.6125
1047.31584	7805.9125
1051.00976	7873.8125
1054.70114	7918.0125
1058.38998	7971.8125
1062.07627	8050.6125
1065.76003	8174.5125
1069.44126	8376.3125
1073.11995	8644.6125
1076.79611	8869.2125
1080.46974	8938.3125
1084.14085	8990.7125
1087.80943	9129.8125
1091.47549	9293.2125
1095.13903	9371.7125
1098.80005	9220.3125
1102.45857	8811.9125
1106.11456	8396.3125
1109.76805	8205.5125
1113.41903	8169.1125
1117.06751	8183.4125
1120.71348	8305.9125
1124.35696	8480.9125
1127.99793	8653.0125
1131.63641	8755.9125
1135.2724	8807.1125
1138.90589	8787.0125
1142.5369	8805.3125
1146.16542	8922.1125
1149.79145	9069.5125
1153.415	9187.0125
1157.03607	9381.5125
1160.65467	9746.1125
1164.27079	10346.0125
1167.88443	11100.2125
1171.49561	11912.0125
1175.10432	12880.8125
1178.71056	13979.7125
1182.31434	15012.7125
1185.91565	15477.6125
1189.51451	15409.9125
1193.11091	15004.5125
1196.70485	14372.3125
1200.29634	13670.1125
1203.88538	13101.1125
1207.47197	12801.1125
1211.05612	12691.2125
1214.63782	12447.0125
1218.21708	12008.9125
1221.79391	11545.5125
1225.36829	11233.4125
1228.94024	11062.8125
1232.50976	10865.4125
1236.07685	10666.6125
1239.6415	10480.1125
1243.20374	10365.0125
1246.76355	10379.8125
1250.32093	10480.6125
1253.8759	10745.1125
1257.42845	11150.7125
1260.97859	11588.4125
1264.52631	12017.8125
1268.07163	12484.1125
1271.61453	12953.9125
1275.15503	13454.7125
1278.69312	14052.0125
1282.22882	14722.5125
1285.76211	15596.6125
1289.29301	16447.0125
1292.82151	17382.8125
1296.34761	18406.3125
1299.87133	19629.1125
1303.39266	20831.3125
1306.9116	21831.5125
1310.42815	22558.8125
1313.94233	22888.4125
1317.45412	22633.9125
1320.96354	22092.2125
1324.47058	21715.9125
1327.97525	21525.4125
1331.47754	21391.5125
1334.97747	21265.6125
1338.47502	20992.8125
1341.97022	20671.5125
1345.46305	20234.3125
1348.95352	19868.0125
1352.44163	19724.0125
1355.92738	20027.0125
1359.41078	20877.3125
1362.89183	21806.7125
1366.37053	21949.9125
1369.84688	20806.9125
1373.32088	18476.2125
1376.79254	16463.6125
1380.26186	15546.0125
1383.72883	15363.7125
1387.19347	15251.4125
1390.65578	14957.0125
1394.11575	14799.8125
1397.57339	14966.6125
1401.0287	15255.4125
1404.48168	15518.9125
1407.93234	15467.0125
1411.38068	15110.2125
1414.82669	14503.9125
1418.27039	13766.6125
1421.71177	13044.6125
1425.15083	12427.8125
1428.58758	12072.0125
1432.02203	12104.2125
1435.45416	12387.8125
1438.88399	12776.9125
1442.31151	13079.9125
1445.73673	13347.5125
1449.15965	13624.0125
1452.58027	13770.7125
1455.9986	13875.0125
1459.41463	13954.8125
1462.82837	14177.9125
1466.23982	14481.6125
1469.64898	14835.1125
1473.05586	15086.4125
1476.46045	15256.8125
1479.86276	15370.5125
1483.26279	15484.5125
1486.66054	15641.4125
1490.05602	15944.3125
1493.44922	16441.0125
1496.84016	16953.4125
1500.22882	17385.7125
1503.61521	17808.3125
1506.99934	18121.2125
1510.38121	18252.7125
1513.76081	18149.3125
1517.13816	17798.1125
1520.51324	17354.2125
1523.88607	17049.9125
1527.25665	16977.8125
1530.62498	16875.6125
1533.99105	16609.4125
1537.35488	16126.6125
1540.71647	15462.9125
1544.07581	14703.8125
1547.4329	13949.4125
1550.78776	13356.9125
1554.14038	12981.4125
1557.49077	12775.6125
1560.83892	12725.8125
1564.18484	12823.0125
1567.52853	12987.1125
1570.86999	13149.7125
1574.20922	13450.3125
1577.54624	13694.6125
1580.88103	13725.3125
1584.2136	13746.1125
1587.54395	14091.5125
1590.87208	14915.6125
1594.19801	16007.6125
1597.52172	17083.6125
1600.84321	17429.5125
1604.16251	16561.9125
1607.47959	15000.7125
1610.79447	13376.1125
1614.10715	11930.0125
1617.41763	10769.2125
1620.7259	9966.0125
1624.03199	9559.8125
1627.33587	9498.0125
1630.63757	9777.0125
1633.93707	10519.6125
1637.23439	11890.3125
1640.52951	14067.5125
1643.82246	16987.7125
1647.11321	19932.0125
1650.40179	21348.4125
1653.68819	20478.0125
1656.97241	17723.9125
1660.25446	14539.7125
1663.53433	11830.0125
1666.81203	9954.0125
1670.08756	8782.1125
1673.36092	8068.6125
1676.63211	7627.8125
1679.90115	7321.3125
1683.16801	7113.6125
1686.43272	6973.1125
1689.69527	6843.8125
1692.95567	6744.0125
1696.2139	6712.3125
1699.46999	6662.5125
1702.72392	6601.2125
1705.97571	6561.8125
1709.22535	6504.3125
1712.47284	6479.6125
1715.71819	6461.4125
1718.96139	6436.7125
1722.20246	6361.0125
1725.44139	6325.7125
1728.67818	6274.2125
1731.91284	6225.5125
1735.14537	6171.3125
1738.37576	6131.4125
1741.60403	6097.7125
1744.83017	6061.2125
1748.05418	6036.1125
1751.27607	6032.4125
1754.49584	6019.8125
1757.71349	6045.7125
1760.92903	6017.9125
1764.14244	6029.5125
1767.35375	6008.1125
1770.56294	5983.1125
1773.77002	5956.1125
1776.97499	5897.4125
1780.17785	5888.1125
1783.37861	5857.3125
1786.57727	5833.0125
1789.77382	5798.7125
1792.96828	5779.8125
1796.16064	5762.8125
1799.3509	5734.0125
1802.53907	5721.6125
1805.72514	5688.4125
1808.90913	5661.3125
1812.09102	5654.8125
1815.27083	5624.6125
1818.44856	5619.5125
1821.6242	5600.3125
1824.79776	5593.6125
1827.96924	5594.6125
1831.13864	5572.7125
1834.30597	5590.5125
1837.47122	5579.3125
1840.6344	5575.1125
1843.7955	5582.6125
1846.95454	5561.1125
1850.11151	5570.8125
1853.26642	5559.3125
1856.41926	5568.4125
1859.57004	5561.1125
1862.71876	5541.3125
1865.86542	5524.6125
1869.01003	5533.8125
1872.15258	5506.7125
1875.29308	5515.4125
1878.43152	5502.2125
1881.56792	5471.1125
1884.70227	5469.7125
1887.83457	5471.8125
1890.96482	5462.3125
1894.09304	5460.6125
1897.21921	5434.8125
1900.34335	5437.2125
1903.46544	5442.9125
1906.58551	5427.2125
1909.70353	5403.5125
1912.81953	5384.7125
1915.93349	5359.0125
1919.04543	5346.6125
1922.15534	5334.8125
1925.26322	5315.5125
1928.36908	5284.4125
1931.47292	5267.0125
1934.57473	5250.0125
1937.67453	5227.1125
1940.77232	5214.3125
1943.86808	5184.5125
1946.96184	5161.5125
1950.05358	5154.1125
1953.14331	5130.5125
1956.23103	5110.1125
1959.31675	5112.8125
1962.40046	5068.8125
1965.48217	5075.0125
1968.56188	5042.1125
1971.63959	5016.3125
1974.7153	5006.7125
1977.78901	4974.6125
1980.86073	4957.9125
1983.93046	4948.8125
1986.99819	4915.6125
1990.06394	4899.7125
1993.1277	4876.9125
1996.18947	4841.0125
1999.24925	4857.7125
2002.30706	4837.0125
2005.36288	4801.3125
2008.41672	4786.9125
2011.46859	4782.4125
2014.51848	4766.1125
2017.56639	4739.8125
2020.61233	4727.4125
2023.6563	4723.7125
2026.6983	4708.0125
2029.73833	4690.6125
2032.7764	4680.1125
2035.8125	4660.6125
2038.84664	4642.9125
2041.87881	4631.2125
2044.90903	4631.3125
2047.93729	4623.3125
2050.96359	4630.9125
2053.98794	4609.9125
2057.01034	4610.8125
2060.03078	4591.1125
2063.04927	4601.5125
2066.06582	4579.0125
2069.08042	4582.9125
2072.09307	4579.0125
2075.10378	4574.9125
2078.11255	4574.2125
2081.11938	4577.2125
2084.12426	4565.1125
2087.12722	4569.9125
2090.12824	4575.7125
2093.12732	4566.9125
2096.12447	4572.8125
2099.11969	4573.8125
2102.11299	4554.1125
2105.10435	4561.1125
2108.09379	4543.0125
2111.08131	4550.3125
2114.0669	4533.4125
2117.05057	4558.7125
2120.03233	4560.0125
2123.01216	4545.3125
2125.99008	4554.0125
2128.96609	4533.5125
2131.94018	4537.5125
2134.91236	4523.0125
2137.88263	4541.1125
2140.851	4503.4125
2143.81746	4512.4125
2146.78201	4516.9125
2149.74466	4502.5125
2152.7054	4495.2125
2155.66425	4501.1125
2158.6212	4495.3125
2161.57625	4491.7125
2164.52941	4496.7125
2167.48067	4478.8125
2170.43004	4475.3125
2173.37752	4470.9125
2176.32311	4466.1125
2179.26681	4479.7125
2182.20863	4467.0125
2185.14856	4464.1125
2188.08661	4457.1125
2191.02278	4464.1125
2193.95707	4464.2125
2196.88948	4443.3125
2199.82001	4422.8125
2202.74867	4418.8125
2205.67545	4407.1125
2208.60037	4393.2125
2211.52341	4386.7125
2214.44458	4370.7125
2217.36388	4353.5125
2220.28132	4359.2125
2223.1969	4335.2125
2226.11061	4349.1125
2229.02246	4335.3125
2231.93245	4333.4125
2234.84058	4326.5125
2237.74686	4333.0125
2240.65128	4334.8125
2243.55385	4329.7125
2246.45456	4332.6125
2249.35343	4298.9125
2252.25044	4292.1125
2255.14561	4267.4125
2258.03893	4275.1125
2260.93041	4257.0125
2263.82004	4223.7125
2266.70783	4215.3125
2269.59378	4201.1125
2272.4779	4192.0125
2275.36017	4170.3125
2278.24061	4159.6125
2281.11922	4157.1125
2283.996	4138.1125
2286.87094	4126.6125
2289.74405	4131.4125
2292.61534	4117.4125
2295.4848	4116.9125
2298.35243	4106.4125
2301.21824	4096.1125
2304.08223	4084.9125
2306.94439	4096.8125
2309.80474	4073.0125
2312.66327	4068.4125
2315.51999	4064.8125
2318.37489	4048.0125
2321.22797	4048.0125
2324.07925	4051.4125
2326.92871	4040.8125
2329.77637	4041.9125
2332.62222	4040.7125
2335.46626	4003.7125
2338.3085	4007.7125
2341.14893	4010.5125
2343.98756	4001.4125
2346.8244	4011.3125
2349.65943	4001.6125
2352.49267	4001.8125
2355.32411	4001.6125
2358.15376	4010.5125
2360.98161	4007.0125
2363.80768	4018.6125
2366.63195	4010.0125
2369.45444	4001.0125
2372.27514	4003.1125
2375.09405	3976.8125
2377.91118	3966.7125
2380.72652	3966.0125
2383.54009	3965.1125
2386.35187	3951.4125
2389.16188	3913.0125
2391.97011	3926.3125
2394.77657	3899.1125
2397.58125	3892.4125
2400.38416	3897.4125
2403.18529	3890.4125
2405.98466	3879.4125
2408.78226	3879.2125
2411.57809	3879.0125
2414.37216	3863.1125
2417.16446	3845.5125
2419.955	3851.2125
2422.74378	3867.4125
2425.5308	3842.4125
2428.31606	3838.1125
2431.09956	3826.9125
2433.88131	3817.2125
2436.6613	3839.4125
2439.43954	3826.0125
2442.21603	3809.9125
2444.99077	3825.0125
2447.76377	3814.1125
2450.53501	3803.3125
2453.30451	3808.0125
2456.07226	3814.6125
2458.83827	3802.0125
2461.60254	3795.7125
2464.36507	3798.0125
2467.12586	3797.5125
2469.88492	3804.4125
2472.64224	3787.2125
2475.39782	3806.3125
2478.15167	3803.8125
2480.90379	3789.7125
2483.65417	3794.2125
2486.40283	3786.1125
2489.14976	3790.3125
2491.89497	3780.8125
2494.63845	3793.4125
2497.3802	3787.3125
2500.12024	3790.7125
2502.85855	3779.8125
2505.59514	3772.2125
2508.33002	3760.6125
2511.06318	3762.9125
2513.79462	3749.2125
2516.52435	3749.0125
2519.25237	3747.2125
2521.97867	3747.5125
2524.70327	3721.8125
2527.42616	3735.4125
2530.14734	3717.4125
2532.86681	3708.8125
2535.58458	3708.0125
2538.30065	3704.2125
2541.01501	3703.7125
2543.72768	3702.3125
2546.43864	3708.7125
2549.14791	3685.2125
2551.85548	3670.0125
2554.56136	3680.0125
2557.26554	3678.9125
2559.96803	3678.8125
2562.66883	3674.3125
2565.36794	3685.9125
2568.06536	3654.7125
2570.7611	3652.2125
2573.45514	3662.8125
2576.14751	3635.1125
2578.83819	3645.2125
2581.52719	3661.4125
2584.21451	3646.8125
2586.90015	3644.1125
2589.58411	3627.7125
2592.2664	3621.6125
2594.94701	3619.7125
2597.62594	3617.1125
2600.30321	3612.7125
2602.9788	3615.2125
2605.65273	3606.5125
2608.32498	3604.6125
2610.99557	3608.0125
2613.66449	3597.4125
2616.33175	3591.7125
2618.99734	3605.1125
2621.66128	3578.5125
2624.32355	3579.0125
2626.98416	3590.1125
2629.64311	3588.3125
2632.30041	3588.3125
2634.95605	3580.3125
2637.61004	3575.0125
2640.26238	3569.0125
2642.91306	3559.6125
2645.56209	3575.0125
2648.20948	3582.6125
2650.85521	3562.1125
2653.4993	3572.2125
2656.14175	3570.8125
2658.78255	3579.2125
2661.42171	3579.0125
2664.05923	3580.2125
2666.6951	3578.3125
2669.32934	3596.5125
2671.96194	3594.8125
2674.59291	3588.1125
2677.22224	3590.9125
2679.84993	3580.9125
2682.476	3563.9125
2685.10043	3581.8125
2687.72324	3574.2125
2690.34441	3559.8125
2692.96396	3572.4125
2695.58188	3574.3125
2698.19818	3570.1125
2700.81285	3576.7125
2703.4259	3593.4125
2706.03733	3610.4125
2708.64714	3591.0125
2711.25533	3581.7125
2713.86191	3583.9125
2716.46687	3575.5125
2719.07021	3573.3125
2721.67194	3574.3125
2724.27206	3575.8125
2726.87057	3582.9125
2729.46747	3585.0125
2732.06276	3584.4125
2734.65644	3583.2125
2737.24852	3581.5125
2739.83899	3566.1125
2742.42786	3572.0125
2745.01513	3571.3125
2747.60079	3560.9125
2750.18486	3559.1125
2752.76733	3548.7125
2755.3482	3553.2125
2757.92747	3556.2125
2760.50515	3556.0125
2763.08123	3541.4125
2765.65573	3542.5125
2768.22863	3554.1125
2770.79994	3550.1125
2773.36967	3550.8125
2775.9378	3546.5125
2778.50435	3545.3125
2781.06932	3544.6125
2783.6327	3535.0125
2786.1945	3545.3125
2788.75471	3542.6125
2791.31335	3532.2125
2793.87041	3525.2125
2796.42589	3514.9125
2798.97979	3537.2125
2801.53212	3515.7125
2804.08288	3526.1125
2806.63206	3496.8125
2809.17967	3504.1125
2811.72571	3500.8125
2814.27018	3495.4125
2816.81308	3506.2125
2819.35442	3476.8125
2821.89419	3483.9125
2824.43239	3485.8125
2826.96904	3474.6125
2829.50412	3481.1125
2832.03763	3470.8125
2834.56959	3467.9125
2837.1	3466.3125
2839.62884	3461.4125
2842.15613	3480.7125
2844.68186	3490.9125
2847.20604	3511.8125
2849.72867	3501.2125
2852.24974	3517.3125
2854.76927	3508.0125
2857.28724	3492.6125
2859.80367	3483.0125
2862.31855	3485.4125
2864.83189	3482.8125
2867.34368	3468.8125
2869.85393	3471.4125
2872.36264	3463.3125
2874.8698	3445.9125
2877.37543	3461.5125
2879.87952	3461.6125
2882.38207	3451.7125
2884.88308	3446.1125
2887.38256	3449.6125
2889.88051	3449.3125
2892.37692	3446.7125
2894.8718	3455.0125
2897.36515	3440.3125
2899.85698	3457.2125
2902.34727	3477.2125
2904.83604	3465.6125
2907.32328	3481.9125
2909.809	3482.0125
2912.29319	3467.0125
2914.77587	3491.0125
2917.25702	3479.7125
2919.73665	3483.5125
2922.21476	3474.7125
2924.69136	3480.4125
2927.16644	3469.3125
2929.64	3485.0125
2932.11205	3473.1125
2934.58258	3464.6125
2937.05161	3463.0125
2939.51912	3456.4125
2941.98513	3473.9125
2944.44962	3447.6125
2946.91261	3445.9125
2949.37409	3439.1125
2951.83407	3430.3125
2954.29254	3421.0125
2956.74951	3421.7125
2959.20498	3415.4125
2961.65895	3405.2125
2964.11142	3400.2125
2966.56239	3376.9125
2969.01186	3365.2125
2971.45984	3356.0125
2973.90632	3341.9125
2976.35131	3345.0125
2978.7948	3326.7125
2981.23681	3310.8125
2983.67732	3306.1125
2986.11635	3294.2125
2988.55388	3271.3125
2990.98993	3263.3125
2993.4245	3272.6125
2995.85758	3249.8125
2998.28917	3242.1125
3000.71928	3246.4125
3003.14791	3237.6125
3005.57506	3238.8125
3008.00073	3221.9125
3010.42493	3207.1125
3012.84764	3205.4125
3015.26888	3201.5125
3017.68865	3192.0125
3020.10694	3174.8125
3022.52376	3163.6125
3024.9391	3164.1125
3027.35298	3146.0125
3029.76539	3148.6125
3032.17632	3143.8125
3034.5858	3128.1125
3036.9938	3143.0125
3039.40034	3130.5125
3041.80542	3122.3125
3044.20903	3113.2125
3046.61118	3111.7125
3049.01187	3099.4125
3051.4111	3104.2125
3053.80888	3097.1125
3056.20519	3095.3125
3058.60005	3085.1125
3060.99345	3092.5125
3063.3854	3071.6125
3065.7759	3065.7125
3068.16494	3053.2125
3070.55254	3052.6125
3072.93868	3051.8125
3075.32338	3025.9125
3077.70662	3022.3125
3080.08842	3020.0125
3082.46878	3015.3125
3084.84769	3006.0125
3087.22515	3007.6125
3089.60118	3005.3125
3091.97576	2993.1125
3094.3489	2995.3125
3096.72061	2996.8125
3099.09087	2978.9125
3101.4597	2989.6125
3103.82709	3000.5125
3106.19305	2984.5125
3108.55757	2979.9125
3110.92066	2958.6125
3113.28232	2969.0125
3115.64255	2954.7125
3118.00134	2966.0125
3120.35871	2954.0125
3122.71466	2942.9125
3125.06917	2932.7125
3127.42226	2929.3125
3129.77393	2944.6125
3132.12417	2941.5125
3134.47299	2928.3125
3136.82039	2946.3125
3139.16636	2932.3125
3141.51092	2933.9125
3143.85406	2933.4125
3146.19579	2948.8125
3148.53609	2935.3125
3150.87499	2937.3125
3153.21246	2940.4125
3155.54853	2949.1125
3157.88318	2928.3125
3160.21642	2933.2125
3162.54826	2930.9125
3164.87868	2929.4125
3167.2077	2930.6125
3169.5353	2935.9125
3171.86151	2921.9125
3174.18631	2924.9125
3176.5097	2924.0125
3178.83169	2921.4125
3181.15228	2917.1125
3183.47147	2911.7125
3185.78926	2920.5125
3188.10565	2899.1125
3190.42065	2908.3125
3192.73424	2908.9125
3195.04645	2914.5125
3197.35725	2902.6125
3199.66667	2906.0125
3201.97469	2896.9125
3204.28132	2899.0125
3206.58656	2892.1125
3208.8904	2897.6125
3211.19287	2882.1125
3213.49394	2883.4125
3215.79363	2896.6125
3218.09193	2902.9125
3220.38884	2892.4125
3222.68438	2903.6125
3224.97853	2901.7125
3227.2713	2893.5125
3229.56269	2891.7125
3231.8527	2901.0125
3234.14133	2886.6125
3236.42858	2884.8125
3238.71446	2868.8125
3240.99896	2866.2125
3243.28209	2864.9125
3245.56384	2859.8125
3247.84423	2880.5125
3250.12324	2874.9125
3252.40088	2868.1125
3254.67715	2857.2125
3256.95205	2856.4125
3259.22558	2839.7125
3261.49775	2828.5125
3263.76855	2825.9125
3266.03799	2822.6125
3268.30606	2815.6125
3270.57277	2800.3125
3272.83812	2784.5125
3275.10211	2791.9125
3277.36474	2793.1125
3279.62601	2786.0125
3281.88593	2784.9125
3284.14448	2794.2125
3286.40168	2805.3125
3288.65753	2788.4125
3290.91202	2803.5125
3293.16516	2771.8125
3295.41695	2770.7125
3297.66738	2751.3125
3299.91647	2739.2125
3302.16421	2724.7125
3304.4106	2709.9125
3306.65564	2703.5125
3308.89933	2675.6125
3311.14169	2672.6125
3313.38269	2639.0125
3315.62236	2629.1125
3317.86068	2594.3125
3320.09766	2558.5125
3322.3333	2545.6125
3324.5676	2549.5125
3326.80056	2512.1125
3329.03219	2495.3125
3331.26248	0.4125
3333.49143	-0.0875
3335.71905	1.8125
