Data from AgNPs_FTO_APTES_UA_1um_CRN_0.1mM_R6G_10uM_NaF_0.1M_Addition_RamanShift__18__11-55-09-007.txt Node

Date: Tue Dec 21 11:55:09 GMT 2021
User: TCL
Spectrometer: QEP01345
Trigger mode: 4
Integration Time (sec): 7.000000E0
Scans to average: 10
Electric dark correction enabled: true
Nonlinearity correction enabled: false
Boxcar width: 0
XAxis mode: Raman Shifts
Number of Pixels in Spectrum: 1044
>>>>>Begin Spectral Data<<<<<
46.04893	0.3375
50.45542	-1.6625
54.85868	-1.0625
59.25871	0.5375
63.6555	38.9375
68.04907	46.0375
72.43941	46.3375
76.82654	49.0375
81.21044	55.3375
85.59113	57.8375
89.96862	58.5375
94.34289	58.7375
98.71396	59.4375
103.08183	59.8375
107.4465	67.5375
111.80798	66.2375
116.16626	69.1375
120.52136	67.3375
124.87327	70.5375
129.222	72.6375
133.56755	75.1375
137.90993	84.4375
142.24913	89.5375
146.58517	99.2375
150.91804	112.0375
155.24774	131.2375
159.57429	160.7375
163.89768	210.1375
168.21792	274.2375
172.53501	358.9375
176.84895	499.4375
181.15975	700.0375
185.46741	962.7375
189.77193	1343.1375
194.07331	1790.1375
198.37157	2302.7375
202.6667	2863.3375
206.9587	3414.5375
211.24758	3969.6375
215.53334	4535.3375
219.81599	5112.1375
224.09553	5746.7375
228.37195	6455.2375
232.64527	7232.1375
236.91549	8021.0375
241.18261	8822.2375
245.44663	9551.3375
249.70755	10174.4375
253.96539	10675.6375
258.22014	11100.9375
262.4718	11432.1375
266.72039	11675.2375
270.96589	11720.7375
275.20832	11640.0375
279.44768	11512.5375
283.68397	11383.8375
287.91719	11252.3375
292.14735	11187.1375
296.37445	11172.4375
300.59849	11231.5375
304.81948	11259.6375
309.03742	11288.4375
313.25231	11213.7375
317.46415	11034.2375
321.67296	10698.6375
325.87872	10399.3375
330.08145	10221.3375
334.28114	10149.3375
338.47781	10207.9375
342.67145	10330.4375
346.86207	10499.0375
351.04966	10678.3375
355.23424	10891.2375
359.4158	11064.9375
363.59435	11230.9375
367.76989	11263.8375
371.94243	11290.4375
376.11196	11288.1375
380.27849	11334.9375
384.44203	11395.1375
388.60257	11521.2375
392.76012	11616.3375
396.91468	11792.7375
401.06626	12016.1375
405.21485	12141.4375
409.36047	12072.7375
413.50311	11895.6375
417.64277	11721.4375
421.77947	11738.6375
425.9132	11800.8375
430.04396	11911.6375
434.17176	11944.0375
438.2966	12018.6375
442.41849	12300.0375
446.53742	12790.5375
450.6534	13262.6375
454.76644	13610.8375
458.87653	13566.3375
462.98368	13366.4375
467.08789	13103.8375
471.18916	12787.5375
475.2875	12578.4375
479.38291	12498.9375
483.4754	12392.8375
487.56496	12271.1375
491.6516	12101.2375
495.73531	11891.7375
499.81612	11843.9375
503.89401	11858.5375
507.96899	11868.3375
512.04106	11760.8375
516.11023	11602.9375
520.1765	11396.3375
524.23987	11337.2375
528.30034	11275.3375
532.35792	11239.6375
536.41261	11073.0375
540.46441	10852.9375
544.51333	10715.6375
548.55936	10825.9375
552.60252	11078.9375
556.64279	11478.0375
560.6802	11738.5375
564.71473	11899.1375
568.7464	12130.0375
572.7752	12588.5375
576.80114	12961.8375
580.82422	13316.1375
584.84444	13784.1375
588.86181	14310.0375
592.87633	14979.2375
596.888	15292.4375
600.89682	14965.6375
604.9028	14804.5375
608.90594	15584.7375
612.90624	16617.2375
616.90371	15292.7375
620.89834	12351.5375
624.89015	11006.0375
628.87913	10874.2375
632.86528	11047.5375
636.84862	11141.0375
640.82913	11002.4375
644.80683	10679.9375
648.78172	10368.5375
652.75379	10248.0375
656.72306	10354.4375
660.68952	10520.0375
664.65319	10447.0375
668.61405	10307.2375
672.57211	10298.4375
676.52738	10418.1375
680.47986	10449.7375
684.42955	10352.3375
688.37646	10184.6375
692.32058	10078.3375
696.26192	10126.8375
700.20048	10242.5375
704.13626	10325.2375
708.06928	10338.5375
711.99952	10300.2375
715.927	10239.1375
719.85171	10219.0375
723.77365	10249.4375
727.69284	10099.2375
731.60928	10014.2375
735.52295	9960.7375
739.43388	9966.8375
743.34206	10028.9375
747.24749	10085.3375
751.15017	10180.2375
755.05012	10395.1375
758.94733	10773.4375
762.8418	11491.5375
766.73354	12600.2375
770.62254	13695.5375
774.50882	13923.6375
778.39237	13113.5375
782.27321	11913.1375
786.15132	10902.4375
790.02671	10236.9375
793.89938	9898.8375
797.76935	9755.7375
801.6366	9734.0375
805.50115	9712.5375
809.36299	9638.9375
813.22213	9504.0375
817.07857	9389.9375
820.93231	9333.0375
824.78336	9258.8375
828.63172	9240.7375
832.47738	9203.9375
836.32036	9208.0375
840.16066	9187.1375
843.99827	9167.6375
847.8332	9125.8375
851.66546	9087.0375
855.49504	9069.1375
859.32195	9116.1375
863.1462	9108.2375
866.96777	9066.2375
870.78668	9065.9375
874.60293	9042.3375
878.41652	9051.3375
882.22745	9067.4375
886.03573	9118.1375
889.84136	9139.9375
893.64433	9094.6375
897.44466	9050.5375
901.24235	8989.0375
905.0374	8914.0375
908.8298	8839.2375
912.61957	8819.0375
916.40671	8851.7375
920.19121	9017.8375
923.97308	9201.2375
927.75233	9335.1375
931.52895	9256.1375
935.30295	9091.1375
939.07433	8831.9375
942.84309	8589.6375
946.60924	8469.2375
950.37278	8418.5375
954.13371	8416.1375
957.89203	8398.0375
961.64774	8381.2375
965.40086	8362.6375
969.15137	8321.7375
972.89929	8261.8375
976.64461	8213.8375
980.38733	8161.1375
984.12747	8173.7375
987.86502	8181.5375
991.59999	8286.9375
995.33237	8431.6375
999.06217	8708.2375
1002.78939	9046.8375
1006.51404	9369.1375
1010.23611	9585.1375
1013.95561	9724.6375
1017.67255	9803.4375
1021.38692	9597.1375
1025.09872	9307.2375
1028.80796	9102.8375
1032.51465	9109.1375
1036.21877	9205.6375
1039.92035	9281.3375
1043.61937	9270.6375
1047.31584	9190.7375
1051.00976	9130.1375
1054.70114	9122.3375
1058.38998	9114.1375
1062.07627	9138.2375
1065.76003	9182.4375
1069.44126	9316.3375
1073.11995	9527.8375
1076.79611	9707.8375
1080.46974	9777.6375
1084.14085	9850.8375
1087.80943	10011.0375
1091.47549	10139.9375
1095.13903	10172.9375
1098.80005	9999.3375
1102.45857	9641.7375
1106.11456	9362.2375
1109.76805	9233.6375
1113.41903	9263.1375
1117.06751	9375.2375
1120.71348	9533.5375
1124.35696	9740.2375
1127.99793	9924.4375
1131.63641	10087.2375
1135.2724	10056.1375
1138.90589	9972.9375
1142.5369	9951.4375
1146.16542	9961.3375
1149.79145	9990.8375
1153.415	10089.8375
1157.03607	10281.1375
1160.65467	10651.5375
1164.27079	11303.6375
1167.88443	12140.0375
1171.49561	13283.1375
1175.10432	14741.6375
1178.71056	16531.9375
1182.31434	18138.9375
1185.91565	18866.2375
1189.51451	18608.9375
1193.11091	17729.6375
1196.70485	16685.9375
1200.29634	15554.2375
1203.88538	14569.6375
1207.47197	13852.2375
1211.05612	13376.8375
1214.63782	13044.3375
1218.21708	12894.2375
1221.79391	12928.9375
1225.36829	13065.8375
1228.94024	13014.2375
1232.50976	12680.6375
1236.07685	12273.7375
1239.6415	11964.8375
1243.20374	11796.9375
1246.76355	11785.7375
1250.32093	11898.3375
1253.8759	12177.3375
1257.42845	12609.3375
1260.97859	13099.0375
1264.52631	13597.0375
1268.07163	14125.5375
1271.61453	14640.6375
1275.15503	15186.6375
1278.69312	15737.0375
1282.22882	16329.5375
1285.76211	17026.3375
1289.29301	17812.3375
1292.82151	18742.8375
1296.34761	19811.2375
1299.87133	21081.2375
1303.39266	22568.2375
1306.9116	24215.8375
1310.42815	25941.7375
1313.94233	27366.3375
1317.45412	27778.0375
1320.96354	27344.3375
1324.47058	26568.2375
1327.97525	25752.9375
1331.47754	25028.4375
1334.97747	24408.3375
1338.47502	23910.0375
1341.97022	23313.1375
1345.46305	22652.0375
1348.95352	22231.5375
1352.44163	22252.8375
1355.92738	22950.6375
1359.41078	24296.8375
1362.89183	25574.7375
1366.37053	25769.6375
1369.84688	24039.2375
1373.32088	21114.1375
1376.79254	18697.1375
1380.26186	17588.1375
1383.72883	17207.9375
1387.19347	16975.5375
1390.65578	16691.7375
1394.11575	16761.7375
1397.57339	17251.6375
1401.0287	18003.5375
1404.48168	18656.5375
1407.93234	18873.6375
1411.38068	18680.1375
1414.82669	17985.4375
1418.27039	17059.2375
1421.71177	16054.9375
1425.15083	15147.7375
1428.58758	14630.9375
1432.02203	14595.8375
1435.45416	14955.6375
1438.88399	15494.9375
1442.31151	15924.1375
1445.73673	16370.5375
1449.15965	16743.0375
1452.58027	16953.5375
1455.9986	16934.7375
1459.41463	16982.5375
1462.82837	17317.6375
1466.23982	17916.4375
1469.64898	18407.4375
1473.05586	18658.8375
1476.46045	18680.4375
1479.86276	18596.1375
1483.26279	18441.9375
1486.66054	18319.1375
1490.05602	18374.0375
1493.44922	18540.5375
1496.84016	18612.9375
1500.22882	18734.0375
1503.61521	19139.5375
1506.99934	19751.3375
1510.38121	20282.7375
1513.76081	20344.3375
1517.13816	19674.8375
1520.51324	18565.2375
1523.88607	17614.2375
1527.25665	17012.0375
1530.62498	16766.0375
1533.99105	16689.8375
1537.35488	16532.1375
1540.71647	16309.8375
1544.07581	15920.7375
1547.4329	15425.1375
1550.78776	14955.0375
1554.14038	14634.2375
1557.49077	14435.8375
1560.83892	14376.0375
1564.18484	14434.2375
1567.52853	14525.8375
1570.86999	14700.9375
1574.20922	14937.7375
1577.54624	15097.4375
1580.88103	15038.4375
1584.2136	14983.2375
1587.54395	15323.3375
1590.87208	16256.1375
1594.19801	17705.3375
1597.52172	19289.7375
1600.84321	20181.2375
1604.16251	19583.2375
1607.47959	17849.6375
1610.79447	15699.8375
1614.10715	13759.4375
1617.41763	12252.0375
1620.7259	11232.5375
1624.03199	10687.2375
1627.33587	10605.4375
1630.63757	10963.0375
1633.93707	11877.2375
1637.23439	13513.8375
1640.52951	16064.2375
1643.82246	19330.6375
1647.11321	22257.3375
1650.40179	23253.4375
1653.68819	21637.9375
1656.97241	18246.6375
1660.25446	14706.3375
1663.53433	12051.3375
1666.81203	10353.7375
1670.08756	9338.5375
1673.36092	8721.6375
1676.63211	8321.5375
1679.90115	8049.9375
1683.16801	7846.9375
1686.43272	7693.1375
1689.69527	7588.9375
1692.95567	7496.1375
1696.2139	7452.3375
1699.46999	7413.4375
1702.72392	7341.7375
1705.97571	7297.5375
1709.22535	7264.8375
1712.47284	7212.9375
1715.71819	7173.8375
1718.96139	7157.1375
1722.20246	7115.9375
1725.44139	7056.0375
1728.67818	7016.6375
1731.91284	6978.6375
1735.14537	6911.7375
1738.37576	6876.7375
1741.60403	6865.3375
1744.83017	6862.9375
1748.05418	6860.2375
1751.27607	6889.1375
1754.49584	6901.2375
1757.71349	6897.9375
1760.92903	6854.7375
1764.14244	6806.9375
1767.35375	6796.0375
1770.56294	6724.9375
1773.77002	6683.7375
1776.97499	6608.3375
1780.17785	6579.9375
1783.37861	6554.1375
1786.57727	6528.6375
1789.77382	6480.0375
1792.96828	6461.9375
1796.16064	6431.7375
1799.3509	6399.3375
1802.53907	6390.1375
1805.72514	6356.3375
1808.90913	6336.7375
1812.09102	6317.7375
1815.27083	6286.7375
1818.44856	6285.1375
1821.6242	6247.0375
1824.79776	6256.3375
1827.96924	6245.3375
1831.13864	6238.8375
1834.30597	6238.7375
1837.47122	6238.3375
1840.6344	6226.5375
1843.7955	6248.8375
1846.95454	6238.7375
1850.11151	6203.8375
1853.26642	6215.6375
1856.41926	6217.2375
1859.57004	6199.2375
1862.71876	6197.7375
1865.86542	6204.6375
1869.01003	6208.1375
1872.15258	6184.9375
1875.29308	6196.3375
1878.43152	6195.0375
1881.56792	6181.6375
1884.70227	6187.5375
1887.83457	6173.6375
1890.96482	6178.9375
1894.09304	6164.0375
1897.21921	6165.8375
1900.34335	6140.0375
1903.46544	6138.6375
1906.58551	6120.5375
1909.70353	6110.8375
1912.81953	6094.7375
1915.93349	6081.2375
1919.04543	6044.1375
1922.15534	6023.6375
1925.26322	6028.0375
1928.36908	5979.4375
1931.47292	5954.2375
1934.57473	5928.2375
1937.67453	5928.6375
1940.77232	5898.0375
1943.86808	5873.5375
1946.96184	5862.4375
1950.05358	5823.5375
1953.14331	5810.6375
1956.23103	5795.3375
1959.31675	5765.8375
1962.40046	5746.2375
1965.48217	5735.2375
1968.56188	5705.6375
1971.63959	5690.0375
1974.7153	5662.6375
1977.78901	5639.8375
1980.86073	5621.7375
1983.93046	5600.5375
1986.99819	5584.9375
1990.06394	5571.0375
1993.1277	5561.0375
1996.18947	5520.0375
1999.24925	5511.6375
2002.30706	5494.0375
2005.36288	5468.7375
2008.41672	5451.2375
2011.46859	5429.6375
2014.51848	5421.9375
2017.56639	5401.4375
2020.61233	5377.7375
2023.6563	5368.5375
2026.6983	5373.0375
2029.73833	5355.7375
2032.7764	5338.9375
2035.8125	5318.0375
2038.84664	5318.1375
2041.87881	5306.2375
2044.90903	5298.9375
2047.93729	5303.1375
2050.96359	5302.0375
2053.98794	5271.8375
2057.01034	5267.6375
2060.03078	5267.9375
2063.04927	5253.8375
2066.06582	5225.6375
2069.08042	5232.0375
2072.09307	5252.8375
2075.10378	5234.6375
2078.11255	5241.7375
2081.11938	5234.0375
2084.12426	5217.7375
2087.12722	5221.1375
2090.12824	5197.7375
2093.12732	5195.7375
2096.12447	5199.4375
2099.11969	5194.5375
2102.11299	5206.5375
2105.10435	5203.1375
2108.09379	5206.0375
2111.08131	5189.0375
2114.0669	5197.0375
2117.05057	5195.0375
2120.03233	5187.5375
2123.01216	5192.5375
2125.99008	5176.2375
2128.96609	5199.3375
2131.94018	5193.1375
2134.91236	5197.1375
2137.88263	5180.9375
2140.851	5170.8375
2143.81746	5183.9375
2146.78201	5183.5375
2149.74466	5176.8375
2152.7054	5176.8375
2155.66425	5165.6375
2158.6212	5153.6375
2161.57625	5159.1375
2164.52941	5163.2375
2167.48067	5136.1375
2170.43004	5135.5375
2173.37752	5140.9375
2176.32311	5142.3375
2179.26681	5148.2375
2182.20863	5135.2375
2185.14856	5148.3375
2188.08661	5135.0375
2191.02278	5134.4375
2193.95707	5128.9375
2196.88948	5121.5375
2199.82001	5125.4375
2202.74867	5102.6375
2205.67545	5101.2375
2208.60037	5096.7375
2211.52341	5089.3375
2214.44458	5081.5375
2217.36388	5062.9375
2220.28132	5041.5375
2223.1969	5036.3375
2226.11061	5039.2375
2229.02246	5012.6375
2231.93245	5000.1375
2234.84058	5016.8375
2237.74686	5014.5375
2240.65128	4980.4375
2243.55385	4988.3375
2246.45456	4990.3375
2249.35343	4958.7375
2252.25044	4945.7375
2255.14561	4935.9375
2258.03893	4945.8375
2260.93041	4925.6375
2263.82004	4908.8375
2266.70783	4889.9375
2269.59378	4864.3375
2272.4779	4855.2375
2275.36017	4850.1375
2278.24061	4847.0375
2281.11922	4820.3375
2283.996	4811.2375
2286.87094	4812.6375
2289.74405	4790.6375
2292.61534	4794.3375
2295.4848	4785.7375
2298.35243	4771.5375
2301.21824	4779.2375
2304.08223	4758.9375
2306.94439	4769.2375
2309.80474	4761.1375
2312.66327	4749.9375
2315.51999	4755.1375
2318.37489	4762.0375
2321.22797	4740.5375
2324.07925	4745.7375
2326.92871	4743.0375
2329.77637	4734.3375
2332.62222	4735.0375
2335.46626	4740.3375
2338.3085	4730.9375
2341.14893	4738.1375
2343.98756	4725.8375
2346.8244	4727.4375
2349.65943	4710.1375
2352.49267	4713.9375
2355.32411	4729.5375
2358.15376	4728.1375
2360.98161	4723.0375
2363.80768	4727.8375
2366.63195	4738.8375
2369.45444	4709.0375
2372.27514	4694.6375
2375.09405	4688.5375
2377.91118	4688.8375
2380.72652	4661.5375
2383.54009	4664.1375
2386.35187	4625.4375
2389.16188	4628.8375
2391.97011	4627.8375
2394.77657	4615.9375
2397.58125	4592.7375
2400.38416	4596.3375
2403.18529	4579.9375
2405.98466	4586.5375
2408.78226	4567.4375
2411.57809	4557.8375
2414.37216	4559.1375
2417.16446	4555.0375
2419.955	4538.9375
2422.74378	4537.3375
2425.5308	4511.5375
2428.31606	4526.3375
2431.09956	4526.5375
2433.88131	4520.4375
2436.6613	4525.7375
2439.43954	4511.3375
2442.21603	4503.6375
2444.99077	4502.1375
2447.76377	4526.5375
2450.53501	4522.1375
2453.30451	4514.8375
2456.07226	4506.9375
2458.83827	4511.6375
2461.60254	4522.6375
2464.36507	4506.8375
2467.12586	4522.4375
2469.88492	4496.2375
2472.64224	4520.1375
2475.39782	4517.6375
2478.15167	4523.4375
2480.90379	4526.2375
2483.65417	4524.7375
2486.40283	4517.0375
2489.14976	4519.8375
2491.89497	4518.1375
2494.63845	4531.6375
2497.3802	4554.5375
2500.12024	4527.3375
2502.85855	4528.6375
2505.59514	4505.9375
2508.33002	4505.5375
2511.06318	4501.2375
2513.79462	4502.8375
2516.52435	4488.4375
2519.25237	4482.1375
2521.97867	4464.3375
2524.70327	4473.7375
2527.42616	4470.8375
2530.14734	4458.2375
2532.86681	4441.2375
2535.58458	4454.3375
2538.30065	4427.1375
2541.01501	4422.9375
2543.72768	4428.2375
2546.43864	4421.4375
2549.14791	4419.6375
2551.85548	4419.1375
2554.56136	4409.8375
2557.26554	4408.5375
2559.96803	4425.9375
2562.66883	4409.7375
2565.36794	4405.1375
2568.06536	4405.9375
2570.7611	4407.6375
2573.45514	4406.0375
2576.14751	4403.1375
2578.83819	4402.5375
2581.52719	4398.2375
2584.21451	4387.9375
2586.90015	4395.5375
2589.58411	4404.4375
2592.2664	4387.2375
2594.94701	4378.5375
2597.62594	4373.7375
2600.30321	4375.2375
2602.9788	4356.3375
2605.65273	4359.4375
2608.32498	4366.5375
2610.99557	4390.3375
2613.66449	4374.2375
2616.33175	4365.5375
2618.99734	4377.1375
2621.66128	4380.7375
2624.32355	4382.6375
2626.98416	4372.6375
2629.64311	4358.7375
2632.30041	4375.8375
2634.95605	4373.6375
2637.61004	4352.7375
2640.26238	4369.4375
2642.91306	4361.7375
2645.56209	4353.4375
2648.20948	4364.3375
2650.85521	4351.3375
2653.4993	4358.4375
2656.14175	4358.6375
2658.78255	4362.0375
2661.42171	4366.1375
2664.05923	4366.9375
2666.6951	4377.4375
2669.32934	4380.9375
2671.96194	4385.0375
2674.59291	4378.8375
2677.22224	4386.5375
2679.84993	4394.7375
2682.476	4374.7375
2685.10043	4364.3375
2687.72324	4358.8375
2690.34441	4351.6375
2692.96396	4341.5375
2695.58188	4359.7375
2698.19818	4351.6375
2700.81285	4360.2375
2703.4259	4377.1375
2706.03733	4409.4375
2708.64714	4391.8375
2711.25533	4373.8375
2713.86191	4363.5375
2716.46687	4372.0375
2719.07021	4370.9375
2721.67194	4380.1375
2724.27206	4370.5375
2726.87057	4388.8375
2729.46747	4383.5375
2732.06276	4386.1375
2734.65644	4383.5375
2737.24852	4371.7375
2739.83899	4381.3375
2742.42786	4384.3375
2745.01513	4362.6375
2747.60079	4383.1375
2750.18486	4371.0375
2752.76733	4377.5375
2755.3482	4371.0375
2757.92747	4379.5375
2760.50515	4374.7375
2763.08123	4373.1375
2765.65573	4361.6375
2768.22863	4386.3375
2770.79994	4359.0375
2773.36967	4381.2375
2775.9378	4373.4375
2778.50435	4377.2375
2781.06932	4382.1375
2783.6327	4383.8375
2786.1945	4376.2375
2788.75471	4391.0375
2791.31335	4374.7375
2793.87041	4380.3375
2796.42589	4356.9375
2798.97979	4364.4375
2801.53212	4356.0375
2804.08288	4364.5375
2806.63206	4343.0375
2809.17967	4348.3375
2811.72571	4339.1375
2814.27018	4338.5375
2816.81308	4320.4375
2819.35442	4334.4375
2821.89419	4329.4375
2824.43239	4325.6375
2826.96904	4330.3375
2829.50412	4327.4375
2832.03763	4324.8375
2834.56959	4316.1375
2837.1	4315.6375
2839.62884	4324.3375
2842.15613	4309.9375
2844.68186	4326.3375
2847.20604	4315.3375
2849.72867	4334.2375
2852.24974	4426.4375
2854.76927	4489.5375
2857.28724	4376.5375
2859.80367	4323.4375
2862.31855	4298.9375
2864.83189	4299.8375
2867.34368	4297.2375
2869.85393	4308.0375
2872.36264	4293.5375
2874.8698	4301.4375
2877.37543	4308.9375
2879.87952	4317.3375
2882.38207	4293.8375
2884.88308	4301.5375
2887.38256	4322.5375
2889.88051	4329.9375
2892.37692	4319.8375
2894.8718	4312.7375
2897.36515	4333.2375
2899.85698	4358.6375
2902.34727	4364.1375
2904.83604	4358.9375
2907.32328	4378.0375
2909.809	4391.9375
2912.29319	4412.3375
2914.77587	4398.9375
2917.25702	4420.1375
2919.73665	4422.2375
2922.21476	4410.9375
2924.69136	4427.0375
2927.16644	4421.7375
2929.64	4426.8375
2932.11205	4412.9375
2934.58258	4396.6375
2937.05161	4418.4375
2939.51912	4426.1375
2941.98513	4411.3375
2944.44962	4402.1375
2946.91261	4396.8375
2949.37409	4396.8375
2951.83407	4391.6375
2954.29254	4374.3375
2956.74951	4365.2375
2959.20498	4358.7375
2961.65895	4349.5375
2964.11142	4329.8375
2966.56239	4304.2375
2969.01186	4285.2375
2971.45984	4264.6375
2973.90632	4251.5375
2976.35131	4225.3375
2978.7948	4205.0375
2981.23681	4206.1375
2983.67732	4189.7375
2986.11635	4163.6375
2988.55388	4140.9375
2990.98993	4131.1375
2993.4245	4128.5375
2995.85758	4118.1375
2998.28917	4104.1375
3000.71928	4106.2375
3003.14791	4097.9375
3005.57506	4097.7375
3008.00073	4074.7375
3010.42493	4098.3375
3012.84764	4077.6375
3015.26888	4085.4375
3017.68865	4067.3375
3020.10694	4026.1375
3022.52376	4020.2375
3024.9391	4019.0375
3027.35298	4008.2375
3029.76539	4003.8375
3032.17632	3995.5375
3034.5858	3971.9375
3036.9938	3975.8375
3039.40034	3980.9375
3041.80542	3974.2375
3044.20903	3964.7375
3046.61118	3956.6375
3049.01187	3940.6375
3051.4111	3947.8375
3053.80888	3922.8375
3056.20519	3926.7375
3058.60005	3916.9375
3060.99345	3910.8375
3063.3854	3892.0375
3065.7759	3887.0375
3068.16494	3879.3375
3070.55254	3871.0375
3072.93868	3858.9375
3075.32338	3855.7375
3077.70662	3844.7375
3080.08842	3825.5375
3082.46878	3820.8375
3084.84769	3818.7375
3087.22515	3812.2375
3089.60118	3820.4375
3091.97576	3826.5375
3094.3489	3839.9375
3096.72061	3826.6375
3099.09087	3832.6375
3101.4597	3822.1375
3103.82709	3835.1375
3106.19305	3801.5375
3108.55757	3813.4375
3110.92066	3803.4375
3113.28232	3779.6375
3115.64255	3771.1375
3118.00134	3773.4375
3120.35871	3769.1375
3122.71466	3760.9375
3125.06917	3773.4375
3127.42226	3752.7375
3129.77393	3769.3375
3132.12417	3760.3375
3134.47299	3756.2375
3136.82039	3757.2375
3139.16636	3762.8375
3141.51092	3766.5375
3143.85406	3767.5375
3146.19579	3756.2375
3148.53609	3753.7375
3150.87499	3753.0375
3153.21246	3763.9375
3155.54853	3769.1375
3157.88318	3771.6375
3160.21642	3768.3375
3162.54826	3757.7375
3164.87868	3760.9375
3167.2077	3771.9375
3169.5353	3773.6375
3171.86151	3765.3375
3174.18631	3774.9375
3176.5097	3762.2375
3178.83169	3776.9375
3181.15228	3770.9375
3183.47147	3763.6375
3185.78926	3767.7375
3188.10565	3766.4375
3190.42065	3782.9375
3192.73424	3776.8375
3195.04645	3777.9375
3197.35725	3778.2375
3199.66667	3778.9375
3201.97469	3784.6375
3204.28132	3772.4375
3206.58656	3797.5375
3208.8904	3778.4375
3211.19287	3781.9375
3213.49394	3783.2375
3215.79363	3789.8375
3218.09193	3785.5375
3220.38884	3789.3375
3222.68438	3802.5375
3224.97853	3787.2375
3227.2713	3798.0375
3229.56269	3786.6375
3231.8527	3794.8375
3234.14133	3783.0375
3236.42858	3755.9375
3238.71446	3775.2375
3240.99896	3771.5375
3243.28209	3773.5375
3245.56384	3761.4375
3247.84423	3769.6375
3250.12324	3766.5375
3252.40088	3763.5375
3254.67715	3754.9375
3256.95205	3745.4375
3259.22558	3741.8375
3261.49775	3724.2375
3263.76855	3726.0375
3266.03799	3696.7375
3268.30606	3703.0375
3270.57277	3692.6375
3272.83812	3676.5375
3275.10211	3679.7375
3277.36474	3687.9375
3279.62601	3677.7375
3281.88593	3678.0375
3284.14448	3700.7375
3286.40168	3686.1375
3288.65753	3681.9375
3290.91202	3691.3375
3293.16516	3668.9375
3295.41695	3688.3375
3297.66738	3651.7375
3299.91647	3637.5375
3302.16421	3624.6375
3304.4106	3598.9375
3306.65564	3586.8375
3308.89933	3554.8375
3311.14169	3538.2375
3313.38269	3506.0375
3315.62236	3491.2375
3317.86068	3469.9375
3320.09766	3439.5375
3322.3333	3399.8375
3324.5676	3411.6375
3326.80056	3351.9375
3329.03219	3328.3375
3331.26248	1.2375
3333.49143	-0.3625
3335.71905	0.0375
