Data from AgNPs_FTO_APTES_UA_20um_CRN_0.1mM_R6G_10uM_NaF_0.1M_Addition_RamanShift__13__14-31-29-186.txt Node

Date: Tue Dec 21 14:31:29 GMT 2021
User: TCL
Spectrometer: QEP01345
Trigger mode: 4
Integration Time (sec): 7.000000E0
Scans to average: 10
Electric dark correction enabled: true
Nonlinearity correction enabled: false
Boxcar width: 0
XAxis mode: Raman Shifts
Number of Pixels in Spectrum: 1044
>>>>>Begin Spectral Data<<<<<
46.04893	0.625
50.45542	-0.675
54.85868	-0.875
59.25871	0.525
63.6555	34.925
68.04907	46.025
72.43941	46.225
76.82654	46.525
81.21044	51.825
85.59113	52.325
89.96862	57.025
94.34289	54.925
98.71396	57.525
103.08183	59.125
107.4465	66.225
111.80798	66.825
116.16626	66.225
120.52136	64.625
124.87327	67.625
129.222	68.925
133.56755	74.425
137.90993	82.925
142.24913	83.225
146.58517	94.625
150.91804	103.425
155.24774	122.425
159.57429	147.125
163.89768	187.425
168.21792	244.825
172.53501	322.125
176.84895	453.525
181.15975	633.925
185.46741	886.125
189.77193	1219.425
194.07331	1636.225
198.37157	2123.625
202.6667	2629.725
206.9587	3168.925
211.24758	3669.025
215.53334	4194.125
219.81599	4720.125
224.09553	5304.925
228.37195	5967.725
232.64527	6663.825
236.91549	7425.025
241.18261	8178.425
245.44663	8862.025
249.70755	9483.225
253.96539	10031.425
258.22014	10446.525
262.4718	10776.925
266.72039	11011.425
270.96589	11113.925
275.20832	11137.425
279.44768	11020.325
283.68397	10903.225
287.91719	10789.325
292.14735	10707.425
296.37445	10699.825
300.59849	10704.325
304.81948	10730.225
309.03742	10743.425
313.25231	10644.825
317.46415	10456.125
321.67296	10140.325
325.87872	9897.025
330.08145	9732.725
334.28114	9745.125
338.47781	9806.125
342.67145	9912.925
346.86207	10056.525
351.04966	10236.925
355.23424	10403.025
359.4158	10551.925
363.59435	10643.125
367.76989	10746.625
371.94243	10793.325
376.11196	10845.625
380.27849	10861.825
384.44203	10919.025
388.60257	10973.525
392.76012	11052.525
396.91468	11210.825
401.06626	11389.025
405.21485	11520.925
409.36047	11518.625
413.50311	11314.925
417.64277	11129.025
421.77947	11041.925
425.9132	11019.125
430.04396	11050.825
434.17176	11081.525
438.2966	11159.625
442.41849	11279.625
446.53742	11398.125
450.6534	11584.925
454.76644	11728.925
458.87653	11795.225
462.98368	11828.525
467.08789	11816.025
471.18916	11765.325
475.2875	11668.425
479.38291	11602.925
483.4754	11550.825
487.56496	11496.525
491.6516	11422.525
495.73531	11336.825
499.81612	11314.325
503.89401	11327.325
507.96899	11372.025
512.04106	11371.125
516.11023	11357.925
520.1765	11309.625
524.23987	11240.425
528.30034	11152.725
532.35792	11078.425
536.41261	10986.725
540.46441	10891.925
544.51333	10888.125
548.55936	10983.925
552.60252	11156.725
556.64279	11343.825
560.6802	11443.525
564.71473	11472.425
568.7464	11594.725
572.7752	11843.025
576.80114	12038.725
580.82422	12234.425
584.84444	12406.125
588.86181	12447.525
592.87633	12402.225
596.888	12331.225
600.89682	12338.225
604.9028	12633.225
608.90594	13579.125
612.90624	14728.125
616.90371	14195.125
620.89834	12186.425
624.89015	11207.025
628.87913	11032.325
632.86528	11150.225
636.84862	11279.225
640.82913	11199.025
644.80683	10966.325
648.78172	10791.225
652.75379	10723.225
656.72306	10840.925
660.68952	11021.125
664.65319	11034.625
668.61405	10917.425
672.57211	10917.125
676.52738	10973.725
680.47986	10990.825
684.42955	10978.225
688.37646	10944.425
692.32058	10917.625
696.26192	10936.625
700.20048	11004.925
704.13626	11046.825
708.06928	11078.425
711.99952	10999.925
715.927	10953.425
719.85171	10888.825
723.77365	10838.625
727.69284	10751.525
731.60928	10649.325
735.52295	10607.225
739.43388	10574.925
743.34206	10594.725
747.24749	10638.325
751.15017	10702.725
755.05012	10799.825
758.94733	11047.125
762.8418	11541.925
766.73354	12311.325
770.62254	13136.825
774.50882	13431.525
778.39237	12964.325
782.27321	12162.725
786.15132	11380.125
790.02671	10900.825
793.89938	10648.425
797.76935	10540.025
801.6366	10455.625
805.50115	10413.725
809.36299	10340.825
813.22213	10296.725
817.07857	10277.725
820.93231	10276.325
824.78336	10241.125
828.63172	10244.025
832.47738	10211.325
836.32036	10189.625
840.16066	10154.825
843.99827	10134.425
847.8332	10119.225
851.66546	10090.625
855.49504	10096.225
859.32195	10091.825
863.1462	10082.125
866.96777	10080.825
870.78668	10068.525
874.60293	10073.625
878.41652	10082.625
882.22745	10086.425
886.03573	10124.325
889.84136	10138.925
893.64433	10115.325
897.44466	10108.725
901.24235	10066.625
905.0374	10036.125
908.8298	10036.425
912.61957	10009.625
916.40671	10076.325
920.19121	10172.225
923.97308	10229.625
927.75233	10187.725
931.52895	10162.025
935.30295	10054.525
939.07433	9904.325
942.84309	9780.125
946.60924	9684.025
950.37278	9631.425
954.13371	9592.625
957.89203	9584.425
961.64774	9574.225
965.40086	9561.925
969.15137	9532.825
972.89929	9496.125
976.64461	9440.125
980.38733	9437.825
984.12747	9418.925
987.86502	9466.125
991.59999	9480.925
995.33237	9491.025
999.06217	9554.725
1002.78939	9656.125
1006.51404	9724.325
1010.23611	9848.325
1013.95561	9925.525
1017.67255	9952.525
1021.38692	9907.825
1025.09872	9838.725
1028.80796	9764.925
1032.51465	9714.425
1036.21877	9725.125
1039.92035	9766.225
1043.61937	9801.225
1047.31584	9878.225
1051.00976	9906.625
1054.70114	9988.725
1058.38998	9999.225
1062.07627	10092.725
1065.76003	10186.225
1069.44126	10266.825
1073.11995	10399.625
1076.79611	10481.825
1080.46974	10542.225
1084.14085	10575.925
1087.80943	10604.025
1091.47549	10693.725
1095.13903	10744.625
1098.80005	10678.425
1102.45857	10493.525
1106.11456	10302.825
1109.76805	10186.925
1113.41903	10125.725
1117.06751	10173.925
1120.71348	10274.525
1124.35696	10390.625
1127.99793	10546.425
1131.63641	10624.925
1135.2724	10579.725
1138.90589	10447.025
1142.5369	10389.525
1146.16542	10370.725
1149.79145	10383.325
1153.415	10404.625
1157.03607	10504.725
1160.65467	10632.725
1164.27079	10871.625
1167.88443	11218.625
1171.49561	11650.125
1175.10432	12312.225
1178.71056	13091.325
1182.31434	13856.525
1185.91565	14263.525
1189.51451	14352.525
1193.11091	14186.125
1196.70485	13774.925
1200.29634	13308.725
1203.88538	12854.525
1207.47197	12456.325
1211.05612	12098.625
1214.63782	11845.825
1218.21708	11624.525
1221.79391	11386.825
1225.36829	11235.125
1228.94024	11141.325
1232.50976	11120.825
1236.07685	11082.925
1239.6415	11096.125
1243.20374	11126.625
1246.76355	11136.525
1250.32093	11235.325
1253.8759	11367.125
1257.42845	11568.525
1260.97859	11808.825
1264.52631	12043.525
1268.07163	12271.225
1271.61453	12498.725
1275.15503	12706.325
1278.69312	12889.525
1282.22882	13092.625
1285.76211	13309.025
1289.29301	13574.125
1292.82151	13934.225
1296.34761	14317.525
1299.87133	14762.025
1303.39266	15276.425
1306.9116	15882.125
1310.42815	16497.025
1313.94233	16876.825
1317.45412	16797.325
1320.96354	16608.925
1324.47058	16409.825
1327.97525	16221.225
1331.47754	16102.925
1334.97747	16113.325
1338.47502	16185.425
1341.97022	16362.625
1345.46305	16572.825
1348.95352	16794.925
1352.44163	16960.525
1355.92738	17185.825
1359.41078	17589.825
1362.89183	18081.825
1366.37053	17902.525
1369.84688	16718.125
1373.32088	15225.025
1376.79254	14079.825
1380.26186	13466.125
1383.72883	13186.725
1387.19347	13012.325
1390.65578	12795.425
1394.11575	12627.425
1397.57339	12483.325
1401.0287	12414.425
1404.48168	12358.425
1407.93234	12268.325
1411.38068	12168.025
1414.82669	11960.025
1418.27039	11690.825
1421.71177	11419.425
1425.15083	11157.925
1428.58758	10992.325
1432.02203	10934.925
1435.45416	11001.825
1438.88399	11123.525
1442.31151	11180.425
1445.73673	11311.025
1449.15965	11442.725
1452.58027	11560.025
1455.9986	11668.525
1459.41463	11764.925
1462.82837	11921.025
1466.23982	12098.725
1469.64898	12283.325
1473.05586	12464.525
1476.46045	12542.025
1479.86276	12621.125
1483.26279	12649.825
1486.66054	12810.725
1490.05602	13015.425
1493.44922	13300.025
1496.84016	13788.725
1500.22882	14476.425
1503.61521	15370.925
1506.99934	16232.325
1510.38121	16841.125
1513.76081	16925.625
1517.13816	16363.625
1520.51324	15481.925
1523.88607	14710.925
1527.25665	14166.725
1530.62498	13799.825
1533.99105	13519.025
1537.35488	13298.325
1540.71647	13000.225
1544.07581	12744.725
1547.4329	12472.525
1550.78776	12254.825
1554.14038	12132.025
1557.49077	12120.925
1560.83892	12193.525
1564.18484	12344.525
1567.52853	12507.225
1570.86999	12642.025
1574.20922	12781.525
1577.54624	12818.025
1580.88103	12668.625
1584.2136	12360.925
1587.54395	12169.325
1590.87208	12225.025
1594.19801	12459.225
1597.52172	12871.725
1600.84321	13046.825
1604.16251	12814.525
1607.47959	12345.225
1610.79447	11804.525
1614.10715	11203.825
1617.41763	10675.425
1620.7259	10251.625
1624.03199	9950.725
1627.33587	9854.725
1630.63757	9871.325
1633.93707	10132.825
1637.23439	10604.425
1640.52951	11364.825
1643.82246	12421.125
1647.11321	13555.425
1650.40179	14333.325
1653.68819	14298.625
1656.97241	13336.625
1660.25446	11999.125
1663.53433	10793.125
1666.81203	9901.425
1670.08756	9283.625
1673.36092	8893.925
1676.63211	8647.925
1679.90115	8453.625
1683.16801	8324.225
1686.43272	8233.525
1689.69527	8146.425
1692.95567	8093.825
1696.2139	8066.825
1699.46999	8047.625
1702.72392	8017.525
1705.97571	7960.425
1709.22535	7949.025
1712.47284	7938.925
1715.71819	7936.425
1718.96139	7865.325
1722.20246	7846.225
1725.44139	7793.425
1728.67818	7776.625
1731.91284	7726.425
1735.14537	7672.125
1738.37576	7635.225
1741.60403	7607.425
1744.83017	7598.925
1748.05418	7580.625
1751.27607	7592.825
1754.49584	7562.725
1757.71349	7577.125
1760.92903	7592.925
1764.14244	7576.025
1767.35375	7553.125
1770.56294	7520.725
1773.77002	7463.125
1776.97499	7444.225
1780.17785	7400.325
1783.37861	7360.825
1786.57727	7334.525
1789.77382	7317.325
1792.96828	7270.825
1796.16064	7269.725
1799.3509	7214.925
1802.53907	7215.825
1805.72514	7185.325
1808.90913	7136.925
1812.09102	7142.225
1815.27083	7097.025
1818.44856	7100.325
1821.6242	7101.925
1824.79776	7066.825
1827.96924	7054.325
1831.13864	7034.325
1834.30597	7027.525
1837.47122	7024.425
1840.6344	7018.925
1843.7955	7014.325
1846.95454	6996.025
1850.11151	6989.025
1853.26642	6963.125
1856.41926	6972.225
1859.57004	6958.325
1862.71876	6940.525
1865.86542	6940.925
1869.01003	6920.725
1872.15258	6923.925
1875.29308	6895.525
1878.43152	6878.325
1881.56792	6874.225
1884.70227	6864.525
1887.83457	6840.425
1890.96482	6843.425
1894.09304	6822.925
1897.21921	6797.325
1900.34335	6789.725
1903.46544	6785.225
1906.58551	6789.425
1909.70353	6768.025
1912.81953	6739.325
1915.93349	6726.625
1919.04543	6725.725
1922.15534	6696.725
1925.26322	6693.125
1928.36908	6654.925
1931.47292	6638.725
1934.57473	6626.725
1937.67453	6623.925
1940.77232	6584.725
1943.86808	6570.325
1946.96184	6538.625
1950.05358	6512.425
1953.14331	6507.625
1956.23103	6498.925
1959.31675	6474.225
1962.40046	6452.125
1965.48217	6426.425
1968.56188	6398.125
1971.63959	6381.725
1974.7153	6349.325
1977.78901	6361.425
1980.86073	6320.225
1983.93046	6302.925
1986.99819	6276.025
1990.06394	6250.525
1993.1277	6245.025
1996.18947	6205.625
1999.24925	6179.225
2002.30706	6161.725
2005.36288	6134.825
2008.41672	6119.025
2011.46859	6078.825
2014.51848	6065.425
2017.56639	6046.325
2020.61233	6047.725
2023.6563	6026.425
2026.6983	6011.325
2029.73833	5974.825
2032.7764	5963.225
2035.8125	5956.125
2038.84664	5942.325
2041.87881	5907.225
2044.90903	5897.925
2047.93729	5896.425
2050.96359	5876.625
2053.98794	5867.125
2057.01034	5862.625
2060.03078	5872.825
2063.04927	5843.225
2066.06582	5821.225
2069.08042	5821.025
2072.09307	5837.325
2075.10378	5799.325
2078.11255	5803.325
2081.11938	5801.525
2084.12426	5809.625
2087.12722	5784.725
2090.12824	5798.425
2093.12732	5800.125
2096.12447	5788.525
2099.11969	5771.025
2102.11299	5773.125
2105.10435	5796.025
2108.09379	5779.125
2111.08131	5771.725
2114.0669	5793.025
2117.05057	5784.825
2120.03233	5794.325
2123.01216	5791.025
2125.99008	5802.925
2128.96609	5795.725
2131.94018	5777.025
2134.91236	5774.225
2137.88263	5778.825
2140.851	5778.925
2143.81746	5773.225
2146.78201	5791.525
2149.74466	5774.125
2152.7054	5759.225
2155.66425	5764.125
2158.6212	5767.325
2161.57625	5763.225
2164.52941	5764.325
2167.48067	5751.425
2170.43004	5726.425
2173.37752	5722.825
2176.32311	5731.725
2179.26681	5710.625
2182.20863	5719.725
2185.14856	5729.325
2188.08661	5707.525
2191.02278	5708.925
2193.95707	5696.725
2196.88948	5696.525
2199.82001	5674.425
2202.74867	5673.425
2205.67545	5673.725
2208.60037	5665.625
2211.52341	5658.925
2214.44458	5642.725
2217.36388	5617.625
2220.28132	5604.025
2223.1969	5582.925
2226.11061	5586.125
2229.02246	5573.125
2231.93245	5568.125
2234.84058	5538.425
2237.74686	5527.225
2240.65128	5510.625
2243.55385	5508.925
2246.45456	5503.025
2249.35343	5490.125
2252.25044	5491.525
2255.14561	5474.925
2258.03893	5450.525
2260.93041	5461.125
2263.82004	5433.525
2266.70783	5423.225
2269.59378	5399.225
2272.4779	5398.225
2275.36017	5378.225
2278.24061	5376.525
2281.11922	5354.225
2283.996	5359.925
2286.87094	5348.225
2289.74405	5322.225
2292.61534	5306.425
2295.4848	5287.625
2298.35243	5290.525
2301.21824	5297.125
2304.08223	5282.425
2306.94439	5260.525
2309.80474	5266.825
2312.66327	5247.525
2315.51999	5255.425
2318.37489	5246.225
2321.22797	5232.525
2324.07925	5230.925
2326.92871	5202.125
2329.77637	5204.125
2332.62222	5196.625
2335.46626	5204.825
2338.3085	5167.025
2341.14893	5168.925
2343.98756	5174.425
2346.8244	5148.625
2349.65943	5154.425
2352.49267	5141.125
2355.32411	5147.025
2358.15376	5136.025
2360.98161	5141.725
2363.80768	5143.525
2366.63195	5142.025
2369.45444	5126.325
2372.27514	5130.225
2375.09405	5110.325
2377.91118	5105.225
2380.72652	5082.225
2383.54009	5075.225
2386.35187	5051.025
2389.16188	5030.225
2391.97011	5040.225
2394.77657	5021.325
2397.58125	5006.825
2400.38416	4990.525
2403.18529	4977.625
2405.98466	4960.325
2408.78226	4954.525
2411.57809	4940.925
2414.37216	4938.625
2417.16446	4952.325
2419.955	4921.325
2422.74378	4926.825
2425.5308	4923.525
2428.31606	4917.725
2431.09956	4914.925
2433.88131	4906.025
2436.6613	4900.325
2439.43954	4897.925
2442.21603	4892.025
2444.99077	4858.625
2447.76377	4888.325
2450.53501	4881.525
2453.30451	4876.825
2456.07226	4858.325
2458.83827	4864.925
2461.60254	4848.825
2464.36507	4850.025
2467.12586	4833.625
2469.88492	4824.725
2472.64224	4823.525
2475.39782	4827.225
2478.15167	4818.625
2480.90379	4808.025
2483.65417	4809.525
2486.40283	4813.025
2489.14976	4808.625
2491.89497	4794.225
2494.63845	4807.325
2497.3802	4787.125
2500.12024	4788.625
2502.85855	4784.225
2505.59514	4769.525
2508.33002	4776.925
2511.06318	4756.725
2513.79462	4753.825
2516.52435	4733.625
2519.25237	4729.925
2521.97867	4704.925
2524.70327	4718.825
2527.42616	4709.825
2530.14734	4700.825
2532.86681	4697.425
2535.58458	4685.025
2538.30065	4648.025
2541.01501	4660.525
2543.72768	4652.925
2546.43864	4650.125
2549.14791	4627.225
2551.85548	4629.025
2554.56136	4615.825
2557.26554	4604.025
2559.96803	4599.325
2562.66883	4587.725
2565.36794	4580.525
2568.06536	4565.125
2570.7611	4567.525
2573.45514	4555.825
2576.14751	4561.425
2578.83819	4546.025
2581.52719	4518.725
2584.21451	4520.825
2586.90015	4516.725
2589.58411	4504.925
2592.2664	4492.725
2594.94701	4483.925
2597.62594	4470.725
2600.30321	4450.725
2602.9788	4452.425
2605.65273	4458.625
2608.32498	4452.825
2610.99557	4443.425
2613.66449	4442.725
2616.33175	4421.325
2618.99734	4428.325
2621.66128	4415.925
2624.32355	4399.925
2626.98416	4407.225
2629.64311	4385.025
2632.30041	4391.425
2634.95605	4372.225
2637.61004	4363.325
2640.26238	4370.125
2642.91306	4357.125
2645.56209	4369.825
2648.20948	4351.325
2650.85521	4362.125
2653.4993	4329.325
2656.14175	4348.925
2658.78255	4340.225
2661.42171	4343.025
2664.05923	4349.025
2666.6951	4344.025
2669.32934	4344.425
2671.96194	4329.825
2674.59291	4327.925
2677.22224	4334.825
2679.84993	4333.425
2682.476	4331.725
2685.10043	4335.925
2687.72324	4328.625
2690.34441	4327.125
2692.96396	4324.125
2695.58188	4319.325
2698.19818	4310.025
2700.81285	4319.725
2703.4259	4341.225
2706.03733	4378.025
2708.64714	4329.325
2711.25533	4325.025
2713.86191	4320.125
2716.46687	4312.925
2719.07021	4308.625
2721.67194	4305.725
2724.27206	4305.925
2726.87057	4302.625
2729.46747	4304.025
2732.06276	4298.725
2734.65644	4286.325
2737.24852	4298.325
2739.83899	4271.225
2742.42786	4279.025
2745.01513	4266.825
2747.60079	4256.225
2750.18486	4261.025
2752.76733	4262.725
2755.3482	4240.525
2757.92747	4246.125
2760.50515	4229.125
2763.08123	4214.525
2765.65573	4237.725
2768.22863	4221.225
2770.79994	4202.625
2773.36967	4223.525
2775.9378	4210.825
2778.50435	4189.825
2781.06932	4187.625
2783.6327	4181.125
2786.1945	4173.325
2788.75471	4178.725
2791.31335	4179.425
2793.87041	4142.525
2796.42589	4134.525
2798.97979	4116.325
2801.53212	4130.625
2804.08288	4121.925
2806.63206	4121.925
2809.17967	4096.725
2811.72571	4086.125
2814.27018	4086.025
2816.81308	4076.525
2819.35442	4071.025
2821.89419	4078.425
2824.43239	4062.425
2826.96904	4060.625
2829.50412	4068.425
2832.03763	4044.725
2834.56959	4051.425
2837.1	4054.425
2839.62884	4055.525
2842.15613	4047.325
2844.68186	4074.825
2847.20604	4065.725
2849.72867	4052.725
2852.24974	4080.025
2854.76927	4041.825
2857.28724	4062.325
2859.80367	4059.025
2862.31855	4031.325
2864.83189	4031.425
2867.34368	4026.825
2869.85393	4025.825
2872.36264	4012.025
2874.8698	4005.925
2877.37543	4010.925
2879.87952	4022.425
2882.38207	4006.325
2884.88308	4017.925
2887.38256	3997.625
2889.88051	4015.225
2892.37692	4010.225
2894.8718	4007.325
2897.36515	4007.025
2899.85698	3997.225
2902.34727	4018.325
2904.83604	4004.825
2907.32328	4006.525
2909.809	4008.225
2912.29319	4017.425
2914.77587	4005.925
2917.25702	4009.725
2919.73665	3997.625
2922.21476	4015.325
2924.69136	4022.725
2927.16644	4008.825
2929.64	4004.325
2932.11205	4004.325
2934.58258	3986.325
2937.05161	3993.625
2939.51912	4009.225
2941.98513	3987.425
2944.44962	3989.725
2946.91261	3957.425
2949.37409	3967.525
2951.83407	3961.925
2954.29254	3986.525
2956.74951	3956.325
2959.20498	3948.025
2961.65895	3938.125
2964.11142	3930.425
2966.56239	3909.725
2969.01186	3889.125
2971.45984	3899.025
2973.90632	3885.925
2976.35131	3884.325
2978.7948	3863.325
2981.23681	3870.825
2983.67732	3846.225
2986.11635	3830.125
2988.55388	3820.425
2990.98993	3820.825
2993.4245	3811.125
2995.85758	3779.125
2998.28917	3793.925
3000.71928	3792.925
3003.14791	3773.625
3005.57506	3764.725
3008.00073	3749.125
3010.42493	3763.625
3012.84764	3753.625
3015.26888	3745.325
3017.68865	3749.725
3020.10694	3732.225
3022.52376	3716.425
3024.9391	3725.825
3027.35298	3707.025
3029.76539	3690.825
3032.17632	3695.925
3034.5858	3673.825
3036.9938	3675.925
3039.40034	3672.425
3041.80542	3669.225
3044.20903	3643.825
3046.61118	3654.725
3049.01187	3657.825
3051.4111	3651.925
3053.80888	3636.825
3056.20519	3630.125
3058.60005	3622.625
3060.99345	3632.225
3063.3854	3632.125
3065.7759	3627.725
3068.16494	3610.925
3070.55254	3586.725
3072.93868	3594.725
3075.32338	3592.925
3077.70662	3572.425
3080.08842	3576.025
3082.46878	3573.825
3084.84769	3554.825
3087.22515	3559.925
3089.60118	3565.225
3091.97576	3565.225
3094.3489	3580.125
3096.72061	3568.525
3099.09087	3562.025
3101.4597	3558.425
3103.82709	3569.225
3106.19305	3554.725
3108.55757	3551.025
3110.92066	3554.825
3113.28232	3542.125
3115.64255	3534.625
3118.00134	3539.825
3120.35871	3531.925
3122.71466	3518.825
3125.06917	3522.725
3127.42226	3516.325
3129.77393	3507.325
3132.12417	3510.925
3134.47299	3521.725
3136.82039	3502.625
3139.16636	3513.725
3141.51092	3517.925
3143.85406	3526.425
3146.19579	3528.325
3148.53609	3519.825
3150.87499	3532.625
3153.21246	3544.625
3155.54853	3543.325
3157.88318	3548.325
3160.21642	3547.725
3162.54826	3545.825
3164.87868	3543.825
3167.2077	3559.125
3169.5353	3550.225
3171.86151	3549.625
3174.18631	3542.025
3176.5097	3538.325
3178.83169	3553.225
3181.15228	3540.425
3183.47147	3532.325
3185.78926	3527.225
3188.10565	3533.325
3190.42065	3526.525
3192.73424	3536.825
3195.04645	3543.925
3197.35725	3524.325
3199.66667	3533.925
3201.97469	3535.425
3204.28132	3553.225
3206.58656	3542.325
3208.8904	3539.925
3211.19287	3531.725
3213.49394	3560.225
3215.79363	3556.625
3218.09193	3560.325
3220.38884	3552.625
3222.68438	3571.825
3224.97853	3546.625
3227.2713	3548.625
3229.56269	3539.325
3231.8527	3532.225
3234.14133	3515.825
3236.42858	3512.225
3238.71446	3533.925
3240.99896	3501.925
3243.28209	3522.925
3245.56384	3509.225
3247.84423	3499.025
3250.12324	3506.925
3252.40088	3507.925
3254.67715	3495.125
3256.95205	3495.325
3259.22558	3490.825
3261.49775	3484.425
3263.76855	3484.725
3266.03799	3465.125
3268.30606	3463.225
3270.57277	3446.425
3272.83812	3449.225
3275.10211	3443.025
3277.36474	3440.925
3279.62601	3434.025
3281.88593	3437.025
3284.14448	3444.325
3286.40168	3434.625
3288.65753	3433.225
3290.91202	3429.525
3293.16516	3414.225
3295.41695	3406.825
3297.66738	3388.725
3299.91647	3382.825
3302.16421	3363.125
3304.4106	3361.525
3306.65564	3312.925
3308.89933	3297.625
3311.14169	3289.525
3313.38269	3275.525
3315.62236	3258.425
3317.86068	3218.125
3320.09766	3194.725
3322.3333	3168.925
3324.5676	3176.425
3326.80056	3131.625
3329.03219	3109.725
3331.26248	0.425
3333.49143	-0.275
3335.71905	0.325
