Data from AgNPs_FTO_APTES_UA_1um_CRN_0.1mM_R6G_10uM_NaF_0.1M_Addition_RamanShift__30__12-09-09-023.txt Node

Date: Tue Dec 21 12:09:09 GMT 2021
User: TCL
Spectrometer: QEP01345
Trigger mode: 4
Integration Time (sec): 7.000000E0
Scans to average: 10
Electric dark correction enabled: true
Nonlinearity correction enabled: false
Boxcar width: 0
XAxis mode: Raman Shifts
Number of Pixels in Spectrum: 1044
>>>>>Begin Spectral Data<<<<<
46.04893	-0.1125
50.45542	-0.4125
54.85868	-1.7125
59.25871	0.6875
63.6555	30.1875
68.04907	35.2875
72.43941	40.4875
76.82654	39.6875
81.21044	42.4875
85.59113	45.5875
89.96862	46.4875
94.34289	49.7875
98.71396	51.5875
103.08183	54.0875
107.4465	54.5875
111.80798	56.2875
116.16626	60.1875
120.52136	55.2875
124.87327	58.3875
129.222	57.0875
133.56755	57.9875
137.90993	64.6875
142.24913	66.2875
146.58517	72.8875
150.91804	81.7875
155.24774	94.6875
159.57429	109.6875
163.89768	140.5875
168.21792	182.3875
172.53501	233.4875
176.84895	316.7875
181.15975	433.2875
185.46741	605.6875
189.77193	836.8875
194.07331	1114.3875
198.37157	1436.6875
202.6667	1777.7875
206.9587	2117.2875
211.24758	2452.0875
215.53334	2827.9875
219.81599	3219.3875
224.09553	3674.1875
228.37195	4172.5875
232.64527	4714.0875
236.91549	5245.9875
241.18261	5741.2875
245.44663	6170.0875
249.70755	6522.0875
253.96539	6792.0875
258.22014	6951.6875
262.4718	7047.2875
266.72039	7081.3875
270.96589	7055.2875
275.20832	6997.8875
279.44768	6862.7875
283.68397	6777.7875
287.91719	6714.8875
292.14735	6782.6875
296.37445	6934.5875
300.59849	7263.3875
304.81948	7629.1875
309.03742	7974.9875
313.25231	8013.7875
317.46415	7609.2875
321.67296	6897.4875
325.87872	6281.4875
330.08145	6000.4875
334.28114	5980.2875
338.47781	6115.0875
342.67145	6315.4875
346.86207	6647.2875
351.04966	7164.8875
355.23424	7763.2875
359.4158	8190.8875
363.59435	8320.0875
367.76989	8307.5875
371.94243	8172.7875
376.11196	8036.0875
380.27849	7890.3875
384.44203	7743.5875
388.60257	7593.7875
392.76012	7509.9875
396.91468	7634.0875
401.06626	7914.9875
405.21485	8144.7875
409.36047	7964.7875
413.50311	7482.0875
417.64277	6959.7875
421.77947	6693.5875
425.9132	6562.3875
430.04396	6543.9875
434.17176	6573.9875
438.2966	6694.7875
442.41849	6907.9875
446.53742	7202.8875
450.6534	7462.3875
454.76644	7580.2875
458.87653	7521.1875
462.98368	7396.2875
467.08789	7216.4875
471.18916	7017.6875
475.2875	6786.0875
479.38291	6622.4875
483.4754	6467.8875
487.56496	6354.7875
491.6516	6283.0875
495.73531	6247.5875
499.81612	6288.2875
503.89401	6365.3875
507.96899	6453.8875
512.04106	6572.6875
516.11023	6675.6875
520.1765	6737.0875
524.23987	6715.9875
528.30034	6595.9875
532.35792	6427.0875
536.41261	6217.1875
540.46441	5974.3875
544.51333	5807.1875
548.55936	5816.3875
552.60252	5974.3875
556.64279	6177.8875
560.6802	6339.7875
564.71473	6571.2875
568.7464	7037.4875
572.7752	7375.7875
576.80114	7185.8875
580.82422	6907.3875
584.84444	6805.0875
588.86181	6783.3875
592.87633	6815.8875
596.888	6935.9875
600.89682	7206.1875
604.9028	8090.4875
608.90594	10597.4875
612.90624	14052.6875
616.90371	13698.4875
620.89834	9054.5875
624.89015	6648.7875
628.87913	6206.3875
632.86528	6291.8875
636.84862	6395.5875
640.82913	6269.3875
644.80683	5879.4875
648.78172	5607.1875
652.75379	5642.9875
656.72306	5976.3875
660.68952	6411.0875
664.65319	6349.4875
668.61405	5929.8875
672.57211	5695.6875
676.52738	5720.7875
680.47986	5715.9875
684.42955	5620.6875
688.37646	5541.7875
692.32058	5574.3875
696.26192	5637.1875
700.20048	5777.9875
704.13626	5895.2875
708.06928	5897.1875
711.99952	5770.9875
715.927	5676.8875
719.85171	5679.0875
723.77365	5657.4875
727.69284	5546.1875
731.60928	5482.0875
735.52295	5492.0875
739.43388	5503.9875
743.34206	5561.8875
747.24749	5621.1875
751.15017	5724.9875
755.05012	5886.4875
758.94733	6316.4875
762.8418	7237.2875
766.73354	8772.0875
770.62254	10291.9875
774.50882	11091.7875
778.39237	10785.8875
782.27321	9209.8875
786.15132	7411.8875
790.02671	6302.1875
793.89938	5838.3875
797.76935	5632.3875
801.6366	5547.7875
805.50115	5516.8875
809.36299	5470.7875
813.22213	5419.2875
817.07857	5387.7875
820.93231	5367.7875
824.78336	5392.4875
828.63172	5431.9875
832.47738	5451.9875
836.32036	5438.0875
840.16066	5384.6875
843.99827	5313.5875
847.8332	5309.5875
851.66546	5283.6875
855.49504	5310.3875
859.32195	5289.2875
863.1462	5249.7875
866.96777	5193.1875
870.78668	5196.3875
874.60293	5224.2875
878.41652	5219.0875
882.22745	5277.2875
886.03573	5303.6875
889.84136	5289.9875
893.64433	5240.5875
897.44466	5225.3875
901.24235	5241.1875
905.0374	5173.2875
908.8298	5138.8875
912.61957	5113.3875
916.40671	5147.1875
920.19121	5232.4875
923.97308	5321.9875
927.75233	5465.0875
931.52895	5550.7875
935.30295	5427.1875
939.07433	5164.0875
942.84309	4935.8875
946.60924	4798.2875
950.37278	4734.6875
954.13371	4711.6875
957.89203	4684.2875
961.64774	4657.5875
965.40086	4630.0875
969.15137	4611.1875
972.89929	4585.9875
976.64461	4573.3875
980.38733	4564.1875
984.12747	4582.0875
987.86502	4599.6875
991.59999	4617.3875
995.33237	4698.9875
999.06217	4814.7875
1002.78939	5002.5875
1006.51404	5203.2875
1010.23611	5377.3875
1013.95561	5451.0875
1017.67255	5429.2875
1021.38692	5254.4875
1025.09872	5136.9875
1028.80796	5044.9875
1032.51465	5054.4875
1036.21877	5171.6875
1039.92035	5316.6875
1043.61937	5391.8875
1047.31584	5405.9875
1051.00976	5341.8875
1054.70114	5309.7875
1058.38998	5265.6875
1062.07627	5264.0875
1065.76003	5285.1875
1069.44126	5379.5875
1073.11995	5518.3875
1076.79611	5646.1875
1080.46974	5775.2875
1084.14085	5961.4875
1087.80943	6168.7875
1091.47549	6238.8875
1095.13903	6061.1875
1098.80005	5741.2875
1102.45857	5445.7875
1106.11456	5311.6875
1109.76805	5335.3875
1113.41903	5504.0875
1117.06751	5773.3875
1120.71348	6187.2875
1124.35696	6686.0875
1127.99793	7039.1875
1131.63641	6897.1875
1135.2724	6397.5875
1138.90589	5951.8875
1142.5369	5713.3875
1146.16542	5546.4875
1149.79145	5486.7875
1153.415	5460.3875
1157.03607	5548.4875
1160.65467	5708.9875
1164.27079	5971.5875
1167.88443	6393.4875
1171.49561	7154.9875
1175.10432	8387.3875
1178.71056	9974.4875
1182.31434	11064.7875
1185.91565	11225.1875
1189.51451	10826.0875
1193.11091	10140.8875
1196.70485	9282.9875
1200.29634	8597.4875
1203.88538	7943.8875
1207.47197	7221.9875
1211.05612	6645.0875
1214.63782	6349.7875
1218.21708	6250.5875
1221.79391	6274.8875
1225.36829	6355.2875
1228.94024	6375.9875
1232.50976	6378.0875
1236.07685	6328.7875
1239.6415	6334.4875
1243.20374	6335.1875
1246.76355	6353.3875
1250.32093	6428.8875
1253.8759	6592.2875
1257.42845	6871.6875
1260.97859	7176.3875
1264.52631	7508.8875
1268.07163	7819.5875
1271.61453	8064.9875
1275.15503	8237.9875
1278.69312	8354.9875
1282.22882	8453.9875
1285.76211	8730.5875
1289.29301	9121.4875
1292.82151	9546.7875
1296.34761	10005.3875
1299.87133	10675.0875
1303.39266	11740.9875
1306.9116	13362.8875
1310.42815	15149.3875
1313.94233	16078.5875
1317.45412	15587.9875
1320.96354	14274.3875
1324.47058	12897.8875
1327.97525	11774.1875
1331.47754	11041.3875
1334.97747	10782.9875
1338.47502	10821.0875
1341.97022	11090.3875
1345.46305	11598.6875
1348.95352	12296.6875
1352.44163	13338.7875
1355.92738	14973.6875
1359.41078	17313.5875
1362.89183	19158.4875
1366.37053	18425.4875
1369.84688	15764.0875
1373.32088	13138.9875
1376.79254	11207.2875
1380.26186	10023.3875
1383.72883	9266.2875
1387.19347	8773.3875
1390.65578	8355.3875
1394.11575	8124.3875
1397.57339	8095.9875
1401.0287	8224.6875
1404.48168	8345.8875
1407.93234	8400.0875
1411.38068	8400.0875
1414.82669	8279.9875
1418.27039	8066.2875
1421.71177	7772.1875
1425.15083	7546.4875
1428.58758	7454.6875
1432.02203	7501.7875
1435.45416	7596.7875
1438.88399	7577.7875
1442.31151	7581.8875
1445.73673	7584.3875
1449.15965	7605.4875
1452.58027	7603.3875
1455.9986	7508.9875
1459.41463	7535.5875
1462.82837	7656.0875
1466.23982	7887.8875
1469.64898	8097.9875
1473.05586	8232.2875
1476.46045	8333.9875
1479.86276	8509.4875
1483.26279	8659.2875
1486.66054	8905.5875
1490.05602	9292.9875
1493.44922	9789.9875
1496.84016	10598.5875
1500.22882	11870.4875
1503.61521	13576.9875
1506.99934	15385.6875
1510.38121	17004.5875
1513.76081	17560.9875
1517.13816	16407.6875
1520.51324	14050.3875
1523.88607	11792.8875
1527.25665	10335.7875
1530.62498	9567.9875
1533.99105	9131.3875
1537.35488	8888.9875
1540.71647	8756.3875
1544.07581	8644.8875
1547.4329	8563.1875
1550.78776	8456.3875
1554.14038	8350.3875
1557.49077	8349.7875
1560.83892	8437.4875
1564.18484	8703.8875
1567.52853	9091.4875
1570.86999	9441.2875
1574.20922	9657.8875
1577.54624	9561.7875
1580.88103	8987.0875
1584.2136	8195.5875
1587.54395	7769.3875
1590.87208	7936.9875
1594.19801	8554.4875
1597.52172	9407.8875
1600.84321	9863.8875
1604.16251	9521.7875
1607.47959	8695.7875
1610.79447	7762.6875
1614.10715	6895.1875
1617.41763	6277.4875
1620.7259	5901.8875
1624.03199	5727.4875
1627.33587	5731.3875
1630.63757	5895.1875
1633.93707	6243.4875
1637.23439	6857.1875
1640.52951	7807.1875
1643.82246	9152.7875
1647.11321	10751.3875
1650.40179	11888.1875
1653.68819	11587.6875
1656.97241	9938.2875
1660.25446	7991.9875
1663.53433	6544.4875
1666.81203	5653.9875
1670.08756	5174.1875
1673.36092	4880.0875
1676.63211	4721.9875
1679.90115	4568.3875
1683.16801	4464.8875
1686.43272	4388.9875
1689.69527	4329.4875
1692.95567	4288.5875
1696.2139	4285.6875
1699.46999	4260.8875
1702.72392	4240.6875
1705.97571	4233.9875
1709.22535	4201.3875
1712.47284	4199.8875
1715.71819	4224.6875
1718.96139	4243.0875
1722.20246	4235.2875
1725.44139	4209.9875
1728.67818	4152.2875
1731.91284	4111.8875
1735.14537	4069.2875
1738.37576	4015.8875
1741.60403	3988.3875
1744.83017	3951.1875
1748.05418	3938.4875
1751.27607	3928.0875
1754.49584	3926.4875
1757.71349	3914.0875
1760.92903	3883.3875
1764.14244	3851.2875
1767.35375	3836.0875
1770.56294	3808.4875
1773.77002	3779.4875
1776.97499	3761.9875
1780.17785	3719.7875
1783.37861	3700.7875
1786.57727	3689.7875
1789.77382	3674.9875
1792.96828	3667.5875
1796.16064	3651.3875
1799.3509	3630.3875
1802.53907	3622.5875
1805.72514	3607.2875
1808.90913	3577.3875
1812.09102	3577.2875
1815.27083	3556.2875
1818.44856	3559.8875
1821.6242	3536.9875
1824.79776	3539.1875
1827.96924	3534.5875
1831.13864	3516.3875
1834.30597	3508.1875
1837.47122	3501.5875
1840.6344	3500.7875
1843.7955	3494.8875
1846.95454	3479.7875
1850.11151	3485.9875
1853.26642	3477.4875
1856.41926	3488.3875
1859.57004	3489.4875
1862.71876	3488.2875
1865.86542	3485.5875
1869.01003	3480.2875
1872.15258	3490.8875
1875.29308	3471.3875
1878.43152	3479.6875
1881.56792	3468.1875
1884.70227	3472.0875
1887.83457	3477.9875
1890.96482	3481.4875
1894.09304	3471.7875
1897.21921	3480.2875
1900.34335	3476.6875
1903.46544	3468.0875
1906.58551	3482.2875
1909.70353	3460.6875
1912.81953	3481.4875
1915.93349	3461.1875
1919.04543	3468.5875
1922.15534	3461.6875
1925.26322	3444.1875
1928.36908	3431.2875
1931.47292	3427.0875
1934.57473	3391.9875
1937.67453	3376.6875
1940.77232	3364.4875
1943.86808	3345.3875
1946.96184	3327.1875
1950.05358	3301.1875
1953.14331	3296.9875
1956.23103	3278.8875
1959.31675	3264.6875
1962.40046	3252.0875
1965.48217	3257.3875
1968.56188	3234.6875
1971.63959	3222.6875
1974.7153	3218.2875
1977.78901	3198.4875
1980.86073	3196.1875
1983.93046	3180.4875
1986.99819	3167.3875
1990.06394	3158.3875
1993.1277	3135.5875
1996.18947	3128.1875
1999.24925	3119.3875
2002.30706	3102.4875
2005.36288	3104.0875
2008.41672	3085.1875
2011.46859	3064.9875
2014.51848	3068.2875
2017.56639	3052.3875
2020.61233	3034.4875
2023.6563	3029.5875
2026.6983	3019.0875
2029.73833	3017.0875
2032.7764	3004.2875
2035.8125	2977.5875
2038.84664	2981.9875
2041.87881	2989.7875
2044.90903	2975.6875
2047.93729	2967.8875
2050.96359	2961.1875
2053.98794	2960.9875
2057.01034	2959.0875
2060.03078	2943.5875
2063.04927	2942.3875
2066.06582	2924.7875
2069.08042	2926.6875
2072.09307	2926.0875
2075.10378	2919.2875
2078.11255	2929.6875
2081.11938	2921.1875
2084.12426	2925.6875
2087.12722	2920.3875
2090.12824	2921.8875
2093.12732	2910.5875
2096.12447	2909.8875
2099.11969	2914.4875
2102.11299	2916.3875
2105.10435	2904.8875
2108.09379	2908.5875
2111.08131	2906.9875
2114.0669	2909.6875
2117.05057	2900.9875
2120.03233	2909.8875
2123.01216	2907.8875
2125.99008	2917.0875
2128.96609	2908.7875
2131.94018	2900.8875
2134.91236	2921.1875
2137.88263	2911.0875
2140.851	2910.4875
2143.81746	2903.3875
2146.78201	2893.2875
2149.74466	2896.3875
2152.7054	2884.2875
2155.66425	2889.3875
2158.6212	2880.6875
2161.57625	2888.7875
2164.52941	2869.7875
2167.48067	2873.5875
2170.43004	2870.6875
2173.37752	2869.0875
2176.32311	2860.3875
2179.26681	2872.6875
2182.20863	2871.1875
2185.14856	2881.0875
2188.08661	2869.6875
2191.02278	2860.9875
2193.95707	2847.8875
2196.88948	2846.1875
2199.82001	2854.8875
2202.74867	2835.3875
2205.67545	2833.6875
2208.60037	2838.9875
2211.52341	2827.1875
2214.44458	2813.5875
2217.36388	2810.7875
2220.28132	2808.6875
2223.1969	2806.1875
2226.11061	2791.1875
2229.02246	2774.0875
2231.93245	2775.9875
2234.84058	2770.1875
2237.74686	2765.8875
2240.65128	2753.8875
2243.55385	2760.7875
2246.45456	2765.5875
2249.35343	2753.0875
2252.25044	2756.5875
2255.14561	2752.6875
2258.03893	2740.9875
2260.93041	2768.4875
2263.82004	2736.6875
2266.70783	2738.8875
2269.59378	2721.8875
2272.4779	2711.2875
2275.36017	2702.9875
2278.24061	2715.8875
2281.11922	2699.5875
2283.996	2679.9875
2286.87094	2691.7875
2289.74405	2667.1875
2292.61534	2663.9875
2295.4848	2662.5875
2298.35243	2655.3875
2301.21824	2651.3875
2304.08223	2642.9875
2306.94439	2640.3875
2309.80474	2639.7875
2312.66327	2644.2875
2315.51999	2639.4875
2318.37489	2624.8875
2321.22797	2635.4875
2324.07925	2623.5875
2326.92871	2622.6875
2329.77637	2618.7875
2332.62222	2601.2875
2335.46626	2621.2875
2338.3085	2599.3875
2341.14893	2613.2875
2343.98756	2612.4875
2346.8244	2615.7875
2349.65943	2610.3875
2352.49267	2600.0875
2355.32411	2612.0875
2358.15376	2629.7875
2360.98161	2635.5875
2363.80768	2634.1875
2366.63195	2637.0875
2369.45444	2633.8875
2372.27514	2634.1875
2375.09405	2648.0875
2377.91118	2620.6875
2380.72652	2627.4875
2383.54009	2610.0875
2386.35187	2588.6875
2389.16188	2570.3875
2391.97011	2558.0875
2394.77657	2558.5875
2397.58125	2535.0875
2400.38416	2544.6875
2403.18529	2534.8875
2405.98466	2533.9875
2408.78226	2516.1875
2411.57809	2522.0875
2414.37216	2511.3875
2417.16446	2504.9875
2419.955	2496.1875
2422.74378	2509.5875
2425.5308	2502.7875
2428.31606	2490.9875
2431.09956	2489.1875
2433.88131	2483.3875
2436.6613	2491.9875
2439.43954	2489.9875
2442.21603	2481.4875
2444.99077	2484.7875
2447.76377	2495.3875
2450.53501	2495.6875
2453.30451	2499.3875
2456.07226	2501.0875
2458.83827	2498.0875
2461.60254	2490.1875
2464.36507	2491.9875
2467.12586	2485.0875
2469.88492	2490.3875
2472.64224	2493.9875
2475.39782	2489.2875
2478.15167	2514.7875
2480.90379	2497.1875
2483.65417	2504.6875
2486.40283	2512.9875
2489.14976	2521.4875
2491.89497	2519.1875
2494.63845	2548.5875
2497.3802	2541.8875
2500.12024	2527.7875
2502.85855	2505.6875
2505.59514	2500.7875
2508.33002	2488.4875
2511.06318	2475.0875
2513.79462	2464.8875
2516.52435	2460.2875
2519.25237	2436.8875
2521.97867	2433.0875
2524.70327	2429.3875
2527.42616	2428.9875
2530.14734	2414.4875
2532.86681	2413.8875
2535.58458	2420.3875
2538.30065	2410.7875
2541.01501	2415.6875
2543.72768	2423.1875
2546.43864	2410.4875
2549.14791	2411.3875
2551.85548	2415.1875
2554.56136	2418.3875
2557.26554	2391.4875
2559.96803	2393.0875
2562.66883	2402.4875
2565.36794	2404.3875
2568.06536	2397.6875
2570.7611	2400.7875
2573.45514	2394.8875
2576.14751	2392.3875
2578.83819	2390.4875
2581.52719	2388.8875
2584.21451	2372.4875
2586.90015	2372.4875
2589.58411	2364.8875
2592.2664	2363.4875
2594.94701	2363.0875
2597.62594	2357.1875
2600.30321	2363.2875
2602.9788	2359.2875
2605.65273	2355.6875
2608.32498	2353.5875
2610.99557	2351.7875
2613.66449	2355.5875
2616.33175	2338.6875
2618.99734	2338.5875
2621.66128	2344.5875
2624.32355	2353.4875
2626.98416	2340.6875
2629.64311	2342.5875
2632.30041	2346.3875
2634.95605	2333.3875
2637.61004	2318.2875
2640.26238	2323.1875
2642.91306	2322.9875
2645.56209	2307.7875
2648.20948	2312.6875
2650.85521	2308.7875
2653.4993	2310.3875
2656.14175	2317.9875
2658.78255	2321.6875
2661.42171	2329.2875
2664.05923	2326.8875
2666.6951	2329.6875
2669.32934	2330.8875
2671.96194	2340.1875
2674.59291	2340.6875
2677.22224	2345.5875
2679.84993	2347.8875
2682.476	2338.6875
2685.10043	2351.0875
2687.72324	2325.5875
2690.34441	2344.5875
2692.96396	2340.4875
2695.58188	2353.5875
2698.19818	2339.5875
2700.81285	2355.8875
2703.4259	2376.6875
2706.03733	2427.9875
2708.64714	2397.3875
2711.25533	2399.4875
2713.86191	2386.9875
2716.46687	2401.8875
2719.07021	2400.4875
2721.67194	2401.1875
2724.27206	2396.7875
2726.87057	2382.8875
2729.46747	2386.2875
2732.06276	2386.2875
2734.65644	2381.3875
2737.24852	2370.7875
2739.83899	2355.1875
2742.42786	2366.5875
2745.01513	2353.7875
2747.60079	2356.8875
2750.18486	2347.7875
2752.76733	2349.8875
2755.3482	2342.0875
2757.92747	2345.1875
2760.50515	2339.0875
2763.08123	2332.9875
2765.65573	2335.8875
2768.22863	2340.5875
2770.79994	2350.5875
2773.36967	2357.5875
2775.9378	2359.5875
2778.50435	2365.2875
2781.06932	2368.3875
2783.6327	2380.2875
2786.1945	2383.0875
2788.75471	2387.9875
2791.31335	2399.0875
2793.87041	2394.7875
2796.42589	2406.2875
2798.97979	2417.7875
2801.53212	2429.1875
2804.08288	2441.4875
2806.63206	2453.1875
2809.17967	2451.1875
2811.72571	2472.7875
2814.27018	2477.8875
2816.81308	2502.3875
2819.35442	2500.2875
2821.89419	2511.8875
2824.43239	2518.1875
2826.96904	2519.1875
2829.50412	2525.5875
2832.03763	2514.5875
2834.56959	2527.2875
2837.1	2538.6875
2839.62884	2556.9875
2842.15613	2597.8875
2844.68186	2660.0875
2847.20604	2715.8875
2849.72867	2765.9875
2852.24974	2791.9875
2854.76927	2789.5875
2857.28724	2778.4875
2859.80367	2770.2875
2862.31855	2751.0875
2864.83189	2730.4875
2867.34368	2714.3875
2869.85393	2708.1875
2872.36264	2698.9875
2874.8698	2688.2875
2877.37543	2686.7875
2879.87952	2690.9875
2882.38207	2681.3875
2884.88308	2678.2875
2887.38256	2688.0875
2889.88051	2680.3875
2892.37692	2691.6875
2894.8718	2683.7875
2897.36515	2682.7875
2899.85698	2698.7875
2902.34727	2708.8875
2904.83604	2697.5875
2907.32328	2702.8875
2909.809	2690.7875
2912.29319	2675.4875
2914.77587	2688.3875
2917.25702	2686.0875
2919.73665	2674.2875
2922.21476	2662.3875
2924.69136	2659.9875
2927.16644	2654.2875
2929.64	2643.5875
2932.11205	2610.8875
2934.58258	2600.6875
2937.05161	2580.7875
2939.51912	2565.5875
2941.98513	2534.6875
2944.44962	2492.2875
2946.91261	2464.0875
2949.37409	2436.8875
2951.83407	2409.5875
2954.29254	2393.1875
2956.74951	2377.7875
2959.20498	2355.8875
2961.65895	2323.6875
2964.11142	2317.8875
2966.56239	2303.7875
2969.01186	2274.3875
2971.45984	2262.2875
2973.90632	2246.0875
2976.35131	2239.2875
2978.7948	2233.0875
2981.23681	2232.1875
2983.67732	2212.7875
2986.11635	2202.1875
2988.55388	2192.2875
2990.98993	2177.7875
2993.4245	2176.4875
2995.85758	2166.2875
2998.28917	2143.6875
3000.71928	2146.3875
3003.14791	2144.6875
3005.57506	2150.0875
3008.00073	2133.3875
3010.42493	2135.9875
3012.84764	2123.7875
3015.26888	2135.2875
3017.68865	2116.7875
3020.10694	2116.6875
3022.52376	2106.2875
3024.9391	2105.5875
3027.35298	2109.6875
3029.76539	2091.4875
3032.17632	2103.8875
3034.5858	2081.9875
3036.9938	2079.4875
3039.40034	2083.2875
3041.80542	2079.3875
3044.20903	2069.7875
3046.61118	2073.1875
3049.01187	2066.6875
3051.4111	2064.0875
3053.80888	2070.3875
3056.20519	2054.3875
3058.60005	2051.8875
3060.99345	2052.0875
3063.3854	2042.9875
3065.7759	2038.8875
3068.16494	2031.5875
3070.55254	2032.0875
3072.93868	2024.3875
3075.32338	2010.9875
3077.70662	2016.2875
3080.08842	2001.3875
3082.46878	2005.6875
3084.84769	1989.9875
3087.22515	1984.1875
3089.60118	1983.9875
3091.97576	1982.5875
3094.3489	1981.4875
3096.72061	1993.5875
3099.09087	1982.7875
3101.4597	1979.6875
3103.82709	1974.8875
3106.19305	1977.1875
3108.55757	1969.5875
3110.92066	1963.2875
3113.28232	1972.1875
3115.64255	1955.6875
3118.00134	1961.1875
3120.35871	1958.4875
3122.71466	1958.8875
3125.06917	1957.8875
3127.42226	1972.3875
3129.77393	1975.1875
3132.12417	1963.7875
3134.47299	1978.0875
3136.82039	1978.0875
3139.16636	1975.6875
3141.51092	1981.2875
3143.85406	1984.4875
3146.19579	1987.1875
3148.53609	1989.2875
3150.87499	2000.8875
3153.21246	1996.0875
3155.54853	2002.1875
3157.88318	2000.4875
3160.21642	2014.8875
3162.54826	2015.1875
3164.87868	2010.9875
3167.2077	2012.4875
3169.5353	2014.1875
3171.86151	2014.9875
3174.18631	2021.9875
3176.5097	2021.9875
3178.83169	2025.7875
3181.15228	2031.4875
3183.47147	2028.1875
3185.78926	2029.6875
3188.10565	2027.1875
3190.42065	2035.4875
3192.73424	2038.6875
3195.04645	2034.7875
3197.35725	2048.1875
3199.66667	2039.5875
3201.97469	2046.2875
3204.28132	2057.7875
3206.58656	2057.3875
3208.8904	2057.7875
3211.19287	2065.4875
3213.49394	2065.6875
3215.79363	2062.7875
3218.09193	2064.7875
3220.38884	2082.3875
3222.68438	2092.8875
3224.97853	2076.5875
3227.2713	2067.1875
3229.56269	2072.0875
3231.8527	2078.0875
3234.14133	2062.8875
3236.42858	2059.8875
3238.71446	2068.4875
3240.99896	2050.0875
3243.28209	2063.6875
3245.56384	2058.5875
3247.84423	2055.8875
3250.12324	2062.7875
3252.40088	2050.5875
3254.67715	2056.4875
3256.95205	2049.1875
3259.22558	2044.0875
3261.49775	2036.6875
3263.76855	2032.0875
3266.03799	2044.7875
3268.30606	2031.8875
3270.57277	2020.0875
3272.83812	2022.5875
3275.10211	2021.6875
3277.36474	2008.9875
3279.62601	2019.7875
3281.88593	2024.9875
3284.14448	2025.4875
3286.40168	2022.4875
3288.65753	2011.0875
3290.91202	2014.0875
3293.16516	2013.4875
3295.41695	2010.4875
3297.66738	2000.1875
3299.91647	1991.5875
3302.16421	1982.0875
3304.4106	1970.5875
3306.65564	1965.6875
3308.89933	1942.7875
3311.14169	1948.0875
3313.38269	1931.4875
3315.62236	1915.3875
3317.86068	1897.6875
3320.09766	1875.7875
3322.3333	1873.6875
3324.5676	1868.3875
3326.80056	1847.2875
3329.03219	1833.0875
3331.26248	0.1875
3333.49143	0.4875
3335.71905	0.5875
