Data from AgNPs_FTO_APTES_UA_20um_CRN_0.1mM_R6G_10uM_NaF_0.1M_Addition_RamanShift__23__14-43-09-199.txt Node

Date: Tue Dec 21 14:43:09 GMT 2021
User: TCL
Spectrometer: QEP01345
Trigger mode: 4
Integration Time (sec): 7.000000E0
Scans to average: 10
Electric dark correction enabled: true
Nonlinearity correction enabled: false
Boxcar width: 0
XAxis mode: Raman Shifts
Number of Pixels in Spectrum: 1044
>>>>>Begin Spectral Data<<<<<
46.04893	0.5875
50.45542	-0.9125
54.85868	-0.4125
59.25871	-0.0125
63.6555	47.4875
68.04907	54.6875
72.43941	56.1875
76.82654	55.4875
81.21044	65.5875
85.59113	59.7875
89.96862	68.4875
94.34289	67.9875
98.71396	70.5875
103.08183	74.8875
107.4465	72.4875
111.80798	77.2875
116.16626	77.6875
120.52136	82.2875
124.87327	86.0875
129.222	85.7875
133.56755	92.9875
137.90993	104.9875
142.24913	107.1875
146.58517	118.9875
150.91804	139.1875
155.24774	159.9875
159.57429	197.0875
163.89768	250.4875
168.21792	331.1875
172.53501	447.3875
176.84895	610.7875
181.15975	863.1875
185.46741	1205.3875
189.77193	1661.2875
194.07331	2230.9875
198.37157	2884.6875
202.6667	3568.2875
206.9587	4253.3875
211.24758	4935.1875
215.53334	5608.3875
219.81599	6345.9875
224.09553	7142.5875
228.37195	8056.8875
232.64527	9008.2875
236.91549	10054.9875
241.18261	11108.6875
245.44663	12034.7875
249.70755	12884.1875
253.96539	13602.2875
258.22014	14183.8875
262.4718	14657.1875
266.72039	15006.7875
270.96589	15236.0875
275.20832	15239.9875
279.44768	15147.9875
283.68397	15000.1875
287.91719	14914.4875
292.14735	14844.6875
296.37445	14897.0875
300.59849	15003.8875
304.81948	15103.8875
309.03742	15091.2875
313.25231	14872.0875
317.46415	14445.5875
321.67296	13909.5875
325.87872	13485.3875
330.08145	13267.8875
334.28114	13276.7875
338.47781	13403.6875
342.67145	13602.4875
346.86207	13884.0875
351.04966	14252.3875
355.23424	14613.3875
359.4158	14997.6875
363.59435	15188.6875
367.76989	15371.5875
371.94243	15456.8875
376.11196	15548.6875
380.27849	15609.2875
384.44203	15686.8875
388.60257	15742.9875
392.76012	15866.2875
396.91468	16017.1875
401.06626	16301.5875
405.21485	16442.3875
409.36047	16381.4875
413.50311	16064.1875
417.64277	15709.4875
421.77947	15550.7875
425.9132	15585.1875
430.04396	15642.7875
434.17176	15765.9875
438.2966	15975.3875
442.41849	16248.9875
446.53742	16708.3875
450.6534	17216.2875
454.76644	17615.9875
458.87653	17730.3875
462.98368	17645.8875
467.08789	17435.3875
471.18916	17235.8875
475.2875	17064.2875
479.38291	17042.6875
483.4754	16923.5875
487.56496	16710.4875
491.6516	16431.3875
495.73531	16150.9875
499.81612	15996.5875
503.89401	16054.8875
507.96899	16089.5875
512.04106	16030.2875
516.11023	15988.4875
520.1765	15927.6875
524.23987	15876.2875
528.30034	15779.9875
532.35792	15720.4875
536.41261	15583.2875
540.46441	15382.5875
544.51333	15287.6875
548.55936	15333.0875
552.60252	15572.8875
556.64279	15886.4875
560.6802	16152.1875
564.71473	16291.3875
568.7464	16554.2875
572.7752	16894.0875
576.80114	16960.6875
580.82422	16936.3875
584.84444	16966.9875
588.86181	17189.9875
592.87633	17493.9875
596.888	17757.6875
600.89682	17867.2875
604.9028	18458.9875
608.90594	20387.3875
612.90624	22709.2875
616.90371	21673.0875
620.89834	17712.9875
624.89015	15831.3875
628.87913	15589.3875
632.86528	15736.7875
636.84862	15889.2875
640.82913	15704.2875
644.80683	15257.4875
648.78172	14830.0875
652.75379	14700.4875
656.72306	14852.0875
660.68952	15153.8875
664.65319	15180.7875
668.61405	14952.7875
672.57211	14952.2875
676.52738	15037.1875
680.47986	15008.5875
684.42955	14916.2875
688.37646	14772.7875
692.32058	14732.1875
696.26192	14745.1875
700.20048	14896.7875
704.13626	14983.9875
708.06928	14925.4875
711.99952	14774.1875
715.927	14724.5875
719.85171	14708.1875
723.77365	14698.8875
727.69284	14650.0875
731.60928	14582.5875
735.52295	14579.5875
739.43388	14614.4875
743.34206	14649.2875
747.24749	14723.1875
751.15017	14761.5875
755.05012	14917.6875
758.94733	15324.8875
762.8418	16139.9875
766.73354	17533.6875
770.62254	19067.2875
774.50882	19764.9875
778.39237	19034.0875
782.27321	17363.5875
786.15132	15857.8875
790.02671	14902.0875
793.89938	14440.2875
797.76935	14290.9875
801.6366	14232.5875
805.50115	14204.1875
809.36299	14156.1875
813.22213	14112.9875
817.07857	14040.7875
820.93231	13972.3875
824.78336	13921.7875
828.63172	13878.6875
832.47738	13847.6875
836.32036	13833.4875
840.16066	13831.2875
843.99827	13793.5875
847.8332	13766.6875
851.66546	13736.6875
855.49504	13718.6875
859.32195	13719.9875
863.1462	13724.5875
866.96777	13739.8875
870.78668	13755.2875
874.60293	13743.7875
878.41652	13707.6875
882.22745	13746.9875
886.03573	13786.3875
889.84136	13793.1875
893.64433	13731.2875
897.44466	13611.9875
901.24235	13549.0875
905.0374	13447.6875
908.8298	13313.8875
912.61957	13337.0875
916.40671	13417.0875
920.19121	13572.0875
923.97308	13671.9875
927.75233	13714.8875
931.52895	13676.2875
935.30295	13533.2875
939.07433	13338.7875
942.84309	13149.2875
946.60924	13006.3875
950.37278	12941.3875
954.13371	12927.9875
957.89203	12870.5875
961.64774	12834.7875
965.40086	12752.2875
969.15137	12680.1875
972.89929	12588.1875
976.64461	12534.4875
980.38733	12510.7875
984.12747	12514.8875
987.86502	12577.7875
991.59999	12716.2875
995.33237	12888.5875
999.06217	13171.1875
1002.78939	13578.3875
1006.51404	13905.7875
1010.23611	14114.6875
1013.95561	14267.4875
1017.67255	14298.3875
1021.38692	14128.7875
1025.09872	13932.4875
1028.80796	13818.9875
1032.51465	13994.2875
1036.21877	14190.8875
1039.92035	14273.3875
1043.61937	14209.1875
1047.31584	14025.1875
1051.00976	13843.9875
1054.70114	13729.9875
1058.38998	13665.9875
1062.07627	13731.6875
1065.76003	13825.7875
1069.44126	13900.9875
1073.11995	13988.9875
1076.79611	14049.8875
1080.46974	14132.9875
1084.14085	14242.3875
1087.80943	14380.8875
1091.47549	14481.4875
1095.13903	14504.3875
1098.80005	14302.9875
1102.45857	14046.8875
1106.11456	13871.3875
1109.76805	13820.8875
1113.41903	13904.1875
1117.06751	14109.9875
1120.71348	14338.1875
1124.35696	14646.1875
1127.99793	14938.7875
1131.63641	15106.6875
1135.2724	14983.9875
1138.90589	14776.8875
1142.5369	14597.4875
1146.16542	14429.5875
1149.79145	14346.2875
1153.415	14367.3875
1157.03607	14491.5875
1160.65467	14759.7875
1164.27079	15256.7875
1167.88443	15993.0875
1171.49561	16920.9875
1175.10432	18256.4875
1178.71056	19937.1875
1182.31434	21556.3875
1185.91565	22359.2875
1189.51451	22239.9875
1193.11091	21548.9875
1196.70485	20601.9875
1200.29634	19668.4875
1203.88538	18907.8875
1207.47197	18266.1875
1211.05612	17727.9875
1214.63782	17261.6875
1218.21708	17060.6875
1221.79391	16935.1875
1225.36829	16830.1875
1228.94024	16645.9875
1232.50976	16361.4875
1236.07685	16138.5875
1239.6415	16066.7875
1243.20374	16085.6875
1246.76355	16180.6875
1250.32093	16372.8875
1253.8759	16709.4875
1257.42845	17199.9875
1260.97859	17595.7875
1264.52631	17939.6875
1268.07163	18404.1875
1271.61453	18817.0875
1275.15503	19374.6875
1278.69312	19808.1875
1282.22882	20278.0875
1285.76211	20736.2875
1289.29301	21371.2875
1292.82151	22162.0875
1296.34761	23175.1875
1299.87133	24454.6875
1303.39266	25930.6875
1306.9116	27619.8875
1310.42815	29423.1875
1313.94233	30472.0875
1317.45412	30544.6875
1320.96354	29917.7875
1324.47058	29027.0875
1327.97525	28207.3875
1331.47754	27611.3875
1334.97747	27337.7875
1338.47502	27407.7875
1341.97022	27537.4875
1345.46305	27467.6875
1348.95352	27389.5875
1352.44163	27570.0875
1355.92738	28299.2875
1359.41078	29651.9875
1362.89183	31047.4875
1366.37053	30555.7875
1369.84688	27789.7875
1373.32088	24525.0875
1376.79254	22257.7875
1380.26186	21195.8875
1383.72883	20910.1875
1387.19347	20790.7875
1390.65578	20672.8875
1394.11575	20712.4875
1397.57339	21027.1875
1401.0287	21544.5875
1404.48168	22049.0875
1407.93234	22368.0875
1411.38068	22326.0875
1414.82669	21872.6875
1418.27039	21002.4875
1421.71177	19978.5875
1425.15083	19091.1875
1428.58758	18580.9875
1432.02203	18449.7875
1435.45416	18666.9875
1438.88399	18998.0875
1442.31151	19304.7875
1445.73673	19665.3875
1449.15965	20029.0875
1452.58027	20344.9875
1455.9986	20517.2875
1459.41463	20693.4875
1462.82837	21012.4875
1466.23982	21435.7875
1469.64898	21796.5875
1473.05586	21960.3875
1476.46045	21945.8875
1479.86276	21810.7875
1483.26279	21728.4875
1486.66054	21592.9875
1490.05602	21686.1875
1493.44922	21792.1875
1496.84016	21996.0875
1500.22882	22392.6875
1503.61521	23217.2875
1506.99934	24331.0875
1510.38121	25372.7875
1513.76081	25737.1875
1517.13816	25047.6875
1520.51324	23614.6875
1523.88607	22206.4875
1527.25665	21351.2875
1530.62498	20878.4875
1533.99105	20693.3875
1537.35488	20576.8875
1540.71647	20429.2875
1544.07581	20198.7875
1547.4329	19910.1875
1550.78776	19656.1875
1554.14038	19453.9875
1557.49077	19410.5875
1560.83892	19491.5875
1564.18484	19608.5875
1567.52853	19696.6875
1570.86999	19787.7875
1574.20922	19934.2875
1577.54624	20065.2875
1580.88103	19901.3875
1584.2136	19684.4875
1587.54395	19886.1875
1590.87208	20640.3875
1594.19801	21854.6875
1597.52172	23195.4875
1600.84321	23915.4875
1604.16251	23319.8875
1607.47959	21699.1875
1610.79447	19831.7875
1614.10715	18088.5875
1617.41763	16645.5875
1620.7259	15715.4875
1624.03199	15172.1875
1627.33587	15069.8875
1630.63757	15416.9875
1633.93707	16181.5875
1637.23439	17467.9875
1640.52951	19304.7875
1643.82246	21533.3875
1647.11321	23588.6875
1650.40179	24460.2875
1653.68819	23423.6875
1656.97241	20775.0875
1660.25446	17929.1875
1663.53433	15706.0875
1666.81203	14288.3875
1670.08756	13328.5875
1673.36092	12766.9875
1676.63211	12395.5875
1679.90115	12104.8875
1683.16801	11879.8875
1686.43272	11722.7875
1689.69527	11567.0875
1692.95567	11488.3875
1696.2139	11426.2875
1699.46999	11367.5875
1702.72392	11337.8875
1705.97571	11265.7875
1709.22535	11209.0875
1712.47284	11186.4875
1715.71819	11156.1875
1718.96139	11114.8875
1722.20246	11079.4875
1725.44139	11024.9875
1728.67818	10995.4875
1731.91284	10915.7875
1735.14537	10832.4875
1738.37576	10840.9875
1741.60403	10790.4875
1744.83017	10778.2875
1748.05418	10723.1875
1751.27607	10748.2875
1754.49584	10723.8875
1757.71349	10679.8875
1760.92903	10675.0875
1764.14244	10646.2875
1767.35375	10618.3875
1770.56294	10565.4875
1773.77002	10560.3875
1776.97499	10536.0875
1780.17785	10502.0875
1783.37861	10473.1875
1786.57727	10430.5875
1789.77382	10408.9875
1792.96828	10389.2875
1796.16064	10382.8875
1799.3509	10344.7875
1802.53907	10324.9875
1805.72514	10310.7875
1808.90913	10246.3875
1812.09102	10248.4875
1815.27083	10195.3875
1818.44856	10209.5875
1821.6242	10172.2875
1824.79776	10155.8875
1827.96924	10158.6875
1831.13864	10136.0875
1834.30597	10112.3875
1837.47122	10131.6875
1840.6344	10100.6875
1843.7955	10127.2875
1846.95454	10101.0875
1850.11151	10055.4875
1853.26642	10076.0875
1856.41926	10076.4875
1859.57004	10078.5875
1862.71876	10051.4875
1865.86542	10062.4875
1869.01003	10050.1875
1872.15258	10056.6875
1875.29308	10042.1875
1878.43152	10034.5875
1881.56792	10044.8875
1884.70227	10028.2875
1887.83457	10016.7875
1890.96482	10044.0875
1894.09304	10025.6875
1897.21921	10016.5875
1900.34335	9988.8875
1903.46544	9970.4875
1906.58551	9979.9875
1909.70353	9970.4875
1912.81953	9925.0875
1915.93349	9908.6875
1919.04543	9915.7875
1922.15534	9880.2875
1925.26322	9865.7875
1928.36908	9831.9875
1931.47292	9785.3875
1934.57473	9771.4875
1937.67453	9724.1875
1940.77232	9697.8875
1943.86808	9684.8875
1946.96184	9655.6875
1950.05358	9629.6875
1953.14331	9579.8875
1956.23103	9554.3875
1959.31675	9540.8875
1962.40046	9513.6875
1965.48217	9474.5875
1968.56188	9464.8875
1971.63959	9413.0875
1974.7153	9392.1875
1977.78901	9363.5875
1980.86073	9333.9875
1983.93046	9311.8875
1986.99819	9249.3875
1990.06394	9229.6875
1993.1277	9199.7875
1996.18947	9178.0875
1999.24925	9114.1875
2002.30706	9098.9875
2005.36288	9095.8875
2008.41672	9059.9875
2011.46859	9042.9875
2014.51848	9010.6875
2017.56639	8959.2875
2020.61233	8962.5875
2023.6563	8931.7875
2026.6983	8901.9875
2029.73833	8906.8875
2032.7764	8874.2875
2035.8125	8853.7875
2038.84664	8864.8875
2041.87881	8829.5875
2044.90903	8815.5875
2047.93729	8795.2875
2050.96359	8796.8875
2053.98794	8780.2875
2057.01034	8753.1875
2060.03078	8744.8875
2063.04927	8714.0875
2066.06582	8722.5875
2069.08042	8720.8875
2072.09307	8704.7875
2075.10378	8691.7875
2078.11255	8675.0875
2081.11938	8700.1875
2084.12426	8683.8875
2087.12722	8665.9875
2090.12824	8681.0875
2093.12732	8666.7875
2096.12447	8676.1875
2099.11969	8643.1875
2102.11299	8653.0875
2105.10435	8672.5875
2108.09379	8651.4875
2111.08131	8660.8875
2114.0669	8662.3875
2117.05057	8662.7875
2120.03233	8685.8875
2123.01216	8694.0875
2125.99008	8662.0875
2128.96609	8662.1875
2131.94018	8677.8875
2134.91236	8663.3875
2137.88263	8668.6875
2140.851	8671.1875
2143.81746	8688.7875
2146.78201	8680.4875
2149.74466	8690.5875
2152.7054	8667.5875
2155.66425	8648.7875
2158.6212	8639.2875
2161.57625	8636.7875
2164.52941	8630.8875
2167.48067	8656.4875
2170.43004	8637.9875
2173.37752	8635.5875
2176.32311	8625.3875
2179.26681	8605.2875
2182.20863	8614.3875
2185.14856	8630.8875
2188.08661	8617.7875
2191.02278	8613.3875
2193.95707	8606.5875
2196.88948	8610.4875
2199.82001	8601.7875
2202.74867	8554.9875
2205.67545	8595.6875
2208.60037	8570.3875
2211.52341	8560.7875
2214.44458	8539.7875
2217.36388	8534.0875
2220.28132	8519.1875
2223.1969	8501.5875
2226.11061	8490.3875
2229.02246	8465.4875
2231.93245	8459.5875
2234.84058	8441.7875
2237.74686	8426.2875
2240.65128	8409.2875
2243.55385	8391.3875
2246.45456	8365.1875
2249.35343	8343.7875
2252.25044	8346.7875
2255.14561	8346.6875
2258.03893	8311.7875
2260.93041	8315.1875
2263.82004	8304.0875
2266.70783	8272.7875
2269.59378	8269.5875
2272.4779	8214.5875
2275.36017	8218.0875
2278.24061	8181.5875
2281.11922	8159.1875
2283.996	8138.9875
2286.87094	8158.1875
2289.74405	8137.7875
2292.61534	8101.1875
2295.4848	8104.3875
2298.35243	8092.9875
2301.21824	8082.3875
2304.08223	8093.2875
2306.94439	8100.9875
2309.80474	8085.2875
2312.66327	8078.1875
2315.51999	8089.7875
2318.37489	8094.6875
2321.22797	8068.1875
2324.07925	8046.5875
2326.92871	8061.1875
2329.77637	8041.3875
2332.62222	8052.7875
2335.46626	8036.7875
2338.3085	8006.3875
2341.14893	8015.0875
2343.98756	8039.6875
2346.8244	8036.8875
2349.65943	8029.2875
2352.49267	8011.6875
2355.32411	8019.0875
2358.15376	8008.3875
2360.98161	8008.1875
2363.80768	7997.2875
2366.63195	7984.9875
2369.45444	7981.5875
2372.27514	7953.4875
2375.09405	7942.0875
2377.91118	7922.4875
2380.72652	7898.4875
2383.54009	7873.1875
2386.35187	7857.2875
2389.16188	7830.1875
2391.97011	7824.0875
2394.77657	7805.6875
2397.58125	7785.5875
2400.38416	7782.8875
2403.18529	7757.8875
2405.98466	7747.5875
2408.78226	7737.9875
2411.57809	7720.0875
2414.37216	7718.5875
2417.16446	7689.6875
2419.955	7670.8875
2422.74378	7687.2875
2425.5308	7668.6875
2428.31606	7672.7875
2431.09956	7681.6875
2433.88131	7646.9875
2436.6613	7643.9875
2439.43954	7647.4875
2442.21603	7631.1875
2444.99077	7634.6875
2447.76377	7613.0875
2450.53501	7627.9875
2453.30451	7625.9875
2456.07226	7619.1875
2458.83827	7607.1875
2461.60254	7624.8875
2464.36507	7597.5875
2467.12586	7607.4875
2469.88492	7585.1875
2472.64224	7597.3875
2475.39782	7593.0875
2478.15167	7587.3875
2480.90379	7597.1875
2483.65417	7585.0875
2486.40283	7594.9875
2489.14976	7604.9875
2491.89497	7593.8875
2494.63845	7606.3875
2497.3802	7626.8875
2500.12024	7594.8875
2502.85855	7601.7875
2505.59514	7598.3875
2508.33002	7566.5875
2511.06318	7578.8875
2513.79462	7553.4875
2516.52435	7570.4875
2519.25237	7538.0875
2521.97867	7505.5875
2524.70327	7527.4875
2527.42616	7513.5875
2530.14734	7495.6875
2532.86681	7500.4875
2535.58458	7468.6875
2538.30065	7479.6875
2541.01501	7474.7875
2543.72768	7438.4875
2546.43864	7455.7875
2549.14791	7448.9875
2551.85548	7429.2875
2554.56136	7431.7875
2557.26554	7405.1875
2559.96803	7408.0875
2562.66883	7401.8875
2565.36794	7370.6875
2568.06536	7383.4875
2570.7611	7375.0875
2573.45514	7371.3875
2576.14751	7357.9875
2578.83819	7333.1875
2581.52719	7342.6875
2584.21451	7341.5875
2586.90015	7318.3875
2589.58411	7325.3875
2592.2664	7315.9875
2594.94701	7329.7875
2597.62594	7310.8875
2600.30321	7284.6875
2602.9788	7296.9875
2605.65273	7268.3875
2608.32498	7294.2875
2610.99557	7277.4875
2613.66449	7290.0875
2616.33175	7275.0875
2618.99734	7292.5875
2621.66128	7285.1875
2624.32355	7265.2875
2626.98416	7281.4875
2629.64311	7266.4875
2632.30041	7252.7875
2634.95605	7244.5875
2637.61004	7261.1875
2640.26238	7262.2875
2642.91306	7243.6875
2645.56209	7224.8875
2648.20948	7244.9875
2650.85521	7242.0875
2653.4993	7229.7875
2656.14175	7208.4875
2658.78255	7229.6875
2661.42171	7234.2875
2664.05923	7216.8875
2666.6951	7256.6875
2669.32934	7233.3875
2671.96194	7252.8875
2674.59291	7253.1875
2677.22224	7244.5875
2679.84993	7233.7875
2682.476	7220.4875
2685.10043	7230.1875
2687.72324	7217.8875
2690.34441	7240.3875
2692.96396	7215.9875
2695.58188	7242.1875
2698.19818	7227.5875
2700.81285	7218.4875
2703.4259	7229.8875
2706.03733	7289.7875
2708.64714	7200.2875
2711.25533	7228.3875
2713.86191	7222.8875
2716.46687	7248.1875
2719.07021	7253.9875
2721.67194	7243.9875
2724.27206	7222.4875
2726.87057	7208.6875
2729.46747	7220.0875
2732.06276	7232.1875
2734.65644	7230.0875
2737.24852	7218.8875
2739.83899	7196.9875
2742.42786	7220.1875
2745.01513	7193.4875
2747.60079	7201.3875
2750.18486	7185.3875
2752.76733	7182.4875
2755.3482	7187.1875
2757.92747	7188.3875
2760.50515	7193.5875
2763.08123	7192.2875
2765.65573	7166.1875
2768.22863	7195.8875
2770.79994	7174.1875
2773.36967	7188.1875
2775.9378	7171.4875
2778.50435	7170.8875
2781.06932	7175.2875
2783.6327	7160.4875
2786.1945	7161.7875
2788.75471	7140.4875
2791.31335	7140.5875
2793.87041	7134.4875
2796.42589	7109.1875
2798.97979	7096.4875
2801.53212	7091.7875
2804.08288	7088.0875
2806.63206	7075.4875
2809.17967	7037.3875
2811.72571	7066.3875
2814.27018	7053.4875
2816.81308	7043.9875
2819.35442	7027.0875
2821.89419	7043.7875
2824.43239	7020.4875
2826.96904	7023.9875
2829.50412	7000.9875
2832.03763	7000.1875
2834.56959	6997.6875
2837.1	6989.6875
2839.62884	6993.8875
2842.15613	6984.1875
2844.68186	6990.7875
2847.20604	6990.0875
2849.72867	6999.3875
2852.24974	7012.7875
2854.76927	7006.2875
2857.28724	6979.9875
2859.80367	6958.0875
2862.31855	6936.7875
2864.83189	6953.2875
2867.34368	6964.5875
2869.85393	6955.7875
2872.36264	6946.7875
2874.8698	6953.3875
2877.37543	6949.5875
2879.87952	6960.0875
2882.38207	6942.4875
2884.88308	6943.2875
2887.38256	6965.7875
2889.88051	6965.5875
2892.37692	6933.5875
2894.8718	6966.9875
2897.36515	6982.5875
2899.85698	6964.5875
2902.34727	6990.1875
2904.83604	6979.9875
2907.32328	7000.9875
2909.809	6982.2875
2912.29319	7017.1875
2914.77587	7018.2875
2917.25702	7014.9875
2919.73665	7003.5875
2922.21476	7000.5875
2924.69136	6984.0875
2927.16644	6991.1875
2929.64	7002.3875
2932.11205	6996.2875
2934.58258	6960.3875
2937.05161	6977.1875
2939.51912	6965.0875
2941.98513	6966.5875
2944.44962	6937.6875
2946.91261	6937.8875
2949.37409	6925.7875
2951.83407	6926.2875
2954.29254	6905.0875
2956.74951	6894.9875
2959.20498	6885.8875
2961.65895	6860.9875
2964.11142	6847.3875
2966.56239	6811.8875
2969.01186	6804.2875
2971.45984	6795.9875
2973.90632	6773.1875
2976.35131	6756.9875
2978.7948	6743.3875
2981.23681	6706.7875
2983.67732	6705.3875
2986.11635	6672.7875
2988.55388	6658.7875
2990.98993	6641.4875
2993.4245	6642.6875
2995.85758	6604.6875
2998.28917	6594.3875
3000.71928	6602.9875
3003.14791	6584.1875
3005.57506	6603.6875
3008.00073	6571.3875
3010.42493	6555.4875
3012.84764	6535.3875
3015.26888	6531.4875
3017.68865	6524.4875
3020.10694	6509.9875
3022.52376	6486.2875
3024.9391	6465.7875
3027.35298	6469.8875
3029.76539	6478.4875
3032.17632	6450.3875
3034.5858	6436.2875
3036.9938	6423.9875
3039.40034	6434.6875
3041.80542	6417.1875
3044.20903	6400.0875
3046.61118	6397.4875
3049.01187	6381.6875
3051.4111	6378.6875
3053.80888	6354.2875
3056.20519	6365.9875
3058.60005	6322.1875
3060.99345	6339.5875
3063.3854	6301.4875
3065.7759	6288.1875
3068.16494	6266.2875
3070.55254	6245.5875
3072.93868	6234.9875
3075.32338	6227.5875
3077.70662	6205.7875
3080.08842	6195.0875
3082.46878	6212.6875
3084.84769	6192.2875
3087.22515	6197.4875
3089.60118	6177.9875
3091.97576	6173.8875
3094.3489	6187.5875
3096.72061	6168.3875
3099.09087	6156.4875
3101.4597	6175.5875
3103.82709	6139.9875
3106.19305	6146.9875
3108.55757	6141.7875
3110.92066	6127.4875
3113.28232	6113.4875
3115.64255	6097.9875
3118.00134	6082.9875
3120.35871	6068.0875
3122.71466	6080.9875
3125.06917	6056.7875
3127.42226	6046.1875
3129.77393	6055.8875
3132.12417	6045.0875
3134.47299	6051.4875
3136.82039	6040.2875
3139.16636	6027.7875
3141.51092	6054.4875
3143.85406	6042.9875
3146.19579	6059.6875
3148.53609	6038.3875
3150.87499	6059.3875
3153.21246	6043.1875
3155.54853	6072.0875
3157.88318	6043.7875
3160.21642	6053.4875
3162.54826	6038.7875
3164.87868	6054.6875
3167.2077	6060.1875
3169.5353	6043.8875
3171.86151	6037.9875
3174.18631	6056.2875
3176.5097	6039.2875
3178.83169	6026.6875
3181.15228	6035.4875
3183.47147	6016.4875
3185.78926	6016.6875
3188.10565	6009.5875
3190.42065	6006.6875
3192.73424	6008.8875
3195.04645	6024.4875
3197.35725	6021.2875
3199.66667	6018.2875
3201.97469	6033.8875
3204.28132	6031.8875
3206.58656	6036.0875
3208.8904	6029.9875
3211.19287	6022.6875
3213.49394	6014.3875
3215.79363	6027.0875
3218.09193	6024.0875
3220.38884	6031.3875
3222.68438	6032.0875
3224.97853	6030.2875
3227.2713	6005.4875
3229.56269	6012.0875
3231.8527	5998.3875
3234.14133	5982.8875
3236.42858	5984.4875
3238.71446	5986.3875
3240.99896	5966.3875
3243.28209	5971.3875
3245.56384	5972.5875
3247.84423	5972.7875
3250.12324	5952.5875
3252.40088	5948.7875
3254.67715	5941.2875
3256.95205	5931.2875
3259.22558	5936.9875
3261.49775	5915.0875
3263.76855	5912.2875
3266.03799	5892.9875
3268.30606	5883.5875
3270.57277	5888.4875
3272.83812	5852.3875
3275.10211	5844.1875
3277.36474	5841.3875
3279.62601	5855.0875
3281.88593	5835.0875
3284.14448	5844.5875
3286.40168	5844.4875
3288.65753	5836.5875
3290.91202	5825.2875
3293.16516	5797.8875
3295.41695	5801.7875
3297.66738	5767.5875
3299.91647	5730.2875
3302.16421	5696.6875
3304.4106	5688.0875
3306.65564	5644.8875
3308.89933	5624.9875
3311.14169	5585.4875
3313.38269	5554.4875
3315.62236	5519.9875
3317.86068	5478.0875
3320.09766	5425.2875
3322.3333	5380.8875
3324.5676	5383.6875
3326.80056	5300.1875
3329.03219	5290.4875
3331.26248	2.7875
3333.49143	-1.6125
3335.71905	-0.3125
