Data from AgNPs_FTO_APTES_UA_20um_CRN_0.1mM_R6G_10uM_NaF_0.1M_Addition_RamanShift__18__14-37-19-192.txt Node

Date: Tue Dec 21 14:37:19 GMT 2021
User: TCL
Spectrometer: QEP01345
Trigger mode: 4
Integration Time (sec): 7.000000E0
Scans to average: 10
Electric dark correction enabled: true
Nonlinearity correction enabled: false
Boxcar width: 0
XAxis mode: Raman Shifts
Number of Pixels in Spectrum: 1044
>>>>>Begin Spectral Data<<<<<
46.04893	-0.5625
50.45542	-0.0625
54.85868	-1.3625
59.25871	0.7375
63.6555	42.7375
68.04907	47.8375
72.43941	49.0375
76.82654	52.9375
81.21044	58.5375
85.59113	55.5375
89.96862	61.5375
94.34289	57.9375
98.71396	64.3375
103.08183	67.2375
107.4465	68.7375
111.80798	68.5375
116.16626	69.6375
120.52136	73.1375
124.87327	73.3375
129.222	75.3375
133.56755	81.5375
137.90993	90.1375
142.24913	94.4375
146.58517	102.4375
150.91804	121.3375
155.24774	143.6375
159.57429	169.0375
163.89768	221.8375
168.21792	289.5375
172.53501	383.3375
176.84895	533.1375
181.15975	750.5375
185.46741	1044.4375
189.77193	1446.4375
194.07331	1942.8375
198.37157	2505.1375
202.6667	3101.7375
206.9587	3712.0375
211.24758	4309.4375
215.53334	4908.4375
219.81599	5545.8375
224.09553	6228.6375
228.37195	7012.5375
232.64527	7814.1375
236.91549	8701.1375
241.18261	9567.7375
245.44663	10395.2375
249.70755	11105.8375
253.96539	11687.2375
258.22014	12241.1375
262.4718	12632.2375
266.72039	12944.1375
270.96589	13092.0375
275.20832	13102.7375
279.44768	12993.5375
283.68397	12870.1375
287.91719	12782.8375
292.14735	12722.2375
296.37445	12721.1375
300.59849	12807.4375
304.81948	12812.1375
309.03742	12821.1375
313.25231	12658.8375
317.46415	12347.9375
321.67296	11966.3375
325.87872	11611.7375
330.08145	11461.3375
334.28114	11420.5375
338.47781	11495.8375
342.67145	11623.5375
346.86207	11794.9375
351.04966	12027.8375
355.23424	12283.1375
359.4158	12476.6375
363.59435	12652.9375
367.76989	12742.3375
371.94243	12826.3375
376.11196	12884.1375
380.27849	12954.1375
384.44203	13016.8375
388.60257	13142.2375
392.76012	13260.3375
396.91468	13416.0375
401.06626	13592.7375
405.21485	13709.3375
409.36047	13666.9375
413.50311	13451.3375
417.64277	13253.5375
421.77947	13124.9375
425.9132	13144.1375
430.04396	13219.1375
434.17176	13270.5375
438.2966	13385.6375
442.41849	13588.4375
446.53742	13942.5375
450.6534	14355.1375
454.76644	14683.0375
458.87653	14768.6375
462.98368	14758.7375
467.08789	14616.0375
471.18916	14485.7375
475.2875	14395.9375
479.38291	14381.8375
483.4754	14365.2375
487.56496	14213.5375
491.6516	13924.1375
495.73531	13697.2375
499.81612	13554.0375
503.89401	13578.5375
507.96899	13579.2375
512.04106	13559.3375
516.11023	13410.0375
520.1765	13308.6375
524.23987	13202.7375
528.30034	13141.5375
532.35792	13089.0375
536.41261	12973.2375
540.46441	12862.2375
544.51333	12837.0375
548.55936	12946.4375
552.60252	13160.4375
556.64279	13448.9375
560.6802	13639.2375
564.71473	13752.4375
568.7464	13908.8375
572.7752	14262.4375
576.80114	14480.9375
580.82422	14632.4375
584.84444	14777.0375
588.86181	14955.8375
592.87633	15159.2375
596.888	15224.4375
600.89682	15175.4375
604.9028	15514.9375
608.90594	16777.5375
612.90624	18127.3375
616.90371	17173.3375
620.89834	14340.7375
624.89015	13046.1375
628.87913	12893.0375
632.86528	13011.3375
636.84862	13114.9375
640.82913	13027.8375
644.80683	12675.0375
648.78172	12392.5375
652.75379	12275.3375
656.72306	12354.1375
660.68952	12553.0375
664.65319	12557.5375
668.61405	12402.8375
672.57211	12408.6375
676.52738	12521.4375
680.47986	12606.5375
684.42955	12540.7375
688.37646	12402.4375
692.32058	12320.4375
696.26192	12324.4375
700.20048	12382.8375
704.13626	12466.3375
708.06928	12434.9375
711.99952	12409.6375
715.927	12330.5375
719.85171	12316.8375
723.77365	12305.5375
727.69284	12205.3375
731.60928	12160.6375
735.52295	12160.3375
739.43388	12132.6375
743.34206	12148.0375
747.24749	12173.4375
751.15017	12226.0375
755.05012	12359.1375
758.94733	12704.7375
762.8418	13326.3375
766.73354	14373.9375
770.62254	15495.7375
774.50882	15892.8375
778.39237	15258.1375
782.27321	14062.4375
786.15132	13013.0375
790.02671	12327.7375
793.89938	11973.4375
797.76935	11853.7375
801.6366	11798.6375
805.50115	11773.7375
809.36299	11726.5375
813.22213	11630.3375
817.07857	11573.0375
820.93231	11502.3375
824.78336	11434.7375
828.63172	11402.7375
832.47738	11352.4375
836.32036	11370.5375
840.16066	11331.2375
843.99827	11341.3375
847.8332	11291.5375
851.66546	11226.0375
855.49504	11257.6375
859.32195	11270.4375
863.1462	11247.0375
866.96777	11277.2375
870.78668	11234.4375
874.60293	11233.7375
878.41652	11254.7375
882.22745	11257.4375
886.03573	11298.8375
889.84136	11296.2375
893.64433	11237.8375
897.44466	11192.8375
901.24235	11099.4375
905.0374	11014.9375
908.8298	10955.5375
912.61957	10938.5375
916.40671	11015.2375
920.19121	11174.2375
923.97308	11254.0375
927.75233	11244.5375
931.52895	11201.4375
935.30295	11075.7375
939.07433	10885.9375
942.84309	10682.0375
946.60924	10627.2375
950.37278	10547.7375
954.13371	10546.5375
957.89203	10529.8375
961.64774	10482.6375
965.40086	10444.6375
969.15137	10400.5375
972.89929	10310.2375
976.64461	10264.6375
980.38733	10234.7375
984.12747	10227.2375
987.86502	10293.4375
991.59999	10348.4375
995.33237	10492.2375
999.06217	10697.6375
1002.78939	10950.4375
1006.51404	11142.9375
1010.23611	11299.5375
1013.95561	11447.2375
1017.67255	11459.5375
1021.38692	11353.4375
1025.09872	11189.6375
1028.80796	11067.3375
1032.51465	11147.2375
1036.21877	11276.0375
1039.92035	11369.7375
1043.61937	11324.3375
1047.31584	11282.5375
1051.00976	11172.6375
1054.70114	11154.3375
1058.38998	11181.9375
1062.07627	11244.8375
1065.76003	11326.5375
1069.44126	11398.9375
1073.11995	11516.7375
1076.79611	11636.6375
1080.46974	11666.2375
1084.14085	11737.9375
1087.80943	11814.0375
1091.47549	11929.1375
1095.13903	11975.6375
1098.80005	11841.3375
1102.45857	11652.7375
1106.11456	11445.5375
1109.76805	11341.2375
1113.41903	11387.6375
1117.06751	11460.7375
1120.71348	11628.4375
1124.35696	11782.6375
1127.99793	12002.0375
1131.63641	12175.2375
1135.2724	12111.0375
1138.90589	12009.5375
1142.5369	11936.0375
1146.16542	11921.3375
1149.79145	11899.7375
1153.415	11970.5375
1157.03607	12103.0375
1160.65467	12435.7375
1164.27079	12890.4375
1167.88443	13579.5375
1171.49561	14383.2375
1175.10432	15457.9375
1178.71056	16818.6375
1182.31434	18087.8375
1185.91565	18729.2375
1189.51451	18645.0375
1193.11091	18137.7375
1196.70485	17387.1375
1200.29634	16573.6375
1203.88538	15930.6375
1207.47197	15488.1375
1211.05612	15074.5375
1214.63782	14697.3375
1218.21708	14418.1375
1221.79391	14205.8375
1225.36829	14087.2375
1228.94024	13905.8375
1232.50976	13663.2375
1236.07685	13434.9375
1239.6415	13337.1375
1243.20374	13309.8375
1246.76355	13411.1375
1250.32093	13571.7375
1253.8759	13826.7375
1257.42845	14206.4375
1260.97859	14558.4375
1264.52631	14941.1375
1268.07163	15341.0375
1271.61453	15762.9375
1275.15503	16181.4375
1278.69312	16662.8375
1282.22882	17140.7375
1285.76211	17617.8375
1289.29301	18180.1375
1292.82151	18969.5375
1296.34761	19905.5375
1299.87133	20997.8375
1303.39266	22155.7375
1306.9116	23351.3375
1310.42815	24571.6375
1313.94233	25382.5375
1317.45412	25546.3375
1320.96354	25190.3375
1324.47058	24707.2375
1327.97525	24262.5375
1331.47754	23877.5375
1334.97747	23629.1375
1338.47502	23459.7375
1341.97022	23314.0375
1345.46305	23066.0375
1348.95352	22886.8375
1352.44163	22875.5375
1355.92738	23322.8375
1359.41078	24166.4375
1362.89183	24986.1375
1366.37053	24701.3375
1369.84688	22824.1375
1373.32088	20362.4375
1376.79254	18611.4375
1380.26186	17830.6375
1383.72883	17694.2375
1387.19347	17641.3375
1390.65578	17507.6375
1394.11575	17488.4375
1397.57339	17707.0375
1401.0287	18094.0375
1404.48168	18343.2375
1407.93234	18381.2375
1411.38068	18056.3375
1414.82669	17463.4375
1418.27039	16671.7375
1421.71177	15916.3375
1425.15083	15218.2375
1428.58758	14824.0375
1432.02203	14792.1375
1435.45416	15043.3375
1438.88399	15453.8375
1442.31151	15812.1375
1445.73673	16202.2375
1449.15965	16486.5375
1452.58027	16808.8375
1455.9986	16959.8375
1459.41463	17134.1375
1462.82837	17372.9375
1466.23982	17677.8375
1469.64898	17931.6375
1473.05586	18030.7375
1476.46045	18038.7375
1479.86276	17911.5375
1483.26279	17669.5375
1486.66054	17570.8375
1490.05602	17566.7375
1493.44922	17661.8375
1496.84016	17821.7375
1500.22882	18202.5375
1503.61521	18825.1375
1506.99934	19621.9375
1510.38121	20339.4375
1513.76081	20580.0375
1517.13816	20108.3375
1520.51324	19203.3375
1523.88607	18345.3375
1527.25665	17764.5375
1530.62498	17523.8375
1533.99105	17407.5375
1537.35488	17267.3375
1540.71647	17016.6375
1544.07581	16640.1375
1547.4329	16239.8375
1550.78776	15916.5375
1554.14038	15733.0375
1557.49077	15640.3375
1560.83892	15685.4375
1564.18484	15753.0375
1567.52853	15874.8375
1570.86999	16004.7375
1574.20922	16261.2375
1577.54624	16456.1375
1580.88103	16441.7375
1584.2136	16389.1375
1587.54395	16610.4375
1590.87208	17171.7375
1594.19801	18012.2375
1597.52172	19017.7375
1600.84321	19420.8375
1604.16251	18822.5375
1607.47959	17528.3375
1610.79447	16002.7375
1614.10715	14656.0375
1617.41763	13504.9375
1620.7259	12680.8375
1624.03199	12232.2375
1627.33587	12144.2375
1630.63757	12396.8375
1633.93707	13068.9375
1637.23439	14268.8375
1640.52951	15993.3375
1643.82246	18170.3375
1647.11321	20083.9375
1650.40179	20756.1375
1653.68819	19769.2375
1656.97241	17448.3375
1660.25446	14929.9375
1663.53433	12941.8375
1666.81203	11625.6375
1670.08756	10791.4375
1673.36092	10254.1375
1676.63211	9910.3375
1679.90115	9667.3375
1683.16801	9457.5375
1686.43272	9308.5375
1689.69527	9202.8375
1692.95567	9111.1375
1696.2139	9086.1375
1699.46999	9026.8375
1702.72392	8972.0375
1705.97571	8936.1375
1709.22535	8874.7375
1712.47284	8826.5375
1715.71819	8812.0375
1718.96139	8770.2375
1722.20246	8713.4375
1725.44139	8670.4375
1728.67818	8616.3375
1731.91284	8567.2375
1735.14537	8540.3375
1738.37576	8471.9375
1741.60403	8456.0375
1744.83017	8455.3375
1748.05418	8454.1375
1751.27607	8449.5375
1754.49584	8435.9375
1757.71349	8453.5375
1760.92903	8417.7375
1764.14244	8384.7375
1767.35375	8358.2375
1770.56294	8293.0375
1773.77002	8263.0375
1776.97499	8226.0375
1780.17785	8205.1375
1783.37861	8165.6375
1786.57727	8140.7375
1789.77382	8098.4375
1792.96828	8072.4375
1796.16064	8059.0375
1799.3509	8033.3375
1802.53907	7999.8375
1805.72514	7965.8375
1808.90913	7932.1375
1812.09102	7938.9375
1815.27083	7898.6375
1818.44856	7881.5375
1821.6242	7874.1375
1824.79776	7872.6375
1827.96924	7829.6375
1831.13864	7816.1375
1834.30597	7806.9375
1837.47122	7820.8375
1840.6344	7814.7375
1843.7955	7809.1375
1846.95454	7795.2375
1850.11151	7776.7375
1853.26642	7765.6375
1856.41926	7771.0375
1859.57004	7770.5375
1862.71876	7757.1375
1865.86542	7736.3375
1869.01003	7733.9375
1872.15258	7711.9375
1875.29308	7709.7375
1878.43152	7715.3375
1881.56792	7696.8375
1884.70227	7694.2375
1887.83457	7686.5375
1890.96482	7658.4375
1894.09304	7641.2375
1897.21921	7649.9375
1900.34335	7644.2375
1903.46544	7617.9375
1906.58551	7614.9375
1909.70353	7592.6375
1912.81953	7584.9375
1915.93349	7565.3375
1919.04543	7546.5375
1922.15534	7531.3375
1925.26322	7513.9375
1928.36908	7471.7375
1931.47292	7456.5375
1934.57473	7439.2375
1937.67453	7404.0375
1940.77232	7379.3375
1943.86808	7379.2375
1946.96184	7355.8375
1950.05358	7324.3375
1953.14331	7295.8375
1956.23103	7280.2375
1959.31675	7253.9375
1962.40046	7223.2375
1965.48217	7209.6375
1968.56188	7201.5375
1971.63959	7160.7375
1974.7153	7142.1375
1977.78901	7132.3375
1980.86073	7096.4375
1983.93046	7082.5375
1986.99819	7044.8375
1990.06394	7021.9375
1993.1277	7004.8375
1996.18947	6962.4375
1999.24925	6960.9375
2002.30706	6916.6375
2005.36288	6914.3375
2008.41672	6876.4375
2011.46859	6861.2375
2014.51848	6845.4375
2017.56639	6820.3375
2020.61233	6818.5375
2023.6563	6803.9375
2026.6983	6773.4375
2029.73833	6749.6375
2032.7764	6732.6375
2035.8125	6724.6375
2038.84664	6696.2375
2041.87881	6709.3375
2044.90903	6682.9375
2047.93729	6647.8375
2050.96359	6653.3375
2053.98794	6656.2375
2057.01034	6660.1375
2060.03078	6635.6375
2063.04927	6635.6375
2066.06582	6602.6375
2069.08042	6619.3375
2072.09307	6607.5375
2075.10378	6615.0375
2078.11255	6586.9375
2081.11938	6603.1375
2084.12426	6574.5375
2087.12722	6584.7375
2090.12824	6574.6375
2093.12732	6552.0375
2096.12447	6565.4375
2099.11969	6566.7375
2102.11299	6568.0375
2105.10435	6547.6375
2108.09379	6571.6375
2111.08131	6572.3375
2114.0669	6559.8375
2117.05057	6551.7375
2120.03233	6573.7375
2123.01216	6581.9375
2125.99008	6556.5375
2128.96609	6558.8375
2131.94018	6570.8375
2134.91236	6569.1375
2137.88263	6583.6375
2140.851	6560.7375
2143.81746	6565.8375
2146.78201	6568.8375
2149.74466	6558.1375
2152.7054	6559.0375
2155.66425	6536.4375
2158.6212	6528.1375
2161.57625	6536.6375
2164.52941	6553.0375
2167.48067	6534.6375
2170.43004	6526.3375
2173.37752	6538.6375
2176.32311	6537.6375
2179.26681	6511.1375
2182.20863	6520.9375
2185.14856	6511.8375
2188.08661	6498.3375
2191.02278	6507.3375
2193.95707	6527.8375
2196.88948	6499.8375
2199.82001	6476.4375
2202.74867	6473.3375
2205.67545	6470.0375
2208.60037	6465.1375
2211.52341	6446.6375
2214.44458	6438.9375
2217.36388	6430.7375
2220.28132	6407.5375
2223.1969	6394.2375
2226.11061	6404.7375
2229.02246	6370.1375
2231.93245	6353.8375
2234.84058	6355.5375
2237.74686	6328.1375
2240.65128	6313.4375
2243.55385	6313.8375
2246.45456	6300.8375
2249.35343	6274.7375
2252.25044	6286.4375
2255.14561	6280.2375
2258.03893	6263.8375
2260.93041	6232.1375
2263.82004	6229.3375
2266.70783	6196.5375
2269.59378	6191.6375
2272.4779	6190.8375
2275.36017	6162.6375
2278.24061	6147.8375
2281.11922	6129.0375
2283.996	6117.5375
2286.87094	6115.5375
2289.74405	6096.7375
2292.61534	6080.4375
2295.4848	6085.8375
2298.35243	6111.6375
2301.21824	6068.0375
2304.08223	6078.2375
2306.94439	6071.8375
2309.80474	6074.9375
2312.66327	6072.6375
2315.51999	6056.6375
2318.37489	6052.2375
2321.22797	6036.1375
2324.07925	6028.9375
2326.92871	6036.4375
2329.77637	6030.3375
2332.62222	6008.6375
2335.46626	6009.5375
2338.3085	5984.0375
2341.14893	5995.4375
2343.98756	5987.3375
2346.8244	5996.9375
2349.65943	6001.0375
2352.49267	5988.6375
2355.32411	5999.4375
2358.15376	5993.3375
2360.98161	5989.8375
2363.80768	5988.7375
2366.63195	5982.7375
2369.45444	5954.5375
2372.27514	5951.4375
2375.09405	5946.9375
2377.91118	5947.3375
2380.72652	5897.2375
2383.54009	5882.6375
2386.35187	5865.2375
2389.16188	5845.4375
2391.97011	5849.7375
2394.77657	5844.6375
2397.58125	5814.9375
2400.38416	5810.7375
2403.18529	5803.2375
2405.98466	5781.7375
2408.78226	5789.8375
2411.57809	5764.1375
2414.37216	5754.1375
2417.16446	5746.4375
2419.955	5732.9375
2422.74378	5738.0375
2425.5308	5735.0375
2428.31606	5728.8375
2431.09956	5721.6375
2433.88131	5709.7375
2436.6613	5720.2375
2439.43954	5711.9375
2442.21603	5699.9375
2444.99077	5701.9375
2447.76377	5696.3375
2450.53501	5689.1375
2453.30451	5699.5375
2456.07226	5687.2375
2458.83827	5698.4375
2461.60254	5692.1375
2464.36507	5688.7375
2467.12586	5672.6375
2469.88492	5668.3375
2472.64224	5672.2375
2475.39782	5674.4375
2478.15167	5676.5375
2480.90379	5674.9375
2483.65417	5674.5375
2486.40283	5669.0375
2489.14976	5682.7375
2491.89497	5661.7375
2494.63845	5691.5375
2497.3802	5667.7375
2500.12024	5673.8375
2502.85855	5654.5375
2505.59514	5649.3375
2508.33002	5641.2375
2511.06318	5636.9375
2513.79462	5633.5375
2516.52435	5612.0375
2519.25237	5619.2375
2521.97867	5604.3375
2524.70327	5611.3375
2527.42616	5599.6375
2530.14734	5583.7375
2532.86681	5583.7375
2535.58458	5574.5375
2538.30065	5571.2375
2541.01501	5568.3375
2543.72768	5564.8375
2546.43864	5544.8375
2549.14791	5536.4375
2551.85548	5540.8375
2554.56136	5539.7375
2557.26554	5523.7375
2559.96803	5508.1375
2562.66883	5511.8375
2565.36794	5490.3375
2568.06536	5482.6375
2570.7611	5467.3375
2573.45514	5478.6375
2576.14751	5465.8375
2578.83819	5474.5375
2581.52719	5486.5375
2584.21451	5444.4375
2586.90015	5442.8375
2589.58411	5449.4375
2592.2664	5448.1375
2594.94701	5428.7375
2597.62594	5415.9375
2600.30321	5435.7375
2602.9788	5422.3375
2605.65273	5401.6375
2608.32498	5401.2375
2610.99557	5407.5375
2613.66449	5415.5375
2616.33175	5394.3375
2618.99734	5410.4375
2621.66128	5402.3375
2624.32355	5406.6375
2626.98416	5388.9375
2629.64311	5381.5375
2632.30041	5386.4375
2634.95605	5391.9375
2637.61004	5376.0375
2640.26238	5385.3375
2642.91306	5370.2375
2645.56209	5362.5375
2648.20948	5361.1375
2650.85521	5367.3375
2653.4993	5343.7375
2656.14175	5365.1375
2658.78255	5349.6375
2661.42171	5346.8375
2664.05923	5362.4375
2666.6951	5374.3375
2669.32934	5370.7375
2671.96194	5353.6375
2674.59291	5375.0375
2677.22224	5346.4375
2679.84993	5359.5375
2682.476	5354.7375
2685.10043	5350.5375
2687.72324	5344.2375
2690.34441	5353.6375
2692.96396	5327.9375
2695.58188	5346.6375
2698.19818	5343.5375
2700.81285	5348.1375
2703.4259	5382.0375
2706.03733	5405.0375
2708.64714	5363.0375
2711.25533	5347.6375
2713.86191	5350.3375
2716.46687	5344.4375
2719.07021	5348.2375
2721.67194	5360.3375
2724.27206	5340.2375
2726.87057	5361.7375
2729.46747	5352.8375
2732.06276	5353.9375
2734.65644	5355.3375
2737.24852	5343.8375
2739.83899	5331.2375
2742.42786	5349.1375
2745.01513	5337.4375
2747.60079	5321.5375
2750.18486	5319.2375
2752.76733	5320.6375
2755.3482	5311.7375
2757.92747	5305.3375
2760.50515	5304.4375
2763.08123	5316.1375
2765.65573	5299.9375
2768.22863	5310.9375
2770.79994	5301.3375
2773.36967	5307.8375
2775.9378	5295.3375
2778.50435	5312.5375
2781.06932	5305.6375
2783.6327	5295.6375
2786.1945	5283.3375
2788.75471	5297.4375
2791.31335	5278.5375
2793.87041	5262.2375
2796.42589	5255.7375
2798.97979	5256.8375
2801.53212	5254.7375
2804.08288	5230.4375
2806.63206	5220.2375
2809.17967	5221.4375
2811.72571	5203.3375
2814.27018	5214.0375
2816.81308	5195.7375
2819.35442	5196.1375
2821.89419	5185.1375
2824.43239	5178.4375
2826.96904	5182.9375
2829.50412	5178.0375
2832.03763	5157.1375
2834.56959	5158.5375
2837.1	5145.6375
2839.62884	5158.5375
2842.15613	5136.8375
2844.68186	5172.0375
2847.20604	5167.8375
2849.72867	5171.6375
2852.24974	5174.6375
2854.76927	5152.2375
2857.28724	5175.2375
2859.80367	5162.1375
2862.31855	5142.2375
2864.83189	5123.2375
2867.34368	5123.6375
2869.85393	5141.5375
2872.36264	5128.4375
2874.8698	5121.0375
2877.37543	5133.4375
2879.87952	5145.4375
2882.38207	5129.6375
2884.88308	5145.4375
2887.38256	5142.8375
2889.88051	5124.6375
2892.37692	5131.5375
2894.8718	5148.8375
2897.36515	5149.0375
2899.85698	5149.5375
2902.34727	5162.4375
2904.83604	5165.5375
2907.32328	5151.2375
2909.809	5167.3375
2912.29319	5181.4375
2914.77587	5180.5375
2917.25702	5177.7375
2919.73665	5178.8375
2922.21476	5184.7375
2924.69136	5193.3375
2927.16644	5189.2375
2929.64	5185.7375
2932.11205	5180.6375
2934.58258	5165.7375
2937.05161	5184.2375
2939.51912	5171.4375
2941.98513	5175.9375
2944.44962	5145.3375
2946.91261	5123.1375
2949.37409	5137.1375
2951.83407	5147.4375
2954.29254	5122.9375
2956.74951	5128.4375
2959.20498	5122.6375
2961.65895	5093.1375
2964.11142	5088.2375
2966.56239	5046.1375
2969.01186	5059.9375
2971.45984	5039.3375
2973.90632	5022.1375
2976.35131	5008.7375
2978.7948	4998.2375
2981.23681	4971.7375
2983.67732	4951.0375
2986.11635	4953.7375
2988.55388	4939.5375
2990.98993	4928.9375
2993.4245	4902.6375
2995.85758	4894.5375
2998.28917	4886.0375
3000.71928	4886.3375
3003.14791	4889.1375
3005.57506	4863.5375
3008.00073	4858.2375
3010.42493	4855.0375
3012.84764	4834.4375
3015.26888	4839.2375
3017.68865	4834.4375
3020.10694	4814.4375
3022.52376	4800.3375
3024.9391	4794.9375
3027.35298	4801.8375
3029.76539	4770.6375
3032.17632	4777.9375
3034.5858	4770.4375
3036.9938	4765.3375
3039.40034	4762.1375
3041.80542	4763.7375
3044.20903	4736.3375
3046.61118	4727.5375
3049.01187	4728.0375
3051.4111	4728.9375
3053.80888	4715.6375
3056.20519	4709.5375
3058.60005	4688.6375
3060.99345	4693.3375
3063.3854	4667.7375
3065.7759	4660.6375
3068.16494	4657.6375
3070.55254	4638.7375
3072.93868	4640.7375
3075.32338	4621.1375
3077.70662	4625.9375
3080.08842	4593.1375
3082.46878	4601.3375
3084.84769	4597.2375
3087.22515	4583.8375
3089.60118	4588.5375
3091.97576	4592.0375
3094.3489	4594.2375
3096.72061	4588.0375
3099.09087	4594.5375
3101.4597	4583.6375
3103.82709	4582.0375
3106.19305	4575.8375
3108.55757	4575.6375
3110.92066	4562.6375
3113.28232	4552.7375
3115.64255	4544.1375
3118.00134	4544.6375
3120.35871	4539.4375
3122.71466	4529.8375
3125.06917	4510.9375
3127.42226	4509.0375
3129.77393	4511.2375
3132.12417	4510.9375
3134.47299	4515.2375
3136.82039	4521.1375
3139.16636	4518.1375
3141.51092	4516.4375
3143.85406	4529.0375
3146.19579	4529.4375
3148.53609	4523.6375
3150.87499	4510.0375
3153.21246	4511.4375
3155.54853	4538.3375
3157.88318	4515.1375
3160.21642	4544.1375
3162.54826	4539.1375
3164.87868	4551.2375
3167.2077	4548.0375
3169.5353	4538.9375
3171.86151	4533.7375
3174.18631	4545.6375
3176.5097	4535.4375
3178.83169	4514.7375
3181.15228	4526.6375
3183.47147	4521.6375
3185.78926	4527.6375
3188.10565	4505.3375
3190.42065	4522.5375
3192.73424	4524.6375
3195.04645	4524.5375
3197.35725	4521.3375
3199.66667	4540.4375
3201.97469	4545.2375
3204.28132	4539.5375
3206.58656	4536.6375
3208.8904	4544.1375
3211.19287	4547.9375
3213.49394	4554.5375
3215.79363	4542.5375
3218.09193	4530.1375
3220.38884	4547.6375
3222.68438	4552.1375
3224.97853	4524.3375
3227.2713	4541.5375
3229.56269	4526.8375
3231.8527	4522.3375
3234.14133	4515.9375
3236.42858	4518.7375
3238.71446	4510.5375
3240.99896	4497.0375
3243.28209	4507.9375
3245.56384	4502.6375
3247.84423	4506.8375
3250.12324	4488.1375
3252.40088	4496.1375
3254.67715	4483.3375
3256.95205	4473.9375
3259.22558	4481.5375
3261.49775	4459.5375
3263.76855	4450.6375
3266.03799	4441.7375
3268.30606	4420.8375
3270.57277	4429.4375
3272.83812	4413.7375
3275.10211	4406.3375
3277.36474	4419.1375
3279.62601	4418.0375
3281.88593	4403.8375
3284.14448	4411.4375
3286.40168	4429.3375
3288.65753	4402.6375
3290.91202	4399.5375
3293.16516	4393.2375
3295.41695	4372.6375
3297.66738	4345.9375
3299.91647	4344.8375
3302.16421	4312.4375
3304.4106	4300.0375
3306.65564	4274.6375
3308.89933	4249.8375
3311.14169	4232.0375
3313.38269	4188.0375
3315.62236	4173.2375
3317.86068	4140.3375
3320.09766	4107.3375
3322.3333	4065.1375
3324.5676	4066.1375
3326.80056	4027.3375
3329.03219	3991.9375
3331.26248	2.1375
3333.49143	-0.6625
3335.71905	-0.3625
