Data from AgNPs_FTO_APTES_UA_5um_CRN_0.1mM_R6G_10uM_NaF_0.1M_Addition_RamanShift__9__13-07-29-089.txt Node

Date: Tue Dec 21 13:07:29 GMT 2021
User: TCL
Spectrometer: QEP01345
Trigger mode: 4
Integration Time (sec): 7.000000E0
Scans to average: 10
Electric dark correction enabled: true
Nonlinearity correction enabled: false
Boxcar width: 0
XAxis mode: Raman Shifts
Number of Pixels in Spectrum: 1044
>>>>>Begin Spectral Data<<<<<
46.04893	-0.9
50.45542	-0.3
54.85868	-0.9
59.25871	1.1
63.6555	40.8
68.04907	49
72.43941	48.4
76.82654	48.9
81.21044	53.1
85.59113	53.4
89.96862	58.8
94.34289	59.9
98.71396	59.2
103.08183	67
107.4465	69.6
111.80798	65.9
116.16626	67.6
120.52136	69.9
124.87327	71.4
129.222	74.4
133.56755	81.9
137.90993	86.8
142.24913	96.5
146.58517	103.8
150.91804	120.3
155.24774	138.6
159.57429	174.4
163.89768	219.7
168.21792	284.6
172.53501	390.7
176.84895	536.6
181.15975	750.3
185.46741	1050.8
189.77193	1453.3
194.07331	1946
198.37157	2505.7
202.6667	3114.5
206.9587	3720.1
211.24758	4310.3
215.53334	4907.1
219.81599	5554.2
224.09553	6248.4
228.37195	7021.7
232.64527	7841.7
236.91549	8722
241.18261	9605.1
245.44663	10401
249.70755	11119.7
253.96539	11714
258.22014	12198.3
262.4718	12577
266.72039	12837.9
270.96589	12920.3
275.20832	12865.1
279.44768	12769.9
283.68397	12650.7
287.91719	12553.3
292.14735	12479.6
296.37445	12453.5
300.59849	12447.3
304.81948	12526.1
309.03742	12573.4
313.25231	12536
317.46415	12313.2
321.67296	12000.3
325.87872	11708.1
330.08145	11521.2
334.28114	11455.7
338.47781	11482.8
342.67145	11570.5
346.86207	11722.6
351.04966	11898.8
355.23424	12104.5
359.4158	12206.2
363.59435	12345.6
367.76989	12395.4
371.94243	12430.3
376.11196	12417.6
380.27849	12404.1
384.44203	12484.7
388.60257	12611
392.76012	12775.6
396.91468	13017.9
401.06626	13300.1
405.21485	13476.1
409.36047	13426.5
413.50311	13233.3
417.64277	13114.4
421.77947	13112.8
425.9132	13121
430.04396	13209
434.17176	13272.3
438.2966	13286.8
442.41849	13450.5
446.53742	13732
450.6534	14131.5
454.76644	14322.8
458.87653	14394.1
462.98368	14343.2
467.08789	14243.9
471.18916	14093.8
475.2875	13958.6
479.38291	13928
483.4754	13881.1
487.56496	13770.1
491.6516	13546.2
495.73531	13324.3
499.81612	13213.5
503.89401	13238.7
507.96899	13239.7
512.04106	13163.2
516.11023	13052.3
520.1765	12868
524.23987	12704.7
528.30034	12661.2
532.35792	12538.3
536.41261	12399.7
540.46441	12270.3
544.51333	12226.2
548.55936	12350.1
552.60252	12646.1
556.64279	12915.7
560.6802	13183.4
564.71473	13316.3
568.7464	13581.1
572.7752	14095.6
576.80114	14678.3
580.82422	15257.3
584.84444	15914
588.86181	16650.6
592.87633	17261.6
596.888	17206.8
600.89682	16306.4
604.9028	15819.7
608.90594	16433.4
612.90624	17324.4
616.90371	16136.4
620.89834	13567.7
624.89015	12406.1
628.87913	12311.7
632.86528	12531.7
636.84862	12610.4
640.82913	12413.3
644.80683	12047.7
648.78172	11814.7
652.75379	11782.3
656.72306	11874.6
660.68952	12003.2
664.65319	11974.4
668.61405	11816.9
672.57211	11800.1
676.52738	11912.4
680.47986	11939.4
684.42955	11868.3
688.37646	11763.7
692.32058	11740.3
696.26192	11841.2
700.20048	12002
704.13626	12104.1
708.06928	12194.6
711.99952	12189.5
715.927	12143.5
719.85171	12137.9
723.77365	12044.9
727.69284	11860.2
731.60928	11709.1
735.52295	11659
739.43388	11624.8
743.34206	11661.4
747.24749	11723.7
751.15017	11838
755.05012	12058.6
758.94733	12453.8
762.8418	13136.5
766.73354	14157.7
770.62254	15125.3
774.50882	15267.7
778.39237	14509.4
782.27321	13447
786.15132	12549.4
790.02671	11955
793.89938	11624.3
797.76935	11489.6
801.6366	11437.5
805.50115	11399.5
809.36299	11338.4
813.22213	11242.1
817.07857	11208.3
820.93231	11133
824.78336	11029.5
828.63172	10957.4
832.47738	10925.7
836.32036	10889.3
840.16066	10878.4
843.99827	10852.3
847.8332	10836.8
851.66546	10835.6
855.49504	10837.1
859.32195	10814.2
863.1462	10804.4
866.96777	10789.5
870.78668	10775.4
874.60293	10790.6
878.41652	10780.5
882.22745	10836.3
886.03573	10855
889.84136	10898.8
893.64433	10869.5
897.44466	10818.3
901.24235	10741.6
905.0374	10713.4
908.8298	10674.4
912.61957	10670.7
916.40671	10765
920.19121	10919.7
923.97308	11090.3
927.75233	11135.1
931.52895	11024
935.30295	10792.6
939.07433	10519
942.84309	10331.9
946.60924	10209.1
950.37278	10130.8
954.13371	10146.3
957.89203	10141.4
961.64774	10158.2
965.40086	10150.9
969.15137	10114
972.89929	10039.8
976.64461	9952.7
980.38733	9940.8
984.12747	9911.7
987.86502	9924.4
991.59999	10000.8
995.33237	10065.7
999.06217	10216.7
1002.78939	10443.2
1006.51404	10688.2
1010.23611	10892
1013.95561	11065.6
1017.67255	11132.2
1021.38692	11038.2
1025.09872	10844.4
1028.80796	10656.1
1032.51465	10577.2
1036.21877	10597.1
1039.92035	10715.2
1043.61937	10796
1047.31584	10853.9
1051.00976	10882
1054.70114	10885.7
1058.38998	10953.1
1062.07627	11046.5
1065.76003	11219.5
1069.44126	11431.7
1073.11995	11685.3
1076.79611	11884.9
1080.46974	11946.4
1084.14085	11956
1087.80943	12054.1
1091.47549	12200
1095.13903	12298.1
1098.80005	12156.2
1102.45857	11771.1
1106.11456	11377.9
1109.76805	11157.7
1113.41903	11090.6
1117.06751	11173.2
1120.71348	11282
1124.35696	11495.4
1127.99793	11670.5
1131.63641	11860.1
1135.2724	11855.5
1138.90589	11807.6
1142.5369	11844.3
1146.16542	11927.8
1149.79145	12060
1153.415	12190.8
1157.03607	12362.6
1160.65467	12724.1
1164.27079	13326
1167.88443	14128.8
1171.49561	15041.3
1175.10432	16191.3
1178.71056	17493.9
1182.31434	18747.9
1185.91565	19324.5
1189.51451	19305.6
1193.11091	18785.6
1196.70485	18030.3
1200.29634	17169.8
1203.88538	16535.7
1207.47197	16150.8
1211.05612	15947.9
1214.63782	15562.1
1218.21708	15117.1
1221.79391	14658.7
1225.36829	14319.1
1228.94024	14194.6
1232.50976	14057.1
1236.07685	13874.3
1239.6415	13694.9
1243.20374	13625.1
1246.76355	13719.8
1250.32093	13869.3
1253.8759	14157.8
1257.42845	14622.9
1260.97859	15164.6
1264.52631	15650.5
1268.07163	16145.6
1271.61453	16625
1275.15503	17154.1
1278.69312	17760.7
1282.22882	18442.4
1285.76211	19266
1289.29301	20236
1292.82151	21281.2
1296.34761	22380.7
1299.87133	23597.2
1303.39266	24827.1
1306.9116	25887.6
1310.42815	26653.4
1313.94233	27098.6
1317.45412	26923.9
1320.96354	26392.9
1324.47058	25947.4
1327.97525	25631.8
1331.47754	25482.8
1334.97747	25216.4
1338.47502	24943.2
1341.97022	24535.8
1345.46305	24141.1
1348.95352	23945.6
1352.44163	23963.8
1355.92738	24413.6
1359.41078	25402
1362.89183	26333
1366.37053	26329.8
1369.84688	24770.2
1373.32088	22236.7
1376.79254	20117.7
1380.26186	19136.2
1383.72883	18909.8
1387.19347	18722.6
1390.65578	18439.8
1394.11575	18359.2
1397.57339	18469.6
1401.0287	18735.1
1404.48168	18867.8
1407.93234	18778.6
1411.38068	18260.1
1414.82669	17589.1
1418.27039	16808.3
1421.71177	16050.5
1425.15083	15480.7
1428.58758	15196.4
1432.02203	15279.6
1435.45416	15620.9
1438.88399	16044
1442.31151	16352.2
1445.73673	16583.2
1449.15965	16871.8
1452.58027	17035.9
1455.9986	17067.2
1459.41463	17190.1
1462.82837	17501.2
1466.23982	17892.7
1469.64898	18274.4
1473.05586	18447.2
1476.46045	18477.3
1479.86276	18520.9
1483.26279	18444.5
1486.66054	18495.4
1490.05602	18751.2
1493.44922	19146.5
1496.84016	19569.2
1500.22882	20190.2
1503.61521	20839.9
1506.99934	21525.7
1510.38121	21964.2
1513.76081	21924.2
1517.13816	21387.9
1520.51324	20769
1523.88607	20175.7
1527.25665	19922.4
1530.62498	19826.3
1533.99105	19587
1537.35488	19137.7
1540.71647	18563.2
1544.07581	17857.3
1547.4329	17164.4
1550.78776	16600.6
1554.14038	16207.5
1557.49077	16037.4
1560.83892	16026.6
1564.18484	16125.2
1567.52853	16239.5
1570.86999	16451.2
1574.20922	16762
1577.54624	17079.2
1580.88103	17137.7
1584.2136	17140.2
1587.54395	17490
1590.87208	18208.5
1594.19801	19202.8
1597.52172	20222.3
1600.84321	20476
1604.16251	19584.2
1607.47959	17995.3
1610.79447	16299.4
1614.10715	14799.8
1617.41763	13586.9
1620.7259	12775
1624.03199	12347.6
1627.33587	12288.3
1630.63757	12628.7
1633.93707	13485.7
1637.23439	14951
1640.52951	17264.9
1643.82246	20168.7
1647.11321	22738.8
1650.40179	23703.2
1653.68819	22356
1656.97241	19396.6
1660.25446	16241.4
1663.53433	13751.4
1666.81203	12107
1670.08756	11014.8
1673.36092	10377.1
1676.63211	9966.6
1679.90115	9658.8
1683.16801	9463.7
1686.43272	9312.9
1689.69527	9174
1692.95567	9081.3
1696.2139	9054.2
1699.46999	8980.6
1702.72392	8935.9
1705.97571	8900.8
1709.22535	8841.3
1712.47284	8817.6
1715.71819	8773.7
1718.96139	8717.3
1722.20246	8683.7
1725.44139	8656.9
1728.67818	8589.2
1731.91284	8521.7
1735.14537	8470.5
1738.37576	8431.7
1741.60403	8403.1
1744.83017	8362.1
1748.05418	8341.6
1751.27607	8340.1
1754.49584	8366.7
1757.71349	8393
1760.92903	8379.6
1764.14244	8363.5
1767.35375	8324.6
1770.56294	8296.2
1773.77002	8229.6
1776.97499	8177.5
1780.17785	8148.9
1783.37861	8119.3
1786.57727	8074.3
1789.77382	8063.4
1792.96828	8023.6
1796.16064	7985
1799.3509	7970.7
1802.53907	7962.8
1805.72514	7931.5
1808.90913	7905.6
1812.09102	7876.6
1815.27083	7857.1
1818.44856	7833.8
1821.6242	7832.6
1824.79776	7818.7
1827.96924	7828.5
1831.13864	7809.2
1834.30597	7793
1837.47122	7796.7
1840.6344	7775.1
1843.7955	7799.7
1846.95454	7776.8
1850.11151	7772.9
1853.26642	7767.6
1856.41926	7780.1
1859.57004	7760.3
1862.71876	7746.4
1865.86542	7741.1
1869.01003	7719.8
1872.15258	7712.8
1875.29308	7693.8
1878.43152	7664.9
1881.56792	7656.9
1884.70227	7650.5
1887.83457	7624.9
1890.96482	7619.4
1894.09304	7591.6
1897.21921	7603.9
1900.34335	7580.2
1903.46544	7560.8
1906.58551	7567.3
1909.70353	7532.5
1912.81953	7525.1
1915.93349	7509.5
1919.04543	7492.6
1922.15534	7465.6
1925.26322	7457.8
1928.36908	7405
1931.47292	7371.1
1934.57473	7371.2
1937.67453	7372.5
1940.77232	7325
1943.86808	7314.9
1946.96184	7287.7
1950.05358	7262.8
1953.14331	7250.2
1956.23103	7199.7
1959.31675	7195.3
1962.40046	7173.2
1965.48217	7150.7
1968.56188	7121.2
1971.63959	7087.2
1974.7153	7062.9
1977.78901	7061
1980.86073	7035.7
1983.93046	7011.6
1986.99819	7002.5
1990.06394	6929.2
1993.1277	6919.8
1996.18947	6886.1
1999.24925	6889.1
2002.30706	6863.9
2005.36288	6836.3
2008.41672	6808.7
2011.46859	6779.6
2014.51848	6759.4
2017.56639	6750.3
2020.61233	6714.4
2023.6563	6724.3
2026.6983	6718
2029.73833	6703.2
2032.7764	6684.7
2035.8125	6651.7
2038.84664	6622.3
2041.87881	6629.8
2044.90903	6613.7
2047.93729	6602.7
2050.96359	6588.5
2053.98794	6585.1
2057.01034	6566
2060.03078	6560.3
2063.04927	6551
2066.06582	6550.2
2069.08042	6541.1
2072.09307	6527.9
2075.10378	6508.1
2078.11255	6524
2081.11938	6534
2084.12426	6515.4
2087.12722	6521.6
2090.12824	6493.6
2093.12732	6486.8
2096.12447	6489.7
2099.11969	6486.1
2102.11299	6498.3
2105.10435	6501.5
2108.09379	6501.5
2111.08131	6515.7
2114.0669	6511.8
2117.05057	6492.1
2120.03233	6516.1
2123.01216	6505.9
2125.99008	6498.8
2128.96609	6506.7
2131.94018	6504.1
2134.91236	6505.8
2137.88263	6512.8
2140.851	6497.8
2143.81746	6496.7
2146.78201	6494.1
2149.74466	6509
2152.7054	6484.6
2155.66425	6478.8
2158.6212	6467.2
2161.57625	6454.8
2164.52941	6465.8
2167.48067	6468.6
2170.43004	6457.9
2173.37752	6467
2176.32311	6442.1
2179.26681	6448.8
2182.20863	6441.4
2185.14856	6447.2
2188.08661	6453.5
2191.02278	6426.8
2193.95707	6429.9
2196.88948	6412.3
2199.82001	6426.8
2202.74867	6397.4
2205.67545	6393.9
2208.60037	6392.7
2211.52341	6360.3
2214.44458	6371.4
2217.36388	6329.4
2220.28132	6329.1
2223.1969	6336.1
2226.11061	6313.4
2229.02246	6298.7
2231.93245	6279.5
2234.84058	6283.3
2237.74686	6284.3
2240.65128	6259.7
2243.55385	6257.8
2246.45456	6249.7
2249.35343	6225.6
2252.25044	6196.4
2255.14561	6208.7
2258.03893	6188.7
2260.93041	6184.5
2263.82004	6159.8
2266.70783	6146.1
2269.59378	6135.4
2272.4779	6095.1
2275.36017	6090.4
2278.24061	6087.5
2281.11922	6071.8
2283.996	6044.6
2286.87094	6034.6
2289.74405	6009.3
2292.61534	6008.9
2295.4848	5998.9
2298.35243	5996
2301.21824	5988.7
2304.08223	5991.6
2306.94439	5975.5
2309.80474	5969.5
2312.66327	5960.2
2315.51999	5967.8
2318.37489	5955.7
2321.22797	5945.8
2324.07925	5924.9
2326.92871	5925.7
2329.77637	5930.7
2332.62222	5922.1
2335.46626	5924.7
2338.3085	5901.5
2341.14893	5896.7
2343.98756	5901.6
2346.8244	5895.4
2349.65943	5882.3
2352.49267	5882
2355.32411	5871.1
2358.15376	5888.9
2360.98161	5889.3
2363.80768	5894.2
2366.63195	5880
2369.45444	5872.5
2372.27514	5857.3
2375.09405	5849
2377.91118	5845.2
2380.72652	5821.8
2383.54009	5818.5
2386.35187	5799.3
2389.16188	5786
2391.97011	5769.8
2394.77657	5743.1
2397.58125	5741.8
2400.38416	5735.1
2403.18529	5733.7
2405.98466	5711.8
2408.78226	5707.9
2411.57809	5691.6
2414.37216	5690.2
2417.16446	5684.4
2419.955	5688.7
2422.74378	5669.9
2425.5308	5666.6
2428.31606	5668.3
2431.09956	5659.1
2433.88131	5657.9
2436.6613	5656.8
2439.43954	5657.3
2442.21603	5638.8
2444.99077	5627.7
2447.76377	5636.5
2450.53501	5627.3
2453.30451	5626.5
2456.07226	5639.3
2458.83827	5623.7
2461.60254	5630.6
2464.36507	5629.3
2467.12586	5610.3
2469.88492	5604.9
2472.64224	5607.1
2475.39782	5623.3
2478.15167	5620.5
2480.90379	5618.4
2483.65417	5617.4
2486.40283	5599.4
2489.14976	5592.5
2491.89497	5601.8
2494.63845	5604.7
2497.3802	5613.4
2500.12024	5605.1
2502.85855	5584.9
2505.59514	5588.2
2508.33002	5582.5
2511.06318	5561.2
2513.79462	5564.9
2516.52435	5547.5
2519.25237	5548
2521.97867	5528.1
2524.70327	5533.6
2527.42616	5523.6
2530.14734	5515.1
2532.86681	5501.8
2535.58458	5497.3
2538.30065	5477.3
2541.01501	5511.3
2543.72768	5475.4
2546.43864	5476.8
2549.14791	5475.2
2551.85548	5480.9
2554.56136	5455.8
2557.26554	5446.8
2559.96803	5458.9
2562.66883	5434
2565.36794	5433.8
2568.06536	5424.8
2570.7611	5413
2573.45514	5431.1
2576.14751	5424.7
2578.83819	5425.2
2581.52719	5431.8
2584.21451	5397.3
2586.90015	5393.8
2589.58411	5398
2592.2664	5382.2
2594.94701	5385.7
2597.62594	5364.3
2600.30321	5343.9
2602.9788	5362.7
2605.65273	5357.9
2608.32498	5347.2
2610.99557	5348.7
2613.66449	5350.6
2616.33175	5326.3
2618.99734	5353.7
2621.66128	5340.9
2624.32355	5324
2626.98416	5315.3
2629.64311	5322.5
2632.30041	5290
2634.95605	5301.8
2637.61004	5286.8
2640.26238	5288
2642.91306	5308.3
2645.56209	5293
2648.20948	5296.6
2650.85521	5276.4
2653.4993	5288.6
2656.14175	5280.2
2658.78255	5275.7
2661.42171	5275.4
2664.05923	5273.4
2666.6951	5292.6
2669.32934	5291.5
2671.96194	5291.8
2674.59291	5310.2
2677.22224	5291.9
2679.84993	5267.9
2682.476	5283.5
2685.10043	5290.6
2687.72324	5268.5
2690.34441	5265.9
2692.96396	5279.3
2695.58188	5285.3
2698.19818	5279.4
2700.81285	5306.6
2703.4259	5289.3
2706.03733	5344.4
2708.64714	5300.2
2711.25533	5309.4
2713.86191	5292.3
2716.46687	5290.8
2719.07021	5295.2
2721.67194	5286.3
2724.27206	5294.2
2726.87057	5297.1
2729.46747	5302.8
2732.06276	5309.8
2734.65644	5301.9
2737.24852	5287.4
2739.83899	5266.4
2742.42786	5299.9
2745.01513	5274.8
2747.60079	5275.1
2750.18486	5259.6
2752.76733	5262.1
2755.3482	5247
2757.92747	5258.3
2760.50515	5256.2
2763.08123	5242.5
2765.65573	5235.4
2768.22863	5237.6
2770.79994	5243
2773.36967	5248.9
2775.9378	5222.9
2778.50435	5229.9
2781.06932	5212.3
2783.6327	5205.2
2786.1945	5209.4
2788.75471	5222.7
2791.31335	5197.7
2793.87041	5207.4
2796.42589	5179.2
2798.97979	5191.5
2801.53212	5167.9
2804.08288	5154.4
2806.63206	5157.5
2809.17967	5146.9
2811.72571	5146.4
2814.27018	5138.5
2816.81308	5141.9
2819.35442	5120.7
2821.89419	5121.8
2824.43239	5129.5
2826.96904	5116.8
2829.50412	5115.1
2832.03763	5116.8
2834.56959	5114.5
2837.1	5106.2
2839.62884	5109.6
2842.15613	5103.2
2844.68186	5118.7
2847.20604	5147.1
2849.72867	5149.1
2852.24974	5134.2
2854.76927	5150.1
2857.28724	5143.6
2859.80367	5132.9
2862.31855	5105.6
2864.83189	5109.6
2867.34368	5094.2
2869.85393	5092.4
2872.36264	5074.3
2874.8698	5087.5
2877.37543	5081.8
2879.87952	5096.8
2882.38207	5079.7
2884.88308	5086.2
2887.38256	5084.7
2889.88051	5077.9
2892.37692	5096.1
2894.8718	5057.8
2897.36515	5108
2899.85698	5091.8
2902.34727	5099.3
2904.83604	5100.5
2907.32328	5106.2
2909.809	5104
2912.29319	5114.4
2914.77587	5113.9
2917.25702	5118
2919.73665	5133.6
2922.21476	5111.7
2924.69136	5122.6
2927.16644	5134.6
2929.64	5134.7
2932.11205	5113.1
2934.58258	5103.7
2937.05161	5109.4
2939.51912	5116.7
2941.98513	5097.1
2944.44962	5102.8
2946.91261	5077.2
2949.37409	5074
2951.83407	5064.2
2954.29254	5042.2
2956.74951	5043.9
2959.20498	5033
2961.65895	5009
2964.11142	5004.7
2966.56239	4974.4
2969.01186	4965.9
2971.45984	4945.7
2973.90632	4927.6
2976.35131	4923.2
2978.7948	4915.5
2981.23681	4902.5
2983.67732	4879.1
2986.11635	4858.2
2988.55388	4853.4
2990.98993	4829
2993.4245	4828.7
2995.85758	4802.5
2998.28917	4796.8
3000.71928	4782.3
3003.14791	4795.5
3005.57506	4777.2
3008.00073	4769
3010.42493	4764.9
3012.84764	4746.3
3015.26888	4743.4
3017.68865	4734.8
3020.10694	4720.5
3022.52376	4713.9
3024.9391	4728.7
3027.35298	4691.2
3029.76539	4696.7
3032.17632	4678.5
3034.5858	4680.6
3036.9938	4659.7
3039.40034	4641.2
3041.80542	4635
3044.20903	4639.7
3046.61118	4611.9
3049.01187	4604.9
3051.4111	4629.6
3053.80888	4590.6
3056.20519	4597.2
3058.60005	4595.5
3060.99345	4589.3
3063.3854	4574.3
3065.7759	4557.5
3068.16494	4544.5
3070.55254	4533.7
3072.93868	4526.8
3075.32338	4520.1
3077.70662	4497.9
3080.08842	4495.2
3082.46878	4467.8
3084.84769	4466.6
3087.22515	4470.2
3089.60118	4467.4
3091.97576	4452.7
3094.3489	4452.4
3096.72061	4464.5
3099.09087	4468.2
3101.4597	4452.9
3103.82709	4461.9
3106.19305	4445
3108.55757	4445.8
3110.92066	4425
3113.28232	4415.4
3115.64255	4412.3
3118.00134	4400.4
3120.35871	4388.7
3122.71466	4393.4
3125.06917	4377.3
3127.42226	4363.3
3129.77393	4385.9
3132.12417	4377.5
3134.47299	4369.7
3136.82039	4380.5
3139.16636	4374
3141.51092	4368.3
3143.85406	4374.2
3146.19579	4369.7
3148.53609	4376.5
3150.87499	4376
3153.21246	4366.3
3155.54853	4386
3157.88318	4402.3
3160.21642	4383.1
3162.54826	4382.7
3164.87868	4374.3
3167.2077	4383.8
3169.5353	4371.3
3171.86151	4373.5
3174.18631	4388.5
3176.5097	4363.7
3178.83169	4365.6
3181.15228	4373.2
3183.47147	4360.9
3185.78926	4351.7
3188.10565	4351.2
3190.42065	4353.3
3192.73424	4346.6
3195.04645	4343.8
3197.35725	4348
3199.66667	4343.7
3201.97469	4365.3
3204.28132	4332.8
3206.58656	4344
3208.8904	4349.9
3211.19287	4358.3
3213.49394	4350
3215.79363	4331.5
3218.09193	4345.9
3220.38884	4359.8
3222.68438	4359.2
3224.97853	4361.4
3227.2713	4339.8
3229.56269	4331.7
3231.8527	4340.2
3234.14133	4318.3
3236.42858	4304.7
3238.71446	4311.5
3240.99896	4305.7
3243.28209	4296.8
3245.56384	4305.3
3247.84423	4303.5
3250.12324	4287.3
3252.40088	4299.8
3254.67715	4296.7
3256.95205	4287.3
3259.22558	4268.6
3261.49775	4264
3263.76855	4254.7
3266.03799	4242.9
3268.30606	4232.7
3270.57277	4224.7
3272.83812	4219.7
3275.10211	4198.5
3277.36474	4210
3279.62601	4204.3
3281.88593	4196.3
3284.14448	4210.4
3286.40168	4204.8
3288.65753	4206.6
3290.91202	4194.8
3293.16516	4178
3295.41695	4169.6
3297.66738	4153.5
3299.91647	4131.8
3302.16421	4091.2
3304.4106	4091.2
3306.65564	4069.7
3308.89933	4050
3311.14169	4017
3313.38269	3986.9
3315.62236	3966.7
3317.86068	3933.8
3320.09766	3886
3322.3333	3849
3324.5676	3861.5
3326.80056	3807
3329.03219	3789.3
3331.26248	0.9
3333.49143	-0.7
3335.71905	-0.3
