Data from AgNPs_FTO_APTES_UA_0um_CRN_0.1mM_R6G_10uM_NaF_0.1M_Addition_RamanShift__59__11-20-08-967.txt Node

Date: Tue Dec 21 11:20:08 GMT 2021
User: TCL
Spectrometer: QEP01345
Trigger mode: 4
Integration Time (sec): 7.000000E0
Scans to average: 10
Electric dark correction enabled: true
Nonlinearity correction enabled: false
Boxcar width: 0
XAxis mode: Raman Shifts
Number of Pixels in Spectrum: 1044
>>>>>Begin Spectral Data<<<<<
46.04893	-0.8125
50.45542	-0.5125
54.85868	-0.5125
59.25871	0.9875
63.6555	48.5875
68.04907	55.1875
72.43941	60.3875
76.82654	59.3875
81.21044	65.2875
85.59113	65.3875
89.96862	64.3875
94.34289	67.2875
98.71396	65.9875
103.08183	74.9875
107.4465	76.8875
111.80798	79.7875
116.16626	78.0875
120.52136	83.8875
124.87327	86.6875
129.222	86.5875
133.56755	93.3875
137.90993	107.2875
142.24913	114.2875
146.58517	128.2875
150.91804	146.7875
155.24774	182.1875
159.57429	220.9875
163.89768	290.2875
168.21792	378.5875
172.53501	513.7875
176.84895	716.6875
181.15975	999.3875
185.46741	1401.8875
189.77193	1921.7875
194.07331	2584.3875
198.37157	3327.9875
202.6667	4107.2875
206.9587	4914.2875
211.24758	5692.6875
215.53334	6501.9875
219.81599	7387.7875
224.09553	8358.2875
228.37195	9441.2875
232.64527	10590.8875
236.91549	11775.3875
241.18261	12919.5875
245.44663	13885.4875
249.70755	14727.7875
253.96539	15469.3875
258.22014	16093.2875
262.4718	16604.5875
266.72039	17003.0875
270.96589	17200.8875
275.20832	17260.1875
279.44768	17174.3875
283.68397	17155.3875
287.91719	17130.3875
292.14735	17145.9875
296.37445	17279.1875
300.59849	17551.6875
304.81948	17914.1875
309.03742	18128.5875
313.25231	18004.7875
317.46415	17362.1875
321.67296	16351.3875
325.87872	15497.6875
330.08145	15125.5875
334.28114	15076.2875
338.47781	15255.7875
342.67145	15519.7875
346.86207	16001.5875
351.04966	16665.5875
355.23424	17435.4875
359.4158	18100.6875
363.59435	18390.0875
367.76989	18470.5875
371.94243	18409.5875
376.11196	18338.5875
380.27849	18293.2875
384.44203	18242.0875
388.60257	18125.8875
392.76012	18146.1875
396.91468	18385.6875
401.06626	18819.5875
405.21485	19223.3875
409.36047	19128.4875
413.50311	18466.5875
417.64277	17934.9875
421.77947	17766.2875
425.9132	17807.2875
430.04396	17978.1875
434.17176	18213.6875
438.2966	18494.3875
442.41849	19064.9875
446.53742	19896.7875
450.6534	20794.6875
454.76644	21346.6875
458.87653	21375.2875
462.98368	20981.7875
467.08789	20460.9875
471.18916	19994.4875
475.2875	19606.1875
479.38291	19444.9875
483.4754	19239.7875
487.56496	18936.8875
491.6516	18519.8875
495.73531	18169.8875
499.81612	18057.8875
503.89401	18184.5875
507.96899	18263.8875
512.04106	18188.6875
516.11023	18010.9875
520.1765	17820.3875
524.23987	17619.1875
528.30034	17423.4875
532.35792	17168.0875
536.41261	16889.1875
540.46441	16497.0875
544.51333	16312.1875
548.55936	16476.7875
552.60252	16921.7875
556.64279	17633.5875
560.6802	18147.8875
564.71473	18663.2875
568.7464	19633.4875
572.7752	20490.2875
576.80114	20458.5875
580.82422	20136.0875
584.84444	20072.2875
588.86181	20399.6875
592.87633	21112.4875
596.888	21659.4875
600.89682	21611.9875
604.9028	22263.0875
608.90594	25409.6875
612.90624	29718.9875
616.90371	28251.6875
620.89834	21189.8875
624.89015	17816.4875
628.87913	17348.5875
632.86528	17408.5875
636.84862	17343.6875
640.82913	16976.4875
644.80683	16239.1875
648.78172	15710.6875
652.75379	15624.5875
656.72306	16015.7875
660.68952	16604.1875
664.65319	16619.5875
668.61405	16107.7875
672.57211	15830.0875
676.52738	15823.5875
680.47986	15787.0875
684.42955	15712.0875
688.37646	15613.4875
692.32058	15648.7875
696.26192	15823.0875
700.20048	16071.5875
704.13626	16278.9875
708.06928	16263.6875
711.99952	16109.3875
715.927	15989.7875
719.85171	15965.7875
723.77365	15905.1875
727.69284	15689.3875
731.60928	15548.9875
735.52295	15545.0875
739.43388	15640.6875
743.34206	15721.5875
747.24749	15866.9875
751.15017	16076.9875
755.05012	16493.5875
758.94733	17254.8875
762.8418	18767.4875
766.73354	21335.0875
770.62254	23766.3875
774.50882	24552.8875
778.39237	23213.9875
782.27321	20523.3875
786.15132	18080.4875
790.02671	16605.8875
793.89938	15911.9875
797.76935	15614.2875
801.6366	15529.1875
805.50115	15446.8875
809.36299	15368.0875
813.22213	15295.0875
817.07857	15191.3875
820.93231	15203.7875
824.78336	15186.4875
828.63172	15247.9875
832.47738	15246.8875
836.32036	15261.4875
840.16066	15238.8875
843.99827	15214.9875
847.8332	15104.1875
851.66546	14987.5875
855.49504	14996.5875
859.32195	14992.4875
863.1462	14888.6875
866.96777	14795.7875
870.78668	14763.0875
874.60293	14757.4875
878.41652	14786.6875
882.22745	14891.1875
886.03573	14920.3875
889.84136	14888.4875
893.64433	14794.5875
897.44466	14707.5875
901.24235	14669.3875
905.0374	14601.2875
908.8298	14528.4875
912.61957	14530.8875
916.40671	14670.3875
920.19121	14922.1875
923.97308	15192.8875
927.75233	15349.4875
931.52895	15360.5875
935.30295	15167.5875
939.07433	14676.3875
942.84309	14256.6875
946.60924	14049.1875
950.37278	13946.1875
954.13371	13902.3875
957.89203	13800.1875
961.64774	13762.4875
965.40086	13726.0875
969.15137	13659.7875
972.89929	13572.3875
976.64461	13513.2875
980.38733	13539.5875
984.12747	13600.3875
987.86502	13726.6875
991.59999	13944.3875
995.33237	14299.4875
999.06217	14908.9875
1002.78939	15719.8875
1006.51404	16273.7875
1010.23611	16652.5875
1013.95561	16783.9875
1017.67255	16666.9875
1021.38692	16186.3875
1025.09872	15778.4875
1028.80796	15658.3875
1032.51465	16003.5875
1036.21877	16385.5875
1039.92035	16503.8875
1043.61937	16361.4875
1047.31584	16027.4875
1051.00976	15637.5875
1054.70114	15442.4875
1058.38998	15354.1875
1062.07627	15421.5875
1065.76003	15521.4875
1069.44126	15697.6875
1073.11995	15995.1875
1076.79611	16207.5875
1080.46974	16363.0875
1084.14085	16661.4875
1087.80943	17031.2875
1091.47549	17293.6875
1095.13903	17170.1875
1098.80005	16683.2875
1102.45857	16086.2875
1106.11456	15734.2875
1109.76805	15667.8875
1113.41903	15851.0875
1117.06751	16175.2875
1120.71348	16590.0875
1124.35696	17110.2875
1127.99793	17533.7875
1131.63641	17608.0875
1135.2724	17130.7875
1138.90589	16670.0875
1142.5369	16428.4875
1146.16542	16346.6875
1149.79145	16346.4875
1153.415	16443.3875
1157.03607	16680.7875
1160.65467	17097.1875
1164.27079	17855.7875
1167.88443	19095.4875
1171.49561	20965.5875
1175.10432	23686.9875
1178.71056	27135.4875
1182.31434	29980.5875
1185.91565	31052.6875
1189.51451	30593.5875
1193.11091	29201.4875
1196.70485	27430.5875
1200.29634	25681.1875
1203.88538	24152.1875
1207.47197	22719.7875
1211.05612	21670.3875
1214.63782	21136.5875
1218.21708	21132.7875
1221.79391	21327.3875
1225.36829	21355.3875
1228.94024	21051.3875
1232.50976	20412.2875
1236.07685	19848.7875
1239.6415	19516.2875
1243.20374	19415.2875
1246.76355	19483.1875
1250.32093	19817.8875
1253.8759	20330.2875
1257.42845	21102.4875
1260.97859	21912.5875
1264.52631	22577.4875
1268.07163	23312.6875
1271.61453	24098.6875
1275.15503	24860.3875
1278.69312	25553.3875
1282.22882	26240.6875
1285.76211	26994.8875
1289.29301	28070.4875
1292.82151	29413.0875
1296.34761	31072.6875
1299.87133	33139.5875
1303.39266	35878.0875
1306.9116	39501.9875
1310.42815	43488.9875
1313.94233	46355.5875
1317.45412	46723.3875
1320.96354	45258.2875
1324.47058	43178.8875
1327.97525	41212.6875
1331.47754	39648.0875
1334.97747	38760.2875
1338.47502	38557.0875
1341.97022	38427.0875
1345.46305	37982.1875
1348.95352	37465.6875
1352.44163	37480.0875
1355.92738	38948.0875
1359.41078	42027.5875
1362.89183	45326.7875
1366.37053	45039.5875
1369.84688	40580.5875
1373.32088	35118.2875
1376.79254	31140.8875
1380.26186	29224.2875
1383.72883	28488.0875
1387.19347	28177.9875
1390.65578	27998.2875
1394.11575	28294.6875
1397.57339	29217.0875
1401.0287	30544.6875
1404.48168	31681.2875
1407.93234	32362.9875
1411.38068	32300.3875
1414.82669	31378.6875
1418.27039	29707.2875
1421.71177	27772.7875
1425.15083	26033.0875
1428.58758	25082.3875
1432.02203	24856.1875
1435.45416	25178.6875
1438.88399	25662.9875
1442.31151	26091.0875
1445.73673	26589.2875
1449.15965	27189.6875
1452.58027	27511.1875
1455.9986	27572.7875
1459.41463	27736.0875
1462.82837	28267.2875
1466.23982	29170.9875
1469.64898	29967.8875
1473.05586	30353.6875
1476.46045	30395.0875
1479.86276	30334.6875
1483.26279	30255.1875
1486.66054	30185.6875
1490.05602	30429.6875
1493.44922	30664.8875
1496.84016	30806.5875
1500.22882	31219.5875
1503.61521	32388.4875
1506.99934	34145.1875
1510.38121	36117.7875
1513.76081	37246.3875
1517.13816	36401.5875
1520.51324	33828.6875
1523.88607	31149.2875
1527.25665	29311.4875
1530.62498	28393.5875
1533.99105	27986.5875
1537.35488	27879.7875
1540.71647	27724.2875
1544.07581	27407.3875
1547.4329	26847.4875
1550.78776	26229.5875
1554.14038	25642.1875
1557.49077	25354.3875
1560.83892	25377.8875
1564.18484	25602.2875
1567.52853	25830.0875
1570.86999	26096.9875
1574.20922	26348.3875
1577.54624	26436.1875
1580.88103	25975.8875
1584.2136	25474.3875
1587.54395	25965.3875
1590.87208	27640.6875
1594.19801	30305.6875
1597.52172	33457.4875
1600.84321	35254.8875
1604.16251	34240.1875
1607.47959	31080.1875
1610.79447	27109.4875
1614.10715	23602.4875
1617.41763	20967.2875
1620.7259	19356.9875
1624.03199	18564.8875
1627.33587	18494.3875
1630.63757	19073.4875
1633.93707	20443.4875
1637.23439	22683.8875
1640.52951	25984.5875
1643.82246	30039.9875
1647.11321	33993.5875
1650.40179	35880.8875
1653.68819	34184.9875
1656.97241	29386.5875
1660.25446	24080.0875
1663.53433	20027.3875
1666.81203	17433.8875
1670.08756	15957.1875
1673.36092	15034.0875
1676.63211	14492.7875
1679.90115	14117.9875
1683.16801	13810.7875
1686.43272	13575.9875
1689.69527	13442.0875
1692.95567	13314.4875
1696.2139	13222.2875
1699.46999	13161.9875
1702.72392	13134.6875
1705.97571	13085.1875
1709.22535	13026.1875
1712.47284	12989.0875
1715.71819	12984.5875
1718.96139	12962.1875
1722.20246	12925.4875
1725.44139	12858.2875
1728.67818	12773.7875
1731.91284	12709.3875
1735.14537	12619.9875
1738.37576	12562.7875
1741.60403	12500.6875
1744.83017	12457.4875
1748.05418	12456.3875
1751.27607	12424.1875
1754.49584	12411.8875
1757.71349	12389.5875
1760.92903	12372.4875
1764.14244	12319.6875
1767.35375	12315.8875
1770.56294	12272.8875
1773.77002	12221.1875
1776.97499	12206.7875
1780.17785	12183.5875
1783.37861	12163.5875
1786.57727	12108.2875
1789.77382	12086.4875
1792.96828	12047.6875
1796.16064	12022.5875
1799.3509	12006.2875
1802.53907	12006.7875
1805.72514	11954.5875
1808.90913	11889.8875
1812.09102	11889.1875
1815.27083	11842.0875
1818.44856	11826.0875
1821.6242	11783.3875
1824.79776	11809.4875
1827.96924	11768.8875
1831.13864	11753.7875
1834.30597	11735.7875
1837.47122	11745.1875
1840.6344	11714.7875
1843.7955	11741.8875
1846.95454	11731.6875
1850.11151	11738.0875
1853.26642	11724.1875
1856.41926	11746.0875
1859.57004	11777.9875
1862.71876	11756.3875
1865.86542	11741.5875
1869.01003	11754.7875
1872.15258	11756.7875
1875.29308	11751.8875
1878.43152	11753.4875
1881.56792	11772.4875
1884.70227	11753.3875
1887.83457	11792.5875
1890.96482	11804.0875
1894.09304	11784.3875
1897.21921	11805.0875
1900.34335	11785.2875
1903.46544	11810.7875
1906.58551	11824.0875
1909.70353	11805.3875
1912.81953	11805.7875
1915.93349	11771.4875
1919.04543	11771.2875
1922.15534	11727.8875
1925.26322	11715.5875
1928.36908	11678.6875
1931.47292	11626.3875
1934.57473	11586.1875
1937.67453	11527.0875
1940.77232	11488.5875
1943.86808	11434.2875
1946.96184	11382.0875
1950.05358	11339.2875
1953.14331	11281.5875
1956.23103	11223.8875
1959.31675	11184.2875
1962.40046	11164.9875
1965.48217	11132.9875
1968.56188	11104.7875
1971.63959	11071.8875
1974.7153	11025.2875
1977.78901	10965.3875
1980.86073	10936.9875
1983.93046	10907.2875
1986.99819	10866.5875
1990.06394	10816.9875
1993.1277	10799.3875
1996.18947	10751.9875
1999.24925	10713.0875
2002.30706	10712.0875
2005.36288	10664.9875
2008.41672	10640.5875
2011.46859	10611.4875
2014.51848	10568.5875
2017.56639	10530.8875
2020.61233	10510.3875
2023.6563	10488.3875
2026.6983	10477.1875
2029.73833	10445.1875
2032.7764	10433.4875
2035.8125	10389.9875
2038.84664	10381.1875
2041.87881	10371.8875
2044.90903	10352.4875
2047.93729	10348.1875
2050.96359	10327.0875
2053.98794	10335.5875
2057.01034	10330.0875
2060.03078	10313.1875
2063.04927	10266.3875
2066.06582	10268.9875
2069.08042	10246.3875
2072.09307	10231.4875
2075.10378	10225.5875
2078.11255	10220.9875
2081.11938	10240.7875
2084.12426	10204.0875
2087.12722	10194.3875
2090.12824	10189.2875
2093.12732	10197.6875
2096.12447	10188.7875
2099.11969	10188.2875
2102.11299	10176.1875
2105.10435	10196.7875
2108.09379	10192.3875
2111.08131	10185.0875
2114.0669	10180.3875
2117.05057	10143.6875
2120.03233	10186.7875
2123.01216	10173.4875
2125.99008	10170.2875
2128.96609	10173.4875
2131.94018	10165.4875
2134.91236	10171.0875
2137.88263	10209.2875
2140.851	10159.9875
2143.81746	10199.4875
2146.78201	10193.0875
2149.74466	10183.1875
2152.7054	10168.1875
2155.66425	10180.8875
2158.6212	10177.1875
2161.57625	10184.7875
2164.52941	10165.0875
2167.48067	10160.7875
2170.43004	10178.5875
2173.37752	10154.0875
2176.32311	10161.2875
2179.26681	10156.8875
2182.20863	10130.7875
2185.14856	10167.7875
2188.08661	10156.5875
2191.02278	10152.4875
2193.95707	10153.2875
2196.88948	10147.1875
2199.82001	10135.2875
2202.74867	10131.2875
2205.67545	10128.1875
2208.60037	10106.7875
2211.52341	10090.5875
2214.44458	10078.7875
2217.36388	10074.5875
2220.28132	10036.4875
2223.1969	10038.6875
2226.11061	9984.0875
2229.02246	9985.9875
2231.93245	9980.7875
2234.84058	9949.3875
2237.74686	9932.5875
2240.65128	9928.1875
2243.55385	9894.0875
2246.45456	9883.0875
2249.35343	9872.1875
2252.25044	9862.3875
2255.14561	9832.6875
2258.03893	9853.6875
2260.93041	9838.6875
2263.82004	9799.0875
2266.70783	9777.9875
2269.59378	9737.3875
2272.4779	9738.5875
2275.36017	9677.4875
2278.24061	9674.2875
2281.11922	9653.2875
2283.996	9624.1875
2286.87094	9615.3875
2289.74405	9589.6875
2292.61534	9588.6875
2295.4848	9595.7875
2298.35243	9580.2875
2301.21824	9573.2875
2304.08223	9576.5875
2306.94439	9590.3875
2309.80474	9563.9875
2312.66327	9581.0875
2315.51999	9576.0875
2318.37489	9575.2875
2321.22797	9571.1875
2324.07925	9541.3875
2326.92871	9554.4875
2329.77637	9542.9875
2332.62222	9523.5875
2335.46626	9538.6875
2338.3085	9524.6875
2341.14893	9540.3875
2343.98756	9542.5875
2346.8244	9556.1875
2349.65943	9555.3875
2352.49267	9554.9875
2355.32411	9564.7875
2358.15376	9554.3875
2360.98161	9535.5875
2363.80768	9522.8875
2366.63195	9555.0875
2369.45444	9527.9875
2372.27514	9495.7875
2375.09405	9479.1875
2377.91118	9476.9875
2380.72652	9445.4875
2383.54009	9410.5875
2386.35187	9370.3875
2389.16188	9328.1875
2391.97011	9322.0875
2394.77657	9326.1875
2397.58125	9314.2875
2400.38416	9293.1875
2403.18529	9251.8875
2405.98466	9251.7875
2408.78226	9210.2875
2411.57809	9198.4875
2414.37216	9165.1875
2417.16446	9174.6875
2419.955	9135.6875
2422.74378	9167.3875
2425.5308	9144.4875
2428.31606	9130.3875
2431.09956	9101.1875
2433.88131	9096.3875
2436.6613	9130.0875
2439.43954	9128.6875
2442.21603	9105.0875
2444.99077	9114.8875
2447.76377	9121.5875
2450.53501	9126.0875
2453.30451	9125.4875
2456.07226	9090.6875
2458.83827	9096.7875
2461.60254	9099.4875
2464.36507	9092.4875
2467.12586	9087.4875
2469.88492	9096.2875
2472.64224	9118.1875
2475.39782	9129.9875
2478.15167	9129.3875
2480.90379	9119.5875
2483.65417	9132.7875
2486.40283	9146.1875
2489.14976	9175.8875
2491.89497	9183.1875
2494.63845	9215.9875
2497.3802	9191.3875
2500.12024	9183.2875
2502.85855	9171.4875
2505.59514	9173.3875
2508.33002	9145.0875
2511.06318	9130.4875
2513.79462	9116.4875
2516.52435	9089.1875
2519.25237	9082.9875
2521.97867	9076.2875
2524.70327	9049.8875
2527.42616	9043.6875
2530.14734	9052.0875
2532.86681	9009.4875
2535.58458	9026.3875
2538.30065	9012.4875
2541.01501	9004.7875
2543.72768	8997.1875
2546.43864	9004.2875
2549.14791	9010.3875
2551.85548	8987.6875
2554.56136	8971.7875
2557.26554	8973.7875
2559.96803	8953.0875
2562.66883	8980.3875
2565.36794	8951.8875
2568.06536	8980.8875
2570.7611	8952.9875
2573.45514	8955.6875
2576.14751	8958.2875
2578.83819	8942.6875
2581.52719	8921.0875
2584.21451	8929.5875
2586.90015	8930.6875
2589.58411	8928.5875
2592.2664	8919.2875
2594.94701	8929.6875
2597.62594	8942.3875
2600.30321	8913.9875
2602.9788	8901.7875
2605.65273	8906.7875
2608.32498	8921.7875
2610.99557	8925.2875
2613.66449	8929.9875
2616.33175	8920.4875
2618.99734	8926.9875
2621.66128	8943.6875
2624.32355	8922.2875
2626.98416	8917.7875
2629.64311	8913.3875
2632.30041	8953.8875
2634.95605	8935.6875
2637.61004	8934.9875
2640.26238	8927.0875
2642.91306	8890.9875
2645.56209	8876.9875
2648.20948	8868.2875
2650.85521	8855.0875
2653.4993	8849.6875
2656.14175	8882.6875
2658.78255	8871.9875
2661.42171	8851.4875
2664.05923	8883.3875
2666.6951	8899.4875
2669.32934	8910.4875
2671.96194	8924.1875
2674.59291	8915.0875
2677.22224	8915.1875
2679.84993	8900.7875
2682.476	8885.5875
2685.10043	8864.0875
2687.72324	8862.6875
2690.34441	8883.2875
2692.96396	8864.3875
2695.58188	8869.1875
2698.19818	8852.8875
2700.81285	8837.8875
2703.4259	8895.9875
2706.03733	8937.1875
2708.64714	8901.0875
2711.25533	8916.7875
2713.86191	8877.4875
2716.46687	8914.0875
2719.07021	8907.4875
2721.67194	8921.8875
2724.27206	8887.0875
2726.87057	8905.9875
2729.46747	8880.5875
2732.06276	8911.8875
2734.65644	8914.6875
2737.24852	8920.6875
2739.83899	8875.8875
2742.42786	8923.9875
2745.01513	8885.7875
2747.60079	8876.5875
2750.18486	8886.6875
2752.76733	8850.6875
2755.3482	8886.4875
2757.92747	8904.6875
2760.50515	8883.4875
2763.08123	8869.4875
2765.65573	8854.2875
2768.22863	8886.3875
2770.79994	8904.6875
2773.36967	8890.8875
2775.9378	8904.1875
2778.50435	8891.0875
2781.06932	8884.9875
2783.6327	8905.4875
2786.1945	8891.8875
2788.75471	8892.8875
2791.31335	8890.5875
2793.87041	8860.4875
2796.42589	8838.9875
2798.97979	8844.2875
2801.53212	8825.6875
2804.08288	8847.5875
2806.63206	8803.0875
2809.17967	8811.1875
2811.72571	8803.0875
2814.27018	8783.7875
2816.81308	8779.1875
2819.35442	8761.4875
2821.89419	8779.1875
2824.43239	8790.9875
2826.96904	8785.6875
2829.50412	8779.2875
2832.03763	8747.6875
2834.56959	8746.1875
2837.1	8742.9875
2839.62884	8752.2875
2842.15613	8750.2875
2844.68186	8777.8875
2847.20604	8810.1875
2849.72867	8809.7875
2852.24974	8812.3875
2854.76927	8796.9875
2857.28724	8805.4875
2859.80367	8775.3875
2862.31855	8780.4875
2864.83189	8768.0875
2867.34368	8757.9875
2869.85393	8732.4875
2872.36264	8758.2875
2874.8698	8727.9875
2877.37543	8732.6875
2879.87952	8755.8875
2882.38207	8743.8875
2884.88308	8731.3875
2887.38256	8772.1875
2889.88051	8757.6875
2892.37692	8758.7875
2894.8718	8733.3875
2897.36515	8776.3875
2899.85698	8770.7875
2902.34727	8797.6875
2904.83604	8797.0875
2907.32328	8810.9875
2909.809	8801.9875
2912.29319	8804.0875
2914.77587	8815.4875
2917.25702	8803.7875
2919.73665	8804.6875
2922.21476	8811.1875
2924.69136	8786.5875
2927.16644	8804.6875
2929.64	8768.9875
2932.11205	8756.1875
2934.58258	8702.4875
2937.05161	8722.1875
2939.51912	8734.5875
2941.98513	8688.1875
2944.44962	8650.8875
2946.91261	8625.3875
2949.37409	8633.0875
2951.83407	8622.9875
2954.29254	8609.0875
2956.74951	8580.0875
2959.20498	8576.0875
2961.65895	8528.7875
2964.11142	8515.9875
2966.56239	8496.8875
2969.01186	8479.6875
2971.45984	8444.6875
2973.90632	8405.3875
2976.35131	8411.0875
2978.7948	8383.6875
2981.23681	8365.5875
2983.67732	8316.4875
2986.11635	8300.8875
2988.55388	8279.6875
2990.98993	8264.2875
2993.4245	8254.2875
2995.85758	8227.9875
2998.28917	8217.6875
3000.71928	8217.0875
3003.14791	8197.1875
3005.57506	8186.8875
3008.00073	8148.0875
3010.42493	8137.4875
3012.84764	8136.5875
3015.26888	8117.2875
3017.68865	8096.5875
3020.10694	8078.8875
3022.52376	8049.1875
3024.9391	8030.6875
3027.35298	8008.9875
3029.76539	8003.3875
3032.17632	8008.0875
3034.5858	7950.0875
3036.9938	7988.1875
3039.40034	7960.8875
3041.80542	7966.7875
3044.20903	7931.0875
3046.61118	7941.9875
3049.01187	7914.9875
3051.4111	7908.1875
3053.80888	7898.3875
3056.20519	7888.0875
3058.60005	7845.5875
3060.99345	7845.4875
3063.3854	7795.8875
3065.7759	7761.3875
3068.16494	7727.3875
3070.55254	7713.6875
3072.93868	7707.0875
3075.32338	7694.7875
3077.70662	7655.8875
3080.08842	7619.4875
3082.46878	7628.4875
3084.84769	7597.3875
3087.22515	7599.2875
3089.60118	7602.9875
3091.97576	7602.1875
3094.3489	7592.6875
3096.72061	7584.3875
3099.09087	7584.3875
3101.4597	7549.1875
3103.82709	7563.9875
3106.19305	7533.6875
3108.55757	7533.2875
3110.92066	7506.3875
3113.28232	7494.5875
3115.64255	7465.8875
3118.00134	7461.8875
3120.35871	7456.1875
3122.71466	7440.4875
3125.06917	7431.2875
3127.42226	7402.2875
3129.77393	7411.8875
3132.12417	7417.1875
3134.47299	7409.6875
3136.82039	7402.5875
3139.16636	7398.0875
3141.51092	7397.4875
3143.85406	7370.0875
3146.19579	7373.3875
3148.53609	7390.3875
3150.87499	7380.6875
3153.21246	7378.2875
3155.54853	7373.1875
3157.88318	7390.7875
3160.21642	7384.9875
3162.54826	7358.3875
3164.87868	7355.0875
3167.2077	7353.8875
3169.5353	7348.8875
3171.86151	7345.3875
3174.18631	7321.8875
3176.5097	7303.6875
3178.83169	7321.8875
3181.15228	7318.3875
3183.47147	7311.0875
3185.78926	7301.9875
3188.10565	7309.9875
3190.42065	7320.0875
3192.73424	7305.2875
3195.04645	7307.8875
3197.35725	7312.7875
3199.66667	7312.8875
3201.97469	7312.7875
3204.28132	7300.3875
3206.58656	7324.2875
3208.8904	7323.1875
3211.19287	7298.3875
3213.49394	7301.8875
3215.79363	7307.9875
3218.09193	7276.2875
3220.38884	7309.1875
3222.68438	7303.0875
3224.97853	7300.0875
3227.2713	7279.9875
3229.56269	7295.0875
3231.8527	7277.3875
3234.14133	7278.6875
3236.42858	7250.3875
3238.71446	7248.6875
3240.99896	7227.8875
3243.28209	7253.4875
3245.56384	7239.7875
3247.84423	7245.2875
3250.12324	7227.7875
3252.40088	7216.6875
3254.67715	7205.1875
3256.95205	7207.2875
3259.22558	7171.8875
3261.49775	7163.9875
3263.76855	7166.5875
3266.03799	7133.9875
3268.30606	7124.4875
3270.57277	7106.8875
3272.83812	7084.6875
3275.10211	7086.3875
3277.36474	7091.5875
3279.62601	7095.6875
3281.88593	7083.7875
3284.14448	7096.9875
3286.40168	7093.6875
3288.65753	7091.6875
3290.91202	7077.5875
3293.16516	7052.7875
3295.41695	7043.3875
3297.66738	6997.3875
3299.91647	6962.4875
3302.16421	6913.9875
3304.4106	6898.7875
3306.65564	6839.6875
3308.89933	6803.9875
3311.14169	6782.6875
3313.38269	6728.7875
3315.62236	6678.0875
3317.86068	6620.7875
3320.09766	6573.3875
3322.3333	6502.4875
3324.5676	6505.0875
3326.80056	6412.4875
3329.03219	6386.7875
3331.26248	2.3875
3333.49143	-0.0125
3335.71905	-0.9125
