Data from AgNPs_FTO_APTES_UA_2um_CRN_0.1mM_R6G_10uM_NaF_0.1M_Addition_RamanShift__6__12-21-59-038.txt Node

Date: Tue Dec 21 12:21:59 GMT 2021
User: TCL
Spectrometer: QEP01345
Trigger mode: 4
Integration Time (sec): 7.000000E0
Scans to average: 10
Electric dark correction enabled: true
Nonlinearity correction enabled: false
Boxcar width: 0
XAxis mode: Raman Shifts
Number of Pixels in Spectrum: 1044
>>>>>Begin Spectral Data<<<<<
46.04893	0.1
50.45542	0.1
54.85868	-0.6
59.25871	0
63.6555	49.1
68.04907	53.6
72.43941	56.9
76.82654	55.6
81.21044	62.1
85.59113	62
89.96862	66.9
94.34289	66
98.71396	64.8
103.08183	73.7
107.4465	78.3
111.80798	76.1
116.16626	76.7
120.52136	80.3
124.87327	82.2
129.222	82.4
133.56755	91.3
137.90993	102.7
142.24913	104.9
146.58517	122.9
150.91804	140.3
155.24774	167.4
159.57429	203.1
163.89768	264.7
168.21792	352.5
172.53501	468.3
176.84895	653.8
181.15975	917.4
185.46741	1276.3
189.77193	1761.9
194.07331	2356
198.37157	3034
202.6667	3744.3
206.9587	4462
211.24758	5172.8
215.53334	5900.6
219.81599	6659.9
224.09553	7477.6
228.37195	8426.6
232.64527	9427.4
236.91549	10463.7
241.18261	11492.3
245.44663	12419.6
249.70755	13202.6
253.96539	13891.2
258.22014	14433.2
262.4718	14879.5
266.72039	15157
270.96589	15266.8
275.20832	15216.7
279.44768	15065.8
283.68397	14891
287.91719	14787.3
292.14735	14696.5
296.37445	14690.4
300.59849	14745.4
304.81948	14839.5
309.03742	14953.8
313.25231	14976.5
317.46415	14870.4
321.67296	14611.5
325.87872	14374.6
330.08145	14190.5
334.28114	14084.4
338.47781	14096.8
342.67145	14260.4
346.86207	14466.6
351.04966	14738.7
355.23424	14995.6
359.4158	15223.7
363.59435	15331.1
367.76989	15347.1
371.94243	15340.9
376.11196	15324.8
380.27849	15340.8
384.44203	15458.3
388.60257	15620.5
392.76012	15810.3
396.91468	16096.1
401.06626	16348
405.21485	16469.1
409.36047	16415.7
413.50311	16204.6
417.64277	16228.3
421.77947	16378.4
425.9132	16617.5
430.04396	16738.1
434.17176	16795.8
438.2966	16918
442.41849	17247.5
446.53742	17956
450.6534	18663.7
454.76644	19025.6
458.87653	18888
462.98368	18496.4
467.08789	18083.1
471.18916	17589.8
475.2875	17101.5
479.38291	16749
483.4754	16611.3
487.56496	16427
491.6516	16136.4
495.73531	15916.5
499.81612	15806.2
503.89401	15895
507.96899	15997.9
512.04106	15900.8
516.11023	15602.2
520.1765	15286.6
524.23987	15150.4
528.30034	15097.6
532.35792	14990.7
536.41261	14719.8
540.46441	14443.5
544.51333	14319.3
548.55936	14455.1
552.60252	14900.9
556.64279	15562.1
560.6802	16166
564.71473	16339.5
568.7464	16499.3
572.7752	17126.2
576.80114	18034.6
580.82422	19033.7
584.84444	20458.9
588.86181	22697.6
592.87633	25053.4
596.888	25457.8
600.89682	23083.3
604.9028	20773.1
608.90594	20758.3
612.90624	21577.7
616.90371	19884.1
620.89834	16388.2
624.89015	14676
628.87913	14569.9
632.86528	14723.1
636.84862	14701.2
640.82913	14323.4
644.80683	13888.1
648.78172	13664.5
652.75379	13638.3
656.72306	13820.2
660.68952	13950.3
664.65319	13791.2
668.61405	13451.8
672.57211	13428.4
676.52738	13579
680.47986	13628.2
684.42955	13503.7
688.37646	13312.4
692.32058	13357.9
696.26192	13569.1
700.20048	13893.3
704.13626	14105.8
708.06928	14172.7
711.99952	14166.6
715.927	14202.5
719.85171	14259.6
723.77365	14135.1
727.69284	13832.4
731.60928	13551.1
735.52295	13487.9
739.43388	13514.5
743.34206	13610.3
747.24749	13769.1
751.15017	14006.6
755.05012	14353.3
758.94733	14886.6
762.8418	15826.5
766.73354	17218
770.62254	18477.6
774.50882	18489.9
778.39237	17334.6
782.27321	15874.2
786.15132	14713.1
790.02671	13986.8
793.89938	13606.7
797.76935	13444.8
801.6366	13401.8
805.50115	13363.6
809.36299	13270.1
813.22213	13068.6
817.07857	12951.6
820.93231	12777.8
824.78336	12603.4
828.63172	12525.5
832.47738	12489.7
836.32036	12458.7
840.16066	12495.3
843.99827	12458
847.8332	12434.4
851.66546	12425.1
855.49504	12432.3
859.32195	12430.7
863.1462	12379.8
866.96777	12314.7
870.78668	12293.6
874.60293	12289.3
878.41652	12329.1
882.22745	12385.5
886.03573	12431.9
889.84136	12402
893.64433	12366.2
897.44466	12324.4
901.24235	12294.5
905.0374	12199.5
908.8298	12130.2
912.61957	12123.7
916.40671	12245
920.19121	12524.5
923.97308	12777.5
927.75233	12934.3
931.52895	12733.6
935.30295	12341.3
939.07433	11940.5
942.84309	11674
946.60924	11552
950.37278	11486.1
954.13371	11520.4
957.89203	11510.2
961.64774	11548.5
965.40086	11550.5
969.15137	11516.6
972.89929	11401.9
976.64461	11301
980.38733	11255.9
984.12747	11258.1
987.86502	11276.8
991.59999	11355.5
995.33237	11529.9
999.06217	11799.3
1002.78939	12213
1006.51404	12664
1010.23611	13095.6
1013.95561	13407.4
1017.67255	13580.6
1021.38692	13382.2
1025.09872	12900.4
1028.80796	12451.2
1032.51465	12308.8
1036.21877	12343.9
1039.92035	12419.1
1043.61937	12488.5
1047.31584	12489.1
1051.00976	12468.2
1054.70114	12510.5
1058.38998	12540.1
1062.07627	12609.9
1065.76003	12782.5
1069.44126	13036.5
1073.11995	13415.7
1076.79611	13687.2
1080.46974	13775.2
1084.14085	13944.9
1087.80943	14175.7
1091.47549	14445.2
1095.13903	14477.3
1098.80005	14168.9
1102.45857	13573.4
1106.11456	13164.1
1109.76805	12994
1113.41903	13030.9
1117.06751	13130.2
1120.71348	13395
1124.35696	13631.3
1127.99793	13892.3
1131.63641	14066.2
1135.2724	14068.6
1138.90589	14070.8
1142.5369	14165.3
1146.16542	14415.4
1149.79145	14677.8
1153.415	14885.5
1157.03607	15238.7
1160.65467	15915.5
1164.27079	17157.3
1167.88443	18675.6
1171.49561	20235.3
1175.10432	22093.4
1178.71056	24420.9
1182.31434	26511.7
1185.91565	27190.5
1189.51451	26329
1193.11091	24997.2
1196.70485	23644.6
1200.29634	22348.8
1203.88538	21439.9
1207.47197	21035.5
1211.05612	20758.2
1214.63782	20282
1218.21708	19633.8
1221.79391	19135.5
1225.36829	19035.5
1228.94024	18961.6
1232.50976	18638.5
1236.07685	17973.9
1239.6415	17392.5
1243.20374	17164.9
1246.76355	17160.6
1250.32093	17391.1
1253.8759	17900.8
1257.42845	18616.8
1260.97859	19377.2
1264.52631	20193.8
1268.07163	20964.2
1271.61453	21685.9
1275.15503	22477.6
1278.69312	23441.7
1282.22882	24714.7
1285.76211	26287.7
1289.29301	28133.2
1292.82151	30110.8
1296.34761	32339.3
1299.87133	34919.2
1303.39266	37467.8
1306.9116	39703.7
1310.42815	41515.8
1313.94233	42513.1
1317.45412	42156.1
1320.96354	40658.9
1324.47058	39092.9
1327.97525	37944.4
1331.47754	37161.4
1334.97747	36461.3
1338.47502	35530.3
1341.97022	34389.5
1345.46305	33223.4
1348.95352	32682.5
1352.44163	33171.7
1355.92738	34948.8
1359.41078	37682.7
1362.89183	39911
1366.37053	40225.5
1369.84688	37175.8
1373.32088	31973.5
1376.79254	27917.5
1380.26186	26459.4
1383.72883	26426.3
1387.19347	26354.6
1390.65578	25839.8
1394.11575	25782.3
1397.57339	26395.9
1401.0287	27357.7
1404.48168	27944.8
1407.93234	27919.5
1411.38068	27206.7
1414.82669	26017.4
1418.27039	24696.1
1421.71177	23317.7
1425.15083	22145
1428.58758	21588.7
1432.02203	21876.8
1435.45416	22782.2
1438.88399	23683.7
1442.31151	24329.4
1445.73673	24648.1
1449.15965	24858.8
1452.58027	24743.8
1455.9986	24435.6
1459.41463	24313.2
1462.82837	24703.8
1466.23982	25397
1469.64898	26174.7
1473.05586	26689.3
1476.46045	26901.2
1479.86276	26881.7
1483.26279	26668.1
1486.66054	26578.4
1490.05602	26822.8
1493.44922	27222.2
1496.84016	27457.7
1500.22882	27598.4
1503.61521	27736.5
1506.99934	28096.7
1510.38121	28353
1513.76081	28294.9
1517.13816	27787.1
1520.51324	27142.2
1523.88607	26832.6
1527.25665	26925.5
1530.62498	27239.8
1533.99105	27165.1
1537.35488	26630.7
1540.71647	25701.1
1544.07581	24554.9
1547.4329	23359.2
1550.78776	22308.4
1554.14038	21538.3
1557.49077	21072.6
1560.83892	20839.9
1564.18484	20864.3
1567.52853	20978.6
1570.86999	21300.3
1574.20922	21869.7
1577.54624	22433.4
1580.88103	22624
1584.2136	22930.7
1587.54395	23978.7
1590.87208	25876.3
1594.19801	28404.3
1597.52172	30842.5
1600.84321	31817.2
1604.16251	30258.1
1607.47959	26877.3
1610.79447	23198.8
1614.10715	20048.3
1617.41763	17795.1
1620.7259	16369.3
1624.03199	15786.9
1627.33587	15786.6
1630.63757	16551.2
1633.93707	18199.1
1637.23439	21152.6
1640.52951	25842
1643.82246	31906.1
1647.11321	37077.5
1650.40179	38150.1
1653.68819	34279.4
1656.97241	27833.9
1660.25446	21924.1
1663.53433	17751.8
1666.81203	15178.1
1670.08756	13633.6
1673.36092	12712.5
1676.63211	12118.3
1679.90115	11717.2
1683.16801	11388.1
1686.43272	11185.9
1689.69527	11002
1692.95567	10899
1696.2139	10835.9
1699.46999	10780
1702.72392	10698.2
1705.97571	10633.1
1709.22535	10550.3
1712.47284	10513.1
1715.71819	10462.3
1718.96139	10435.7
1722.20246	10353
1725.44139	10270.6
1728.67818	10178.2
1731.91284	10105.2
1735.14537	10032.5
1738.37576	9991.4
1741.60403	9882.9
1744.83017	9860.7
1748.05418	9843.3
1751.27607	9843.1
1754.49584	9853.2
1757.71349	9867.3
1760.92903	9860.1
1764.14244	9821
1767.35375	9798.9
1770.56294	9757.1
1773.77002	9684.6
1776.97499	9615.7
1780.17785	9582.6
1783.37861	9549
1786.57727	9501.9
1789.77382	9465.8
1792.96828	9434.5
1796.16064	9417.8
1799.3509	9391.2
1802.53907	9358.7
1805.72514	9297.6
1808.90913	9289.6
1812.09102	9268.5
1815.27083	9223.8
1818.44856	9223.8
1821.6242	9208.7
1824.79776	9222
1827.96924	9205.6
1831.13864	9199.4
1834.30597	9190.2
1837.47122	9207.2
1840.6344	9194.6
1843.7955	9199.9
1846.95454	9203.8
1850.11151	9186.5
1853.26642	9175.3
1856.41926	9147.6
1859.57004	9148.1
1862.71876	9137.8
1865.86542	9129.2
1869.01003	9100.8
1872.15258	9109.8
1875.29308	9100.3
1878.43152	9073.6
1881.56792	9059
1884.70227	9050.2
1887.83457	9045.7
1890.96482	9042.4
1894.09304	9021.5
1897.21921	9004.6
1900.34335	9001.4
1903.46544	8988.7
1906.58551	8977.8
1909.70353	8941
1912.81953	8900.8
1915.93349	8895.6
1919.04543	8855.4
1922.15534	8829.2
1925.26322	8794
1928.36908	8766.4
1931.47292	8753.2
1934.57473	8725.4
1937.67453	8692
1940.77232	8672.8
1943.86808	8632.2
1946.96184	8621
1950.05358	8566.4
1953.14331	8574.1
1956.23103	8537.2
1959.31675	8502
1962.40046	8476.9
1965.48217	8437.1
1968.56188	8423.6
1971.63959	8390.2
1974.7153	8352.5
1977.78901	8313.2
1980.86073	8284.1
1983.93046	8257.9
1986.99819	8233.6
1990.06394	8207.6
1993.1277	8202.6
1996.18947	8147.3
1999.24925	8129.1
2002.30706	8110.1
2005.36288	8086.7
2008.41672	8049
2011.46859	8024.6
2014.51848	7993.6
2017.56639	7967.6
2020.61233	7965
2023.6563	7943.7
2026.6983	7929.7
2029.73833	7927
2032.7764	7905.3
2035.8125	7886.7
2038.84664	7874.5
2041.87881	7845.6
2044.90903	7842
2047.93729	7819.1
2050.96359	7810.9
2053.98794	7826.9
2057.01034	7794
2060.03078	7782.1
2063.04927	7789.9
2066.06582	7760.9
2069.08042	7755.9
2072.09307	7761.4
2075.10378	7752.2
2078.11255	7742.7
2081.11938	7745.4
2084.12426	7738.4
2087.12722	7737.8
2090.12824	7731
2093.12732	7734.4
2096.12447	7726.9
2099.11969	7715.3
2102.11299	7727.8
2105.10435	7730.2
2108.09379	7720.6
2111.08131	7703.6
2114.0669	7699.9
2117.05057	7724.3
2120.03233	7741.6
2123.01216	7726.7
2125.99008	7720.3
2128.96609	7705.9
2131.94018	7712.9
2134.91236	7717.8
2137.88263	7696.9
2140.851	7689.5
2143.81746	7687.4
2146.78201	7680.7
2149.74466	7689.8
2152.7054	7690
2155.66425	7656.5
2158.6212	7666.4
2161.57625	7659.3
2164.52941	7668.4
2167.48067	7670.9
2170.43004	7654.6
2173.37752	7649.2
2176.32311	7643.2
2179.26681	7662.2
2182.20863	7652.7
2185.14856	7644.6
2188.08661	7638.1
2191.02278	7634
2193.95707	7621.6
2196.88948	7643.9
2199.82001	7622.2
2202.74867	7598.7
2205.67545	7593.1
2208.60037	7568.4
2211.52341	7556.2
2214.44458	7549.7
2217.36388	7513.6
2220.28132	7522.2
2223.1969	7491.1
2226.11061	7508.2
2229.02246	7469.1
2231.93245	7483.9
2234.84058	7487.3
2237.74686	7501.8
2240.65128	7498.7
2243.55385	7487.2
2246.45456	7450.8
2249.35343	7439.5
2252.25044	7413
2255.14561	7378.9
2258.03893	7370.1
2260.93041	7339.9
2263.82004	7312
2266.70783	7278.7
2269.59378	7259.5
2272.4779	7244.4
2275.36017	7231.9
2278.24061	7197.9
2281.11922	7191.7
2283.996	7190.2
2286.87094	7178.1
2289.74405	7136.8
2292.61534	7144.4
2295.4848	7148.4
2298.35243	7128.6
2301.21824	7115.3
2304.08223	7117
2306.94439	7113.3
2309.80474	7115.1
2312.66327	7108.1
2315.51999	7100.6
2318.37489	7100.4
2321.22797	7076.1
2324.07925	7096.4
2326.92871	7070.6
2329.77637	7076.6
2332.62222	7049.9
2335.46626	7058.8
2338.3085	7028.5
2341.14893	7041.1
2343.98756	7058.6
2346.8244	7056.2
2349.65943	7049
2352.49267	7053.2
2355.32411	7055.4
2358.15376	7041.3
2360.98161	7076.5
2363.80768	7048.1
2366.63195	7045.8
2369.45444	7019.2
2372.27514	7022.9
2375.09405	7010.9
2377.91118	6994.6
2380.72652	6988.5
2383.54009	6948.1
2386.35187	6943
2389.16188	6922.8
2391.97011	6905.5
2394.77657	6885.5
2397.58125	6877.7
2400.38416	6867.8
2403.18529	6870.1
2405.98466	6869.8
2408.78226	6843.1
2411.57809	6846.2
2414.37216	6812.6
2417.16446	6813.7
2419.955	6816.5
2422.74378	6807.2
2425.5308	6791.3
2428.31606	6784.7
2431.09956	6814.8
2433.88131	6783.6
2436.6613	6787.6
2439.43954	6781
2442.21603	6787
2444.99077	6775.3
2447.76377	6777.7
2450.53501	6765.5
2453.30451	6786.7
2456.07226	6782.2
2458.83827	6796.7
2461.60254	6787.9
2464.36507	6773.9
2467.12586	6792.4
2469.88492	6788.2
2472.64224	6777.9
2475.39782	6795.5
2478.15167	6790.9
2480.90379	6789.7
2483.65417	6782.8
2486.40283	6786.3
2489.14976	6781.7
2491.89497	6787.2
2494.63845	6818.8
2497.3802	6808.8
2500.12024	6803.4
2502.85855	6777.4
2505.59514	6767
2508.33002	6766.7
2511.06318	6781.8
2513.79462	6754.2
2516.52435	6748.8
2519.25237	6748.4
2521.97867	6722.2
2524.70327	6725.4
2527.42616	6728.8
2530.14734	6703.6
2532.86681	6705.4
2535.58458	6704.8
2538.30065	6701
2541.01501	6693.6
2543.72768	6678.3
2546.43864	6701.5
2549.14791	6667.5
2551.85548	6669.3
2554.56136	6669.8
2557.26554	6672.4
2559.96803	6674.7
2562.66883	6675.9
2565.36794	6673.1
2568.06536	6670.6
2570.7611	6671
2573.45514	6664
2576.14751	6648
2578.83819	6653.1
2581.52719	6663
2584.21451	6637.5
2586.90015	6641
2589.58411	6653.1
2592.2664	6631.8
2594.94701	6618.2
2597.62594	6624.8
2600.30321	6614.1
2602.9788	6599.7
2605.65273	6610.9
2608.32498	6612
2610.99557	6603
2613.66449	6634.6
2616.33175	6623.7
2618.99734	6638.5
2621.66128	6615.8
2624.32355	6605.9
2626.98416	6601.8
2629.64311	6616.8
2632.30041	6597.7
2634.95605	6614.3
2637.61004	6569.1
2640.26238	6570.5
2642.91306	6579
2645.56209	6587.9
2648.20948	6597.1
2650.85521	6616.9
2653.4993	6586.8
2656.14175	6583.9
2658.78255	6612.1
2661.42171	6606.7
2664.05923	6621.4
2666.6951	6627.2
2669.32934	6654.4
2671.96194	6646.8
2674.59291	6634.2
2677.22224	6622.3
2679.84993	6632.7
2682.476	6623.3
2685.10043	6611.9
2687.72324	6592.7
2690.34441	6615.6
2692.96396	6605.5
2695.58188	6619
2698.19818	6625.9
2700.81285	6645.9
2703.4259	6651.4
2706.03733	6706.1
2708.64714	6663.3
2711.25533	6655.6
2713.86191	6654.2
2716.46687	6657.8
2719.07021	6669.1
2721.67194	6680.1
2724.27206	6687.4
2726.87057	6658.3
2729.46747	6679.5
2732.06276	6681.3
2734.65644	6683.1
2737.24852	6684.9
2739.83899	6659.2
2742.42786	6700.9
2745.01513	6660.8
2747.60079	6664.3
2750.18486	6648
2752.76733	6682.1
2755.3482	6670.9
2757.92747	6667.5
2760.50515	6653.7
2763.08123	6673.3
2765.65573	6648.7
2768.22863	6663.6
2770.79994	6651.2
2773.36967	6662.8
2775.9378	6660.9
2778.50435	6665.7
2781.06932	6671.2
2783.6327	6679.2
2786.1945	6663.8
2788.75471	6666.9
2791.31335	6648.7
2793.87041	6641.1
2796.42589	6624.5
2798.97979	6621.5
2801.53212	6603.1
2804.08288	6620.7
2806.63206	6589.2
2809.17967	6600.5
2811.72571	6592
2814.27018	6573.2
2816.81308	6581.9
2819.35442	6558.2
2821.89419	6565.3
2824.43239	6564.7
2826.96904	6571.5
2829.50412	6561
2832.03763	6555.5
2834.56959	6542.8
2837.1	6533.7
2839.62884	6557.8
2842.15613	6566.5
2844.68186	6554.9
2847.20604	6572.8
2849.72867	6587.6
2852.24974	6572.7
2854.76927	6578.4
2857.28724	6586.7
2859.80367	6552.3
2862.31855	6552.9
2864.83189	6541.8
2867.34368	6534.3
2869.85393	6509.8
2872.36264	6507.9
2874.8698	6514.6
2877.37543	6498.8
2879.87952	6509.9
2882.38207	6512.7
2884.88308	6499.1
2887.38256	6487.9
2889.88051	6509.8
2892.37692	6502.2
2894.8718	6525.5
2897.36515	6530.9
2899.85698	6519.2
2902.34727	6541.3
2904.83604	6547.7
2907.32328	6559.7
2909.809	6546.8
2912.29319	6559.2
2914.77587	6563.8
2917.25702	6551.4
2919.73665	6552.2
2922.21476	6557.3
2924.69136	6565.1
2927.16644	6577.9
2929.64	6572.3
2932.11205	6551.3
2934.58258	6537.9
2937.05161	6569.4
2939.51912	6556.3
2941.98513	6556
2944.44962	6538.5
2946.91261	6525.1
2949.37409	6526.9
2951.83407	6515
2954.29254	6505.4
2956.74951	6481.1
2959.20498	6477.2
2961.65895	6454.2
2964.11142	6435
2966.56239	6399.7
2969.01186	6395.5
2971.45984	6364.5
2973.90632	6361.2
2976.35131	6329
2978.7948	6303.3
2981.23681	6278.4
2983.67732	6254.4
2986.11635	6251.8
2988.55388	6211.8
2990.98993	6225.6
2993.4245	6192.5
2995.85758	6199.5
2998.28917	6186.9
3000.71928	6170.9
3003.14791	6149.7
3005.57506	6168.2
3008.00073	6121.5
3010.42493	6136.5
3012.84764	6104.2
3015.26888	6097.6
3017.68865	6082.3
3020.10694	6067.6
3022.52376	6024
3024.9391	6025.1
3027.35298	6024.9
3029.76539	6020.9
3032.17632	5997.6
3034.5858	6004.3
3036.9938	5985.7
3039.40034	5984.3
3041.80542	5968.4
3044.20903	5977.2
3046.61118	5959.4
3049.01187	5940
3051.4111	5932.6
3053.80888	5919.2
3056.20519	5917.6
3058.60005	5894.2
3060.99345	5886.7
3063.3854	5864.7
3065.7759	5848.3
3068.16494	5843.2
3070.55254	5810.8
3072.93868	5811.9
3075.32338	5794.4
3077.70662	5774.2
3080.08842	5754
3082.46878	5745.4
3084.84769	5715.5
3087.22515	5708.8
3089.60118	5707.7
3091.97576	5726
3094.3489	5702.5
3096.72061	5694.5
3099.09087	5703.7
3101.4597	5684.8
3103.82709	5681
3106.19305	5691
3108.55757	5655.5
3110.92066	5630.6
3113.28232	5632.8
3115.64255	5615.6
3118.00134	5595.5
3120.35871	5598.8
3122.71466	5588.3
3125.06917	5573.3
3127.42226	5582.9
3129.77393	5575.3
3132.12417	5571.3
3134.47299	5576
3136.82039	5574.1
3139.16636	5555.7
3141.51092	5558.7
3143.85406	5545.9
3146.19579	5568.8
3148.53609	5548.2
3150.87499	5547.2
3153.21246	5548
3155.54853	5552.4
3157.88318	5528.6
3160.21642	5525.3
3162.54826	5537.4
3164.87868	5518.2
3167.2077	5514.1
3169.5353	5516.1
3171.86151	5516.6
3174.18631	5521.6
3176.5097	5505.6
3178.83169	5494.9
3181.15228	5488.5
3183.47147	5494.6
3185.78926	5499.4
3188.10565	5495.6
3190.42065	5481.9
3192.73424	5473.1
3195.04645	5470.3
3197.35725	5476.3
3199.66667	5481.3
3201.97469	5471.2
3204.28132	5464.4
3206.58656	5486.7
3208.8904	5452.5
3211.19287	5447.8
3213.49394	5445.5
3215.79363	5457.4
3218.09193	5454.2
3220.38884	5454.3
3222.68438	5480.1
3224.97853	5446.2
3227.2713	5438.4
3229.56269	5434.2
3231.8527	5464.7
3234.14133	5425.7
3236.42858	5424.8
3238.71446	5418.1
3240.99896	5413.3
3243.28209	5413.5
3245.56384	5395.2
3247.84423	5399.7
3250.12324	5387.2
3252.40088	5382.2
3254.67715	5392.4
3256.95205	5358.8
3259.22558	5319.6
3261.49775	5310.6
3263.76855	5301.5
3266.03799	5306
3268.30606	5269.1
3270.57277	5270.4
3272.83812	5256.1
3275.10211	5249
3277.36474	5256.9
3279.62601	5271
3281.88593	5260.3
3284.14448	5275.5
3286.40168	5263.3
3288.65753	5263.4
3290.91202	5272
3293.16516	5224.7
3295.41695	5237.9
3297.66738	5190.2
3299.91647	5169.7
3302.16421	5138.8
3304.4106	5116
3306.65564	5092.9
3308.89933	5040.7
3311.14169	5032.2
3313.38269	4997.4
3315.62236	4959.9
3317.86068	4900
3320.09766	4862.1
3322.3333	4813.5
3324.5676	4814.6
3326.80056	4752.1
3329.03219	4717.9
3331.26248	1.3
3333.49143	-0.6
3335.71905	-0.3
