Data from AgNPs_FTO_APTES_UA_1um_CRN_0.1mM_R6G_10uM_NaF_0.1M_Addition_RamanShift__3__11-37-38-987.txt Node

Date: Tue Dec 21 11:37:38 GMT 2021
User: TCL
Spectrometer: QEP01345
Trigger mode: 4
Integration Time (sec): 7.000000E0
Scans to average: 10
Electric dark correction enabled: true
Nonlinearity correction enabled: false
Boxcar width: 0
XAxis mode: Raman Shifts
Number of Pixels in Spectrum: 1044
>>>>>Begin Spectral Data<<<<<
46.04893	-0.1625
50.45542	-1.7625
54.85868	0.5375
59.25871	0.6375
63.6555	35.7375
68.04907	44.8375
72.43941	44.8375
76.82654	46.0375
81.21044	52.7375
85.59113	51.9375
89.96862	53.9375
94.34289	55.2375
98.71396	58.3375
103.08183	61.6375
107.4465	64.5375
111.80798	63.8375
116.16626	63.9375
120.52136	66.2375
124.87327	68.0375
129.222	66.8375
133.56755	69.4375
137.90993	78.8375
142.24913	82.1375
146.58517	95.0375
150.91804	104.0375
155.24774	125.1375
159.57429	149.2375
163.89768	192.7375
168.21792	245.0375
172.53501	331.2375
176.84895	454.0375
181.15975	635.3375
185.46741	892.7375
189.77193	1226.8375
194.07331	1640.7375
198.37157	2136.8375
202.6667	2649.9375
206.9587	3186.1375
211.24758	3681.7375
215.53334	4221.9375
219.81599	4782.7375
224.09553	5414.4375
228.37195	6105.4375
232.64527	6863.8375
236.91549	7621.5375
241.18261	8317.9375
245.44663	8898.5375
249.70755	9355.7375
253.96539	9733.5375
258.22014	10017.5375
262.4718	10257.6375
266.72039	10420.5375
270.96589	10438.3375
275.20832	10342.2375
279.44768	10153.0375
283.68397	9947.9375
287.91719	9780.8375
292.14735	9698.6375
296.37445	9762.1375
300.59849	9958.4375
304.81948	10205.6375
309.03742	10477.3375
313.25231	10597.3375
317.46415	10463.8375
321.67296	10062.2375
325.87872	9701.2375
330.08145	9470.8375
334.28114	9394.1375
338.47781	9442.8375
342.67145	9552.3375
346.86207	9794.4375
351.04966	10093.0375
355.23424	10387.1375
359.4158	10616.9375
363.59435	10673.5375
367.76989	10664.7375
371.94243	10577.8375
376.11196	10518.3375
380.27849	10503.4375
384.44203	10522.1375
388.60257	10561.8375
392.76012	10644.7375
396.91468	10804.2375
401.06626	11031.9375
405.21485	11194.9375
409.36047	11131.3375
413.50311	10846.7375
417.64277	10606.3375
421.77947	10514.7375
425.9132	10484.8375
430.04396	10497.9375
434.17176	10509.8375
438.2966	10592.0375
442.41849	10806.5375
446.53742	11332.2375
450.6534	11778.8375
454.76644	12002.4375
458.87653	11818.2375
462.98368	11475.1375
467.08789	11145.7375
471.18916	10820.5375
475.2875	10461.8375
479.38291	10172.4375
483.4754	10042.7375
487.56496	9951.3375
491.6516	9875.7375
495.73531	9881.7375
499.81612	10037.0375
503.89401	9994.1375
507.96899	9940.7375
512.04106	9943.9375
516.11023	9862.1375
520.1765	9808.0375
524.23987	9854.5375
528.30034	9908.8375
532.35792	9867.4375
536.41261	9645.7375
540.46441	9369.8375
544.51333	9203.3375
548.55936	9258.8375
552.60252	9546.5375
556.64279	9933.9375
560.6802	10223.8375
564.71473	10259.2375
568.7464	10359.3375
572.7752	10643.5375
576.80114	10826.8375
580.82422	11123.8375
584.84444	11833.1375
588.86181	12856.9375
592.87633	14003.0375
596.888	14345.1375
600.89682	13408.2375
604.9028	12769.0375
608.90594	14022.7375
612.90624	16284.8375
616.90371	15589.0375
620.89834	11781.1375
624.89015	9850.4375
628.87913	9559.7375
632.86528	9673.2375
636.84862	9758.1375
640.82913	9546.8375
644.80683	9172.6375
648.78172	8941.9375
652.75379	8939.4375
656.72306	9120.3375
660.68952	9390.2375
664.65319	9299.8375
668.61405	8970.8375
672.57211	8875.8375
676.52738	8973.9375
680.47986	9011.4375
684.42955	8890.2375
688.37646	8733.9375
692.32058	8689.8375
696.26192	8812.1375
700.20048	8987.2375
704.13626	9084.8375
708.06928	9079.5375
711.99952	9023.5375
715.927	9033.4375
719.85171	9072.4375
723.77365	9082.2375
727.69284	8907.0375
731.60928	8768.2375
735.52295	8749.2375
739.43388	8771.1375
743.34206	8821.0375
747.24749	8879.0375
751.15017	9000.1375
755.05012	9165.9375
758.94733	9549.0375
762.8418	10369.9375
766.73354	11787.5375
770.62254	13139.2375
774.50882	13492.4375
778.39237	12770.8375
782.27321	11465.3375
786.15132	10249.6375
790.02671	9409.3375
793.89938	9018.0375
797.76935	8841.9375
801.6366	8745.8375
805.50115	8695.5375
809.36299	8628.9375
813.22213	8508.5375
817.07857	8404.9375
820.93231	8350.9375
824.78336	8325.3375
828.63172	8323.7375
832.47738	8322.9375
836.32036	8344.3375
840.16066	8365.8375
843.99827	8371.8375
847.8332	8339.0375
851.66546	8284.6375
855.49504	8284.0375
859.32195	8270.0375
863.1462	8236.4375
866.96777	8202.1375
870.78668	8182.4375
874.60293	8183.2375
878.41652	8196.4375
882.22745	8237.7375
886.03573	8294.2375
889.84136	8297.7375
893.64433	8284.2375
897.44466	8264.8375
901.24235	8226.4375
905.0374	8162.8375
908.8298	8115.1375
912.61957	8086.0375
916.40671	8138.2375
920.19121	8254.2375
923.97308	8425.5375
927.75233	8621.5375
931.52895	8687.1375
935.30295	8538.5375
939.07433	8235.9375
942.84309	7989.1375
946.60924	7847.6375
950.37278	7801.2375
954.13371	7755.5375
957.89203	7733.8375
961.64774	7693.3375
965.40086	7692.2375
969.15137	7682.2375
972.89929	7647.5375
976.64461	7623.4375
980.38733	7612.7375
984.12747	7633.3375
987.86502	7676.7375
991.59999	7750.6375
995.33237	7935.8375
999.06217	8181.9375
1002.78939	8492.4375
1006.51404	8752.2375
1010.23611	8913.3375
1013.95561	9075.2375
1017.67255	9146.7375
1021.38692	9061.0375
1025.09872	8821.9375
1028.80796	8695.8375
1032.51465	8823.6375
1036.21877	9012.9375
1039.92035	9127.4375
1043.61937	9073.1375
1047.31584	8941.1375
1051.00976	8772.0375
1054.70114	8620.9375
1058.38998	8538.5375
1062.07627	8527.1375
1065.76003	8539.7375
1069.44126	8627.4375
1073.11995	8882.4375
1076.79611	9069.4375
1080.46974	9192.3375
1084.14085	9345.9375
1087.80943	9524.0375
1091.47549	9636.6375
1095.13903	9606.9375
1098.80005	9276.4375
1102.45857	8916.2375
1106.11456	8709.0375
1109.76805	8628.1375
1113.41903	8714.4375
1117.06751	8887.4375
1120.71348	9099.8375
1124.35696	9400.3375
1127.99793	9683.0375
1131.63641	9776.6375
1135.2724	9580.8375
1138.90589	9330.8375
1142.5369	9224.2375
1146.16542	9168.4375
1149.79145	9197.0375
1153.415	9242.0375
1157.03607	9353.7375
1160.65467	9636.9375
1164.27079	10198.3375
1167.88443	11016.9375
1171.49561	12086.7375
1175.10432	13570.1375
1178.71056	15435.5375
1182.31434	17021.8375
1185.91565	17536.8375
1189.51451	16955.0375
1193.11091	15836.9375
1196.70485	14662.7375
1200.29634	13591.3375
1203.88538	12717.5375
1207.47197	12025.5375
1211.05612	11491.8375
1214.63782	11119.1375
1218.21708	10968.5375
1221.79391	11043.3375
1225.36829	11256.1375
1228.94024	11360.8375
1232.50976	11137.7375
1236.07685	10792.5375
1239.6415	10524.7375
1243.20374	10386.1375
1246.76355	10426.2375
1250.32093	10524.6375
1253.8759	10803.0375
1257.42845	11214.4375
1260.97859	11710.7375
1264.52631	12210.9375
1268.07163	12673.4375
1271.61453	13175.9375
1275.15503	13626.5375
1278.69312	14033.8375
1282.22882	14544.7375
1285.76211	15173.5375
1289.29301	15996.7375
1292.82151	16826.9375
1296.34761	17751.7375
1299.87133	18974.9375
1303.39266	20539.0375
1306.9116	22409.0375
1310.42815	24502.8375
1313.94233	25909.0375
1317.45412	25718.8375
1320.96354	24212.8375
1324.47058	22368.6375
1327.97525	20792.8375
1331.47754	19672.5375
1334.97747	18924.2375
1338.47502	18326.2375
1341.97022	17851.0375
1345.46305	17661.3375
1348.95352	18060.7375
1352.44163	19165.4375
1355.92738	21054.0375
1359.41078	23562.9375
1362.89183	25954.2375
1366.37053	26055.8375
1369.84688	23286.2375
1373.32088	19370.3375
1376.79254	16594.4375
1380.26186	15355.0375
1383.72883	14863.5375
1387.19347	14381.9375
1390.65578	13844.0375
1394.11575	13618.5375
1397.57339	13717.1375
1401.0287	14020.0375
1404.48168	14199.8375
1407.93234	14160.4375
1411.38068	13973.3375
1414.82669	13766.1375
1418.27039	13499.8375
1421.71177	13110.6375
1425.15083	12648.2375
1428.58758	12403.7375
1432.02203	12535.5375
1435.45416	12915.3375
1438.88399	13246.3375
1442.31151	13354.3375
1445.73673	13417.5375
1449.15965	13459.3375
1452.58027	13359.8375
1455.9986	13138.9375
1459.41463	13040.8375
1462.82837	13228.5375
1466.23982	13631.7375
1469.64898	14057.3375
1473.05586	14369.1375
1476.46045	14575.1375
1479.86276	14776.5375
1483.26279	14829.1375
1486.66054	15065.9375
1490.05602	15496.9375
1493.44922	16048.8375
1496.84016	16649.7375
1500.22882	17539.8375
1503.61521	18759.4375
1506.99934	20175.3375
1510.38121	21454.0375
1513.76081	21802.9375
1517.13816	20724.8375
1520.51324	18751.0375
1523.88607	16935.2375
1527.25665	15776.7375
1530.62498	15191.5375
1533.99105	14845.7375
1537.35488	14466.5375
1540.71647	14050.8375
1544.07581	13554.5375
1547.4329	13125.5375
1550.78776	12732.5375
1554.14038	12453.4375
1557.49077	12340.1375
1560.83892	12314.5375
1564.18484	12516.3375
1567.52853	12824.7375
1570.86999	13169.3375
1574.20922	13475.7375
1577.54624	13572.2375
1580.88103	13257.3375
1584.2136	12852.3375
1587.54395	12844.8375
1590.87208	13477.0375
1594.19801	14674.0375
1597.52172	16081.7375
1600.84321	16895.4375
1604.16251	16436.7375
1607.47959	14994.8375
1610.79447	13188.8375
1614.10715	11570.3375
1617.41763	10443.5375
1620.7259	9738.2375
1624.03199	9438.0375
1627.33587	9459.7375
1630.63757	9828.5375
1633.93707	10572.0375
1637.23439	11888.3375
1640.52951	14061.2375
1643.82246	17056.2375
1647.11321	20027.9375
1650.40179	21280.4375
1653.68819	19816.5375
1656.97241	16558.5375
1660.25446	13126.5375
1663.53433	10786.5375
1666.81203	9397.1375
1670.08756	8593.3375
1673.36092	8132.6375
1676.63211	7825.4375
1679.90115	7625.0375
1683.16801	7464.7375
1686.43272	7338.2375
1689.69527	7270.7375
1692.95567	7192.6375
1696.2139	7189.9375
1699.46999	7170.0375
1702.72392	7134.0375
1705.97571	7080.4375
1709.22535	7068.7375
1712.47284	7044.8375
1715.71819	7042.3375
1718.96139	7007.4375
1722.20246	6999.3375
1725.44139	6946.9375
1728.67818	6901.9375
1731.91284	6876.8375
1735.14537	6801.5375
1738.37576	6777.8375
1741.60403	6767.8375
1744.83017	6761.8375
1748.05418	6748.2375
1751.27607	6754.1375
1754.49584	6787.8375
1757.71349	6798.0375
1760.92903	6785.6375
1764.14244	6718.1375
1767.35375	6699.2375
1770.56294	6645.8375
1773.77002	6619.0375
1776.97499	6573.3375
1780.17785	6534.0375
1783.37861	6503.6375
1786.57727	6486.1375
1789.77382	6467.0375
1792.96828	6457.9375
1796.16064	6415.5375
1799.3509	6407.3375
1802.53907	6391.7375
1805.72514	6366.1375
1808.90913	6347.7375
1812.09102	6330.7375
1815.27083	6312.4375
1818.44856	6289.5375
1821.6242	6290.3375
1824.79776	6279.5375
1827.96924	6271.9375
1831.13864	6274.3375
1834.30597	6284.7375
1837.47122	6270.3375
1840.6344	6280.0375
1843.7955	6271.6375
1846.95454	6265.3375
1850.11151	6261.3375
1853.26642	6264.6375
1856.41926	6266.9375
1859.57004	6266.1375
1862.71876	6252.5375
1865.86542	6241.7375
1869.01003	6251.3375
1872.15258	6243.2375
1875.29308	6241.3375
1878.43152	6232.9375
1881.56792	6218.3375
1884.70227	6205.5375
1887.83457	6216.2375
1890.96482	6196.8375
1894.09304	6178.8375
1897.21921	6189.3375
1900.34335	6188.2375
1903.46544	6167.6375
1906.58551	6158.5375
1909.70353	6145.8375
1912.81953	6117.4375
1915.93349	6127.4375
1919.04543	6095.0375
1922.15534	6087.5375
1925.26322	6072.5375
1928.36908	6042.0375
1931.47292	6023.0375
1934.57473	5992.6375
1937.67453	5984.8375
1940.77232	5969.0375
1943.86808	5942.3375
1946.96184	5931.9375
1950.05358	5923.0375
1953.14331	5921.3375
1956.23103	5892.1375
1959.31675	5889.5375
1962.40046	5869.3375
1965.48217	5844.6375
1968.56188	5834.5375
1971.63959	5805.8375
1974.7153	5802.5375
1977.78901	5767.3375
1980.86073	5756.7375
1983.93046	5743.0375
1986.99819	5716.0375
1990.06394	5692.3375
1993.1277	5680.0375
1996.18947	5660.0375
1999.24925	5647.6375
2002.30706	5638.5375
2005.36288	5610.0375
2008.41672	5602.5375
2011.46859	5581.3375
2014.51848	5563.9375
2017.56639	5561.3375
2020.61233	5542.3375
2023.6563	5513.9375
2026.6983	5518.0375
2029.73833	5529.8375
2032.7764	5508.6375
2035.8125	5488.1375
2038.84664	5493.8375
2041.87881	5463.4375
2044.90903	5458.3375
2047.93729	5460.2375
2050.96359	5455.8375
2053.98794	5463.7375
2057.01034	5445.1375
2060.03078	5419.8375
2063.04927	5444.0375
2066.06582	5416.1375
2069.08042	5431.6375
2072.09307	5422.4375
2075.10378	5406.7375
2078.11255	5413.3375
2081.11938	5433.1375
2084.12426	5395.7375
2087.12722	5396.5375
2090.12824	5415.1375
2093.12732	5405.9375
2096.12447	5413.6375
2099.11969	5402.8375
2102.11299	5412.5375
2105.10435	5410.6375
2108.09379	5422.4375
2111.08131	5419.7375
2114.0669	5418.9375
2117.05057	5412.9375
2120.03233	5410.4375
2123.01216	5419.1375
2125.99008	5423.8375
2128.96609	5426.5375
2131.94018	5435.0375
2134.91236	5429.0375
2137.88263	5436.2375
2140.851	5446.8375
2143.81746	5441.2375
2146.78201	5439.4375
2149.74466	5441.9375
2152.7054	5453.2375
2155.66425	5419.1375
2158.6212	5434.7375
2161.57625	5427.8375
2164.52941	5423.1375
2167.48067	5421.7375
2170.43004	5422.8375
2173.37752	5424.2375
2176.32311	5414.3375
2179.26681	5424.8375
2182.20863	5411.6375
2185.14856	5427.1375
2188.08661	5418.1375
2191.02278	5427.9375
2193.95707	5435.5375
2196.88948	5423.4375
2199.82001	5426.9375
2202.74867	5413.8375
2205.67545	5422.0375
2208.60037	5412.5375
2211.52341	5400.0375
2214.44458	5376.1375
2217.36388	5373.2375
2220.28132	5356.5375
2223.1969	5369.1375
2226.11061	5367.6375
2229.02246	5355.4375
2231.93245	5340.3375
2234.84058	5326.0375
2237.74686	5345.6375
2240.65128	5329.9375
2243.55385	5341.2375
2246.45456	5341.3375
2249.35343	5302.8375
2252.25044	5290.7375
2255.14561	5281.9375
2258.03893	5294.0375
2260.93041	5295.9375
2263.82004	5275.7375
2266.70783	5252.6375
2269.59378	5241.3375
2272.4779	5232.9375
2275.36017	5217.8375
2278.24061	5212.9375
2281.11922	5196.1375
2283.996	5193.6375
2286.87094	5187.8375
2289.74405	5178.9375
2292.61534	5171.4375
2295.4848	5173.5375
2298.35243	5174.4375
2301.21824	5163.7375
2304.08223	5177.8375
2306.94439	5155.5375
2309.80474	5156.3375
2312.66327	5163.2375
2315.51999	5159.6375
2318.37489	5167.5375
2321.22797	5149.0375
2324.07925	5147.9375
2326.92871	5152.7375
2329.77637	5153.2375
2332.62222	5134.1375
2335.46626	5151.2375
2338.3085	5157.4375
2341.14893	5143.8375
2343.98756	5150.8375
2346.8244	5144.3375
2349.65943	5131.0375
2352.49267	5139.1375
2355.32411	5149.3375
2358.15376	5154.3375
2360.98161	5160.0375
2363.80768	5148.5375
2366.63195	5158.8375
2369.45444	5154.8375
2372.27514	5133.1375
2375.09405	5131.0375
2377.91118	5129.5375
2380.72652	5102.7375
2383.54009	5089.7375
2386.35187	5074.6375
2389.16188	5039.3375
2391.97011	5070.8375
2394.77657	5066.5375
2397.58125	5044.2375
2400.38416	5027.9375
2403.18529	5026.9375
2405.98466	4989.9375
2408.78226	5009.1375
2411.57809	4987.7375
2414.37216	4983.9375
2417.16446	4998.1375
2419.955	4970.9375
2422.74378	4985.0375
2425.5308	4976.3375
2428.31606	4983.5375
2431.09956	4976.9375
2433.88131	4967.3375
2436.6613	4983.8375
2439.43954	4986.9375
2442.21603	4963.0375
2444.99077	4966.2375
2447.76377	4985.8375
2450.53501	4979.6375
2453.30451	4991.0375
2456.07226	4964.3375
2458.83827	4991.5375
2461.60254	4990.6375
2464.36507	4982.0375
2467.12586	4978.1375
2469.88492	4986.5375
2472.64224	4986.1375
2475.39782	4998.0375
2478.15167	5024.9375
2480.90379	5007.1375
2483.65417	5013.8375
2486.40283	4991.4375
2489.14976	5017.9375
2491.89497	5008.6375
2494.63845	5026.0375
2497.3802	5025.1375
2500.12024	5020.0375
2502.85855	5013.1375
2505.59514	4992.6375
2508.33002	4987.8375
2511.06318	4966.9375
2513.79462	4962.9375
2516.52435	4958.2375
2519.25237	4965.4375
2521.97867	4931.7375
2524.70327	4926.9375
2527.42616	4926.1375
2530.14734	4932.6375
2532.86681	4912.0375
2535.58458	4913.8375
2538.30065	4906.8375
2541.01501	4918.3375
2543.72768	4921.5375
2546.43864	4922.3375
2549.14791	4896.0375
2551.85548	4890.0375
2554.56136	4895.6375
2557.26554	4905.9375
2559.96803	4901.0375
2562.66883	4900.3375
2565.36794	4906.0375
2568.06536	4884.5375
2570.7611	4896.6375
2573.45514	4897.1375
2576.14751	4901.2375
2578.83819	4902.5375
2581.52719	4896.8375
2584.21451	4871.8375
2586.90015	4887.8375
2589.58411	4872.4375
2592.2664	4876.5375
2594.94701	4855.7375
2597.62594	4858.8375
2600.30321	4846.9375
2602.9788	4845.8375
2605.65273	4847.4375
2608.32498	4837.6375
2610.99557	4842.1375
2613.66449	4831.1375
2616.33175	4828.3375
2618.99734	4845.5375
2621.66128	4845.4375
2624.32355	4837.4375
2626.98416	4832.5375
2629.64311	4832.9375
2632.30041	4816.0375
2634.95605	4820.4375
2637.61004	4836.7375
2640.26238	4803.4375
2642.91306	4817.0375
2645.56209	4806.4375
2648.20948	4802.8375
2650.85521	4805.0375
2653.4993	4794.4375
2656.14175	4787.4375
2658.78255	4799.6375
2661.42171	4804.7375
2664.05923	4824.2375
2666.6951	4834.7375
2669.32934	4815.3375
2671.96194	4833.0375
2674.59291	4812.4375
2677.22224	4831.1375
2679.84993	4844.1375
2682.476	4832.6375
2685.10043	4827.3375
2687.72324	4812.2375
2690.34441	4799.1375
2692.96396	4833.3375
2695.58188	4822.6375
2698.19818	4824.7375
2700.81285	4823.8375
2703.4259	4840.5375
2706.03733	4885.7375
2708.64714	4865.0375
2711.25533	4858.9375
2713.86191	4854.4375
2716.46687	4858.1375
2719.07021	4863.4375
2721.67194	4878.4375
2724.27206	4848.4375
2726.87057	4831.3375
2729.46747	4861.0375
2732.06276	4887.4375
2734.65644	4862.7375
2737.24852	4861.8375
2739.83899	4835.6375
2742.42786	4859.2375
2745.01513	4850.6375
2747.60079	4841.2375
2750.18486	4832.9375
2752.76733	4843.9375
2755.3482	4836.0375
2757.92747	4844.9375
2760.50515	4836.1375
2763.08123	4840.5375
2765.65573	4819.7375
2768.22863	4832.8375
2770.79994	4849.2375
2773.36967	4832.8375
2775.9378	4827.9375
2778.50435	4852.0375
2781.06932	4819.6375
2783.6327	4832.6375
2786.1945	4822.4375
2788.75471	4829.5375
2791.31335	4830.0375
2793.87041	4813.9375
2796.42589	4792.1375
2798.97979	4807.5375
2801.53212	4808.9375
2804.08288	4800.7375
2806.63206	4807.0375
2809.17967	4801.0375
2811.72571	4788.2375
2814.27018	4806.4375
2816.81308	4779.9375
2819.35442	4794.1375
2821.89419	4800.6375
2824.43239	4817.2375
2826.96904	4816.4375
2829.50412	4807.2375
2832.03763	4809.9375
2834.56959	4816.2375
2837.1	4816.0375
2839.62884	4808.3375
2842.15613	4820.1375
2844.68186	4858.9375
2847.20604	4850.9375
2849.72867	4869.7375
2852.24974	4874.2375
2854.76927	4867.3375
2857.28724	4889.0375
2859.80367	4883.1375
2862.31855	4851.4375
2864.83189	4870.0375
2867.34368	4855.2375
2869.85393	4852.7375
2872.36264	4838.7375
2874.8698	4862.5375
2877.37543	4860.6375
2879.87952	4864.3375
2882.38207	4887.8375
2884.88308	4871.6375
2887.38256	4872.7375
2889.88051	4890.5375
2892.37692	4898.4375
2894.8718	4890.0375
2897.36515	4915.5375
2899.85698	4901.5375
2902.34727	4935.3375
2904.83604	4950.3375
2907.32328	4948.8375
2909.809	4954.0375
2912.29319	4971.7375
2914.77587	4978.9375
2917.25702	4996.2375
2919.73665	4988.6375
2922.21476	4986.2375
2924.69136	4978.5375
2927.16644	5007.5375
2929.64	4989.8375
2932.11205	4986.0375
2934.58258	5000.2375
2937.05161	4993.5375
2939.51912	5011.2375
2941.98513	4992.8375
2944.44962	4948.3375
2946.91261	4948.1375
2949.37409	4951.7375
2951.83407	4957.9375
2954.29254	4937.5375
2956.74951	4907.7375
2959.20498	4908.2375
2961.65895	4882.8375
2964.11142	4884.9375
2966.56239	4851.7375
2969.01186	4844.9375
2971.45984	4813.3375
2973.90632	4796.7375
2976.35131	4787.4375
2978.7948	4761.8375
2981.23681	4743.0375
2983.67732	4722.7375
2986.11635	4733.0375
2988.55388	4705.3375
2990.98993	4706.5375
2993.4245	4699.5375
2995.85758	4683.3375
2998.28917	4671.3375
3000.71928	4676.7375
3003.14791	4683.7375
3005.57506	4683.8375
3008.00073	4664.7375
3010.42493	4667.2375
3012.84764	4672.4375
3015.26888	4643.5375
3017.68865	4636.6375
3020.10694	4617.6375
3022.52376	4611.2375
3024.9391	4613.3375
3027.35298	4603.2375
3029.76539	4611.3375
3032.17632	4590.7375
3034.5858	4573.6375
3036.9938	4556.0375
3039.40034	4554.4375
3041.80542	4548.7375
3044.20903	4549.1375
3046.61118	4544.2375
3049.01187	4513.5375
3051.4111	4532.2375
3053.80888	4521.3375
3056.20519	4514.5375
3058.60005	4509.1375
3060.99345	4502.1375
3063.3854	4501.2375
3065.7759	4495.5375
3068.16494	4496.5375
3070.55254	4475.5375
3072.93868	4470.2375
3075.32338	4449.2375
3077.70662	4467.7375
3080.08842	4439.9375
3082.46878	4445.3375
3084.84769	4439.4375
3087.22515	4436.7375
3089.60118	4445.2375
3091.97576	4440.9375
3094.3489	4442.4375
3096.72061	4435.7375
3099.09087	4433.2375
3101.4597	4446.2375
3103.82709	4445.6375
3106.19305	4424.9375
3108.55757	4416.7375
3110.92066	4417.8375
3113.28232	4434.0375
3115.64255	4417.6375
3118.00134	4392.1375
3120.35871	4384.2375
3122.71466	4403.6375
3125.06917	4395.2375
3127.42226	4392.4375
3129.77393	4410.0375
3132.12417	4405.7375
3134.47299	4402.3375
3136.82039	4391.7375
3139.16636	4410.0375
3141.51092	4396.9375
3143.85406	4420.7375
3146.19579	4411.6375
3148.53609	4429.1375
3150.87499	4405.0375
3153.21246	4405.3375
3155.54853	4439.6375
3157.88318	4439.4375
3160.21642	4430.9375
3162.54826	4436.7375
3164.87868	4452.5375
3167.2077	4440.3375
3169.5353	4433.6375
3171.86151	4426.6375
3174.18631	4441.6375
3176.5097	4432.4375
3178.83169	4440.4375
3181.15228	4449.0375
3183.47147	4431.1375
3185.78926	4437.2375
3188.10565	4452.1375
3190.42065	4452.3375
3192.73424	4442.4375
3195.04645	4436.2375
3197.35725	4457.8375
3199.66667	4456.7375
3201.97469	4458.0375
3204.28132	4457.1375
3206.58656	4492.2375
3208.8904	4466.8375
3211.19287	4465.3375
3213.49394	4446.1375
3215.79363	4472.1375
3218.09193	4483.8375
3220.38884	4488.8375
3222.68438	4494.1375
3224.97853	4486.7375
3227.2713	4469.9375
3229.56269	4472.7375
3231.8527	4500.6375
3234.14133	4481.3375
3236.42858	4474.7375
3238.71446	4471.4375
3240.99896	4466.6375
3243.28209	4468.5375
3245.56384	4466.0375
3247.84423	4467.0375
3250.12324	4463.4375
3252.40088	4454.5375
3254.67715	4439.5375
3256.95205	4444.5375
3259.22558	4441.8375
3261.49775	4420.9375
3263.76855	4424.2375
3266.03799	4402.2375
3268.30606	4425.1375
3270.57277	4412.6375
3272.83812	4391.2375
3275.10211	4386.7375
3277.36474	4390.5375
3279.62601	4387.4375
3281.88593	4399.9375
3284.14448	4406.2375
3286.40168	4403.2375
3288.65753	4399.1375
3290.91202	4391.9375
3293.16516	4389.3375
3295.41695	4376.6375
3297.66738	4347.4375
3299.91647	4346.1375
3302.16421	4321.3375
3304.4106	4315.7375
3306.65564	4286.8375
3308.89933	4262.0375
3311.14169	4240.7375
3313.38269	4230.8375
3315.62236	4201.2375
3317.86068	4158.1375
3320.09766	4129.1375
3322.3333	4092.9375
3324.5676	4106.1375
3326.80056	4050.6375
3329.03219	4026.3375
3331.26248	2.2375
3333.49143	-0.7625
3335.71905	-0.1625
