Data from AgNPs_FTO_APTES_UA_0um_CRN_0.1mM_R6G_10uM_NaF_0.1M_Addition_RamanShift__22__10-36-58-917.txt Node

Date: Tue Dec 21 10:36:58 GMT 2021
User: TCL
Spectrometer: QEP01345
Trigger mode: 4
Integration Time (sec): 7.000000E0
Scans to average: 10
Electric dark correction enabled: true
Nonlinearity correction enabled: false
Boxcar width: 0
XAxis mode: Raman Shifts
Number of Pixels in Spectrum: 1044
>>>>>Begin Spectral Data<<<<<
46.04893	0.125
50.45542	-0.775
54.85868	-0.375
59.25871	0.825
63.6555	19.125
68.04907	24.525
72.43941	23.125
76.82654	22.925
81.21044	27.625
85.59113	30.125
89.96862	30.125
94.34289	32.125
98.71396	29.225
103.08183	27.725
107.4465	34.325
111.80798	35.625
116.16626	32.325
120.52136	33.525
124.87327	37.525
129.222	30.225
133.56755	36.425
137.90993	38.925
142.24913	37.325
146.58517	38.925
150.91804	44.325
155.24774	49.125
159.57429	56.625
163.89768	77.825
168.21792	92.925
172.53501	121.625
176.84895	158.025
181.15975	217.425
185.46741	295.525
189.77193	410.725
194.07331	555.825
198.37157	736.725
202.6667	927.525
206.9587	1142.625
211.24758	1344.125
215.53334	1569.525
219.81599	1769.625
224.09553	1994.325
228.37195	2201.425
232.64527	2412.725
236.91549	2600.825
241.18261	2779.825
245.44663	2922.125
249.70755	3019.725
253.96539	3116.425
258.22014	3177.225
262.4718	3195.425
266.72039	3172.325
270.96589	3114.425
275.20832	3043.425
279.44768	2935.925
283.68397	2842.525
287.91719	2760.725
292.14735	2703.325
296.37445	2659.925
300.59849	2657.425
304.81948	2677.225
309.03742	2705.425
313.25231	2692.225
317.46415	2635.125
321.67296	2553.725
325.87872	2486.425
330.08145	2443.125
334.28114	2446.225
338.47781	2486.025
342.67145	2507.225
346.86207	2568.125
351.04966	2615.425
355.23424	2690.025
359.4158	2761.025
363.59435	2807.425
367.76989	2829.125
371.94243	2844.825
376.11196	2848.825
380.27849	2845.825
384.44203	2848.325
388.60257	2838.025
392.76012	2834.025
396.91468	2831.925
401.06626	2869.525
405.21485	2883.725
409.36047	2865.525
413.50311	2830.125
417.64277	2767.625
421.77947	2740.825
425.9132	2747.825
430.04396	2773.625
434.17176	2813.425
438.2966	2863.725
442.41849	2941.625
446.53742	3018.925
450.6534	3102.925
454.76644	3155.625
458.87653	3150.525
462.98368	3121.825
467.08789	3060.325
471.18916	2987.925
475.2875	2932.725
479.38291	2874.225
483.4754	2852.725
487.56496	2818.425
491.6516	2809.225
495.73531	2810.625
499.81612	2814.225
503.89401	2810.825
507.96899	2828.025
512.04106	2830.725
516.11023	2839.725
520.1765	2839.625
524.23987	2852.325
528.30034	2837.325
532.35792	2822.125
536.41261	2804.525
540.46441	2776.325
544.51333	2768.125
548.55936	2760.125
552.60252	2775.625
556.64279	2810.725
560.6802	2841.625
564.71473	2858.425
568.7464	2908.125
572.7752	2983.925
576.80114	2962.525
580.82422	2903.425
584.84444	2866.125
588.86181	2868.425
592.87633	2931.325
596.888	3024.525
600.89682	3066.025
604.9028	3176.525
608.90594	3532.825
612.90624	4017.025
616.90371	4021.925
620.89834	3383.925
624.89015	3017.625
628.87913	2935.925
632.86528	2954.725
636.84862	2993.825
640.82913	3053.525
644.80683	3095.625
648.78172	3087.225
652.75379	3084.025
656.72306	3038.125
660.68952	3038.625
664.65319	3008.025
668.61405	2989.325
672.57211	3033.125
676.52738	3173.225
680.47986	3301.325
684.42955	3339.425
688.37646	3263.425
692.32058	3186.825
696.26192	3172.625
700.20048	3209.025
704.13626	3214.325
708.06928	3121.425
711.99952	3019.525
715.927	2929.125
719.85171	2902.325
723.77365	2894.825
727.69284	2900.925
731.60928	2912.825
735.52295	2915.925
739.43388	2898.625
743.34206	2896.125
747.24749	2914.925
751.15017	2919.925
755.05012	2942.925
758.94733	2974.825
762.8418	3038.525
766.73354	3155.125
770.62254	3333.825
774.50882	3433.225
778.39237	3369.825
782.27321	3142.025
786.15132	2928.225
790.02671	2798.925
793.89938	2748.125
797.76935	2730.825
801.6366	2729.825
805.50115	2732.125
809.36299	2725.125
813.22213	2700.625
817.07857	2672.225
820.93231	2670.725
824.78336	2655.325
828.63172	2656.325
832.47738	2661.025
836.32036	2660.625
840.16066	2649.525
843.99827	2650.925
847.8332	2662.925
851.66546	2691.225
855.49504	2744.425
859.32195	2829.425
863.1462	2900.225
866.96777	2889.925
870.78668	2835.025
874.60293	2766.525
878.41652	2697.825
882.22745	2674.625
886.03573	2665.225
889.84136	2645.525
893.64433	2616.925
897.44466	2609.725
901.24235	2604.725
905.0374	2600.925
908.8298	2593.325
912.61957	2621.425
916.40671	2668.525
920.19121	2756.525
923.97308	2863.825
927.75233	2994.225
931.52895	3072.925
935.30295	3068.125
939.07433	2993.425
942.84309	2860.425
946.60924	2756.925
950.37278	2657.925
954.13371	2601.625
957.89203	2564.625
961.64774	2533.525
965.40086	2511.325
969.15137	2493.025
972.89929	2475.225
976.64461	2462.125
980.38733	2450.025
984.12747	2431.025
987.86502	2428.425
991.59999	2418.125
995.33237	2412.525
999.06217	2442.825
1002.78939	2460.725
1006.51404	2477.125
1010.23611	2489.325
1013.95561	2501.525
1017.67255	2518.025
1021.38692	2502.425
1025.09872	2486.025
1028.80796	2473.725
1032.51465	2475.825
1036.21877	2497.025
1039.92035	2518.225
1043.61937	2529.925
1047.31584	2559.325
1051.00976	2559.825
1054.70114	2571.725
1058.38998	2534.225
1062.07627	2514.825
1065.76003	2483.625
1069.44126	2430.425
1073.11995	2416.725
1076.79611	2401.025
1080.46974	2418.425
1084.14085	2430.425
1087.80943	2453.325
1091.47549	2463.425
1095.13903	2437.425
1098.80005	2405.725
1102.45857	2379.925
1106.11456	2373.825
1109.76805	2381.025
1113.41903	2405.525
1117.06751	2460.925
1120.71348	2501.125
1124.35696	2562.825
1127.99793	2623.325
1131.63641	2638.825
1135.2724	2584.025
1138.90589	2533.825
1142.5369	2496.725
1146.16542	2458.125
1149.79145	2436.825
1153.415	2421.025
1157.03607	2421.325
1160.65467	2428.025
1164.27079	2437.625
1167.88443	2483.425
1171.49561	2570.025
1175.10432	2716.225
1178.71056	2913.125
1182.31434	3077.725
1185.91565	3131.025
1189.51451	3064.025
1193.11091	2948.925
1196.70485	2811.925
1200.29634	2739.225
1203.88538	2659.525
1207.47197	2587.125
1211.05612	2515.825
1214.63782	2480.625
1218.21708	2478.825
1221.79391	2487.925
1225.36829	2490.225
1228.94024	2505.925
1232.50976	2473.425
1236.07685	2461.025
1239.6415	2481.025
1243.20374	2501.225
1246.76355	2508.025
1250.32093	2531.125
1253.8759	2560.125
1257.42845	2600.325
1260.97859	2633.525
1264.52631	2690.825
1268.07163	2715.225
1271.61453	2742.825
1275.15503	2752.025
1278.69312	2760.625
1282.22882	2738.325
1285.76211	2763.925
1289.29301	2818.025
1292.82151	2865.025
1296.34761	2934.725
1299.87133	2999.825
1303.39266	3120.125
1306.9116	3313.825
1310.42815	3572.325
1313.94233	3740.925
1317.45412	3723.725
1320.96354	3539.625
1324.47058	3342.425
1327.97525	3149.225
1331.47754	3039.825
1334.97747	3037.625
1338.47502	3105.825
1341.97022	3188.225
1345.46305	3288.825
1348.95352	3440.025
1352.44163	3647.125
1355.92738	3919.325
1359.41078	4307.925
1362.89183	4656.425
1366.37053	4702.625
1369.84688	4275.525
1373.32088	3743.025
1376.79254	3372.425
1380.26186	3171.825
1383.72883	3055.825
1387.19347	2991.825
1390.65578	2899.525
1394.11575	2853.925
1397.57339	2850.825
1401.0287	2882.025
1404.48168	2915.925
1407.93234	2983.825
1411.38068	3061.225
1414.82669	3153.825
1418.27039	3270.925
1421.71177	3327.725
1425.15083	3362.425
1428.58758	3348.825
1432.02203	3328.925
1435.45416	3301.325
1438.88399	3242.025
1442.31151	3137.825
1445.73673	3067.025
1449.15965	3002.425
1452.58027	2960.925
1455.9986	2882.425
1459.41463	2826.225
1462.82837	2789.825
1466.23982	2788.925
1469.64898	2814.925
1473.05586	2825.325
1476.46045	2806.125
1479.86276	2818.325
1483.26279	2828.625
1486.66054	2814.925
1490.05602	2813.825
1493.44922	2811.525
1496.84016	2838.225
1500.22882	2926.025
1503.61521	3098.125
1506.99934	3321.825
1510.38121	3562.425
1513.76081	3699.525
1517.13816	3607.525
1520.51324	3314.825
1523.88607	3006.225
1527.25665	2796.725
1530.62498	2690.525
1533.99105	2657.425
1537.35488	2612.825
1540.71647	2607.625
1544.07581	2601.025
1547.4329	2599.225
1550.78776	2607.425
1554.14038	2603.525
1557.49077	2626.425
1560.83892	2612.025
1564.18484	2651.925
1567.52853	2688.425
1570.86999	2722.425
1574.20922	2751.125
1577.54624	2748.425
1580.88103	2678.825
1584.2136	2572.025
1587.54395	2494.125
1590.87208	2486.825
1594.19801	2542.625
1597.52172	2652.125
1600.84321	2748.525
1604.16251	2755.325
1607.47959	2665.525
1610.79447	2536.525
1614.10715	2423.025
1617.41763	2360.125
1620.7259	2319.025
1624.03199	2317.725
1627.33587	2328.225
1630.63757	2352.025
1633.93707	2407.925
1637.23439	2488.725
1640.52951	2617.425
1643.82246	2811.225
1647.11321	3042.825
1650.40179	3195.925
1653.68819	3145.125
1656.97241	2896.525
1660.25446	2612.025
1663.53433	2410.625
1666.81203	2286.225
1670.08756	2200.725
1673.36092	2141.525
1676.63211	2080.325
1679.90115	2019.825
1683.16801	1963.825
1686.43272	1908.025
1689.69527	1872.525
1692.95567	1816.325
1696.2139	1788.825
1699.46999	1776.825
1702.72392	1759.925
1705.97571	1775.625
1709.22535	1795.625
1712.47284	1820.325
1715.71819	1839.125
1718.96139	1840.725
1722.20246	1849.925
1725.44139	1840.225
1728.67818	1818.825
1731.91284	1802.925
1735.14537	1779.125
1738.37576	1762.325
1741.60403	1744.725
1744.83017	1748.825
1748.05418	1729.825
1751.27607	1726.125
1754.49584	1704.825
1757.71349	1670.025
1760.92903	1615.525
1764.14244	1567.725
1767.35375	1537.025
1770.56294	1503.925
1773.77002	1482.425
1776.97499	1470.725
1780.17785	1456.225
1783.37861	1448.325
1786.57727	1450.825
1789.77382	1431.025
1792.96828	1425.425
1796.16064	1409.025
1799.3509	1397.525
1802.53907	1391.525
1805.72514	1384.625
1808.90913	1379.225
1812.09102	1365.625
1815.27083	1356.925
1818.44856	1355.125
1821.6242	1350.525
1824.79776	1352.725
1827.96924	1345.125
1831.13864	1339.425
1834.30597	1330.225
1837.47122	1338.225
1840.6344	1322.925
1843.7955	1320.825
1846.95454	1321.025
1850.11151	1310.425
1853.26642	1312.125
1856.41926	1317.725
1859.57004	1312.225
1862.71876	1305.525
1865.86542	1292.125
1869.01003	1292.625
1872.15258	1298.125
1875.29308	1292.925
1878.43152	1289.525
1881.56792	1283.625
1884.70227	1294.625
1887.83457	1275.725
1890.96482	1281.525
1894.09304	1271.725
1897.21921	1266.625
1900.34335	1265.625
1903.46544	1267.425
1906.58551	1259.025
1909.70353	1263.825
1912.81953	1255.625
1915.93349	1245.425
1919.04543	1258.525
1922.15534	1242.525
1925.26322	1239.925
1928.36908	1242.125
1931.47292	1233.925
1934.57473	1230.125
1937.67453	1222.925
1940.77232	1223.525
1943.86808	1217.725
1946.96184	1209.325
1950.05358	1209.725
1953.14331	1205.825
1956.23103	1194.225
1959.31675	1193.325
1962.40046	1189.725
1965.48217	1185.825
1968.56188	1182.325
1971.63959	1167.925
1974.7153	1179.525
1977.78901	1171.225
1980.86073	1163.825
1983.93046	1159.025
1986.99819	1149.725
1990.06394	1146.825
1993.1277	1135.425
1996.18947	1135.925
1999.24925	1136.325
2002.30706	1133.625
2005.36288	1126.425
2008.41672	1131.525
2011.46859	1107.525
2014.51848	1117.125
2017.56639	1109.825
2020.61233	1110.525
2023.6563	1102.425
2026.6983	1096.525
2029.73833	1097.425
2032.7764	1093.925
2035.8125	1083.525
2038.84664	1093.825
2041.87881	1088.125
2044.90903	1083.925
2047.93729	1074.425
2050.96359	1087.025
2053.98794	1078.725
2057.01034	1082.825
2060.03078	1073.325
2063.04927	1066.325
2066.06582	1070.425
2069.08042	1074.025
2072.09307	1069.825
2075.10378	1067.925
2078.11255	1064.925
2081.11938	1065.625
2084.12426	1076.125
2087.12722	1063.225
2090.12824	1071.525
2093.12732	1078.425
2096.12447	1067.825
2099.11969	1068.625
2102.11299	1073.425
2105.10435	1069.125
2108.09379	1074.725
2111.08131	1067.325
2114.0669	1061.425
2117.05057	1056.525
2120.03233	1063.725
2123.01216	1050.625
2125.99008	1041.125
2128.96609	1042.725
2131.94018	1038.225
2134.91236	1040.225
2137.88263	1043.925
2140.851	1037.625
2143.81746	1031.525
2146.78201	1037.025
2149.74466	1029.825
2152.7054	1035.125
2155.66425	1025.025
2158.6212	1022.325
2161.57625	1029.125
2164.52941	1029.425
2167.48067	1018.825
2170.43004	1021.125
2173.37752	1020.825
2176.32311	1021.525
2179.26681	1014.825
2182.20863	1014.225
2185.14856	1012.225
2188.08661	1013.725
2191.02278	1010.825
2193.95707	1004.925
2196.88948	1011.525
2199.82001	1011.825
2202.74867	1009.825
2205.67545	1000.125
2208.60037	999.125
2211.52341	1003.425
2214.44458	996.825
2217.36388	986.325
2220.28132	985.825
2223.1969	986.425
2226.11061	982.225
2229.02246	971.225
2231.93245	976.425
2234.84058	969.125
2237.74686	973.325
2240.65128	960.125
2243.55385	966.825
2246.45456	965.425
2249.35343	959.325
2252.25044	958.925
2255.14561	956.525
2258.03893	957.425
2260.93041	946.625
2263.82004	955.725
2266.70783	940.925
2269.59378	938.525
2272.4779	938.325
2275.36017	933.425
2278.24061	931.425
2281.11922	927.825
2283.996	927.725
2286.87094	927.025
2289.74405	922.625
2292.61534	923.025
2295.4848	916.125
2298.35243	917.925
2301.21824	909.325
2304.08223	918.325
2306.94439	917.925
2309.80474	904.725
2312.66327	910.525
2315.51999	906.225
2318.37489	897.925
2321.22797	897.125
2324.07925	897.925
2326.92871	893.425
2329.77637	901.025
2332.62222	901.125
2335.46626	900.225
2338.3085	889.925
2341.14893	891.125
2343.98756	888.625
2346.8244	881.325
2349.65943	882.625
2352.49267	885.325
2355.32411	880.825
2358.15376	886.125
2360.98161	878.725
2363.80768	878.525
2366.63195	882.325
2369.45444	874.625
2372.27514	883.325
2375.09405	876.325
2377.91118	874.125
2380.72652	866.125
2383.54009	862.325
2386.35187	862.925
2389.16188	861.925
2391.97011	851.425
2394.77657	855.025
2397.58125	856.625
2400.38416	855.025
2403.18529	849.725
2405.98466	849.925
2408.78226	844.125
2411.57809	841.025
2414.37216	844.025
2417.16446	841.325
2419.955	833.425
2422.74378	832.425
2425.5308	830.925
2428.31606	826.425
2431.09956	831.625
2433.88131	832.925
2436.6613	824.025
2439.43954	825.525
2442.21603	817.125
2444.99077	823.025
2447.76377	825.425
2450.53501	821.625
2453.30451	819.025
2456.07226	816.825
2458.83827	819.325
2461.60254	812.625
2464.36507	809.825
2467.12586	817.125
2469.88492	808.225
2472.64224	806.025
2475.39782	812.325
2478.15167	809.125
2480.90379	808.225
2483.65417	804.225
2486.40283	807.025
2489.14976	808.125
2491.89497	808.725
2494.63845	814.925
2497.3802	798.725
2500.12024	800.625
2502.85855	798.925
2505.59514	789.725
2508.33002	798.025
2511.06318	788.125
2513.79462	788.325
2516.52435	782.225
2519.25237	783.725
2521.97867	776.625
2524.70327	775.325
2527.42616	769.425
2530.14734	765.425
2532.86681	779.025
2535.58458	763.025
2538.30065	768.725
2541.01501	768.225
2543.72768	764.225
2546.43864	765.725
2549.14791	761.325
2551.85548	765.425
2554.56136	762.425
2557.26554	757.025
2559.96803	767.425
2562.66883	753.025
2565.36794	751.725
2568.06536	749.825
2570.7611	750.925
2573.45514	753.625
2576.14751	745.825
2578.83819	745.825
2581.52719	747.425
2584.21451	740.025
2586.90015	739.625
2589.58411	737.125
2592.2664	742.125
2594.94701	734.325
2597.62594	734.225
2600.30321	730.425
2602.9788	730.025
2605.65273	724.125
2608.32498	723.725
2610.99557	727.025
2613.66449	723.525
2616.33175	724.325
2618.99734	730.525
2621.66128	726.625
2624.32355	718.325
2626.98416	719.625
2629.64311	717.625
2632.30041	713.125
2634.95605	718.525
2637.61004	718.925
2640.26238	713.425
2642.91306	711.125
2645.56209	709.625
2648.20948	708.825
2650.85521	707.125
2653.4993	705.125
2656.14175	713.025
2658.78255	712.425
2661.42171	718.425
2664.05923	711.825
2666.6951	720.625
2669.32934	720.525
2671.96194	714.325
2674.59291	719.725
2677.22224	721.325
2679.84993	720.425
2682.476	720.625
2685.10043	716.225
2687.72324	708.525
2690.34441	713.125
2692.96396	715.025
2695.58188	722.325
2698.19818	717.725
2700.81285	721.025
2703.4259	725.325
2706.03733	733.125
2708.64714	717.625
2711.25533	720.525
2713.86191	720.525
2716.46687	721.125
2719.07021	731.625
2721.67194	722.925
2724.27206	726.425
2726.87057	723.425
2729.46747	728.825
2732.06276	728.825
2734.65644	729.525
2737.24852	725.225
2739.83899	725.425
2742.42786	729.925
2745.01513	730.725
2747.60079	724.425
2750.18486	732.725
2752.76733	731.725
2755.3482	730.325
2757.92747	737.725
2760.50515	740.325
2763.08123	740.725
2765.65573	747.425
2768.22863	748.725
2770.79994	745.025
2773.36967	764.725
2775.9378	755.425
2778.50435	765.525
2781.06932	767.525
2783.6327	766.425
2786.1945	778.025
2788.75471	781.525
2791.31335	780.825
2793.87041	787.925
2796.42589	787.125
2798.97979	792.825
2801.53212	804.325
2804.08288	807.625
2806.63206	824.425
2809.17967	831.625
2811.72571	831.225
2814.27018	841.125
2816.81308	841.525
2819.35442	859.225
2821.89419	863.725
2824.43239	869.425
2826.96904	873.225
2829.50412	877.825
2832.03763	884.625
2834.56959	892.525
2837.1	888.925
2839.62884	911.925
2842.15613	905.525
2844.68186	926.525
2847.20604	934.425
2849.72867	945.025
2852.24974	936.525
2854.76927	946.125
2857.28724	948.825
2859.80367	949.625
2862.31855	950.225
2864.83189	957.325
2867.34368	968.325
2869.85393	978.325
2872.36264	987.225
2874.8698	1002.125
2877.37543	1020.925
2879.87952	1046.625
2882.38207	1061.225
2884.88308	1074.225
2887.38256	1091.725
2889.88051	1105.625
2892.37692	1128.625
2894.8718	1132.125
2897.36515	1153.825
2899.85698	1163.025
2902.34727	1177.925
2904.83604	1191.925
2907.32328	1204.325
2909.809	1222.625
2912.29319	1229.425
2914.77587	1242.025
2917.25702	1255.325
2919.73665	1250.025
2922.21476	1249.725
2924.69136	1253.825
2927.16644	1255.125
2929.64	1243.025
2932.11205	1236.525
2934.58258	1229.025
2937.05161	1218.925
2939.51912	1211.725
2941.98513	1188.425
2944.44962	1162.725
2946.91261	1146.625
2949.37409	1117.125
2951.83407	1096.725
2954.29254	1075.525
2956.74951	1052.925
2959.20498	1028.325
2961.65895	998.925
2964.11142	978.425
2966.56239	948.925
2969.01186	927.625
2971.45984	911.825
2973.90632	887.525
2976.35131	874.725
2978.7948	859.825
2981.23681	854.525
2983.67732	838.225
2986.11635	839.125
2988.55388	822.925
2990.98993	820.425
2993.4245	820.825
2995.85758	808.425
2998.28917	803.325
3000.71928	803.625
3003.14791	804.125
3005.57506	801.625
3008.00073	798.425
3010.42493	787.325
3012.84764	784.125
3015.26888	781.925
3017.68865	778.725
3020.10694	766.425
3022.52376	763.025
3024.9391	756.125
3027.35298	743.425
3029.76539	737.425
3032.17632	733.825
3034.5858	723.825
3036.9938	719.525
3039.40034	710.325
3041.80542	705.125
3044.20903	704.925
3046.61118	698.425
3049.01187	698.025
3051.4111	699.525
3053.80888	690.625
3056.20519	693.125
3058.60005	686.725
3060.99345	686.625
3063.3854	680.425
3065.7759	684.225
3068.16494	683.225
3070.55254	679.825
3072.93868	681.525
3075.32338	681.925
3077.70662	679.925
3080.08842	678.025
3082.46878	688.625
3084.84769	675.925
3087.22515	682.325
3089.60118	692.325
3091.97576	689.125
3094.3489	691.825
3096.72061	693.625
3099.09087	694.325
3101.4597	705.225
3103.82709	705.525
3106.19305	703.625
3108.55757	710.325
3110.92066	709.925
3113.28232	702.925
3115.64255	708.725
3118.00134	710.925
3120.35871	713.425
3122.71466	716.225
3125.06917	717.725
3127.42226	727.225
3129.77393	726.525
3132.12417	734.825
3134.47299	738.625
3136.82039	744.325
3139.16636	743.025
3141.51092	745.425
3143.85406	751.425
3146.19579	755.925
3148.53609	762.525
3150.87499	763.525
3153.21246	768.825
3155.54853	777.025
3157.88318	777.225
3160.21642	782.625
3162.54826	793.025
3164.87868	795.125
3167.2077	797.925
3169.5353	798.825
3171.86151	806.725
3174.18631	809.925
3176.5097	813.825
3178.83169	814.325
3181.15228	824.425
3183.47147	825.125
3185.78926	827.825
3188.10565	827.925
3190.42065	825.225
3192.73424	837.625
3195.04645	837.925
3197.35725	838.725
3199.66667	843.525
3201.97469	846.025
3204.28132	849.325
3206.58656	855.925
3208.8904	860.125
3211.19287	860.325
3213.49394	866.825
3215.79363	859.225
3218.09193	869.525
3220.38884	873.425
3222.68438	870.725
3224.97853	873.725
3227.2713	878.925
3229.56269	876.725
3231.8527	881.825
3234.14133	879.925
3236.42858	879.925
3238.71446	878.725
3240.99896	882.725
3243.28209	883.925
3245.56384	886.225
3247.84423	886.525
3250.12324	877.625
3252.40088	888.125
3254.67715	887.925
3256.95205	889.025
3259.22558	890.825
3261.49775	882.225
3263.76855	890.225
3266.03799	890.325
3268.30606	886.725
3270.57277	886.325
3272.83812	887.425
3275.10211	888.625
3277.36474	894.425
3279.62601	885.025
3281.88593	887.525
3284.14448	890.025
3286.40168	896.125
3288.65753	884.625
3290.91202	901.225
3293.16516	892.625
3295.41695	882.925
3297.66738	878.125
3299.91647	876.125
3302.16421	873.325
3304.4106	877.425
3306.65564	875.825
3308.89933	871.125
3311.14169	872.925
3313.38269	858.425
3315.62236	857.725
3317.86068	851.325
3320.09766	843.325
3322.3333	847.225
3324.5676	850.525
3326.80056	834.125
3329.03219	835.725
3331.26248	0.325
3333.49143	-0.375
3335.71905	-0.275
