Data from AgNPs_FTO_APTES_UA_100um_CRN_0.1mM_R6G_10uM_NaF_0.1M_Addition_RamanShift__10__15-56-39-283.txt Node

Date: Tue Dec 21 15:56:39 GMT 2021
User: TCL
Spectrometer: QEP01345
Trigger mode: 4
Integration Time (sec): 7.000000E0
Scans to average: 10
Electric dark correction enabled: true
Nonlinearity correction enabled: false
Boxcar width: 0
XAxis mode: Raman Shifts
Number of Pixels in Spectrum: 1044
>>>>>Begin Spectral Data<<<<<
46.04893	0.1375
50.45542	-0.1625
54.85868	-0.8625
59.25871	-0.0625
63.6555	32.0375
68.04907	37.2375
72.43941	39.0375
76.82654	39.8375
81.21044	45.3375
85.59113	44.7375
89.96862	46.5375
94.34289	46.7375
98.71396	48.4375
103.08183	51.8375
107.4465	55.4375
111.80798	53.0375
116.16626	53.8375
120.52136	55.5375
124.87327	57.7375
129.222	58.8375
133.56755	60.2375
137.90993	67.6375
142.24913	66.3375
146.58517	77.7375
150.91804	81.3375
155.24774	93.9375
159.57429	117.3375
163.89768	148.3375
168.21792	190.8375
172.53501	251.9375
176.84895	349.1375
181.15975	492.4375
185.46741	681.4375
189.77193	941.7375
194.07331	1271.7375
198.37157	1637.6375
202.6667	2015.4375
206.9587	2406.3375
211.24758	2793.4375
215.53334	3185.0375
219.81599	3594.4375
224.09553	4049.1375
228.37195	4534.7375
232.64527	5085.8375
236.91549	5685.2375
241.18261	6259.7375
245.44663	6804.1375
249.70755	7286.6375
253.96539	7701.7375
258.22014	8011.6375
262.4718	8255.8375
266.72039	8460.3375
270.96589	8508.1375
275.20832	8490.8375
279.44768	8404.3375
283.68397	8281.0375
287.91719	8193.8375
292.14735	8124.1375
296.37445	8094.7375
300.59849	8130.4375
304.81948	8164.8375
309.03742	8161.7375
313.25231	8078.8375
317.46415	7914.2375
321.67296	7698.9375
325.87872	7493.6375
330.08145	7403.7375
334.28114	7352.8375
338.47781	7411.6375
342.67145	7512.7375
346.86207	7621.7375
351.04966	7763.2375
355.23424	7913.8375
359.4158	8056.4375
363.59435	8159.5375
367.76989	8278.7375
371.94243	8311.7375
376.11196	8360.4375
380.27849	8391.8375
384.44203	8432.0375
388.60257	8465.5375
392.76012	8527.1375
396.91468	8595.5375
401.06626	8750.8375
405.21485	8865.4375
409.36047	8848.2375
413.50311	8670.0375
417.64277	8490.6375
421.77947	8385.3375
425.9132	8333.0375
430.04396	8312.9375
434.17176	8332.6375
438.2966	8395.9375
442.41849	8423.5375
446.53742	8499.3375
450.6534	8627.9375
454.76644	8738.7375
458.87653	8802.0375
462.98368	8843.3375
467.08789	8816.2375
471.18916	8784.1375
475.2875	8757.8375
479.38291	8730.3375
483.4754	8698.9375
487.56496	8631.9375
491.6516	8577.4375
495.73531	8511.2375
499.81612	8481.1375
503.89401	8501.5375
507.96899	8552.0375
512.04106	8557.8375
516.11023	8561.0375
520.1765	8554.8375
524.23987	8531.3375
528.30034	8427.6375
532.35792	8376.9375
536.41261	8327.3375
540.46441	8254.4375
544.51333	8237.2375
548.55936	8286.4375
552.60252	8382.1375
556.64279	8510.2375
560.6802	8586.9375
564.71473	8595.1375
568.7464	8683.2375
572.7752	8787.2375
576.80114	8822.8375
580.82422	8877.0375
584.84444	8931.6375
588.86181	8938.1375
592.87633	8871.2375
596.888	8853.8375
600.89682	8914.0375
604.9028	9222.8375
608.90594	10082.3375
612.90624	11196.5375
616.90371	10957.9375
620.89834	9329.2375
624.89015	8511.0375
628.87913	8365.6375
632.86528	8462.2375
636.84862	8602.5375
640.82913	8560.7375
644.80683	8403.5375
648.78172	8212.9375
652.75379	8140.5375
656.72306	8197.3375
660.68952	8311.2375
664.65319	8305.6375
668.61405	8203.7375
672.57211	8117.5375
676.52738	8126.1375
680.47986	8128.4375
684.42955	8113.4375
688.37646	8066.3375
692.32058	8042.1375
696.26192	8060.0375
700.20048	8112.3375
704.13626	8143.9375
708.06928	8120.6375
711.99952	8078.8375
715.927	8053.6375
719.85171	8020.9375
723.77365	8018.7375
727.69284	7987.1375
731.60928	7933.8375
735.52295	7875.2375
739.43388	7884.5375
743.34206	7893.0375
747.24749	7907.8375
751.15017	7929.4375
755.05012	8005.1375
758.94733	8148.0375
762.8418	8505.0375
766.73354	9065.6375
770.62254	9728.3375
774.50882	10032.6375
778.39237	9762.9375
782.27321	9027.2375
786.15132	8431.4375
790.02671	8060.7375
793.89938	7863.5375
797.76935	7761.3375
801.6366	7736.7375
805.50115	7708.4375
809.36299	7709.0375
813.22213	7696.2375
817.07857	7688.0375
820.93231	7653.4375
824.78336	7626.5375
828.63172	7597.8375
832.47738	7574.4375
836.32036	7533.8375
840.16066	7524.8375
843.99827	7478.2375
847.8332	7476.8375
851.66546	7476.4375
855.49504	7464.2375
859.32195	7454.2375
863.1462	7436.9375
866.96777	7420.4375
870.78668	7433.5375
874.60293	7441.9375
878.41652	7443.1375
882.22745	7444.1375
886.03573	7489.5375
889.84136	7494.5375
893.64433	7475.9375
897.44466	7440.2375
901.24235	7402.3375
905.0374	7361.3375
908.8298	7348.4375
912.61957	7320.1375
916.40671	7346.4375
920.19121	7396.4375
923.97308	7394.7375
927.75233	7380.7375
931.52895	7351.4375
935.30295	7334.7375
939.07433	7200.7375
942.84309	7118.7375
946.60924	7069.2375
950.37278	7016.3375
954.13371	6982.8375
957.89203	6978.0375
961.64774	6975.1375
965.40086	6941.6375
969.15137	6917.5375
972.89929	6905.1375
976.64461	6886.6375
980.38733	6854.8375
984.12747	6871.5375
987.86502	6861.5375
991.59999	6898.7375
995.33237	6874.4375
999.06217	6899.4375
1002.78939	6951.3375
1006.51404	6993.9375
1010.23611	7075.9375
1013.95561	7111.9375
1017.67255	7122.8375
1021.38692	7112.2375
1025.09872	7089.4375
1028.80796	7031.0375
1032.51465	6957.3375
1036.21877	6971.6375
1039.92035	6993.6375
1043.61937	7023.9375
1047.31584	7057.9375
1051.00976	7087.5375
1054.70114	7119.7375
1058.38998	7115.9375
1062.07627	7131.5375
1065.76003	7235.4375
1069.44126	7276.3375
1073.11995	7329.1375
1076.79611	7394.7375
1080.46974	7439.0375
1084.14085	7429.6375
1087.80943	7468.1375
1091.47549	7494.9375
1095.13903	7525.2375
1098.80005	7457.3375
1102.45857	7355.5375
1106.11456	7248.5375
1109.76805	7195.9375
1113.41903	7187.2375
1117.06751	7284.2375
1120.71348	7378.5375
1124.35696	7497.1375
1127.99793	7630.8375
1131.63641	7712.1375
1135.2724	7660.6375
1138.90589	7528.6375
1142.5369	7441.2375
1146.16542	7343.9375
1149.79145	7328.4375
1153.415	7303.2375
1157.03607	7301.6375
1160.65467	7352.3375
1164.27079	7487.3375
1167.88443	7670.5375
1171.49561	7971.8375
1175.10432	8411.9375
1178.71056	8989.7375
1182.31434	9495.5375
1185.91565	9763.0375
1189.51451	9705.4375
1193.11091	9519.6375
1196.70485	9222.8375
1200.29634	8916.5375
1203.88538	8698.5375
1207.47197	8447.1375
1211.05612	8204.0375
1214.63782	7984.8375
1218.21708	7844.8375
1221.79391	7728.8375
1225.36829	7638.4375
1228.94024	7569.9375
1232.50976	7561.4375
1236.07685	7551.2375
1239.6415	7551.8375
1243.20374	7554.4375
1246.76355	7608.5375
1250.32093	7651.9375
1253.8759	7752.7375
1257.42845	7886.7375
1260.97859	8023.0375
1264.52631	8155.8375
1268.07163	8248.8375
1271.61453	8396.4375
1275.15503	8481.1375
1278.69312	8580.6375
1282.22882	8646.3375
1285.76211	8760.7375
1289.29301	8915.8375
1292.82151	9127.0375
1296.34761	9374.2375
1299.87133	9685.3375
1303.39266	10041.6375
1306.9116	10512.8375
1310.42815	11003.5375
1313.94233	11299.9375
1317.45412	11221.8375
1320.96354	10992.5375
1324.47058	10758.0375
1327.97525	10513.4375
1331.47754	10299.6375
1334.97747	10194.2375
1338.47502	10190.4375
1341.97022	10288.4375
1345.46305	10443.1375
1348.95352	10669.2375
1352.44163	10918.7375
1355.92738	11289.3375
1359.41078	11854.5375
1362.89183	12539.9375
1366.37053	12560.5375
1369.84688	11525.0375
1373.32088	10321.2375
1376.79254	9428.8375
1380.26186	8968.3375
1383.72883	8736.8375
1387.19347	8608.8375
1390.65578	8446.2375
1394.11575	8320.2375
1397.57339	8166.0375
1401.0287	8080.4375
1404.48168	8014.3375
1407.93234	7941.4375
1411.38068	7839.3375
1414.82669	7721.2375
1418.27039	7566.8375
1421.71177	7416.5375
1425.15083	7312.0375
1428.58758	7174.8375
1432.02203	7161.6375
1435.45416	7175.7375
1438.88399	7227.3375
1442.31151	7249.2375
1445.73673	7321.4375
1449.15965	7391.1375
1452.58027	7440.0375
1455.9986	7484.2375
1459.41463	7529.6375
1462.82837	7591.7375
1466.23982	7720.9375
1469.64898	7826.6375
1473.05586	7913.5375
1476.46045	7967.4375
1479.86276	8038.0375
1483.26279	8079.3375
1486.66054	8175.5375
1490.05602	8287.4375
1493.44922	8504.9375
1496.84016	8858.2375
1500.22882	9403.2375
1503.61521	10123.2375
1506.99934	10851.9375
1510.38121	11474.8375
1513.76081	11637.4375
1517.13816	11212.5375
1520.51324	10454.9375
1523.88607	9717.7375
1527.25665	9230.3375
1530.62498	8912.8375
1533.99105	8712.1375
1537.35488	8558.5375
1540.71647	8377.1375
1544.07581	8209.1375
1547.4329	8103.3375
1550.78776	8015.0375
1554.14038	7965.0375
1557.49077	7984.8375
1560.83892	8063.5375
1564.18484	8148.8375
1567.52853	8291.6375
1570.86999	8391.0375
1574.20922	8525.0375
1577.54624	8558.1375
1580.88103	8361.0375
1584.2136	8128.4375
1587.54395	7922.1375
1590.87208	7896.7375
1594.19801	7996.5375
1597.52172	8227.5375
1600.84321	8366.0375
1604.16251	8176.3375
1607.47959	7894.6375
1610.79447	7619.0375
1614.10715	7285.0375
1617.41763	7009.3375
1620.7259	6762.5375
1624.03199	6611.6375
1627.33587	6536.4375
1630.63757	6580.0375
1633.93707	6681.9375
1637.23439	6946.5375
1640.52951	7383.0375
1643.82246	7973.7375
1647.11321	8672.7375
1650.40179	9250.6375
1653.68819	9297.6375
1656.97241	8703.4375
1660.25446	7854.9375
1663.53433	7138.8375
1666.81203	6621.0375
1670.08756	6294.9375
1673.36092	6044.1375
1676.63211	5905.1375
1679.90115	5804.9375
1683.16801	5732.9375
1686.43272	5689.6375
1689.69527	5614.7375
1692.95567	5577.7375
1696.2139	5565.1375
1699.46999	5551.7375
1702.72392	5521.7375
1705.97571	5447.1375
1709.22535	5382.7375
1712.47284	5334.7375
1715.71819	5309.5375
1718.96139	5257.7375
1722.20246	5235.6375
1725.44139	5208.0375
1728.67818	5160.7375
1731.91284	5125.9375
1735.14537	5093.1375
1738.37576	5060.6375
1741.60403	5051.8375
1744.83017	5037.4375
1748.05418	5016.7375
1751.27607	5010.3375
1754.49584	4999.7375
1757.71349	5017.2375
1760.92903	5018.1375
1764.14244	4986.2375
1767.35375	4998.8375
1770.56294	4975.3375
1773.77002	4924.7375
1776.97499	4891.7375
1780.17785	4882.7375
1783.37861	4858.7375
1786.57727	4835.0375
1789.77382	4820.6375
1792.96828	4803.2375
1796.16064	4771.6375
1799.3509	4774.1375
1802.53907	4743.7375
1805.72514	4712.6375
1808.90913	4694.7375
1812.09102	4666.3375
1815.27083	4667.9375
1818.44856	4631.7375
1821.6242	4646.1375
1824.79776	4608.5375
1827.96924	4611.7375
1831.13864	4607.3375
1834.30597	4596.8375
1837.47122	4579.3375
1840.6344	4572.3375
1843.7955	4560.3375
1846.95454	4560.0375
1850.11151	4558.1375
1853.26642	4543.8375
1856.41926	4534.6375
1859.57004	4533.8375
1862.71876	4513.5375
1865.86542	4490.4375
1869.01003	4496.3375
1872.15258	4495.8375
1875.29308	4485.6375
1878.43152	4463.5375
1881.56792	4467.2375
1884.70227	4447.4375
1887.83457	4437.5375
1890.96482	4437.8375
1894.09304	4409.1375
1897.21921	4409.2375
1900.34335	4392.4375
1903.46544	4387.5375
1906.58551	4377.8375
1909.70353	4369.0375
1912.81953	4366.9375
1915.93349	4355.5375
1919.04543	4348.5375
1922.15534	4321.0375
1925.26322	4332.2375
1928.36908	4310.0375
1931.47292	4297.9375
1934.57473	4278.9375
1937.67453	4256.4375
1940.77232	4255.9375
1943.86808	4231.1375
1946.96184	4237.3375
1950.05358	4198.3375
1953.14331	4183.3375
1956.23103	4165.4375
1959.31675	4161.9375
1962.40046	4145.1375
1965.48217	4132.1375
1968.56188	4111.7375
1971.63959	4098.2375
1974.7153	4086.4375
1977.78901	4073.2375
1980.86073	4043.6375
1983.93046	4055.9375
1986.99819	4010.0375
1990.06394	3998.9375
1993.1277	3993.2375
1996.18947	3963.3375
1999.24925	3962.0375
2002.30706	3964.3375
2005.36288	3929.2375
2008.41672	3911.9375
2011.46859	3886.6375
2014.51848	3868.7375
2017.56639	3855.2375
2020.61233	3862.0375
2023.6563	3834.6375
2026.6983	3824.2375
2029.73833	3825.6375
2032.7764	3791.8375
2035.8125	3770.4375
2038.84664	3781.8375
2041.87881	3770.5375
2044.90903	3756.2375
2047.93729	3756.8375
2050.96359	3731.8375
2053.98794	3726.7375
2057.01034	3729.2375
2060.03078	3729.7375
2063.04927	3704.3375
2066.06582	3688.5375
2069.08042	3690.5375
2072.09307	3682.0375
2075.10378	3670.5375
2078.11255	3679.3375
2081.11938	3664.0375
2084.12426	3669.3375
2087.12722	3659.8375
2090.12824	3658.4375
2093.12732	3653.4375
2096.12447	3647.7375
2099.11969	3642.8375
2102.11299	3642.0375
2105.10435	3641.1375
2108.09379	3652.3375
2111.08131	3643.0375
2114.0669	3651.7375
2117.05057	3647.4375
2120.03233	3646.2375
2123.01216	3641.0375
2125.99008	3635.9375
2128.96609	3632.6375
2131.94018	3648.6375
2134.91236	3624.9375
2137.88263	3627.7375
2140.851	3644.1375
2143.81746	3648.7375
2146.78201	3637.3375
2149.74466	3621.0375
2152.7054	3631.0375
2155.66425	3608.1375
2158.6212	3608.3375
2161.57625	3616.6375
2164.52941	3605.2375
2167.48067	3593.2375
2170.43004	3593.5375
2173.37752	3588.5375
2176.32311	3586.5375
2179.26681	3592.7375
2182.20863	3586.4375
2185.14856	3579.0375
2188.08661	3580.7375
2191.02278	3551.0375
2193.95707	3546.2375
2196.88948	3534.9375
2199.82001	3546.5375
2202.74867	3532.2375
2205.67545	3538.7375
2208.60037	3512.6375
2211.52341	3504.9375
2214.44458	3493.2375
2217.36388	3479.0375
2220.28132	3484.8375
2223.1969	3475.6375
2226.11061	3466.1375
2229.02246	3443.0375
2231.93245	3442.4375
2234.84058	3438.6375
2237.74686	3427.4375
2240.65128	3419.2375
2243.55385	3410.5375
2246.45456	3428.3375
2249.35343	3396.4375
2252.25044	3395.5375
2255.14561	3384.7375
2258.03893	3383.4375
2260.93041	3385.5375
2263.82004	3370.3375
2266.70783	3352.5375
2269.59378	3350.9375
2272.4779	3333.6375
2275.36017	3321.9375
2278.24061	3317.9375
2281.11922	3308.4375
2283.996	3281.8375
2286.87094	3296.6375
2289.74405	3269.0375
2292.61534	3273.3375
2295.4848	3253.3375
2298.35243	3243.4375
2301.21824	3242.2375
2304.08223	3247.0375
2306.94439	3242.4375
2309.80474	3212.1375
2312.66327	3214.8375
2315.51999	3224.6375
2318.37489	3215.9375
2321.22797	3195.2375
2324.07925	3197.4375
2326.92871	3184.3375
2329.77637	3191.2375
2332.62222	3174.3375
2335.46626	3174.8375
2338.3085	3158.8375
2341.14893	3170.8375
2343.98756	3159.2375
2346.8244	3141.8375
2349.65943	3141.7375
2352.49267	3119.8375
2355.32411	3128.2375
2358.15376	3149.6375
2360.98161	3138.0375
2363.80768	3129.1375
2366.63195	3137.0375
2369.45444	3126.6375
2372.27514	3123.0375
2375.09405	3114.4375
2377.91118	3111.4375
2380.72652	3090.7375
2383.54009	3079.0375
2386.35187	3074.4375
2389.16188	3067.5375
2391.97011	3051.3375
2394.77657	3045.3375
2397.58125	3023.9375
2400.38416	3024.5375
2403.18529	3018.0375
2405.98466	3007.8375
2408.78226	3014.0375
2411.57809	2994.0375
2414.37216	2995.5375
2417.16446	3000.3375
2419.955	2973.8375
2422.74378	2981.8375
2425.5308	2983.7375
2428.31606	2974.7375
2431.09956	2956.9375
2433.88131	2950.6375
2436.6613	2958.4375
2439.43954	2962.3375
2442.21603	2932.5375
2444.99077	2944.7375
2447.76377	2928.0375
2450.53501	2927.8375
2453.30451	2928.0375
2456.07226	2919.7375
2458.83827	2922.3375
2461.60254	2909.6375
2464.36507	2895.3375
2467.12586	2906.6375
2469.88492	2907.8375
2472.64224	2896.5375
2475.39782	2910.3375
2478.15167	2903.1375
2480.90379	2895.4375
2483.65417	2887.4375
2486.40283	2886.9375
2489.14976	2877.4375
2491.89497	2882.2375
2494.63845	2890.9375
2497.3802	2884.2375
2500.12024	2883.4375
2502.85855	2864.1375
2505.59514	2864.4375
2508.33002	2856.5375
2511.06318	2826.0375
2513.79462	2836.7375
2516.52435	2819.8375
2519.25237	2816.3375
2521.97867	2810.5375
2524.70327	2806.3375
2527.42616	2795.3375
2530.14734	2800.6375
2532.86681	2781.4375
2535.58458	2782.1375
2538.30065	2774.4375
2541.01501	2771.0375
2543.72768	2765.9375
2546.43864	2760.7375
2549.14791	2748.2375
2551.85548	2750.6375
2554.56136	2751.9375
2557.26554	2736.3375
2559.96803	2744.0375
2562.66883	2726.9375
2565.36794	2713.2375
2568.06536	2708.8375
2570.7611	2701.6375
2573.45514	2696.5375
2576.14751	2698.0375
2578.83819	2686.9375
2581.52719	2680.4375
2584.21451	2664.7375
2586.90015	2669.2375
2589.58411	2665.1375
2592.2664	2654.6375
2594.94701	2636.6375
2597.62594	2650.4375
2600.30321	2623.2375
2602.9788	2626.1375
2605.65273	2624.1375
2608.32498	2612.7375
2610.99557	2615.1375
2613.66449	2603.1375
2616.33175	2594.5375
2618.99734	2603.7375
2621.66128	2593.3375
2624.32355	2584.9375
2626.98416	2584.5375
2629.64311	2575.0375
2632.30041	2562.3375
2634.95605	2564.7375
2637.61004	2537.7375
2640.26238	2562.4375
2642.91306	2546.6375
2645.56209	2549.4375
2648.20948	2554.4375
2650.85521	2546.2375
2653.4993	2538.8375
2656.14175	2539.5375
2658.78255	2523.9375
2661.42171	2534.2375
2664.05923	2530.5375
2666.6951	2536.1375
2669.32934	2529.0375
2671.96194	2535.9375
2674.59291	2523.1375
2677.22224	2530.3375
2679.84993	2525.3375
2682.476	2516.9375
2685.10043	2533.2375
2687.72324	2520.2375
2690.34441	2523.9375
2692.96396	2515.8375
2695.58188	2523.0375
2698.19818	2508.1375
2700.81285	2512.2375
2703.4259	2527.2375
2706.03733	2581.5375
2708.64714	2540.0375
2711.25533	2533.8375
2713.86191	2510.8375
2716.46687	2514.0375
2719.07021	2504.2375
2721.67194	2496.9375
2724.27206	2492.6375
2726.87057	2499.7375
2729.46747	2497.9375
2732.06276	2487.9375
2734.65644	2483.8375
2737.24852	2486.6375
2739.83899	2479.0375
2742.42786	2474.6375
2745.01513	2466.0375
2747.60079	2466.2375
2750.18486	2460.1375
2752.76733	2474.1375
2755.3482	2448.5375
2757.92747	2448.0375
2760.50515	2437.1375
2763.08123	2442.8375
2765.65573	2426.3375
2768.22863	2439.7375
2770.79994	2427.2375
2773.36967	2430.9375
2775.9378	2417.7375
2778.50435	2420.3375
2781.06932	2399.2375
2783.6327	2404.6375
2786.1945	2403.8375
2788.75471	2395.7375
2791.31335	2386.3375
2793.87041	2394.2375
2796.42589	2372.1375
2798.97979	2379.8375
2801.53212	2371.8375
2804.08288	2368.1375
2806.63206	2357.8375
2809.17967	2363.9375
2811.72571	2351.9375
2814.27018	2350.9375
2816.81308	2348.0375
2819.35442	2333.0375
2821.89419	2349.4375
2824.43239	2336.5375
2826.96904	2334.7375
2829.50412	2337.6375
2832.03763	2318.2375
2834.56959	2325.0375
2837.1	2318.2375
2839.62884	2319.1375
2842.15613	2329.8375
2844.68186	2314.6375
2847.20604	2331.6375
2849.72867	2338.1375
2852.24974	2332.8375
2854.76927	2331.8375
2857.28724	2324.7375
2859.80367	2328.3375
2862.31855	2318.3375
2864.83189	2310.5375
2867.34368	2317.5375
2869.85393	2301.3375
2872.36264	2297.6375
2874.8698	2308.8375
2877.37543	2295.0375
2879.87952	2298.6375
2882.38207	2295.4375
2884.88308	2295.6375
2887.38256	2291.4375
2889.88051	2287.4375
2892.37692	2293.8375
2894.8718	2275.4375
2897.36515	2286.0375
2899.85698	2280.7375
2902.34727	2291.3375
2904.83604	2294.3375
2907.32328	2288.1375
2909.809	2289.1375
2912.29319	2293.3375
2914.77587	2291.6375
2917.25702	2286.5375
2919.73665	2288.9375
2922.21476	2286.9375
2924.69136	2288.5375
2927.16644	2295.9375
2929.64	2281.6375
2932.11205	2282.6375
2934.58258	2269.3375
2937.05161	2278.8375
2939.51912	2276.6375
2941.98513	2278.5375
2944.44962	2268.3375
2946.91261	2266.9375
2949.37409	2265.3375
2951.83407	2265.6375
2954.29254	2239.8375
2956.74951	2254.9375
2959.20498	2228.1375
2961.65895	2243.7375
2964.11142	2221.5375
2966.56239	2225.4375
2969.01186	2216.3375
2971.45984	2214.7375
2973.90632	2214.6375
2976.35131	2207.4375
2978.7948	2187.4375
2981.23681	2200.1375
2983.67732	2179.5375
2986.11635	2186.5375
2988.55388	2170.2375
2990.98993	2178.0375
2993.4245	2161.7375
2995.85758	2148.2375
2998.28917	2152.8375
3000.71928	2165.6375
3003.14791	2150.4375
3005.57506	2134.1375
3008.00073	2153.9375
3010.42493	2136.1375
3012.84764	2150.1375
3015.26888	2148.2375
3017.68865	2138.5375
3020.10694	2125.8375
3022.52376	2121.0375
3024.9391	2119.7375
3027.35298	2121.4375
3029.76539	2116.7375
3032.17632	2109.4375
3034.5858	2105.0375
3036.9938	2102.8375
3039.40034	2099.2375
3041.80542	2109.5375
3044.20903	2099.6375
3046.61118	2096.7375
3049.01187	2099.2375
3051.4111	2090.1375
3053.80888	2085.5375
3056.20519	2093.3375
3058.60005	2087.8375
3060.99345	2091.1375
3063.3854	2070.8375
3065.7759	2077.0375
3068.16494	2070.9375
3070.55254	2071.5375
3072.93868	2074.5375
3075.32338	2082.3375
3077.70662	2060.8375
3080.08842	2065.7375
3082.46878	2059.6375
3084.84769	2066.6375
3087.22515	2062.3375
3089.60118	2070.3375
3091.97576	2061.9375
3094.3489	2066.5375
3096.72061	2061.5375
3099.09087	2075.1375
3101.4597	2068.0375
3103.82709	2068.7375
3106.19305	2062.8375
3108.55757	2073.8375
3110.92066	2067.3375
3113.28232	2059.4375
3115.64255	2060.3375
3118.00134	2065.4375
3120.35871	2067.9375
3122.71466	2053.3375
3125.06917	2057.0375
3127.42226	2053.8375
3129.77393	2054.1375
3132.12417	2067.6375
3134.47299	2072.3375
3136.82039	2074.3375
3139.16636	2067.5375
3141.51092	2066.1375
3143.85406	2096.6375
3146.19579	2071.8375
3148.53609	2079.8375
3150.87499	2098.9375
3153.21246	2099.7375
3155.54853	2105.8375
3157.88318	2098.6375
3160.21642	2107.5375
3162.54826	2106.6375
3164.87868	2109.8375
3167.2077	2107.1375
3169.5353	2109.2375
3171.86151	2113.8375
3174.18631	2119.2375
3176.5097	2119.6375
3178.83169	2116.8375
3181.15228	2120.2375
3183.47147	2121.1375
3185.78926	2116.5375
3188.10565	2110.0375
3190.42065	2123.2375
3192.73424	2124.8375
3195.04645	2123.9375
3197.35725	2129.2375
3199.66667	2138.5375
3201.97469	2130.1375
3204.28132	2138.5375
3206.58656	2141.7375
3208.8904	2142.3375
3211.19287	2133.5375
3213.49394	2143.8375
3215.79363	2149.0375
3218.09193	2151.1375
3220.38884	2160.0375
3222.68438	2168.2375
3224.97853	2157.6375
3227.2713	2159.6375
3229.56269	2146.4375
3231.8527	2155.0375
3234.14133	2138.3375
3236.42858	2142.4375
3238.71446	2145.3375
3240.99896	2141.6375
3243.28209	2128.5375
3245.56384	2129.0375
3247.84423	2137.1375
3250.12324	2132.9375
3252.40088	2136.7375
3254.67715	2128.9375
3256.95205	2133.4375
3259.22558	2125.4375
3261.49775	2129.0375
3263.76855	2115.3375
3266.03799	2105.8375
3268.30606	2110.8375
3270.57277	2116.2375
3272.83812	2091.0375
3275.10211	2096.5375
3277.36474	2105.4375
3279.62601	2092.2375
3281.88593	2100.2375
3284.14448	2093.3375
3286.40168	2091.6375
3288.65753	2092.8375
3290.91202	2090.8375
3293.16516	2080.9375
3295.41695	2071.7375
3297.66738	2058.7375
3299.91647	2051.8375
3302.16421	2045.8375
3304.4106	2030.0375
3306.65564	2026.4375
3308.89933	2015.8375
3311.14169	2010.5375
3313.38269	1994.7375
3315.62236	1977.7375
3317.86068	1967.4375
3320.09766	1938.4375
3322.3333	1933.1375
3324.5676	1947.3375
3326.80056	1920.0375
3329.03219	1890.6375
3331.26248	1.4375
3333.49143	-0.1625
3335.71905	0.4375
