Data from AgNPs_FTO_APTES_UA_20um_CRN_0.1mM_R6G_10uM_NaF_0.1M_Addition_RamanShift__4__14-20-59-173.txt Node

Date: Tue Dec 21 14:20:59 GMT 2021
User: TCL
Spectrometer: QEP01345
Trigger mode: 4
Integration Time (sec): 7.000000E0
Scans to average: 10
Electric dark correction enabled: true
Nonlinearity correction enabled: false
Boxcar width: 0
XAxis mode: Raman Shifts
Number of Pixels in Spectrum: 1044
>>>>>Begin Spectral Data<<<<<
46.04893	-0.5
50.45542	-1.4
54.85868	-0.7
59.25871	0.1
63.6555	44.1
68.04907	50.3
72.43941	53.1
76.82654	53.8
81.21044	56.8
85.59113	60.8
89.96862	63
94.34289	60.1
98.71396	62.9
103.08183	69.8
107.4465	69.8
111.80798	70.8
116.16626	74
120.52136	75.5
124.87327	77.8
129.222	77.8
133.56755	83.3
137.90993	95
142.24913	96.9
146.58517	108.4
150.91804	126.2
155.24774	145.1
159.57429	181.9
163.89768	226
168.21792	298.3
172.53501	399.9
176.84895	550.8
181.15975	788.2
185.46741	1086.1
189.77193	1491.8
194.07331	2016.6
198.37157	2584
202.6667	3206
206.9587	3821.8
211.24758	4426.2
215.53334	5042
219.81599	5704.1
224.09553	6447.6
228.37195	7239.2
232.64527	8094.5
236.91549	8992.9
241.18261	9901.5
245.44663	10732.2
249.70755	11395.7
253.96539	12005.1
258.22014	12511.5
262.4718	12929.4
266.72039	13230.4
270.96589	13399.7
275.20832	13369.3
279.44768	13259.9
283.68397	13082.1
287.91719	12946.8
292.14735	12862.6
296.37445	12890.7
300.59849	13001
304.81948	13111.6
309.03742	13178.4
313.25231	13091.8
317.46415	12791.6
321.67296	12412.5
325.87872	12095.9
330.08145	11903.5
334.28114	11819.8
338.47781	11892.2
342.67145	12021.5
346.86207	12218
351.04966	12480.9
355.23424	12762.4
359.4158	12971.5
363.59435	13147.6
367.76989	13263.9
371.94243	13311.9
376.11196	13362.3
380.27849	13404.8
384.44203	13458.1
388.60257	13590.5
392.76012	13723.9
396.91468	13919.6
401.06626	14155.6
405.21485	14294.2
409.36047	14218.2
413.50311	13964.6
417.64277	13711.7
421.77947	13654.7
425.9132	13655.5
430.04396	13691
434.17176	13714.9
438.2966	13791
442.41849	13989.8
446.53742	14379.3
450.6534	14823.7
454.76644	15124.9
458.87653	15130.3
462.98368	15070.9
467.08789	14907.5
471.18916	14664.8
475.2875	14486.7
479.38291	14398.2
483.4754	14359
487.56496	14183.2
491.6516	13963.1
495.73531	13760
499.81612	13664.1
503.89401	13681
507.96899	13682
512.04106	13645.3
516.11023	13564.4
520.1765	13441.1
524.23987	13381.3
528.30034	13260.2
532.35792	13152.8
536.41261	12978.4
540.46441	12816.7
544.51333	12753.7
548.55936	12864.8
552.60252	13148.7
556.64279	13476.3
560.6802	13766.8
564.71473	13863.2
568.7464	14108.2
572.7752	14513.8
576.80114	14849.5
580.82422	15169.1
584.84444	15622.4
588.86181	16194.6
592.87633	16745.6
596.888	16738.4
600.89682	16153.3
604.9028	16047.5
608.90594	17352.5
612.90624	19108.1
616.90371	18139.4
620.89834	14803.6
624.89015	13213.7
628.87913	13041.8
632.86528	13116
636.84862	13218.1
640.82913	13010
644.80683	12646.1
648.78172	12405.2
652.75379	12301.4
656.72306	12431.8
660.68952	12646
664.65319	12585.1
668.61405	12303
672.57211	12248
676.52738	12337.9
680.47986	12359.8
684.42955	12286.1
688.37646	12175.1
692.32058	12175.4
696.26192	12275.2
700.20048	12441.8
704.13626	12557
708.06928	12543.2
711.99952	12463.4
715.927	12462.8
719.85171	12500.9
723.77365	12464.6
727.69284	12298.1
731.60928	12150.3
735.52295	12101.5
739.43388	12102.8
743.34206	12141
747.24749	12202.8
751.15017	12321
755.05012	12472.2
758.94733	12878.7
762.8418	13591.2
766.73354	14735.5
770.62254	15983.5
774.50882	16395.5
778.39237	15686.1
782.27321	14418.7
786.15132	13264.8
790.02671	12544.8
793.89938	12230.8
797.76935	12089
801.6366	12026.5
805.50115	11938.1
809.36299	11862.9
813.22213	11785.8
817.07857	11734.4
820.93231	11638
824.78336	11575.3
828.63172	11534
832.47738	11490.2
836.32036	11500.8
840.16066	11489.8
843.99827	11507.4
847.8332	11465.1
851.66546	11377.6
855.49504	11374.9
859.32195	11349.9
863.1462	11338.6
866.96777	11310.9
870.78668	11308.2
874.60293	11311.6
878.41652	11312.5
882.22745	11369.2
886.03573	11411.7
889.84136	11421.3
893.64433	11349.2
897.44466	11309.1
901.24235	11236.6
905.0374	11177
908.8298	11110.3
912.61957	11093.7
916.40671	11190.3
920.19121	11347.8
923.97308	11503.5
927.75233	11536.8
931.52895	11492.4
935.30295	11295.2
939.07433	11054.8
942.84309	10870.5
946.60924	10718
950.37278	10666.1
954.13371	10639.5
957.89203	10662.8
961.64774	10600.5
965.40086	10621
969.15137	10571.7
972.89929	10516.5
976.64461	10442.9
980.38733	10431.4
984.12747	10426.3
987.86502	10534.1
991.59999	10610.6
995.33237	10754.6
999.06217	10998.5
1002.78939	11320.4
1006.51404	11561.8
1010.23611	11734.2
1013.95561	11845.5
1017.67255	11926.7
1021.38692	11824.3
1025.09872	11608.5
1028.80796	11511.6
1032.51465	11628.4
1036.21877	11853.7
1039.92035	11979.5
1043.61937	11959.9
1047.31584	11808.1
1051.00976	11619.8
1054.70114	11517.9
1058.38998	11487.9
1062.07627	11546.8
1065.76003	11631.9
1069.44126	11770.2
1073.11995	11959.7
1076.79611	12120.3
1080.46974	12223.1
1084.14085	12324.5
1087.80943	12462.4
1091.47549	12585.9
1095.13903	12594.6
1098.80005	12433.3
1102.45857	12116.8
1106.11456	11833.4
1109.76805	11725.2
1113.41903	11761.3
1117.06751	11818.1
1120.71348	12044.1
1124.35696	12230.3
1127.99793	12473.8
1131.63641	12637.7
1135.2724	12547
1138.90589	12409.4
1142.5369	12372.9
1146.16542	12384.7
1149.79145	12444.4
1153.415	12523.1
1157.03607	12668.6
1160.65467	13033.1
1164.27079	13664
1167.88443	14453.8
1171.49561	15420.4
1175.10432	16685.6
1178.71056	18252.2
1182.31434	19773.1
1185.91565	20449.4
1189.51451	20156.9
1193.11091	19427.1
1196.70485	18497.4
1200.29634	17592
1203.88538	16933.7
1207.47197	16444.1
1211.05612	16078.8
1214.63782	15685.9
1218.21708	15317.7
1221.79391	15016.7
1225.36829	14855.6
1228.94024	14750.3
1232.50976	14454.7
1236.07685	14189.3
1239.6415	14012.1
1243.20374	13982.4
1246.76355	14057.9
1250.32093	14241.2
1253.8759	14577.7
1257.42845	15046
1260.97859	15533.9
1264.52631	16009.8
1268.07163	16554.8
1271.61453	17056.3
1275.15503	17563.5
1278.69312	18055.1
1282.22882	18628.1
1285.76211	19243.9
1289.29301	20063.9
1292.82151	21049
1296.34761	22233
1299.87133	23591.6
1303.39266	25106.5
1306.9116	26631.2
1310.42815	27944.2
1313.94233	28642.1
1317.45412	28421.8
1320.96354	27591.8
1324.47058	26755.5
1327.97525	26027.9
1331.47754	25479.3
1334.97747	25061
1338.47502	24720.3
1341.97022	24332.3
1345.46305	24038.1
1348.95352	23990.4
1352.44163	24338.9
1355.92738	25325
1359.41078	26831.5
1362.89183	28284.7
1366.37053	28165.3
1369.84688	25812.3
1373.32088	22609.4
1376.79254	20295.7
1380.26186	19316.9
1383.72883	19099.7
1387.19347	18990.5
1390.65578	18639
1394.11575	18531.5
1397.57339	18671.7
1401.0287	18990.1
1404.48168	19175.9
1407.93234	19090.7
1411.38068	18688.4
1414.82669	18057.8
1418.27039	17343.5
1421.71177	16636
1425.15083	15997.6
1428.58758	15682.1
1432.02203	15787.5
1435.45416	16165.7
1438.88399	16623.2
1442.31151	16927.5
1445.73673	17155.8
1449.15965	17337.3
1452.58027	17465.4
1455.9986	17423.6
1459.41463	17518.6
1462.82837	17689.5
1466.23982	18067
1469.64898	18403
1473.05586	18614.5
1476.46045	18674.2
1479.86276	18652.1
1483.26279	18618.6
1486.66054	18600.9
1490.05602	18780.4
1493.44922	19150.9
1496.84016	19594.4
1500.22882	20170.2
1503.61521	20970.5
1506.99934	21979.4
1510.38121	22873.6
1513.76081	23126.2
1517.13816	22497.9
1520.51324	21274.3
1523.88607	20235.7
1527.25665	19622.4
1530.62498	19328.7
1533.99105	19161.3
1537.35488	18843.3
1540.71647	18370.8
1544.07581	17808.1
1547.4329	17258.2
1550.78776	16794
1554.14038	16500.9
1557.49077	16341.5
1560.83892	16380.8
1564.18484	16457.9
1567.52853	16633.7
1570.86999	16892.6
1574.20922	17262.5
1577.54624	17521
1580.88103	17529.5
1584.2136	17448.3
1587.54395	17719.9
1590.87208	18482.5
1594.19801	19571.9
1597.52172	20723.6
1600.84321	21137.8
1604.16251	20304.4
1607.47959	18633.3
1610.79447	16829.1
1614.10715	15220.1
1617.41763	13991.9
1620.7259	13138.3
1624.03199	12753.6
1627.33587	12723.1
1630.63757	13073.3
1633.93707	13908.5
1637.23439	15364.3
1640.52951	17569.3
1643.82246	20380.8
1647.11321	22809.6
1650.40179	23716.6
1653.68819	22278.2
1656.97241	19282.9
1660.25446	16100.5
1663.53433	13755.9
1666.81203	12247.5
1670.08756	11316.9
1673.36092	10728.9
1676.63211	10344.1
1679.90115	10108
1683.16801	9888.2
1686.43272	9722.1
1689.69527	9638
1692.95567	9557.9
1696.2139	9477.4
1699.46999	9430.2
1702.72392	9384.2
1705.97571	9327.5
1709.22535	9252.1
1712.47284	9264.8
1715.71819	9233
1718.96139	9194.9
1722.20246	9162.1
1725.44139	9089.2
1728.67818	9044.1
1731.91284	8978.4
1735.14537	8927.9
1738.37576	8882.9
1741.60403	8852.7
1744.83017	8826.2
1748.05418	8821.2
1751.27607	8807.4
1754.49584	8804.4
1757.71349	8804.1
1760.92903	8792.4
1764.14244	8767.2
1767.35375	8743.6
1770.56294	8728.9
1773.77002	8659.9
1776.97499	8637.6
1780.17785	8618
1783.37861	8599.6
1786.57727	8560.7
1789.77382	8543.9
1792.96828	8504
1796.16064	8487.4
1799.3509	8436.7
1802.53907	8428.7
1805.72514	8418.4
1808.90913	8395.9
1812.09102	8367.9
1815.27083	8355
1818.44856	8328.8
1821.6242	8324.5
1824.79776	8303
1827.96924	8297.4
1831.13864	8284
1834.30597	8291.4
1837.47122	8304.8
1840.6344	8276.7
1843.7955	8276.7
1846.95454	8246
1850.11151	8275.8
1853.26642	8260.3
1856.41926	8232.2
1859.57004	8253.1
1862.71876	8218
1865.86542	8211.8
1869.01003	8206.3
1872.15258	8187.9
1875.29308	8196.7
1878.43152	8160.1
1881.56792	8163.1
1884.70227	8158.6
1887.83457	8137.1
1890.96482	8136.5
1894.09304	8096.9
1897.21921	8104.5
1900.34335	8108.2
1903.46544	8084.6
1906.58551	8073.8
1909.70353	8045.9
1912.81953	8022
1915.93349	8011.2
1919.04543	7991.1
1922.15534	7979.6
1925.26322	7951.8
1928.36908	7934.8
1931.47292	7909.1
1934.57473	7878.4
1937.67453	7853.2
1940.77232	7847
1943.86808	7814.5
1946.96184	7808.2
1950.05358	7785.8
1953.14331	7753
1956.23103	7728.1
1959.31675	7731.7
1962.40046	7688.2
1965.48217	7670.5
1968.56188	7636.3
1971.63959	7618.4
1974.7153	7589.2
1977.78901	7574.7
1980.86073	7562.6
1983.93046	7521.3
1986.99819	7485.3
1990.06394	7467.8
1993.1277	7460.6
1996.18947	7420.2
1999.24925	7406.1
2002.30706	7381.5
2005.36288	7362.5
2008.41672	7322.3
2011.46859	7312
2014.51848	7286.2
2017.56639	7266.6
2020.61233	7252.3
2023.6563	7246.3
2026.6983	7224.3
2029.73833	7206.3
2032.7764	7174.4
2035.8125	7180.1
2038.84664	7164.9
2041.87881	7141.5
2044.90903	7131
2047.93729	7131.6
2050.96359	7099.9
2053.98794	7110.4
2057.01034	7108.4
2060.03078	7106.3
2063.04927	7076.3
2066.06582	7065.8
2069.08042	7072.7
2072.09307	7047.2
2075.10378	7049.1
2078.11255	7023.7
2081.11938	7055.2
2084.12426	7047.5
2087.12722	7032.2
2090.12824	7017.4
2093.12732	7032.7
2096.12447	7032.1
2099.11969	7018.5
2102.11299	7010.1
2105.10435	7031.6
2108.09379	7035.5
2111.08131	7032
2114.0669	7055
2117.05057	7046.6
2120.03233	7056.6
2123.01216	7048.4
2125.99008	7033.2
2128.96609	7049.8
2131.94018	7045.6
2134.91236	7024.9
2137.88263	7039.8
2140.851	7031.5
2143.81746	7044
2146.78201	7035.6
2149.74466	7047.7
2152.7054	7039.9
2155.66425	7018
2158.6212	7023.6
2161.57625	7028.9
2164.52941	7031.9
2167.48067	7014.5
2170.43004	7013.3
2173.37752	7015.3
2176.32311	7025.3
2179.26681	7010.5
2182.20863	6992.6
2185.14856	7003.2
2188.08661	7010.3
2191.02278	7015.8
2193.95707	7006.7
2196.88948	6966.7
2199.82001	6983.4
2202.74867	6977.4
2205.67545	6970.7
2208.60037	6952.4
2211.52341	6950.2
2214.44458	6949.9
2217.36388	6911.4
2220.28132	6907.8
2223.1969	6907.5
2226.11061	6898
2229.02246	6889.1
2231.93245	6869.7
2234.84058	6861.3
2237.74686	6842.7
2240.65128	6848.4
2243.55385	6817.6
2246.45456	6814.6
2249.35343	6785.7
2252.25044	6778
2255.14561	6779.1
2258.03893	6774.3
2260.93041	6762.3
2263.82004	6718.7
2266.70783	6712.8
2269.59378	6702.8
2272.4779	6683.6
2275.36017	6672.1
2278.24061	6644.4
2281.11922	6650.4
2283.996	6629.4
2286.87094	6638.7
2289.74405	6634.3
2292.61534	6609.4
2295.4848	6606.6
2298.35243	6608.3
2301.21824	6587.4
2304.08223	6598.7
2306.94439	6594.6
2309.80474	6582.2
2312.66327	6581.5
2315.51999	6598.8
2318.37489	6580.4
2321.22797	6552.3
2324.07925	6553
2326.92871	6563.2
2329.77637	6553.3
2332.62222	6556.9
2335.46626	6518.6
2338.3085	6536.5
2341.14893	6510.2
2343.98756	6539.3
2346.8244	6524.1
2349.65943	6534.6
2352.49267	6536.1
2355.32411	6523
2358.15376	6506.3
2360.98161	6520.9
2363.80768	6525.6
2366.63195	6521.4
2369.45444	6496.5
2372.27514	6480.2
2375.09405	6462.4
2377.91118	6463
2380.72652	6443.1
2383.54009	6413
2386.35187	6419.5
2389.16188	6390.9
2391.97011	6378.8
2394.77657	6370.3
2397.58125	6366.7
2400.38416	6341.6
2403.18529	6337.5
2405.98466	6331.2
2408.78226	6317
2411.57809	6294.3
2414.37216	6306.1
2417.16446	6312.7
2419.955	6279.1
2422.74378	6271
2425.5308	6298.8
2428.31606	6279.5
2431.09956	6270.5
2433.88131	6253.4
2436.6613	6271.6
2439.43954	6257
2442.21603	6242.5
2444.99077	6247.1
2447.76377	6269.1
2450.53501	6253.1
2453.30451	6248.7
2456.07226	6254.3
2458.83827	6244.5
2461.60254	6249.7
2464.36507	6251
2467.12586	6245.6
2469.88492	6261.6
2472.64224	6260.6
2475.39782	6255
2478.15167	6247.5
2480.90379	6237.6
2483.65417	6245.2
2486.40283	6234.3
2489.14976	6244.6
2491.89497	6245.9
2494.63845	6255.5
2497.3802	6253.8
2500.12024	6246.5
2502.85855	6209.5
2505.59514	6233.1
2508.33002	6236.1
2511.06318	6220.9
2513.79462	6202
2516.52435	6193.9
2519.25237	6173.8
2521.97867	6177.4
2524.70327	6180.3
2527.42616	6164.1
2530.14734	6158.6
2532.86681	6158.7
2535.58458	6154.6
2538.30065	6128.4
2541.01501	6134.3
2543.72768	6140.3
2546.43864	6124.6
2549.14791	6109.8
2551.85548	6116
2554.56136	6117
2557.26554	6100.3
2559.96803	6103.8
2562.66883	6115.9
2565.36794	6091.8
2568.06536	6084.9
2570.7611	6085.7
2573.45514	6069.3
2576.14751	6063.6
2578.83819	6072
2581.52719	6064.4
2584.21451	6060.7
2586.90015	6037
2589.58411	6043.9
2592.2664	6051.4
2594.94701	6036.6
2597.62594	6033.6
2600.30321	6021.4
2602.9788	6010.6
2605.65273	6016.4
2608.32498	6011.5
2610.99557	5994.5
2613.66449	5987.4
2616.33175	6006.6
2618.99734	6008.3
2621.66128	6002.9
2624.32355	5991.9
2626.98416	5995.7
2629.64311	5982.4
2632.30041	5972.6
2634.95605	5985.1
2637.61004	5966.6
2640.26238	5973.5
2642.91306	5960.8
2645.56209	5955.7
2648.20948	5965.6
2650.85521	5949.7
2653.4993	5955.7
2656.14175	5955.6
2658.78255	5965.6
2661.42171	5956.8
2664.05923	5956.7
2666.6951	5970.9
2669.32934	5972.9
2671.96194	5982.8
2674.59291	5979
2677.22224	5971.6
2679.84993	5973.3
2682.476	5956.9
2685.10043	5950.2
2687.72324	5945.9
2690.34441	5960.5
2692.96396	5958.5
2695.58188	5940
2698.19818	5954.9
2700.81285	5966.7
2703.4259	5971.2
2706.03733	6007.1
2708.64714	5973.3
2711.25533	5976.1
2713.86191	5965.1
2716.46687	5981.7
2719.07021	5968.6
2721.67194	5978.6
2724.27206	5968
2726.87057	5986.8
2729.46747	5982.2
2732.06276	5990.3
2734.65644	5972.2
2737.24852	5982.9
2739.83899	5945.5
2742.42786	5966
2745.01513	5948.5
2747.60079	5964.5
2750.18486	5953.2
2752.76733	5954.5
2755.3482	5951.2
2757.92747	5942.3
2760.50515	5924.4
2763.08123	5939.6
2765.65573	5936.8
2768.22863	5931.8
2770.79994	5924
2773.36967	5932.2
2775.9378	5929.6
2778.50435	5927.2
2781.06932	5910.7
2783.6327	5921.4
2786.1945	5923.6
2788.75471	5898.9
2791.31335	5910.1
2793.87041	5881.9
2796.42589	5856.8
2798.97979	5870.1
2801.53212	5859.2
2804.08288	5867.7
2806.63206	5846.1
2809.17967	5833.6
2811.72571	5828.6
2814.27018	5830.9
2816.81308	5814.7
2819.35442	5823
2821.89419	5808.2
2824.43239	5806.6
2826.96904	5791.4
2829.50412	5814
2832.03763	5790.7
2834.56959	5789.8
2837.1	5790.1
2839.62884	5814.3
2842.15613	5804.2
2844.68186	5817.2
2847.20604	5826.2
2849.72867	5839.2
2852.24974	5823.5
2854.76927	5817.9
2857.28724	5818.6
2859.80367	5825.1
2862.31855	5809.4
2864.83189	5796.4
2867.34368	5802.4
2869.85393	5782.9
2872.36264	5776.9
2874.8698	5778.4
2877.37543	5780.4
2879.87952	5796.3
2882.38207	5781.6
2884.88308	5796.7
2887.38256	5800.3
2889.88051	5774.3
2892.37692	5796.7
2894.8718	5797.1
2897.36515	5806.5
2899.85698	5784.1
2902.34727	5806.9
2904.83604	5795.6
2907.32328	5826
2909.809	5832
2912.29319	5842.5
2914.77587	5845.2
2917.25702	5828.2
2919.73665	5828.5
2922.21476	5842.9
2924.69136	5823.5
2927.16644	5844.7
2929.64	5820.1
2932.11205	5807.9
2934.58258	5807.8
2937.05161	5819.2
2939.51912	5804.8
2941.98513	5794.8
2944.44962	5789.5
2946.91261	5764.8
2949.37409	5768.6
2951.83407	5784.9
2954.29254	5759.4
2956.74951	5746.9
2959.20498	5752.2
2961.65895	5743.7
2964.11142	5712.2
2966.56239	5682.2
2969.01186	5687.2
2971.45984	5668.4
2973.90632	5666.1
2976.35131	5638.6
2978.7948	5609.1
2981.23681	5611.4
2983.67732	5614.5
2986.11635	5596.6
2988.55388	5586
2990.98993	5540.5
2993.4245	5546.3
2995.85758	5527
2998.28917	5531.5
3000.71928	5531.3
3003.14791	5516.8
3005.57506	5514.2
3008.00073	5496.7
3010.42493	5479.5
3012.84764	5496.4
3015.26888	5484.4
3017.68865	5481.7
3020.10694	5447.8
3022.52376	5439.3
3024.9391	5447.5
3027.35298	5429.7
3029.76539	5409.2
3032.17632	5437.4
3034.5858	5402.3
3036.9938	5397.4
3039.40034	5402.9
3041.80542	5382.6
3044.20903	5377
3046.61118	5377.1
3049.01187	5356.6
3051.4111	5362.3
3053.80888	5338.9
3056.20519	5347.6
3058.60005	5334.3
3060.99345	5332
3063.3854	5321
3065.7759	5305
3068.16494	5278.6
3070.55254	5294.5
3072.93868	5265.4
3075.32338	5263.4
3077.70662	5251.5
3080.08842	5240
3082.46878	5260.2
3084.84769	5229.6
3087.22515	5217.9
3089.60118	5225.5
3091.97576	5240.2
3094.3489	5227.5
3096.72061	5244.7
3099.09087	5230.7
3101.4597	5220
3103.82709	5203.8
3106.19305	5211
3108.55757	5209.6
3110.92066	5191
3113.28232	5190
3115.64255	5167.6
3118.00134	5172.6
3120.35871	5165.3
3122.71466	5160.4
3125.06917	5156.3
3127.42226	5132.9
3129.77393	5131
3132.12417	5148.6
3134.47299	5153
3136.82039	5141.2
3139.16636	5143.9
3141.51092	5159.7
3143.85406	5150.9
3146.19579	5148.5
3148.53609	5142.5
3150.87499	5158.7
3153.21246	5154.2
3155.54853	5161.2
3157.88318	5152.1
3160.21642	5170.9
3162.54826	5169.7
3164.87868	5171.3
3167.2077	5170.2
3169.5353	5161.5
3171.86151	5162.4
3174.18631	5163.5
3176.5097	5150.2
3178.83169	5159
3181.15228	5151.8
3183.47147	5156.8
3185.78926	5154.3
3188.10565	5146.2
3190.42065	5141.1
3192.73424	5141.9
3195.04645	5151.8
3197.35725	5153.2
3199.66667	5136.8
3201.97469	5145.1
3204.28132	5163.3
3206.58656	5166.1
3208.8904	5165.9
3211.19287	5146.3
3213.49394	5161.9
3215.79363	5161.9
3218.09193	5152.9
3220.38884	5151.8
3222.68438	5182.4
3224.97853	5156.7
3227.2713	5162.5
3229.56269	5150.6
3231.8527	5159.4
3234.14133	5131.5
3236.42858	5125.4
3238.71446	5131
3240.99896	5118.3
3243.28209	5119.2
3245.56384	5128.3
3247.84423	5108
3250.12324	5099
3252.40088	5109
3254.67715	5101.5
3256.95205	5103.4
3259.22558	5103.4
3261.49775	5088.7
3263.76855	5065
3266.03799	5063.1
3268.30606	5047.6
3270.57277	5038.3
3272.83812	5022
3275.10211	5025.7
3277.36474	5029.5
3279.62601	5027.8
3281.88593	5020.3
3284.14448	5038.4
3286.40168	5036.5
3288.65753	5027.7
3290.91202	5024.5
3293.16516	5008
3295.41695	4988.9
3297.66738	4973.7
3299.91647	4951.5
3302.16421	4917.6
3304.4106	4893.9
3306.65564	4875.8
3308.89933	4838.7
3311.14169	4802.7
3313.38269	4785.8
3315.62236	4755.2
3317.86068	4705.8
3320.09766	4674.7
3322.3333	4636.7
3324.5676	4647.4
3326.80056	4582.7
3329.03219	4547.3
3331.26248	-0.1
3333.49143	1.2
3335.71905	2
