Data from AgNPs_FTO_APTES_UA_100um_CRN_0.1mM_R6G_10uM_NaF_0.1M_Addition_RamanShift__1__15-46-09-271.txt Node

Date: Tue Dec 21 15:46:09 GMT 2021
User: TCL
Spectrometer: QEP01345
Trigger mode: 4
Integration Time (sec): 7.000000E0
Scans to average: 10
Electric dark correction enabled: true
Nonlinearity correction enabled: false
Boxcar width: 0
XAxis mode: Raman Shifts
Number of Pixels in Spectrum: 1044
>>>>>Begin Spectral Data<<<<<
46.04893	-0.3125
50.45542	-1.0125
54.85868	0.5875
59.25871	-0.0125
63.6555	34.6875
68.04907	43.0875
72.43941	45.6875
76.82654	44.9875
81.21044	52.5875
85.59113	51.9875
89.96862	51.7875
94.34289	51.2875
98.71396	50.5875
103.08183	57.2875
107.4465	62.8875
111.80798	60.8875
116.16626	61.4875
120.52136	61.7875
124.87327	62.4875
129.222	61.9875
133.56755	66.8875
137.90993	73.8875
142.24913	75.0875
146.58517	85.2875
150.91804	96.6875
155.24774	112.8875
159.57429	133.3875
163.89768	171.3875
168.21792	219.1875
172.53501	295.2875
176.84895	407.8875
181.15975	568.7875
185.46741	792.7875
189.77193	1094.2875
194.07331	1468.3875
198.37157	1899.7875
202.6667	2333.5875
206.9587	2804.2875
211.24758	3254.3875
215.53334	3719.5875
219.81599	4210.1875
224.09553	4736.2875
228.37195	5325.6875
232.64527	5974.0875
236.91549	6699.8875
241.18261	7377.6875
245.44663	7976.0875
249.70755	8527.7875
253.96539	8944.5875
258.22014	9309.9875
262.4718	9625.3875
266.72039	9857.2875
270.96589	9999.3875
275.20832	9975.2875
279.44768	9872.9875
283.68397	9755.3875
287.91719	9643.0875
292.14735	9558.9875
296.37445	9570.3875
300.59849	9691.7875
304.81948	9802.1875
309.03742	9870.6875
313.25231	9784.4875
317.46415	9545.5875
321.67296	9171.4875
325.87872	8841.8875
330.08145	8684.0875
334.28114	8687.3875
338.47781	8765.1875
342.67145	8866.8875
346.86207	9033.4875
351.04966	9302.9875
355.23424	9560.9875
359.4158	9808.6875
363.59435	9927.2875
367.76989	10052.5875
371.94243	10085.6875
376.11196	10147.6875
380.27849	10206.8875
384.44203	10247.0875
388.60257	10232.9875
392.76012	10305.4875
396.91468	10401.9875
401.06626	10541.7875
405.21485	10658.6875
409.36047	10612.0875
413.50311	10358.5875
417.64277	10077.5875
421.77947	9893.2875
425.9132	9807.5875
430.04396	9793.2875
434.17176	9796.3875
438.2966	9891.8875
442.41849	9969.8875
446.53742	10113.6875
450.6534	10265.0875
454.76644	10383.5875
458.87653	10467.3875
462.98368	10479.7875
467.08789	10457.0875
471.18916	10393.7875
475.2875	10330.6875
479.38291	10262.9875
483.4754	10243.6875
487.56496	10152.6875
491.6516	10079.9875
495.73531	10004.2875
499.81612	9976.7875
503.89401	9978.8875
507.96899	10010.6875
512.04106	10042.2875
516.11023	10080.5875
520.1765	10120.2875
524.23987	10083.2875
528.30034	9983.0875
532.35792	9917.1875
536.41261	9819.7875
540.46441	9700.0875
544.51333	9690.2875
548.55936	9741.7875
552.60252	9880.2875
556.64279	9995.8875
560.6802	10099.4875
564.71473	10149.0875
568.7464	10270.2875
572.7752	10462.4875
576.80114	10476.0875
580.82422	10461.3875
584.84444	10472.6875
588.86181	10507.8875
592.87633	10481.9875
596.888	10481.9875
600.89682	10577.1875
604.9028	11091.0875
608.90594	12475.2875
612.90624	14353.3875
616.90371	14048.0875
620.89834	11500.1875
624.89015	10153.5875
628.87913	9981.1875
632.86528	10139.3875
636.84862	10346.0875
640.82913	10303.3875
644.80683	9998.5875
648.78172	9719.3875
652.75379	9607.8875
656.72306	9659.9875
660.68952	9837.6875
664.65319	9825.6875
668.61405	9557.9875
672.57211	9430.7875
676.52738	9444.5875
680.47986	9478.5875
684.42955	9434.1875
688.37646	9378.9875
692.32058	9363.4875
696.26192	9370.2875
700.20048	9441.7875
704.13626	9487.1875
708.06928	9483.5875
711.99952	9483.7875
715.927	9432.0875
719.85171	9450.0875
723.77365	9471.3875
727.69284	9398.5875
731.60928	9382.9875
735.52295	9286.1875
739.43388	9263.6875
743.34206	9285.0875
747.24749	9319.4875
751.15017	9339.6875
755.05012	9408.8875
758.94733	9610.9875
762.8418	10105.1875
766.73354	11022.6875
770.62254	12056.4875
774.50882	12585.5875
778.39237	12194.0875
782.27321	11108.7875
786.15132	10150.0875
790.02671	9558.7875
793.89938	9280.2875
797.76935	9163.0875
801.6366	9099.3875
805.50115	9063.6875
809.36299	9073.3875
813.22213	9079.3875
817.07857	9080.3875
820.93231	9053.9875
824.78336	8995.5875
828.63172	8966.5875
832.47738	8944.5875
836.32036	8921.9875
840.16066	8891.4875
843.99827	8859.3875
847.8332	8821.0875
851.66546	8833.8875
855.49504	8781.1875
859.32195	8792.2875
863.1462	8775.7875
866.96777	8751.6875
870.78668	8767.5875
874.60293	8765.9875
878.41652	8799.7875
882.22745	8814.4875
886.03573	8875.1875
889.84136	8870.5875
893.64433	8827.6875
897.44466	8782.1875
901.24235	8732.5875
905.0374	8669.2875
908.8298	8637.4875
912.61957	8597.6875
916.40671	8615.0875
920.19121	8654.4875
923.97308	8677.8875
927.75233	8710.0875
931.52895	8727.8875
935.30295	8644.0875
939.07433	8530.1875
942.84309	8368.5875
946.60924	8284.3875
950.37278	8218.0875
954.13371	8203.7875
957.89203	8189.7875
961.64774	8162.6875
965.40086	8134.0875
969.15137	8111.8875
972.89929	8077.1875
976.64461	8042.6875
980.38733	8028.8875
984.12747	8040.6875
987.86502	8058.4875
991.59999	8075.6875
995.33237	8089.6875
999.06217	8161.1875
1002.78939	8229.0875
1006.51404	8321.4875
1010.23611	8417.4875
1013.95561	8512.2875
1017.67255	8492.8875
1021.38692	8464.8875
1025.09872	8413.1875
1028.80796	8304.1875
1032.51465	8269.2875
1036.21877	8290.9875
1039.92035	8316.4875
1043.61937	8355.3875
1047.31584	8355.2875
1051.00976	8394.2875
1054.70114	8397.7875
1058.38998	8411.4875
1062.07627	8453.2875
1065.76003	8531.2875
1069.44126	8563.7875
1073.11995	8690.9875
1076.79611	8763.2875
1080.46974	8795.3875
1084.14085	8830.3875
1087.80943	8909.6875
1091.47549	8992.7875
1095.13903	8980.2875
1098.80005	8871.1875
1102.45857	8708.0875
1106.11456	8560.6875
1109.76805	8521.6875
1113.41903	8579.3875
1117.06751	8696.2875
1120.71348	8896.8875
1124.35696	9103.7875
1127.99793	9330.8875
1131.63641	9465.4875
1135.2724	9355.1875
1138.90589	9151.2875
1142.5369	8978.2875
1146.16542	8873.9875
1149.79145	8748.8875
1153.415	8718.3875
1157.03607	8703.9875
1160.65467	8771.2875
1164.27079	8967.1875
1167.88443	9269.3875
1171.49561	9700.5875
1175.10432	10358.1875
1178.71056	11258.6875
1182.31434	12050.9875
1185.91565	12330.8875
1189.51451	12192.0875
1193.11091	11794.3875
1196.70485	11273.7875
1200.29634	10852.1875
1203.88538	10550.7875
1207.47197	10224.9875
1211.05612	9890.8875
1214.63782	9602.5875
1218.21708	9419.9875
1221.79391	9249.1875
1225.36829	9157.8875
1228.94024	9094.8875
1232.50976	9078.8875
1236.07685	9049.9875
1239.6415	9060.1875
1243.20374	9045.8875
1246.76355	9116.5875
1250.32093	9173.5875
1253.8759	9282.5875
1257.42845	9487.2875
1260.97859	9657.3875
1264.52631	9858.8875
1268.07163	10019.2875
1271.61453	10206.6875
1275.15503	10333.4875
1278.69312	10460.8875
1282.22882	10574.2875
1285.76211	10781.9875
1289.29301	11052.4875
1292.82151	11399.2875
1296.34761	11793.9875
1299.87133	12221.1875
1303.39266	12855.7875
1306.9116	13627.0875
1310.42815	14434.3875
1313.94233	14924.7875
1317.45412	14752.7875
1320.96354	14280.1875
1324.47058	13734.0875
1327.97525	13248.8875
1331.47754	12858.7875
1334.97747	12579.3875
1338.47502	12510.9875
1341.97022	12565.4875
1345.46305	12719.3875
1348.95352	13046.0875
1352.44163	13526.1875
1355.92738	14283.0875
1359.41078	15427.6875
1362.89183	16781.5875
1366.37053	16837.2875
1369.84688	15154.7875
1373.32088	13139.1875
1376.79254	11778.8875
1380.26186	11074.7875
1383.72883	10759.0875
1387.19347	10560.5875
1390.65578	10340.9875
1394.11575	10147.2875
1397.57339	9996.3875
1401.0287	9922.5875
1404.48168	9862.7875
1407.93234	9751.9875
1411.38068	9615.9875
1414.82669	9449.7875
1418.27039	9247.1875
1421.71177	9112.7875
1425.15083	8937.4875
1428.58758	8801.3875
1432.02203	8772.0875
1435.45416	8830.2875
1438.88399	8908.0875
1442.31151	8954.6875
1445.73673	9042.1875
1449.15965	9139.3875
1452.58027	9211.6875
1455.9986	9234.4875
1459.41463	9262.2875
1462.82837	9333.3875
1466.23982	9465.9875
1469.64898	9591.2875
1473.05586	9725.0875
1476.46045	9771.5875
1479.86276	9862.4875
1483.26279	9934.0875
1486.66054	10044.1875
1490.05602	10243.8875
1493.44922	10558.3875
1496.84016	11122.2875
1500.22882	11943.7875
1503.61521	13038.2875
1506.99934	14327.6875
1510.38121	15353.3875
1513.76081	15645.3875
1517.13816	14978.0875
1520.51324	13667.4875
1523.88607	12402.5875
1527.25665	11543.1875
1530.62498	11017.7875
1533.99105	10738.2875
1537.35488	10505.4875
1540.71647	10289.6875
1544.07581	10072.3875
1547.4329	9913.2875
1550.78776	9803.3875
1554.14038	9776.9875
1557.49077	9801.5875
1560.83892	9910.5875
1564.18484	10097.3875
1567.52853	10294.7875
1570.86999	10537.0875
1574.20922	10699.9875
1577.54624	10714.3875
1580.88103	10483.4875
1584.2136	10106.1875
1587.54395	9813.8875
1590.87208	9760.3875
1594.19801	9950.6875
1597.52172	10279.4875
1600.84321	10444.3875
1604.16251	10194.8875
1607.47959	9754.3875
1610.79447	9338.3875
1614.10715	8869.9875
1617.41763	8471.2875
1620.7259	8159.1875
1624.03199	8004.7875
1627.33587	7925.3875
1630.63757	8008.9875
1633.93707	8251.9875
1637.23439	8634.3875
1640.52951	9286.6875
1643.82246	10180.9875
1647.11321	11278.5875
1650.40179	12150.3875
1653.68819	12129.7875
1656.97241	11107.8875
1660.25446	9778.0875
1663.53433	8716.0875
1666.81203	8037.2875
1670.08756	7560.3875
1673.36092	7269.0875
1676.63211	7090.5875
1679.90115	6961.2875
1683.16801	6871.7875
1686.43272	6813.3875
1689.69527	6746.5875
1692.95567	6718.1875
1696.2139	6713.1875
1699.46999	6678.1875
1702.72392	6639.6875
1705.97571	6572.6875
1709.22535	6499.0875
1712.47284	6447.3875
1715.71819	6401.0875
1718.96139	6365.3875
1722.20246	6320.2875
1725.44139	6277.8875
1728.67818	6241.5875
1731.91284	6204.4875
1735.14537	6175.0875
1738.37576	6136.8875
1741.60403	6107.8875
1744.83017	6090.3875
1748.05418	6093.5875
1751.27607	6074.6875
1754.49584	6080.6875
1757.71349	6094.4875
1760.92903	6079.5875
1764.14244	6040.1875
1767.35375	6036.9875
1770.56294	5996.2875
1773.77002	6004.2875
1776.97499	5971.5875
1780.17785	5923.8875
1783.37861	5908.3875
1786.57727	5884.9875
1789.77382	5869.6875
1792.96828	5866.7875
1796.16064	5840.4875
1799.3509	5819.0875
1802.53907	5798.5875
1805.72514	5769.8875
1808.90913	5739.9875
1812.09102	5733.2875
1815.27083	5703.0875
1818.44856	5687.1875
1821.6242	5680.9875
1824.79776	5668.0875
1827.96924	5643.0875
1831.13864	5648.5875
1834.30597	5627.2875
1837.47122	5624.6875
1840.6344	5605.1875
1843.7955	5603.5875
1846.95454	5577.7875
1850.11151	5580.5875
1853.26642	5561.5875
1856.41926	5555.1875
1859.57004	5564.5875
1862.71876	5542.6875
1865.86542	5545.6875
1869.01003	5537.8875
1872.15258	5522.5875
1875.29308	5521.0875
1878.43152	5523.3875
1881.56792	5495.9875
1884.70227	5486.5875
1887.83457	5482.1875
1890.96482	5461.9875
1894.09304	5444.2875
1897.21921	5434.2875
1900.34335	5422.6875
1903.46544	5426.0875
1906.58551	5412.0875
1909.70353	5393.4875
1912.81953	5399.4875
1915.93349	5376.5875
1919.04543	5369.3875
1922.15534	5353.5875
1925.26322	5339.5875
1928.36908	5324.7875
1931.47292	5309.6875
1934.57473	5298.9875
1937.67453	5281.4875
1940.77232	5271.1875
1943.86808	5234.9875
1946.96184	5221.2875
1950.05358	5216.7875
1953.14331	5200.8875
1956.23103	5163.0875
1959.31675	5160.2875
1962.40046	5124.9875
1965.48217	5113.1875
1968.56188	5093.6875
1971.63959	5083.1875
1974.7153	5079.1875
1977.78901	5063.9875
1980.86073	5033.2875
1983.93046	5021.2875
1986.99819	4998.4875
1990.06394	4974.8875
1993.1277	4959.7875
1996.18947	4948.6875
1999.24925	4926.1875
2002.30706	4912.4875
2005.36288	4886.2875
2008.41672	4856.9875
2011.46859	4842.4875
2014.51848	4828.2875
2017.56639	4811.3875
2020.61233	4788.5875
2023.6563	4774.5875
2026.6983	4764.6875
2029.73833	4747.6875
2032.7764	4736.0875
2035.8125	4724.1875
2038.84664	4725.0875
2041.87881	4706.9875
2044.90903	4700.2875
2047.93729	4676.2875
2050.96359	4672.8875
2053.98794	4651.1875
2057.01034	4662.0875
2060.03078	4645.3875
2063.04927	4640.5875
2066.06582	4616.5875
2069.08042	4614.7875
2072.09307	4616.6875
2075.10378	4602.6875
2078.11255	4609.5875
2081.11938	4590.3875
2084.12426	4594.7875
2087.12722	4587.6875
2090.12824	4586.6875
2093.12732	4582.9875
2096.12447	4588.9875
2099.11969	4567.8875
2102.11299	4582.2875
2105.10435	4580.4875
2108.09379	4575.9875
2111.08131	4574.0875
2114.0669	4557.2875
2117.05057	4580.4875
2120.03233	4579.7875
2123.01216	4557.2875
2125.99008	4561.9875
2128.96609	4561.5875
2131.94018	4558.3875
2134.91236	4564.6875
2137.88263	4575.3875
2140.851	4559.6875
2143.81746	4569.6875
2146.78201	4560.3875
2149.74466	4574.4875
2152.7054	4555.0875
2155.66425	4546.4875
2158.6212	4527.8875
2161.57625	4547.9875
2164.52941	4532.4875
2167.48067	4531.6875
2170.43004	4520.3875
2173.37752	4510.9875
2176.32311	4531.1875
2179.26681	4518.5875
2182.20863	4520.4875
2185.14856	4514.6875
2188.08661	4493.0875
2191.02278	4492.5875
2193.95707	4492.4875
2196.88948	4494.7875
2199.82001	4483.5875
2202.74867	4477.0875
2205.67545	4460.8875
2208.60037	4457.3875
2211.52341	4435.0875
2214.44458	4444.6875
2217.36388	4423.6875
2220.28132	4405.8875
2223.1969	4397.9875
2226.11061	4379.8875
2229.02246	4379.8875
2231.93245	4350.9875
2234.84058	4360.5875
2237.74686	4347.8875
2240.65128	4331.7875
2243.55385	4329.1875
2246.45456	4320.8875
2249.35343	4317.3875
2252.25044	4300.3875
2255.14561	4296.4875
2258.03893	4292.2875
2260.93041	4302.3875
2263.82004	4284.7875
2266.70783	4259.8875
2269.59378	4254.6875
2272.4779	4241.0875
2275.36017	4214.0875
2278.24061	4208.1875
2281.11922	4209.9875
2283.996	4202.6875
2286.87094	4180.8875
2289.74405	4170.3875
2292.61534	4168.8875
2295.4848	4160.5875
2298.35243	4154.8875
2301.21824	4127.9875
2304.08223	4141.4875
2306.94439	4133.5875
2309.80474	4114.4875
2312.66327	4114.6875
2315.51999	4108.1875
2318.37489	4110.7875
2321.22797	4088.2875
2324.07925	4096.9875
2326.92871	4089.3875
2329.77637	4087.3875
2332.62222	4071.6875
2335.46626	4060.2875
2338.3085	4028.7875
2341.14893	4035.4875
2343.98756	4034.2875
2346.8244	4035.8875
2349.65943	4031.6875
2352.49267	4019.4875
2355.32411	4022.4875
2358.15376	4031.8875
2360.98161	4016.9875
2363.80768	4017.6875
2366.63195	4031.0875
2369.45444	4015.2875
2372.27514	4029.4875
2375.09405	4006.5875
2377.91118	4003.4875
2380.72652	3987.5875
2383.54009	3965.4875
2386.35187	3952.3875
2389.16188	3945.3875
2391.97011	3931.7875
2394.77657	3905.7875
2397.58125	3924.6875
2400.38416	3909.9875
2403.18529	3886.4875
2405.98466	3886.2875
2408.78226	3859.4875
2411.57809	3858.4875
2414.37216	3862.4875
2417.16446	3850.4875
2419.955	3830.6875
2422.74378	3835.2875
2425.5308	3821.0875
2428.31606	3825.6875
2431.09956	3819.9875
2433.88131	3809.3875
2436.6613	3813.1875
2439.43954	3803.8875
2442.21603	3796.5875
2444.99077	3803.9875
2447.76377	3803.1875
2450.53501	3797.8875
2453.30451	3773.9875
2456.07226	3783.3875
2458.83827	3782.9875
2461.60254	3774.8875
2464.36507	3778.7875
2467.12586	3765.2875
2469.88492	3757.2875
2472.64224	3759.2875
2475.39782	3773.5875
2478.15167	3770.1875
2480.90379	3744.4875
2483.65417	3758.7875
2486.40283	3749.1875
2489.14976	3749.8875
2491.89497	3746.7875
2494.63845	3751.7875
2497.3802	3754.0875
2500.12024	3744.9875
2502.85855	3726.4875
2505.59514	3728.3875
2508.33002	3701.7875
2511.06318	3697.7875
2513.79462	3698.1875
2516.52435	3663.6875
2519.25237	3661.5875
2521.97867	3649.4875
2524.70327	3657.2875
2527.42616	3663.3875
2530.14734	3630.7875
2532.86681	3630.9875
2535.58458	3631.1875
2538.30065	3598.9875
2541.01501	3608.7875
2543.72768	3611.0875
2546.43864	3600.5875
2549.14791	3591.1875
2551.85548	3585.5875
2554.56136	3585.9875
2557.26554	3580.1875
2559.96803	3577.2875
2562.66883	3566.7875
2565.36794	3555.0875
2568.06536	3542.4875
2570.7611	3539.1875
2573.45514	3542.4875
2576.14751	3524.5875
2578.83819	3515.7875
2581.52719	3513.7875
2584.21451	3493.7875
2586.90015	3499.7875
2589.58411	3491.7875
2592.2664	3480.8875
2594.94701	3469.3875
2597.62594	3467.6875
2600.30321	3456.3875
2602.9788	3452.3875
2605.65273	3450.8875
2608.32498	3434.7875
2610.99557	3443.8875
2613.66449	3432.1875
2616.33175	3421.9875
2618.99734	3410.0875
2621.66128	3406.9875
2624.32355	3409.5875
2626.98416	3398.8875
2629.64311	3387.8875
2632.30041	3397.4875
2634.95605	3384.1875
2637.61004	3376.2875
2640.26238	3379.0875
2642.91306	3363.5875
2645.56209	3364.1875
2648.20948	3364.1875
2650.85521	3352.8875
2653.4993	3345.8875
2656.14175	3345.5875
2658.78255	3346.4875
2661.42171	3355.6875
2664.05923	3342.3875
2666.6951	3350.2875
2669.32934	3351.2875
2671.96194	3346.6875
2674.59291	3351.7875
2677.22224	3350.3875
2679.84993	3349.4875
2682.476	3342.5875
2685.10043	3343.8875
2687.72324	3342.0875
2690.34441	3345.2875
2692.96396	3338.9875
2695.58188	3338.8875
2698.19818	3332.8875
2700.81285	3328.4875
2703.4259	3363.7875
2706.03733	3407.7875
2708.64714	3359.8875
2711.25533	3346.8875
2713.86191	3340.1875
2716.46687	3337.5875
2719.07021	3340.0875
2721.67194	3326.1875
2724.27206	3317.3875
2726.87057	3317.5875
2729.46747	3324.8875
2732.06276	3315.9875
2734.65644	3310.2875
2737.24852	3312.5875
2739.83899	3291.4875
2742.42786	3299.2875
2745.01513	3293.4875
2747.60079	3279.0875
2750.18486	3275.5875
2752.76733	3281.1875
2755.3482	3263.9875
2757.92747	3266.7875
2760.50515	3255.2875
2763.08123	3258.5875
2765.65573	3247.5875
2768.22863	3248.3875
2770.79994	3237.6875
2773.36967	3251.2875
2775.9378	3237.8875
2778.50435	3218.7875
2781.06932	3207.7875
2783.6327	3215.1875
2786.1945	3199.5875
2788.75471	3207.6875
2791.31335	3192.2875
2793.87041	3197.0875
2796.42589	3169.0875
2798.97979	3176.7875
2801.53212	3173.5875
2804.08288	3159.1875
2806.63206	3160.0875
2809.17967	3151.3875
2811.72571	3142.2875
2814.27018	3150.7875
2816.81308	3155.8875
2819.35442	3137.6875
2821.89419	3128.4875
2824.43239	3120.7875
2826.96904	3137.6875
2829.50412	3128.9875
2832.03763	3122.1875
2834.56959	3121.5875
2837.1	3114.1875
2839.62884	3120.2875
2842.15613	3117.0875
2844.68186	3124.9875
2847.20604	3137.7875
2849.72867	3124.5875
2852.24974	3127.9875
2854.76927	3132.7875
2857.28724	3151.2875
2859.80367	3135.4875
2862.31855	3123.8875
2864.83189	3120.9875
2867.34368	3119.0875
2869.85393	3105.0875
2872.36264	3098.2875
2874.8698	3097.1875
2877.37543	3107.5875
2879.87952	3104.4875
2882.38207	3096.1875
2884.88308	3090.7875
2887.38256	3104.0875
2889.88051	3092.7875
2892.37692	3092.7875
2894.8718	3085.4875
2897.36515	3084.7875
2899.85698	3087.0875
2902.34727	3094.7875
2904.83604	3103.2875
2907.32328	3089.5875
2909.809	3102.7875
2912.29319	3098.3875
2914.77587	3092.9875
2917.25702	3092.7875
2919.73665	3101.1875
2922.21476	3101.5875
2924.69136	3092.7875
2927.16644	3109.3875
2929.64	3097.2875
2932.11205	3091.1875
2934.58258	3079.9875
2937.05161	3083.9875
2939.51912	3090.3875
2941.98513	3072.5875
2944.44962	3056.5875
2946.91261	3063.9875
2949.37409	3069.1875
2951.83407	3049.3875
2954.29254	3040.1875
2956.74951	3038.3875
2959.20498	3027.8875
2961.65895	3017.5875
2964.11142	3011.4875
2966.56239	2993.0875
2969.01186	2984.0875
2971.45984	2998.6875
2973.90632	2975.7875
2976.35131	2985.9875
2978.7948	2971.9875
2981.23681	2968.7875
2983.67732	2952.1875
2986.11635	2959.9875
2988.55388	2952.1875
2990.98993	2949.5875
2993.4245	2953.1875
2995.85758	2930.1875
2998.28917	2917.9875
3000.71928	2925.3875
3003.14791	2924.5875
3005.57506	2909.5875
3008.00073	2909.3875
3010.42493	2904.4875
3012.84764	2908.9875
3015.26888	2905.1875
3017.68865	2890.4875
3020.10694	2890.2875
3022.52376	2881.5875
3024.9391	2872.0875
3027.35298	2885.7875
3029.76539	2872.5875
3032.17632	2861.1875
3034.5858	2857.5875
3036.9938	2865.1875
3039.40034	2852.9875
3041.80542	2853.2875
3044.20903	2853.4875
3046.61118	2849.7875
3049.01187	2828.2875
3051.4111	2841.3875
3053.80888	2830.7875
3056.20519	2840.1875
3058.60005	2834.3875
3060.99345	2825.9875
3063.3854	2827.6875
3065.7759	2813.5875
3068.16494	2809.4875
3070.55254	2815.0875
3072.93868	2807.5875
3075.32338	2797.7875
3077.70662	2795.0875
3080.08842	2799.5875
3082.46878	2792.1875
3084.84769	2785.1875
3087.22515	2797.7875
3089.60118	2789.7875
3091.97576	2799.7875
3094.3489	2792.9875
3096.72061	2798.6875
3099.09087	2796.1875
3101.4597	2798.8875
3103.82709	2796.4875
3106.19305	2798.0875
3108.55757	2793.5875
3110.92066	2789.1875
3113.28232	2789.1875
3115.64255	2774.5875
3118.00134	2784.8875
3120.35871	2777.2875
3122.71466	2785.3875
3125.06917	2769.5875
3127.42226	2778.2875
3129.77393	2779.4875
3132.12417	2793.6875
3134.47299	2788.6875
3136.82039	2788.2875
3139.16636	2784.3875
3141.51092	2774.8875
3143.85406	2802.5875
3146.19579	2808.1875
3148.53609	2809.5875
3150.87499	2810.1875
3153.21246	2818.1875
3155.54853	2817.3875
3157.88318	2826.4875
3160.21642	2827.4875
3162.54826	2825.6875
3164.87868	2837.0875
3167.2077	2837.6875
3169.5353	2816.0875
3171.86151	2826.5875
3174.18631	2838.3875
3176.5097	2839.2875
3178.83169	2818.5875
3181.15228	2838.1875
3183.47147	2836.6875
3185.78926	2826.3875
3188.10565	2842.9875
3190.42065	2838.1875
3192.73424	2837.0875
3195.04645	2846.7875
3197.35725	2853.8875
3199.66667	2836.8875
3201.97469	2852.4875
3204.28132	2862.6875
3206.58656	2853.4875
3208.8904	2860.8875
3211.19287	2861.6875
3213.49394	2863.7875
3215.79363	2865.6875
3218.09193	2888.1875
3220.38884	2884.4875
3222.68438	2898.0875
3224.97853	2886.7875
3227.2713	2876.2875
3229.56269	2878.6875
3231.8527	2865.0875
3234.14133	2874.7875
3236.42858	2858.6875
3238.71446	2851.3875
3240.99896	2850.9875
3243.28209	2844.7875
3245.56384	2839.3875
3247.84423	2846.7875
3250.12324	2845.3875
3252.40088	2834.4875
3254.67715	2841.3875
3256.95205	2848.8875
3259.22558	2839.6875
3261.49775	2836.2875
3263.76855	2829.3875
3266.03799	2821.6875
3268.30606	2818.9875
3270.57277	2816.3875
3272.83812	2793.0875
3275.10211	2813.9875
3277.36474	2816.0875
3279.62601	2799.4875
3281.88593	2799.4875
3284.14448	2797.8875
3286.40168	2794.6875
3288.65753	2787.5875
3290.91202	2778.7875
3293.16516	2773.1875
3295.41695	2771.9875
3297.66738	2745.6875
3299.91647	2728.9875
3302.16421	2726.7875
3304.4106	2716.7875
3306.65564	2702.2875
3308.89933	2694.5875
3311.14169	2695.3875
3313.38269	2669.8875
3315.62236	2649.5875
3317.86068	2625.0875
3320.09766	2593.5875
3322.3333	2584.6875
3324.5676	2578.6875
3326.80056	2560.3875
3329.03219	2538.3875
3331.26248	0.2875
3333.49143	-0.1125
3335.71905	-0.2125
