Data from AgNPs_FTO_APTES_UA_2um_CRN_0.1mM_R6G_10uM_NaF_0.1M_Addition_RamanShift__9__12-25-29-041.txt Node

Date: Tue Dec 21 12:25:29 GMT 2021
User: TCL
Spectrometer: QEP01345
Trigger mode: 4
Integration Time (sec): 7.000000E0
Scans to average: 10
Electric dark correction enabled: true
Nonlinearity correction enabled: false
Boxcar width: 0
XAxis mode: Raman Shifts
Number of Pixels in Spectrum: 1044
>>>>>Begin Spectral Data<<<<<
46.04893	-0.3
50.45542	-0.4
54.85868	-0.8
59.25871	1.6
63.6555	45.5
68.04907	49.5
72.43941	50.1
76.82654	54.4
81.21044	60.9
85.59113	58
89.96862	61.7
94.34289	62.7
98.71396	63.9
103.08183	69.3
107.4465	69.7
111.80798	72.2
116.16626	72.6
120.52136	74.5
124.87327	75.5
129.222	78.4
133.56755	85.6
137.90993	91
142.24913	100.9
146.58517	116.3
150.91804	133
155.24774	153.2
159.57429	186.1
163.89768	241.9
168.21792	315.3
172.53501	429.4
176.84895	591.8
181.15975	836.1
185.46741	1168.6
189.77193	1607.8
194.07331	2150.7
198.37157	2760.6
202.6667	3423.9
206.9587	4080.9
211.24758	4735.3
215.53334	5399.8
219.81599	6084.1
224.09553	6865.3
228.37195	7723.1
232.64527	8646.1
236.91549	9608.8
241.18261	10561.7
245.44663	11410.5
249.70755	12137.8
253.96539	12739.8
258.22014	13233.4
262.4718	13624.4
266.72039	13869.6
270.96589	14003.7
275.20832	13936
279.44768	13809.9
283.68397	13699.9
287.91719	13611.9
292.14735	13583.4
296.37445	13540.6
300.59849	13622.9
304.81948	13720.4
309.03742	13839.9
313.25231	13846.1
317.46415	13668.4
321.67296	13368.6
325.87872	13087.1
330.08145	12843.9
334.28114	12718
338.47781	12720.5
342.67145	12835.3
346.86207	13091.4
351.04966	13300.8
355.23424	13559.3
359.4158	13728.2
363.59435	13865.7
367.76989	13861.8
371.94243	13816.7
376.11196	13820.6
380.27849	13777.1
384.44203	13838.2
388.60257	14015
392.76012	14199.6
396.91468	14437.7
401.06626	14697.9
405.21485	14903.9
409.36047	14757.4
413.50311	14567.7
417.64277	14471.2
421.77947	14604.3
425.9132	14717.5
430.04396	14850.8
434.17176	14917.8
438.2966	14976.8
442.41849	15204.8
446.53742	15675.3
450.6534	16181.7
454.76644	16457.1
458.87653	16409.8
462.98368	16158.6
467.08789	15891
471.18916	15576
475.2875	15222.7
479.38291	15025.2
483.4754	14890
487.56496	14736.6
491.6516	14522.3
495.73531	14312.7
499.81612	14210.6
503.89401	14285.5
507.96899	14348.9
512.04106	14297.7
516.11023	14081.6
520.1765	13833.6
524.23987	13634.1
528.30034	13548
532.35792	13420.6
536.41261	13197.3
540.46441	12967.2
544.51333	12935.5
548.55936	13082.6
552.60252	13489.1
556.64279	13993.2
560.6802	14416.5
564.71473	14533.6
568.7464	14767.1
572.7752	15368.7
576.80114	16130.1
580.82422	17026.8
584.84444	18124.5
588.86181	19590.7
592.87633	21182
596.888	21360.9
600.89682	19664.1
604.9028	18227.8
608.90594	18599.9
612.90624	19553.7
616.90371	18040.9
620.89834	14714.5
624.89015	13141.4
628.87913	12996.6
632.86528	13247.6
636.84862	13304.4
640.82913	13020.3
644.80683	12604.8
648.78172	12332.1
652.75379	12296.7
656.72306	12419.3
660.68952	12586.8
664.65319	12475
668.61405	12198.8
672.57211	12170
676.52738	12267
680.47986	12331.8
684.42955	12223.3
688.37646	12068
692.32058	12053.5
696.26192	12253.3
700.20048	12457.1
704.13626	12658.7
708.06928	12737
711.99952	12746.4
715.927	12733.7
719.85171	12734.2
723.77365	12621.4
727.69284	12334.7
731.60928	12101.2
735.52295	12045.5
739.43388	12070
743.34206	12107.6
747.24749	12251
751.15017	12449.2
755.05012	12756.2
758.94733	13289.9
762.8418	14180.4
766.73354	15584.9
770.62254	16842.9
774.50882	16886.8
778.39237	15774.1
782.27321	14387.5
786.15132	13289.7
790.02671	12590.6
793.89938	12213.8
797.76935	12023.8
801.6366	11966.2
805.50115	11939.2
809.36299	11855
813.22213	11669.1
817.07857	11558.8
820.93231	11426.7
824.78336	11337.9
828.63172	11222.2
832.47738	11162
836.32036	11145
840.16066	11123.3
843.99827	11141.4
847.8332	11102.7
851.66546	11112.2
855.49504	11105.9
859.32195	11122.2
863.1462	11074.6
866.96777	11012
870.78668	10970.9
874.60293	11000.1
878.41652	11007.8
882.22745	11066.1
886.03573	11130.2
889.84136	11122.9
893.64433	11118.1
897.44466	11065.3
901.24235	11061.5
905.0374	10954.9
908.8298	10873.3
912.61957	10869.5
916.40671	11001.1
920.19121	11241.6
923.97308	11484
927.75233	11575.4
931.52895	11391.5
935.30295	11072.8
939.07433	10696.7
942.84309	10437.7
946.60924	10286.8
950.37278	10268.7
954.13371	10264.4
957.89203	10294.1
961.64774	10261.8
965.40086	10290.9
969.15137	10253.4
972.89929	10158.3
976.64461	10039.2
980.38733	10006.1
984.12747	9997.5
987.86502	10004.8
991.59999	10070.4
995.33237	10198.7
999.06217	10429.9
1002.78939	10716.8
1006.51404	11055.3
1010.23611	11412.9
1013.95561	11661
1017.67255	11804.3
1021.38692	11718
1025.09872	11336.1
1028.80796	10983.1
1032.51465	10844.5
1036.21877	10851.2
1039.92035	10923.8
1043.61937	11040.1
1047.31584	11074.3
1051.00976	11099
1054.70114	11144.6
1058.38998	11201.8
1062.07627	11297.2
1065.76003	11451.5
1069.44126	11691.2
1073.11995	12037
1076.79611	12267.5
1080.46974	12385.1
1084.14085	12491.2
1087.80943	12725.5
1091.47549	12916.9
1095.13903	12961.6
1098.80005	12675.9
1102.45857	12179.4
1106.11456	11730.2
1109.76805	11527.9
1113.41903	11517.2
1117.06751	11639.4
1120.71348	11875
1124.35696	12114.9
1127.99793	12361.3
1131.63641	12501.9
1135.2724	12480.3
1138.90589	12482.2
1142.5369	12550.5
1146.16542	12686.3
1149.79145	12905.8
1153.415	13084.5
1157.03607	13315.1
1160.65467	13916.4
1164.27079	14946.6
1167.88443	16145.3
1171.49561	17498.1
1175.10432	19158.8
1178.71056	21184.8
1182.31434	22959.1
1185.91565	23706.1
1189.51451	23383.6
1193.11091	22385.5
1196.70485	21202.8
1200.29634	19933.4
1203.88538	19021.2
1207.47197	18467
1211.05612	18144.6
1214.63782	17686.5
1218.21708	17092.9
1221.79391	16553
1225.36829	16351.5
1228.94024	16286.2
1232.50976	16089.7
1236.07685	15667.6
1239.6415	15235.1
1243.20374	15046.9
1246.76355	15104.5
1250.32093	15279.9
1253.8759	15669.5
1257.42845	16294.3
1260.97859	17001.3
1264.52631	17722.7
1268.07163	18400.3
1271.61453	19007.8
1275.15503	19680
1278.69312	20466.6
1282.22882	21470.8
1285.76211	22692.7
1289.29301	24128.7
1292.82151	25725.5
1296.34761	27443.3
1299.87133	29537.3
1303.39266	31617.7
1306.9116	33404.8
1310.42815	34883.1
1313.94233	35623.2
1317.45412	35255.9
1320.96354	34129.8
1324.47058	33037.1
1327.97525	32331.4
1331.47754	31831.5
1334.97747	31364.2
1338.47502	30775.6
1341.97022	30094.8
1345.46305	29437.3
1348.95352	29086.9
1352.44163	29342.5
1355.92738	30515.2
1359.41078	32467
1362.89183	34156
1366.37053	34236.9
1369.84688	31680
1373.32088	27412.4
1376.79254	24190.1
1380.26186	22797.4
1383.72883	22662.7
1387.19347	22483.1
1390.65578	22073.2
1394.11575	22000.2
1397.57339	22389.9
1401.0287	22962.1
1404.48168	23358.1
1407.93234	23262.9
1411.38068	22569
1414.82669	21540.8
1418.27039	20457.9
1421.71177	19425.8
1425.15083	18546.5
1428.58758	18101.5
1432.02203	18336.3
1435.45416	18980.2
1438.88399	19648.4
1442.31151	20086.4
1445.73673	20384
1449.15965	20600.2
1452.58027	20622.2
1455.9986	20495
1459.41463	20584
1462.82837	20969.1
1466.23982	21551.7
1469.64898	22094.8
1473.05586	22447.5
1476.46045	22551.6
1479.86276	22454.6
1483.26279	22312.9
1486.66054	22383.7
1490.05602	22662.1
1493.44922	23165.3
1496.84016	23650
1500.22882	24209.6
1503.61521	24871.1
1506.99934	25590.5
1510.38121	26100.7
1513.76081	25985.7
1517.13816	25396.1
1520.51324	24597.2
1523.88607	24015.8
1527.25665	23898.2
1530.62498	23939.3
1533.99105	23767.3
1537.35488	23281.3
1540.71647	22428.5
1544.07581	21396.7
1547.4329	20356.5
1550.78776	19474.7
1554.14038	18885.8
1557.49077	18528.2
1560.83892	18400.8
1564.18484	18501.4
1567.52853	18667.7
1570.86999	18944.6
1574.20922	19401.8
1577.54624	19824.5
1580.88103	19900.5
1584.2136	19975.5
1587.54395	20568.8
1590.87208	21857.4
1594.19801	23674.2
1597.52172	25482.1
1600.84321	26087.7
1604.16251	24867
1607.47959	22292.9
1610.79447	19580.7
1614.10715	17244
1617.41763	15437.1
1620.7259	14234.5
1624.03199	13647.1
1627.33587	13613.1
1630.63757	14134.4
1633.93707	15466.1
1637.23439	17803.2
1640.52951	21479
1643.82246	26180.3
1647.11321	30270.3
1650.40179	31338.8
1653.68819	28641.1
1656.97241	23700.8
1660.25446	18948.5
1663.53433	15423.1
1666.81203	13199.9
1670.08756	11892
1673.36092	11036
1676.63211	10509.9
1679.90115	10150.2
1683.16801	9881.6
1686.43272	9683.4
1689.69527	9550.7
1692.95567	9406.3
1696.2139	9379.6
1699.46999	9337.4
1702.72392	9289.5
1705.97571	9206.4
1709.22535	9145
1712.47284	9079.8
1715.71819	9060.3
1718.96139	9009.2
1722.20246	8965.1
1725.44139	8880.2
1728.67818	8794.7
1731.91284	8729.5
1735.14537	8671.7
1738.37576	8581.5
1741.60403	8531
1744.83017	8525
1748.05418	8505.9
1751.27607	8504.1
1754.49584	8502.9
1757.71349	8543
1760.92903	8530
1764.14244	8503.2
1767.35375	8477.4
1770.56294	8437.5
1773.77002	8359.8
1776.97499	8305
1780.17785	8258.6
1783.37861	8218.1
1786.57727	8168.6
1789.77382	8161.9
1792.96828	8130.3
1796.16064	8088.5
1799.3509	8056.6
1802.53907	8024.4
1805.72514	7996.6
1808.90913	7983
1812.09102	7962.5
1815.27083	7919.1
1818.44856	7932.3
1821.6242	7948.4
1824.79776	7913.9
1827.96924	7909.3
1831.13864	7903.1
1834.30597	7919.1
1837.47122	7916.3
1840.6344	7918.5
1843.7955	7928.8
1846.95454	7917.1
1850.11151	7910.1
1853.26642	7907.3
1856.41926	7881.8
1859.57004	7882.3
1862.71876	7859.1
1865.86542	7840.3
1869.01003	7812.8
1872.15258	7831.7
1875.29308	7795.2
1878.43152	7787
1881.56792	7758.4
1884.70227	7753.6
1887.83457	7746.1
1890.96482	7750.9
1894.09304	7707.4
1897.21921	7714.4
1900.34335	7693.7
1903.46544	7685.7
1906.58551	7665.4
1909.70353	7631.4
1912.81953	7623.2
1915.93349	7594.9
1919.04543	7592.5
1922.15534	7553.2
1925.26322	7524
1928.36908	7485.6
1931.47292	7459.4
1934.57473	7425
1937.67453	7410.2
1940.77232	7378.6
1943.86808	7376.6
1946.96184	7370
1950.05358	7322.9
1953.14331	7310.1
1956.23103	7269
1959.31675	7249.2
1962.40046	7224
1965.48217	7212.3
1968.56188	7175.7
1971.63959	7151
1974.7153	7110
1977.78901	7086.5
1980.86073	7067.3
1983.93046	7046
1986.99819	7021.9
1990.06394	6993.9
1993.1277	6974.8
1996.18947	6941.2
1999.24925	6920.7
2002.30706	6912.2
2005.36288	6862.7
2008.41672	6864.9
2011.46859	6818.6
2014.51848	6822.4
2017.56639	6786.3
2020.61233	6765.6
2023.6563	6779.2
2026.6983	6749.7
2029.73833	6731.7
2032.7764	6711.8
2035.8125	6698
2038.84664	6696.2
2041.87881	6678
2044.90903	6652.4
2047.93729	6639.8
2050.96359	6629.5
2053.98794	6612.8
2057.01034	6596.5
2060.03078	6611.9
2063.04927	6603.8
2066.06582	6601.8
2069.08042	6557.7
2072.09307	6585.4
2075.10378	6562.6
2078.11255	6557.5
2081.11938	6573.4
2084.12426	6552
2087.12722	6539.2
2090.12824	6537.4
2093.12732	6552.1
2096.12447	6542.8
2099.11969	6547.2
2102.11299	6528.3
2105.10435	6539.1
2108.09379	6540.4
2111.08131	6537.8
2114.0669	6524.1
2117.05057	6539.3
2120.03233	6559.4
2123.01216	6544.3
2125.99008	6534.4
2128.96609	6568.9
2131.94018	6538
2134.91236	6512.9
2137.88263	6513.2
2140.851	6514.6
2143.81746	6525.2
2146.78201	6490.5
2149.74466	6521.6
2152.7054	6488.9
2155.66425	6503.8
2158.6212	6481.8
2161.57625	6478.4
2164.52941	6478.9
2167.48067	6456.3
2170.43004	6455.9
2173.37752	6475
2176.32311	6442.8
2179.26681	6450.9
2182.20863	6459.4
2185.14856	6448
2188.08661	6444.1
2191.02278	6474.3
2193.95707	6435.3
2196.88948	6438.3
2199.82001	6437.2
2202.74867	6416.6
2205.67545	6397.2
2208.60037	6377.3
2211.52341	6375.3
2214.44458	6354.6
2217.36388	6341.4
2220.28132	6319
2223.1969	6315.6
2226.11061	6318
2229.02246	6312.6
2231.93245	6306.1
2234.84058	6297.3
2237.74686	6295
2240.65128	6286
2243.55385	6288.5
2246.45456	6262.4
2249.35343	6247.5
2252.25044	6217.2
2255.14561	6184.8
2258.03893	6199
2260.93041	6183.3
2263.82004	6166.8
2266.70783	6145.2
2269.59378	6105.2
2272.4779	6076.7
2275.36017	6099.2
2278.24061	6074
2281.11922	6053.2
2283.996	6052.4
2286.87094	6036.6
2289.74405	6005.7
2292.61534	5997.8
2295.4848	5994.4
2298.35243	5994
2301.21824	5970.9
2304.08223	5985.5
2306.94439	5980
2309.80474	5975.5
2312.66327	5953.5
2315.51999	5962.4
2318.37489	5938.1
2321.22797	5931.9
2324.07925	5932.6
2326.92871	5940.6
2329.77637	5923.3
2332.62222	5923.9
2335.46626	5913.9
2338.3085	5909.8
2341.14893	5908.2
2343.98756	5901.5
2346.8244	5916.2
2349.65943	5913.5
2352.49267	5906.4
2355.32411	5901.6
2358.15376	5921.7
2360.98161	5920.1
2363.80768	5938.9
2366.63195	5924.4
2369.45444	5891.5
2372.27514	5905.6
2375.09405	5880.7
2377.91118	5890.1
2380.72652	5856
2383.54009	5832.1
2386.35187	5816.5
2389.16188	5806.8
2391.97011	5781
2394.77657	5757.5
2397.58125	5765.2
2400.38416	5763.9
2403.18529	5744.2
2405.98466	5750.6
2408.78226	5729.8
2411.57809	5708.4
2414.37216	5714.6
2417.16446	5724.2
2419.955	5695.9
2422.74378	5709.9
2425.5308	5680.5
2428.31606	5685.3
2431.09956	5680.8
2433.88131	5676.8
2436.6613	5681.9
2439.43954	5673.1
2442.21603	5670.5
2444.99077	5656.6
2447.76377	5675.7
2450.53501	5672.2
2453.30451	5681.6
2456.07226	5668.1
2458.83827	5686.4
2461.60254	5662
2464.36507	5671.7
2467.12586	5674.8
2469.88492	5654.5
2472.64224	5658.4
2475.39782	5670.1
2478.15167	5676.6
2480.90379	5665
2483.65417	5675.6
2486.40283	5659.9
2489.14976	5664
2491.89497	5669
2494.63845	5673.6
2497.3802	5679.9
2500.12024	5673
2502.85855	5648.5
2505.59514	5627.8
2508.33002	5635.7
2511.06318	5647.7
2513.79462	5620.9
2516.52435	5619.1
2519.25237	5618
2521.97867	5600
2524.70327	5605.8
2527.42616	5607
2530.14734	5577.5
2532.86681	5578
2535.58458	5605.7
2538.30065	5560.6
2541.01501	5580.5
2543.72768	5555.6
2546.43864	5550.9
2549.14791	5542.9
2551.85548	5557.3
2554.56136	5542.8
2557.26554	5531.7
2559.96803	5536.8
2562.66883	5540.5
2565.36794	5533.3
2568.06536	5532.5
2570.7611	5529.9
2573.45514	5537.8
2576.14751	5529.8
2578.83819	5511.4
2581.52719	5531.1
2584.21451	5506.7
2586.90015	5506.2
2589.58411	5506.2
2592.2664	5500.7
2594.94701	5477.7
2597.62594	5492.4
2600.30321	5482.5
2602.9788	5473.8
2605.65273	5460.7
2608.32498	5471.8
2610.99557	5470.8
2613.66449	5471.8
2616.33175	5470.5
2618.99734	5472.4
2621.66128	5454.3
2624.32355	5467.1
2626.98416	5471.9
2629.64311	5464
2632.30041	5448.8
2634.95605	5433.7
2637.61004	5437.2
2640.26238	5436.3
2642.91306	5437.7
2645.56209	5433.2
2648.20948	5449.7
2650.85521	5422.3
2653.4993	5433.1
2656.14175	5445.7
2658.78255	5462.6
2661.42171	5453.4
2664.05923	5458.2
2666.6951	5452
2669.32934	5475.9
2671.96194	5470.3
2674.59291	5473.3
2677.22224	5455.8
2679.84993	5465.3
2682.476	5451.8
2685.10043	5462
2687.72324	5438.7
2690.34441	5459
2692.96396	5442.8
2695.58188	5462.9
2698.19818	5438.4
2700.81285	5468.9
2703.4259	5473.5
2706.03733	5557
2708.64714	5487.2
2711.25533	5487.3
2713.86191	5464.2
2716.46687	5473.9
2719.07021	5468.9
2721.67194	5486.5
2724.27206	5467.5
2726.87057	5501.8
2729.46747	5493.6
2732.06276	5492.4
2734.65644	5483.9
2737.24852	5485.1
2739.83899	5478.7
2742.42786	5490.3
2745.01513	5470.8
2747.60079	5474.3
2750.18486	5451.4
2752.76733	5463.3
2755.3482	5472.9
2757.92747	5467.9
2760.50515	5471.1
2763.08123	5449.2
2765.65573	5470.5
2768.22863	5449.9
2770.79994	5451.7
2773.36967	5475.3
2775.9378	5455.9
2778.50435	5461.2
2781.06932	5461
2783.6327	5450.6
2786.1945	5442.9
2788.75471	5425.7
2791.31335	5427.5
2793.87041	5447.8
2796.42589	5396
2798.97979	5417.3
2801.53212	5414
2804.08288	5427.6
2806.63206	5405.9
2809.17967	5397
2811.72571	5390.9
2814.27018	5394
2816.81308	5365.9
2819.35442	5366.9
2821.89419	5378.3
2824.43239	5353.8
2826.96904	5377.1
2829.50412	5358.8
2832.03763	5367.9
2834.56959	5357.7
2837.1	5359.7
2839.62884	5362.8
2842.15613	5361
2844.68186	5388
2847.20604	5410.3
2849.72867	5402.9
2852.24974	5392.2
2854.76927	5408.3
2857.28724	5417.9
2859.80367	5397.3
2862.31855	5384.2
2864.83189	5373.1
2867.34368	5360.4
2869.85393	5356.4
2872.36264	5339.2
2874.8698	5357.1
2877.37543	5342
2879.87952	5335.5
2882.38207	5334.3
2884.88308	5332.3
2887.38256	5333
2889.88051	5346.4
2892.37692	5343.3
2894.8718	5344.1
2897.36515	5362.8
2899.85698	5364.6
2902.34727	5355.5
2904.83604	5374.2
2907.32328	5379.1
2909.809	5385.4
2912.29319	5378
2914.77587	5386.9
2917.25702	5396
2919.73665	5385.7
2922.21476	5395.9
2924.69136	5378.8
2927.16644	5398.3
2929.64	5393.6
2932.11205	5391.5
2934.58258	5366.2
2937.05161	5391.6
2939.51912	5380.2
2941.98513	5382
2944.44962	5358.4
2946.91261	5332.8
2949.37409	5350.4
2951.83407	5321.6
2954.29254	5307.6
2956.74951	5312
2959.20498	5276
2961.65895	5268.1
2964.11142	5272.6
2966.56239	5247
2969.01186	5219.1
2971.45984	5189.7
2973.90632	5182.8
2976.35131	5155.5
2978.7948	5152.6
2981.23681	5144.4
2983.67732	5112.7
2986.11635	5103.2
2988.55388	5069.2
2990.98993	5062.4
2993.4245	5058.8
2995.85758	5033.7
2998.28917	5029.8
3000.71928	5028
3003.14791	5027.6
3005.57506	5014.9
3008.00073	5001.8
3010.42493	5007
3012.84764	4964.7
3015.26888	4970.5
3017.68865	4946.5
3020.10694	4928.4
3022.52376	4920.9
3024.9391	4933
3027.35298	4920.1
3029.76539	4902.1
3032.17632	4900.7
3034.5858	4870.8
3036.9938	4881.9
3039.40034	4870.5
3041.80542	4873
3044.20903	4860.8
3046.61118	4852.5
3049.01187	4832.2
3051.4111	4833.4
3053.80888	4820.9
3056.20519	4819.1
3058.60005	4811.7
3060.99345	4789.2
3063.3854	4787.3
3065.7759	4764.8
3068.16494	4754.7
3070.55254	4738.9
3072.93868	4747.9
3075.32338	4708.3
3077.70662	4717.6
3080.08842	4693.4
3082.46878	4693.2
3084.84769	4665.2
3087.22515	4655.7
3089.60118	4647.7
3091.97576	4653.9
3094.3489	4652.7
3096.72061	4650.6
3099.09087	4653.6
3101.4597	4629.1
3103.82709	4626.3
3106.19305	4613.7
3108.55757	4624.4
3110.92066	4593.2
3113.28232	4598.1
3115.64255	4568.4
3118.00134	4563.3
3120.35871	4554.5
3122.71466	4556.2
3125.06917	4551.6
3127.42226	4527.9
3129.77393	4542.2
3132.12417	4533.9
3134.47299	4561.9
3136.82039	4529.4
3139.16636	4542.3
3141.51092	4541.8
3143.85406	4542.8
3146.19579	4525
3148.53609	4541.4
3150.87499	4546.7
3153.21246	4548.6
3155.54853	4555.9
3157.88318	4531.9
3160.21642	4544.9
3162.54826	4534.7
3164.87868	4529
3167.2077	4524.9
3169.5353	4524.6
3171.86151	4518.2
3174.18631	4518.6
3176.5097	4500.7
3178.83169	4504
3181.15228	4501.6
3183.47147	4503.4
3185.78926	4495
3188.10565	4490.5
3190.42065	4508.1
3192.73424	4502.6
3195.04645	4485.2
3197.35725	4481.5
3199.66667	4500.7
3201.97469	4490.7
3204.28132	4468.5
3206.58656	4484.5
3208.8904	4476.2
3211.19287	4491.8
3213.49394	4485
3215.79363	4466.2
3218.09193	4473
3220.38884	4486.6
3222.68438	4496.6
3224.97853	4483
3227.2713	4473.9
3229.56269	4456.9
3231.8527	4475.3
3234.14133	4466.7
3236.42858	4459.5
3238.71446	4454.7
3240.99896	4434.8
3243.28209	4450.1
3245.56384	4423.6
3247.84423	4430.9
3250.12324	4406.1
3252.40088	4420.4
3254.67715	4420.5
3256.95205	4396.4
3259.22558	4382.4
3261.49775	4366.7
3263.76855	4333.5
3266.03799	4344
3268.30606	4351.8
3270.57277	4335.3
3272.83812	4340.4
3275.10211	4323.4
3277.36474	4331
3279.62601	4318.4
3281.88593	4312.4
3284.14448	4325
3286.40168	4331.2
3288.65753	4315.1
3290.91202	4330.7
3293.16516	4311.7
3295.41695	4300.6
3297.66738	4282.8
3299.91647	4248.1
3302.16421	4215.4
3304.4106	4187.3
3306.65564	4172.9
3308.89933	4142.8
3311.14169	4132.5
3313.38269	4107.9
3315.62236	4074.8
3317.86068	4019.2
3320.09766	3978.4
3322.3333	3969.1
3324.5676	3950.6
3326.80056	3884.6
3329.03219	3873.9
3331.26248	2.6
3333.49143	-1.1
3335.71905	-0.3
