Data from AgNPs_FTO_APTES_UA_50um_CRN_0.1mM_R6G_10uM_NaF_0.1M_Addition_RamanShift__1__15-04-09-223.txt Node

Date: Tue Dec 21 15:04:09 GMT 2021
User: TCL
Spectrometer: QEP01345
Trigger mode: 4
Integration Time (sec): 7.000000E0
Scans to average: 10
Electric dark correction enabled: true
Nonlinearity correction enabled: false
Boxcar width: 0
XAxis mode: Raman Shifts
Number of Pixels in Spectrum: 1044
>>>>>Begin Spectral Data<<<<<
46.04893	-1.1125
50.45542	-0.1125
54.85868	-0.4125
59.25871	0.2875
63.6555	39.8875
68.04907	44.0875
72.43941	46.3875
76.82654	44.7875
81.21044	51.1875
85.59113	56.2875
89.96862	54.9875
94.34289	56.9875
98.71396	56.4875
103.08183	60.7875
107.4465	63.9875
111.80798	61.5875
116.16626	63.8875
120.52136	67.5875
124.87327	63.9875
129.222	64.8875
133.56755	72.8875
137.90993	79.5875
142.24913	81.7875
146.58517	87.2875
150.91804	100.7875
155.24774	119.8875
159.57429	140.0875
163.89768	177.1875
168.21792	230.4875
172.53501	307.7875
176.84895	423.1875
181.15975	592.6875
185.46741	832.4875
189.77193	1145.4875
194.07331	1534.0875
198.37157	1975.6875
202.6667	2450.9875
206.9587	2939.4875
211.24758	3405.6875
215.53334	3875.9875
219.81599	4378.6875
224.09553	4956.8875
228.37195	5572.1875
232.64527	6242.7875
236.91549	6946.6875
241.18261	7646.6875
245.44663	8265.0875
249.70755	8780.2875
253.96539	9219.8875
258.22014	9568.2875
262.4718	9863.3875
266.72039	10088.4875
270.96589	10175.8875
275.20832	10163.5875
279.44768	10047.0875
283.68397	9952.8875
287.91719	9834.4875
292.14735	9805.1875
296.37445	9818.4875
300.59849	9894.0875
304.81948	10054.2875
309.03742	10126.9875
313.25231	10075.9875
317.46415	9890.6875
321.67296	9553.7875
325.87872	9238.3875
330.08145	9066.0875
334.28114	9030.4875
338.47781	9097.9875
342.67145	9204.6875
346.86207	9382.4875
351.04966	9607.8875
355.23424	9859.3875
359.4158	10031.8875
363.59435	10202.0875
367.76989	10250.6875
371.94243	10312.7875
376.11196	10310.3875
380.27849	10312.6875
384.44203	10360.9875
388.60257	10404.5875
392.76012	10465.7875
396.91468	10611.1875
401.06626	10776.1875
405.21485	10896.2875
409.36047	10848.1875
413.50311	10574.5875
417.64277	10368.4875
421.77947	10205.9875
425.9132	10145.0875
430.04396	10209.2875
434.17176	10257.8875
438.2966	10269.7875
442.41849	10418.2875
446.53742	10614.3875
450.6534	10853.2875
454.76644	11028.7875
458.87653	11055.2875
462.98368	11018.0875
467.08789	10953.0875
471.18916	10847.1875
475.2875	10728.4875
479.38291	10660.4875
483.4754	10581.6875
487.56496	10488.1875
491.6516	10402.3875
495.73531	10286.1875
499.81612	10247.3875
503.89401	10275.1875
507.96899	10296.3875
512.04106	10281.2875
516.11023	10301.6875
520.1765	10261.2875
524.23987	10212.1875
528.30034	10133.9875
532.35792	10052.6875
536.41261	9952.3875
540.46441	9815.5875
544.51333	9776.9875
548.55936	9850.5875
552.60252	10038.3875
556.64279	10226.6875
560.6802	10366.5875
564.71473	10422.4875
568.7464	10595.1875
572.7752	10824.2875
576.80114	10966.4875
580.82422	11121.5875
584.84444	11294.8875
588.86181	11565.0875
592.87633	11758.9875
596.888	11771.2875
600.89682	11642.2875
604.9028	11885.9875
608.90594	13119.6875
612.90624	14822.2875
616.90371	14270.8875
620.89834	11593.0875
624.89015	10209.0875
628.87913	10015.2875
632.86528	10165.1875
636.84862	10348.0875
640.82913	10259.4875
644.80683	9955.7875
648.78172	9702.3875
652.75379	9584.1875
656.72306	9730.6875
660.68952	9908.2875
664.65319	9885.8875
668.61405	9651.8875
672.57211	9556.6875
676.52738	9577.4875
680.47986	9603.1875
684.42955	9551.1875
688.37646	9472.0875
692.32058	9451.1875
696.26192	9505.2875
700.20048	9595.3875
704.13626	9673.0875
708.06928	9676.1875
711.99952	9637.0875
715.927	9622.0875
719.85171	9632.7875
723.77365	9621.7875
727.69284	9504.2875
731.60928	9421.5875
735.52295	9392.8875
739.43388	9366.1875
743.34206	9392.1875
747.24749	9440.9875
751.15017	9490.6875
755.05012	9617.5875
758.94733	9896.4875
762.8418	10455.7875
766.73354	11467.5875
770.62254	12530.2875
774.50882	12930.8875
778.39237	12429.0875
782.27321	11353.9875
786.15132	10357.0875
790.02671	9753.6875
793.89938	9459.1875
797.76935	9312.8875
801.6366	9250.5875
805.50115	9230.6875
809.36299	9200.5875
813.22213	9171.9875
817.07857	9139.9875
820.93231	9097.4875
824.78336	9058.1875
828.63172	9037.8875
832.47738	8986.5875
836.32036	8975.0875
840.16066	8970.2875
843.99827	8952.1875
847.8332	8890.7875
851.66546	8889.0875
855.49504	8883.0875
859.32195	8858.8875
863.1462	8852.9875
866.96777	8845.8875
870.78668	8828.1875
874.60293	8866.9875
878.41652	8853.8875
882.22745	8913.2875
886.03573	8951.1875
889.84136	8942.2875
893.64433	8915.4875
897.44466	8877.4875
901.24235	8830.2875
905.0374	8778.6875
908.8298	8740.8875
912.61957	8721.0875
916.40671	8747.7875
920.19121	8827.9875
923.97308	8915.6875
927.75233	8947.1875
931.52895	8916.6875
935.30295	8834.4875
939.07433	8663.8875
942.84309	8490.6875
946.60924	8404.6875
950.37278	8325.1875
954.13371	8344.2875
957.89203	8319.9875
961.64774	8297.2875
965.40086	8284.4875
969.15137	8252.2875
972.89929	8204.4875
976.64461	8189.5875
980.38733	8181.1875
984.12747	8195.9875
987.86502	8211.3875
991.59999	8267.5875
995.33237	8305.4875
999.06217	8391.8875
1002.78939	8540.0875
1006.51404	8665.0875
1010.23611	8804.9875
1013.95561	8892.5875
1017.67255	8918.4875
1021.38692	8867.9875
1025.09872	8762.1875
1028.80796	8637.8875
1032.51465	8616.1875
1036.21877	8653.4875
1039.92035	8705.4875
1043.61937	8754.9875
1047.31584	8745.0875
1051.00976	8780.8875
1054.70114	8767.1875
1058.38998	8776.1875
1062.07627	8831.0875
1065.76003	8934.3875
1069.44126	9023.0875
1073.11995	9168.6875
1076.79611	9281.1875
1080.46974	9343.1875
1084.14085	9420.1875
1087.80943	9488.3875
1091.47549	9578.6875
1095.13903	9590.0875
1098.80005	9459.2875
1102.45857	9236.4875
1106.11456	9049.1875
1109.76805	8965.8875
1113.41903	8998.0875
1117.06751	9116.4875
1120.71348	9265.0875
1124.35696	9505.5875
1127.99793	9736.3875
1131.63641	9865.8875
1135.2724	9763.4875
1138.90589	9604.9875
1142.5369	9471.6875
1146.16542	9407.2875
1149.79145	9371.3875
1153.415	9383.4875
1157.03607	9425.7875
1160.65467	9565.3875
1164.27079	9854.3875
1167.88443	10302.9875
1171.49561	10918.0875
1175.10432	11731.1875
1178.71056	12843.4875
1182.31434	13762.9875
1185.91565	14157.6875
1189.51451	14010.2875
1193.11091	13552.9875
1196.70485	12937.1875
1200.29634	12374.3875
1203.88538	11967.8875
1207.47197	11548.5875
1211.05612	11212.9875
1214.63782	10899.3875
1218.21708	10658.6875
1221.79391	10443.6875
1225.36829	10366.2875
1228.94024	10318.1875
1232.50976	10276.4875
1236.07685	10202.9875
1239.6415	10144.1875
1243.20374	10106.2875
1246.76355	10156.6875
1250.32093	10245.0875
1253.8759	10408.1875
1257.42845	10667.3875
1260.97859	10951.4875
1264.52631	11227.0875
1268.07163	11521.0875
1271.61453	11746.8875
1275.15503	11967.6875
1278.69312	12216.9875
1282.22882	12498.8875
1285.76211	12821.8875
1289.29301	13278.2875
1292.82151	13803.0875
1296.34761	14441.4875
1299.87133	15167.5875
1303.39266	15997.9875
1306.9116	16940.0875
1310.42815	17835.1875
1313.94233	18338.3875
1317.45412	18160.8875
1320.96354	17586.4875
1324.47058	16955.8875
1327.97525	16405.7875
1331.47754	16013.8875
1334.97747	15758.4875
1338.47502	15628.4875
1341.97022	15584.0875
1345.46305	15625.6875
1348.95352	15887.9875
1352.44163	16373.4875
1355.92738	17141.7875
1359.41078	18322.7875
1362.89183	19616.5875
1366.37053	19629.6875
1369.84688	17795.7875
1373.32088	15494.3875
1376.79254	13887.2875
1380.26186	13142.5875
1383.72883	12829.2875
1387.19347	12642.1875
1390.65578	12403.7875
1394.11575	12229.2875
1397.57339	12159.7875
1401.0287	12128.1875
1404.48168	12085.8875
1407.93234	11988.3875
1411.38068	11795.4875
1414.82669	11493.4875
1418.27039	11196.1875
1421.71177	10888.3875
1425.15083	10594.4875
1428.58758	10445.9875
1432.02203	10466.8875
1435.45416	10591.0875
1438.88399	10773.7875
1442.31151	10900.4875
1445.73673	10962.8875
1449.15965	11100.3875
1452.58027	11184.3875
1455.9986	11207.4875
1459.41463	11257.6875
1462.82837	11406.6875
1466.23982	11575.9875
1469.64898	11772.0875
1473.05586	11924.4875
1476.46045	11988.4875
1479.86276	12047.2875
1483.26279	12104.9875
1486.66054	12202.1875
1490.05602	12445.2875
1493.44922	12810.6875
1496.84016	13343.3875
1500.22882	14166.3875
1503.61521	15295.0875
1506.99934	16432.0875
1510.38121	17383.6875
1513.76081	17589.2875
1517.13816	16859.7875
1520.51324	15534.1875
1523.88607	14363.7875
1527.25665	13646.2875
1530.62498	13250.7875
1533.99105	12985.7875
1537.35488	12726.7875
1540.71647	12419.5875
1544.07581	12059.2875
1547.4329	11754.1875
1550.78776	11508.5875
1554.14038	11363.1875
1557.49077	11361.5875
1560.83892	11429.9875
1564.18484	11627.6875
1567.52853	11827.0875
1570.86999	12086.1875
1574.20922	12332.4875
1577.54624	12409.2875
1580.88103	12207.3875
1584.2136	11855.8875
1587.54395	11709.6875
1590.87208	11847.3875
1594.19801	12296.7875
1597.52172	12872.3875
1600.84321	13060.2875
1604.16251	12702.8875
1607.47959	11935.0875
1610.79447	11142.8875
1614.10715	10350.7875
1617.41763	9716.7875
1620.7259	9285.0875
1624.03199	9037.9875
1627.33587	8984.9875
1630.63757	9147.9875
1633.93707	9533.2875
1637.23439	10267.5875
1640.52951	11367.1875
1643.82246	12864.5875
1647.11321	14407.1875
1650.40179	15257.7875
1653.68819	14814.6875
1656.97241	13162.4875
1660.25446	11296.7875
1663.53433	9825.9875
1666.81203	8909.9875
1670.08756	8333.6875
1673.36092	7954.0875
1676.63211	7734.9875
1679.90115	7554.8875
1683.16801	7447.3875
1686.43272	7326.0875
1689.69527	7249.1875
1692.95567	7193.5875
1696.2139	7140.4875
1699.46999	7089.6875
1702.72392	7082.5875
1705.97571	6992.3875
1709.22535	6954.7875
1712.47284	6920.6875
1715.71819	6892.7875
1718.96139	6849.1875
1722.20246	6824.8875
1725.44139	6808.4875
1728.67818	6762.0875
1731.91284	6690.5875
1735.14537	6644.4875
1738.37576	6627.1875
1741.60403	6596.1875
1744.83017	6585.0875
1748.05418	6573.7875
1751.27607	6560.7875
1754.49584	6577.7875
1757.71349	6585.2875
1760.92903	6558.8875
1764.14244	6564.3875
1767.35375	6545.6875
1770.56294	6486.8875
1773.77002	6477.0875
1776.97499	6441.0875
1780.17785	6410.7875
1783.37861	6385.5875
1786.57727	6369.4875
1789.77382	6344.4875
1792.96828	6320.7875
1796.16064	6306.0875
1799.3509	6299.4875
1802.53907	6264.5875
1805.72514	6244.7875
1808.90913	6254.9875
1812.09102	6209.6875
1815.27083	6201.0875
1818.44856	6176.8875
1821.6242	6154.2875
1824.79776	6138.1875
1827.96924	6136.1875
1831.13864	6124.2875
1834.30597	6127.6875
1837.47122	6122.1875
1840.6344	6113.1875
1843.7955	6101.9875
1846.95454	6097.9875
1850.11151	6073.9875
1853.26642	6099.1875
1856.41926	6082.2875
1859.57004	6071.2875
1862.71876	6046.2875
1865.86542	6043.2875
1869.01003	6048.9875
1872.15258	6043.5875
1875.29308	6008.1875
1878.43152	6002.8875
1881.56792	5994.9875
1884.70227	5981.0875
1887.83457	5970.6875
1890.96482	5974.1875
1894.09304	5945.3875
1897.21921	5948.5875
1900.34335	5943.3875
1903.46544	5942.6875
1906.58551	5929.5875
1909.70353	5903.9875
1912.81953	5894.5875
1915.93349	5896.0875
1919.04543	5884.0875
1922.15534	5859.7875
1925.26322	5847.6875
1928.36908	5824.9875
1931.47292	5795.3875
1934.57473	5791.3875
1937.67453	5771.4875
1940.77232	5756.6875
1943.86808	5743.0875
1946.96184	5721.1875
1950.05358	5711.8875
1953.14331	5688.3875
1956.23103	5660.6875
1959.31675	5641.6875
1962.40046	5630.3875
1965.48217	5620.0875
1968.56188	5598.4875
1971.63959	5593.6875
1974.7153	5581.9875
1977.78901	5566.9875
1980.86073	5548.9875
1983.93046	5510.7875
1986.99819	5488.1875
1990.06394	5472.6875
1993.1277	5464.1875
1996.18947	5433.6875
1999.24925	5423.3875
2002.30706	5391.3875
2005.36288	5389.1875
2008.41672	5368.4875
2011.46859	5343.2875
2014.51848	5323.6875
2017.56639	5304.2875
2020.61233	5303.2875
2023.6563	5280.4875
2026.6983	5252.1875
2029.73833	5254.5875
2032.7764	5242.4875
2035.8125	5228.0875
2038.84664	5212.3875
2041.87881	5207.0875
2044.90903	5201.8875
2047.93729	5170.2875
2050.96359	5172.0875
2053.98794	5176.8875
2057.01034	5150.7875
2060.03078	5154.7875
2063.04927	5129.8875
2066.06582	5128.3875
2069.08042	5136.7875
2072.09307	5124.3875
2075.10378	5120.9875
2078.11255	5097.5875
2081.11938	5112.2875
2084.12426	5116.0875
2087.12722	5091.3875
2090.12824	5094.2875
2093.12732	5094.8875
2096.12447	5099.1875
2099.11969	5096.9875
2102.11299	5083.0875
2105.10435	5093.2875
2108.09379	5089.4875
2111.08131	5090.8875
2114.0669	5084.5875
2117.05057	5089.4875
2120.03233	5102.2875
2123.01216	5094.0875
2125.99008	5092.4875
2128.96609	5109.0875
2131.94018	5101.7875
2134.91236	5091.3875
2137.88263	5089.6875
2140.851	5100.8875
2143.81746	5098.5875
2146.78201	5101.6875
2149.74466	5117.3875
2152.7054	5079.1875
2155.66425	5083.6875
2158.6212	5077.4875
2161.57625	5065.6875
2164.52941	5088.8875
2167.48067	5065.4875
2170.43004	5067.0875
2173.37752	5055.3875
2176.32311	5054.5875
2179.26681	5048.8875
2182.20863	5057.9875
2185.14856	5055.5875
2188.08661	5055.0875
2191.02278	5041.7875
2193.95707	5042.2875
2196.88948	5020.6875
2199.82001	5032.9875
2202.74867	5010.1875
2205.67545	5021.0875
2208.60037	4984.1875
2211.52341	4986.8875
2214.44458	4984.2875
2217.36388	4973.7875
2220.28132	4950.6875
2223.1969	4942.6875
2226.11061	4943.4875
2229.02246	4933.4875
2231.93245	4930.9875
2234.84058	4906.6875
2237.74686	4899.7875
2240.65128	4900.9875
2243.55385	4890.8875
2246.45456	4883.1875
2249.35343	4874.8875
2252.25044	4867.8875
2255.14561	4846.7875
2258.03893	4865.2875
2260.93041	4843.2875
2263.82004	4834.8875
2266.70783	4806.9875
2269.59378	4808.0875
2272.4779	4792.6875
2275.36017	4772.5875
2278.24061	4768.8875
2281.11922	4755.2875
2283.996	4738.1875
2286.87094	4752.1875
2289.74405	4718.1875
2292.61534	4724.8875
2295.4848	4711.9875
2298.35243	4722.5875
2301.21824	4703.1875
2304.08223	4687.5875
2306.94439	4700.9875
2309.80474	4668.8875
2312.66327	4672.6875
2315.51999	4671.4875
2318.37489	4673.4875
2321.22797	4667.9875
2324.07925	4667.8875
2326.92871	4655.8875
2329.77637	4659.7875
2332.62222	4630.8875
2335.46626	4621.1875
2338.3085	4618.5875
2341.14893	4616.8875
2343.98756	4614.9875
2346.8244	4614.2875
2349.65943	4620.2875
2352.49267	4607.5875
2355.32411	4617.9875
2358.15376	4605.5875
2360.98161	4609.5875
2363.80768	4592.1875
2366.63195	4611.5875
2369.45444	4599.7875
2372.27514	4583.0875
2375.09405	4572.0875
2377.91118	4566.1875
2380.72652	4558.3875
2383.54009	4546.6875
2386.35187	4536.1875
2389.16188	4525.3875
2391.97011	4513.4875
2394.77657	4493.5875
2397.58125	4504.0875
2400.38416	4489.3875
2403.18529	4453.4875
2405.98466	4462.0875
2408.78226	4446.8875
2411.57809	4439.2875
2414.37216	4428.7875
2417.16446	4422.8875
2419.955	4421.2875
2422.74378	4427.4875
2425.5308	4427.8875
2428.31606	4419.4875
2431.09956	4421.0875
2433.88131	4401.3875
2436.6613	4414.5875
2439.43954	4390.9875
2442.21603	4391.6875
2444.99077	4373.5875
2447.76377	4390.7875
2450.53501	4385.5875
2453.30451	4397.5875
2456.07226	4386.7875
2458.83827	4380.4875
2461.60254	4368.9875
2464.36507	4377.8875
2467.12586	4366.2875
2469.88492	4372.4875
2472.64224	4372.0875
2475.39782	4367.5875
2478.15167	4365.4875
2480.90379	4373.1875
2483.65417	4368.5875
2486.40283	4377.4875
2489.14976	4354.5875
2491.89497	4357.8875
2494.63845	4366.3875
2497.3802	4368.3875
2500.12024	4364.1875
2502.85855	4354.9875
2505.59514	4340.3875
2508.33002	4331.0875
2511.06318	4317.3875
2513.79462	4317.9875
2516.52435	4298.2875
2519.25237	4286.8875
2521.97867	4278.2875
2524.70327	4281.9875
2527.42616	4277.6875
2530.14734	4271.0875
2532.86681	4254.5875
2535.58458	4251.0875
2538.30065	4223.5875
2541.01501	4231.2875
2543.72768	4242.8875
2546.43864	4234.2875
2549.14791	4230.1875
2551.85548	4228.7875
2554.56136	4212.2875
2557.26554	4211.9875
2559.96803	4200.6875
2562.66883	4199.0875
2565.36794	4192.5875
2568.06536	4188.0875
2570.7611	4186.7875
2573.45514	4183.7875
2576.14751	4166.8875
2578.83819	4157.5875
2581.52719	4166.2875
2584.21451	4146.2875
2586.90015	4145.9875
2589.58411	4138.1875
2592.2664	4126.9875
2594.94701	4115.3875
2597.62594	4130.2875
2600.30321	4104.4875
2602.9788	4095.9875
2605.65273	4101.3875
2608.32498	4090.4875
2610.99557	4080.9875
2613.66449	4083.9875
2616.33175	4069.6875
2618.99734	4086.6875
2621.66128	4063.6875
2624.32355	4068.6875
2626.98416	4065.4875
2629.64311	4045.9875
2632.30041	4057.1875
2634.95605	4047.8875
2637.61004	4042.1875
2640.26238	4028.0875
2642.91306	4018.5875
2645.56209	4023.3875
2648.20948	4020.1875
2650.85521	4005.0875
2653.4993	4002.0875
2656.14175	4015.5875
2658.78255	4028.0875
2661.42171	4026.0875
2664.05923	4021.9875
2666.6951	4015.3875
2669.32934	4029.3875
2671.96194	4020.1875
2674.59291	4031.8875
2677.22224	4024.0875
2679.84993	4024.5875
2682.476	4018.4875
2685.10043	4016.1875
2687.72324	4009.9875
2690.34441	4010.2875
2692.96396	4000.0875
2695.58188	4016.6875
2698.19818	4013.0875
2700.81285	4015.8875
2703.4259	4038.8875
2706.03733	4081.2875
2708.64714	4033.7875
2711.25533	4017.8875
2713.86191	4014.9875
2716.46687	4017.8875
2719.07021	4019.5875
2721.67194	4008.4875
2724.27206	3992.6875
2726.87057	4004.5875
2729.46747	4011.9875
2732.06276	4005.9875
2734.65644	4008.7875
2737.24852	3997.0875
2739.83899	3985.2875
2742.42786	3984.1875
2745.01513	3986.6875
2747.60079	3979.1875
2750.18486	3989.1875
2752.76733	3957.3875
2755.3482	3971.2875
2757.92747	3974.4875
2760.50515	3955.0875
2763.08123	3955.9875
2765.65573	3957.6875
2768.22863	3936.2875
2770.79994	3926.8875
2773.36967	3947.6875
2775.9378	3939.7875
2778.50435	3938.0875
2781.06932	3901.8875
2783.6327	3928.8875
2786.1945	3913.0875
2788.75471	3917.5875
2791.31335	3902.3875
2793.87041	3892.5875
2796.42589	3869.9875
2798.97979	3877.1875
2801.53212	3861.8875
2804.08288	3878.9875
2806.63206	3857.8875
2809.17967	3866.2875
2811.72571	3860.1875
2814.27018	3848.0875
2816.81308	3843.8875
2819.35442	3843.0875
2821.89419	3835.6875
2824.43239	3833.4875
2826.96904	3844.2875
2829.50412	3837.5875
2832.03763	3814.3875
2834.56959	3829.7875
2837.1	3822.6875
2839.62884	3828.3875
2842.15613	3836.2875
2844.68186	3850.7875
2847.20604	3859.0875
2849.72867	3852.9875
2852.24974	3856.0875
2854.76927	3858.6875
2857.28724	3861.4875
2859.80367	3853.8875
2862.31855	3839.2875
2864.83189	3826.7875
2867.34368	3825.6875
2869.85393	3834.6875
2872.36264	3827.8875
2874.8698	3834.9875
2877.37543	3806.0875
2879.87952	3817.9875
2882.38207	3825.2875
2884.88308	3814.6875
2887.38256	3821.4875
2889.88051	3821.9875
2892.37692	3818.3875
2894.8718	3822.5875
2897.36515	3818.4875
2899.85698	3817.7875
2902.34727	3820.5875
2904.83604	3822.6875
2907.32328	3829.4875
2909.809	3826.5875
2912.29319	3852.8875
2914.77587	3861.3875
2917.25702	3836.7875
2919.73665	3841.5875
2922.21476	3836.9875
2924.69136	3835.0875
2927.16644	3845.9875
2929.64	3832.1875
2932.11205	3838.6875
2934.58258	3818.3875
2937.05161	3814.3875
2939.51912	3813.7875
2941.98513	3805.0875
2944.44962	3799.3875
2946.91261	3766.6875
2949.37409	3789.4875
2951.83407	3780.8875
2954.29254	3771.0875
2956.74951	3761.2875
2959.20498	3761.0875
2961.65895	3752.8875
2964.11142	3747.7875
2966.56239	3720.8875
2969.01186	3721.5875
2971.45984	3713.2875
2973.90632	3699.8875
2976.35131	3691.4875
2978.7948	3679.7875
2981.23681	3692.0875
2983.67732	3667.6875
2986.11635	3657.7875
2988.55388	3653.2875
2990.98993	3619.2875
2993.4245	3630.8875
2995.85758	3606.6875
2998.28917	3617.2875
3000.71928	3611.1875
3003.14791	3614.6875
3005.57506	3601.8875
3008.00073	3595.6875
3010.42493	3604.3875
3012.84764	3596.5875
3015.26888	3582.6875
3017.68865	3590.1875
3020.10694	3570.7875
3022.52376	3581.1875
3024.9391	3562.2875
3027.35298	3558.7875
3029.76539	3549.6875
3032.17632	3541.2875
3034.5858	3538.7875
3036.9938	3526.7875
3039.40034	3527.6875
3041.80542	3526.0875
3044.20903	3516.9875
3046.61118	3525.3875
3049.01187	3506.4875
3051.4111	3503.5875
3053.80888	3494.5875
3056.20519	3492.9875
3058.60005	3488.0875
3060.99345	3491.1875
3063.3854	3471.8875
3065.7759	3458.3875
3068.16494	3473.3875
3070.55254	3461.9875
3072.93868	3464.5875
3075.32338	3454.4875
3077.70662	3448.2875
3080.08842	3445.8875
3082.46878	3442.6875
3084.84769	3426.1875
3087.22515	3434.8875
3089.60118	3452.5875
3091.97576	3437.4875
3094.3489	3439.4875
3096.72061	3437.7875
3099.09087	3424.7875
3101.4597	3428.3875
3103.82709	3431.1875
3106.19305	3414.5875
3108.55757	3429.5875
3110.92066	3424.8875
3113.28232	3416.3875
3115.64255	3407.2875
3118.00134	3407.6875
3120.35871	3405.8875
3122.71466	3390.6875
3125.06917	3381.1875
3127.42226	3379.2875
3129.77393	3412.1875
3132.12417	3386.1875
3134.47299	3397.3875
3136.82039	3404.2875
3139.16636	3411.3875
3141.51092	3409.9875
3143.85406	3416.6875
3146.19579	3421.7875
3148.53609	3415.7875
3150.87499	3426.7875
3153.21246	3435.7875
3155.54853	3433.9875
3157.88318	3442.2875
3160.21642	3437.9875
3162.54826	3439.1875
3164.87868	3433.0875
3167.2077	3424.8875
3169.5353	3438.0875
3171.86151	3449.9875
3174.18631	3445.0875
3176.5097	3445.0875
3178.83169	3428.7875
3181.15228	3454.1875
3183.47147	3431.2875
3185.78926	3427.2875
3188.10565	3429.3875
3190.42065	3428.7875
3192.73424	3444.7875
3195.04645	3442.8875
3197.35725	3437.5875
3199.66667	3440.3875
3201.97469	3442.9875
3204.28132	3439.8875
3206.58656	3461.6875
3208.8904	3459.0875
3211.19287	3458.7875
3213.49394	3460.0875
3215.79363	3455.1875
3218.09193	3469.1875
3220.38884	3472.7875
3222.68438	3477.9875
3224.97853	3464.0875
3227.2713	3475.8875
3229.56269	3454.9875
3231.8527	3454.4875
3234.14133	3448.0875
3236.42858	3453.1875
3238.71446	3446.4875
3240.99896	3426.4875
3243.28209	3431.3875
3245.56384	3426.5875
3247.84423	3437.4875
3250.12324	3426.5875
3252.40088	3437.5875
3254.67715	3420.6875
3256.95205	3426.3875
3259.22558	3408.5875
3261.49775	3407.6875
3263.76855	3407.5875
3266.03799	3396.5875
3268.30606	3389.6875
3270.57277	3390.4875
3272.83812	3382.5875
3275.10211	3374.4875
3277.36474	3381.8875
3279.62601	3379.9875
3281.88593	3376.1875
3284.14448	3366.4875
3286.40168	3369.1875
3288.65753	3352.0875
3290.91202	3358.9875
3293.16516	3360.8875
3295.41695	3345.4875
3297.66738	3336.9875
3299.91647	3324.9875
3302.16421	3301.8875
3304.4106	3275.3875
3306.65564	3277.1875
3308.89933	3250.0875
3311.14169	3238.5875
3313.38269	3213.6875
3315.62236	3195.4875
3317.86068	3171.0875
3320.09766	3142.7875
3322.3333	3107.1875
3324.5676	3120.2875
3326.80056	3079.9875
3329.03219	3050.4875
3331.26248	1.0875
3333.49143	0.0875
3335.71905	0.2875
