Data from AgNPs_FTO_APTES_UA_10um_CRN_0.1mM_R6G_10uM_NaF_0.1M_Addition_RamanShift__18__13-56-29-145.txt Node

Date: Tue Dec 21 13:56:29 GMT 2021
User: TCL
Spectrometer: QEP01345
Trigger mode: 4
Integration Time (sec): 7.000000E0
Scans to average: 10
Electric dark correction enabled: true
Nonlinearity correction enabled: false
Boxcar width: 0
XAxis mode: Raman Shifts
Number of Pixels in Spectrum: 1044
>>>>>Begin Spectral Data<<<<<
46.04893	-0.0625
50.45542	-1.0625
54.85868	-0.5625
59.25871	0.7375
63.6555	41.5375
68.04907	45.9375
72.43941	52.8375
76.82654	52.0375
81.21044	57.8375
85.59113	56.1375
89.96862	57.6375
94.34289	60.6375
98.71396	61.0375
103.08183	62.5375
107.4465	68.3375
111.80798	68.9375
116.16626	68.6375
120.52136	69.6375
124.87327	73.9375
129.222	73.8375
133.56755	83.0375
137.90993	93.5375
142.24913	95.4375
146.58517	110.4375
150.91804	125.4375
155.24774	147.6375
159.57429	180.8375
163.89768	240.0375
168.21792	317.5375
172.53501	424.9375
176.84895	584.2375
181.15975	828.8375
185.46741	1159.8375
189.77193	1606.9375
194.07331	2147.4375
198.37157	2771.3375
202.6667	3443.9375
206.9587	4130.2375
211.24758	4787.3375
215.53334	5454.1375
219.81599	6158.2375
224.09553	6903.1375
228.37195	7748.5375
232.64527	8673.9375
236.91549	9627.0375
241.18261	10598.7375
245.44663	11514.9375
249.70755	12332.8375
253.96539	12975.9375
258.22014	13554.3375
262.4718	14012.6375
266.72039	14322.8375
270.96589	14480.0375
275.20832	14480.8375
279.44768	14421.8375
283.68397	14286.6375
287.91719	14187.3375
292.14735	14148.5375
296.37445	14149.7375
300.59849	14194.9375
304.81948	14225.3375
309.03742	14164.4375
313.25231	13967.0375
317.46415	13644.6375
321.67296	13183.7375
325.87872	12837.4375
330.08145	12629.6375
334.28114	12622.7375
338.47781	12674.2375
342.67145	12833.2375
346.86207	13011.0375
351.04966	13247.6375
355.23424	13493.2375
359.4158	13754.9375
363.59435	13883.3375
367.76989	13981.0375
371.94243	14065.6375
376.11196	14136.8375
380.27849	14200.5375
384.44203	14334.7375
388.60257	14432.1375
392.76012	14583.7375
396.91468	14774.4375
401.06626	15000.3375
405.21485	15147.6375
409.36047	15084.5375
413.50311	14906.3375
417.64277	14686.7375
421.77947	14588.3375
425.9132	14616.6375
430.04396	14681.7375
434.17176	14768.4375
438.2966	14897.0375
442.41849	15115.0375
446.53742	15448.1375
450.6534	15949.2375
454.76644	16289.7375
458.87653	16464.5375
462.98368	16472.7375
467.08789	16320.3375
471.18916	16193.1375
475.2875	16092.8375
479.38291	16112.4375
483.4754	16086.4375
487.56496	15916.2375
491.6516	15607.5375
495.73531	15319.5375
499.81612	15135.9375
503.89401	15152.2375
507.96899	15160.3375
512.04106	15092.3375
516.11023	14930.6375
520.1765	14771.5375
524.23987	14648.8375
528.30034	14550.8375
532.35792	14482.7375
536.41261	14397.8375
540.46441	14280.8375
544.51333	14230.7375
548.55936	14363.0375
552.60252	14594.8375
556.64279	14921.7375
560.6802	15150.3375
564.71473	15315.1375
568.7464	15562.5375
572.7752	15924.8375
576.80114	16256.0375
580.82422	16463.4375
584.84444	16658.8375
588.86181	16841.3375
592.87633	17028.3375
596.888	17113.1375
600.89682	17063.6375
604.9028	17437.0375
608.90594	18691.6375
612.90624	19965.3375
616.90371	18751.1375
620.89834	15762.1375
624.89015	14418.0375
628.87913	14309.5375
632.86528	14497.4375
636.84862	14617.2375
640.82913	14482.7375
644.80683	14101.1375
648.78172	13758.2375
652.75379	13626.8375
656.72306	13682.2375
660.68952	13890.4375
664.65319	13878.7375
668.61405	13740.3375
672.57211	13779.1375
676.52738	13895.7375
680.47986	14006.4375
684.42955	13940.7375
688.37646	13788.2375
692.32058	13736.7375
696.26192	13724.4375
700.20048	13814.6375
704.13626	13891.8375
708.06928	13879.7375
711.99952	13790.6375
715.927	13752.3375
719.85171	13762.9375
723.77365	13742.0375
727.69284	13623.6375
731.60928	13533.4375
735.52295	13502.8375
739.43388	13478.7375
743.34206	13512.3375
747.24749	13535.9375
751.15017	13589.0375
755.05012	13768.3375
758.94733	14152.3375
762.8418	14834.8375
766.73354	16018.2375
770.62254	17142.0375
774.50882	17519.6375
778.39237	16803.5375
782.27321	15519.1375
786.15132	14438.3375
790.02671	13694.8375
793.89938	13317.9375
797.76935	13164.2375
801.6366	13167.5375
805.50115	13109.1375
809.36299	13066.8375
813.22213	12902.3375
817.07857	12876.8375
820.93231	12780.2375
824.78336	12738.3375
828.63172	12659.2375
832.47738	12636.2375
836.32036	12589.7375
840.16066	12605.3375
843.99827	12595.4375
847.8332	12542.0375
851.66546	12509.7375
855.49504	12495.3375
859.32195	12520.0375
863.1462	12522.0375
866.96777	12502.3375
870.78668	12544.7375
874.60293	12499.5375
878.41652	12506.0375
882.22745	12513.5375
886.03573	12577.8375
889.84136	12581.8375
893.64433	12537.3375
897.44466	12444.7375
901.24235	12348.7375
905.0374	12280.2375
908.8298	12211.2375
912.61957	12169.9375
916.40671	12281.5375
920.19121	12447.9375
923.97308	12551.0375
927.75233	12573.9375
931.52895	12480.8375
935.30295	12328.4375
939.07433	12104.7375
942.84309	11934.8375
946.60924	11811.4375
950.37278	11756.5375
954.13371	11720.8375
957.89203	11692.3375
961.64774	11672.8375
965.40086	11649.6375
969.15137	11591.5375
972.89929	11492.8375
976.64461	11417.0375
980.38733	11407.3375
984.12747	11423.9375
987.86502	11495.5375
991.59999	11568.5375
995.33237	11748.0375
999.06217	11979.9375
1002.78939	12296.5375
1006.51404	12544.3375
1010.23611	12722.2375
1013.95561	12855.6375
1017.67255	12876.6375
1021.38692	12765.5375
1025.09872	12573.1375
1028.80796	12437.7375
1032.51465	12515.4375
1036.21877	12648.0375
1039.92035	12736.3375
1043.61937	12760.6375
1047.31584	12700.4375
1051.00976	12596.8375
1054.70114	12545.3375
1058.38998	12564.4375
1062.07627	12656.2375
1065.76003	12762.3375
1069.44126	12871.6375
1073.11995	13050.7375
1076.79611	13170.4375
1080.46974	13217.7375
1084.14085	13270.4375
1087.80943	13384.2375
1091.47549	13532.9375
1095.13903	13593.8375
1098.80005	13521.4375
1102.45857	13213.0375
1106.11456	12913.6375
1109.76805	12786.2375
1113.41903	12797.8375
1117.06751	12863.9375
1120.71348	13031.1375
1124.35696	13219.8375
1127.99793	13423.9375
1131.63641	13620.9375
1135.2724	13602.6375
1138.90589	13505.5375
1142.5369	13432.3375
1146.16542	13438.8375
1149.79145	13470.5375
1153.415	13576.1375
1157.03607	13779.2375
1160.65467	14101.5375
1164.27079	14674.2375
1167.88443	15461.8375
1171.49561	16466.6375
1175.10432	17664.9375
1178.71056	19170.2375
1182.31434	20578.2375
1185.91565	21321.9375
1189.51451	21362.7375
1193.11091	20878.9375
1196.70485	20031.6375
1200.29634	19147.3375
1203.88538	18405.3375
1207.47197	17846.3375
1211.05612	17393.1375
1214.63782	17025.3375
1218.21708	16703.4375
1221.79391	16432.9375
1225.36829	16255.3375
1228.94024	16035.1375
1232.50976	15756.7375
1236.07685	15484.3375
1239.6415	15339.8375
1243.20374	15328.9375
1246.76355	15428.8375
1250.32093	15606.9375
1253.8759	15916.7375
1257.42845	16374.9375
1260.97859	16835.2375
1264.52631	17301.5375
1268.07163	17802.9375
1271.61453	18331.1375
1275.15503	18823.6375
1278.69312	19448.7375
1282.22882	20008.7375
1285.76211	20600.4375
1289.29301	21346.0375
1292.82151	22241.6375
1296.34761	23347.4375
1299.87133	24598.7375
1303.39266	25944.5375
1306.9116	27262.7375
1310.42815	28573.3375
1313.94233	29484.2375
1317.45412	29655.4375
1320.96354	29362.0375
1324.47058	28970.3375
1327.97525	28589.7375
1331.47754	28221.3375
1334.97747	27984.8375
1338.47502	27808.9375
1341.97022	27636.0375
1345.46305	27267.2375
1348.95352	26837.5375
1352.44163	26607.3375
1355.92738	26873.3375
1359.41078	27542.3375
1362.89183	28256.9375
1366.37053	27890.3375
1369.84688	25963.6375
1373.32088	23461.9375
1376.79254	21592.0375
1380.26186	20796.3375
1383.72883	20675.7375
1387.19347	20633.5375
1390.65578	20558.0375
1394.11575	20611.3375
1397.57339	20884.0375
1401.0287	21366.7375
1404.48168	21737.4375
1407.93234	21774.1375
1411.38068	21374.1375
1414.82669	20602.9375
1418.27039	19630.4375
1421.71177	18652.1375
1425.15083	17834.2375
1428.58758	17360.8375
1432.02203	17320.9375
1435.45416	17642.2375
1438.88399	18167.8375
1442.31151	18647.8375
1445.73673	19088.3375
1449.15965	19532.9375
1452.58027	19876.6375
1455.9986	20066.6375
1459.41463	20295.2375
1462.82837	20632.9375
1466.23982	21014.1375
1469.64898	21322.1375
1473.05586	21454.3375
1476.46045	21352.5375
1479.86276	21182.7375
1483.26279	20863.1375
1486.66054	20693.4375
1490.05602	20652.6375
1493.44922	20714.8375
1496.84016	20900.1375
1500.22882	21173.2375
1503.61521	21756.4375
1506.99934	22527.0375
1510.38121	23156.2375
1513.76081	23336.6375
1517.13816	22841.0375
1520.51324	21974.2375
1523.88607	21154.2375
1527.25665	20647.2375
1530.62498	20451.6375
1533.99105	20360.8375
1537.35488	20182.2375
1540.71647	19913.0375
1544.07581	19488.0375
1547.4329	18959.6375
1550.78776	18542.0375
1554.14038	18292.9375
1557.49077	18183.7375
1560.83892	18211.6375
1564.18484	18290.9375
1567.52853	18401.2375
1570.86999	18523.1375
1574.20922	18792.5375
1577.54624	19075.0375
1580.88103	19111.9375
1584.2136	19200.7375
1587.54395	19546.1375
1590.87208	20342.3375
1594.19801	21369.1375
1597.52172	22540.6375
1600.84321	22995.5375
1604.16251	22168.2375
1607.47959	20566.4375
1610.79447	18722.1375
1614.10715	17085.9375
1617.41763	15701.5375
1620.7259	14685.8375
1624.03199	14183.4375
1627.33587	14069.3375
1630.63757	14410.6375
1633.93707	15212.1375
1637.23439	16675.0375
1640.52951	18810.7375
1643.82246	21359.7375
1647.11321	23583.6375
1650.40179	24352.9375
1653.68819	23089.3375
1656.97241	20332.7375
1660.25446	17375.2375
1663.53433	14993.9375
1666.81203	13409.9375
1670.08756	12405.7375
1673.36092	11737.5375
1676.63211	11360.9375
1679.90115	11024.8375
1683.16801	10816.9375
1686.43272	10648.1375
1689.69527	10505.9375
1692.95567	10402.3375
1696.2139	10351.8375
1699.46999	10312.7375
1702.72392	10258.0375
1705.97571	10207.1375
1709.22535	10133.6375
1712.47284	10072.4375
1715.71819	10050.2375
1718.96139	10008.9375
1722.20246	9963.0375
1725.44139	9888.9375
1728.67818	9853.7375
1731.91284	9785.2375
1735.14537	9760.9375
1738.37576	9692.1375
1741.60403	9655.4375
1744.83017	9644.0375
1748.05418	9650.4375
1751.27607	9642.8375
1754.49584	9667.8375
1757.71349	9660.7375
1760.92903	9656.0375
1764.14244	9592.7375
1767.35375	9551.7375
1770.56294	9496.2375
1773.77002	9438.9375
1776.97499	9389.3375
1780.17785	9361.7375
1783.37861	9309.3375
1786.57727	9280.6375
1789.77382	9250.8375
1792.96828	9224.2375
1796.16064	9172.6375
1799.3509	9156.5375
1802.53907	9132.3375
1805.72514	9088.5375
1808.90913	9074.1375
1812.09102	9058.5375
1815.27083	9010.3375
1818.44856	8998.8375
1821.6242	8973.4375
1824.79776	8982.4375
1827.96924	8962.6375
1831.13864	8952.7375
1834.30597	8914.5375
1837.47122	8931.6375
1840.6344	8918.3375
1843.7955	8930.7375
1846.95454	8920.4375
1850.11151	8893.5375
1853.26642	8903.8375
1856.41926	8887.7375
1859.57004	8889.3375
1862.71876	8857.0375
1865.86542	8865.9375
1869.01003	8835.0375
1872.15258	8848.5375
1875.29308	8862.1375
1878.43152	8819.6375
1881.56792	8801.3375
1884.70227	8807.4375
1887.83457	8806.0375
1890.96482	8788.9375
1894.09304	8756.5375
1897.21921	8767.3375
1900.34335	8763.5375
1903.46544	8759.6375
1906.58551	8734.6375
1909.70353	8677.6375
1912.81953	8696.5375
1915.93349	8655.5375
1919.04543	8654.5375
1922.15534	8622.4375
1925.26322	8588.3375
1928.36908	8571.5375
1931.47292	8575.1375
1934.57473	8523.9375
1937.67453	8499.5375
1940.77232	8480.5375
1943.86808	8441.1375
1946.96184	8436.1375
1950.05358	8415.6375
1953.14331	8366.0375
1956.23103	8311.1375
1959.31675	8312.3375
1962.40046	8287.7375
1965.48217	8273.1375
1968.56188	8239.9375
1971.63959	8216.2375
1974.7153	8185.8375
1977.78901	8151.2375
1980.86073	8107.9375
1983.93046	8108.2375
1986.99819	8071.2375
1990.06394	8037.5375
1993.1277	8036.3375
1996.18947	7976.2375
1999.24925	7969.5375
2002.30706	7936.8375
2005.36288	7914.0375
2008.41672	7905.3375
2011.46859	7864.7375
2014.51848	7837.9375
2017.56639	7816.4375
2020.61233	7787.7375
2023.6563	7790.6375
2026.6983	7761.5375
2029.73833	7713.0375
2032.7764	7739.7375
2035.8125	7714.8375
2038.84664	7698.4375
2041.87881	7664.6375
2044.90903	7660.1375
2047.93729	7663.7375
2050.96359	7646.4375
2053.98794	7633.8375
2057.01034	7614.6375
2060.03078	7626.1375
2063.04927	7612.4375
2066.06582	7588.3375
2069.08042	7582.8375
2072.09307	7574.2375
2075.10378	7548.6375
2078.11255	7579.4375
2081.11938	7556.6375
2084.12426	7551.6375
2087.12722	7560.9375
2090.12824	7522.7375
2093.12732	7533.6375
2096.12447	7547.6375
2099.11969	7518.0375
2102.11299	7531.2375
2105.10435	7502.5375
2108.09379	7521.6375
2111.08131	7527.3375
2114.0669	7522.4375
2117.05057	7537.2375
2120.03233	7531.2375
2123.01216	7531.4375
2125.99008	7536.2375
2128.96609	7552.1375
2131.94018	7541.4375
2134.91236	7537.8375
2137.88263	7540.2375
2140.851	7536.3375
2143.81746	7550.1375
2146.78201	7539.0375
2149.74466	7543.0375
2152.7054	7544.5375
2155.66425	7539.8375
2158.6212	7531.3375
2161.57625	7510.7375
2164.52941	7516.9375
2167.48067	7513.1375
2170.43004	7506.7375
2173.37752	7491.5375
2176.32311	7479.1375
2179.26681	7489.9375
2182.20863	7469.8375
2185.14856	7485.7375
2188.08661	7465.7375
2191.02278	7475.3375
2193.95707	7458.5375
2196.88948	7438.7375
2199.82001	7474.7375
2202.74867	7445.7375
2205.67545	7432.4375
2208.60037	7405.2375
2211.52341	7411.0375
2214.44458	7404.1375
2217.36388	7367.0375
2220.28132	7373.2375
2223.1969	7340.3375
2226.11061	7352.9375
2229.02246	7317.7375
2231.93245	7315.8375
2234.84058	7300.4375
2237.74686	7290.6375
2240.65128	7277.7375
2243.55385	7269.4375
2246.45456	7253.9375
2249.35343	7222.2375
2252.25044	7236.9375
2255.14561	7200.1375
2258.03893	7198.6375
2260.93041	7201.4375
2263.82004	7176.5375
2266.70783	7148.8375
2269.59378	7110.5375
2272.4779	7112.8375
2275.36017	7092.3375
2278.24061	7069.0375
2281.11922	7056.6375
2283.996	7046.4375
2286.87094	7031.9375
2289.74405	7014.4375
2292.61534	6996.8375
2295.4848	6989.5375
2298.35243	6973.0375
2301.21824	6978.9375
2304.08223	6966.3375
2306.94439	6967.1375
2309.80474	6939.1375
2312.66327	6958.5375
2315.51999	6950.1375
2318.37489	6946.0375
2321.22797	6908.0375
2324.07925	6924.6375
2326.92871	6923.1375
2329.77637	6925.6375
2332.62222	6921.5375
2335.46626	6885.1375
2338.3085	6893.3375
2341.14893	6891.1375
2343.98756	6887.4375
2346.8244	6886.2375
2349.65943	6875.7375
2352.49267	6882.6375
2355.32411	6878.2375
2358.15376	6873.7375
2360.98161	6874.6375
2363.80768	6855.5375
2366.63195	6860.1375
2369.45444	6855.2375
2372.27514	6833.4375
2375.09405	6811.4375
2377.91118	6805.5375
2380.72652	6791.3375
2383.54009	6772.1375
2386.35187	6765.0375
2389.16188	6738.3375
2391.97011	6719.6375
2394.77657	6707.0375
2397.58125	6694.0375
2400.38416	6689.6375
2403.18529	6662.8375
2405.98466	6675.9375
2408.78226	6649.3375
2411.57809	6622.0375
2414.37216	6642.4375
2417.16446	6628.8375
2419.955	6614.4375
2422.74378	6596.2375
2425.5308	6579.3375
2428.31606	6571.6375
2431.09956	6580.8375
2433.88131	6575.7375
2436.6613	6568.1375
2439.43954	6562.1375
2442.21603	6550.5375
2444.99077	6549.2375
2447.76377	6557.3375
2450.53501	6539.1375
2453.30451	6545.5375
2456.07226	6541.4375
2458.83827	6529.9375
2461.60254	6538.3375
2464.36507	6539.6375
2467.12586	6538.6375
2469.88492	6527.3375
2472.64224	6527.3375
2475.39782	6532.4375
2478.15167	6560.8375
2480.90379	6542.0375
2483.65417	6526.5375
2486.40283	6534.7375
2489.14976	6520.4375
2491.89497	6536.4375
2494.63845	6544.2375
2497.3802	6564.8375
2500.12024	6537.1375
2502.85855	6524.5375
2505.59514	6517.0375
2508.33002	6507.5375
2511.06318	6507.6375
2513.79462	6484.6375
2516.52435	6484.6375
2519.25237	6472.2375
2521.97867	6452.5375
2524.70327	6452.2375
2527.42616	6445.3375
2530.14734	6418.2375
2532.86681	6439.3375
2535.58458	6437.0375
2538.30065	6410.0375
2541.01501	6409.2375
2543.72768	6412.0375
2546.43864	6379.5375
2549.14791	6386.2375
2551.85548	6379.1375
2554.56136	6387.7375
2557.26554	6375.1375
2559.96803	6365.0375
2562.66883	6376.6375
2565.36794	6355.4375
2568.06536	6348.7375
2570.7611	6322.1375
2573.45514	6348.5375
2576.14751	6349.0375
2578.83819	6325.6375
2581.52719	6319.9375
2584.21451	6310.7375
2586.90015	6306.1375
2589.58411	6301.0375
2592.2664	6295.5375
2594.94701	6287.1375
2597.62594	6285.1375
2600.30321	6259.6375
2602.9788	6268.2375
2605.65273	6272.9375
2608.32498	6258.3375
2610.99557	6245.9375
2613.66449	6253.9375
2616.33175	6246.1375
2618.99734	6238.4375
2621.66128	6227.7375
2624.32355	6232.4375
2626.98416	6236.6375
2629.64311	6240.2375
2632.30041	6252.3375
2634.95605	6244.3375
2637.61004	6222.3375
2640.26238	6220.9375
2642.91306	6215.4375
2645.56209	6215.8375
2648.20948	6212.7375
2650.85521	6213.4375
2653.4993	6203.8375
2656.14175	6213.6375
2658.78255	6202.8375
2661.42171	6203.2375
2664.05923	6213.2375
2666.6951	6195.1375
2669.32934	6200.9375
2671.96194	6205.5375
2674.59291	6202.2375
2677.22224	6212.8375
2679.84993	6212.8375
2682.476	6185.3375
2685.10043	6189.0375
2687.72324	6178.5375
2690.34441	6162.8375
2692.96396	6171.1375
2695.58188	6182.7375
2698.19818	6165.4375
2700.81285	6168.1375
2703.4259	6183.6375
2706.03733	6260.4375
2708.64714	6210.6375
2711.25533	6197.2375
2713.86191	6194.6375
2716.46687	6209.0375
2719.07021	6191.2375
2721.67194	6205.5375
2724.27206	6193.0375
2726.87057	6206.1375
2729.46747	6212.3375
2732.06276	6203.9375
2734.65644	6201.9375
2737.24852	6189.9375
2739.83899	6172.1375
2742.42786	6180.5375
2745.01513	6166.8375
2747.60079	6177.6375
2750.18486	6174.0375
2752.76733	6165.8375
2755.3482	6158.2375
2757.92747	6163.3375
2760.50515	6156.5375
2763.08123	6170.8375
2765.65573	6161.2375
2768.22863	6165.6375
2770.79994	6135.3375
2773.36967	6154.0375
2775.9378	6149.4375
2778.50435	6159.9375
2781.06932	6129.6375
2783.6327	6145.2375
2786.1945	6124.1375
2788.75471	6139.0375
2791.31335	6142.7375
2793.87041	6114.3375
2796.42589	6102.7375
2798.97979	6074.3375
2801.53212	6083.6375
2804.08288	6076.6375
2806.63206	6065.1375
2809.17967	6048.0375
2811.72571	6057.1375
2814.27018	6055.3375
2816.81308	6047.9375
2819.35442	6023.8375
2821.89419	6005.0375
2824.43239	6026.4375
2826.96904	6017.4375
2829.50412	6015.4375
2832.03763	5989.7375
2834.56959	6004.1375
2837.1	5971.2375
2839.62884	5989.1375
2842.15613	5980.9375
2844.68186	5997.7375
2847.20604	6001.5375
2849.72867	5984.4375
2852.24974	5994.5375
2854.76927	6008.3375
2857.28724	5985.7375
2859.80367	5980.5375
2862.31855	5970.7375
2864.83189	5955.6375
2867.34368	5953.3375
2869.85393	5955.6375
2872.36264	5941.0375
2874.8698	5929.1375
2877.37543	5935.2375
2879.87952	5948.9375
2882.38207	5947.3375
2884.88308	5939.5375
2887.38256	5951.7375
2889.88051	5956.6375
2892.37692	5963.1375
2894.8718	5945.9375
2897.36515	5970.9375
2899.85698	5967.5375
2902.34727	5982.3375
2904.83604	5970.0375
2907.32328	5992.2375
2909.809	6019.2375
2912.29319	6021.2375
2914.77587	6024.1375
2917.25702	6023.6375
2919.73665	6020.1375
2922.21476	6023.6375
2924.69136	6027.4375
2927.16644	6014.3375
2929.64	6023.3375
2932.11205	6011.0375
2934.58258	5985.6375
2937.05161	6015.6375
2939.51912	6012.7375
2941.98513	6014.1375
2944.44962	5987.7375
2946.91261	5964.1375
2949.37409	5990.1375
2951.83407	5969.7375
2954.29254	5957.4375
2956.74951	5942.6375
2959.20498	5928.1375
2961.65895	5914.9375
2964.11142	5904.9375
2966.56239	5871.3375
2969.01186	5863.8375
2971.45984	5836.1375
2973.90632	5810.9375
2976.35131	5806.7375
2978.7948	5798.8375
2981.23681	5773.7375
2983.67732	5761.8375
2986.11635	5735.1375
2988.55388	5727.5375
2990.98993	5707.5375
2993.4245	5701.5375
2995.85758	5684.4375
2998.28917	5667.7375
3000.71928	5662.6375
3003.14791	5637.7375
3005.57506	5625.6375
3008.00073	5615.5375
3010.42493	5634.1375
3012.84764	5617.7375
3015.26888	5606.2375
3017.68865	5594.5375
3020.10694	5584.9375
3022.52376	5564.7375
3024.9391	5552.2375
3027.35298	5566.3375
3029.76539	5537.7375
3032.17632	5532.4375
3034.5858	5509.1375
3036.9938	5516.8375
3039.40034	5502.6375
3041.80542	5500.7375
3044.20903	5488.7375
3046.61118	5468.7375
3049.01187	5469.0375
3051.4111	5459.9375
3053.80888	5452.9375
3056.20519	5432.8375
3058.60005	5419.8375
3060.99345	5415.7375
3063.3854	5407.5375
3065.7759	5377.7375
3068.16494	5374.9375
3070.55254	5356.5375
3072.93868	5362.3375
3075.32338	5329.1375
3077.70662	5331.7375
3080.08842	5318.8375
3082.46878	5287.6375
3084.84769	5282.1375
3087.22515	5293.1375
3089.60118	5268.8375
3091.97576	5282.8375
3094.3489	5299.9375
3096.72061	5287.4375
3099.09087	5283.2375
3101.4597	5256.8375
3103.82709	5278.4375
3106.19305	5269.3375
3108.55757	5264.3375
3110.92066	5243.4375
3113.28232	5234.0375
3115.64255	5218.2375
3118.00134	5211.2375
3120.35871	5210.4375
3122.71466	5178.2375
3125.06917	5181.1375
3127.42226	5177.2375
3129.77393	5191.3375
3132.12417	5178.6375
3134.47299	5169.6375
3136.82039	5172.4375
3139.16636	5185.2375
3141.51092	5168.1375
3143.85406	5182.4375
3146.19579	5185.3375
3148.53609	5167.8375
3150.87499	5165.4375
3153.21246	5182.8375
3155.54853	5180.8375
3157.88318	5177.0375
3160.21642	5177.4375
3162.54826	5180.3375
3164.87868	5161.8375
3167.2077	5183.2375
3169.5353	5163.8375
3171.86151	5173.4375
3174.18631	5162.4375
3176.5097	5173.7375
3178.83169	5161.2375
3181.15228	5162.0375
3183.47147	5152.7375
3185.78926	5147.4375
3188.10565	5146.4375
3190.42065	5164.0375
3192.73424	5157.9375
3195.04645	5144.5375
3197.35725	5159.7375
3199.66667	5150.2375
3201.97469	5155.8375
3204.28132	5156.4375
3206.58656	5165.9375
3208.8904	5163.9375
3211.19287	5157.8375
3213.49394	5154.2375
3215.79363	5166.2375
3218.09193	5165.7375
3220.38884	5162.2375
3222.68438	5179.7375
3224.97853	5152.8375
3227.2713	5145.7375
3229.56269	5145.4375
3231.8527	5162.9375
3234.14133	5132.2375
3236.42858	5130.4375
3238.71446	5137.6375
3240.99896	5122.2375
3243.28209	5119.9375
3245.56384	5095.8375
3247.84423	5115.6375
3250.12324	5096.1375
3252.40088	5102.9375
3254.67715	5093.6375
3256.95205	5072.8375
3259.22558	5063.0375
3261.49775	5056.1375
3263.76855	5022.3375
3266.03799	5025.3375
3268.30606	5029.6375
3270.57277	5019.9375
3272.83812	5011.1375
3275.10211	5005.5375
3277.36474	5003.4375
3279.62601	5015.5375
3281.88593	4999.1375
3284.14448	5008.7375
3286.40168	5006.4375
3288.65753	4990.4375
3290.91202	4980.8375
3293.16516	4972.9375
3295.41695	4956.5375
3297.66738	4919.9375
3299.91647	4900.0375
3302.16421	4880.1375
3304.4106	4848.9375
3306.65564	4822.2375
3308.89933	4794.8375
3311.14169	4777.5375
3313.38269	4743.4375
3315.62236	4713.6375
3317.86068	4684.6375
3320.09766	4629.1375
3322.3333	4604.2375
3324.5676	4586.4375
3326.80056	4530.1375
3329.03219	4493.5375
3331.26248	1.9375
3333.49143	0.5375
3335.71905	-0.8625
