Data from AgNPs_FTO_APTES_UA_5um_CRN_0.1mM_R6G_10uM_NaF_0.1M_Addition_RamanShift__20__13-20-19-104.txt Node

Date: Tue Dec 21 13:20:19 GMT 2021
User: TCL
Spectrometer: QEP01345
Trigger mode: 4
Integration Time (sec): 7.000000E0
Scans to average: 10
Electric dark correction enabled: true
Nonlinearity correction enabled: false
Boxcar width: 0
XAxis mode: Raman Shifts
Number of Pixels in Spectrum: 1044
>>>>>Begin Spectral Data<<<<<
46.04893	-0.7125
50.45542	-0.9125
54.85868	-0.5125
59.25871	1.5875
63.6555	50.5875
68.04907	58.0875
72.43941	58.9875
76.82654	60.6875
81.21044	64.2875
85.59113	66.0875
89.96862	65.9875
94.34289	65.5875
98.71396	68.4875
103.08183	73.9875
107.4465	79.1875
111.80798	79.8875
116.16626	79.6875
120.52136	81.1875
124.87327	83.4875
129.222	86.4875
133.56755	94.3875
137.90993	104.8875
142.24913	109.4875
146.58517	127.9875
150.91804	144.2875
155.24774	173.5875
159.57429	214.1875
163.89768	272.6875
168.21792	358.0875
172.53501	487.1875
176.84895	671.2875
181.15975	953.4875
185.46741	1323.9875
189.77193	1829.6875
194.07331	2459.1875
198.37157	3173.8875
202.6667	3912.3875
206.9587	4684.5875
211.24758	5445.2875
215.53334	6195.7875
219.81599	6985.5875
224.09553	7855.6875
228.37195	8827.5875
232.64527	9884.3875
236.91549	11018.2875
241.18261	12130.5875
245.44663	13180.2875
249.70755	14131.5875
253.96539	14918.1875
258.22014	15573.7875
262.4718	16095.9875
266.72039	16440.0875
270.96589	16625.3875
275.20832	16637.5875
279.44768	16524.6875
283.68397	16418.3875
287.91719	16341.8875
292.14735	16262.0875
296.37445	16243.0875
300.59849	16256.8875
304.81948	16306.3875
309.03742	16191.7875
313.25231	15987.3875
317.46415	15560.9875
321.67296	15092.5875
325.87872	14731.3875
330.08145	14520.4875
334.28114	14519.1875
338.47781	14615.3875
342.67145	14788.4875
346.86207	15051.9875
351.04966	15339.2875
355.23424	15674.2875
359.4158	15933.3875
363.59435	16163.9875
367.76989	16267.1875
371.94243	16394.4875
376.11196	16464.8875
380.27849	16548.2875
384.44203	16706.9875
388.60257	16858.2875
392.76012	17019.7875
396.91468	17246.3875
401.06626	17532.4875
405.21485	17739.9875
409.36047	17722.5875
413.50311	17498.1875
417.64277	17295.4875
421.77947	17211.7875
425.9132	17245.1875
430.04396	17357.1875
434.17176	17465.3875
438.2966	17726.7875
442.41849	18036.6875
446.53742	18586.1875
450.6534	19232.8875
454.76644	19719.6875
458.87653	19862.1875
462.98368	19746.4875
467.08789	19509.2875
471.18916	19225.2875
475.2875	19093.4875
479.38291	19047.5875
483.4754	19000.8875
487.56496	18826.2875
491.6516	18459.0875
495.73531	18110.5875
499.81612	17932.6875
503.89401	17930.1875
507.96899	17904.0875
512.04106	17794.3875
516.11023	17574.5875
520.1765	17440.3875
524.23987	17309.6875
528.30034	17268.1875
532.35792	17231.9875
536.41261	17148.6875
540.46441	16920.0875
544.51333	16826.6875
548.55936	16888.2875
552.60252	17156.5875
556.64279	17515.4875
560.6802	17807.4875
564.71473	18058.0875
568.7464	18371.5875
572.7752	18867.8875
576.80114	19117.9875
580.82422	19302.6875
584.84444	19510.2875
588.86181	19868.9875
592.87633	20397.7875
596.888	20754.4875
600.89682	20670.6875
604.9028	21046.4875
608.90594	22468.1875
612.90624	23901.6875
616.90371	22344.8875
620.89834	18754.7875
624.89015	17161.5875
628.87913	17041.3875
632.86528	17242.5875
636.84862	17380.4875
640.82913	17165.2875
644.80683	16692.3875
648.78172	16285.3875
652.75379	16095.1875
656.72306	16189.2875
660.68952	16418.3875
664.65319	16414.2875
668.61405	16296.2875
672.57211	16382.9875
676.52738	16530.4875
680.47986	16530.6875
684.42955	16412.0875
688.37646	16212.7875
692.32058	16153.6875
696.26192	16226.1875
700.20048	16310.7875
704.13626	16424.3875
708.06928	16397.0875
711.99952	16256.4875
715.927	16160.8875
719.85171	16160.0875
723.77365	16147.1875
727.69284	16096.7875
731.60928	16023.3875
735.52295	16040.9875
739.43388	16064.8875
743.34206	16112.7875
747.24749	16116.7875
751.15017	16187.7875
755.05012	16384.1875
758.94733	16783.9875
762.8418	17659.0875
766.73354	18983.6875
770.62254	20405.2875
774.50882	20925.7875
778.39237	20067.6875
782.27321	18522.4875
786.15132	17096.4875
790.02671	16204.2875
793.89938	15738.1875
797.76935	15553.9875
801.6366	15522.7875
805.50115	15547.7875
809.36299	15484.1875
813.22213	15335.6875
817.07857	15272.1875
820.93231	15232.5875
824.78336	15108.7875
828.63172	15069.5875
832.47738	15024.3875
836.32036	15022.0875
840.16066	15026.2875
843.99827	14991.9875
847.8332	14969.8875
851.66546	14916.2875
855.49504	14863.3875
859.32195	14968.2875
863.1462	14962.0875
866.96777	14983.2875
870.78668	14956.3875
874.60293	14934.3875
878.41652	14914.6875
882.22745	14906.8875
886.03573	14970.6875
889.84136	14986.4875
893.64433	14962.1875
897.44466	14822.2875
901.24235	14707.8875
905.0374	14576.6875
908.8298	14480.6875
912.61957	14495.4875
916.40671	14564.2875
920.19121	14754.8875
923.97308	14954.2875
927.75233	15043.9875
931.52895	14965.3875
935.30295	14773.7875
939.07433	14510.2875
942.84309	14301.2875
946.60924	14174.8875
950.37278	14089.3875
954.13371	14040.7875
957.89203	13999.4875
961.64774	13943.1875
965.40086	13883.4875
969.15137	13809.1875
972.89929	13695.8875
976.64461	13631.1875
980.38733	13601.0875
984.12747	13630.9875
987.86502	13704.8875
991.59999	13858.7875
995.33237	14073.1875
999.06217	14472.2875
1002.78939	14950.4875
1006.51404	15360.3875
1010.23611	15609.3875
1013.95561	15784.5875
1017.67255	15797.0875
1021.38692	15603.9875
1025.09872	15311.6875
1028.80796	15164.6875
1032.51465	15308.3875
1036.21877	15543.2875
1039.92035	15652.3875
1043.61937	15603.0875
1047.31584	15446.4875
1051.00976	15208.0875
1054.70114	15073.1875
1058.38998	15032.7875
1062.07627	15100.3875
1065.76003	15214.2875
1069.44126	15315.2875
1073.11995	15502.5875
1076.79611	15660.6875
1080.46974	15705.6875
1084.14085	15743.2875
1087.80943	15868.6875
1091.47549	16026.9875
1095.13903	16094.2875
1098.80005	15979.6875
1102.45857	15640.6875
1106.11456	15334.2875
1109.76805	15226.0875
1113.41903	15277.2875
1117.06751	15390.1875
1120.71348	15590.9875
1124.35696	15854.5875
1127.99793	16128.4875
1131.63641	16332.9875
1135.2724	16314.7875
1138.90589	16201.3875
1142.5369	16085.0875
1146.16542	16010.1875
1149.79145	15989.1875
1153.415	16086.9875
1157.03607	16268.0875
1160.65467	16640.6875
1164.27079	17334.7875
1167.88443	18294.8875
1171.49561	19500.5875
1175.10432	21010.9875
1178.71056	22909.2875
1182.31434	24668.6875
1185.91565	25608.6875
1189.51451	25630.3875
1193.11091	24965.9875
1196.70485	23934.5875
1200.29634	22830.1875
1203.88538	21878.8875
1207.47197	21130.2875
1211.05612	20589.3875
1214.63782	20144.2875
1218.21708	19876.8875
1221.79391	19716.5875
1225.36829	19619.8875
1228.94024	19389.4875
1232.50976	18961.3875
1236.07685	18568.3875
1239.6415	18395.9875
1243.20374	18303.7875
1246.76355	18402.7875
1250.32093	18659.1875
1253.8759	19062.2875
1257.42845	19623.5875
1260.97859	20230.8875
1264.52631	20788.2875
1268.07163	21290.5875
1271.61453	21953.4875
1275.15503	22634.7875
1278.69312	23405.6875
1282.22882	24052.5875
1285.76211	24729.2875
1289.29301	25643.1875
1292.82151	26739.3875
1296.34761	28079.3875
1299.87133	29684.5875
1303.39266	31503.4875
1306.9116	33294.7875
1310.42815	35089.3875
1313.94233	36396.5875
1317.45412	36629.9875
1320.96354	36163.1875
1324.47058	35410.4875
1327.97525	34709.0875
1331.47754	34141.2875
1334.97747	33843.6875
1338.47502	33761.1875
1341.97022	33566.4875
1345.46305	33116.1875
1348.95352	32525.1875
1352.44163	32244.9875
1355.92738	32678.3875
1359.41078	33765.7875
1362.89183	34673.7875
1366.37053	34211.7875
1369.84688	31788.7875
1373.32088	28554.2875
1376.79254	26113.5875
1380.26186	24964.0875
1383.72883	24713.5875
1387.19347	24656.9875
1390.65578	24601.6875
1394.11575	24774.1875
1397.57339	25419.5875
1401.0287	26265.0875
1404.48168	27096.2875
1407.93234	27475.0875
1411.38068	27254.8875
1414.82669	26482.2875
1418.27039	25168.2875
1421.71177	23760.4875
1425.15083	22565.1875
1428.58758	21865.5875
1432.02203	21710.2875
1435.45416	22083.9875
1438.88399	22615.7875
1442.31151	23200.2875
1445.73673	23735.5875
1449.15965	24284.3875
1452.58027	24740.9875
1455.9986	24968.0875
1459.41463	25229.1875
1462.82837	25687.6875
1466.23982	26304.9875
1469.64898	26807.4875
1473.05586	26947.1875
1476.46045	26961.9875
1479.86276	26755.0875
1483.26279	26390.8875
1486.66054	26115.6875
1490.05602	26046.3875
1493.44922	26016.1875
1496.84016	25899.6875
1500.22882	25862.4875
1503.61521	26172.6875
1506.99934	26720.8875
1510.38121	27307.8875
1513.76081	27440.6875
1517.13816	26859.8875
1520.51324	25882.5875
1523.88607	24969.5875
1527.25665	24408.5875
1530.62498	24210.4875
1533.99105	24136.5875
1537.35488	24113.7875
1540.71647	23921.0875
1544.07581	23602.5875
1547.4329	23112.1875
1550.78776	22636.7875
1554.14038	22302.4875
1557.49077	22167.3875
1560.83892	22133.6875
1564.18484	22196.2875
1567.52853	22227.4875
1570.86999	22298.2875
1574.20922	22488.3875
1577.54624	22710.1875
1580.88103	22729.1875
1584.2136	22884.9875
1587.54395	23459.9875
1590.87208	24673.7875
1594.19801	26341.8875
1597.52172	28144.1875
1600.84321	28961.5875
1604.16251	28061.3875
1607.47959	25916.7875
1610.79447	23320.3875
1614.10715	20947.9875
1617.41763	19119.7875
1620.7259	17863.1875
1624.03199	17186.7875
1627.33587	17107.2875
1630.63757	17521.9875
1633.93707	18592.3875
1637.23439	20374.9875
1640.52951	22955.0875
1643.82246	26146.7875
1647.11321	28875.4875
1650.40179	29702.6875
1653.68819	28028.5875
1656.97241	24582.4875
1660.25446	20930.4875
1663.53433	18035.8875
1666.81203	16135.9875
1670.08756	14956.7875
1673.36092	14193.7875
1676.63211	13694.8875
1679.90115	13351.0875
1683.16801	13089.9875
1686.43272	12901.2875
1689.69527	12739.5875
1692.95567	12620.7875
1696.2139	12561.3875
1699.46999	12490.9875
1702.72392	12460.5875
1705.97571	12401.1875
1709.22535	12322.8875
1712.47284	12269.4875
1715.71819	12250.4875
1718.96139	12225.5875
1722.20246	12131.5875
1725.44139	12105.5875
1728.67818	12045.3875
1731.91284	11983.2875
1735.14537	11911.3875
1738.37576	11863.5875
1741.60403	11833.0875
1744.83017	11810.8875
1748.05418	11797.3875
1751.27607	11813.3875
1754.49584	11796.8875
1757.71349	11796.5875
1760.92903	11756.4875
1764.14244	11696.7875
1767.35375	11643.8875
1770.56294	11607.9875
1773.77002	11561.9875
1776.97499	11540.0875
1780.17785	11478.9875
1783.37861	11450.2875
1786.57727	11420.3875
1789.77382	11376.2875
1792.96828	11353.3875
1796.16064	11334.4875
1799.3509	11307.6875
1802.53907	11284.9875
1805.72514	11252.1875
1808.90913	11209.6875
1812.09102	11192.7875
1815.27083	11162.6875
1818.44856	11150.4875
1821.6242	11128.0875
1824.79776	11103.6875
1827.96924	11099.0875
1831.13864	11065.4875
1834.30597	11074.4875
1837.47122	11056.5875
1840.6344	11049.6875
1843.7955	11046.8875
1846.95454	11052.4875
1850.11151	11042.2875
1853.26642	11044.3875
1856.41926	11049.9875
1859.57004	11057.3875
1862.71876	11044.0875
1865.86542	11042.6875
1869.01003	11037.6875
1872.15258	11013.9875
1875.29308	10989.4875
1878.43152	11004.8875
1881.56792	11003.6875
1884.70227	10977.6875
1887.83457	10986.3875
1890.96482	10984.1875
1894.09304	10960.7875
1897.21921	10961.1875
1900.34335	10966.5875
1903.46544	10948.3875
1906.58551	10943.2875
1909.70353	10906.4875
1912.81953	10891.7875
1915.93349	10873.4875
1919.04543	10850.9875
1922.15534	10827.7875
1925.26322	10800.2875
1928.36908	10777.3875
1931.47292	10734.0875
1934.57473	10685.1875
1937.67453	10640.6875
1940.77232	10620.5875
1943.86808	10586.2875
1946.96184	10560.3875
1950.05358	10503.1875
1953.14331	10494.0875
1956.23103	10453.8875
1959.31675	10410.1875
1962.40046	10397.9875
1965.48217	10352.8875
1968.56188	10323.0875
1971.63959	10277.2875
1974.7153	10277.7875
1977.78901	10225.7875
1980.86073	10188.9875
1983.93046	10160.9875
1986.99819	10103.0875
1990.06394	10038.1875
1993.1277	10039.5875
1996.18947	9989.8875
1999.24925	9984.1875
2002.30706	9954.9875
2005.36288	9948.8875
2008.41672	9890.3875
2011.46859	9854.1875
2014.51848	9825.5875
2017.56639	9803.9875
2020.61233	9801.6875
2023.6563	9765.7875
2026.6983	9759.5875
2029.73833	9747.9875
2032.7764	9711.2875
2035.8125	9686.0875
2038.84664	9679.7875
2041.87881	9662.4875
2044.90903	9667.0875
2047.93729	9633.4875
2050.96359	9608.8875
2053.98794	9614.0875
2057.01034	9606.6875
2060.03078	9588.9875
2063.04927	9560.8875
2066.06582	9572.9875
2069.08042	9521.7875
2072.09307	9520.3875
2075.10378	9521.1875
2078.11255	9522.6875
2081.11938	9510.5875
2084.12426	9491.9875
2087.12722	9495.1875
2090.12824	9471.4875
2093.12732	9474.2875
2096.12447	9479.9875
2099.11969	9466.4875
2102.11299	9459.0875
2105.10435	9477.0875
2108.09379	9470.0875
2111.08131	9485.6875
2114.0669	9483.1875
2117.05057	9462.0875
2120.03233	9474.3875
2123.01216	9464.8875
2125.99008	9492.9875
2128.96609	9481.8875
2131.94018	9491.9875
2134.91236	9494.8875
2137.88263	9488.7875
2140.851	9492.8875
2143.81746	9479.1875
2146.78201	9494.0875
2149.74466	9473.9875
2152.7054	9458.9875
2155.66425	9460.3875
2158.6212	9461.8875
2161.57625	9448.1875
2164.52941	9460.6875
2167.48067	9455.1875
2170.43004	9440.3875
2173.37752	9435.5875
2176.32311	9436.7875
2179.26681	9422.3875
2182.20863	9426.5875
2185.14856	9433.2875
2188.08661	9414.5875
2191.02278	9402.0875
2193.95707	9398.1875
2196.88948	9417.3875
2199.82001	9402.0875
2202.74867	9410.7875
2205.67545	9395.1875
2208.60037	9364.1875
2211.52341	9353.5875
2214.44458	9348.2875
2217.36388	9334.1875
2220.28132	9321.3875
2223.1969	9305.7875
2226.11061	9286.8875
2229.02246	9272.7875
2231.93245	9261.1875
2234.84058	9230.4875
2237.74686	9215.7875
2240.65128	9196.7875
2243.55385	9186.7875
2246.45456	9162.1875
2249.35343	9143.9875
2252.25044	9153.8875
2255.14561	9126.3875
2258.03893	9104.2875
2260.93041	9089.6875
2263.82004	9059.2875
2266.70783	9045.8875
2269.59378	8998.4875
2272.4779	8974.1875
2275.36017	8936.1875
2278.24061	8939.2875
2281.11922	8906.8875
2283.996	8913.2875
2286.87094	8895.5875
2289.74405	8877.3875
2292.61534	8856.6875
2295.4848	8871.5875
2298.35243	8852.1875
2301.21824	8839.0875
2304.08223	8841.9875
2306.94439	8825.6875
2309.80474	8856.4875
2312.66327	8844.1875
2315.51999	8808.4875
2318.37489	8827.6875
2321.22797	8830.8875
2324.07925	8807.6875
2326.92871	8784.1875
2329.77637	8785.7875
2332.62222	8776.6875
2335.46626	8790.3875
2338.3085	8764.8875
2341.14893	8770.3875
2343.98756	8759.7875
2346.8244	8777.2875
2349.65943	8754.2875
2352.49267	8756.8875
2355.32411	8751.1875
2358.15376	8761.6875
2360.98161	8746.2875
2363.80768	8717.7875
2366.63195	8719.5875
2369.45444	8695.7875
2372.27514	8683.7875
2375.09405	8668.8875
2377.91118	8653.6875
2380.72652	8627.5875
2383.54009	8604.7875
2386.35187	8584.2875
2389.16188	8585.3875
2391.97011	8544.8875
2394.77657	8567.5875
2397.58125	8548.6875
2400.38416	8518.2875
2403.18529	8499.1875
2405.98466	8482.7875
2408.78226	8479.1875
2411.57809	8451.3875
2414.37216	8452.1875
2417.16446	8399.3875
2419.955	8406.1875
2422.74378	8413.8875
2425.5308	8398.9875
2428.31606	8395.3875
2431.09956	8384.6875
2433.88131	8362.5875
2436.6613	8353.2875
2439.43954	8346.4875
2442.21603	8338.9875
2444.99077	8324.5875
2447.76377	8341.9875
2450.53501	8342.2875
2453.30451	8339.7875
2456.07226	8331.1875
2458.83827	8336.3875
2461.60254	8332.1875
2464.36507	8335.5875
2467.12586	8324.4875
2469.88492	8301.7875
2472.64224	8327.5875
2475.39782	8317.3875
2478.15167	8345.9875
2480.90379	8336.2875
2483.65417	8323.3875
2486.40283	8318.7875
2489.14976	8329.3875
2491.89497	8326.5875
2494.63845	8349.0875
2497.3802	8344.6875
2500.12024	8307.2875
2502.85855	8324.1875
2505.59514	8329.4875
2508.33002	8301.2875
2511.06318	8296.0875
2513.79462	8270.2875
2516.52435	8261.5875
2519.25237	8266.3875
2521.97867	8261.3875
2524.70327	8250.9875
2527.42616	8242.4875
2530.14734	8227.9875
2532.86681	8221.6875
2535.58458	8216.4875
2538.30065	8204.2875
2541.01501	8206.7875
2543.72768	8169.3875
2546.43864	8184.9875
2549.14791	8169.6875
2551.85548	8158.1875
2554.56136	8162.3875
2557.26554	8153.1875
2559.96803	8136.5875
2562.66883	8127.2875
2565.36794	8140.7875
2568.06536	8141.2875
2570.7611	8117.6875
2573.45514	8104.1875
2576.14751	8115.6875
2578.83819	8105.0875
2581.52719	8109.6875
2584.21451	8097.0875
2586.90015	8095.8875
2589.58411	8090.7875
2592.2664	8047.3875
2594.94701	8064.4875
2597.62594	8077.0875
2600.30321	8031.1875
2602.9788	8027.6875
2605.65273	8034.4875
2608.32498	8042.1875
2610.99557	8045.4875
2613.66449	8059.6875
2616.33175	8035.8875
2618.99734	8040.8875
2621.66128	8043.5875
2624.32355	8025.1875
2626.98416	8049.4875
2629.64311	8038.5875
2632.30041	8019.9875
2634.95605	8023.8875
2637.61004	8030.0875
2640.26238	8024.0875
2642.91306	8014.2875
2645.56209	8016.1875
2648.20948	8001.3875
2650.85521	7973.9875
2653.4993	7983.1875
2656.14175	7990.7875
2658.78255	8004.0875
2661.42171	7991.8875
2664.05923	8001.5875
2666.6951	8010.6875
2669.32934	7992.8875
2671.96194	8005.1875
2674.59291	7998.6875
2677.22224	8005.1875
2679.84993	7996.9875
2682.476	7993.7875
2685.10043	7997.9875
2687.72324	7963.5875
2690.34441	7966.4875
2692.96396	7983.8875
2695.58188	7971.2875
2698.19818	7954.6875
2700.81285	7957.3875
2703.4259	7983.1875
2706.03733	8030.7875
2708.64714	8015.8875
2711.25533	8001.6875
2713.86191	7993.4875
2716.46687	7982.6875
2719.07021	7992.3875
2721.67194	7983.9875
2724.27206	7980.2875
2726.87057	7993.8875
2729.46747	7997.1875
2732.06276	8004.1875
2734.65644	7988.3875
2737.24852	8010.2875
2739.83899	7976.9875
2742.42786	7993.7875
2745.01513	7981.5875
2747.60079	7966.4875
2750.18486	7977.8875
2752.76733	7966.4875
2755.3482	7969.1875
2757.92747	7966.7875
2760.50515	7949.4875
2763.08123	7973.1875
2765.65573	7954.8875
2768.22863	7968.1875
2770.79994	7964.5875
2773.36967	7976.5875
2775.9378	7979.2875
2778.50435	7972.4875
2781.06932	7977.5875
2783.6327	7969.4875
2786.1945	7962.2875
2788.75471	7954.1875
2791.31335	7949.2875
2793.87041	7921.3875
2796.42589	7893.5875
2798.97979	7898.0875
2801.53212	7874.7875
2804.08288	7894.5875
2806.63206	7868.7875
2809.17967	7866.2875
2811.72571	7832.7875
2814.27018	7850.7875
2816.81308	7828.8875
2819.35442	7811.2875
2821.89419	7821.9875
2824.43239	7828.4875
2826.96904	7824.1875
2829.50412	7805.9875
2832.03763	7777.4875
2834.56959	7771.9875
2837.1	7769.0875
2839.62884	7777.8875
2842.15613	7788.0875
2844.68186	7783.8875
2847.20604	7781.1875
2849.72867	7782.7875
2852.24974	7765.2875
2854.76927	7761.1875
2857.28724	7785.8875
2859.80367	7760.2875
2862.31855	7717.6875
2864.83189	7723.7875
2867.34368	7712.7875
2869.85393	7704.7875
2872.36264	7705.9875
2874.8698	7694.2875
2877.37543	7703.8875
2879.87952	7729.8875
2882.38207	7722.7875
2884.88308	7721.8875
2887.38256	7735.5875
2889.88051	7728.2875
2892.37692	7732.0875
2894.8718	7748.3875
2897.36515	7779.0875
2899.85698	7762.5875
2902.34727	7777.6875
2904.83604	7782.3875
2907.32328	7815.5875
2909.809	7798.1875
2912.29319	7824.9875
2914.77587	7814.5875
2917.25702	7834.9875
2919.73665	7824.5875
2922.21476	7818.4875
2924.69136	7815.9875
2927.16644	7832.2875
2929.64	7813.1875
2932.11205	7821.9875
2934.58258	7763.8875
2937.05161	7802.4875
2939.51912	7801.1875
2941.98513	7763.2875
2944.44962	7761.8875
2946.91261	7746.4875
2949.37409	7756.5875
2951.83407	7732.3875
2954.29254	7704.8875
2956.74951	7710.5875
2959.20498	7682.1875
2961.65895	7667.8875
2964.11142	7648.6875
2966.56239	7606.0875
2969.01186	7606.9875
2971.45984	7562.4875
2973.90632	7527.9875
2976.35131	7529.1875
2978.7948	7487.4875
2981.23681	7503.3875
2983.67732	7462.2875
2986.11635	7462.3875
2988.55388	7420.1875
2990.98993	7402.0875
2993.4245	7385.2875
2995.85758	7382.8875
2998.28917	7351.1875
3000.71928	7337.4875
3003.14791	7314.4875
3005.57506	7336.7875
3008.00073	7319.7875
3010.42493	7312.4875
3012.84764	7291.2875
3015.26888	7276.2875
3017.68865	7252.0875
3020.10694	7249.0875
3022.52376	7226.0875
3024.9391	7207.7875
3027.35298	7173.7875
3029.76539	7184.7875
3032.17632	7169.1875
3034.5858	7147.0875
3036.9938	7140.7875
3039.40034	7135.4875
3041.80542	7127.2875
3044.20903	7115.7875
3046.61118	7094.3875
3049.01187	7093.4875
3051.4111	7099.7875
3053.80888	7039.0875
3056.20519	7060.7875
3058.60005	7028.5875
3060.99345	7034.6875
3063.3854	6994.3875
3065.7759	6987.8875
3068.16494	6964.3875
3070.55254	6916.1875
3072.93868	6925.4875
3075.32338	6902.7875
3077.70662	6895.3875
3080.08842	6885.7875
3082.46878	6876.4875
3084.84769	6844.3875
3087.22515	6852.3875
3089.60118	6834.7875
3091.97576	6825.9875
3094.3489	6840.9875
3096.72061	6822.2875
3099.09087	6841.2875
3101.4597	6835.8875
3103.82709	6825.8875
3106.19305	6794.3875
3108.55757	6809.2875
3110.92066	6789.1875
3113.28232	6776.7875
3115.64255	6745.4875
3118.00134	6736.7875
3120.35871	6726.4875
3122.71466	6708.3875
3125.06917	6685.3875
3127.42226	6694.9875
3129.77393	6700.9875
3132.12417	6695.8875
3134.47299	6687.2875
3136.82039	6677.9875
3139.16636	6670.6875
3141.51092	6674.8875
3143.85406	6652.1875
3146.19579	6672.0875
3148.53609	6678.9875
3150.87499	6669.1875
3153.21246	6667.6875
3155.54853	6681.1875
3157.88318	6667.0875
3160.21642	6664.0875
3162.54826	6663.7875
3164.87868	6641.9875
3167.2077	6650.7875
3169.5353	6651.7875
3171.86151	6646.1875
3174.18631	6622.4875
3176.5097	6632.1875
3178.83169	6617.3875
3181.15228	6639.8875
3183.47147	6635.2875
3185.78926	6613.3875
3188.10565	6608.7875
3190.42065	6615.7875
3192.73424	6618.2875
3195.04645	6615.6875
3197.35725	6608.4875
3199.66667	6605.6875
3201.97469	6634.8875
3204.28132	6626.7875
3206.58656	6626.3875
3208.8904	6617.2875
3211.19287	6633.5875
3213.49394	6609.2875
3215.79363	6604.1875
3218.09193	6623.8875
3220.38884	6610.2875
3222.68438	6617.7875
3224.97853	6585.8875
3227.2713	6587.0875
3229.56269	6584.8875
3231.8527	6580.8875
3234.14133	6576.0875
3236.42858	6552.2875
3238.71446	6560.6875
3240.99896	6557.1875
3243.28209	6554.6875
3245.56384	6544.3875
3247.84423	6552.1875
3250.12324	6545.5875
3252.40088	6526.8875
3254.67715	6508.9875
3256.95205	6512.9875
3259.22558	6507.4875
3261.49775	6483.2875
3263.76855	6448.6875
3266.03799	6460.6875
3268.30606	6430.0875
3270.57277	6420.2875
3272.83812	6443.9875
3275.10211	6394.1875
3277.36474	6404.9875
3279.62601	6406.7875
3281.88593	6408.1875
3284.14448	6401.8875
3286.40168	6401.0875
3288.65753	6377.5875
3290.91202	6387.2875
3293.16516	6349.6875
3295.41695	6336.7875
3297.66738	6324.7875
3299.91647	6265.8875
3302.16421	6228.3875
3304.4106	6219.6875
3306.65564	6187.1875
3308.89933	6137.7875
3311.14169	6133.8875
3313.38269	6084.0875
3315.62236	6039.9875
3317.86068	5984.3875
3320.09766	5933.2875
3322.3333	5904.7875
3324.5676	5897.3875
3326.80056	5793.7875
3329.03219	5767.1875
3331.26248	1.5875
3333.49143	-0.2125
3335.71905	-0.6125
