Data from AgNPs_FTO_APTES_UA_50um_CRN_0.1mM_R6G_10uM_NaF_0.1M_Addition_RamanShift__8__15-12-19-232.txt Node

Date: Tue Dec 21 15:12:19 GMT 2021
User: TCL
Spectrometer: QEP01345
Trigger mode: 4
Integration Time (sec): 7.000000E0
Scans to average: 10
Electric dark correction enabled: true
Nonlinearity correction enabled: false
Boxcar width: 0
XAxis mode: Raman Shifts
Number of Pixels in Spectrum: 1044
>>>>>Begin Spectral Data<<<<<
46.04893	0.2375
50.45542	-1.3625
54.85868	-0.9625
59.25871	0.5375
63.6555	36.5375
68.04907	41.4375
72.43941	46.2375
76.82654	45.2375
81.21044	50.2375
85.59113	49.5375
89.96862	52.2375
94.34289	56.5375
98.71396	55.5375
103.08183	57.5375
107.4465	62.7375
111.80798	61.2375
116.16626	59.8375
120.52136	60.4375
124.87327	62.2375
129.222	66.1375
133.56755	69.6375
137.90993	76.3375
142.24913	74.3375
146.58517	83.9375
150.91804	95.5375
155.24774	110.6375
159.57429	136.2375
163.89768	173.6375
168.21792	224.2375
172.53501	301.5375
176.84895	404.9375
181.15975	570.4375
185.46741	791.7375
189.77193	1100.3375
194.07331	1484.7375
198.37157	1906.6375
202.6667	2360.7375
206.9587	2814.5375
211.24758	3266.0375
215.53334	3730.8375
219.81599	4195.8375
224.09553	4765.7375
228.37195	5330.1375
232.64527	5990.0375
236.91549	6635.5375
241.18261	7317.6375
245.44663	7912.0375
249.70755	8444.1375
253.96539	8879.9375
258.22014	9242.0375
262.4718	9565.1375
266.72039	9769.4375
270.96589	9882.9375
275.20832	9876.7375
279.44768	9797.7375
283.68397	9689.6375
287.91719	9603.9375
292.14735	9543.0375
296.37445	9557.6375
300.59849	9612.1375
304.81948	9711.1375
309.03742	9750.7375
313.25231	9646.5375
317.46415	9439.1375
321.67296	9150.7375
325.87872	8884.7375
330.08145	8738.4375
334.28114	8696.8375
338.47781	8751.6375
342.67145	8864.5375
346.86207	8997.3375
351.04966	9203.6375
355.23424	9373.4375
359.4158	9550.6375
363.59435	9636.8375
367.76989	9732.0375
371.94243	9798.4375
376.11196	9817.3375
380.27849	9834.4375
384.44203	9896.0375
388.60257	9949.7375
392.76012	10003.9375
396.91468	10132.3375
401.06626	10280.7375
405.21485	10373.2375
409.36047	10316.5375
413.50311	10078.0375
417.64277	9896.2375
421.77947	9795.1375
425.9132	9781.4375
430.04396	9817.9375
434.17176	9832.7375
438.2966	9879.5375
442.41849	10004.9375
446.53742	10203.0375
450.6534	10390.6375
454.76644	10559.9375
458.87653	10593.0375
462.98368	10621.6375
467.08789	10556.2375
471.18916	10474.0375
475.2875	10387.3375
479.38291	10343.0375
483.4754	10287.2375
487.56496	10211.7375
491.6516	10110.7375
495.73531	9989.8375
499.81612	9908.2375
503.89401	9925.9375
507.96899	9957.6375
512.04106	9953.7375
516.11023	9940.0375
520.1765	9876.0375
524.23987	9816.5375
528.30034	9757.4375
532.35792	9653.6375
536.41261	9595.7375
540.46441	9479.4375
544.51333	9450.6375
548.55936	9539.0375
552.60252	9709.3375
556.64279	9889.8375
560.6802	10000.0375
564.71473	10088.2375
568.7464	10244.9375
572.7752	10476.2375
576.80114	10639.5375
580.82422	10838.3375
584.84444	10952.4375
588.86181	11144.9375
592.87633	11308.7375
596.888	11269.9375
600.89682	11127.5375
604.9028	11293.7375
608.90594	12306.9375
612.90624	13605.7375
616.90371	13055.4375
620.89834	10825.0375
624.89015	9729.0375
628.87913	9591.3375
632.86528	9732.8375
636.84862	9873.3375
640.82913	9795.9375
644.80683	9554.4375
648.78172	9294.8375
652.75379	9213.3375
656.72306	9283.6375
660.68952	9417.1375
664.65319	9420.9375
668.61405	9238.6375
672.57211	9158.7375
676.52738	9200.4375
680.47986	9219.8375
684.42955	9155.8375
688.37646	9097.1375
692.32058	9076.1375
696.26192	9084.0375
700.20048	9182.4375
704.13626	9233.5375
708.06928	9265.5375
711.99952	9231.5375
715.927	9194.6375
719.85171	9186.4375
723.77365	9194.8375
727.69284	9101.4375
731.60928	9005.1375
735.52295	8937.7375
739.43388	8961.8375
743.34206	8982.8375
747.24749	9021.8375
751.15017	9046.7375
755.05012	9181.8375
758.94733	9427.4375
762.8418	9932.3375
766.73354	10767.3375
770.62254	11677.5375
774.50882	11991.3375
778.39237	11530.0375
782.27321	10567.9375
786.15132	9743.2375
790.02671	9239.0375
793.89938	8965.0375
797.76935	8855.6375
801.6366	8812.4375
805.50115	8770.2375
809.36299	8733.7375
813.22213	8704.3375
817.07857	8702.6375
820.93231	8657.2375
824.78336	8627.5375
828.63172	8562.7375
832.47738	8545.3375
836.32036	8519.3375
840.16066	8487.1375
843.99827	8458.4375
847.8332	8437.0375
851.66546	8426.9375
855.49504	8423.4375
859.32195	8411.1375
863.1462	8400.7375
866.96777	8371.5375
870.78668	8388.7375
874.60293	8373.5375
878.41652	8381.6375
882.22745	8445.2375
886.03573	8460.3375
889.84136	8480.7375
893.64433	8437.9375
897.44466	8401.8375
901.24235	8380.0375
905.0374	8331.6375
908.8298	8263.3375
912.61957	8267.9375
916.40671	8313.2375
920.19121	8393.2375
923.97308	8448.0375
927.75233	8430.4375
931.52895	8386.4375
935.30295	8275.2375
939.07433	8107.1375
942.84309	8000.7375
946.60924	7927.3375
950.37278	7865.4375
954.13371	7829.0375
957.89203	7837.4375
961.64774	7849.5375
965.40086	7814.5375
969.15137	7791.6375
972.89929	7743.6375
976.64461	7722.1375
980.38733	7690.4375
984.12747	7692.8375
987.86502	7690.2375
991.59999	7709.4375
995.33237	7744.1375
999.06217	7818.4375
1002.78939	7937.7375
1006.51404	8038.7375
1010.23611	8146.3375
1013.95561	8240.0375
1017.67255	8281.4375
1021.38692	8232.7375
1025.09872	8121.6375
1028.80796	8027.5375
1032.51465	7953.7375
1036.21877	7984.4375
1039.92035	8012.6375
1043.61937	8055.9375
1047.31584	8079.3375
1051.00976	8111.9375
1054.70114	8132.6375
1058.38998	8173.3375
1062.07627	8236.5375
1065.76003	8336.9375
1069.44126	8425.9375
1073.11995	8556.7375
1076.79611	8651.5375
1080.46974	8700.8375
1084.14085	8726.9375
1087.80943	8778.8375
1091.47549	8847.0375
1095.13903	8880.3375
1098.80005	8789.5375
1102.45857	8595.2375
1106.11456	8422.8375
1109.76805	8329.7375
1113.41903	8349.0375
1117.06751	8442.8375
1120.71348	8583.1375
1124.35696	8751.5375
1127.99793	8949.6375
1131.63641	9092.9375
1135.2724	9014.8375
1138.90589	8870.6375
1142.5369	8799.7375
1146.16542	8757.9375
1149.79145	8741.4375
1153.415	8755.3375
1157.03607	8783.3375
1160.65467	8927.5375
1164.27079	9222.0375
1167.88443	9615.4375
1171.49561	10152.5375
1175.10432	10900.7375
1178.71056	11840.3375
1182.31434	12681.3375
1185.91565	13027.2375
1189.51451	12935.6375
1193.11091	12578.2375
1196.70485	12058.9375
1200.29634	11563.3375
1203.88538	11188.4375
1207.47197	10854.2375
1211.05612	10526.1375
1214.63782	10247.2375
1218.21708	9985.5375
1221.79391	9773.0375
1225.36829	9636.5375
1228.94024	9565.3375
1232.50976	9503.2375
1236.07685	9429.5375
1239.6415	9376.7375
1243.20374	9375.2375
1246.76355	9398.8375
1250.32093	9500.8375
1253.8759	9642.9375
1257.42845	9850.9375
1260.97859	10133.4375
1264.52631	10366.4375
1268.07163	10654.7375
1271.61453	10853.0375
1275.15503	11039.6375
1278.69312	11278.1375
1282.22882	11538.9375
1285.76211	11876.7375
1289.29301	12286.6375
1292.82151	12789.4375
1296.34761	13357.8375
1299.87133	14026.1375
1303.39266	14711.0375
1306.9116	15459.3375
1310.42815	16180.2375
1313.94233	16574.1375
1317.45412	16509.2375
1320.96354	16137.8375
1324.47058	15737.2375
1327.97525	15346.3375
1331.47754	15079.3375
1334.97747	14851.5375
1338.47502	14786.4375
1341.97022	14711.1375
1345.46305	14770.3375
1348.95352	14876.2375
1352.44163	15173.3375
1355.92738	15659.9375
1359.41078	16514.2375
1362.89183	17521.7375
1366.37053	17510.3375
1369.84688	16066.4375
1373.32088	14146.4375
1376.79254	12803.6375
1380.26186	12143.4375
1383.72883	11916.0375
1387.19347	11770.4375
1390.65578	11580.2375
1394.11575	11442.2375
1397.57339	11363.2375
1401.0287	11377.7375
1404.48168	11361.6375
1407.93234	11240.1375
1411.38068	10973.3375
1414.82669	10662.0375
1418.27039	10325.5375
1421.71177	10016.3375
1425.15083	9725.0375
1428.58758	9555.7375
1432.02203	9559.7375
1435.45416	9704.7375
1438.88399	9853.2375
1442.31151	10002.1375
1445.73673	10113.3375
1449.15965	10256.2375
1452.58027	10364.9375
1455.9986	10398.5375
1459.41463	10465.2375
1462.82837	10587.0375
1466.23982	10746.5375
1469.64898	10888.3375
1473.05586	11031.4375
1476.46045	11079.5375
1479.86276	11099.1375
1483.26279	11114.6375
1486.66054	11207.4375
1490.05602	11397.9375
1493.44922	11692.9375
1496.84016	12130.9375
1500.22882	12769.2375
1503.61521	13647.1375
1506.99934	14641.1375
1510.38121	15378.7375
1513.76081	15546.8375
1517.13816	15005.1375
1520.51324	14036.8375
1523.88607	13178.8375
1527.25665	12610.7375
1530.62498	12296.9375
1533.99105	12081.8375
1537.35488	11812.7375
1540.71647	11529.4375
1544.07581	11179.6375
1547.4329	10871.6375
1550.78776	10634.6375
1554.14038	10487.7375
1557.49077	10448.3375
1560.83892	10534.4375
1564.18484	10671.8375
1567.52853	10823.0375
1570.86999	11006.7375
1574.20922	11225.8375
1577.54624	11348.2375
1580.88103	11229.6375
1584.2136	10970.0375
1587.54395	10846.1375
1590.87208	10995.2375
1594.19801	11377.2375
1597.52172	11801.1375
1600.84321	11985.1375
1604.16251	11590.7375
1607.47959	10941.4375
1610.79447	10210.5375
1614.10715	9495.0375
1617.41763	8922.1375
1620.7259	8496.6375
1624.03199	8247.9375
1627.33587	8180.2375
1630.63757	8335.3375
1633.93707	8702.6375
1637.23439	9356.8375
1640.52951	10395.9375
1643.82246	11743.3375
1647.11321	13071.0375
1650.40179	13774.3375
1653.68819	13328.3375
1656.97241	11893.4375
1660.25446	10239.0375
1663.53433	8966.8375
1666.81203	8086.8375
1670.08756	7564.3375
1673.36092	7241.8375
1676.63211	6994.7375
1679.90115	6869.7375
1683.16801	6741.7375
1686.43272	6650.2375
1689.69527	6581.8375
1692.95567	6498.9375
1696.2139	6475.2375
1699.46999	6424.6375
1702.72392	6393.2375
1705.97571	6313.0375
1709.22535	6257.8375
1712.47284	6216.7375
1715.71819	6179.5375
1718.96139	6143.5375
1722.20246	6119.5375
1725.44139	6075.8375
1728.67818	6024.8375
1731.91284	5981.6375
1735.14537	5954.9375
1738.37576	5931.0375
1741.60403	5921.6375
1744.83017	5862.0375
1748.05418	5882.4375
1751.27607	5874.3375
1754.49584	5867.9375
1757.71349	5894.9375
1760.92903	5880.1375
1764.14244	5868.7375
1767.35375	5835.2375
1770.56294	5815.3375
1773.77002	5777.8375
1776.97499	5738.2375
1780.17785	5713.2375
1783.37861	5687.8375
1786.57727	5670.0375
1789.77382	5635.4375
1792.96828	5625.4375
1796.16064	5606.7375
1799.3509	5581.9375
1802.53907	5564.2375
1805.72514	5554.2375
1808.90913	5523.7375
1812.09102	5515.8375
1815.27083	5486.1375
1818.44856	5484.4375
1821.6242	5478.1375
1824.79776	5461.2375
1827.96924	5448.5375
1831.13864	5436.2375
1834.30597	5430.5375
1837.47122	5432.5375
1840.6344	5398.8375
1843.7955	5399.8375
1846.95454	5409.7375
1850.11151	5399.8375
1853.26642	5379.7375
1856.41926	5372.0375
1859.57004	5368.1375
1862.71876	5332.1375
1865.86542	5347.6375
1869.01003	5339.7375
1872.15258	5334.0375
1875.29308	5311.3375
1878.43152	5306.8375
1881.56792	5317.5375
1884.70227	5291.9375
1887.83457	5278.3375
1890.96482	5254.3375
1894.09304	5250.2375
1897.21921	5224.3375
1900.34335	5229.7375
1903.46544	5216.5375
1906.58551	5212.8375
1909.70353	5205.6375
1912.81953	5202.4375
1915.93349	5183.1375
1919.04543	5177.4375
1922.15534	5162.6375
1925.26322	5151.3375
1928.36908	5123.9375
1931.47292	5100.7375
1934.57473	5092.7375
1937.67453	5075.7375
1940.77232	5062.0375
1943.86808	5040.4375
1946.96184	5021.5375
1950.05358	5000.2375
1953.14331	4976.8375
1956.23103	4977.6375
1959.31675	4950.9375
1962.40046	4945.5375
1965.48217	4926.9375
1968.56188	4908.6375
1971.63959	4903.4375
1974.7153	4889.9375
1977.78901	4854.4375
1980.86073	4838.3375
1983.93046	4824.3375
1986.99819	4813.8375
1990.06394	4789.3375
1993.1277	4767.0375
1996.18947	4752.9375
1999.24925	4737.9375
2002.30706	4711.7375
2005.36288	4689.8375
2008.41672	4684.7375
2011.46859	4666.1375
2014.51848	4651.5375
2017.56639	4624.8375
2020.61233	4621.8375
2023.6563	4622.0375
2026.6983	4606.0375
2029.73833	4568.8375
2032.7764	4556.9375
2035.8125	4541.4375
2038.84664	4550.9375
2041.87881	4528.1375
2044.90903	4516.3375
2047.93729	4500.3375
2050.96359	4508.6375
2053.98794	4494.7375
2057.01034	4485.1375
2060.03078	4474.3375
2063.04927	4474.6375
2066.06582	4457.4375
2069.08042	4448.8375
2072.09307	4452.6375
2075.10378	4437.0375
2078.11255	4436.7375
2081.11938	4445.8375
2084.12426	4436.1375
2087.12722	4424.6375
2090.12824	4429.5375
2093.12732	4420.6375
2096.12447	4411.9375
2099.11969	4415.2375
2102.11299	4413.9375
2105.10435	4410.3375
2108.09379	4410.7375
2111.08131	4404.5375
2114.0669	4414.6375
2117.05057	4436.9375
2120.03233	4420.8375
2123.01216	4408.8375
2125.99008	4410.8375
2128.96609	4410.2375
2131.94018	4406.2375
2134.91236	4407.7375
2137.88263	4392.1375
2140.851	4401.3375
2143.81746	4391.1375
2146.78201	4393.7375
2149.74466	4405.1375
2152.7054	4392.5375
2155.66425	4399.7375
2158.6212	4400.1375
2161.57625	4372.9375
2164.52941	4384.8375
2167.48067	4366.1375
2170.43004	4368.6375
2173.37752	4371.6375
2176.32311	4347.4375
2179.26681	4339.8375
2182.20863	4350.8375
2185.14856	4350.5375
2188.08661	4346.2375
2191.02278	4349.4375
2193.95707	4331.1375
2196.88948	4330.1375
2199.82001	4323.0375
2202.74867	4309.3375
2205.67545	4314.1375
2208.60037	4285.3375
2211.52341	4275.8375
2214.44458	4276.0375
2217.36388	4259.8375
2220.28132	4259.1375
2223.1969	4238.7375
2226.11061	4233.2375
2229.02246	4213.5375
2231.93245	4208.2375
2234.84058	4211.4375
2237.74686	4195.4375
2240.65128	4187.2375
2243.55385	4200.2375
2246.45456	4173.7375
2249.35343	4176.8375
2252.25044	4160.0375
2255.14561	4155.4375
2258.03893	4129.3375
2260.93041	4143.8375
2263.82004	4133.4375
2266.70783	4120.0375
2269.59378	4100.4375
2272.4779	4092.7375
2275.36017	4091.8375
2278.24061	4060.3375
2281.11922	4069.5375
2283.996	4046.7375
2286.87094	4041.2375
2289.74405	4018.9375
2292.61534	4025.9375
2295.4848	4018.4375
2298.35243	4012.8375
2301.21824	4002.3375
2304.08223	4005.2375
2306.94439	3995.5375
2309.80474	4002.5375
2312.66327	3992.1375
2315.51999	3980.4375
2318.37489	3982.3375
2321.22797	3971.9375
2324.07925	3965.8375
2326.92871	3963.4375
2329.77637	3958.5375
2332.62222	3938.3375
2335.46626	3935.6375
2338.3085	3918.0375
2341.14893	3924.0375
2343.98756	3915.3375
2346.8244	3918.9375
2349.65943	3914.9375
2352.49267	3913.2375
2355.32411	3900.5375
2358.15376	3897.2375
2360.98161	3902.0375
2363.80768	3917.1375
2366.63195	3900.6375
2369.45444	3904.2375
2372.27514	3892.0375
2375.09405	3883.7375
2377.91118	3872.1375
2380.72652	3870.3375
2383.54009	3854.2375
2386.35187	3838.0375
2389.16188	3824.8375
2391.97011	3799.5375
2394.77657	3810.9375
2397.58125	3799.3375
2400.38416	3781.1375
2403.18529	3774.8375
2405.98466	3780.6375
2408.78226	3770.9375
2411.57809	3758.7375
2414.37216	3753.4375
2417.16446	3751.8375
2419.955	3730.4375
2422.74378	3737.3375
2425.5308	3725.7375
2428.31606	3730.0375
2431.09956	3730.4375
2433.88131	3721.7375
2436.6613	3719.5375
2439.43954	3717.3375
2442.21603	3691.6375
2444.99077	3700.7375
2447.76377	3700.5375
2450.53501	3696.2375
2453.30451	3704.7375
2456.07226	3695.9375
2458.83827	3688.2375
2461.60254	3679.5375
2464.36507	3680.8375
2467.12586	3675.6375
2469.88492	3682.7375
2472.64224	3673.8375
2475.39782	3684.4375
2478.15167	3684.1375
2480.90379	3666.3375
2483.65417	3691.1375
2486.40283	3667.6375
2489.14976	3668.0375
2491.89497	3674.0375
2494.63845	3686.3375
2497.3802	3674.7375
2500.12024	3650.1375
2502.85855	3652.4375
2505.59514	3635.3375
2508.33002	3637.1375
2511.06318	3625.2375
2513.79462	3616.3375
2516.52435	3615.2375
2519.25237	3593.5375
2521.97867	3588.4375
2524.70327	3588.1375
2527.42616	3585.9375
2530.14734	3587.0375
2532.86681	3566.3375
2535.58458	3559.5375
2538.30065	3545.5375
2541.01501	3541.7375
2543.72768	3554.5375
2546.43864	3543.4375
2549.14791	3542.9375
2551.85548	3536.2375
2554.56136	3531.6375
2557.26554	3521.3375
2559.96803	3513.6375
2562.66883	3510.4375
2565.36794	3514.3375
2568.06536	3515.4375
2570.7611	3512.4375
2573.45514	3487.2375
2576.14751	3475.5375
2578.83819	3481.8375
2581.52719	3468.7375
2584.21451	3460.5375
2586.90015	3456.2375
2589.58411	3452.4375
2592.2664	3445.6375
2594.94701	3433.2375
2597.62594	3435.0375
2600.30321	3426.4375
2602.9788	3414.9375
2605.65273	3418.0375
2608.32498	3423.1375
2610.99557	3408.5375
2613.66449	3414.8375
2616.33175	3399.7375
2618.99734	3392.1375
2621.66128	3389.7375
2624.32355	3396.4375
2626.98416	3384.0375
2629.64311	3384.0375
2632.30041	3375.9375
2634.95605	3374.2375
2637.61004	3368.3375
2640.26238	3359.1375
2642.91306	3361.8375
2645.56209	3338.9375
2648.20948	3343.3375
2650.85521	3325.5375
2653.4993	3337.8375
2656.14175	3358.4375
2658.78255	3352.4375
2661.42171	3360.9375
2664.05923	3351.2375
2666.6951	3347.0375
2669.32934	3336.1375
2671.96194	3347.3375
2674.59291	3339.7375
2677.22224	3343.7375
2679.84993	3350.1375
2682.476	3330.2375
2685.10043	3349.4375
2687.72324	3332.3375
2690.34441	3323.8375
2692.96396	3326.2375
2695.58188	3328.9375
2698.19818	3331.9375
2700.81285	3323.8375
2703.4259	3353.6375
2706.03733	3394.3375
2708.64714	3361.5375
2711.25533	3329.8375
2713.86191	3341.7375
2716.46687	3333.0375
2719.07021	3328.9375
2721.67194	3331.2375
2724.27206	3313.8375
2726.87057	3318.0375
2729.46747	3323.2375
2732.06276	3314.6375
2734.65644	3316.0375
2737.24852	3320.9375
2739.83899	3305.4375
2742.42786	3300.1375
2745.01513	3306.5375
2747.60079	3302.9375
2750.18486	3300.0375
2752.76733	3292.8375
2755.3482	3276.8375
2757.92747	3286.6375
2760.50515	3273.7375
2763.08123	3271.8375
2765.65573	3268.4375
2768.22863	3273.2375
2770.79994	3254.3375
2773.36967	3258.4375
2775.9378	3266.0375
2778.50435	3238.2375
2781.06932	3243.8375
2783.6327	3245.2375
2786.1945	3254.5375
2788.75471	3225.8375
2791.31335	3236.2375
2793.87041	3232.7375
2796.42589	3205.4375
2798.97979	3201.1375
2801.53212	3195.6375
2804.08288	3205.8375
2806.63206	3197.3375
2809.17967	3186.1375
2811.72571	3184.4375
2814.27018	3170.6375
2816.81308	3183.0375
2819.35442	3175.8375
2821.89419	3159.8375
2824.43239	3173.5375
2826.96904	3170.6375
2829.50412	3161.1375
2832.03763	3168.8375
2834.56959	3165.0375
2837.1	3143.7375
2839.62884	3162.2375
2842.15613	3163.7375
2844.68186	3180.2375
2847.20604	3189.0375
2849.72867	3180.3375
2852.24974	3194.9375
2854.76927	3177.3375
2857.28724	3187.3375
2859.80367	3166.3375
2862.31855	3183.8375
2864.83189	3160.4375
2867.34368	3166.9375
2869.85393	3153.6375
2872.36264	3144.9375
2874.8698	3152.8375
2877.37543	3150.9375
2879.87952	3153.5375
2882.38207	3153.9375
2884.88308	3150.6375
2887.38256	3153.4375
2889.88051	3152.2375
2892.37692	3139.0375
2894.8718	3137.3375
2897.36515	3155.2375
2899.85698	3140.4375
2902.34727	3158.6375
2904.83604	3157.2375
2907.32328	3162.3375
2909.809	3154.4375
2912.29319	3170.1375
2914.77587	3164.7375
2917.25702	3158.8375
2919.73665	3161.8375
2922.21476	3152.2375
2924.69136	3166.7375
2927.16644	3154.2375
2929.64	3162.3375
2932.11205	3165.2375
2934.58258	3146.0375
2937.05161	3149.8375
2939.51912	3139.0375
2941.98513	3140.9375
2944.44962	3134.4375
2946.91261	3113.0375
2949.37409	3115.6375
2951.83407	3115.1375
2954.29254	3107.1375
2956.74951	3098.8375
2959.20498	3089.2375
2961.65895	3083.3375
2964.11142	3078.2375
2966.56239	3062.8375
2969.01186	3058.0375
2971.45984	3054.1375
2973.90632	3042.4375
2976.35131	3032.0375
2978.7948	3024.9375
2981.23681	3017.9375
2983.67732	2999.6375
2986.11635	2996.2375
2988.55388	2991.2375
2990.98993	2984.3375
2993.4245	2979.6375
2995.85758	2974.4375
2998.28917	2969.0375
3000.71928	2971.6375
3003.14791	2962.7375
3005.57506	2962.8375
3008.00073	2957.0375
3010.42493	2951.5375
3012.84764	2940.3375
3015.26888	2938.1375
3017.68865	2932.5375
3020.10694	2924.3375
3022.52376	2920.1375
3024.9391	2920.1375
3027.35298	2920.6375
3029.76539	2902.3375
3032.17632	2912.9375
3034.5858	2897.2375
3036.9938	2914.2375
3039.40034	2893.4375
3041.80542	2895.4375
3044.20903	2882.9375
3046.61118	2879.4375
3049.01187	2867.7375
3051.4111	2893.9375
3053.80888	2861.0375
3056.20519	2872.7375
3058.60005	2859.3375
3060.99345	2861.8375
3063.3854	2844.8375
3065.7759	2854.1375
3068.16494	2853.4375
3070.55254	2827.7375
3072.93868	2832.5375
3075.32338	2834.2375
3077.70662	2837.6375
3080.08842	2819.5375
3082.46878	2826.6375
3084.84769	2812.6375
3087.22515	2815.6375
3089.60118	2826.9375
3091.97576	2822.9375
3094.3489	2817.8375
3096.72061	2819.1375
3099.09087	2819.8375
3101.4597	2818.4375
3103.82709	2817.0375
3106.19305	2815.0375
3108.55757	2809.9375
3110.92066	2810.5375
3113.28232	2805.8375
3115.64255	2803.5375
3118.00134	2799.2375
3120.35871	2804.0375
3122.71466	2788.0375
3125.06917	2786.6375
3127.42226	2789.2375
3129.77393	2785.4375
3132.12417	2789.5375
3134.47299	2798.9375
3136.82039	2800.6375
3139.16636	2802.9375
3141.51092	2803.0375
3143.85406	2815.5375
3146.19579	2811.0375
3148.53609	2815.8375
3150.87499	2811.8375
3153.21246	2809.3375
3155.54853	2843.6375
3157.88318	2826.1375
3160.21642	2822.8375
3162.54826	2830.5375
3164.87868	2837.1375
3167.2077	2831.1375
3169.5353	2850.2375
3171.86151	2843.1375
3174.18631	2843.9375
3176.5097	2838.3375
3178.83169	2843.8375
3181.15228	2853.0375
3183.47147	2832.7375
3185.78926	2827.9375
3188.10565	2822.6375
3190.42065	2842.3375
3192.73424	2841.9375
3195.04645	2845.4375
3197.35725	2837.7375
3199.66667	2859.9375
3201.97469	2841.9375
3204.28132	2846.6375
3206.58656	2850.7375
3208.8904	2850.3375
3211.19287	2856.1375
3213.49394	2856.0375
3215.79363	2858.5375
3218.09193	2863.5375
3220.38884	2867.4375
3222.68438	2888.0375
3224.97853	2870.1375
3227.2713	2852.5375
3229.56269	2865.4375
3231.8527	2863.3375
3234.14133	2862.6375
3236.42858	2846.3375
3238.71446	2849.9375
3240.99896	2844.1375
3243.28209	2826.3375
3245.56384	2835.6375
3247.84423	2838.1375
3250.12324	2830.8375
3252.40088	2841.0375
3254.67715	2840.8375
3256.95205	2819.4375
3259.22558	2818.4375
3261.49775	2823.3375
3263.76855	2809.6375
3266.03799	2808.2375
3268.30606	2802.5375
3270.57277	2789.7375
3272.83812	2797.7375
3275.10211	2793.6375
3277.36474	2776.7375
3279.62601	2791.3375
3281.88593	2783.2375
3284.14448	2780.0375
3286.40168	2792.1375
3288.65753	2782.7375
3290.91202	2779.4375
3293.16516	2775.9375
3295.41695	2762.9375
3297.66738	2751.2375
3299.91647	2745.0375
3302.16421	2718.5375
3304.4106	2719.4375
3306.65564	2690.0375
3308.89933	2673.5375
3311.14169	2678.3375
3313.38269	2652.6375
3315.62236	2640.5375
3317.86068	2608.5375
3320.09766	2583.3375
3322.3333	2568.1375
3324.5676	2576.9375
3326.80056	2534.9375
3329.03219	2516.7375
3331.26248	1.0375
3333.49143	0.1375
3335.71905	0.0375
