Data from AgNPs_FTO_APTES_UA_1um_CRN_0.1mM_R6G_10uM_NaF_0.1M_Addition_RamanShift__4__11-38-48-988.txt Node

Date: Tue Dec 21 11:38:48 GMT 2021
User: TCL
Spectrometer: QEP01345
Trigger mode: 4
Integration Time (sec): 7.000000E0
Scans to average: 10
Electric dark correction enabled: true
Nonlinearity correction enabled: false
Boxcar width: 0
XAxis mode: Raman Shifts
Number of Pixels in Spectrum: 1044
>>>>>Begin Spectral Data<<<<<
46.04893	-0.4
50.45542	-0.2
54.85868	-1.8
59.25871	0.6
63.6555	36.9
68.04907	42.4
72.43941	45.5
76.82654	48.2
81.21044	52
85.59113	53.2
89.96862	56.3
94.34289	54.3
98.71396	53.6
103.08183	57.3
107.4465	62.9
111.80798	62.2
116.16626	64
120.52136	65.9
124.87327	66.9
129.222	66.6
133.56755	73.2
137.90993	80.8
142.24913	77.8
146.58517	93.9
150.91804	102.2
155.24774	121.6
159.57429	149.7
163.89768	191.5
168.21792	249.5
172.53501	332
176.84895	456.7
181.15975	647.1
185.46741	888
189.77193	1226.7
194.07331	1642.7
198.37157	2135.2
202.6667	2639.8
206.9587	3165
211.24758	3675.5
215.53334	4193.2
219.81599	4760.8
224.09553	5395.9
228.37195	6070.3
232.64527	6809.1
236.91549	7556.9
241.18261	8241.3
245.44663	8834.9
249.70755	9339.5
253.96539	9725.7
258.22014	10014.8
262.4718	10265.8
266.72039	10402
270.96589	10435.9
275.20832	10358.2
279.44768	10175.6
283.68397	9976.6
287.91719	9801.4
292.14735	9733.6
296.37445	9797.7
300.59849	9921.3
304.81948	10156.1
309.03742	10386.5
313.25231	10488.3
317.46415	10368.7
321.67296	10046.6
325.87872	9707.7
330.08145	9488.1
334.28114	9419.3
338.47781	9457.7
342.67145	9596.9
346.86207	9795.5
351.04966	10050.2
355.23424	10296.3
359.4158	10513.2
363.59435	10572.8
367.76989	10579.6
371.94243	10506.3
376.11196	10468
380.27849	10451.9
384.44203	10471.2
388.60257	10546.6
392.76012	10621.2
396.91468	10790
401.06626	11008.8
405.21485	11181.6
409.36047	11109.3
413.50311	10829.3
417.64277	10676.3
421.77947	10608.4
425.9132	10624.7
430.04396	10658.9
434.17176	10663.5
438.2966	10747
442.41849	11014.9
446.53742	11506
450.6534	12000.6
454.76644	12202
458.87653	12020.4
462.98368	11674.2
467.08789	11327
471.18916	10995.1
475.2875	10656.7
479.38291	10373.3
483.4754	10227.4
487.56496	10119.6
491.6516	10047.1
495.73531	9981.7
499.81612	9985.6
503.89401	10074.3
507.96899	10094.7
512.04106	10011.6
516.11023	9957.2
520.1765	9891.3
524.23987	9910.5
528.30034	9952.2
532.35792	9895.1
536.41261	9700.1
540.46441	9420.7
544.51333	9236.5
548.55936	9309.8
552.60252	9613.9
556.64279	10018
560.6802	10321.2
564.71473	10374.2
568.7464	10448.5
572.7752	10761.6
576.80114	11028
580.82422	11407.5
584.84444	12154
588.86181	13274.3
592.87633	14520.8
596.888	14866.2
600.89682	13824.7
604.9028	12970.1
608.90594	14020
612.90624	15945.7
616.90371	15130.9
620.89834	11611
624.89015	9856.4
628.87913	9583
632.86528	9694.4
636.84862	9737.2
640.82913	9530
644.80683	9194.9
648.78172	8966
652.75379	8952.1
656.72306	9124.1
660.68952	9353.7
664.65319	9260
668.61405	8942.7
672.57211	8895.7
676.52738	9003.2
680.47986	9048.4
684.42955	8911.7
688.37646	8771.4
692.32058	8725.7
696.26192	8846.6
700.20048	9033.9
704.13626	9129.6
708.06928	9122.4
711.99952	9048.1
715.927	9080.2
719.85171	9144.8
723.77365	9115.6
727.69284	8954.8
731.60928	8797.9
735.52295	8774.3
739.43388	8806.9
743.34206	8841.5
747.24749	8925.3
751.15017	9066.3
755.05012	9224.8
758.94733	9591.6
762.8418	10369
766.73354	11705.2
770.62254	12966.7
774.50882	13265.7
778.39237	12516.5
782.27321	11300
786.15132	10169.4
790.02671	9370.4
793.89938	8999.4
797.76935	8855
801.6366	8779.9
805.50115	8727.6
809.36299	8663
813.22213	8517.7
817.07857	8439.9
820.93231	8366.7
824.78336	8302.5
828.63172	8310.6
832.47738	8315.9
836.32036	8323.6
840.16066	8340.9
843.99827	8374.3
847.8332	8342
851.66546	8264.3
855.49504	8278
859.32195	8260
863.1462	8218.7
866.96777	8169.5
870.78668	8157.7
874.60293	8164.4
878.41652	8187.7
882.22745	8241.5
886.03573	8302.3
889.84136	8299.8
893.64433	8249.4
897.44466	8243.6
901.24235	8225.8
905.0374	8144.9
908.8298	8103.1
912.61957	8070
916.40671	8123.5
920.19121	8241.9
923.97308	8413.6
927.75233	8615.1
931.52895	8643
935.30295	8479.1
939.07433	8175.8
942.84309	7951.9
946.60924	7821.6
950.37278	7745.7
954.13371	7729.7
957.89203	7691.9
961.64774	7693.4
965.40086	7671.8
969.15137	7667
972.89929	7612.9
976.64461	7586.1
980.38733	7568.5
984.12747	7589.6
987.86502	7620.6
991.59999	7732.3
995.33237	7873.8
999.06217	8145.2
1002.78939	8456.6
1006.51404	8742.5
1010.23611	8950
1013.95561	9088.5
1017.67255	9190
1021.38692	9090.2
1025.09872	8828.7
1028.80796	8655.5
1032.51465	8785.7
1036.21877	8978
1039.92035	9087.4
1043.61937	9055.6
1047.31584	8906.5
1051.00976	8710.8
1054.70114	8585.3
1058.38998	8491.7
1062.07627	8509
1065.76003	8540.2
1069.44126	8632.6
1073.11995	8848.7
1076.79611	9057.8
1080.46974	9188.8
1084.14085	9308.4
1087.80943	9502.7
1091.47549	9614.9
1095.13903	9569.7
1098.80005	9284.2
1102.45857	8925.6
1106.11456	8683.2
1109.76805	8612.9
1113.41903	8683.9
1117.06751	8819.2
1120.71348	9046.1
1124.35696	9309.2
1127.99793	9569.1
1131.63641	9669.1
1135.2724	9515.1
1138.90589	9315.9
1142.5369	9246
1146.16542	9242.5
1149.79145	9264.7
1153.415	9313
1157.03607	9443.5
1160.65467	9783.4
1164.27079	10391.6
1167.88443	11267.4
1171.49561	12340.8
1175.10432	13824.3
1178.71056	15687.3
1182.31434	17279.7
1185.91565	17817.2
1189.51451	17226.3
1193.11091	16115.7
1196.70485	14924.1
1200.29634	13860.1
1203.88538	12973
1207.47197	12328.5
1211.05612	11814.5
1214.63782	11473.4
1218.21708	11315.8
1221.79391	11367.3
1225.36829	11574.8
1228.94024	11639
1232.50976	11402.2
1236.07685	11024
1239.6415	10713.8
1243.20374	10573.1
1246.76355	10583
1250.32093	10729.7
1253.8759	10992.7
1257.42845	11421.3
1260.97859	11923.3
1264.52631	12445.6
1268.07163	12952.6
1271.61453	13450
1275.15503	13894.6
1278.69312	14372.5
1282.22882	14902.2
1285.76211	15614.6
1289.29301	16492.1
1292.82151	17414.2
1296.34761	18439
1299.87133	19774.2
1303.39266	21367
1306.9116	23263.2
1310.42815	25191.9
1313.94233	26607.4
1317.45412	26435
1320.96354	24941.8
1324.47058	23201.9
1327.97525	21729.4
1331.47754	20671.4
1334.97747	19929.3
1338.47502	19323.5
1341.97022	18769.2
1345.46305	18475.4
1348.95352	18706
1352.44163	19709.2
1355.92738	21471.6
1359.41078	23961.6
1362.89183	26126.2
1366.37053	26322.6
1369.84688	23684.1
1373.32088	19812
1376.79254	17016.8
1380.26186	15828.2
1383.72883	15389.2
1387.19347	14959.2
1390.65578	14406
1394.11575	14206.5
1397.57339	14425.2
1401.0287	14764.1
1404.48168	15001.2
1407.93234	15013.8
1411.38068	14818.6
1414.82669	14522.2
1418.27039	14154.8
1421.71177	13650.9
1425.15083	13117
1428.58758	12832.6
1432.02203	12982.8
1435.45416	13388.9
1438.88399	13771.8
1442.31151	13950.8
1445.73673	14044.3
1449.15965	14120.9
1452.58027	14001.2
1455.9986	13765
1459.41463	13641.7
1462.82837	13826.5
1466.23982	14269.3
1469.64898	14734.4
1473.05586	15035.6
1476.46045	15267.2
1479.86276	15393.7
1483.26279	15472.3
1486.66054	15671.7
1490.05602	16023.3
1493.44922	16511.5
1496.84016	17007.2
1500.22882	17726.5
1503.61521	18742.5
1506.99934	19972.6
1510.38121	21037.9
1513.76081	21244.9
1517.13816	20279.9
1520.51324	18542.2
1523.88607	17025.3
1527.25665	16036.9
1530.62498	15631.8
1533.99105	15338.1
1537.35488	15015.7
1540.71647	14548.5
1544.07581	14070.6
1547.4329	13563.2
1550.78776	13107.3
1554.14038	12788.6
1557.49077	12586.6
1560.83892	12573.9
1564.18484	12721.4
1567.52853	12988.7
1570.86999	13321.3
1574.20922	13598.8
1577.54624	13741.9
1580.88103	13550.8
1584.2136	13214
1587.54395	13326.4
1590.87208	14078.7
1594.19801	15378
1597.52172	16894.3
1600.84321	17739.5
1604.16251	17198.4
1607.47959	15609.2
1610.79447	13635.5
1614.10715	11902.8
1617.41763	10665.5
1620.7259	9934.6
1624.03199	9597.2
1627.33587	9638.7
1630.63757	10034.3
1633.93707	10826.9
1637.23439	12256
1640.52951	14647
1643.82246	17821.2
1647.11321	20836.4
1650.40179	22005.4
1653.68819	20324
1656.97241	16805.4
1660.25446	13348.3
1663.53433	10927.1
1666.81203	9478.2
1670.08756	8652.3
1673.36092	8155.5
1676.63211	7860.7
1679.90115	7637.4
1683.16801	7463.3
1686.43272	7356.3
1689.69527	7278.7
1692.95567	7217.3
1696.2139	7174.1
1699.46999	7145.3
1702.72392	7122.9
1705.97571	7081.5
1709.22535	7061.5
1712.47284	7027.8
1715.71819	7007.7
1718.96139	7001
1722.20246	6964.6
1725.44139	6921.2
1728.67818	6886.5
1731.91284	6833.2
1735.14537	6773.7
1738.37576	6757.7
1741.60403	6727.8
1744.83017	6726.4
1748.05418	6716.9
1751.27607	6747
1754.49584	6740.7
1757.71349	6764.8
1760.92903	6750.6
1764.14244	6707.2
1767.35375	6663.9
1770.56294	6630.4
1773.77002	6571.2
1776.97499	6542.3
1780.17785	6498
1783.37861	6481.7
1786.57727	6453.3
1789.77382	6420
1792.96828	6417.1
1796.16064	6376.2
1799.3509	6366.9
1802.53907	6352.3
1805.72514	6330.6
1808.90913	6317.5
1812.09102	6283
1815.27083	6281.2
1818.44856	6275.6
1821.6242	6264.2
1824.79776	6236.2
1827.96924	6271.9
1831.13864	6223.9
1834.30597	6242.6
1837.47122	6250.5
1840.6344	6246.9
1843.7955	6233.8
1846.95454	6244.7
1850.11151	6244.2
1853.26642	6237.6
1856.41926	6217.4
1859.57004	6251.1
1862.71876	6233.6
1865.86542	6225
1869.01003	6219.3
1872.15258	6205.5
1875.29308	6192.1
1878.43152	6207.1
1881.56792	6193.5
1884.70227	6171.1
1887.83457	6182.2
1890.96482	6168
1894.09304	6166.8
1897.21921	6143.8
1900.34335	6145.5
1903.46544	6139.6
1906.58551	6129.3
1909.70353	6114.9
1912.81953	6095.7
1915.93349	6078.5
1919.04543	6067.7
1922.15534	6068.3
1925.26322	6030.4
1928.36908	6017.8
1931.47292	5991.4
1934.57473	5969.4
1937.67453	5963.8
1940.77232	5935.7
1943.86808	5912.9
1946.96184	5908.3
1950.05358	5870.4
1953.14331	5890.6
1956.23103	5859.4
1959.31675	5833
1962.40046	5842.4
1965.48217	5803.2
1968.56188	5796.5
1971.63959	5766.4
1974.7153	5757.9
1977.78901	5726.5
1980.86073	5705.9
1983.93046	5704.7
1986.99819	5680.7
1990.06394	5664.6
1993.1277	5646.9
1996.18947	5625.6
1999.24925	5613.5
2002.30706	5585.7
2005.36288	5573.6
2008.41672	5546.5
2011.46859	5543.7
2014.51848	5532.5
2017.56639	5514.6
2020.61233	5495.5
2023.6563	5487.2
2026.6983	5483.9
2029.73833	5475.6
2032.7764	5457.8
2035.8125	5452.3
2038.84664	5448
2041.87881	5439.6
2044.90903	5437.8
2047.93729	5427.7
2050.96359	5424
2053.98794	5424.7
2057.01034	5420.6
2060.03078	5397.7
2063.04927	5392.6
2066.06582	5389.6
2069.08042	5371.2
2072.09307	5371.5
2075.10378	5385.5
2078.11255	5372.8
2081.11938	5385.9
2084.12426	5386.9
2087.12722	5382.4
2090.12824	5373.6
2093.12732	5364.5
2096.12447	5362.9
2099.11969	5375.7
2102.11299	5369.3
2105.10435	5363.9
2108.09379	5380.4
2111.08131	5392.1
2114.0669	5357.2
2117.05057	5386.5
2120.03233	5379.2
2123.01216	5389.1
2125.99008	5382.5
2128.96609	5425.7
2131.94018	5392.3
2134.91236	5415.7
2137.88263	5394
2140.851	5399.6
2143.81746	5386.7
2146.78201	5394.8
2149.74466	5387.5
2152.7054	5393.2
2155.66425	5394.3
2158.6212	5387.7
2161.57625	5394.8
2164.52941	5382.6
2167.48067	5374.1
2170.43004	5396.8
2173.37752	5379.8
2176.32311	5377
2179.26681	5391.2
2182.20863	5386.9
2185.14856	5398.6
2188.08661	5397.1
2191.02278	5397.7
2193.95707	5388.4
2196.88948	5379.4
2199.82001	5389.9
2202.74867	5381.6
2205.67545	5371.9
2208.60037	5362.6
2211.52341	5351.6
2214.44458	5363.2
2217.36388	5355.6
2220.28132	5335.9
2223.1969	5327.4
2226.11061	5312.7
2229.02246	5308.4
2231.93245	5305.5
2234.84058	5321.5
2237.74686	5293.6
2240.65128	5313.7
2243.55385	5280.8
2246.45456	5286.5
2249.35343	5260.9
2252.25044	5264
2255.14561	5261.6
2258.03893	5265.1
2260.93041	5237.5
2263.82004	5250.8
2266.70783	5212.4
2269.59378	5217.1
2272.4779	5178.9
2275.36017	5183.3
2278.24061	5182.6
2281.11922	5163.1
2283.996	5158.3
2286.87094	5141.8
2289.74405	5149.9
2292.61534	5124.9
2295.4848	5129
2298.35243	5132.4
2301.21824	5120.2
2304.08223	5131.7
2306.94439	5126.6
2309.80474	5137.5
2312.66327	5116.2
2315.51999	5116.7
2318.37489	5131.1
2321.22797	5117.7
2324.07925	5126.3
2326.92871	5102.3
2329.77637	5114.7
2332.62222	5102.1
2335.46626	5118.3
2338.3085	5109.3
2341.14893	5094.8
2343.98756	5105.3
2346.8244	5120.5
2349.65943	5116.9
2352.49267	5117
2355.32411	5111.5
2358.15376	5122.1
2360.98161	5115.6
2363.80768	5117.2
2366.63195	5122.4
2369.45444	5117.9
2372.27514	5110.8
2375.09405	5084.1
2377.91118	5083.4
2380.72652	5072
2383.54009	5061.2
2386.35187	5045.4
2389.16188	5034.3
2391.97011	5010.3
2394.77657	5016
2397.58125	5007.8
2400.38416	5005.9
2403.18529	4985.2
2405.98466	4984.7
2408.78226	4977.3
2411.57809	4967.5
2414.37216	4971.2
2417.16446	4951.7
2419.955	4953.9
2422.74378	4953
2425.5308	4955
2428.31606	4956.2
2431.09956	4941
2433.88131	4953.9
2436.6613	4955.5
2439.43954	4963.3
2442.21603	4941.3
2444.99077	4955.6
2447.76377	4943.9
2450.53501	4960.5
2453.30451	4962.5
2456.07226	4943.4
2458.83827	4942.4
2461.60254	4943.6
2464.36507	4958.2
2467.12586	4959
2469.88492	4958.2
2472.64224	4954.1
2475.39782	4981.4
2478.15167	4971
2480.90379	4961.5
2483.65417	4987.9
2486.40283	4961.9
2489.14976	4988.1
2491.89497	4980.5
2494.63845	4999.1
2497.3802	5015.9
2500.12024	4986.7
2502.85855	4994.6
2505.59514	4987.6
2508.33002	4962.9
2511.06318	4950.5
2513.79462	4939.2
2516.52435	4928.8
2519.25237	4933.1
2521.97867	4920
2524.70327	4915.2
2527.42616	4903.7
2530.14734	4906.6
2532.86681	4895.5
2535.58458	4901.2
2538.30065	4881.2
2541.01501	4903.8
2543.72768	4891.3
2546.43864	4895.4
2549.14791	4886
2551.85548	4893.2
2554.56136	4886
2557.26554	4883
2559.96803	4884
2562.66883	4878.9
2565.36794	4893.8
2568.06536	4884
2570.7611	4874.8
2573.45514	4880.7
2576.14751	4881.4
2578.83819	4890.3
2581.52719	4869.6
2584.21451	4885.3
2586.90015	4863.3
2589.58411	4857.9
2592.2664	4856.2
2594.94701	4849.8
2597.62594	4854.1
2600.30321	4828.4
2602.9788	4846.7
2605.65273	4816.2
2608.32498	4848.2
2610.99557	4834.4
2613.66449	4844.3
2616.33175	4832.7
2618.99734	4845
2621.66128	4845
2624.32355	4825.9
2626.98416	4833.1
2629.64311	4821.7
2632.30041	4824.1
2634.95605	4830
2637.61004	4811.2
2640.26238	4803.3
2642.91306	4807.1
2645.56209	4811.1
2648.20948	4793.1
2650.85521	4801.9
2653.4993	4802.5
2656.14175	4801.5
2658.78255	4799.2
2661.42171	4816.6
2664.05923	4830.6
2666.6951	4827.4
2669.32934	4837.2
2671.96194	4834
2674.59291	4831.6
2677.22224	4833.5
2679.84993	4839.4
2682.476	4831
2685.10043	4819.9
2687.72324	4809.4
2690.34441	4811.6
2692.96396	4808
2695.58188	4831.1
2698.19818	4819.1
2700.81285	4827.6
2703.4259	4836.1
2706.03733	4889.7
2708.64714	4870.2
2711.25533	4853.3
2713.86191	4862.2
2716.46687	4855.2
2719.07021	4858.6
2721.67194	4864.3
2724.27206	4845.6
2726.87057	4854
2729.46747	4865.7
2732.06276	4863.9
2734.65644	4868.5
2737.24852	4871.1
2739.83899	4854.4
2742.42786	4866.5
2745.01513	4863.1
2747.60079	4860.7
2750.18486	4836.9
2752.76733	4850.4
2755.3482	4843.8
2757.92747	4843.2
2760.50515	4834.4
2763.08123	4853.9
2765.65573	4836.7
2768.22863	4859.2
2770.79994	4849.8
2773.36967	4848.9
2775.9378	4836.2
2778.50435	4833.9
2781.06932	4833.8
2783.6327	4839.6
2786.1945	4833
2788.75471	4846.6
2791.31335	4838.2
2793.87041	4837.5
2796.42589	4809.9
2798.97979	4826.1
2801.53212	4820.1
2804.08288	4811.3
2806.63206	4828
2809.17967	4812.8
2811.72571	4805.8
2814.27018	4815
2816.81308	4813.2
2819.35442	4815.3
2821.89419	4804.8
2824.43239	4805.5
2826.96904	4818.9
2829.50412	4830.4
2832.03763	4820.6
2834.56959	4814.9
2837.1	4832.5
2839.62884	4827.9
2842.15613	4829.1
2844.68186	4835.4
2847.20604	4864.5
2849.72867	4873.1
2852.24974	4869.8
2854.76927	4881
2857.28724	4902.9
2859.80367	4869.9
2862.31855	4875.5
2864.83189	4867.4
2867.34368	4863
2869.85393	4852.2
2872.36264	4872.6
2874.8698	4876.2
2877.37543	4867.6
2879.87952	4868.9
2882.38207	4879.7
2884.88308	4891.7
2887.38256	4892.7
2889.88051	4904.6
2892.37692	4907.9
2894.8718	4924.5
2897.36515	4927.6
2899.85698	4920
2902.34727	4938.8
2904.83604	4961.9
2907.32328	4961.2
2909.809	4963.1
2912.29319	4982.5
2914.77587	4983.3
2917.25702	4994.6
2919.73665	4993
2922.21476	4999.4
2924.69136	4991.4
2927.16644	5036.9
2929.64	5000.5
2932.11205	4987.8
2934.58258	4998.6
2937.05161	4997.8
2939.51912	5002.7
2941.98513	4992.3
2944.44962	4988
2946.91261	4973.5
2949.37409	4980.6
2951.83407	4958.2
2954.29254	4954
2956.74951	4932.7
2959.20498	4918.1
2961.65895	4902.5
2964.11142	4888
2966.56239	4865.1
2969.01186	4851.9
2971.45984	4832.8
2973.90632	4810.7
2976.35131	4782.4
2978.7948	4787.9
2981.23681	4778
2983.67732	4748.1
2986.11635	4739.5
2988.55388	4729.3
2990.98993	4713.3
2993.4245	4690.1
2995.85758	4698.7
2998.28917	4684.2
3000.71928	4713.4
3003.14791	4680
3005.57506	4694.9
3008.00073	4684.5
3010.42493	4682
3012.84764	4664.4
3015.26888	4671
3017.68865	4657.5
3020.10694	4639.1
3022.52376	4627
3024.9391	4629
3027.35298	4612.4
3029.76539	4587.1
3032.17632	4587.8
3034.5858	4585.9
3036.9938	4573
3039.40034	4576.2
3041.80542	4572.2
3044.20903	4540.8
3046.61118	4540
3049.01187	4534.4
3051.4111	4534.1
3053.80888	4544.5
3056.20519	4527.9
3058.60005	4532.4
3060.99345	4517.1
3063.3854	4506.2
3065.7759	4513.5
3068.16494	4509.7
3070.55254	4485.2
3072.93868	4477.2
3075.32338	4458.3
3077.70662	4461.2
3080.08842	4446.7
3082.46878	4452.1
3084.84769	4439.4
3087.22515	4431
3089.60118	4443.3
3091.97576	4450.9
3094.3489	4451.2
3096.72061	4460.7
3099.09087	4450.9
3101.4597	4448
3103.82709	4458.8
3106.19305	4431.2
3108.55757	4421.4
3110.92066	4427.6
3113.28232	4437.7
3115.64255	4426.2
3118.00134	4411.3
3120.35871	4408.2
3122.71466	4393.6
3125.06917	4414.4
3127.42226	4395.2
3129.77393	4405.8
3132.12417	4395.6
3134.47299	4415.8
3136.82039	4411.9
3139.16636	4414.2
3141.51092	4410.8
3143.85406	4411.8
3146.19579	4430.4
3148.53609	4422.1
3150.87499	4427
3153.21246	4407.1
3155.54853	4446.6
3157.88318	4445.3
3160.21642	4434.7
3162.54826	4432.9
3164.87868	4455.9
3167.2077	4424
3169.5353	4438.3
3171.86151	4436.7
3174.18631	4455.3
3176.5097	4440
3178.83169	4444.6
3181.15228	4445.8
3183.47147	4434.4
3185.78926	4442.6
3188.10565	4447.9
3190.42065	4452.7
3192.73424	4449
3195.04645	4444.6
3197.35725	4459.3
3199.66667	4451
3201.97469	4458.7
3204.28132	4460.7
3206.58656	4465.3
3208.8904	4464.2
3211.19287	4461.3
3213.49394	4465.3
3215.79363	4453.1
3218.09193	4471.1
3220.38884	4479.8
3222.68438	4500.2
3224.97853	4486.8
3227.2713	4479.3
3229.56269	4486.9
3231.8527	4487.7
3234.14133	4475.8
3236.42858	4460.9
3238.71446	4476.1
3240.99896	4458.4
3243.28209	4462.3
3245.56384	4458.1
3247.84423	4474.3
3250.12324	4459.1
3252.40088	4457
3254.67715	4459.9
3256.95205	4442
3259.22558	4426.9
3261.49775	4432.9
3263.76855	4415.7
3266.03799	4415.1
3268.30606	4418
3270.57277	4392
3272.83812	4397.4
3275.10211	4389.8
3277.36474	4387.9
3279.62601	4392.3
3281.88593	4399.2
3284.14448	4398.6
3286.40168	4408
3288.65753	4391.8
3290.91202	4396.5
3293.16516	4388.2
3295.41695	4389.5
3297.66738	4373.5
3299.91647	4345
3302.16421	4320.3
3304.4106	4292.2
3306.65564	4286.2
3308.89933	4256.4
3311.14169	4247.9
3313.38269	4207.1
3315.62236	4190.2
3317.86068	4141.5
3320.09766	4127.9
3322.3333	4099.3
3324.5676	4092.5
3326.80056	4039.4
3329.03219	4017.1
3331.26248	2.3
3333.49143	-0.3
3335.71905	-0.5
