Data from AgNPs_FTO_APTES_UA_20um_CRN_0.1mM_R6G_10uM_NaF_0.1M_Addition_RamanShift__24__14-44-19-200.txt Node

Date: Tue Dec 21 14:44:19 GMT 2021
User: TCL
Spectrometer: QEP01345
Trigger mode: 4
Integration Time (sec): 7.000000E0
Scans to average: 10
Electric dark correction enabled: true
Nonlinearity correction enabled: false
Boxcar width: 0
XAxis mode: Raman Shifts
Number of Pixels in Spectrum: 1044
>>>>>Begin Spectral Data<<<<<
46.04893	-0.7125
50.45542	-0.6125
54.85868	-1.0125
59.25871	0.5875
63.6555	47.3875
68.04907	53.9875
72.43941	52.3875
76.82654	57.8875
81.21044	65.2875
85.59113	62.8875
89.96862	66.6875
94.34289	65.6875
98.71396	68.2875
103.08183	73.2875
107.4465	78.3875
111.80798	78.6875
116.16626	77.1875
120.52136	81.5875
124.87327	84.1875
129.222	84.9875
133.56755	92.2875
137.90993	101.0875
142.24913	109.8875
146.58517	122.8875
150.91804	135.3875
155.24774	163.7875
159.57429	198.9875
163.89768	257.4875
168.21792	335.8875
172.53501	445.7875
176.84895	622.8875
181.15975	875.0875
185.46741	1213.4875
189.77193	1672.9875
194.07331	2249.0875
198.37157	2916.8875
202.6667	3609.6875
206.9587	4321.0875
211.24758	4982.0875
215.53334	5684.3875
219.81599	6435.2875
224.09553	7263.8875
228.37195	8218.8875
232.64527	9219.3875
236.91549	10281.8875
241.18261	11333.8875
245.44663	12276.3875
249.70755	13077.6875
253.96539	13794.7875
258.22014	14392.5875
262.4718	14851.4875
266.72039	15208.2875
270.96589	15373.2875
275.20832	15437.5875
279.44768	15279.3875
283.68397	15139.2875
287.91719	15009.1875
292.14735	14972.9875
296.37445	15118.5875
300.59849	15334.7875
304.81948	15551.9875
309.03742	15660.1875
313.25231	15451.7875
317.46415	14886.6875
321.67296	14142.3875
325.87872	13557.0875
330.08145	13259.0875
334.28114	13255.8875
338.47781	13408.2875
342.67145	13716.8875
346.86207	14054.7875
351.04966	14578.2875
355.23424	15110.7875
359.4158	15609.3875
363.59435	15903.0875
367.76989	16082.4875
371.94243	16133.9875
376.11196	16162.1875
380.27849	16197.0875
384.44203	16229.5875
388.60257	16199.7875
392.76012	16237.3875
396.91468	16376.0875
401.06626	16678.7875
405.21485	16919.5875
409.36047	16799.8875
413.50311	16295.2875
417.64277	15787.4875
421.77947	15529.2875
425.9132	15435.9875
430.04396	15522.7875
434.17176	15592.4875
438.2966	15801.7875
442.41849	16140.7875
446.53742	16579.8875
450.6534	17070.2875
454.76644	17426.6875
458.87653	17566.2875
462.98368	17443.1875
467.08789	17253.3875
471.18916	17008.3875
475.2875	16816.1875
479.38291	16686.7875
483.4754	16543.3875
487.56496	16287.0875
491.6516	16021.0875
495.73531	15813.3875
499.81612	15717.9875
503.89401	15777.2875
507.96899	15838.8875
512.04106	15894.5875
516.11023	15933.8875
520.1765	15935.7875
524.23987	15881.3875
528.30034	15756.6875
532.35792	15612.4875
536.41261	15421.8875
540.46441	15169.2875
544.51333	15030.6875
548.55936	15088.8875
552.60252	15345.3875
556.64279	15682.6875
560.6802	15913.9875
564.71473	16105.4875
568.7464	16470.9875
572.7752	16814.2875
576.80114	16718.9875
580.82422	16515.2875
584.84444	16460.9875
588.86181	16578.6875
592.87633	16826.7875
596.888	17028.1875
600.89682	17268.7875
604.9028	18238.4875
608.90594	21053.7875
612.90624	24691.3875
616.90371	23771.4875
620.89834	18507.9875
624.89015	15952.8875
628.87913	15563.5875
632.86528	15673.7875
636.84862	15822.8875
640.82913	15631.2875
644.80683	15091.3875
648.78172	14601.2875
652.75379	14485.7875
656.72306	14733.1875
660.68952	15207.1875
664.65319	15194.6875
668.61405	14865.6875
672.57211	14733.7875
676.52738	14784.9875
680.47986	14771.8875
684.42955	14654.7875
688.37646	14506.6875
692.32058	14473.4875
696.26192	14508.1875
700.20048	14676.8875
704.13626	14749.3875
708.06928	14732.5875
711.99952	14599.7875
715.927	14494.8875
719.85171	14496.1875
723.77365	14492.5875
727.69284	14442.6875
731.60928	14361.9875
735.52295	14334.7875
739.43388	14385.2875
743.34206	14424.2875
747.24749	14476.8875
751.15017	14537.9875
755.05012	14720.5875
758.94733	15222.2875
762.8418	16224.2875
766.73354	18015.8875
770.62254	20000.1875
774.50882	20985.4875
778.39237	20185.8875
782.27321	18083.0875
786.15132	16131.7875
790.02671	14937.8875
793.89938	14370.8875
797.76935	14129.8875
801.6366	14071.5875
805.50115	14036.7875
809.36299	14010.0875
813.22213	13955.4875
817.07857	13950.5875
820.93231	13862.7875
824.78336	13818.7875
828.63172	13785.8875
832.47738	13747.4875
836.32036	13737.4875
840.16066	13706.7875
843.99827	13695.3875
847.8332	13648.0875
851.66546	13590.3875
855.49504	13578.6875
859.32195	13579.0875
863.1462	13570.6875
866.96777	13560.8875
870.78668	13539.1875
874.60293	13539.2875
878.41652	13542.4875
882.22745	13596.8875
886.03573	13651.5875
889.84136	13649.9875
893.64433	13551.8875
897.44466	13460.3875
901.24235	13392.7875
905.0374	13272.4875
908.8298	13237.6875
912.61957	13210.8875
916.40671	13256.1875
920.19121	13439.8875
923.97308	13504.6875
927.75233	13616.6875
931.52895	13609.2875
935.30295	13486.0875
939.07433	13228.5875
942.84309	12977.7875
946.60924	12854.4875
950.37278	12780.0875
954.13371	12696.4875
957.89203	12680.9875
961.64774	12603.9875
965.40086	12566.1875
969.15137	12484.0875
972.89929	12425.6875
976.64461	12373.7875
980.38733	12338.1875
984.12747	12357.7875
987.86502	12461.4875
991.59999	12569.8875
995.33237	12722.7875
999.06217	13038.0875
1002.78939	13458.5875
1006.51404	13785.6875
1010.23611	14070.8875
1013.95561	14256.0875
1017.67255	14274.1875
1021.38692	14127.2875
1025.09872	13885.7875
1028.80796	13783.7875
1032.51465	13946.7875
1036.21877	14129.9875
1039.92035	14232.8875
1043.61937	14142.9875
1047.31584	13950.8875
1051.00976	13755.4875
1054.70114	13609.1875
1058.38998	13575.6875
1062.07627	13625.0875
1065.76003	13730.8875
1069.44126	13756.2875
1073.11995	13856.6875
1076.79611	13964.4875
1080.46974	14060.0875
1084.14085	14227.4875
1087.80943	14440.8875
1091.47549	14547.1875
1095.13903	14500.8875
1098.80005	14228.9875
1102.45857	13898.4875
1106.11456	13741.1875
1109.76805	13750.0875
1113.41903	13904.1875
1117.06751	14200.4875
1120.71348	14547.5875
1124.35696	14959.1875
1127.99793	15351.4875
1131.63641	15454.6875
1135.2724	15179.4875
1138.90589	14799.2875
1142.5369	14520.8875
1146.16542	14291.1875
1149.79145	14152.1875
1153.415	14176.0875
1157.03607	14263.8875
1160.65467	14492.0875
1164.27079	14948.9875
1167.88443	15664.0875
1171.49561	16627.6875
1175.10432	18138.1875
1178.71056	20115.6875
1182.31434	21929.5875
1185.91565	22769.7875
1189.51451	22538.8875
1193.11091	21659.2875
1196.70485	20482.9875
1200.29634	19475.6875
1203.88538	18646.5875
1207.47197	17887.2875
1211.05612	17198.1875
1214.63782	16743.1875
1218.21708	16509.0875
1221.79391	16428.9875
1225.36829	16359.8875
1228.94024	16215.6875
1232.50976	15994.9875
1236.07685	15816.9875
1239.6415	15803.3875
1243.20374	15808.2875
1246.76355	15928.1875
1250.32093	16146.1875
1253.8759	16486.8875
1257.42845	16972.9875
1260.97859	17410.5875
1264.52631	17807.5875
1268.07163	18210.1875
1271.61453	18695.4875
1275.15503	19134.4875
1278.69312	19535.0875
1282.22882	19889.0875
1285.76211	20333.1875
1289.29301	20906.7875
1292.82151	21685.2875
1296.34761	22635.3875
1299.87133	23816.1875
1303.39266	25468.0875
1306.9116	27526.6875
1310.42815	29700.4875
1313.94233	30979.9875
1317.45412	30800.2875
1320.96354	29641.9875
1324.47058	28313.1875
1327.97525	27148.1875
1331.47754	26368.2875
1334.97747	26093.9875
1338.47502	26253.8875
1341.97022	26572.0875
1345.46305	26846.8875
1348.95352	27082.9875
1352.44163	27658.8875
1355.92738	28942.9875
1359.41078	31102.5875
1362.89183	33270.1875
1366.37053	32578.3875
1369.84688	28939.1875
1373.32088	25024.0875
1376.79254	22400.8875
1380.26186	21120.4875
1383.72883	20626.3875
1387.19347	20355.9875
1390.65578	20105.4875
1394.11575	19995.7875
1397.57339	20231.6875
1401.0287	20697.3875
1404.48168	21154.8875
1407.93234	21480.3875
1411.38068	21527.6875
1414.82669	21193.2875
1418.27039	20495.5875
1421.71177	19559.3875
1425.15083	18775.5875
1428.58758	18290.7875
1432.02203	18196.1875
1435.45416	18363.3875
1438.88399	18568.2875
1442.31151	18782.2875
1445.73673	19045.9875
1449.15965	19337.2875
1452.58027	19612.5875
1455.9986	19730.4875
1459.41463	19898.1875
1462.82837	20209.2875
1466.23982	20627.9875
1469.64898	20965.6875
1473.05586	21136.5875
1476.46045	21182.1875
1479.86276	21133.3875
1483.26279	21138.4875
1486.66054	21204.8875
1490.05602	21476.6875
1493.44922	21830.1875
1496.84016	22333.2875
1500.22882	23239.3875
1503.61521	24694.1875
1506.99934	26542.3875
1510.38121	28200.6875
1513.76081	28753.1875
1517.13816	27628.7875
1520.51324	25354.5875
1523.88607	23175.4875
1527.25665	21715.3875
1530.62498	20913.7875
1533.99105	20554.8875
1537.35488	20321.7875
1540.71647	20154.3875
1544.07581	20002.6875
1547.4329	19843.7875
1550.78776	19678.3875
1554.14038	19529.4875
1557.49077	19563.8875
1560.83892	19688.3875
1564.18484	19887.5875
1567.52853	20143.1875
1570.86999	20310.5875
1574.20922	20456.0875
1577.54624	20492.5875
1580.88103	20129.1875
1584.2136	19590.8875
1587.54395	19523.8875
1590.87208	20128.8875
1594.19801	21313.7875
1597.52172	22728.8875
1600.84321	23501.3875
1604.16251	22892.6875
1607.47959	21366.6875
1610.79447	19563.9875
1614.10715	17818.7875
1617.41763	16460.5875
1620.7259	15542.5875
1624.03199	15068.3875
1627.33587	14988.2875
1630.63757	15329.9875
1633.93707	16053.9875
1637.23439	17251.7875
1640.52951	18976.3875
1643.82246	21121.0875
1647.11321	23266.1875
1650.40179	24383.0875
1653.68819	23547.0875
1656.97241	20878.3875
1660.25446	17903.0875
1663.53433	15593.2875
1666.81203	14179.0875
1670.08756	13276.4875
1673.36092	12713.6875
1676.63211	12335.3875
1679.90115	12040.7875
1683.16801	11854.6875
1686.43272	11699.1875
1689.69527	11557.5875
1692.95567	11465.8875
1696.2139	11401.1875
1699.46999	11357.8875
1702.72392	11331.7875
1705.97571	11256.6875
1709.22535	11214.3875
1712.47284	11192.1875
1715.71819	11193.7875
1718.96139	11144.5875
1722.20246	11110.0875
1725.44139	11056.2875
1728.67818	10997.8875
1731.91284	10919.6875
1735.14537	10864.8875
1738.37576	10833.0875
1741.60403	10783.4875
1744.83017	10774.1875
1748.05418	10749.4875
1751.27607	10737.6875
1754.49584	10747.5875
1757.71349	10703.0875
1760.92903	10685.5875
1764.14244	10649.2875
1767.35375	10623.5875
1770.56294	10599.8875
1773.77002	10549.9875
1776.97499	10506.9875
1780.17785	10502.4875
1783.37861	10488.2875
1786.57727	10449.1875
1789.77382	10438.4875
1792.96828	10396.5875
1796.16064	10372.5875
1799.3509	10372.0875
1802.53907	10357.2875
1805.72514	10297.7875
1808.90913	10282.0875
1812.09102	10234.9875
1815.27083	10218.5875
1818.44856	10202.0875
1821.6242	10175.8875
1824.79776	10185.8875
1827.96924	10173.4875
1831.13864	10143.6875
1834.30597	10161.1875
1837.47122	10133.9875
1840.6344	10119.8875
1843.7955	10117.1875
1846.95454	10121.3875
1850.11151	10084.7875
1853.26642	10089.1875
1856.41926	10105.9875
1859.57004	10092.9875
1862.71876	10076.2875
1865.86542	10077.1875
1869.01003	10072.3875
1872.15258	10065.7875
1875.29308	10066.9875
1878.43152	10052.4875
1881.56792	10036.1875
1884.70227	10042.2875
1887.83457	10060.9875
1890.96482	10045.8875
1894.09304	10022.6875
1897.21921	10021.7875
1900.34335	10016.8875
1903.46544	9997.3875
1906.58551	10000.4875
1909.70353	9989.0875
1912.81953	9945.4875
1915.93349	9974.2875
1919.04543	9965.2875
1922.15534	9934.4875
1925.26322	9888.9875
1928.36908	9881.9875
1931.47292	9834.7875
1934.57473	9799.8875
1937.67453	9774.4875
1940.77232	9757.8875
1943.86808	9715.1875
1946.96184	9670.9875
1950.05358	9651.4875
1953.14331	9624.8875
1956.23103	9589.5875
1959.31675	9569.6875
1962.40046	9525.1875
1965.48217	9506.2875
1968.56188	9488.4875
1971.63959	9466.6875
1974.7153	9429.3875
1977.78901	9407.2875
1980.86073	9375.4875
1983.93046	9339.6875
1986.99819	9309.0875
1990.06394	9275.3875
1993.1277	9249.1875
1996.18947	9198.0875
1999.24925	9192.7875
2002.30706	9130.9875
2005.36288	9124.0875
2008.41672	9083.8875
2011.46859	9068.6875
2014.51848	9035.7875
2017.56639	9014.2875
2020.61233	8987.0875
2023.6563	8996.4875
2026.6983	8942.3875
2029.73833	8931.3875
2032.7764	8899.2875
2035.8125	8897.5875
2038.84664	8853.4875
2041.87881	8873.4875
2044.90903	8847.4875
2047.93729	8846.8875
2050.96359	8817.1875
2053.98794	8794.8875
2057.01034	8789.1875
2060.03078	8798.5875
2063.04927	8780.0875
2066.06582	8739.5875
2069.08042	8740.4875
2072.09307	8736.4875
2075.10378	8721.2875
2078.11255	8704.1875
2081.11938	8700.5875
2084.12426	8703.1875
2087.12722	8696.9875
2090.12824	8671.0875
2093.12732	8685.4875
2096.12447	8684.8875
2099.11969	8672.8875
2102.11299	8671.7875
2105.10435	8673.1875
2108.09379	8686.3875
2111.08131	8674.7875
2114.0669	8678.1875
2117.05057	8692.5875
2120.03233	8678.2875
2123.01216	8688.8875
2125.99008	8699.6875
2128.96609	8701.0875
2131.94018	8679.6875
2134.91236	8685.1875
2137.88263	8701.3875
2140.851	8699.7875
2143.81746	8711.4875
2146.78201	8728.5875
2149.74466	8693.1875
2152.7054	8698.4875
2155.66425	8673.9875
2158.6212	8661.0875
2161.57625	8693.0875
2164.52941	8678.7875
2167.48067	8676.9875
2170.43004	8658.9875
2173.37752	8666.8875
2176.32311	8664.0875
2179.26681	8637.4875
2182.20863	8647.3875
2185.14856	8654.1875
2188.08661	8652.7875
2191.02278	8636.1875
2193.95707	8658.4875
2196.88948	8621.8875
2199.82001	8623.8875
2202.74867	8627.5875
2205.67545	8612.5875
2208.60037	8590.9875
2211.52341	8611.4875
2214.44458	8573.0875
2217.36388	8543.5875
2220.28132	8534.0875
2223.1969	8520.1875
2226.11061	8500.4875
2229.02246	8499.2875
2231.93245	8501.9875
2234.84058	8481.7875
2237.74686	8445.2875
2240.65128	8395.8875
2243.55385	8403.3875
2246.45456	8411.3875
2249.35343	8362.5875
2252.25044	8397.6875
2255.14561	8365.7875
2258.03893	8358.7875
2260.93041	8353.6875
2263.82004	8328.6875
2266.70783	8317.2875
2269.59378	8278.9875
2272.4779	8261.8875
2275.36017	8241.8875
2278.24061	8234.5875
2281.11922	8205.8875
2283.996	8196.3875
2286.87094	8202.0875
2289.74405	8165.1875
2292.61534	8158.3875
2295.4848	8137.5875
2298.35243	8151.1875
2301.21824	8117.9875
2304.08223	8121.3875
2306.94439	8121.7875
2309.80474	8114.2875
2312.66327	8129.3875
2315.51999	8136.8875
2318.37489	8123.5875
2321.22797	8092.5875
2324.07925	8096.5875
2326.92871	8082.9875
2329.77637	8093.0875
2332.62222	8059.9875
2335.46626	8082.8875
2338.3085	8056.1875
2341.14893	8045.4875
2343.98756	8043.9875
2346.8244	8053.9875
2349.65943	8063.7875
2352.49267	8063.2875
2355.32411	8070.8875
2358.15376	8066.4875
2360.98161	8028.7875
2363.80768	8050.3875
2366.63195	8044.5875
2369.45444	8029.7875
2372.27514	7997.3875
2375.09405	7997.4875
2377.91118	7971.5875
2380.72652	7942.5875
2383.54009	7932.9875
2386.35187	7907.5875
2389.16188	7874.5875
2391.97011	7847.0875
2394.77657	7844.6875
2397.58125	7851.1875
2400.38416	7835.1875
2403.18529	7797.5875
2405.98466	7802.1875
2408.78226	7750.6875
2411.57809	7758.7875
2414.37216	7750.2875
2417.16446	7726.5875
2419.955	7712.0875
2422.74378	7720.8875
2425.5308	7698.1875
2428.31606	7711.9875
2431.09956	7709.6875
2433.88131	7681.9875
2436.6613	7685.2875
2439.43954	7667.2875
2442.21603	7659.0875
2444.99077	7656.9875
2447.76377	7680.9875
2450.53501	7660.7875
2453.30451	7659.9875
2456.07226	7636.5875
2458.83827	7640.5875
2461.60254	7662.3875
2464.36507	7626.3875
2467.12586	7633.8875
2469.88492	7625.8875
2472.64224	7650.0875
2475.39782	7646.8875
2478.15167	7648.8875
2480.90379	7640.8875
2483.65417	7658.4875
2486.40283	7636.9875
2489.14976	7656.6875
2491.89497	7659.9875
2494.63845	7673.1875
2497.3802	7650.7875
2500.12024	7663.4875
2502.85855	7641.5875
2505.59514	7636.8875
2508.33002	7631.1875
2511.06318	7605.3875
2513.79462	7606.3875
2516.52435	7586.8875
2519.25237	7563.3875
2521.97867	7560.3875
2524.70327	7558.5875
2527.42616	7524.6875
2530.14734	7540.0875
2532.86681	7532.3875
2535.58458	7519.1875
2538.30065	7483.8875
2541.01501	7505.2875
2543.72768	7489.0875
2546.43864	7468.0875
2549.14791	7465.2875
2551.85548	7462.3875
2554.56136	7453.3875
2557.26554	7431.3875
2559.96803	7451.3875
2562.66883	7413.2875
2565.36794	7428.5875
2568.06536	7425.2875
2570.7611	7390.4875
2573.45514	7407.4875
2576.14751	7395.1875
2578.83819	7372.4875
2581.52719	7369.8875
2584.21451	7381.9875
2586.90015	7355.2875
2589.58411	7353.3875
2592.2664	7345.7875
2594.94701	7332.7875
2597.62594	7336.6875
2600.30321	7327.4875
2602.9788	7328.3875
2605.65273	7326.7875
2608.32498	7315.9875
2610.99557	7303.0875
2613.66449	7313.3875
2616.33175	7310.7875
2618.99734	7333.8875
2621.66128	7322.3875
2624.32355	7316.6875
2626.98416	7307.3875
2629.64311	7302.6875
2632.30041	7305.2875
2634.95605	7288.9875
2637.61004	7272.0875
2640.26238	7274.9875
2642.91306	7262.5875
2645.56209	7252.2875
2648.20948	7243.4875
2650.85521	7229.6875
2653.4993	7255.5875
2656.14175	7226.0875
2658.78255	7255.9875
2661.42171	7251.8875
2664.05923	7256.0875
2666.6951	7273.6875
2669.32934	7260.8875
2671.96194	7271.1875
2674.59291	7250.4875
2677.22224	7260.9875
2679.84993	7272.5875
2682.476	7257.1875
2685.10043	7243.2875
2687.72324	7230.0875
2690.34441	7264.2875
2692.96396	7256.9875
2695.58188	7253.9875
2698.19818	7234.2875
2700.81285	7249.2875
2703.4259	7260.2875
2706.03733	7306.9875
2708.64714	7250.4875
2711.25533	7262.2875
2713.86191	7244.7875
2716.46687	7260.7875
2719.07021	7265.6875
2721.67194	7269.9875
2724.27206	7238.1875
2726.87057	7263.4875
2729.46747	7236.1875
2732.06276	7255.2875
2734.65644	7250.8875
2737.24852	7231.5875
2739.83899	7230.5875
2742.42786	7236.5875
2745.01513	7248.9875
2747.60079	7213.5875
2750.18486	7206.5875
2752.76733	7207.2875
2755.3482	7214.9875
2757.92747	7214.1875
2760.50515	7198.8875
2763.08123	7202.4875
2765.65573	7181.6875
2768.22863	7204.4875
2770.79994	7198.7875
2773.36967	7202.5875
2775.9378	7168.1875
2778.50435	7186.7875
2781.06932	7190.7875
2783.6327	7173.4875
2786.1945	7186.2875
2788.75471	7170.1875
2791.31335	7170.2875
2793.87041	7134.8875
2796.42589	7106.8875
2798.97979	7125.0875
2801.53212	7073.8875
2804.08288	7100.7875
2806.63206	7085.4875
2809.17967	7076.9875
2811.72571	7047.2875
2814.27018	7059.3875
2816.81308	7056.9875
2819.35442	7051.3875
2821.89419	7042.6875
2824.43239	7053.0875
2826.96904	7058.4875
2829.50412	7035.4875
2832.03763	7023.3875
2834.56959	7033.3875
2837.1	7031.0875
2839.62884	7030.1875
2842.15613	7020.1875
2844.68186	7047.0875
2847.20604	7057.1875
2849.72867	7051.1875
2852.24974	7036.4875
2854.76927	7005.6875
2857.28724	7036.7875
2859.80367	7008.0875
2862.31855	7006.4875
2864.83189	6984.2875
2867.34368	7000.7875
2869.85393	6980.7875
2872.36264	6989.0875
2874.8698	6989.1875
2877.37543	6984.9875
2879.87952	6995.5875
2882.38207	7005.9875
2884.88308	7000.1875
2887.38256	6983.8875
2889.88051	6992.8875
2892.37692	6983.7875
2894.8718	6979.6875
2897.36515	6993.0875
2899.85698	6981.2875
2902.34727	7010.9875
2904.83604	7009.5875
2907.32328	7025.6875
2909.809	7019.6875
2912.29319	7019.9875
2914.77587	7018.9875
2917.25702	7024.8875
2919.73665	7040.0875
2922.21476	7032.7875
2924.69136	7024.8875
2927.16644	7003.4875
2929.64	6993.6875
2932.11205	6990.9875
2934.58258	6970.0875
2937.05161	6977.0875
2939.51912	6974.3875
2941.98513	6976.7875
2944.44962	6938.9875
2946.91261	6911.8875
2949.37409	6945.8875
2951.83407	6930.2875
2954.29254	6897.2875
2956.74951	6895.8875
2959.20498	6876.4875
2961.65895	6867.9875
2964.11142	6834.9875
2966.56239	6812.3875
2969.01186	6807.4875
2971.45984	6781.5875
2973.90632	6774.7875
2976.35131	6771.1875
2978.7948	6729.9875
2981.23681	6718.7875
2983.67732	6708.1875
2986.11635	6685.3875
2988.55388	6663.2875
2990.98993	6650.4875
2993.4245	6620.5875
2995.85758	6617.7875
2998.28917	6602.6875
3000.71928	6616.0875
3003.14791	6579.6875
3005.57506	6589.1875
3008.00073	6570.1875
3010.42493	6578.7875
3012.84764	6568.4875
3015.26888	6553.0875
3017.68865	6547.7875
3020.10694	6523.4875
3022.52376	6504.8875
3024.9391	6492.0875
3027.35298	6492.5875
3029.76539	6457.7875
3032.17632	6469.3875
3034.5858	6443.3875
3036.9938	6436.1875
3039.40034	6436.9875
3041.80542	6429.4875
3044.20903	6394.4875
3046.61118	6399.3875
3049.01187	6385.4875
3051.4111	6379.4875
3053.80888	6344.8875
3056.20519	6356.4875
3058.60005	6340.2875
3060.99345	6335.7875
3063.3854	6322.1875
3065.7759	6278.2875
3068.16494	6272.8875
3070.55254	6245.7875
3072.93868	6232.0875
3075.32338	6233.6875
3077.70662	6194.4875
3080.08842	6183.4875
3082.46878	6196.8875
3084.84769	6172.1875
3087.22515	6169.7875
3089.60118	6173.1875
3091.97576	6179.3875
3094.3489	6165.8875
3096.72061	6151.3875
3099.09087	6162.3875
3101.4597	6162.6875
3103.82709	6141.5875
3106.19305	6137.8875
3108.55757	6138.4875
3110.92066	6129.3875
3113.28232	6100.4875
3115.64255	6081.4875
3118.00134	6076.0875
3120.35871	6063.1875
3122.71466	6036.1875
3125.06917	6081.5875
3127.42226	6035.3875
3129.77393	6033.0875
3132.12417	6037.0875
3134.47299	6037.3875
3136.82039	6031.6875
3139.16636	6032.7875
3141.51092	6046.7875
3143.85406	6030.3875
3146.19579	6037.1875
3148.53609	6029.2875
3150.87499	6055.7875
3153.21246	6034.9875
3155.54853	6061.1875
3157.88318	6033.5875
3160.21642	6048.9875
3162.54826	6049.6875
3164.87868	6054.7875
3167.2077	6035.2875
3169.5353	6030.4875
3171.86151	6023.0875
3174.18631	6028.8875
3176.5097	6034.1875
3178.83169	6016.3875
3181.15228	6014.1875
3183.47147	5997.0875
3185.78926	6001.9875
3188.10565	6012.5875
3190.42065	5994.6875
3192.73424	6010.6875
3195.04645	6002.7875
3197.35725	6005.9875
3199.66667	5996.6875
3201.97469	6012.4875
3204.28132	6018.1875
3206.58656	6027.3875
3208.8904	6017.0875
3211.19287	6018.4875
3213.49394	6010.6875
3215.79363	6019.0875
3218.09193	6023.7875
3220.38884	6017.9875
3222.68438	6031.7875
3224.97853	6022.0875
3227.2713	6003.1875
3229.56269	5986.3875
3231.8527	6013.9875
3234.14133	5975.9875
3236.42858	5957.4875
3238.71446	5975.9875
3240.99896	5944.2875
3243.28209	5943.9875
3245.56384	5957.7875
3247.84423	5964.6875
3250.12324	5933.9875
3252.40088	5938.9875
3254.67715	5937.0875
3256.95205	5933.2875
3259.22558	5931.3875
3261.49775	5894.0875
3263.76855	5903.5875
3266.03799	5893.2875
3268.30606	5873.1875
3270.57277	5866.6875
3272.83812	5850.8875
3275.10211	5834.6875
3277.36474	5834.3875
3279.62601	5847.1875
3281.88593	5808.4875
3284.14448	5851.2875
3286.40168	5826.6875
3288.65753	5806.1875
3290.91202	5806.1875
3293.16516	5810.6875
3295.41695	5788.7875
3297.66738	5744.9875
3299.91647	5740.0875
3302.16421	5686.8875
3304.4106	5682.9875
3306.65564	5646.4875
3308.89933	5607.3875
3311.14169	5572.6875
3313.38269	5552.7875
3315.62236	5505.5875
3317.86068	5450.7875
3320.09766	5416.1875
3322.3333	5381.6875
3324.5676	5379.4875
3326.80056	5307.6875
3329.03219	5272.5875
3331.26248	1.4875
3333.49143	0.8875
3335.71905	-0.2125
