Data from AgNPs_FTO_APTES_UA_1um_CRN_0.1mM_R6G_10uM_NaF_0.1M_Addition_RamanShift__11__11-46-58-998.txt Node

Date: Tue Dec 21 11:46:58 GMT 2021
User: TCL
Spectrometer: QEP01345
Trigger mode: 4
Integration Time (sec): 7.000000E0
Scans to average: 10
Electric dark correction enabled: true
Nonlinearity correction enabled: false
Boxcar width: 0
XAxis mode: Raman Shifts
Number of Pixels in Spectrum: 1044
>>>>>Begin Spectral Data<<<<<
46.04893	0.0875
50.45542	-0.9125
54.85868	-0.8125
59.25871	1.3875
63.6555	33.7875
68.04907	40.3875
72.43941	43.9875
76.82654	41.0875
81.21044	48.4875
85.59113	51.1875
89.96862	50.8875
94.34289	52.1875
98.71396	52.9875
103.08183	58.6875
107.4465	59.2875
111.80798	62.9875
116.16626	61.7875
120.52136	58.1875
124.87327	61.1875
129.222	63.0875
133.56755	69.4875
137.90993	73.6875
142.24913	76.0875
146.58517	85.6875
150.91804	98.6875
155.24774	110.9875
159.57429	134.8875
163.89768	167.9875
168.21792	220.0875
172.53501	293.5875
176.84895	408.4875
181.15975	565.5875
185.46741	784.6875
189.77193	1092.1875
194.07331	1464.6875
198.37157	1886.6875
202.6667	2338.2875
206.9587	2798.9875
211.24758	3267.4875
215.53334	3738.7875
219.81599	4224.3875
224.09553	4755.2875
228.37195	5359.1875
232.64527	6023.9875
236.91549	6694.4875
241.18261	7354.0875
245.44663	7921.4875
249.70755	8424.0875
253.96539	8816.9875
258.22014	9144.3875
262.4718	9320.6875
266.72039	9468.3875
270.96589	9481.4875
275.20832	9375.5875
279.44768	9233.3875
283.68397	9076.1875
287.91719	8963.2875
292.14735	8900.3875
296.37445	8845.4875
300.59849	8886.6875
304.81948	8965.7875
309.03742	9066.5875
313.25231	9090.4875
317.46415	8999.0875
321.67296	8769.3875
325.87872	8559.5875
330.08145	8391.0875
334.28114	8306.9875
338.47781	8306.4875
342.67145	8396.8875
346.86207	8548.4875
351.04966	8727.5875
355.23424	8881.2875
359.4158	8999.9875
363.59435	9110.6875
367.76989	9124.9875
371.94243	9089.5875
376.11196	9030.2875
380.27849	8988.4875
384.44203	9029.8875
388.60257	9052.3875
392.76012	9162.3875
396.91468	9315.7875
401.06626	9493.9875
405.21485	9636.1875
409.36047	9547.5875
413.50311	9353.8875
417.64277	9215.0875
421.77947	9215.3875
425.9132	9270.6875
430.04396	9344.3875
434.17176	9352.6875
438.2966	9410.4875
442.41849	9514.5875
446.53742	9770.4875
450.6534	10029.5875
454.76644	10142.1875
458.87653	10096.2875
462.98368	9977.9875
467.08789	9848.5875
471.18916	9645.4875
475.2875	9467.7875
479.38291	9307.6875
483.4754	9163.4875
487.56496	9129.5875
491.6516	9057.0875
495.73531	8984.4875
499.81612	8963.9875
503.89401	8996.5875
507.96899	9044.6875
512.04106	9008.7875
516.11023	8926.2875
520.1765	8828.1875
524.23987	8758.1875
528.30034	8729.3875
532.35792	8674.6875
536.41261	8532.0875
540.46441	8351.0875
544.51333	8292.8875
548.55936	8364.5875
552.60252	8589.8875
556.64279	8822.1875
560.6802	9002.1875
564.71473	9024.1875
568.7464	9164.5875
572.7752	9493.4875
576.80114	9874.6875
580.82422	10336.8875
584.84444	10952.0875
588.86181	11735.0875
592.87633	12566.2875
596.888	12821.0875
600.89682	12124.8875
604.9028	11432.2875
608.90594	11847.5875
612.90624	12891.9875
616.90371	12074.1875
620.89834	9745.1875
624.89015	8572.8875
628.87913	8439.7875
632.86528	8610.8875
636.84862	8726.8875
640.82913	8536.1875
644.80683	8254.1875
648.78172	8018.4875
652.75379	8032.0875
656.72306	8157.4875
660.68952	8287.7875
664.65319	8262.2875
668.61405	8078.1875
672.57211	8049.4875
676.52738	8134.7875
680.47986	8176.9875
684.42955	8103.4875
688.37646	7968.7875
692.32058	7937.2875
696.26192	7981.9875
700.20048	8083.1875
704.13626	8180.2875
708.06928	8246.9875
711.99952	8239.4875
715.927	8215.0875
719.85171	8231.2875
723.77365	8140.0875
727.69284	7973.8875
731.60928	7836.6875
735.52295	7808.7875
739.43388	7793.4875
743.34206	7845.9875
747.24749	7929.9875
751.15017	8055.3875
755.05012	8231.8875
758.94733	8548.3875
762.8418	9126.4875
766.73354	10105.6875
770.62254	11032.8875
774.50882	11150.9875
778.39237	10471.3875
782.27321	9529.7875
786.15132	8727.4875
790.02671	8200.6875
793.89938	7908.4875
797.76935	7779.2875
801.6366	7698.4875
805.50115	7656.7875
809.36299	7614.3875
813.22213	7523.6875
817.07857	7453.1875
820.93231	7388.6875
824.78336	7351.1875
828.63172	7299.7875
832.47738	7307.9875
836.32036	7306.6875
840.16066	7288.6875
843.99827	7251.9875
847.8332	7247.8875
851.66546	7258.1875
855.49504	7251.7875
859.32195	7238.6875
863.1462	7219.8875
866.96777	7180.3875
870.78668	7175.3875
874.60293	7188.9875
878.41652	7194.3875
882.22745	7226.6875
886.03573	7245.5875
889.84136	7257.3875
893.64433	7236.4875
897.44466	7237.7875
901.24235	7245.6875
905.0374	7199.5875
908.8298	7156.5875
912.61957	7147.7875
916.40671	7197.1875
920.19121	7341.2875
923.97308	7481.4875
927.75233	7604.7875
931.52895	7563.0875
935.30295	7373.7875
939.07433	7124.9875
942.84309	6933.2875
946.60924	6828.3875
950.37278	6772.4875
954.13371	6728.8875
957.89203	6723.1875
961.64774	6741.2875
965.40086	6732.4875
969.15137	6730.0875
972.89929	6669.8875
976.64461	6633.0875
980.38733	6597.0875
984.12747	6563.6875
987.86502	6591.9875
991.59999	6603.1875
995.33237	6682.1875
999.06217	6782.1875
1002.78939	6930.8875
1006.51404	7095.9875
1010.23611	7279.1875
1013.95561	7428.5875
1017.67255	7494.4875
1021.38692	7439.7875
1025.09872	7255.7875
1028.80796	7095.6875
1032.51465	6990.0875
1036.21877	7000.2875
1039.92035	7056.9875
1043.61937	7116.4875
1047.31584	7173.3875
1051.00976	7208.6875
1054.70114	7244.1875
1058.38998	7282.1875
1062.07627	7326.6875
1065.76003	7381.1875
1069.44126	7526.3875
1073.11995	7719.0875
1076.79611	7881.3875
1080.46974	7983.7875
1084.14085	8041.7875
1087.80943	8146.6875
1091.47549	8282.6875
1095.13903	8295.6875
1098.80005	8104.9875
1102.45857	7795.0875
1106.11456	7539.6875
1109.76805	7374.7875
1113.41903	7370.4875
1117.06751	7453.9875
1120.71348	7609.3875
1124.35696	7787.3875
1127.99793	7986.2875
1131.63641	8106.0875
1135.2724	8039.3875
1138.90589	7951.1875
1142.5369	7915.2875
1146.16542	7933.1875
1149.79145	7997.7875
1153.415	8072.8875
1157.03607	8180.2875
1160.65467	8417.1875
1164.27079	8896.7875
1167.88443	9490.7875
1171.49561	10278.9875
1175.10432	11267.5875
1178.71056	12455.3875
1182.31434	13438.6875
1185.91565	13901.2875
1189.51451	13763.8875
1193.11091	13264.1875
1196.70485	12528.8875
1200.29634	11744.5875
1203.88538	11093.7875
1207.47197	10605.5875
1211.05612	10292.9875
1214.63782	10018.8875
1218.21708	9747.8875
1221.79391	9562.4875
1225.36829	9511.0875
1228.94024	9522.4875
1232.50976	9474.3875
1236.07685	9319.9875
1239.6415	9144.0875
1243.20374	9045.2875
1246.76355	9026.1875
1250.32093	9099.7875
1253.8759	9293.2875
1257.42845	9621.3875
1260.97859	10000.4875
1264.52631	10381.2875
1268.07163	10739.9875
1271.61453	11113.5875
1275.15503	11422.8875
1278.69312	11826.4875
1282.22882	12288.7875
1285.76211	12890.2875
1289.29301	13588.0875
1292.82151	14236.4875
1296.34761	14959.4875
1299.87133	15870.0875
1303.39266	16898.3875
1306.9116	17878.5875
1310.42815	18886.5875
1313.94233	19499.9875
1317.45412	19331.9875
1320.96354	18659.4875
1324.47058	17963.7875
1327.97525	17417.4875
1331.47754	17036.6875
1334.97747	16755.3875
1338.47502	16461.0875
1341.97022	16170.0875
1345.46305	16003.3875
1348.95352	16011.7875
1352.44163	16362.1875
1355.92738	17091.0875
1359.41078	18339.7875
1362.89183	19484.2875
1366.37053	19690.9875
1369.84688	18236.8875
1373.32088	15900.2875
1376.79254	13959.9875
1380.26186	13002.0875
1383.72883	12639.2875
1387.19347	12310.6875
1390.65578	11945.6875
1394.11575	11783.5875
1397.57339	11849.5875
1401.0287	12022.1875
1404.48168	12139.4875
1407.93234	12120.9875
1411.38068	11910.5875
1414.82669	11586.4875
1418.27039	11229.4875
1421.71177	10823.1875
1425.15083	10450.1875
1428.58758	10246.6875
1432.02203	10270.0875
1435.45416	10478.0875
1438.88399	10715.8875
1442.31151	10847.8875
1445.73673	10970.9875
1449.15965	11093.6875
1452.58027	11186.5875
1455.9986	11151.9875
1459.41463	11208.1875
1462.82837	11407.5875
1466.23982	11686.8875
1469.64898	12015.2875
1473.05586	12221.8875
1476.46045	12371.1875
1479.86276	12483.1875
1483.26279	12614.4875
1486.66054	12835.2875
1490.05602	13175.3875
1493.44922	13688.8875
1496.84016	14290.8875
1500.22882	14977.3875
1503.61521	15716.2875
1506.99934	16485.0875
1510.38121	16982.9875
1513.76081	16907.2875
1517.13816	16242.4875
1520.51324	15284.2875
1523.88607	14437.1875
1527.25665	13872.9875
1530.62498	13540.4875
1533.99105	13247.1875
1537.35488	12867.9875
1540.71647	12418.5875
1544.07581	11936.0875
1547.4329	11435.6875
1550.78776	11011.7875
1554.14038	10753.5875
1557.49077	10686.6875
1560.83892	10693.0875
1564.18484	10869.5875
1567.52853	11050.8875
1570.86999	11246.2875
1574.20922	11491.7875
1577.54624	11588.3875
1580.88103	11385.2875
1584.2136	11159.8875
1587.54395	11174.0875
1590.87208	11597.7875
1594.19801	12374.0875
1597.52172	13249.1875
1600.84321	13666.1875
1604.16251	13226.3875
1607.47959	12238.3875
1610.79447	11035.8875
1614.10715	9937.0875
1617.41763	9057.3875
1620.7259	8455.9875
1624.03199	8119.4875
1627.33587	8060.9875
1630.63757	8294.0875
1633.93707	8855.3875
1637.23439	9892.9875
1640.52951	11593.8875
1643.82246	13875.1875
1647.11321	16131.7875
1650.40179	17301.3875
1653.68819	16561.0875
1656.97241	14298.1875
1660.25446	11675.4875
1663.53433	9622.5875
1666.81203	8299.3875
1670.08756	7489.0875
1673.36092	7003.5875
1676.63211	6683.3875
1679.90115	6486.4875
1683.16801	6333.2875
1686.43272	6212.5875
1689.69527	6121.5875
1692.95567	6067.1875
1696.2139	6031.4875
1699.46999	6008.5875
1702.72392	5958.6875
1705.97571	5922.3875
1709.22535	5882.5875
1712.47284	5869.7875
1715.71819	5859.8875
1718.96139	5817.6875
1722.20246	5799.0875
1725.44139	5753.4875
1728.67818	5713.4875
1731.91284	5663.2875
1735.14537	5635.8875
1738.37576	5598.6875
1741.60403	5558.7875
1744.83017	5566.5875
1748.05418	5541.4875
1751.27607	5567.5875
1754.49584	5597.6875
1757.71349	5608.2875
1760.92903	5626.5875
1764.14244	5593.4875
1767.35375	5573.8875
1770.56294	5517.4875
1773.77002	5465.4875
1776.97499	5444.4875
1780.17785	5401.0875
1783.37861	5363.2875
1786.57727	5342.8875
1789.77382	5313.5875
1792.96828	5285.3875
1796.16064	5259.7875
1799.3509	5247.2875
1802.53907	5220.0875
1805.72514	5184.7875
1808.90913	5165.8875
1812.09102	5143.6875
1815.27083	5153.1875
1818.44856	5149.0875
1821.6242	5135.9875
1824.79776	5130.6875
1827.96924	5138.2875
1831.13864	5130.0875
1834.30597	5119.8875
1837.47122	5109.1875
1840.6344	5095.8875
1843.7955	5119.1875
1846.95454	5111.5875
1850.11151	5090.7875
1853.26642	5097.2875
1856.41926	5102.2875
1859.57004	5087.3875
1862.71876	5062.1875
1865.86542	5063.7875
1869.01003	5073.2875
1872.15258	5051.1875
1875.29308	5053.9875
1878.43152	5040.0875
1881.56792	5025.6875
1884.70227	5007.7875
1887.83457	5013.5875
1890.96482	5003.6875
1894.09304	4980.1875
1897.21921	4976.5875
1900.34335	4961.6875
1903.46544	4959.7875
1906.58551	4957.4875
1909.70353	4942.4875
1912.81953	4918.6875
1915.93349	4901.1875
1919.04543	4896.7875
1922.15534	4888.8875
1925.26322	4859.2875
1928.36908	4832.7875
1931.47292	4831.7875
1934.57473	4813.9875
1937.67453	4789.2875
1940.77232	4754.8875
1943.86808	4762.5875
1946.96184	4745.8875
1950.05358	4724.1875
1953.14331	4727.5875
1956.23103	4699.7875
1959.31675	4690.6875
1962.40046	4675.0875
1965.48217	4673.4875
1968.56188	4645.5875
1971.63959	4612.7875
1974.7153	4610.9875
1977.78901	4580.1875
1980.86073	4578.5875
1983.93046	4566.3875
1986.99819	4536.4875
1990.06394	4516.1875
1993.1277	4507.9875
1996.18947	4489.3875
1999.24925	4478.5875
2002.30706	4460.3875
2005.36288	4447.2875
2008.41672	4426.8875
2011.46859	4425.4875
2014.51848	4398.9875
2017.56639	4387.3875
2020.61233	4388.1875
2023.6563	4371.4875
2026.6983	4354.5875
2029.73833	4342.7875
2032.7764	4329.6875
2035.8125	4319.4875
2038.84664	4312.4875
2041.87881	4306.1875
2044.90903	4302.5875
2047.93729	4280.2875
2050.96359	4286.0875
2053.98794	4286.9875
2057.01034	4264.1875
2060.03078	4265.1875
2063.04927	4258.6875
2066.06582	4255.6875
2069.08042	4256.2875
2072.09307	4249.3875
2075.10378	4236.0875
2078.11255	4242.6875
2081.11938	4254.5875
2084.12426	4230.5875
2087.12722	4239.5875
2090.12824	4241.5875
2093.12732	4231.7875
2096.12447	4243.4875
2099.11969	4224.8875
2102.11299	4223.6875
2105.10435	4226.0875
2108.09379	4232.7875
2111.08131	4234.9875
2114.0669	4236.4875
2117.05057	4211.7875
2120.03233	4233.9875
2123.01216	4223.7875
2125.99008	4229.8875
2128.96609	4226.4875
2131.94018	4228.5875
2134.91236	4230.3875
2137.88263	4229.7875
2140.851	4225.4875
2143.81746	4215.2875
2146.78201	4219.4875
2149.74466	4210.2875
2152.7054	4215.8875
2155.66425	4207.7875
2158.6212	4224.4875
2161.57625	4209.0875
2164.52941	4204.1875
2167.48067	4197.4875
2170.43004	4203.6875
2173.37752	4195.8875
2176.32311	4191.4875
2179.26681	4168.0875
2182.20863	4189.3875
2185.14856	4165.1875
2188.08661	4183.5875
2191.02278	4166.5875
2193.95707	4171.7875
2196.88948	4153.4875
2199.82001	4162.4875
2202.74867	4156.6875
2205.67545	4140.1875
2208.60037	4136.2875
2211.52341	4130.7875
2214.44458	4114.8875
2217.36388	4107.6875
2220.28132	4104.6875
2223.1969	4088.5875
2226.11061	4096.7875
2229.02246	4081.6875
2231.93245	4072.2875
2234.84058	4069.7875
2237.74686	4078.1875
2240.65128	4071.2875
2243.55385	4055.4875
2246.45456	4055.8875
2249.35343	4048.6875
2252.25044	4034.6875
2255.14561	4031.5875
2258.03893	4020.8875
2260.93041	4021.1875
2263.82004	3986.7875
2266.70783	3992.5875
2269.59378	3962.3875
2272.4779	3959.0875
2275.36017	3950.2875
2278.24061	3944.1875
2281.11922	3926.8875
2283.996	3915.2875
2286.87094	3909.4875
2289.74405	3895.2875
2292.61534	3903.2875
2295.4848	3882.8875
2298.35243	3880.5875
2301.21824	3873.8875
2304.08223	3867.0875
2306.94439	3863.8875
2309.80474	3859.0875
2312.66327	3850.8875
2315.51999	3840.7875
2318.37489	3844.6875
2321.22797	3845.6875
2324.07925	3852.2875
2326.92871	3834.1875
2329.77637	3832.6875
2332.62222	3822.0875
2335.46626	3831.4875
2338.3085	3816.7875
2341.14893	3809.7875
2343.98756	3818.2875
2346.8244	3815.1875
2349.65943	3811.5875
2352.49267	3808.2875
2355.32411	3814.7875
2358.15376	3807.9875
2360.98161	3813.4875
2363.80768	3798.0875
2366.63195	3809.0875
2369.45444	3805.1875
2372.27514	3800.7875
2375.09405	3797.4875
2377.91118	3788.1875
2380.72652	3775.4875
2383.54009	3760.3875
2386.35187	3748.5875
2389.16188	3727.3875
2391.97011	3742.7875
2394.77657	3710.9875
2397.58125	3718.8875
2400.38416	3714.0875
2403.18529	3704.7875
2405.98466	3695.0875
2408.78226	3695.0875
2411.57809	3683.3875
2414.37216	3674.1875
2417.16446	3673.4875
2419.955	3674.1875
2422.74378	3676.9875
2425.5308	3668.7875
2428.31606	3664.6875
2431.09956	3671.6875
2433.88131	3670.7875
2436.6613	3656.8875
2439.43954	3658.2875
2442.21603	3645.9875
2444.99077	3638.7875
2447.76377	3656.1875
2450.53501	3638.8875
2453.30451	3650.3875
2456.07226	3640.4875
2458.83827	3654.6875
2461.60254	3639.5875
2464.36507	3639.9875
2467.12586	3625.5875
2469.88492	3633.5875
2472.64224	3629.2875
2475.39782	3642.9875
2478.15167	3638.4875
2480.90379	3633.5875
2483.65417	3633.8875
2486.40283	3625.7875
2489.14976	3630.6875
2491.89497	3613.6875
2494.63845	3636.0875
2497.3802	3651.5875
2500.12024	3617.9875
2502.85855	3628.8875
2505.59514	3605.9875
2508.33002	3589.6875
2511.06318	3589.7875
2513.79462	3596.2875
2516.52435	3583.4875
2519.25237	3585.9875
2521.97867	3563.6875
2524.70327	3565.9875
2527.42616	3555.8875
2530.14734	3549.1875
2532.86681	3545.8875
2535.58458	3549.4875
2538.30065	3527.6875
2541.01501	3532.4875
2543.72768	3531.3875
2546.43864	3513.5875
2549.14791	3523.0875
2551.85548	3506.2875
2554.56136	3516.2875
2557.26554	3519.9875
2559.96803	3514.6875
2562.66883	3517.4875
2565.36794	3490.0875
2568.06536	3496.9875
2570.7611	3495.2875
2573.45514	3482.4875
2576.14751	3485.0875
2578.83819	3473.3875
2581.52719	3493.3875
2584.21451	3472.9875
2586.90015	3467.9875
2589.58411	3463.2875
2592.2664	3464.3875
2594.94701	3447.5875
2597.62594	3463.3875
2600.30321	3435.7875
2602.9788	3432.6875
2605.65273	3428.9875
2608.32498	3421.0875
2610.99557	3435.2875
2613.66449	3431.7875
2616.33175	3419.1875
2618.99734	3431.7875
2621.66128	3420.0875
2624.32355	3416.9875
2626.98416	3407.8875
2629.64311	3398.5875
2632.30041	3394.7875
2634.95605	3400.0875
2637.61004	3393.3875
2640.26238	3393.1875
2642.91306	3379.7875
2645.56209	3386.9875
2648.20948	3393.7875
2650.85521	3386.9875
2653.4993	3376.4875
2656.14175	3381.5875
2658.78255	3377.1875
2661.42171	3391.5875
2664.05923	3400.2875
2666.6951	3403.6875
2669.32934	3400.0875
2671.96194	3413.3875
2674.59291	3398.8875
2677.22224	3400.2875
2679.84993	3412.0875
2682.476	3400.3875
2685.10043	3392.4875
2687.72324	3388.9875
2690.34441	3381.9875
2692.96396	3402.4875
2695.58188	3390.7875
2698.19818	3382.6875
2700.81285	3399.4875
2703.4259	3414.2875
2706.03733	3450.5875
2708.64714	3429.1875
2711.25533	3407.7875
2713.86191	3393.0875
2716.46687	3399.6875
2719.07021	3416.3875
2721.67194	3409.2875
2724.27206	3403.7875
2726.87057	3393.4875
2729.46747	3390.9875
2732.06276	3400.7875
2734.65644	3398.3875
2737.24852	3408.1875
2739.83899	3386.2875
2742.42786	3391.6875
2745.01513	3378.1875
2747.60079	3393.4875
2750.18486	3374.5875
2752.76733	3377.3875
2755.3482	3371.5875
2757.92747	3374.1875
2760.50515	3349.3875
2763.08123	3359.4875
2765.65573	3364.5875
2768.22863	3355.4875
2770.79994	3356.5875
2773.36967	3366.8875
2775.9378	3351.2875
2778.50435	3345.5875
2781.06932	3351.7875
2783.6327	3343.6875
2786.1945	3345.3875
2788.75471	3343.0875
2791.31335	3357.9875
2793.87041	3337.1875
2796.42589	3336.4875
2798.97979	3318.8875
2801.53212	3322.4875
2804.08288	3336.8875
2806.63206	3314.6875
2809.17967	3313.2875
2811.72571	3309.2875
2814.27018	3322.8875
2816.81308	3304.5875
2819.35442	3296.9875
2821.89419	3303.7875
2824.43239	3296.8875
2826.96904	3297.3875
2829.50412	3300.6875
2832.03763	3293.3875
2834.56959	3307.7875
2837.1	3299.3875
2839.62884	3299.3875
2842.15613	3308.8875
2844.68186	3320.9875
2847.20604	3340.0875
2849.72867	3339.2875
2852.24974	3346.5875
2854.76927	3340.3875
2857.28724	3348.1875
2859.80367	3340.8875
2862.31855	3331.4875
2864.83189	3314.3875
2867.34368	3323.9875
2869.85393	3320.1875
2872.36264	3310.0875
2874.8698	3312.2875
2877.37543	3308.4875
2879.87952	3317.5875
2882.38207	3309.8875
2884.88308	3304.0875
2887.38256	3307.0875
2889.88051	3311.3875
2892.37692	3329.3875
2894.8718	3318.9875
2897.36515	3340.7875
2899.85698	3334.0875
2902.34727	3345.5875
2904.83604	3346.8875
2907.32328	3344.5875
2909.809	3354.9875
2912.29319	3366.2875
2914.77587	3371.0875
2917.25702	3369.7875
2919.73665	3377.9875
2922.21476	3376.1875
2924.69136	3380.9875
2927.16644	3384.6875
2929.64	3381.3875
2932.11205	3379.9875
2934.58258	3376.1875
2937.05161	3378.3875
2939.51912	3394.8875
2941.98513	3380.0875
2944.44962	3378.2875
2946.91261	3368.6875
2949.37409	3365.8875
2951.83407	3355.2875
2954.29254	3349.9875
2956.74951	3339.8875
2959.20498	3336.8875
2961.65895	3321.2875
2964.11142	3317.3875
2966.56239	3289.8875
2969.01186	3279.2875
2971.45984	3260.5875
2973.90632	3240.1875
2976.35131	3233.2875
2978.7948	3217.9875
2981.23681	3213.2875
2983.67732	3197.3875
2986.11635	3181.5875
2988.55388	3171.6875
2990.98993	3171.4875
2993.4245	3153.2875
2995.85758	3149.8875
2998.28917	3143.2875
3000.71928	3146.1875
3003.14791	3134.4875
3005.57506	3124.8875
3008.00073	3131.6875
3010.42493	3122.8875
3012.84764	3108.8875
3015.26888	3114.5875
3017.68865	3094.7875
3020.10694	3093.3875
3022.52376	3067.3875
3024.9391	3068.8875
3027.35298	3062.8875
3029.76539	3064.1875
3032.17632	3051.7875
3034.5858	3045.7875
3036.9938	3048.7875
3039.40034	3025.9875
3041.80542	3014.5875
3044.20903	3020.0875
3046.61118	3022.0875
3049.01187	3004.7875
3051.4111	3003.7875
3053.80888	2984.4875
3056.20519	2996.1875
3058.60005	2994.9875
3060.99345	2982.0875
3063.3854	2993.3875
3065.7759	2982.5875
3068.16494	2974.6875
3070.55254	2966.0875
3072.93868	2973.0875
3075.32338	2949.6875
3077.70662	2946.8875
3080.08842	2932.1875
3082.46878	2936.8875
3084.84769	2922.8875
3087.22515	2932.2875
3089.60118	2928.2875
3091.97576	2940.1875
3094.3489	2940.8875
3096.72061	2946.8875
3099.09087	2944.2875
3101.4597	2922.0875
3103.82709	2924.6875
3106.19305	2926.0875
3108.55757	2920.4875
3110.92066	2914.1875
3113.28232	2929.3875
3115.64255	2911.6875
3118.00134	2902.4875
3120.35871	2907.9875
3122.71466	2886.8875
3125.06917	2907.4875
3127.42226	2901.9875
3129.77393	2896.6875
3132.12417	2896.4875
3134.47299	2899.3875
3136.82039	2896.6875
3139.16636	2903.1875
3141.51092	2900.9875
3143.85406	2913.0875
3146.19579	2907.6875
3148.53609	2908.0875
3150.87499	2912.7875
3153.21246	2927.3875
3155.54853	2928.8875
3157.88318	2919.8875
3160.21642	2925.0875
3162.54826	2911.7875
3164.87868	2919.0875
3167.2077	2928.9875
3169.5353	2921.5875
3171.86151	2930.2875
3174.18631	2924.9875
3176.5097	2921.0875
3178.83169	2927.7875
3181.15228	2934.0875
3183.47147	2922.3875
3185.78926	2919.5875
3188.10565	2918.0875
3190.42065	2926.4875
3192.73424	2935.8875
3195.04645	2922.8875
3197.35725	2915.3875
3199.66667	2917.1875
3201.97469	2923.4875
3204.28132	2932.4875
3206.58656	2936.8875
3208.8904	2926.4875
3211.19287	2936.0875
3213.49394	2935.4875
3215.79363	2923.1875
3218.09193	2937.5875
3220.38884	2944.2875
3222.68438	2957.8875
3224.97853	2942.1875
3227.2713	2934.1875
3229.56269	2946.9875
3231.8527	2924.0875
3234.14133	2922.2875
3236.42858	2937.2875
3238.71446	2930.2875
3240.99896	2913.3875
3243.28209	2931.7875
3245.56384	2921.3875
3247.84423	2923.3875
3250.12324	2910.5875
3252.40088	2922.1875
3254.67715	2899.5875
3256.95205	2903.2875
3259.22558	2887.5875
3261.49775	2883.9875
3263.76855	2876.8875
3266.03799	2883.1875
3268.30606	2873.7875
3270.57277	2862.7875
3272.83812	2858.8875
3275.10211	2861.7875
3277.36474	2859.4875
3279.62601	2855.2875
3281.88593	2850.8875
3284.14448	2856.9875
3286.40168	2872.5875
3288.65753	2865.1875
3290.91202	2848.1875
3293.16516	2854.9875
3295.41695	2841.7875
3297.66738	2833.4875
3299.91647	2825.3875
3302.16421	2798.3875
3304.4106	2791.8875
3306.65564	2770.7875
3308.89933	2756.3875
3311.14169	2742.7875
3313.38269	2718.4875
3315.62236	2703.8875
3317.86068	2683.1875
3320.09766	2648.8875
3322.3333	2631.8875
3324.5676	2637.3875
3326.80056	2600.9875
3329.03219	2575.4875
3331.26248	0.9875
3333.49143	0.1875
3335.71905	-0.7125
