Data from AgNPs_FTO_APTES_UA_2um_CRN_0.1mM_R6G_10uM_NaF_0.1M_Addition_RamanShift__1__12-16-09-030.txt Node

Date: Tue Dec 21 12:16:09 GMT 2021
User: TCL
Spectrometer: QEP01345
Trigger mode: 4
Integration Time (sec): 7.000000E0
Scans to average: 10
Electric dark correction enabled: true
Nonlinearity correction enabled: false
Boxcar width: 0
XAxis mode: Raman Shifts
Number of Pixels in Spectrum: 1044
>>>>>Begin Spectral Data<<<<<
46.04893	0.3875
50.45542	-0.9125
54.85868	-0.5125
59.25871	-0.3125
63.6555	50.3875
68.04907	53.6875
72.43941	58.4875
76.82654	54.3875
81.21044	64.3875
85.59113	62.1875
89.96862	65.4875
94.34289	69.5875
98.71396	69.2875
103.08183	71.1875
107.4465	75.1875
111.80798	80.6875
116.16626	78.7875
120.52136	80.7875
124.87327	83.4875
129.222	87.1875
133.56755	93.9875
137.90993	104.1875
142.24913	104.9875
146.58517	120.5875
150.91804	139.7875
155.24774	165.2875
159.57429	201.3875
163.89768	264.9875
168.21792	346.0875
172.53501	466.5875
176.84895	642.4875
181.15975	926.5875
185.46741	1282.4875
189.77193	1763.6875
194.07331	2355.2875
198.37157	3045.4875
202.6667	3766.0875
206.9587	4480.2875
211.24758	5194.1875
215.53334	5918.3875
219.81599	6694.0875
224.09553	7564.7875
228.37195	8536.0875
232.64527	9580.5875
236.91549	10665.9875
241.18261	11695.9875
245.44663	12582.6875
249.70755	13363.5875
253.96539	14010.6875
258.22014	14544.0875
262.4718	14967.7875
266.72039	15246.7875
270.96589	15344.4875
275.20832	15256.2875
279.44768	15061.2875
283.68397	14894.9875
287.91719	14692.8875
292.14735	14575.7875
296.37445	14598.0875
300.59849	14735.9875
304.81948	15000.7875
309.03742	15254.0875
313.25231	15350.7875
317.46415	15200.5875
321.67296	14859.2875
325.87872	14496.3875
330.08145	14280.4875
334.28114	14207.3875
338.47781	14223.2875
342.67145	14390.5875
346.86207	14687.7875
351.04966	15036.3875
355.23424	15394.3875
359.4158	15612.3875
363.59435	15757.3875
367.76989	15848.2875
371.94243	15807.0875
376.11196	15780.0875
380.27849	15817.7875
384.44203	15929.6875
388.60257	16039.5875
392.76012	16197.8875
396.91468	16419.8875
401.06626	16688.8875
405.21485	16887.0875
409.36047	16785.9875
413.50311	16475.7875
417.64277	16268.4875
421.77947	16250.0875
425.9132	16332.1875
430.04396	16418.9875
434.17176	16518.1875
438.2966	16624.7875
442.41849	17027.8875
446.53742	17781.5875
450.6534	18533.3875
454.76644	18858.2875
458.87653	18674.1875
462.98368	18217.5875
467.08789	17696.7875
471.18916	17215.2875
475.2875	16724.4875
479.38291	16357.0875
483.4754	16147.5875
487.56496	15945.6875
491.6516	15825.1875
495.73531	15680.0875
499.81612	15696.1875
503.89401	15781.6875
507.96899	15857.6875
512.04106	15779.7875
516.11023	15613.6875
520.1765	15480.2875
524.23987	15424.3875
528.30034	15445.6875
532.35792	15432.4875
536.41261	15121.7875
540.46441	14749.1875
544.51333	14539.8875
548.55936	14666.9875
552.60252	15070.7875
556.64279	15728.5875
560.6802	16215.4875
564.71473	16301.2875
568.7464	16447.0875
572.7752	16883.6875
576.80114	17369.5875
580.82422	17936.3875
584.84444	19073.9875
588.86181	20807.0875
592.87633	22783.4875
596.888	23393.0875
600.89682	21592.3875
604.9028	20152.2875
608.90594	21237.8875
612.90624	23481.9875
616.90371	22190.2875
620.89834	17602.7875
624.89015	15344.5875
628.87913	15007.0875
632.86528	15120.0875
636.84862	15141.4875
640.82913	14822.1875
644.80683	14368.2875
648.78172	14070.6875
652.75379	14084.2875
656.72306	14289.6875
660.68952	14558.8875
664.65319	14432.7875
668.61405	14026.1875
672.57211	13946.1875
676.52738	14087.5875
680.47986	14107.0875
684.42955	13930.9875
688.37646	13760.1875
692.32058	13823.4875
696.26192	14027.2875
700.20048	14314.4875
704.13626	14507.5875
708.06928	14491.5875
711.99952	14401.5875
715.927	14436.2875
719.85171	14513.3875
723.77365	14464.0875
727.69284	14197.4875
731.60928	13958.2875
735.52295	13942.7875
739.43388	14002.2875
743.34206	14064.4875
747.24749	14178.7875
751.15017	14353.5875
755.05012	14620.5875
758.94733	15163.9875
762.8418	16178.4875
766.73354	17913.9875
770.62254	19583.4875
774.50882	19977.5875
778.39237	18914.2875
782.27321	17278.2875
786.15132	15759.2875
790.02671	14795.5875
793.89938	14301.8875
797.76935	14098.4875
801.6366	14013.6875
805.50115	13951.3875
809.36299	13828.4875
813.22213	13631.5875
817.07857	13525.3875
820.93231	13371.7875
824.78336	13315.4875
828.63172	13288.4875
832.47738	13240.7875
836.32036	13280.1875
840.16066	13307.4875
843.99827	13329.4875
847.8332	13271.5875
851.66546	13241.2875
855.49504	13210.7875
859.32195	13200.3875
863.1462	13175.3875
866.96777	13084.0875
870.78668	13067.6875
874.60293	13086.4875
878.41652	13117.6875
882.22745	13189.1875
886.03573	13257.9875
889.84136	13279.3875
893.64433	13194.9875
897.44466	13131.6875
901.24235	13103.7875
905.0374	12971.4875
908.8298	12915.0875
912.61957	12894.4875
916.40671	12965.7875
920.19121	13155.7875
923.97308	13425.7875
927.75233	13632.5875
931.52895	13583.4875
935.30295	13290.2875
939.07433	12892.9875
942.84309	12624.0875
946.60924	12456.4875
950.37278	12415.9875
954.13371	12391.1875
957.89203	12355.2875
961.64774	12351.2875
965.40086	12359.4875
969.15137	12315.2875
972.89929	12235.5875
976.64461	12225.9875
980.38733	12175.7875
984.12747	12225.6875
987.86502	12333.3875
991.59999	12433.2875
995.33237	12664.6875
999.06217	13050.5875
1002.78939	13502.4875
1006.51404	13926.9875
1010.23611	14279.3875
1013.95561	14522.1875
1017.67255	14695.8875
1021.38692	14522.7875
1025.09872	14085.8875
1028.80796	13762.4875
1032.51465	13808.8875
1036.21877	14052.1875
1039.92035	14167.0875
1043.61937	14149.6875
1047.31584	13987.5875
1051.00976	13779.9875
1054.70114	13641.3875
1058.38998	13575.3875
1062.07627	13609.6875
1065.76003	13693.3875
1069.44126	13868.3875
1073.11995	14190.2875
1076.79611	14516.5875
1080.46974	14657.8875
1084.14085	14873.2875
1087.80943	15152.0875
1091.47549	15337.2875
1095.13903	15322.5875
1098.80005	14957.6875
1102.45857	14454.2875
1106.11456	14117.3875
1109.76805	13975.5875
1113.41903	14022.1875
1117.06751	14225.2875
1120.71348	14494.6875
1124.35696	14810.0875
1127.99793	15166.2875
1131.63641	15248.0875
1135.2724	15142.2875
1138.90589	14948.6875
1142.5369	14891.6875
1146.16542	14972.8875
1149.79145	15090.7875
1153.415	15221.9875
1157.03607	15382.3875
1160.65467	15897.0875
1164.27079	16892.3875
1167.88443	18198.4875
1171.49561	19715.1875
1175.10432	21832.3875
1178.71056	24446.5875
1182.31434	26768.6875
1185.91565	27604.3875
1189.51451	26769.8875
1193.11091	25241.1875
1196.70485	23646.9875
1200.29634	22192.7875
1203.88538	21058.5875
1207.47197	20257.3875
1211.05612	19643.4875
1214.63782	19207.9875
1218.21708	18841.0875
1221.79391	18773.7875
1225.36829	18924.9875
1228.94024	19003.1875
1232.50976	18693.3875
1236.07685	18067.6875
1239.6415	17527.1875
1243.20374	17331.1875
1246.76355	17346.7875
1250.32093	17536.3875
1253.8759	18025.8875
1257.42845	18701.2875
1260.97859	19450.4875
1264.52631	20244.7875
1268.07163	20988.3875
1271.61453	21713.9875
1275.15503	22474.6875
1278.69312	23248.4875
1282.22882	24146.4875
1285.76211	25319.3875
1289.29301	26812.5875
1292.82151	28351.9875
1296.34761	30107.4875
1299.87133	32272.0875
1303.39266	34679.6875
1306.9116	37254.2875
1310.42815	39736.7875
1313.94233	41391.7875
1317.45412	41047.6875
1320.96354	39094.7875
1324.47058	36796.1875
1327.97525	34901.5875
1331.47754	33629.7875
1334.97747	32687.0875
1338.47502	31876.5875
1341.97022	31001.6875
1345.46305	30405.8875
1348.95352	30486.8875
1352.44163	31678.2875
1355.92738	34091.7875
1359.41078	37537.8875
1362.89183	40331.7875
1366.37053	40446.1875
1369.84688	36682.4875
1373.32088	31047.7875
1376.79254	27049.9875
1380.26186	25446.6875
1383.72883	25082.4875
1387.19347	24662.4875
1390.65578	23986.5875
1394.11575	23813.9875
1397.57339	24204.3875
1401.0287	24766.9875
1404.48168	25159.0875
1407.93234	25094.8875
1411.38068	24610.7875
1414.82669	23924.6875
1418.27039	23101.9875
1421.71177	22190.1875
1425.15083	21306.9875
1428.58758	20891.9875
1432.02203	21194.8875
1435.45416	21899.3875
1438.88399	22541.0875
1442.31151	22879.7875
1445.73673	23025.0875
1449.15965	23108.5875
1452.58027	22969.3875
1455.9986	22627.2875
1459.41463	22552.1875
1462.82837	22880.9875
1466.23982	23509.1875
1469.64898	24238.9875
1473.05586	24716.3875
1476.46045	24984.3875
1479.86276	25013.1875
1483.26279	24992.7875
1486.66054	25055.6875
1490.05602	25452.0875
1493.44922	25960.5875
1496.84016	26451.2875
1500.22882	27141.1875
1503.61521	28114.4875
1506.99934	29281.1875
1510.38121	30382.2875
1513.76081	30721.1875
1517.13816	29829.1875
1520.51324	28131.4875
1523.88607	26549.9875
1527.25665	25769.6875
1530.62498	25476.4875
1533.99105	25246.7875
1537.35488	24753.8875
1540.71647	24049.6875
1544.07581	23169.4875
1547.4329	22311.7875
1550.78776	21542.4875
1554.14038	20960.7875
1557.49077	20638.4875
1560.83892	20538.9875
1564.18484	20713.1875
1567.52853	21018.9875
1570.86999	21384.0875
1574.20922	21819.6875
1577.54624	22111.4875
1580.88103	21946.7875
1584.2136	21778.1875
1587.54395	22305.8875
1590.87208	23686.0875
1594.19801	25815.9875
1597.52172	28192.2875
1600.84321	29347.1875
1604.16251	28246.1875
1607.47959	25438.0875
1610.79447	22246.5875
1614.10715	19457.5875
1617.41763	17501.6875
1620.7259	16354.6875
1624.03199	15840.4875
1627.33587	15878.9875
1630.63757	16474.1875
1633.93707	17860.1875
1637.23439	20264.7875
1640.52951	24021.2875
1643.82246	29105.0875
1647.11321	33624.0875
1650.40179	34949.8875
1653.68819	31973.4875
1656.97241	26448.3875
1660.25446	21205.1875
1663.53433	17532.4875
1666.81203	15330.3875
1670.08756	14037.3875
1673.36092	13264.5875
1676.63211	12792.2875
1679.90115	12464.7875
1683.16801	12196.5875
1686.43272	11992.7875
1689.69527	11871.0875
1692.95567	11762.5875
1696.2139	11736.6875
1699.46999	11711.6875
1702.72392	11658.2875
1705.97571	11601.7875
1709.22535	11531.8875
1712.47284	11494.6875
1715.71819	11471.0875
1718.96139	11434.9875
1722.20246	11396.2875
1725.44139	11313.4875
1728.67818	11245.8875
1731.91284	11145.2875
1735.14537	11080.6875
1738.37576	11001.1875
1741.60403	10982.6875
1744.83017	10930.5875
1748.05418	10900.8875
1751.27607	10892.5875
1754.49584	10912.6875
1757.71349	10939.5875
1760.92903	10924.0875
1764.14244	10870.1875
1767.35375	10842.7875
1770.56294	10804.0875
1773.77002	10754.4875
1776.97499	10728.2875
1780.17785	10671.8875
1783.37861	10630.4875
1786.57727	10592.3875
1789.77382	10576.1875
1792.96828	10543.6875
1796.16064	10501.6875
1799.3509	10470.6875
1802.53907	10475.2875
1805.72514	10445.0875
1808.90913	10409.8875
1812.09102	10376.0875
1815.27083	10341.0875
1818.44856	10346.6875
1821.6242	10331.8875
1824.79776	10324.1875
1827.96924	10314.6875
1831.13864	10296.2875
1834.30597	10313.3875
1837.47122	10297.5875
1840.6344	10309.4875
1843.7955	10301.9875
1846.95454	10308.2875
1850.11151	10281.4875
1853.26642	10287.2875
1856.41926	10266.6875
1859.57004	10282.9875
1862.71876	10256.8875
1865.86542	10251.1875
1869.01003	10254.4875
1872.15258	10238.8875
1875.29308	10235.3875
1878.43152	10226.0875
1881.56792	10203.3875
1884.70227	10171.4875
1887.83457	10177.9875
1890.96482	10170.8875
1894.09304	10146.3875
1897.21921	10183.1875
1900.34335	10150.2875
1903.46544	10113.8875
1906.58551	10121.6875
1909.70353	10083.9875
1912.81953	10062.6875
1915.93349	10041.9875
1919.04543	10015.3875
1922.15534	9971.7875
1925.26322	9942.7875
1928.36908	9897.6875
1931.47292	9885.9875
1934.57473	9857.2875
1937.67453	9833.1875
1940.77232	9817.9875
1943.86808	9808.0875
1946.96184	9763.1875
1950.05358	9715.7875
1953.14331	9702.4875
1956.23103	9671.5875
1959.31675	9661.7875
1962.40046	9651.9875
1965.48217	9583.3875
1968.56188	9577.1875
1971.63959	9526.6875
1974.7153	9478.2875
1977.78901	9468.7875
1980.86073	9443.8875
1983.93046	9398.4875
1986.99819	9388.7875
1990.06394	9342.6875
1993.1277	9329.2875
1996.18947	9287.5875
1999.24925	9257.1875
2002.30706	9250.9875
2005.36288	9221.6875
2008.41672	9184.1875
2011.46859	9157.5875
2014.51848	9134.3875
2017.56639	9106.2875
2020.61233	9071.4875
2023.6563	9087.9875
2026.6983	9068.4875
2029.73833	9047.0875
2032.7764	9021.6875
2035.8125	9003.3875
2038.84664	8988.0875
2041.87881	8988.7875
2044.90903	8966.9875
2047.93729	8931.4875
2050.96359	8947.3875
2053.98794	8945.6875
2057.01034	8935.9875
2060.03078	8900.0875
2063.04927	8909.5875
2066.06582	8882.4875
2069.08042	8889.9875
2072.09307	8890.7875
2075.10378	8868.4875
2078.11255	8876.0875
2081.11938	8880.1875
2084.12426	8840.3875
2087.12722	8856.7875
2090.12824	8865.3875
2093.12732	8835.0875
2096.12447	8860.9875
2099.11969	8841.3875
2102.11299	8844.8875
2105.10435	8869.3875
2108.09379	8846.2875
2111.08131	8861.0875
2114.0669	8846.7875
2117.05057	8863.8875
2120.03233	8865.2875
2123.01216	8868.1875
2125.99008	8875.3875
2128.96609	8895.7875
2131.94018	8881.0875
2134.91236	8900.0875
2137.88263	8870.9875
2140.851	8879.6875
2143.81746	8882.0875
2146.78201	8898.9875
2149.74466	8887.9875
2152.7054	8883.9875
2155.66425	8862.2875
2158.6212	8855.9875
2161.57625	8873.3875
2164.52941	8876.4875
2167.48067	8875.9875
2170.43004	8851.6875
2173.37752	8862.9875
2176.32311	8844.7875
2179.26681	8851.5875
2182.20863	8876.4875
2185.14856	8860.9875
2188.08661	8876.0875
2191.02278	8848.4875
2193.95707	8852.0875
2196.88948	8846.1875
2199.82001	8839.6875
2202.74867	8831.0875
2205.67545	8828.1875
2208.60037	8817.4875
2211.52341	8798.9875
2214.44458	8790.0875
2217.36388	8779.6875
2220.28132	8758.9875
2223.1969	8772.6875
2226.11061	8793.7875
2229.02246	8726.7875
2231.93245	8726.8875
2234.84058	8719.4875
2237.74686	8713.6875
2240.65128	8673.2875
2243.55385	8687.5875
2246.45456	8651.7875
2249.35343	8627.6875
2252.25044	8643.7875
2255.14561	8621.9875
2258.03893	8600.0875
2260.93041	8596.7875
2263.82004	8576.3875
2266.70783	8536.7875
2269.59378	8515.8875
2272.4779	8496.1875
2275.36017	8464.3875
2278.24061	8457.8875
2281.11922	8439.6875
2283.996	8423.9875
2286.87094	8430.7875
2289.74405	8394.7875
2292.61534	8393.5875
2295.4848	8391.9875
2298.35243	8387.4875
2301.21824	8403.8875
2304.08223	8374.0875
2306.94439	8387.4875
2309.80474	8372.2875
2312.66327	8375.5875
2315.51999	8376.7875
2318.37489	8362.5875
2321.22797	8343.3875
2324.07925	8315.2875
2326.92871	8333.9875
2329.77637	8353.8875
2332.62222	8326.7875
2335.46626	8325.5875
2338.3085	8342.5875
2341.14893	8343.3875
2343.98756	8325.8875
2346.8244	8320.6875
2349.65943	8310.8875
2352.49267	8325.3875
2355.32411	8338.9875
2358.15376	8353.1875
2360.98161	8328.4875
2363.80768	8328.3875
2366.63195	8321.4875
2369.45444	8327.9875
2372.27514	8311.5875
2375.09405	8276.7875
2377.91118	8258.1875
2380.72652	8252.8875
2383.54009	8238.4875
2386.35187	8215.9875
2389.16188	8172.7875
2391.97011	8148.6875
2394.77657	8167.2875
2397.58125	8150.4875
2400.38416	8140.9875
2403.18529	8119.3875
2405.98466	8119.9875
2408.78226	8089.6875
2411.57809	8075.9875
2414.37216	8084.9875
2417.16446	8074.2875
2419.955	8062.7875
2422.74378	8066.2875
2425.5308	8053.3875
2428.31606	8050.3875
2431.09956	8039.7875
2433.88131	8045.5875
2436.6613	8028.7875
2439.43954	8028.0875
2442.21603	8023.8875
2444.99077	8021.0875
2447.76377	8031.9875
2450.53501	8034.6875
2453.30451	8035.0875
2456.07226	8050.9875
2458.83827	8046.3875
2461.60254	8034.0875
2464.36507	8028.0875
2467.12586	8068.8875
2469.88492	8014.8875
2472.64224	8064.7875
2475.39782	8030.1875
2478.15167	8068.3875
2480.90379	8044.5875
2483.65417	8043.8875
2486.40283	8057.7875
2489.14976	8053.4875
2491.89497	8048.9875
2494.63845	8097.6875
2497.3802	8059.3875
2500.12024	8076.7875
2502.85855	8043.9875
2505.59514	8045.8875
2508.33002	8014.0875
2511.06318	8024.2875
2513.79462	7980.8875
2516.52435	7987.0875
2519.25237	7992.1875
2521.97867	7963.3875
2524.70327	7967.7875
2527.42616	7962.5875
2530.14734	7948.9875
2532.86681	7928.7875
2535.58458	7953.2875
2538.30065	7917.1875
2541.01501	7910.5875
2543.72768	7895.8875
2546.43864	7913.2875
2549.14791	7898.2875
2551.85548	7889.8875
2554.56136	7906.4875
2557.26554	7882.7875
2559.96803	7897.6875
2562.66883	7917.0875
2565.36794	7898.5875
2568.06536	7877.9875
2570.7611	7877.7875
2573.45514	7871.1875
2576.14751	7871.4875
2578.83819	7875.3875
2581.52719	7871.2875
2584.21451	7854.4875
2586.90015	7866.2875
2589.58411	7825.1875
2592.2664	7832.8875
2594.94701	7840.0875
2597.62594	7841.6875
2600.30321	7805.0875
2602.9788	7803.2875
2605.65273	7796.4875
2608.32498	7799.3875
2610.99557	7812.7875
2613.66449	7798.9875
2616.33175	7792.8875
2618.99734	7798.9875
2621.66128	7800.3875
2624.32355	7796.5875
2626.98416	7787.3875
2629.64311	7770.7875
2632.30041	7778.0875
2634.95605	7766.4875
2637.61004	7752.5875
2640.26238	7748.4875
2642.91306	7750.7875
2645.56209	7733.6875
2648.20948	7750.9875
2650.85521	7747.0875
2653.4993	7743.0875
2656.14175	7747.5875
2658.78255	7746.5875
2661.42171	7764.5875
2664.05923	7772.2875
2666.6951	7777.2875
2669.32934	7773.2875
2671.96194	7782.4875
2674.59291	7792.1875
2677.22224	7791.7875
2679.84993	7782.7875
2682.476	7768.4875
2685.10043	7757.1875
2687.72324	7768.2875
2690.34441	7767.9875
2692.96396	7734.9875
2695.58188	7766.7875
2698.19818	7755.6875
2700.81285	7755.6875
2703.4259	7766.7875
2706.03733	7856.7875
2708.64714	7824.0875
2711.25533	7806.8875
2713.86191	7813.7875
2716.46687	7789.9875
2719.07021	7806.1875
2721.67194	7807.0875
2724.27206	7811.6875
2726.87057	7804.9875
2729.46747	7827.3875
2732.06276	7827.9875
2734.65644	7835.5875
2737.24852	7826.9875
2739.83899	7803.2875
2742.42786	7815.8875
2745.01513	7803.2875
2747.60079	7817.0875
2750.18486	7801.6875
2752.76733	7782.9875
2755.3482	7795.9875
2757.92747	7805.4875
2760.50515	7773.5875
2763.08123	7784.3875
2765.65573	7779.7875
2768.22863	7789.0875
2770.79994	7773.0875
2773.36967	7753.8875
2775.9378	7768.9875
2778.50435	7785.5875
2781.06932	7750.5875
2783.6327	7771.5875
2786.1945	7758.5875
2788.75471	7745.8875
2791.31335	7730.8875
2793.87041	7730.5875
2796.42589	7717.9875
2798.97979	7702.7875
2801.53212	7691.4875
2804.08288	7699.0875
2806.63206	7675.7875
2809.17967	7661.8875
2811.72571	7648.7875
2814.27018	7679.8875
2816.81308	7654.5875
2819.35442	7641.7875
2821.89419	7622.5875
2824.43239	7657.5875
2826.96904	7661.0875
2829.50412	7638.0875
2832.03763	7629.3875
2834.56959	7663.2875
2837.1	7632.8875
2839.62884	7661.0875
2842.15613	7638.0875
2844.68186	7678.9875
2847.20604	7686.8875
2849.72867	7689.6875
2852.24974	7671.4875
2854.76927	7684.6875
2857.28724	7706.6875
2859.80367	7671.8875
2862.31855	7666.8875
2864.83189	7639.7875
2867.34368	7642.0875
2869.85393	7656.1875
2872.36264	7629.4875
2874.8698	7633.1875
2877.37543	7632.1875
2879.87952	7633.7875
2882.38207	7653.9875
2884.88308	7629.9875
2887.38256	7628.1875
2889.88051	7646.1875
2892.37692	7665.5875
2894.8718	7645.3875
2897.36515	7670.8875
2899.85698	7667.5875
2902.34727	7684.5875
2904.83604	7659.9875
2907.32328	7696.5875
2909.809	7691.1875
2912.29319	7712.6875
2914.77587	7709.1875
2917.25702	7719.9875
2919.73665	7697.8875
2922.21476	7694.6875
2924.69136	7720.7875
2927.16644	7727.2875
2929.64	7677.2875
2932.11205	7697.9875
2934.58258	7665.2875
2937.05161	7675.6875
2939.51912	7685.6875
2941.98513	7677.6875
2944.44962	7662.0875
2946.91261	7617.4875
2949.37409	7629.1875
2951.83407	7599.9875
2954.29254	7598.2875
2956.74951	7597.5875
2959.20498	7597.5875
2961.65895	7573.7875
2964.11142	7552.9875
2966.56239	7521.2875
2969.01186	7527.5875
2971.45984	7487.1875
2973.90632	7453.1875
2976.35131	7442.8875
2978.7948	7416.1875
2981.23681	7404.6875
2983.67732	7401.3875
2986.11635	7374.1875
2988.55388	7334.1875
2990.98993	7336.7875
2993.4245	7327.7875
2995.85758	7298.2875
2998.28917	7297.1875
3000.71928	7291.7875
3003.14791	7281.1875
3005.57506	7290.5875
3008.00073	7250.9875
3010.42493	7270.1875
3012.84764	7242.8875
3015.26888	7240.7875
3017.68865	7219.8875
3020.10694	7199.2875
3022.52376	7170.3875
3024.9391	7178.5875
3027.35298	7171.1875
3029.76539	7144.1875
3032.17632	7146.1875
3034.5858	7110.1875
3036.9938	7116.3875
3039.40034	7108.0875
3041.80542	7107.6875
3044.20903	7085.2875
3046.61118	7081.2875
3049.01187	7064.7875
3051.4111	7060.2875
3053.80888	7045.4875
3056.20519	7055.4875
3058.60005	7035.7875
3060.99345	7022.1875
3063.3854	7007.8875
3065.7759	6995.6875
3068.16494	6970.8875
3070.55254	6956.6875
3072.93868	6938.7875
3075.32338	6931.7875
3077.70662	6909.6875
3080.08842	6910.5875
3082.46878	6886.8875
3084.84769	6865.1875
3087.22515	6860.1875
3089.60118	6865.2875
3091.97576	6848.0875
3094.3489	6866.0875
3096.72061	6865.6875
3099.09087	6860.6875
3101.4597	6842.3875
3103.82709	6854.4875
3106.19305	6830.8875
3108.55757	6829.7875
3110.92066	6785.0875
3113.28232	6790.8875
3115.64255	6778.5875
3118.00134	6765.0875
3120.35871	6744.1875
3122.71466	6751.4875
3125.06917	6745.3875
3127.42226	6721.9875
3129.77393	6732.1875
3132.12417	6739.0875
3134.47299	6729.2875
3136.82039	6716.5875
3139.16636	6730.6875
3141.51092	6723.9875
3143.85406	6717.5875
3146.19579	6746.4875
3148.53609	6718.7875
3150.87499	6739.1875
3153.21246	6716.2875
3155.54853	6716.8875
3157.88318	6724.1875
3160.21642	6737.7875
3162.54826	6728.1875
3164.87868	6735.4875
3167.2077	6719.1875
3169.5353	6722.1875
3171.86151	6730.3875
3174.18631	6727.1875
3176.5097	6708.8875
3178.83169	6698.8875
3181.15228	6694.5875
3183.47147	6695.6875
3185.78926	6689.8875
3188.10565	6683.8875
3190.42065	6691.9875
3192.73424	6683.8875
3195.04645	6657.3875
3197.35725	6686.9875
3199.66667	6672.4875
3201.97469	6686.7875
3204.28132	6683.9875
3206.58656	6681.6875
3208.8904	6686.1875
3211.19287	6692.4875
3213.49394	6696.8875
3215.79363	6668.5875
3218.09193	6685.7875
3220.38884	6689.9875
3222.68438	6706.5875
3224.97853	6676.1875
3227.2713	6678.4875
3229.56269	6646.9875
3231.8527	6691.6875
3234.14133	6668.4875
3236.42858	6644.9875
3238.71446	6658.1875
3240.99896	6635.1875
3243.28209	6638.5875
3245.56384	6643.5875
3247.84423	6628.1875
3250.12324	6609.0875
3252.40088	6612.7875
3254.67715	6604.3875
3256.95205	6605.5875
3259.22558	6581.3875
3261.49775	6557.2875
3263.76855	6539.5875
3266.03799	6522.6875
3268.30606	6528.5875
3270.57277	6523.2875
3272.83812	6502.4875
3275.10211	6496.9875
3277.36474	6492.3875
3279.62601	6504.1875
3281.88593	6484.3875
3284.14448	6493.3875
3286.40168	6507.2875
3288.65753	6490.1875
3290.91202	6504.7875
3293.16516	6473.3875
3295.41695	6455.1875
3297.66738	6437.9875
3299.91647	6396.1875
3302.16421	6369.9875
3304.4106	6339.9875
3306.65564	6299.5875
3308.89933	6258.2875
3311.14169	6232.6875
3313.38269	6193.2875
3315.62236	6166.2875
3317.86068	6109.4875
3320.09766	6043.4875
3322.3333	5998.8875
3324.5676	5991.0875
3326.80056	5932.5875
3329.03219	5876.9875
3331.26248	2.8875
3333.49143	-0.7125
3335.71905	-0.0125
