Data from AgNPs_FTO_APTES_UA_2um_CRN_0.1mM_R6G_10uM_NaF_0.1M_Addition_RamanShift__19__12-37-09-055.txt Node

Date: Tue Dec 21 12:37:09 GMT 2021
User: TCL
Spectrometer: QEP01345
Trigger mode: 4
Integration Time (sec): 7.000000E0
Scans to average: 10
Electric dark correction enabled: true
Nonlinearity correction enabled: false
Boxcar width: 0
XAxis mode: Raman Shifts
Number of Pixels in Spectrum: 1044
>>>>>Begin Spectral Data<<<<<
46.04893	-0.3
50.45542	-1.4
54.85868	-1.3
59.25871	0.9
63.6555	45.7
68.04907	55.8
72.43941	57
76.82654	57
81.21044	64.8
85.59113	62.6
89.96862	67.7
94.34289	68.5
98.71396	67.1
103.08183	73
107.4465	75.8
111.80798	77.5
116.16626	80.6
120.52136	79.5
124.87327	82.2
129.222	86
133.56755	94
137.90993	102.4
142.24913	107
146.58517	119.9
150.91804	138.8
155.24774	167.7
159.57429	206.5
163.89768	266
168.21792	343.3
172.53501	471.6
176.84895	652.8
181.15975	915
185.46741	1261.8
189.77193	1761.8
194.07331	2351.7
198.37157	3026.8
202.6667	3742.3
206.9587	4477.5
211.24758	5174.9
215.53334	5931.8
219.81599	6654.5
224.09553	7496.9
228.37195	8420.5
232.64527	9428.4
236.91549	10500
241.18261	11540.8
245.44663	12481.6
249.70755	13343.1
253.96539	14095.1
258.22014	14696.6
262.4718	15218.4
266.72039	15587.8
270.96589	15726.6
275.20832	15770.8
279.44768	15627.4
283.68397	15526.4
287.91719	15480.3
292.14735	15429.7
296.37445	15416.9
300.59849	15424.9
304.81948	15455.8
309.03742	15449.2
313.25231	15268.3
317.46415	14942.6
321.67296	14514.3
325.87872	14176.3
330.08145	13938.5
334.28114	13890.3
338.47781	13961.5
342.67145	14159.9
346.86207	14361.5
351.04966	14610.7
355.23424	14889.7
359.4158	15140.9
363.59435	15303.1
367.76989	15394.2
371.94243	15507.5
376.11196	15546.7
380.27849	15598.6
384.44203	15700.2
388.60257	15865.4
392.76012	16021.9
396.91468	16259.5
401.06626	16479.8
405.21485	16686.5
409.36047	16634.2
413.50311	16446.8
417.64277	16307.2
421.77947	16332
425.9132	16426.1
430.04396	16612
434.17176	16759.3
438.2966	16917.4
442.41849	17274.1
446.53742	17885.6
450.6534	18579.1
454.76644	19116.4
458.87653	19214.6
462.98368	18956.8
467.08789	18542.7
471.18916	18153.6
475.2875	17889.1
479.38291	17814.5
483.4754	17763.6
487.56496	17596.7
491.6516	17240.3
495.73531	16940.8
499.81612	16723.5
503.89401	16770.3
507.96899	16817.5
512.04106	16659.7
516.11023	16383
520.1765	16071.6
524.23987	15860.3
528.30034	15780.3
532.35792	15675.2
536.41261	15510.1
540.46441	15287.2
544.51333	15236.9
548.55936	15370.4
552.60252	15766.9
556.64279	16278.9
560.6802	16732.2
564.71473	16954
568.7464	17288.9
572.7752	17840.5
576.80114	18364.7
580.82422	18862.9
584.84444	19344.5
588.86181	20006.7
592.87633	20770.6
596.888	21084.2
600.89682	20583.8
604.9028	20450.1
608.90594	21457.8
612.90624	22507.2
616.90371	20742.7
620.89834	17183.9
624.89015	15579.9
628.87913	15439
632.86528	15622.1
636.84862	15670
640.82913	15466.3
644.80683	15021.5
648.78172	14630.9
652.75379	14486.3
656.72306	14591
660.68952	14790.7
664.65319	14705.1
668.61405	14504.3
672.57211	14480.1
676.52738	14591.6
680.47986	14604.4
684.42955	14456.2
688.37646	14325.8
692.32058	14262.4
696.26192	14375.1
700.20048	14554.5
704.13626	14719.2
708.06928	14764.1
711.99952	14667.5
715.927	14578
719.85171	14605.5
723.77365	14592.1
727.69284	14444.9
731.60928	14315.5
735.52295	14305.6
739.43388	14351.6
743.34206	14345.2
747.24749	14469.3
751.15017	14589.7
755.05012	14841
758.94733	15370.7
762.8418	16274.8
766.73354	17676.9
770.62254	19010.8
774.50882	19185.5
778.39237	18094
782.27321	16588.6
786.15132	15325.7
790.02671	14504
793.89938	14128.8
797.76935	14004.5
801.6366	13994.1
805.50115	14014.1
809.36299	13885.4
813.22213	13720.2
817.07857	13598.5
820.93231	13510.1
824.78336	13376.8
828.63172	13300.9
832.47738	13272.9
836.32036	13256.1
840.16066	13289.9
843.99827	13242.4
847.8332	13223.5
851.66546	13153.7
855.49504	13170.9
859.32195	13187.9
863.1462	13181.8
866.96777	13120.3
870.78668	13120.4
874.60293	13123.6
878.41652	13116.4
882.22745	13139.1
886.03573	13184.4
889.84136	13210.3
893.64433	13151.4
897.44466	13071.2
901.24235	12995
905.0374	12879.7
908.8298	12794.7
912.61957	12783.4
916.40671	12913.4
920.19121	13130.6
923.97308	13351.9
927.75233	13386.6
931.52895	13271.7
935.30295	13035.9
939.07433	12725.2
942.84309	12481.4
946.60924	12352.4
950.37278	12310.8
954.13371	12275.3
957.89203	12258.2
961.64774	12221.8
965.40086	12194.4
969.15137	12152.4
972.89929	12037
976.64461	11921.2
980.38733	11880.2
984.12747	11896.9
987.86502	12001
991.59999	12127.1
995.33237	12321.8
999.06217	12747.8
1002.78939	13235.6
1006.51404	13620.1
1010.23611	13926.7
1013.95561	14126.4
1017.67255	14161.7
1021.38692	13969.9
1025.09872	13598.2
1028.80796	13330.3
1032.51465	13385.7
1036.21877	13593.6
1039.92035	13695.7
1043.61937	13647.8
1047.31584	13484.5
1051.00976	13320.5
1054.70114	13259
1058.38998	13237.7
1062.07627	13336.5
1065.76003	13483.7
1069.44126	13616.5
1073.11995	13849.2
1076.79611	14019.9
1080.46974	14119.1
1084.14085	14210.1
1087.80943	14415.6
1091.47549	14598.4
1095.13903	14702.3
1098.80005	14486.4
1102.45857	14087
1106.11456	13737.2
1109.76805	13574
1113.41903	13611.4
1117.06751	13706.6
1120.71348	13914.9
1124.35696	14178.1
1127.99793	14401.7
1131.63641	14546.5
1135.2724	14561
1138.90589	14493.1
1142.5369	14460.2
1146.16542	14525.9
1149.79145	14655.7
1153.415	14835.6
1157.03607	15156.4
1160.65467	15693.7
1164.27079	16647.2
1167.88443	17869.4
1171.49561	19333.8
1175.10432	21162.7
1178.71056	23367.8
1182.31434	25387.3
1185.91565	26374.8
1189.51451	26095.6
1193.11091	25153.1
1196.70485	23910.2
1200.29634	22578.8
1203.88538	21573.7
1207.47197	20883.5
1211.05612	20353.8
1214.63782	19877.4
1218.21708	19529.7
1221.79391	19343.9
1225.36829	19242.3
1228.94024	19003
1232.50976	18468.3
1236.07685	17886.3
1239.6415	17517.6
1243.20374	17361.7
1246.76355	17405.8
1250.32093	17649.5
1253.8759	18080.6
1257.42845	18695.6
1260.97859	19332.8
1264.52631	19977.9
1268.07163	20640.5
1271.61453	21397.2
1275.15503	22176.7
1278.69312	23042.7
1282.22882	23885.5
1285.76211	24797.7
1289.29301	25899.8
1292.82151	27257.7
1296.34761	28879.8
1299.87133	30894.3
1303.39266	33078.6
1306.9116	35260.4
1310.42815	37436.6
1313.94233	39070.1
1317.45412	39527.4
1320.96354	39054.1
1324.47058	38323.3
1327.97525	37534.9
1331.47754	36855.8
1334.97747	36452.1
1338.47502	36088.1
1341.97022	35434.8
1345.46305	34581.3
1348.95352	33690.2
1352.44163	33190.1
1355.92738	33631.4
1359.41078	34886.9
1362.89183	35958.4
1366.37053	35805.1
1369.84688	33348.1
1373.32088	29528.8
1376.79254	26614.6
1380.26186	25317.1
1383.72883	25222.5
1387.19347	25287
1390.65578	25115.5
1394.11575	25303.6
1397.57339	26065.1
1401.0287	27174.6
1404.48168	28171.6
1407.93234	28632.3
1411.38068	28267.9
1414.82669	27168.4
1418.27039	25640.1
1421.71177	23970.9
1425.15083	22567.9
1428.58758	21708.2
1432.02203	21635.4
1435.45416	22210.7
1438.88399	23027.7
1442.31151	23863.4
1445.73673	24583
1449.15965	25225.9
1452.58027	25617
1455.9986	25630.9
1459.41463	25809.9
1462.82837	26232.3
1466.23982	26938.5
1469.64898	27653.4
1473.05586	27999.2
1476.46045	28017.9
1479.86276	27775.4
1483.26279	27347.8
1486.66054	26901.9
1490.05602	26767.1
1493.44922	26692.9
1496.84016	26482.8
1500.22882	26333.8
1503.61521	26494.6
1506.99934	26985
1510.38121	27446.1
1513.76081	27463.7
1517.13816	26909.6
1520.51324	25990.5
1523.88607	25158.3
1527.25665	24803.6
1530.62498	24762.7
1533.99105	24847.2
1537.35488	24848.1
1540.71647	24533.1
1544.07581	24005
1547.4329	23309.9
1550.78776	22619.4
1554.14038	22124.4
1557.49077	21787.9
1560.83892	21660.7
1564.18484	21628.4
1567.52853	21636.3
1570.86999	21768.6
1574.20922	22078.4
1577.54624	22425.1
1580.88103	22548.9
1584.2136	22751.4
1587.54395	23550.3
1590.87208	25071.3
1594.19801	27186
1597.52172	29446
1600.84321	30610.6
1604.16251	29606.4
1607.47959	26976.5
1610.79447	23867.8
1614.10715	20990.1
1617.41763	18700.9
1620.7259	17153.3
1624.03199	16351.1
1627.33587	16187
1630.63757	16735.8
1633.93707	18074.8
1637.23439	20422.2
1640.52951	24001.5
1643.82246	28415.8
1647.11321	32131.2
1650.40179	33008
1653.68819	30512.8
1656.97241	25840
1660.25446	21120.1
1663.53433	17574.5
1666.81203	15277.1
1670.08756	13864.2
1673.36092	12966.5
1676.63211	12413.3
1679.90115	12017.2
1683.16801	11728.8
1686.43272	11515
1689.69527	11363.5
1692.95567	11211.9
1696.2139	11154.3
1699.46999	11103.2
1702.72392	11020.8
1705.97571	10965.7
1709.22535	10906.5
1712.47284	10848.1
1715.71819	10807
1718.96139	10749.2
1722.20246	10694.8
1725.44139	10602.1
1728.67818	10528
1731.91284	10468.7
1735.14537	10378.2
1738.37576	10331.6
1741.60403	10318.3
1744.83017	10270
1748.05418	10267.2
1751.27607	10286.5
1754.49584	10304.9
1757.71349	10285.4
1760.92903	10241.8
1764.14244	10216.1
1767.35375	10171.9
1770.56294	10152.2
1773.77002	10074.7
1776.97499	10016.4
1780.17785	9958.4
1783.37861	9945.7
1786.57727	9905.5
1789.77382	9870.2
1792.96828	9837.3
1796.16064	9815.6
1799.3509	9778.6
1802.53907	9739
1805.72514	9725.2
1808.90913	9711.1
1812.09102	9637.4
1815.27083	9634
1818.44856	9601.7
1821.6242	9593
1824.79776	9571.4
1827.96924	9567
1831.13864	9565.1
1834.30597	9565.8
1837.47122	9540
1840.6344	9548
1843.7955	9543.9
1846.95454	9539.6
1850.11151	9541.1
1853.26642	9545.1
1856.41926	9550.2
1859.57004	9544.1
1862.71876	9515.9
1865.86542	9503.1
1869.01003	9504.6
1872.15258	9492.8
1875.29308	9494
1878.43152	9486.4
1881.56792	9474.2
1884.70227	9463.8
1887.83457	9472.5
1890.96482	9448.7
1894.09304	9406
1897.21921	9417.7
1900.34335	9432.5
1903.46544	9437.7
1906.58551	9427.7
1909.70353	9409.5
1912.81953	9385.5
1915.93349	9339.1
1919.04543	9322.1
1922.15534	9287.6
1925.26322	9265
1928.36908	9232.3
1931.47292	9194.8
1934.57473	9151.9
1937.67453	9144.5
1940.77232	9106.1
1943.86808	9080.9
1946.96184	9041.2
1950.05358	9011.3
1953.14331	8983
1956.23103	8922.6
1959.31675	8902.2
1962.40046	8890.7
1965.48217	8851.3
1968.56188	8835.2
1971.63959	8777.1
1974.7153	8769.2
1977.78901	8720.3
1980.86073	8685.5
1983.93046	8654.2
1986.99819	8643
1990.06394	8614.5
1993.1277	8570.7
1996.18947	8554
1999.24925	8526.2
2002.30706	8485.6
2005.36288	8470.9
2008.41672	8453.4
2011.46859	8411.3
2014.51848	8398.2
2017.56639	8371.4
2020.61233	8347.3
2023.6563	8351.6
2026.6983	8321.4
2029.73833	8303.5
2032.7764	8300.4
2035.8125	8282
2038.84664	8256.3
2041.87881	8266.4
2044.90903	8241.2
2047.93729	8216.8
2050.96359	8193.8
2053.98794	8205.4
2057.01034	8174.9
2060.03078	8189.1
2063.04927	8147.8
2066.06582	8132.4
2069.08042	8143.7
2072.09307	8132.5
2075.10378	8138.1
2078.11255	8106.2
2081.11938	8119.9
2084.12426	8094.9
2087.12722	8094.1
2090.12824	8104.8
2093.12732	8067
2096.12447	8096.7
2099.11969	8098.4
2102.11299	8069
2105.10435	8069.9
2108.09379	8062.6
2111.08131	8067.2
2114.0669	8065.1
2117.05057	8060.8
2120.03233	8067.5
2123.01216	8057.9
2125.99008	8067.7
2128.96609	8065
2131.94018	8084.3
2134.91236	8073.2
2137.88263	8061.5
2140.851	8056.1
2143.81746	8092.8
2146.78201	8051.5
2149.74466	8073.5
2152.7054	8050.8
2155.66425	8050.8
2158.6212	8067.6
2161.57625	8032.1
2164.52941	8037.8
2167.48067	8026.5
2170.43004	8028.7
2173.37752	8015.4
2176.32311	8000.5
2179.26681	8027.4
2182.20863	8020.3
2185.14856	8007.6
2188.08661	8020.7
2191.02278	8016.4
2193.95707	7982.9
2196.88948	7983.7
2199.82001	8010.1
2202.74867	7986.8
2205.67545	7970.1
2208.60037	7947.1
2211.52341	7952.3
2214.44458	7936.3
2217.36388	7904.7
2220.28132	7890
2223.1969	7874.7
2226.11061	7890.5
2229.02246	7857.4
2231.93245	7845.3
2234.84058	7828.5
2237.74686	7835.2
2240.65128	7821.8
2243.55385	7794
2246.45456	7794.2
2249.35343	7744.8
2252.25044	7749.7
2255.14561	7733.9
2258.03893	7734.7
2260.93041	7718.2
2263.82004	7670.6
2266.70783	7657.9
2269.59378	7622.2
2272.4779	7593.9
2275.36017	7589.9
2278.24061	7579
2281.11922	7560.7
2283.996	7518.3
2286.87094	7535.9
2289.74405	7499.1
2292.61534	7496.8
2295.4848	7482.2
2298.35243	7490.5
2301.21824	7470.9
2304.08223	7490.4
2306.94439	7491.6
2309.80474	7478.3
2312.66327	7466.2
2315.51999	7448.6
2318.37489	7469
2321.22797	7446.8
2324.07925	7439.3
2326.92871	7454.7
2329.77637	7441.6
2332.62222	7425.8
2335.46626	7416.1
2338.3085	7419.7
2341.14893	7405.7
2343.98756	7438.1
2346.8244	7411.5
2349.65943	7419.4
2352.49267	7422.9
2355.32411	7415.6
2358.15376	7430.9
2360.98161	7404.4
2363.80768	7408.8
2366.63195	7404.2
2369.45444	7383.5
2372.27514	7373.3
2375.09405	7359.2
2377.91118	7360.4
2380.72652	7324
2383.54009	7313
2386.35187	7288.6
2389.16188	7269.1
2391.97011	7237.9
2394.77657	7230.7
2397.58125	7228.1
2400.38416	7223.4
2403.18529	7205.4
2405.98466	7206
2408.78226	7171.5
2411.57809	7150.1
2414.37216	7152.4
2417.16446	7143.9
2419.955	7141.9
2422.74378	7133.6
2425.5308	7122.4
2428.31606	7112.1
2431.09956	7114.3
2433.88131	7101
2436.6613	7108.8
2439.43954	7076.5
2442.21603	7072.4
2444.99077	7083.1
2447.76377	7103.3
2450.53501	7073.6
2453.30451	7084.9
2456.07226	7091.5
2458.83827	7088.4
2461.60254	7100.2
2464.36507	7076.5
2467.12586	7068.4
2469.88492	7091.6
2472.64224	7086.6
2475.39782	7098.6
2478.15167	7110.5
2480.90379	7104.7
2483.65417	7109.5
2486.40283	7110.2
2489.14976	7103.9
2491.89497	7088.7
2494.63845	7128.2
2497.3802	7130.9
2500.12024	7105.9
2502.85855	7109.2
2505.59514	7086.4
2508.33002	7075.2
2511.06318	7075
2513.79462	7083.1
2516.52435	7063.1
2519.25237	7067.9
2521.97867	7041.1
2524.70327	7062
2527.42616	7030
2530.14734	7047.7
2532.86681	7038.5
2535.58458	7015.4
2538.30065	7024
2541.01501	7019.9
2543.72768	7010.8
2546.43864	6987.8
2549.14791	6975
2551.85548	6998.4
2554.56136	6991.7
2557.26554	6975.6
2559.96803	6974.5
2562.66883	6964.2
2565.36794	6959.7
2568.06536	6960.6
2570.7611	6970.4
2573.45514	6951.9
2576.14751	6955.3
2578.83819	6953.3
2581.52719	6971.9
2584.21451	6943.6
2586.90015	6943.2
2589.58411	6933.4
2592.2664	6913.6
2594.94701	6913.1
2597.62594	6922
2600.30321	6923.8
2602.9788	6917
2605.65273	6897.9
2608.32498	6909.2
2610.99557	6925.9
2613.66449	6938.2
2616.33175	6915.2
2618.99734	6914
2621.66128	6932.6
2624.32355	6905.7
2626.98416	6932.2
2629.64311	6917.8
2632.30041	6933.2
2634.95605	6929.9
2637.61004	6920.3
2640.26238	6923.6
2642.91306	6898.6
2645.56209	6897.4
2648.20948	6913.8
2650.85521	6929.1
2653.4993	6913.5
2656.14175	6911.5
2658.78255	6915.7
2661.42171	6915
2664.05923	6932.1
2666.6951	6917.9
2669.32934	6926
2671.96194	6931.6
2674.59291	6919.2
2677.22224	6924.9
2679.84993	6922.2
2682.476	6903.5
2685.10043	6902.9
2687.72324	6892.3
2690.34441	6897.3
2692.96396	6897.4
2695.58188	6886.8
2698.19818	6890.2
2700.81285	6904.4
2703.4259	6910.6
2706.03733	6954.6
2708.64714	6950.5
2711.25533	6915.6
2713.86191	6899.2
2716.46687	6920.4
2719.07021	6926.5
2721.67194	6930.8
2724.27206	6917.6
2726.87057	6932.7
2729.46747	6924
2732.06276	6963.5
2734.65644	6948.7
2737.24852	6961.3
2739.83899	6945.8
2742.42786	6949.1
2745.01513	6936.2
2747.60079	6920
2750.18486	6935.9
2752.76733	6934.2
2755.3482	6921.6
2757.92747	6950.1
2760.50515	6933
2763.08123	6925.2
2765.65573	6938.6
2768.22863	6944.9
2770.79994	6957.5
2773.36967	6942.6
2775.9378	6953.4
2778.50435	6949.4
2781.06932	6951.3
2783.6327	6953.9
2786.1945	6941.3
2788.75471	6932.1
2791.31335	6944.4
2793.87041	6898.4
2796.42589	6894.7
2798.97979	6909.2
2801.53212	6905
2804.08288	6914.7
2806.63206	6906.6
2809.17967	6875.8
2811.72571	6858.8
2814.27018	6863.4
2816.81308	6855.8
2819.35442	6854.8
2821.89419	6843.9
2824.43239	6827
2826.96904	6827.8
2829.50412	6834.7
2832.03763	6808.3
2834.56959	6803.5
2837.1	6811.2
2839.62884	6804.3
2842.15613	6802.1
2844.68186	6781.5
2847.20604	6814.7
2849.72867	6831.9
2852.24974	6790.1
2854.76927	6784.6
2857.28724	6821.2
2859.80367	6793.8
2862.31855	6791.5
2864.83189	6750.1
2867.34368	6764.1
2869.85393	6758.3
2872.36264	6751
2874.8698	6752.2
2877.37543	6761.3
2879.87952	6752.5
2882.38207	6777.2
2884.88308	6752.1
2887.38256	6746.8
2889.88051	6759.4
2892.37692	6775.7
2894.8718	6776
2897.36515	6799.6
2899.85698	6792.3
2902.34727	6811.2
2904.83604	6819.2
2907.32328	6826.5
2909.809	6832.8
2912.29319	6839.2
2914.77587	6859.6
2917.25702	6851.6
2919.73665	6847.8
2922.21476	6844.9
2924.69136	6840.6
2927.16644	6847.2
2929.64	6849.6
2932.11205	6855
2934.58258	6831.9
2937.05161	6849.6
2939.51912	6830.6
2941.98513	6830.1
2944.44962	6807.6
2946.91261	6803
2949.37409	6789
2951.83407	6769.7
2954.29254	6764.1
2956.74951	6756.7
2959.20498	6747.1
2961.65895	6721.8
2964.11142	6696.6
2966.56239	6681.5
2969.01186	6682.2
2971.45984	6659.9
2973.90632	6618.8
2976.35131	6592.5
2978.7948	6571.6
2981.23681	6565.2
2983.67732	6527.2
2986.11635	6539.3
2988.55388	6492.7
2990.98993	6491.5
2993.4245	6465.2
2995.85758	6452.8
2998.28917	6431.3
3000.71928	6444.9
3003.14791	6408.6
3005.57506	6415.9
3008.00073	6402.1
3010.42493	6397.2
3012.84764	6372.5
3015.26888	6358.6
3017.68865	6326.2
3020.10694	6316.1
3022.52376	6302.9
3024.9391	6304.8
3027.35298	6291.3
3029.76539	6283.1
3032.17632	6264.9
3034.5858	6245.6
3036.9938	6243.8
3039.40034	6255.7
3041.80542	6249.3
3044.20903	6209.4
3046.61118	6231.9
3049.01187	6210.1
3051.4111	6210.3
3053.80888	6189.1
3056.20519	6177.6
3058.60005	6161.5
3060.99345	6147.7
3063.3854	6136.4
3065.7759	6123.6
3068.16494	6096.2
3070.55254	6075
3072.93868	6067.4
3075.32338	6046.7
3077.70662	6021.4
3080.08842	6022.2
3082.46878	6012.1
3084.84769	5995
3087.22515	5981.3
3089.60118	5984.5
3091.97576	5971.8
3094.3489	5977.7
3096.72061	5990
3099.09087	5969.2
3101.4597	5957.2
3103.82709	5972.1
3106.19305	5953.4
3108.55757	5934.8
3110.92066	5922.3
3113.28232	5910
3115.64255	5874.2
3118.00134	5882.8
3120.35871	5866.1
3122.71466	5849.2
3125.06917	5853.7
3127.42226	5851.6
3129.77393	5852.7
3132.12417	5828.4
3134.47299	5841.6
3136.82039	5820.9
3139.16636	5831.6
3141.51092	5823.3
3143.85406	5812.5
3146.19579	5816.7
3148.53609	5826.6
3150.87499	5812.3
3153.21246	5819.8
3155.54853	5827
3157.88318	5814.8
3160.21642	5818.8
3162.54826	5824.4
3164.87868	5793.1
3167.2077	5784.7
3169.5353	5803.4
3171.86151	5794
3174.18631	5794
3176.5097	5790.4
3178.83169	5790.2
3181.15228	5795.7
3183.47147	5782.9
3185.78926	5771.2
3188.10565	5788.3
3190.42065	5779.9
3192.73424	5783.7
3195.04645	5772.4
3197.35725	5769.5
3199.66667	5777.5
3201.97469	5779.7
3204.28132	5785.9
3206.58656	5777.8
3208.8904	5790.1
3211.19287	5779.8
3213.49394	5780
3215.79363	5765.6
3218.09193	5777.1
3220.38884	5780.4
3222.68438	5786.9
3224.97853	5761.2
3227.2713	5753.1
3229.56269	5767.1
3231.8527	5770.8
3234.14133	5741.1
3236.42858	5738.7
3238.71446	5749.3
3240.99896	5721.1
3243.28209	5729
3245.56384	5703.4
3247.84423	5729.2
3250.12324	5709.7
3252.40088	5701.9
3254.67715	5694.2
3256.95205	5683.3
3259.22558	5670.6
3261.49775	5643.1
3263.76855	5635
3266.03799	5623
3268.30606	5611.1
3270.57277	5596.5
3272.83812	5609.6
3275.10211	5610.1
3277.36474	5578
3279.62601	5592.1
3281.88593	5597.4
3284.14448	5596.7
3286.40168	5586.3
3288.65753	5579.3
3290.91202	5580.1
3293.16516	5566.5
3295.41695	5548.7
3297.66738	5515.4
3299.91647	5481.7
3302.16421	5453.1
3304.4106	5411
3306.65564	5396.4
3308.89933	5377.1
3311.14169	5351
3313.38269	5296.3
3315.62236	5282.3
3317.86068	5221.3
3320.09766	5185.1
3322.3333	5128.9
3324.5676	5132.5
3326.80056	5074.5
3329.03219	5022.6
3331.26248	2.8
3333.49143	-0.5
3335.71905	0.3
