Data from AgNPs_FTO_APTES_UA_50um_CRN_0.1mM_R6G_10uM_NaF_0.1M_Addition_RamanShift__2__15-05-19-224.txt Node

Date: Tue Dec 21 15:05:19 GMT 2021
User: TCL
Spectrometer: QEP01345
Trigger mode: 4
Integration Time (sec): 7.000000E0
Scans to average: 10
Electric dark correction enabled: true
Nonlinearity correction enabled: false
Boxcar width: 0
XAxis mode: Raman Shifts
Number of Pixels in Spectrum: 1044
>>>>>Begin Spectral Data<<<<<
46.04893	-0.675
50.45542	-0.075
54.85868	-0.375
59.25871	-0.675
63.6555	39.225
68.04907	45.125
72.43941	44.325
76.82654	44.925
81.21044	51.425
85.59113	55.725
89.96862	54.925
94.34289	54.525
98.71396	55.425
103.08183	58.825
107.4465	63.325
111.80798	61.425
116.16626	60.925
120.52136	65.225
124.87327	65.125
129.222	66.725
133.56755	71.725
137.90993	80.725
142.24913	78.125
146.58517	88.725
150.91804	106.325
155.24774	116.025
159.57429	142.025
163.89768	176.325
168.21792	229.525
172.53501	309.725
176.84895	425.625
181.15975	589.025
185.46741	825.625
189.77193	1140.025
194.07331	1524.825
198.37157	1956.625
202.6667	2438.825
206.9587	2913.725
211.24758	3364.525
215.53334	3845.525
219.81599	4353.625
224.09553	4905.225
228.37195	5520.525
232.64527	6212.725
236.91549	6880.425
241.18261	7570.125
245.44663	8164.725
249.70755	8687.225
253.96539	9119.025
258.22014	9459.325
262.4718	9769.925
266.72039	9990.725
270.96589	10081.825
275.20832	10080.125
279.44768	9963.125
283.68397	9865.725
287.91719	9770.025
292.14735	9703.625
296.37445	9749.225
300.59849	9862.825
304.81948	10006.025
309.03742	10077.625
313.25231	10025.525
317.46415	9816.225
321.67296	9459.525
325.87872	9142.825
330.08145	8945.825
334.28114	8908.525
338.47781	8940.125
342.67145	9085.125
346.86207	9245.725
351.04966	9469.425
355.23424	9740.325
359.4158	9923.425
363.59435	10058.925
367.76989	10140.325
371.94243	10172.625
376.11196	10186.125
380.27849	10187.125
384.44203	10239.325
388.60257	10284.625
392.76012	10344.725
396.91468	10460.725
401.06626	10658.325
405.21485	10775.625
409.36047	10679.925
413.50311	10428.725
417.64277	10154.825
421.77947	10007.425
425.9132	9982.525
430.04396	9985.925
434.17176	10046.125
438.2966	10101.025
442.41849	10223.025
446.53742	10430.525
450.6534	10691.625
454.76644	10851.625
458.87653	10918.625
462.98368	10861.425
467.08789	10756.125
471.18916	10657.325
475.2875	10561.725
479.38291	10487.625
483.4754	10415.125
487.56496	10322.025
491.6516	10217.925
495.73531	10094.125
499.81612	10032.925
503.89401	10048.525
507.96899	10123.425
512.04106	10105.625
516.11023	10078.025
520.1765	10059.025
524.23987	10015.925
528.30034	9923.025
532.35792	9825.925
536.41261	9722.625
540.46441	9580.925
544.51333	9532.925
548.55936	9608.225
552.60252	9799.925
556.64279	9989.925
560.6802	10140.825
564.71473	10214.625
568.7464	10386.425
572.7752	10635.125
576.80114	10770.025
580.82422	10899.525
584.84444	11119.225
588.86181	11349.825
592.87633	11498.725
596.888	11525.625
600.89682	11383.425
604.9028	11673.225
608.90594	12973.825
612.90624	14686.925
616.90371	14169.325
620.89834	11368.125
624.89015	9969.325
628.87913	9756.525
632.86528	9907.525
636.84862	10072.225
640.82913	9971.825
644.80683	9684.225
648.78172	9406.925
652.75379	9318.225
656.72306	9415.225
660.68952	9608.025
664.65319	9575.225
668.61405	9317.025
672.57211	9224.125
676.52738	9267.925
680.47986	9292.825
684.42955	9232.925
688.37646	9160.925
692.32058	9134.525
696.26192	9193.525
700.20048	9268.225
704.13626	9318.325
708.06928	9374.925
711.99952	9314.125
715.927	9281.225
719.85171	9286.425
723.77365	9281.325
727.69284	9178.225
731.60928	9080.225
735.52295	9057.025
739.43388	9059.325
743.34206	9063.925
747.24749	9092.025
751.15017	9157.225
755.05012	9283.125
758.94733	9585.925
762.8418	10152.825
766.73354	11188.625
770.62254	12308.625
774.50882	12754.125
778.39237	12190.025
782.27321	11074.825
786.15132	10046.925
790.02671	9417.925
793.89938	9111.625
797.76935	8969.925
801.6366	8930.825
805.50115	8888.625
809.36299	8870.025
813.22213	8808.025
817.07857	8789.825
820.93231	8732.825
824.78336	8715.825
828.63172	8665.825
832.47738	8644.725
836.32036	8625.025
840.16066	8624.825
843.99827	8586.525
847.8332	8554.825
851.66546	8505.225
855.49504	8515.125
859.32195	8513.025
863.1462	8479.025
866.96777	8447.425
870.78668	8486.525
874.60293	8487.325
878.41652	8481.325
882.22745	8536.825
886.03573	8586.625
889.84136	8591.925
893.64433	8546.325
897.44466	8498.625
901.24235	8467.625
905.0374	8404.025
908.8298	8354.525
912.61957	8327.925
916.40671	8380.825
920.19121	8473.525
923.97308	8536.825
927.75233	8578.925
931.52895	8516.325
935.30295	8434.525
939.07433	8282.925
942.84309	8104.825
946.60924	7986.425
950.37278	7968.225
954.13371	7932.925
957.89203	7937.825
961.64774	7893.125
965.40086	7888.325
969.15137	7866.925
972.89929	7828.225
976.64461	7772.325
980.38733	7788.725
984.12747	7799.525
987.86502	7824.625
991.59999	7833.825
995.33237	7926.425
999.06217	8031.125
1002.78939	8165.425
1006.51404	8326.125
1010.23611	8430.125
1013.95561	8541.725
1017.67255	8558.925
1021.38692	8505.525
1025.09872	8396.725
1028.80796	8294.525
1032.51465	8298.425
1036.21877	8332.425
1039.92035	8415.025
1043.61937	8444.025
1047.31584	8443.525
1051.00976	8397.125
1054.70114	8403.825
1058.38998	8394.325
1062.07627	8473.125
1065.76003	8527.725
1069.44126	8621.725
1073.11995	8766.825
1076.79611	8867.925
1080.46974	8934.225
1084.14085	8999.225
1087.80943	9070.225
1091.47549	9174.625
1095.13903	9200.725
1098.80005	9041.625
1102.45857	8834.625
1106.11456	8658.225
1109.76805	8568.725
1113.41903	8607.725
1117.06751	8723.525
1120.71348	8906.525
1124.35696	9140.225
1127.99793	9381.425
1131.63641	9490.925
1135.2724	9404.125
1138.90589	9224.125
1142.5369	9096.525
1146.16542	9036.825
1149.79145	9002.025
1153.415	8993.525
1157.03607	9030.925
1160.65467	9206.525
1164.27079	9525.225
1167.88443	9998.925
1171.49561	10644.825
1175.10432	11538.125
1178.71056	12654.625
1182.31434	13661.225
1185.91565	14064.025
1189.51451	13892.525
1193.11091	13372.425
1196.70485	12749.125
1200.29634	12147.825
1203.88538	11697.725
1207.47197	11306.925
1211.05612	10937.225
1214.63782	10617.625
1218.21708	10357.525
1221.79391	10169.025
1225.36829	10100.025
1228.94024	10040.425
1232.50976	9951.025
1236.07685	9841.025
1239.6415	9783.725
1243.20374	9796.925
1246.76355	9824.625
1250.32093	9937.425
1253.8759	10112.425
1257.42845	10358.325
1260.97859	10642.425
1264.52631	10966.725
1268.07163	11258.725
1271.61453	11497.825
1275.15503	11731.825
1278.69312	12026.525
1282.22882	12264.425
1285.76211	12629.825
1289.29301	13083.025
1292.82151	13668.625
1296.34761	14312.425
1299.87133	15089.225
1303.39266	15936.825
1306.9116	16973.125
1310.42815	17940.025
1313.94233	18474.425
1317.45412	18313.925
1320.96354	17709.225
1324.47058	17078.525
1327.97525	16531.725
1331.47754	16084.325
1334.97747	15833.825
1338.47502	15679.525
1341.97022	15604.625
1345.46305	15626.625
1348.95352	15842.625
1352.44163	16313.925
1355.92738	17073.825
1359.41078	18329.925
1362.89183	19638.025
1366.37053	19653.525
1369.84688	17806.625
1373.32088	15423.925
1376.79254	13761.525
1380.26186	12971.425
1383.72883	12695.725
1387.19347	12526.325
1390.65578	12269.825
1394.11575	12094.625
1397.57339	12070.125
1401.0287	12085.025
1404.48168	12065.825
1407.93234	11985.425
1411.38068	11765.025
1414.82669	11434.725
1418.27039	11103.725
1421.71177	10747.825
1425.15083	10429.925
1428.58758	10254.625
1432.02203	10273.525
1435.45416	10444.225
1438.88399	10621.425
1442.31151	10799.025
1445.73673	10885.325
1449.15965	11023.225
1452.58027	11108.325
1455.9986	11138.025
1459.41463	11201.025
1462.82837	11325.625
1466.23982	11514.925
1469.64898	11700.425
1473.05586	11845.925
1476.46045	11903.625
1479.86276	11932.425
1483.26279	11990.425
1486.66054	12080.125
1490.05602	12306.525
1493.44922	12675.025
1496.84016	13196.925
1500.22882	14004.925
1503.61521	15086.525
1506.99934	16301.625
1510.38121	17270.525
1513.76081	17540.525
1517.13816	16796.225
1520.51324	15482.825
1523.88607	14283.025
1527.25665	13506.425
1530.62498	13102.325
1533.99105	12843.125
1537.35488	12576.125
1540.71647	12265.425
1544.07581	11934.125
1547.4329	11616.025
1550.78776	11351.125
1554.14038	11186.425
1557.49077	11179.425
1560.83892	11244.925
1564.18484	11429.825
1567.52853	11661.625
1570.86999	11895.125
1574.20922	12132.625
1577.54624	12236.025
1580.88103	12061.025
1584.2136	11743.625
1587.54395	11613.325
1590.87208	11823.325
1594.19801	12262.525
1597.52172	12851.725
1600.84321	13120.925
1604.16251	12701.925
1607.47959	11868.825
1610.79447	11014.625
1614.10715	10170.425
1617.41763	9512.325
1620.7259	9055.325
1624.03199	8799.825
1627.33587	8754.925
1630.63757	8911.725
1633.93707	9340.025
1637.23439	10109.125
1640.52951	11248.625
1643.82246	12805.425
1647.11321	14441.125
1650.40179	15269.025
1653.68819	14814.325
1656.97241	13105.725
1660.25446	11160.225
1663.53433	9626.425
1666.81203	8651.625
1670.08756	8061.225
1673.36092	7673.725
1676.63211	7426.225
1679.90115	7235.225
1683.16801	7118.625
1686.43272	7033.325
1689.69527	6953.225
1692.95567	6878.725
1696.2139	6847.725
1699.46999	6790.425
1702.72392	6735.925
1705.97571	6694.825
1709.22535	6628.425
1712.47284	6597.225
1715.71819	6576.725
1718.96139	6555.925
1722.20246	6525.425
1725.44139	6488.125
1728.67818	6439.825
1731.91284	6401.025
1735.14537	6346.425
1738.37576	6322.325
1741.60403	6313.125
1744.83017	6278.925
1748.05418	6269.525
1751.27607	6270.325
1754.49584	6279.725
1757.71349	6300.425
1760.92903	6274.625
1764.14244	6255.125
1767.35375	6244.425
1770.56294	6205.925
1773.77002	6184.125
1776.97499	6118.725
1780.17785	6113.725
1783.37861	6098.225
1786.57727	6069.125
1789.77382	6046.925
1792.96828	6030.425
1796.16064	6012.325
1799.3509	5980.625
1802.53907	5963.025
1805.72514	5951.425
1808.90913	5919.225
1812.09102	5905.825
1815.27083	5910.925
1818.44856	5904.025
1821.6242	5848.025
1824.79776	5867.725
1827.96924	5860.425
1831.13864	5846.925
1834.30597	5827.325
1837.47122	5842.325
1840.6344	5818.325
1843.7955	5802.425
1846.95454	5802.825
1850.11151	5801.525
1853.26642	5790.525
1856.41926	5800.625
1859.57004	5777.825
1862.71876	5749.825
1865.86542	5756.625
1869.01003	5759.425
1872.15258	5737.125
1875.29308	5719.625
1878.43152	5721.925
1881.56792	5710.925
1884.70227	5695.225
1887.83457	5700.325
1890.96482	5686.425
1894.09304	5671.825
1897.21921	5663.625
1900.34335	5652.425
1903.46544	5665.625
1906.58551	5638.025
1909.70353	5646.025
1912.81953	5631.925
1915.93349	5624.225
1919.04543	5599.525
1922.15534	5575.025
1925.26322	5555.925
1928.36908	5535.925
1931.47292	5548.725
1934.57473	5522.825
1937.67453	5508.025
1940.77232	5482.925
1943.86808	5467.725
1946.96184	5451.525
1950.05358	5438.625
1953.14331	5431.225
1956.23103	5397.825
1959.31675	5387.825
1962.40046	5378.925
1965.48217	5361.025
1968.56188	5346.525
1971.63959	5328.825
1974.7153	5324.925
1977.78901	5284.325
1980.86073	5264.825
1983.93046	5257.325
1986.99819	5229.125
1990.06394	5231.225
1993.1277	5197.025
1996.18947	5170.825
1999.24925	5151.425
2002.30706	5139.725
2005.36288	5125.825
2008.41672	5114.325
2011.46859	5077.625
2014.51848	5074.525
2017.56639	5074.125
2020.61233	5051.225
2023.6563	5037.525
2026.6983	5005.125
2029.73833	5000.125
2032.7764	4995.025
2035.8125	4977.525
2038.84664	4943.225
2041.87881	4952.325
2044.90903	4945.825
2047.93729	4944.625
2050.96359	4951.625
2053.98794	4925.625
2057.01034	4936.725
2060.03078	4918.925
2063.04927	4896.325
2066.06582	4896.225
2069.08042	4885.025
2072.09307	4890.025
2075.10378	4863.525
2078.11255	4870.925
2081.11938	4880.525
2084.12426	4884.725
2087.12722	4876.725
2090.12824	4855.425
2093.12732	4870.425
2096.12447	4865.825
2099.11969	4864.625
2102.11299	4847.425
2105.10435	4861.925
2108.09379	4865.725
2111.08131	4873.925
2114.0669	4868.725
2117.05057	4868.925
2120.03233	4865.825
2123.01216	4864.025
2125.99008	4875.425
2128.96609	4879.625
2131.94018	4862.325
2134.91236	4865.925
2137.88263	4849.825
2140.851	4866.825
2143.81746	4846.025
2146.78201	4858.925
2149.74466	4862.425
2152.7054	4848.425
2155.66425	4831.025
2158.6212	4839.425
2161.57625	4826.825
2164.52941	4845.125
2167.48067	4832.625
2170.43004	4830.725
2173.37752	4826.425
2176.32311	4821.925
2179.26681	4821.825
2182.20863	4809.525
2185.14856	4822.025
2188.08661	4825.325
2191.02278	4816.725
2193.95707	4795.325
2196.88948	4808.125
2199.82001	4798.825
2202.74867	4790.625
2205.67545	4780.625
2208.60037	4762.425
2211.52341	4765.425
2214.44458	4754.125
2217.36388	4727.125
2220.28132	4749.425
2223.1969	4737.625
2226.11061	4715.025
2229.02246	4695.925
2231.93245	4682.125
2234.84058	4681.025
2237.74686	4667.325
2240.65128	4660.625
2243.55385	4676.125
2246.45456	4666.425
2249.35343	4632.625
2252.25044	4630.425
2255.14561	4637.525
2258.03893	4626.225
2260.93041	4626.725
2263.82004	4617.025
2266.70783	4583.125
2269.59378	4575.125
2272.4779	4574.325
2275.36017	4562.325
2278.24061	4547.925
2281.11922	4555.625
2283.996	4545.425
2286.87094	4520.225
2289.74405	4508.925
2292.61534	4501.125
2295.4848	4490.525
2298.35243	4491.525
2301.21824	4472.225
2304.08223	4497.125
2306.94439	4484.625
2309.80474	4475.425
2312.66327	4465.725
2315.51999	4463.325
2318.37489	4461.325
2321.22797	4442.625
2324.07925	4449.225
2326.92871	4443.425
2329.77637	4445.825
2332.62222	4431.625
2335.46626	4425.125
2338.3085	4432.425
2341.14893	4417.325
2343.98756	4401.925
2346.8244	4413.125
2349.65943	4401.725
2352.49267	4407.225
2355.32411	4415.625
2358.15376	4394.525
2360.98161	4409.325
2363.80768	4406.725
2366.63195	4409.325
2369.45444	4393.925
2372.27514	4387.025
2375.09405	4390.125
2377.91118	4367.825
2380.72652	4364.325
2383.54009	4351.325
2386.35187	4335.125
2389.16188	4331.225
2391.97011	4310.925
2394.77657	4303.025
2397.58125	4287.825
2400.38416	4294.725
2403.18529	4283.325
2405.98466	4279.525
2408.78226	4264.925
2411.57809	4264.025
2414.37216	4234.525
2417.16446	4260.125
2419.955	4225.425
2422.74378	4218.925
2425.5308	4219.825
2428.31606	4234.525
2431.09956	4221.725
2433.88131	4214.825
2436.6613	4205.725
2439.43954	4209.725
2442.21603	4213.425
2444.99077	4206.725
2447.76377	4208.225
2450.53501	4206.325
2453.30451	4198.625
2456.07226	4199.325
2458.83827	4197.125
2461.60254	4192.125
2464.36507	4165.425
2467.12586	4186.225
2469.88492	4180.425
2472.64224	4178.225
2475.39782	4179.725
2478.15167	4213.525
2480.90379	4180.325
2483.65417	4198.425
2486.40283	4182.625
2489.14976	4182.425
2491.89497	4177.725
2494.63845	4193.625
2497.3802	4195.325
2500.12024	4179.025
2502.85855	4174.525
2505.59514	4177.025
2508.33002	4145.625
2511.06318	4147.025
2513.79462	4135.025
2516.52435	4135.225
2519.25237	4107.825
2521.97867	4099.325
2524.70327	4097.925
2527.42616	4087.825
2530.14734	4103.325
2532.86681	4076.525
2535.58458	4080.225
2538.30065	4062.725
2541.01501	4064.725
2543.72768	4078.325
2546.43864	4078.425
2549.14791	4049.525
2551.85548	4053.725
2554.56136	4056.225
2557.26554	4017.225
2559.96803	4049.425
2562.66883	4036.425
2565.36794	4013.225
2568.06536	4027.925
2570.7611	4014.525
2573.45514	4011.925
2576.14751	4008.425
2578.83819	4011.625
2581.52719	4009.825
2584.21451	3982.225
2586.90015	3987.825
2589.58411	3980.025
2592.2664	3965.625
2594.94701	3957.025
2597.62594	3972.825
2600.30321	3963.025
2602.9788	3936.725
2605.65273	3929.225
2608.32498	3933.325
2610.99557	3932.625
2613.66449	3919.625
2616.33175	3911.725
2618.99734	3910.425
2621.66128	3917.825
2624.32355	3908.025
2626.98416	3899.125
2629.64311	3910.325
2632.30041	3890.125
2634.95605	3892.325
2637.61004	3891.725
2640.26238	3885.325
2642.91306	3899.625
2645.56209	3876.725
2648.20948	3879.925
2650.85521	3863.525
2653.4993	3862.725
2656.14175	3871.225
2658.78255	3881.125
2661.42171	3866.125
2664.05923	3887.825
2666.6951	3865.925
2669.32934	3875.825
2671.96194	3875.225
2674.59291	3873.325
2677.22224	3877.025
2679.84993	3891.325
2682.476	3864.525
2685.10043	3866.425
2687.72324	3852.625
2690.34441	3868.625
2692.96396	3871.125
2695.58188	3863.125
2698.19818	3854.725
2700.81285	3864.425
2703.4259	3877.725
2706.03733	3938.025
2708.64714	3887.725
2711.25533	3870.225
2713.86191	3878.425
2716.46687	3889.325
2719.07021	3874.025
2721.67194	3868.225
2724.27206	3870.725
2726.87057	3864.225
2729.46747	3867.225
2732.06276	3868.125
2734.65644	3865.425
2737.24852	3851.925
2739.83899	3853.325
2742.42786	3863.225
2745.01513	3846.925
2747.60079	3844.725
2750.18486	3846.725
2752.76733	3842.625
2755.3482	3824.925
2757.92747	3821.125
2760.50515	3826.725
2763.08123	3824.625
2765.65573	3819.825
2768.22863	3816.725
2770.79994	3804.625
2773.36967	3821.625
2775.9378	3798.125
2778.50435	3792.525
2781.06932	3786.025
2783.6327	3793.425
2786.1945	3791.725
2788.75471	3782.925
2791.31335	3778.425
2793.87041	3772.025
2796.42589	3747.225
2798.97979	3751.525
2801.53212	3735.725
2804.08288	3752.825
2806.63206	3730.225
2809.17967	3730.825
2811.72571	3731.425
2814.27018	3728.025
2816.81308	3727.325
2819.35442	3716.925
2821.89419	3722.225
2824.43239	3727.225
2826.96904	3719.125
2829.50412	3714.025
2832.03763	3707.125
2834.56959	3707.725
2837.1	3705.525
2839.62884	3714.625
2842.15613	3722.925
2844.68186	3733.925
2847.20604	3731.625
2849.72867	3739.325
2852.24974	3740.025
2854.76927	3750.125
2857.28724	3749.025
2859.80367	3744.925
2862.31855	3714.425
2864.83189	3713.325
2867.34368	3724.425
2869.85393	3715.925
2872.36264	3706.325
2874.8698	3705.525
2877.37543	3713.825
2879.87952	3711.425
2882.38207	3710.225
2884.88308	3708.925
2887.38256	3704.825
2889.88051	3696.525
2892.37692	3702.625
2894.8718	3706.525
2897.36515	3726.725
2899.85698	3725.625
2902.34727	3726.725
2904.83604	3712.825
2907.32328	3717.125
2909.809	3727.125
2912.29319	3730.025
2914.77587	3717.725
2917.25702	3730.125
2919.73665	3734.325
2922.21476	3737.625
2924.69136	3727.325
2927.16644	3737.025
2929.64	3729.025
2932.11205	3727.525
2934.58258	3705.425
2937.05161	3721.725
2939.51912	3714.825
2941.98513	3711.225
2944.44962	3681.825
2946.91261	3675.325
2949.37409	3687.125
2951.83407	3688.125
2954.29254	3670.525
2956.74951	3649.625
2959.20498	3649.425
2961.65895	3639.525
2964.11142	3642.725
2966.56239	3617.025
2969.01186	3608.425
2971.45984	3601.525
2973.90632	3601.025
2976.35131	3582.325
2978.7948	3573.925
2981.23681	3568.725
2983.67732	3576.125
2986.11635	3563.325
2988.55388	3539.225
2990.98993	3544.725
2993.4245	3519.325
2995.85758	3512.825
2998.28917	3505.225
3000.71928	3523.225
3003.14791	3501.225
3005.57506	3503.225
3008.00073	3500.025
3010.42493	3494.325
3012.84764	3489.825
3015.26888	3500.525
3017.68865	3480.225
3020.10694	3476.825
3022.52376	3476.825
3024.9391	3467.625
3027.35298	3473.025
3029.76539	3445.225
3032.17632	3437.525
3034.5858	3439.125
3036.9938	3435.725
3039.40034	3439.325
3041.80542	3431.525
3044.20903	3429.425
3046.61118	3432.125
3049.01187	3408.025
3051.4111	3409.825
3053.80888	3403.725
3056.20519	3391.325
3058.60005	3401.025
3060.99345	3404.025
3063.3854	3377.225
3065.7759	3391.725
3068.16494	3375.425
3070.55254	3381.225
3072.93868	3369.125
3075.32338	3365.525
3077.70662	3353.025
3080.08842	3353.825
3082.46878	3359.825
3084.84769	3345.925
3087.22515	3351.325
3089.60118	3358.725
3091.97576	3346.525
3094.3489	3345.725
3096.72061	3345.225
3099.09087	3344.225
3101.4597	3328.525
3103.82709	3348.725
3106.19305	3340.925
3108.55757	3331.325
3110.92066	3330.225
3113.28232	3348.525
3115.64255	3335.525
3118.00134	3306.525
3120.35871	3324.325
3122.71466	3306.325
3125.06917	3308.825
3127.42226	3306.125
3129.77393	3309.125
3132.12417	3304.225
3134.47299	3306.525
3136.82039	3321.725
3139.16636	3318.225
3141.51092	3328.025
3143.85406	3339.025
3146.19579	3320.525
3148.53609	3333.125
3150.87499	3336.725
3153.21246	3337.325
3155.54853	3343.225
3157.88318	3360.025
3160.21642	3356.725
3162.54826	3354.725
3164.87868	3346.125
3167.2077	3359.025
3169.5353	3364.725
3171.86151	3356.025
3174.18631	3354.025
3176.5097	3349.125
3178.83169	3366.925
3181.15228	3354.925
3183.47147	3359.525
3185.78926	3348.125
3188.10565	3361.625
3190.42065	3347.525
3192.73424	3355.225
3195.04645	3364.625
3197.35725	3357.425
3199.66667	3361.925
3201.97469	3386.425
3204.28132	3370.725
3206.58656	3377.125
3208.8904	3368.625
3211.19287	3380.625
3213.49394	3379.025
3215.79363	3381.625
3218.09193	3397.825
3220.38884	3394.025
3222.68438	3407.425
3224.97853	3380.125
3227.2713	3380.825
3229.56269	3377.725
3231.8527	3381.225
3234.14133	3370.425
3236.42858	3368.625
3238.71446	3372.825
3240.99896	3357.825
3243.28209	3359.925
3245.56384	3355.125
3247.84423	3369.325
3250.12324	3356.925
3252.40088	3351.725
3254.67715	3356.225
3256.95205	3339.625
3259.22558	3339.825
3261.49775	3336.925
3263.76855	3329.325
3266.03799	3329.925
3268.30606	3322.725
3270.57277	3312.625
3272.83812	3308.625
3275.10211	3315.325
3277.36474	3297.425
3279.62601	3305.225
3281.88593	3301.325
3284.14448	3311.025
3286.40168	3298.325
3288.65753	3287.625
3290.91202	3297.225
3293.16516	3280.425
3295.41695	3279.825
3297.66738	3265.625
3299.91647	3250.925
3302.16421	3217.325
3304.4106	3211.925
3306.65564	3200.125
3308.89933	3180.825
3311.14169	3175.725
3313.38269	3148.825
3315.62236	3119.925
3317.86068	3104.825
3320.09766	3079.025
3322.3333	3049.725
3324.5676	3054.225
3326.80056	3016.725
3329.03219	2995.825
3331.26248	-0.575
3333.49143	1.225
3335.71905	0.425
