Data from AgNPs_FTO_APTES_UA_0um_CRN_0.1mM_R6G_10uM_NaF_0.1M_Addition_RamanShift__31__10-47-28-929.txt Node

Date: Tue Dec 21 10:47:28 GMT 2021
User: TCL
Spectrometer: QEP01345
Trigger mode: 4
Integration Time (sec): 7.000000E0
Scans to average: 10
Electric dark correction enabled: true
Nonlinearity correction enabled: false
Boxcar width: 0
XAxis mode: Raman Shifts
Number of Pixels in Spectrum: 1044
>>>>>Begin Spectral Data<<<<<
46.04893	0.1
50.45542	-1.7
54.85868	0.3
59.25871	-0.1
63.6555	21.6
68.04907	25.9
72.43941	28.2
76.82654	28.6
81.21044	32
85.59113	35
89.96862	32.5
94.34289	36.3
98.71396	36.8
103.08183	41.1
107.4465	38.4
111.80798	41.7
116.16626	36
120.52136	38.6
124.87327	39.4
129.222	38.8
133.56755	40.7
137.90993	44.1
142.24913	40.6
146.58517	47.6
150.91804	50.7
155.24774	57.1
159.57429	65
163.89768	81.7
168.21792	98.8
172.53501	125.1
176.84895	171.4
181.15975	239.3
185.46741	325.2
189.77193	436.8
194.07331	584.4
198.37157	749.7
202.6667	922.4
206.9587	1095
211.24758	1259
215.53334	1441.3
219.81599	1623.9
224.09553	1819.3
228.37195	2064.3
232.64527	2326
236.91549	2568.8
241.18261	2809.5
245.44663	3029.7
249.70755	3184.1
253.96539	3320.6
258.22014	3421.5
262.4718	3506.3
266.72039	3543.7
270.96589	3547.8
275.20832	3526.9
279.44768	3454
283.68397	3373.8
287.91719	3306
292.14735	3277.5
296.37445	3303.9
300.59849	3432.7
304.81948	3607.9
309.03742	3726.9
313.25231	3742
317.46415	3571.8
321.67296	3317.7
325.87872	3072.2
330.08145	2951.5
334.28114	2937.8
338.47781	2978.2
342.67145	3069.4
346.86207	3192.5
351.04966	3386.7
355.23424	3637.8
359.4158	3819.9
363.59435	3931.5
367.76989	3971.8
371.94243	3976.8
376.11196	3942
380.27849	3906.8
384.44203	3840.6
388.60257	3767.9
392.76012	3696.5
396.91468	3694.5
401.06626	3782.7
405.21485	3864.4
409.36047	3798.8
413.50311	3596.4
417.64277	3377.2
421.77947	3262.6
425.9132	3218.1
430.04396	3219.8
434.17176	3267.5
438.2966	3362.2
442.41849	3511.6
446.53742	3716.6
450.6534	3916.3
454.76644	4013.6
458.87653	3994.4
462.98368	3868.4
467.08789	3701.1
471.18916	3559
475.2875	3400
479.38291	3271.1
483.4754	3168.7
487.56496	3110.8
491.6516	3085.5
495.73531	3070.5
499.81612	3071.5
503.89401	3105.1
507.96899	3138.7
512.04106	3211.7
516.11023	3302.7
520.1765	3371.4
524.23987	3392.9
528.30034	3346.5
532.35792	3277.1
536.41261	3207
540.46441	3093.4
544.51333	3051.3
548.55936	3065
552.60252	3112.1
556.64279	3207.4
560.6802	3272.9
564.71473	3286.8
568.7464	3358.1
572.7752	3445.9
576.80114	3350.2
580.82422	3199.1
584.84444	3144.5
588.86181	3216.4
592.87633	3425.7
596.888	3554.1
600.89682	3567.6
604.9028	3865.8
608.90594	4909.9
612.90624	6466.3
616.90371	6472.3
620.89834	4471.5
624.89015	3373.8
628.87913	3089.5
632.86528	3039.4
636.84862	3062.4
640.82913	3038.4
644.80683	2940
648.78172	2876
652.75379	2930.4
656.72306	3133
660.68952	3348.6
664.65319	3279.1
668.61405	3023.9
672.57211	2897.8
676.52738	2895.8
680.47986	2915.2
684.42955	2888.6
688.37646	2885
692.32058	2896.3
696.26192	2965.5
700.20048	3055.5
704.13626	3113.9
708.06928	3061.3
711.99952	2975.1
715.927	2914.6
719.85171	2924
723.77365	2917.4
727.69284	2900.5
731.60928	2891.3
735.52295	2914.4
739.43388	2926.8
743.34206	2920.8
747.24749	2921.7
751.15017	2920.2
755.05012	2963.8
758.94733	3120.7
762.8418	3424.2
766.73354	3996
770.62254	4666.6
774.50882	5164.4
778.39237	5096
782.27321	4428.9
786.15132	3665.2
790.02671	3228.6
793.89938	3038.4
797.76935	2972.8
801.6366	2950
805.50115	2936.2
809.36299	2929.5
813.22213	2922.4
817.07857	2904.3
820.93231	2892.6
824.78336	2894.5
828.63172	2889.9
832.47738	2907.1
836.32036	2901.6
840.16066	2880.4
843.99827	2856
847.8332	2862.7
851.66546	2876
855.49504	2900.4
859.32195	2897
863.1462	2873.8
866.96777	2831.8
870.78668	2794.9
874.60293	2779.9
878.41652	2764.5
882.22745	2781.1
886.03573	2787.1
889.84136	2785.7
893.64433	2783.6
897.44466	2772.3
901.24235	2761.6
905.0374	2748.9
908.8298	2724.4
912.61957	2722.6
916.40671	2739.4
920.19121	2784.4
923.97308	2808.2
927.75233	2861.5
931.52895	2894.8
935.30295	2866.3
939.07433	2759.6
942.84309	2648.5
946.60924	2560.5
950.37278	2501.5
954.13371	2473.2
957.89203	2446.4
961.64774	2423.7
965.40086	2405.5
969.15137	2387.1
972.89929	2377.3
976.64461	2382.6
980.38733	2383.5
984.12747	2385.4
987.86502	2395.4
991.59999	2405.7
995.33237	2447.5
999.06217	2493.5
1002.78939	2563.9
1006.51404	2589
1010.23611	2646
1013.95561	2702.3
1017.67255	2705.9
1021.38692	2671.1
1025.09872	2607.9
1028.80796	2571.5
1032.51465	2605.2
1036.21877	2684.6
1039.92035	2792.9
1043.61937	2845.6
1047.31584	2840.1
1051.00976	2796.4
1054.70114	2704.5
1058.38998	2618.7
1062.07627	2573.9
1065.76003	2548.4
1069.44126	2531.6
1073.11995	2585.1
1076.79611	2665.1
1080.46974	2737.5
1084.14085	2825.5
1087.80943	2910.5
1091.47549	2920.3
1095.13903	2850
1098.80005	2714.7
1102.45857	2604.4
1106.11456	2586.2
1109.76805	2627.8
1113.41903	2716.8
1117.06751	2851.8
1120.71348	3009.1
1124.35696	3186.6
1127.99793	3339.3
1131.63641	3324.3
1135.2724	3111.7
1138.90589	2906.3
1142.5369	2755.8
1146.16542	2693.5
1149.79145	2659.3
1153.415	2651.3
1157.03607	2686.7
1160.65467	2765.6
1164.27079	2885.4
1167.88443	3057.6
1171.49561	3360.6
1175.10432	3854
1178.71056	4543.7
1182.31434	5090.5
1185.91565	5253.3
1189.51451	5153.2
1193.11091	4808.1
1196.70485	4355.4
1200.29634	3970.7
1203.88538	3640.4
1207.47197	3319.4
1211.05612	3036.8
1214.63782	2919.6
1218.21708	2916.1
1221.79391	2933
1225.36829	2908.1
1228.94024	2866.9
1232.50976	2819.9
1236.07685	2839.1
1239.6415	2888.5
1243.20374	2954.5
1246.76355	2982.9
1250.32093	3023.5
1253.8759	3153.6
1257.42845	3325.2
1260.97859	3523.6
1264.52631	3718.8
1268.07163	3869.6
1271.61453	3970
1275.15503	3967.8
1278.69312	3904.1
1282.22882	3862
1285.76211	3941.1
1289.29301	4115
1292.82151	4306.4
1296.34761	4502.9
1299.87133	4714.9
1303.39266	5077.4
1306.9116	5644.5
1310.42815	6369.9
1313.94233	6892.7
1317.45412	6805.8
1320.96354	6245.4
1324.47058	5565.7
1327.97525	4917.9
1331.47754	4491.2
1334.97747	4349.9
1338.47502	4381.2
1341.97022	4523
1345.46305	4709.5
1348.95352	5107.6
1352.44163	5770.8
1355.92738	6689.5
1359.41078	7882.5
1362.89183	8965.7
1366.37053	8886.2
1369.84688	7566.7
1373.32088	6044.2
1376.79254	5005.3
1380.26186	4498.4
1383.72883	4270.2
1387.19347	4004.5
1390.65578	3698.8
1394.11575	3442.8
1397.57339	3315.1
1401.0287	3280
1404.48168	3302.3
1407.93234	3365.3
1411.38068	3439.3
1414.82669	3481.5
1418.27039	3483.5
1421.71177	3447.1
1425.15083	3419.6
1428.58758	3435.4
1432.02203	3502.5
1435.45416	3604.2
1438.88399	3656.3
1442.31151	3649.1
1445.73673	3641.1
1449.15965	3635.8
1452.58027	3553.6
1455.9986	3411.7
1459.41463	3310.7
1462.82837	3295.8
1466.23982	3377.4
1469.64898	3520.2
1473.05586	3650.8
1476.46045	3736.6
1479.86276	3869.6
1483.26279	3976.5
1486.66054	4049.2
1490.05602	4116.3
1493.44922	4200.8
1496.84016	4352.3
1500.22882	4655.6
1503.61521	5226
1506.99934	5952.9
1510.38121	6700.4
1513.76081	7120.1
1517.13816	6767.1
1520.51324	5813.8
1523.88607	4823.9
1527.25665	4190.3
1530.62498	3822.1
1533.99105	3695
1537.35488	3601.6
1540.71647	3543.8
1544.07581	3529.2
1547.4329	3488.4
1550.78776	3454.1
1554.14038	3400.7
1557.49077	3372.7
1560.83892	3375
1564.18484	3476.8
1567.52853	3633.2
1570.86999	3837.6
1574.20922	4023.4
1577.54624	4035.5
1580.88103	3814.1
1584.2136	3460.1
1587.54395	3265.6
1590.87208	3308.4
1594.19801	3567.8
1597.52172	4011.4
1600.84321	4362.8
1604.16251	4363.2
1607.47959	4005.7
1610.79447	3515.5
1614.10715	3042.1
1617.41763	2737.9
1620.7259	2586.7
1624.03199	2520.7
1627.33587	2531.9
1630.63757	2573.8
1633.93707	2702.3
1637.23439	2922.4
1640.52951	3293.3
1643.82246	3883.2
1647.11321	4572.6
1650.40179	5026.3
1653.68819	4867.2
1656.97241	4127
1660.25446	3292.2
1663.53433	2716.3
1666.81203	2415.5
1670.08756	2235.1
1673.36092	2128.2
1676.63211	2078.1
1679.90115	2024.9
1683.16801	1984.6
1686.43272	1946.9
1689.69527	1929.1
1692.95567	1916.7
1696.2139	1905.3
1699.46999	1899.7
1702.72392	1883.2
1705.97571	1863.6
1709.22535	1844.9
1712.47284	1845.5
1715.71819	1847.2
1718.96139	1861.7
1722.20246	1852.8
1725.44139	1836.6
1728.67818	1817.3
1731.91284	1785.6
1735.14537	1751.1
1738.37576	1723.4
1741.60403	1700.8
1744.83017	1691.6
1748.05418	1680.7
1751.27607	1672.3
1754.49584	1673.4
1757.71349	1675
1760.92903	1647.5
1764.14244	1633.4
1767.35375	1624.6
1770.56294	1606.8
1773.77002	1592.6
1776.97499	1562.2
1780.17785	1560.2
1783.37861	1551.6
1786.57727	1543.1
1789.77382	1536.8
1792.96828	1525.6
1796.16064	1512.7
1799.3509	1499.7
1802.53907	1494.5
1805.72514	1493.8
1808.90913	1481
1812.09102	1469.1
1815.27083	1468.8
1818.44856	1463.4
1821.6242	1456.8
1824.79776	1452.4
1827.96924	1440.7
1831.13864	1444.2
1834.30597	1432.1
1837.47122	1430.9
1840.6344	1427.9
1843.7955	1433.5
1846.95454	1427.4
1850.11151	1417.7
1853.26642	1408.3
1856.41926	1417.1
1859.57004	1407.4
1862.71876	1408.6
1865.86542	1404.7
1869.01003	1405.5
1872.15258	1399.6
1875.29308	1395.2
1878.43152	1393.3
1881.56792	1396.3
1884.70227	1393
1887.83457	1385.2
1890.96482	1392.8
1894.09304	1382.1
1897.21921	1381.6
1900.34335	1394.5
1903.46544	1371.7
1906.58551	1375
1909.70353	1379.5
1912.81953	1372.3
1915.93349	1360.2
1919.04543	1371.4
1922.15534	1363.4
1925.26322	1361
1928.36908	1353.3
1931.47292	1349.6
1934.57473	1331.4
1937.67453	1344.5
1940.77232	1332.8
1943.86808	1327.5
1946.96184	1329
1950.05358	1303.4
1953.14331	1311.1
1956.23103	1300.6
1959.31675	1304.6
1962.40046	1297.9
1965.48217	1289.8
1968.56188	1284.6
1971.63959	1280.1
1974.7153	1282.6
1977.78901	1271.5
1980.86073	1268.4
1983.93046	1271
1986.99819	1251
1990.06394	1251
1993.1277	1247.6
1996.18947	1237.8
1999.24925	1244.5
2002.30706	1233.2
2005.36288	1228
2008.41672	1228.6
2011.46859	1210.8
2014.51848	1214.9
2017.56639	1208.9
2020.61233	1207.5
2023.6563	1203.1
2026.6983	1195.3
2029.73833	1201.1
2032.7764	1190.3
2035.8125	1184.6
2038.84664	1177.3
2041.87881	1181
2044.90903	1185.2
2047.93729	1173.3
2050.96359	1170.3
2053.98794	1171.5
2057.01034	1177.4
2060.03078	1175.4
2063.04927	1162.4
2066.06582	1159.8
2069.08042	1157.1
2072.09307	1160.7
2075.10378	1157.2
2078.11255	1158.9
2081.11938	1156
2084.12426	1157.4
2087.12722	1152.3
2090.12824	1154.9
2093.12732	1158.3
2096.12447	1161.6
2099.11969	1164.5
2102.11299	1159.6
2105.10435	1159.6
2108.09379	1163
2111.08131	1161.2
2114.0669	1148.9
2117.05057	1150.5
2120.03233	1156.9
2123.01216	1150.1
2125.99008	1138.3
2128.96609	1139.3
2131.94018	1139.8
2134.91236	1138.8
2137.88263	1132.4
2140.851	1135.1
2143.81746	1141.9
2146.78201	1134.2
2149.74466	1133.2
2152.7054	1127.2
2155.66425	1122.9
2158.6212	1129
2161.57625	1114.7
2164.52941	1119.9
2167.48067	1120.2
2170.43004	1113
2173.37752	1118.8
2176.32311	1125.2
2179.26681	1112.5
2182.20863	1120.3
2185.14856	1120.6
2188.08661	1112.6
2191.02278	1115
2193.95707	1122.3
2196.88948	1109
2199.82001	1115.5
2202.74867	1101.8
2205.67545	1103.4
2208.60037	1094.6
2211.52341	1093.2
2214.44458	1092.5
2217.36388	1082.4
2220.28132	1090.7
2223.1969	1073.9
2226.11061	1082.1
2229.02246	1070.3
2231.93245	1068.9
2234.84058	1064.8
2237.74686	1068.9
2240.65128	1058.8
2243.55385	1064.7
2246.45456	1059.7
2249.35343	1060
2252.25044	1058.2
2255.14561	1055.7
2258.03893	1062.2
2260.93041	1068.1
2263.82004	1057.2
2266.70783	1054.3
2269.59378	1049.7
2272.4779	1040.8
2275.36017	1045.9
2278.24061	1035.5
2281.11922	1035.7
2283.996	1032.9
2286.87094	1025.8
2289.74405	1021.1
2292.61534	1015.3
2295.4848	1017.4
2298.35243	1019
2301.21824	1007.3
2304.08223	1011
2306.94439	1002.9
2309.80474	1007.4
2312.66327	1005.7
2315.51999	1003.2
2318.37489	1006.9
2321.22797	1003.5
2324.07925	993.8
2326.92871	1005.9
2329.77637	998.8
2332.62222	996.6
2335.46626	993.9
2338.3085	987.7
2341.14893	989.8
2343.98756	991.4
2346.8244	981.7
2349.65943	986.6
2352.49267	995.8
2355.32411	991.9
2358.15376	997.4
2360.98161	995.2
2363.80768	999.2
2366.63195	1002.2
2369.45444	998.7
2372.27514	1002.4
2375.09405	993.5
2377.91118	1001.1
2380.72652	994.6
2383.54009	982.8
2386.35187	980.8
2389.16188	971.6
2391.97011	966.9
2394.77657	962.2
2397.58125	962.3
2400.38416	966.3
2403.18529	956.3
2405.98466	951.7
2408.78226	946.9
2411.57809	949.8
2414.37216	941.3
2417.16446	948.4
2419.955	946.5
2422.74378	947.9
2425.5308	935.6
2428.31606	941.3
2431.09956	935.8
2433.88131	930.4
2436.6613	943.9
2439.43954	941.7
2442.21603	935
2444.99077	937.2
2447.76377	943
2450.53501	943
2453.30451	937.4
2456.07226	938.1
2458.83827	935.8
2461.60254	933.7
2464.36507	940.4
2467.12586	935.3
2469.88492	927.2
2472.64224	928.1
2475.39782	942.8
2478.15167	948.8
2480.90379	943.2
2483.65417	937.8
2486.40283	940.4
2489.14976	943.1
2491.89497	938.2
2494.63845	956.2
2497.3802	961.2
2500.12024	953.5
2502.85855	956.2
2505.59514	943.4
2508.33002	931
2511.06318	925.8
2513.79462	924.7
2516.52435	917.7
2519.25237	910.4
2521.97867	909.8
2524.70327	905.6
2527.42616	906.1
2530.14734	903
2532.86681	903.8
2535.58458	901.5
2538.30065	897.5
2541.01501	900.5
2543.72768	901.5
2546.43864	903.1
2549.14791	902.5
2551.85548	903.2
2554.56136	904.5
2557.26554	901.2
2559.96803	904.9
2562.66883	905.7
2565.36794	904.2
2568.06536	900.9
2570.7611	898.6
2573.45514	906.8
2576.14751	902.4
2578.83819	896.7
2581.52719	897.5
2584.21451	895.9
2586.90015	893.5
2589.58411	896.3
2592.2664	887.2
2594.94701	886.2
2597.62594	892.8
2600.30321	887
2602.9788	882.7
2605.65273	884.6
2608.32498	879.9
2610.99557	893.2
2613.66449	878.9
2616.33175	881
2618.99734	889.1
2621.66128	876.6
2624.32355	881.2
2626.98416	882.1
2629.64311	884.9
2632.30041	876.7
2634.95605	884.4
2637.61004	878.3
2640.26238	872.3
2642.91306	869.2
2645.56209	873.3
2648.20948	870
2650.85521	871.1
2653.4993	873.9
2656.14175	876.3
2658.78255	876.5
2661.42171	886.6
2664.05923	891.1
2666.6951	891.7
2669.32934	895.7
2671.96194	907.9
2674.59291	908.4
2677.22224	912.9
2679.84993	915.1
2682.476	914.4
2685.10043	916.3
2687.72324	918.7
2690.34441	926.4
2692.96396	925.7
2695.58188	937.9
2698.19818	934.8
2700.81285	959.4
2703.4259	974.7
2706.03733	1015.2
2708.64714	994.9
2711.25533	985.5
2713.86191	983.6
2716.46687	989.8
2719.07021	993.1
2721.67194	995.4
2724.27206	986.6
2726.87057	980.7
2729.46747	975.5
2732.06276	978.6
2734.65644	973.8
2737.24852	971
2739.83899	963
2742.42786	956.8
2745.01513	959.8
2747.60079	957.5
2750.18486	952.9
2752.76733	952.5
2755.3482	944.3
2757.92747	956
2760.50515	951.6
2763.08123	957.2
2765.65573	963.5
2768.22863	977.5
2770.79994	977.4
2773.36967	998.3
2775.9378	1006.4
2778.50435	1012
2781.06932	1031.8
2783.6327	1045.7
2786.1945	1056.3
2788.75471	1075.4
2791.31335	1084.3
2793.87041	1111.4
2796.42589	1123.1
2798.97979	1146.6
2801.53212	1179.1
2804.08288	1197.9
2806.63206	1216.1
2809.17967	1241.1
2811.72571	1262.4
2814.27018	1283.5
2816.81308	1288.7
2819.35442	1302.9
2821.89419	1301.9
2824.43239	1286.5
2826.96904	1289.2
2829.50412	1284.6
2832.03763	1278
2834.56959	1292.2
2837.1	1298.2
2839.62884	1320.7
2842.15613	1370.4
2844.68186	1426.9
2847.20604	1492.3
2849.72867	1543.5
2852.24974	1566.3
2854.76927	1569
2857.28724	1568.7
2859.80367	1545.9
2862.31855	1512.3
2864.83189	1500.6
2867.34368	1484.8
2869.85393	1477
2872.36264	1460.4
2874.8698	1442.2
2877.37543	1432.1
2879.87952	1438.4
2882.38207	1429.6
2884.88308	1431.9
2887.38256	1425.5
2889.88051	1437.4
2892.37692	1438
2894.8718	1437.7
2897.36515	1451.1
2899.85698	1454.8
2902.34727	1463.5
2904.83604	1462.7
2907.32328	1462.7
2909.809	1462
2912.29319	1462.7
2914.77587	1460.1
2917.25702	1445.8
2919.73665	1457.4
2922.21476	1443.3
2924.69136	1437.3
2927.16644	1422.1
2929.64	1413.9
2932.11205	1392.4
2934.58258	1366.8
2937.05161	1349
2939.51912	1315.8
2941.98513	1273.9
2944.44962	1232.8
2946.91261	1180
2949.37409	1146.4
2951.83407	1106.5
2954.29254	1083.2
2956.74951	1065.8
2959.20498	1048.4
2961.65895	1034.9
2964.11142	1019.4
2966.56239	998.4
2969.01186	988.1
2971.45984	973.8
2973.90632	961.4
2976.35131	954.1
2978.7948	944.5
2981.23681	947.3
2983.67732	933.1
2986.11635	925.7
2988.55388	909.1
2990.98993	912.5
2993.4245	905.1
2995.85758	888.2
2998.28917	883.8
3000.71928	884.6
3003.14791	875
3005.57506	875.8
3008.00073	863.4
3010.42493	867.2
3012.84764	860.1
3015.26888	863.2
3017.68865	861.2
3020.10694	850.8
3022.52376	860.5
3024.9391	858.7
3027.35298	868.6
3029.76539	857.2
3032.17632	859
3034.5858	854.6
3036.9938	856
3039.40034	849
3041.80542	853.8
3044.20903	855.2
3046.61118	857
3049.01187	844.6
3051.4111	855.8
3053.80888	847.6
3056.20519	854.1
3058.60005	854.1
3060.99345	859.2
3063.3854	850.2
3065.7759	853.6
3068.16494	854.7
3070.55254	859.9
3072.93868	863.9
3075.32338	859.5
3077.70662	858.8
3080.08842	848.8
3082.46878	852.2
3084.84769	835
3087.22515	834.5
3089.60118	838.1
3091.97576	827.7
3094.3489	830.9
3096.72061	832.5
3099.09087	826.5
3101.4597	828.2
3103.82709	831.4
3106.19305	824.1
3108.55757	826.6
3110.92066	826.9
3113.28232	828.3
3115.64255	823.9
3118.00134	826.7
3120.35871	827.1
3122.71466	830
3125.06917	834
3127.42226	840.7
3129.77393	852.8
3132.12417	846.9
3134.47299	843.8
3136.82039	860.4
3139.16636	865.7
3141.51092	862.6
3143.85406	864.9
3146.19579	865.9
3148.53609	878
3150.87499	871.1
3153.21246	878.4
3155.54853	887.9
3157.88318	884
3160.21642	893.1
3162.54826	896.9
3164.87868	892
3167.2077	908.4
3169.5353	908
3171.86151	910.1
3174.18631	922.1
3176.5097	918.8
3178.83169	923.4
3181.15228	927.7
3183.47147	926.7
3185.78926	937.3
3188.10565	931.9
3190.42065	942.6
3192.73424	947.7
3195.04645	944.8
3197.35725	947
3199.66667	958.4
3201.97469	958.9
3204.28132	961.3
3206.58656	970.2
3208.8904	965.8
3211.19287	969.8
3213.49394	967.9
3215.79363	974
3218.09193	978
3220.38884	975.9
3222.68438	994.1
3224.97853	989.7
3227.2713	989.6
3229.56269	985.8
3231.8527	982.1
3234.14133	977.6
3236.42858	979.3
3238.71446	977
3240.99896	986.1
3243.28209	988.9
3245.56384	988.9
3247.84423	987.2
3250.12324	981.6
3252.40088	986.2
3254.67715	987.8
3256.95205	989.8
3259.22558	984.8
3261.49775	984.8
3263.76855	990.7
3266.03799	987
3268.30606	990.3
3270.57277	987.4
3272.83812	981.6
3275.10211	980.3
3277.36474	982.6
3279.62601	980.6
3281.88593	978
3284.14448	990.2
3286.40168	991.1
3288.65753	985.8
3290.91202	998.3
3293.16516	987.5
3295.41695	978.5
3297.66738	973.3
3299.91647	977.1
3302.16421	965.4
3304.4106	966.9
3306.65564	957.6
3308.89933	954.2
3311.14169	958.9
3313.38269	958.1
3315.62236	947.5
3317.86068	938.2
3320.09766	926
3322.3333	930.9
3324.5676	925.3
3326.80056	917.9
3329.03219	913
3331.26248	0.4
3333.49143	1
3335.71905	0
