Data from AgNPs_FTO_APTES_UA_20um_CRN_0.1mM_R6G_10uM_NaF_0.1M_Addition_RamanShift__32__14-53-39-211.txt Node

Date: Tue Dec 21 14:53:39 GMT 2021
User: TCL
Spectrometer: QEP01345
Trigger mode: 4
Integration Time (sec): 7.000000E0
Scans to average: 10
Electric dark correction enabled: true
Nonlinearity correction enabled: false
Boxcar width: 0
XAxis mode: Raman Shifts
Number of Pixels in Spectrum: 1044
>>>>>Begin Spectral Data<<<<<
46.04893	0.4875
50.45542	-1.5125
54.85868	-1.2125
59.25871	0.3875
63.6555	35.0875
68.04907	39.9875
72.43941	43.5875
76.82654	44.2875
81.21044	48.0875
85.59113	51.0875
89.96862	52.6875
94.34289	51.7875
98.71396	55.1875
103.08183	59.8875
107.4465	61.1875
111.80798	61.4875
116.16626	59.9875
120.52136	63.7875
124.87327	62.2875
129.222	62.7875
133.56755	65.3875
137.90993	74.3875
142.24913	73.7875
146.58517	82.5875
150.91804	91.2875
155.24774	107.2875
159.57429	127.2875
163.89768	162.3875
168.21792	206.4875
172.53501	270.7875
176.84895	372.5875
181.15975	517.8875
185.46741	715.2875
189.77193	990.2875
194.07331	1311.4875
198.37157	1676.2875
202.6667	2084.0875
206.9587	2498.9875
211.24758	2889.2875
215.53334	3304.4875
219.81599	3751.7875
224.09553	4246.9875
228.37195	4805.2875
232.64527	5403.7875
236.91549	6032.7875
241.18261	6617.8875
245.44663	7118.8875
249.70755	7541.8875
253.96539	7906.0875
258.22014	8203.6875
262.4718	8476.3875
266.72039	8682.0875
270.96589	8753.0875
275.20832	8736.8875
279.44768	8616.6875
283.68397	8430.1875
287.91719	8335.5875
292.14735	8295.8875
296.37445	8372.3875
300.59849	8594.9875
304.81948	8860.0875
309.03742	9048.3875
313.25231	8993.1875
317.46415	8650.5875
321.67296	8124.6875
325.87872	7689.7875
330.08145	7470.9875
334.28114	7437.8875
338.47781	7553.7875
342.67145	7712.9875
346.86207	7959.9875
351.04966	8310.4875
355.23424	8730.3875
359.4158	9083.5875
363.59435	9277.4875
367.76989	9347.1875
371.94243	9391.3875
376.11196	9389.7875
380.27849	9366.8875
384.44203	9312.2875
388.60257	9249.5875
392.76012	9226.3875
396.91468	9283.4875
401.06626	9480.9875
405.21485	9621.0875
409.36047	9529.0875
413.50311	9123.7875
417.64277	8739.0875
421.77947	8467.4875
425.9132	8374.9875
430.04396	8377.0875
434.17176	8427.8875
438.2966	8512.0875
442.41849	8711.7875
446.53742	9024.7875
450.6534	9296.4875
454.76644	9517.8875
458.87653	9520.3875
462.98368	9402.1875
467.08789	9229.0875
471.18916	9070.5875
475.2875	8884.6875
479.38291	8725.7875
483.4754	8622.1875
487.56496	8497.4875
491.6516	8403.2875
495.73531	8328.2875
499.81612	8279.8875
503.89401	8320.3875
507.96899	8356.5875
512.04106	8425.2875
516.11023	8523.1875
520.1765	8562.3875
524.23987	8559.5875
528.30034	8453.0875
532.35792	8346.6875
536.41261	8161.2875
540.46441	7990.4875
544.51333	7858.4875
548.55936	7879.4875
552.60252	8044.7875
556.64279	8255.1875
560.6802	8398.9875
564.71473	8543.8875
568.7464	8821.9875
572.7752	9048.6875
576.80114	8917.9875
580.82422	8721.4875
584.84444	8658.2875
588.86181	8771.9875
592.87633	9008.8875
596.888	9217.6875
600.89682	9332.7875
604.9028	9964.7875
608.90594	11932.3875
612.90624	14719.0875
616.90371	14368.9875
620.89834	10548.6875
624.89015	8615.2875
628.87913	8282.1875
632.86528	8392.6875
636.84862	8518.3875
640.82913	8424.2875
644.80683	8053.8875
648.78172	7753.4875
652.75379	7689.5875
656.72306	7872.1875
660.68952	8178.1875
664.65319	8105.8875
668.61405	7753.5875
672.57211	7588.9875
676.52738	7559.6875
680.47986	7563.2875
684.42955	7512.1875
688.37646	7452.8875
692.32058	7450.4875
696.26192	7497.4875
700.20048	7610.0875
704.13626	7670.5875
708.06928	7645.7875
711.99952	7578.4875
715.927	7560.5875
719.85171	7583.5875
723.77365	7582.4875
727.69284	7498.6875
731.60928	7438.0875
735.52295	7408.1875
739.43388	7433.9875
743.34206	7440.2875
747.24749	7471.0875
751.15017	7523.1875
755.05012	7649.5875
758.94733	7921.4875
762.8418	8600.6875
766.73354	9836.6875
770.62254	11242.4875
774.50882	12045.1875
778.39237	11671.7875
782.27321	10236.0875
786.15132	8816.0875
790.02671	7970.0875
793.89938	7572.5875
797.76935	7433.2875
801.6366	7355.5875
805.50115	7328.0875
809.36299	7357.6875
813.22213	7331.0875
817.07857	7315.7875
820.93231	7253.3875
824.78336	7229.6875
828.63172	7223.4875
832.47738	7193.4875
836.32036	7174.5875
840.16066	7145.7875
843.99827	7113.0875
847.8332	7070.2875
851.66546	7040.7875
855.49504	7035.1875
859.32195	7026.9875
863.1462	6993.9875
866.96777	6982.9875
870.78668	6969.3875
874.60293	6986.5875
878.41652	7014.6875
882.22745	7075.1875
886.03573	7105.0875
889.84136	7118.6875
893.64433	7080.2875
897.44466	7014.7875
901.24235	6946.1875
905.0374	6892.6875
908.8298	6838.7875
912.61957	6809.4875
916.40671	6836.1875
920.19121	6894.8875
923.97308	6953.4875
927.75233	7007.6875
931.52895	7059.7875
935.30295	6993.7875
939.07433	6803.6875
942.84309	6644.9875
946.60924	6519.1875
950.37278	6458.7875
954.13371	6448.9875
957.89203	6404.9875
961.64774	6382.7875
965.40086	6353.7875
969.15137	6323.5875
972.89929	6302.6875
976.64461	6287.3875
980.38733	6288.2875
984.12747	6294.6875
987.86502	6335.9875
991.59999	6399.9875
995.33237	6479.0875
999.06217	6613.0875
1002.78939	6783.5875
1006.51404	6932.3875
1010.23611	7106.5875
1013.95561	7192.8875
1017.67255	7174.6875
1021.38692	7057.1875
1025.09872	6927.3875
1028.80796	6835.2875
1032.51465	6838.7875
1036.21877	6917.8875
1039.92035	6966.1875
1043.61937	6993.1875
1047.31584	6940.0875
1051.00976	6914.3875
1054.70114	6854.9875
1058.38998	6853.0875
1062.07627	6843.0875
1065.76003	6909.5875
1069.44126	6970.0875
1073.11995	7033.8875
1076.79611	7134.2875
1080.46974	7231.7875
1084.14085	7368.8875
1087.80943	7529.9875
1091.47549	7612.6875
1095.13903	7560.9875
1098.80005	7363.4875
1102.45857	7120.7875
1106.11456	7016.0875
1109.76805	7036.8875
1113.41903	7179.9875
1117.06751	7381.6875
1120.71348	7649.9875
1124.35696	7999.2875
1127.99793	8289.8875
1131.63641	8384.8875
1135.2724	8137.6875
1138.90589	7806.2875
1142.5369	7574.3875
1146.16542	7422.1875
1149.79145	7325.3875
1153.415	7307.2875
1157.03607	7333.7875
1160.65467	7477.0875
1164.27079	7734.7875
1167.88443	8132.3875
1171.49561	8756.9875
1175.10432	9757.6875
1178.71056	11120.9875
1182.31434	12321.5875
1185.91565	12728.4875
1189.51451	12372.8875
1193.11091	11614.1875
1196.70485	10811.6875
1200.29634	10194.1875
1203.88538	9730.8875
1207.47197	9258.7875
1211.05612	8770.0875
1214.63782	8490.8875
1218.21708	8361.2875
1221.79391	8335.5875
1225.36829	8347.6875
1228.94024	8282.5875
1232.50976	8196.2875
1236.07685	8068.4875
1239.6415	8042.5875
1243.20374	8080.4875
1246.76355	8133.6875
1250.32093	8235.4875
1253.8759	8394.8875
1257.42845	8625.5875
1260.97859	8897.6875
1264.52631	9142.4875
1268.07163	9421.8875
1271.61453	9658.4875
1275.15503	9854.9875
1278.69312	9998.7875
1282.22882	10128.5875
1285.76211	10381.4875
1289.29301	10780.9875
1292.82151	11230.9875
1296.34761	11804.5875
1299.87133	12502.8875
1303.39266	13463.8875
1306.9116	14808.8875
1310.42815	16320.7875
1313.94233	17206.3875
1317.45412	17004.9875
1320.96354	15971.2875
1324.47058	14887.8875
1327.97525	13941.3875
1331.47754	13268.2875
1334.97747	13003.1875
1338.47502	12948.4875
1341.97022	13038.3875
1345.46305	13203.8875
1348.95352	13589.2875
1352.44163	14404.9875
1355.92738	15732.7875
1359.41078	17667.6875
1362.89183	19738.7875
1366.37053	19690.0875
1369.84688	17197.9875
1373.32088	14263.8875
1376.79254	12298.1875
1380.26186	11379.9875
1383.72883	10977.0875
1387.19347	10682.2875
1390.65578	10328.0875
1394.11575	10111.5875
1397.57339	10110.0875
1401.0287	10238.6875
1404.48168	10406.7875
1407.93234	10445.7875
1411.38068	10368.0875
1414.82669	10136.1875
1418.27039	9848.4875
1421.71177	9510.9875
1425.15083	9196.3875
1428.58758	9008.5875
1432.02203	9039.3875
1435.45416	9207.0875
1438.88399	9376.0875
1442.31151	9464.6875
1445.73673	9534.2875
1449.15965	9668.4875
1452.58027	9730.0875
1455.9986	9653.5875
1459.41463	9607.3875
1462.82837	9714.2875
1466.23982	9884.8875
1469.64898	10111.5875
1473.05586	10277.6875
1476.46045	10344.3875
1479.86276	10427.0875
1483.26279	10537.8875
1486.66054	10649.5875
1490.05602	10851.9875
1493.44922	11168.4875
1496.84016	11644.0875
1500.22882	12488.8875
1503.61521	13745.9875
1506.99934	15265.4875
1510.38121	16656.8875
1513.76081	17189.7875
1517.13816	16295.2875
1520.51324	14539.4875
1523.88607	12717.0875
1527.25665	11594.5875
1530.62498	10983.1875
1533.99105	10685.9875
1537.35488	10477.6875
1540.71647	10352.4875
1544.07581	10220.7875
1547.4329	10039.3875
1550.78776	9916.8875
1554.14038	9804.9875
1557.49077	9756.6875
1560.83892	9815.9875
1564.18484	9998.2875
1567.52853	10285.1875
1570.86999	10566.9875
1574.20922	10859.2875
1577.54624	10892.7875
1580.88103	10552.7875
1584.2136	10013.6875
1587.54395	9790.8875
1590.87208	10007.6875
1594.19801	10607.5875
1597.52172	11454.1875
1600.84321	11859.2875
1604.16251	11527.2875
1607.47959	10605.7875
1610.79447	9626.7875
1614.10715	8694.2875
1617.41763	8004.0875
1620.7259	7558.6875
1624.03199	7363.1875
1627.33587	7339.3875
1630.63757	7516.3875
1633.93707	7908.5875
1637.23439	8589.2875
1640.52951	9671.8875
1643.82246	11082.1875
1647.11321	12668.8875
1650.40179	13625.3875
1653.68819	13195.6875
1656.97241	11453.6875
1660.25446	9443.5875
1663.53433	7992.5875
1666.81203	7099.9875
1670.08756	6568.3875
1673.36092	6248.7875
1676.63211	6023.2875
1679.90115	5892.7875
1683.16801	5773.5875
1686.43272	5674.9875
1689.69527	5602.7875
1692.95567	5541.0875
1696.2139	5514.7875
1699.46999	5490.3875
1702.72392	5436.9875
1705.97571	5417.1875
1709.22535	5365.9875
1712.47284	5364.2875
1715.71819	5326.0875
1718.96139	5313.5875
1722.20246	5316.4875
1725.44139	5284.0875
1728.67818	5245.2875
1731.91284	5188.4875
1735.14537	5152.3875
1738.37576	5105.5875
1741.60403	5103.5875
1744.83017	5076.6875
1748.05418	5067.0875
1751.27607	5047.4875
1754.49584	5061.7875
1757.71349	5057.5875
1760.92903	5036.9875
1764.14244	5001.3875
1767.35375	5005.0875
1770.56294	4972.0875
1773.77002	4963.2875
1776.97499	4947.0875
1780.17785	4924.5875
1783.37861	4897.4875
1786.57727	4861.4875
1789.77382	4854.0875
1792.96828	4840.8875
1796.16064	4826.6875
1799.3509	4815.1875
1802.53907	4799.3875
1805.72514	4775.6875
1808.90913	4760.1875
1812.09102	4754.1875
1815.27083	4725.0875
1818.44856	4714.4875
1821.6242	4704.9875
1824.79776	4693.9875
1827.96924	4673.3875
1831.13864	4684.2875
1834.30597	4683.4875
1837.47122	4659.0875
1840.6344	4652.2875
1843.7955	4655.6875
1846.95454	4629.1875
1850.11151	4631.4875
1853.26642	4618.5875
1856.41926	4615.8875
1859.57004	4620.3875
1862.71876	4603.5875
1865.86542	4617.6875
1869.01003	4599.1875
1872.15258	4609.9875
1875.29308	4577.6875
1878.43152	4590.3875
1881.56792	4589.0875
1884.70227	4568.5875
1887.83457	4574.2875
1890.96482	4555.0875
1894.09304	4557.9875
1897.21921	4573.4875
1900.34335	4553.9875
1903.46544	4546.2875
1906.58551	4533.8875
1909.70353	4532.5875
1912.81953	4530.6875
1915.93349	4501.0875
1919.04543	4524.9875
1922.15534	4514.7875
1925.26322	4498.9875
1928.36908	4477.4875
1931.47292	4472.4875
1934.57473	4446.0875
1937.67453	4432.0875
1940.77232	4407.9875
1943.86808	4390.1875
1946.96184	4388.4875
1950.05358	4364.9875
1953.14331	4354.7875
1956.23103	4337.8875
1959.31675	4347.2875
1962.40046	4309.9875
1965.48217	4292.8875
1968.56188	4288.1875
1971.63959	4287.1875
1974.7153	4257.5875
1977.78901	4263.1875
1980.86073	4243.2875
1983.93046	4224.4875
1986.99819	4201.6875
1990.06394	4180.2875
1993.1277	4175.1875
1996.18947	4155.1875
1999.24925	4133.0875
2002.30706	4123.7875
2005.36288	4106.6875
2008.41672	4101.0875
2011.46859	4082.1875
2014.51848	4073.1875
2017.56639	4049.4875
2020.61233	4043.5875
2023.6563	4041.0875
2026.6983	4020.3875
2029.73833	4006.6875
2032.7764	3996.2875
2035.8125	3987.9875
2038.84664	3979.8875
2041.87881	3965.2875
2044.90903	3955.6875
2047.93729	3948.2875
2050.96359	3961.5875
2053.98794	3957.5875
2057.01034	3947.5875
2060.03078	3945.5875
2063.04927	3933.7875
2066.06582	3917.9875
2069.08042	3920.2875
2072.09307	3901.3875
2075.10378	3895.0875
2078.11255	3891.5875
2081.11938	3905.9875
2084.12426	3903.1875
2087.12722	3886.1875
2090.12824	3891.1875
2093.12732	3876.2875
2096.12447	3884.3875
2099.11969	3882.7875
2102.11299	3896.2875
2105.10435	3875.5875
2108.09379	3878.3875
2111.08131	3871.8875
2114.0669	3875.4875
2117.05057	3878.0875
2120.03233	3867.7875
2123.01216	3884.1875
2125.99008	3883.2875
2128.96609	3887.3875
2131.94018	3878.7875
2134.91236	3885.3875
2137.88263	3866.6875
2140.851	3869.6875
2143.81746	3876.2875
2146.78201	3867.3875
2149.74466	3874.9875
2152.7054	3863.8875
2155.66425	3839.4875
2158.6212	3848.9875
2161.57625	3849.3875
2164.52941	3843.6875
2167.48067	3842.7875
2170.43004	3837.3875
2173.37752	3843.4875
2176.32311	3846.1875
2179.26681	3828.4875
2182.20863	3826.6875
2185.14856	3826.2875
2188.08661	3842.1875
2191.02278	3829.8875
2193.95707	3820.3875
2196.88948	3811.0875
2199.82001	3814.9875
2202.74867	3813.1875
2205.67545	3792.4875
2208.60037	3790.6875
2211.52341	3801.9875
2214.44458	3779.1875
2217.36388	3765.8875
2220.28132	3767.5875
2223.1969	3741.2875
2226.11061	3735.2875
2229.02246	3720.6875
2231.93245	3731.1875
2234.84058	3727.8875
2237.74686	3710.0875
2240.65128	3711.3875
2243.55385	3682.5875
2246.45456	3692.8875
2249.35343	3675.2875
2252.25044	3674.6875
2255.14561	3684.7875
2258.03893	3683.0875
2260.93041	3673.9875
2263.82004	3663.5875
2266.70783	3657.3875
2269.59378	3637.1875
2272.4779	3635.9875
2275.36017	3616.8875
2278.24061	3596.7875
2281.11922	3605.6875
2283.996	3578.1875
2286.87094	3584.0875
2289.74405	3565.9875
2292.61534	3560.2875
2295.4848	3553.1875
2298.35243	3555.6875
2301.21824	3535.9875
2304.08223	3541.9875
2306.94439	3539.4875
2309.80474	3545.9875
2312.66327	3529.8875
2315.51999	3533.3875
2318.37489	3537.3875
2321.22797	3521.7875
2324.07925	3508.3875
2326.92871	3516.1875
2329.77637	3512.7875
2332.62222	3486.5875
2335.46626	3501.6875
2338.3085	3492.5875
2341.14893	3483.8875
2343.98756	3492.3875
2346.8244	3488.3875
2349.65943	3503.2875
2352.49267	3480.6875
2355.32411	3477.7875
2358.15376	3494.8875
2360.98161	3498.7875
2363.80768	3498.1875
2366.63195	3497.7875
2369.45444	3495.9875
2372.27514	3492.2875
2375.09405	3481.8875
2377.91118	3474.2875
2380.72652	3463.4875
2383.54009	3446.7875
2386.35187	3426.3875
2389.16188	3417.5875
2391.97011	3419.6875
2394.77657	3397.1875
2397.58125	3392.8875
2400.38416	3372.5875
2403.18529	3369.9875
2405.98466	3359.4875
2408.78226	3345.4875
2411.57809	3344.2875
2414.37216	3340.6875
2417.16446	3333.2875
2419.955	3341.1875
2422.74378	3330.3875
2425.5308	3340.5875
2428.31606	3329.3875
2431.09956	3322.9875
2433.88131	3313.6875
2436.6613	3317.1875
2439.43954	3318.4875
2442.21603	3310.0875
2444.99077	3314.3875
2447.76377	3316.9875
2450.53501	3310.2875
2453.30451	3310.8875
2456.07226	3308.4875
2458.83827	3316.6875
2461.60254	3305.0875
2464.36507	3294.5875
2467.12586	3295.1875
2469.88492	3304.1875
2472.64224	3305.7875
2475.39782	3298.1875
2478.15167	3301.2875
2480.90379	3294.0875
2483.65417	3314.5875
2486.40283	3304.5875
2489.14976	3295.7875
2491.89497	3303.7875
2494.63845	3309.5875
2497.3802	3310.8875
2500.12024	3310.9875
2502.85855	3309.0875
2505.59514	3286.5875
2508.33002	3273.3875
2511.06318	3277.8875
2513.79462	3248.5875
2516.52435	3255.3875
2519.25237	3235.5875
2521.97867	3219.6875
2524.70327	3215.9875
2527.42616	3213.6875
2530.14734	3211.0875
2532.86681	3192.0875
2535.58458	3190.3875
2538.30065	3187.0875
2541.01501	3185.2875
2543.72768	3187.2875
2546.43864	3191.3875
2549.14791	3180.3875
2551.85548	3196.3875
2554.56136	3191.0875
2557.26554	3171.4875
2559.96803	3171.6875
2562.66883	3169.2875
2565.36794	3163.8875
2568.06536	3170.5875
2570.7611	3149.1875
2573.45514	3173.8875
2576.14751	3162.0875
2578.83819	3133.4875
2581.52719	3130.3875
2584.21451	3130.0875
2586.90015	3131.9875
2589.58411	3120.8875
2592.2664	3120.6875
2594.94701	3108.3875
2597.62594	3119.6875
2600.30321	3101.1875
2602.9788	3098.6875
2605.65273	3092.9875
2608.32498	3100.6875
2610.99557	3097.1875
2613.66449	3099.4875
2616.33175	3084.5875
2618.99734	3089.1875
2621.66128	3085.4875
2624.32355	3090.5875
2626.98416	3089.4875
2629.64311	3071.5875
2632.30041	3070.1875
2634.95605	3079.0875
2637.61004	3073.1875
2640.26238	3065.3875
2642.91306	3057.1875
2645.56209	3038.3875
2648.20948	3052.9875
2650.85521	3044.5875
2653.4993	3043.5875
2656.14175	3050.4875
2658.78255	3049.5875
2661.42171	3046.1875
2664.05923	3052.1875
2666.6951	3067.0875
2669.32934	3069.8875
2671.96194	3051.7875
2674.59291	3072.3875
2677.22224	3064.1875
2679.84993	3073.3875
2682.476	3046.2875
2685.10043	3058.6875
2687.72324	3040.6875
2690.34441	3054.0875
2692.96396	3049.0875
2695.58188	3049.2875
2698.19818	3049.1875
2700.81285	3056.1875
2703.4259	3079.9875
2706.03733	3118.3875
2708.64714	3091.6875
2711.25533	3078.0875
2713.86191	3066.1875
2716.46687	3069.1875
2719.07021	3073.8875
2721.67194	3070.8875
2724.27206	3088.0875
2726.87057	3063.1875
2729.46747	3065.0875
2732.06276	3061.2875
2734.65644	3061.0875
2737.24852	3066.4875
2739.83899	3036.5875
2742.42786	3048.4875
2745.01513	3039.1875
2747.60079	3047.7875
2750.18486	3035.3875
2752.76733	3028.5875
2755.3482	3005.8875
2757.92747	3015.8875
2760.50515	3015.5875
2763.08123	3018.7875
2765.65573	3020.5875
2768.22863	3021.2875
2770.79994	3009.1875
2773.36967	3012.7875
2775.9378	3008.4875
2778.50435	3016.8875
2781.06932	2999.6875
2783.6327	3003.8875
2786.1945	3011.7875
2788.75471	3008.7875
2791.31335	2997.6875
2793.87041	3002.9875
2796.42589	2988.8875
2798.97979	3000.5875
2801.53212	2979.8875
2804.08288	2998.7875
2806.63206	2994.6875
2809.17967	2976.7875
2811.72571	2968.5875
2814.27018	2982.9875
2816.81308	2987.6875
2819.35442	2979.1875
2821.89419	2986.0875
2824.43239	2982.3875
2826.96904	2991.3875
2829.50412	2987.8875
2832.03763	2987.4875
2834.56959	2990.4875
2837.1	2985.0875
2839.62884	3021.3875
2842.15613	3024.8875
2844.68186	3048.9875
2847.20604	3077.0875
2849.72867	3113.0875
2852.24974	3106.9875
2854.76927	3134.2875
2857.28724	3115.6875
2859.80367	3121.2875
2862.31855	3100.1875
2864.83189	3080.1875
2867.34368	3086.1875
2869.85393	3075.8875
2872.36264	3061.2875
2874.8698	3065.9875
2877.37543	3078.3875
2879.87952	3081.2875
2882.38207	3073.3875
2884.88308	3071.2875
2887.38256	3066.7875
2889.88051	3059.4875
2892.37692	3077.9875
2894.8718	3062.3875
2897.36515	3078.1875
2899.85698	3075.0875
2902.34727	3076.9875
2904.83604	3073.7875
2907.32328	3088.0875
2909.809	3084.7875
2912.29319	3086.4875
2914.77587	3087.7875
2917.25702	3070.1875
2919.73665	3078.9875
2922.21476	3077.3875
2924.69136	3082.0875
2927.16644	3092.9875
2929.64	3070.6875
2932.11205	3067.5875
2934.58258	3045.7875
2937.05161	3034.2875
2939.51912	3047.6875
2941.98513	3009.7875
2944.44962	3008.7875
2946.91261	2975.0875
2949.37409	2954.0875
2951.83407	2937.7875
2954.29254	2933.3875
2956.74951	2923.3875
2959.20498	2918.9875
2961.65895	2903.7875
2964.11142	2893.2875
2966.56239	2875.3875
2969.01186	2864.3875
2971.45984	2865.9875
2973.90632	2854.6875
2976.35131	2835.0875
2978.7948	2833.7875
2981.23681	2832.7875
2983.67732	2804.9875
2986.11635	2804.6875
2988.55388	2788.5875
2990.98993	2782.6875
2993.4245	2780.9875
2995.85758	2764.4875
2998.28917	2767.7875
3000.71928	2756.4875
3003.14791	2758.6875
3005.57506	2756.4875
3008.00073	2756.3875
3010.42493	2749.0875
3012.84764	2743.8875
3015.26888	2739.2875
3017.68865	2743.7875
3020.10694	2723.3875
3022.52376	2726.0875
3024.9391	2718.6875
3027.35298	2726.5875
3029.76539	2711.9875
3032.17632	2721.8875
3034.5858	2701.7875
3036.9938	2711.1875
3039.40034	2713.3875
3041.80542	2698.4875
3044.20903	2693.9875
3046.61118	2696.3875
3049.01187	2700.0875
3051.4111	2686.4875
3053.80888	2684.5875
3056.20519	2679.4875
3058.60005	2672.0875
3060.99345	2677.2875
3063.3854	2668.1875
3065.7759	2659.5875
3068.16494	2666.2875
3070.55254	2644.1875
3072.93868	2642.1875
3075.32338	2647.2875
3077.70662	2628.9875
3080.08842	2624.5875
3082.46878	2627.1875
3084.84769	2610.8875
3087.22515	2615.7875
3089.60118	2616.2875
3091.97576	2617.0875
3094.3489	2623.0875
3096.72061	2619.8875
3099.09087	2614.4875
3101.4597	2609.3875
3103.82709	2603.3875
3106.19305	2612.5875
3108.55757	2605.6875
3110.92066	2599.2875
3113.28232	2598.0875
3115.64255	2585.7875
3118.00134	2582.0875
3120.35871	2593.3875
3122.71466	2584.1875
3125.06917	2590.0875
3127.42226	2570.0875
3129.77393	2591.8875
3132.12417	2593.9875
3134.47299	2594.0875
3136.82039	2595.3875
3139.16636	2604.3875
3141.51092	2602.7875
3143.85406	2611.2875
3146.19579	2604.9875
3148.53609	2608.9875
3150.87499	2622.5875
3153.21246	2612.6875
3155.54853	2629.6875
3157.88318	2617.9875
3160.21642	2629.0875
3162.54826	2624.4875
3164.87868	2629.5875
3167.2077	2631.4875
3169.5353	2638.9875
3171.86151	2640.4875
3174.18631	2640.4875
3176.5097	2632.3875
3178.83169	2623.0875
3181.15228	2645.1875
3183.47147	2647.4875
3185.78926	2637.0875
3188.10565	2642.6875
3190.42065	2643.8875
3192.73424	2651.2875
3195.04645	2655.0875
3197.35725	2656.4875
3199.66667	2654.6875
3201.97469	2659.1875
3204.28132	2670.6875
3206.58656	2666.0875
3208.8904	2677.1875
3211.19287	2670.5875
3213.49394	2675.0875
3215.79363	2666.8875
3218.09193	2665.9875
3220.38884	2684.0875
3222.68438	2703.9875
3224.97853	2671.6875
3227.2713	2671.9875
3229.56269	2673.0875
3231.8527	2686.9875
3234.14133	2663.9875
3236.42858	2669.4875
3238.71446	2659.9875
3240.99896	2666.3875
3243.28209	2672.8875
3245.56384	2660.8875
3247.84423	2660.9875
3250.12324	2650.3875
3252.40088	2663.4875
3254.67715	2660.5875
3256.95205	2650.0875
3259.22558	2657.4875
3261.49775	2634.8875
3263.76855	2632.6875
3266.03799	2623.4875
3268.30606	2631.6875
3270.57277	2625.6875
3272.83812	2615.2875
3275.10211	2618.9875
3277.36474	2611.3875
3279.62601	2621.2875
3281.88593	2610.9875
3284.14448	2618.3875
3286.40168	2627.3875
3288.65753	2615.8875
3290.91202	2605.4875
3293.16516	2600.8875
3295.41695	2610.0875
3297.66738	2584.1875
3299.91647	2570.6875
3302.16421	2554.2875
3304.4106	2545.4875
3306.65564	2543.4875
3308.89933	2522.4875
3311.14169	2510.9875
3313.38269	2489.4875
3315.62236	2480.7875
3317.86068	2445.0875
3320.09766	2433.6875
3322.3333	2421.7875
3324.5676	2416.5875
3326.80056	2390.3875
3329.03219	2372.4875
3331.26248	0.2875
3333.49143	0.4875
3335.71905	0.6875
