Data from AgNPs_FTO_APTES_UA_100um_CRN_0.1mM_R6G_10uM_NaF_0.1M_Addition_RamanShift__9__15-55-29-282.txt Node

Date: Tue Dec 21 15:55:29 GMT 2021
User: TCL
Spectrometer: QEP01345
Trigger mode: 4
Integration Time (sec): 7.000000E0
Scans to average: 10
Electric dark correction enabled: true
Nonlinearity correction enabled: false
Boxcar width: 0
XAxis mode: Raman Shifts
Number of Pixels in Spectrum: 1044
>>>>>Begin Spectral Data<<<<<
46.04893	0.0875
50.45542	-1.4125
54.85868	-2.0125
59.25871	0.4875
63.6555	33.0875
68.04907	40.8875
72.43941	41.4875
76.82654	42.6875
81.21044	46.6875
85.59113	46.6875
89.96862	48.4875
94.34289	50.8875
98.71396	49.5875
103.08183	52.5875
107.4465	57.2875
111.80798	54.9875
116.16626	56.8875
120.52136	55.8875
124.87327	59.5875
129.222	57.7875
133.56755	63.8875
137.90993	66.6875
142.24913	71.3875
146.58517	74.0875
150.91804	87.7875
155.24774	97.4875
159.57429	118.4875
163.89768	152.7875
168.21792	195.9875
172.53501	258.4875
176.84895	359.1875
181.15975	507.1875
185.46741	691.8875
189.77193	960.9875
194.07331	1287.4875
198.37157	1671.0875
202.6667	2073.1875
206.9587	2458.2875
211.24758	2863.0875
215.53334	3284.1875
219.81599	3677.3875
224.09553	4162.9875
228.37195	4681.2875
232.64527	5245.1875
236.91549	5871.8875
241.18261	6460.9875
245.44663	7018.3875
249.70755	7499.6875
253.96539	7893.3875
258.22014	8254.4875
262.4718	8507.8875
266.72039	8720.5875
270.96589	8810.6875
275.20832	8822.7875
279.44768	8746.0875
283.68397	8644.0875
287.91719	8550.2875
292.14735	8494.3875
296.37445	8501.2875
300.59849	8572.5875
304.81948	8636.2875
309.03742	8656.4875
313.25231	8568.0875
317.46415	8345.9875
321.67296	8057.5875
325.87872	7822.3875
330.08145	7702.6875
334.28114	7667.6875
338.47781	7732.8875
342.67145	7806.2875
346.86207	7941.9875
351.04966	8138.6875
355.23424	8306.5875
359.4158	8468.3875
363.59435	8596.7875
367.76989	8682.0875
371.94243	8731.3875
376.11196	8802.8875
380.27849	8820.0875
384.44203	8881.9875
388.60257	8911.7875
392.76012	8950.9875
396.91468	9047.5875
401.06626	9159.3875
405.21485	9241.6875
409.36047	9173.1875
413.50311	9006.7875
417.64277	8792.9875
421.77947	8656.5875
425.9132	8610.1875
430.04396	8624.6875
434.17176	8640.1875
438.2966	8685.9875
442.41849	8753.1875
446.53742	8837.6875
450.6534	8969.4875
454.76644	9114.3875
458.87653	9169.3875
462.98368	9178.6875
467.08789	9163.1875
471.18916	9122.6875
475.2875	9090.3875
479.38291	9064.0875
483.4754	9011.8875
487.56496	8940.9875
491.6516	8878.9875
495.73531	8805.0875
499.81612	8765.8875
503.89401	8794.5875
507.96899	8825.4875
512.04106	8834.9875
516.11023	8865.8875
520.1765	8854.0875
524.23987	8840.9875
528.30034	8755.3875
532.35792	8664.6875
536.41261	8615.3875
540.46441	8539.7875
544.51333	8514.4875
548.55936	8572.2875
552.60252	8685.4875
556.64279	8848.1875
560.6802	8909.5875
564.71473	8930.7875
568.7464	9024.0875
572.7752	9156.2875
576.80114	9248.0875
580.82422	9267.8875
584.84444	9293.4875
588.86181	9278.5875
592.87633	9240.1875
596.888	9194.9875
600.89682	9269.5875
604.9028	9613.1875
608.90594	10656.3875
612.90624	12032.9875
616.90371	11753.7875
620.89834	9819.9875
624.89015	8804.5875
628.87913	8660.3875
632.86528	8836.6875
636.84862	9016.4875
640.82913	8967.6875
644.80683	8758.4875
648.78172	8505.2875
652.75379	8398.5875
656.72306	8424.2875
660.68952	8542.5875
664.65319	8505.9875
668.61405	8346.5875
672.57211	8247.0875
676.52738	8277.9875
680.47986	8278.9875
684.42955	8248.6875
688.37646	8217.7875
692.32058	8187.1875
696.26192	8195.7875
700.20048	8257.0875
704.13626	8306.4875
708.06928	8313.3875
711.99952	8276.4875
715.927	8230.4875
719.85171	8234.6875
723.77365	8248.5875
727.69284	8184.1875
731.60928	8105.9875
735.52295	8094.6875
739.43388	8071.8875
743.34206	8049.2875
747.24749	8085.1875
751.15017	8106.1875
755.05012	8183.2875
758.94733	8341.1875
762.8418	8745.3875
766.73354	9442.7875
770.62254	10263.0875
774.50882	10670.5875
778.39237	10328.0875
782.27321	9440.4875
786.15132	8678.4875
790.02671	8250.0875
793.89938	8045.0875
797.76935	7923.8875
801.6366	7885.6875
805.50115	7872.8875
809.36299	7886.6875
813.22213	7869.4875
817.07857	7860.3875
820.93231	7856.5875
824.78336	7802.3875
828.63172	7741.4875
832.47738	7722.5875
836.32036	7686.4875
840.16066	7679.4875
843.99827	7649.6875
847.8332	7619.2875
851.66546	7592.7875
855.49504	7586.2875
859.32195	7573.1875
863.1462	7537.2875
866.96777	7532.4875
870.78668	7529.6875
874.60293	7567.3875
878.41652	7575.1875
882.22745	7573.5875
886.03573	7610.6875
889.84136	7630.5875
893.64433	7624.3875
897.44466	7569.7875
901.24235	7510.9875
905.0374	7476.3875
908.8298	7444.7875
912.61957	7433.3875
916.40671	7440.0875
920.19121	7466.7875
923.97308	7481.9875
927.75233	7503.7875
931.52895	7474.2875
935.30295	7407.9875
939.07433	7294.1875
942.84309	7201.9875
946.60924	7100.1875
950.37278	7072.6875
954.13371	7019.7875
957.89203	7026.4875
961.64774	6999.7875
965.40086	6979.7875
969.15137	6959.1875
972.89929	6931.5875
976.64461	6912.8875
980.38733	6875.4875
984.12747	6884.2875
987.86502	6881.9875
991.59999	6887.8875
995.33237	6901.9875
999.06217	6929.5875
1002.78939	6990.2875
1006.51404	7052.8875
1010.23611	7122.9875
1013.95561	7204.8875
1017.67255	7199.4875
1021.38692	7205.6875
1025.09872	7134.2875
1028.80796	7071.6875
1032.51465	7027.5875
1036.21877	7024.5875
1039.92035	7045.3875
1043.61937	7077.7875
1047.31584	7092.5875
1051.00976	7138.3875
1054.70114	7172.0875
1058.38998	7172.9875
1062.07627	7239.0875
1065.76003	7302.6875
1069.44126	7379.2875
1073.11995	7409.6875
1076.79611	7489.5875
1080.46974	7527.8875
1084.14085	7543.4875
1087.80943	7578.2875
1091.47549	7611.7875
1095.13903	7631.5875
1098.80005	7550.0875
1102.45857	7407.6875
1106.11456	7283.3875
1109.76805	7236.0875
1113.41903	7285.8875
1117.06751	7381.6875
1120.71348	7505.0875
1124.35696	7683.3875
1127.99793	7847.5875
1131.63641	7986.3875
1135.2724	7930.0875
1138.90589	7761.9875
1142.5369	7626.8875
1146.16542	7515.0875
1149.79145	7452.7875
1153.415	7426.9875
1157.03607	7409.9875
1160.65467	7473.3875
1164.27079	7651.8875
1167.88443	7878.1875
1171.49561	8254.5875
1175.10432	8792.9875
1178.71056	9502.1875
1182.31434	10110.0875
1185.91565	10334.4875
1189.51451	10290.5875
1193.11091	10018.3875
1196.70485	9638.8875
1200.29634	9289.3875
1203.88538	9019.4875
1207.47197	8734.7875
1211.05612	8466.8875
1214.63782	8225.2875
1218.21708	8038.1875
1221.79391	7855.7875
1225.36829	7747.5875
1228.94024	7709.7875
1232.50976	7678.6875
1236.07685	7676.7875
1239.6415	7652.9875
1243.20374	7666.9875
1246.76355	7690.2875
1250.32093	7769.0875
1253.8759	7860.2875
1257.42845	8034.0875
1260.97859	8177.5875
1264.52631	8341.4875
1268.07163	8492.3875
1271.61453	8631.4875
1275.15503	8766.4875
1278.69312	8856.1875
1282.22882	8966.8875
1285.76211	9117.8875
1289.29301	9322.4875
1292.82151	9595.4875
1296.34761	9924.4875
1299.87133	10294.4875
1303.39266	10762.9875
1306.9116	11312.4875
1310.42815	11885.0875
1313.94233	12250.2875
1317.45412	12171.1875
1320.96354	11867.6875
1324.47058	11549.8875
1327.97525	11196.4875
1331.47754	10982.1875
1334.97747	10800.7875
1338.47502	10773.3875
1341.97022	10848.9875
1345.46305	11013.9875
1348.95352	11203.0875
1352.44163	11548.7875
1355.92738	12031.8875
1359.41078	12788.6875
1362.89183	13730.4875
1366.37053	13783.8875
1369.84688	12567.9875
1373.32088	11005.2875
1376.79254	9937.2875
1380.26186	9378.1875
1383.72883	9124.7875
1387.19347	8973.7875
1390.65578	8799.3875
1394.11575	8656.0875
1397.57339	8504.2875
1401.0287	8406.5875
1404.48168	8326.4875
1407.93234	8206.3875
1411.38068	8079.2875
1414.82669	7932.4875
1418.27039	7750.6875
1421.71177	7595.8875
1425.15083	7422.5875
1428.58758	7307.9875
1432.02203	7281.9875
1435.45416	7331.5875
1438.88399	7399.7875
1442.31151	7450.9875
1445.73673	7526.9875
1449.15965	7608.3875
1452.58027	7686.3875
1455.9986	7730.8875
1459.41463	7790.5875
1462.82837	7875.3875
1466.23982	7989.5875
1469.64898	8081.4875
1473.05586	8190.5875
1476.46045	8241.8875
1479.86276	8322.1875
1483.26279	8380.0875
1486.66054	8441.0875
1490.05602	8589.0875
1493.44922	8837.7875
1496.84016	9264.7875
1500.22882	9891.4875
1503.61521	10781.4875
1506.99934	11770.5875
1510.38121	12543.7875
1513.76081	12771.2875
1517.13816	12276.6875
1520.51324	11317.0875
1523.88607	10404.3875
1527.25665	9766.3875
1530.62498	9393.2875
1533.99105	9155.4875
1537.35488	8954.3875
1540.71647	8767.3875
1544.07581	8559.7875
1547.4329	8393.0875
1550.78776	8300.5875
1554.14038	8246.4875
1557.49077	8298.4875
1560.83892	8363.6875
1564.18484	8469.4875
1567.52853	8639.9875
1570.86999	8797.5875
1574.20922	8931.0875
1577.54624	8977.3875
1580.88103	8792.6875
1584.2136	8464.0875
1587.54395	8225.0875
1590.87208	8169.2875
1594.19801	8314.9875
1597.52172	8558.1875
1600.84321	8680.3875
1604.16251	8497.0875
1607.47959	8160.9875
1610.79447	7799.9875
1614.10715	7430.4875
1617.41763	7069.8875
1620.7259	6813.1875
1624.03199	6645.4875
1627.33587	6592.8875
1630.63757	6663.1875
1633.93707	6825.2875
1637.23439	7144.3875
1640.52951	7659.1875
1643.82246	8390.9875
1647.11321	9234.3875
1650.40179	9885.7875
1653.68819	9916.2875
1656.97241	9143.2875
1660.25446	8117.2875
1663.53433	7278.3875
1666.81203	6666.1875
1670.08756	6284.5875
1673.36092	6034.9875
1676.63211	5885.4875
1679.90115	5752.9875
1683.16801	5694.3875
1686.43272	5640.7875
1689.69527	5574.3875
1692.95567	5557.2875
1696.2139	5569.1875
1699.46999	5556.2875
1702.72392	5517.1875
1705.97571	5480.0875
1709.22535	5400.6875
1712.47284	5324.9875
1715.71819	5272.8875
1718.96139	5227.5875
1722.20246	5195.1875
1725.44139	5139.9875
1728.67818	5110.0875
1731.91284	5080.4875
1735.14537	5043.9875
1738.37576	5022.6875
1741.60403	4983.6875
1744.83017	4968.9875
1748.05418	4970.7875
1751.27607	4959.2875
1754.49584	4961.3875
1757.71349	4967.0875
1760.92903	4964.2875
1764.14244	4950.8875
1767.35375	4936.8875
1770.56294	4907.1875
1773.77002	4864.9875
1776.97499	4847.5875
1780.17785	4834.8875
1783.37861	4807.0875
1786.57727	4789.0875
1789.77382	4782.0875
1792.96828	4752.0875
1796.16064	4738.6875
1799.3509	4702.9875
1802.53907	4707.7875
1805.72514	4678.8875
1808.90913	4647.0875
1812.09102	4642.7875
1815.27083	4607.5875
1818.44856	4609.0875
1821.6242	4594.7875
1824.79776	4586.2875
1827.96924	4579.3875
1831.13864	4566.4875
1834.30597	4565.8875
1837.47122	4548.1875
1840.6344	4516.6875
1843.7955	4531.0875
1846.95454	4512.0875
1850.11151	4508.2875
1853.26642	4511.0875
1856.41926	4503.6875
1859.57004	4495.2875
1862.71876	4484.4875
1865.86542	4472.4875
1869.01003	4457.0875
1872.15258	4460.0875
1875.29308	4453.6875
1878.43152	4432.3875
1881.56792	4418.3875
1884.70227	4409.4875
1887.83457	4397.3875
1890.96482	4384.4875
1894.09304	4380.9875
1897.21921	4393.9875
1900.34335	4357.5875
1903.46544	4359.7875
1906.58551	4340.8875
1909.70353	4327.7875
1912.81953	4325.7875
1915.93349	4314.7875
1919.04543	4309.4875
1922.15534	4293.5875
1925.26322	4278.0875
1928.36908	4264.5875
1931.47292	4260.1875
1934.57473	4242.1875
1937.67453	4238.7875
1940.77232	4201.5875
1943.86808	4204.9875
1946.96184	4192.1875
1950.05358	4182.4875
1953.14331	4173.0875
1956.23103	4145.9875
1959.31675	4136.4875
1962.40046	4126.8875
1965.48217	4104.2875
1968.56188	4083.7875
1971.63959	4059.5875
1974.7153	4061.2875
1977.78901	4037.6875
1980.86073	4021.3875
1983.93046	4001.8875
1986.99819	3997.5875
1990.06394	3973.5875
1993.1277	3953.0875
1996.18947	3934.7875
1999.24925	3933.3875
2002.30706	3917.8875
2005.36288	3896.6875
2008.41672	3870.4875
2011.46859	3869.4875
2014.51848	3844.6875
2017.56639	3840.2875
2020.61233	3829.6875
2023.6563	3818.0875
2026.6983	3790.7875
2029.73833	3799.2875
2032.7764	3766.6875
2035.8125	3753.5875
2038.84664	3762.5875
2041.87881	3751.8875
2044.90903	3725.3875
2047.93729	3709.4875
2050.96359	3712.2875
2053.98794	3700.7875
2057.01034	3705.2875
2060.03078	3688.7875
2063.04927	3682.9875
2066.06582	3675.8875
2069.08042	3660.9875
2072.09307	3658.2875
2075.10378	3655.9875
2078.11255	3660.2875
2081.11938	3648.0875
2084.12426	3654.1875
2087.12722	3640.2875
2090.12824	3643.3875
2093.12732	3629.9875
2096.12447	3633.4875
2099.11969	3642.2875
2102.11299	3631.5875
2105.10435	3612.7875
2108.09379	3619.2875
2111.08131	3631.5875
2114.0669	3609.6875
2117.05057	3614.3875
2120.03233	3617.0875
2123.01216	3620.8875
2125.99008	3616.5875
2128.96609	3605.6875
2131.94018	3601.9875
2134.91236	3619.1875
2137.88263	3619.8875
2140.851	3607.9875
2143.81746	3610.8875
2146.78201	3610.4875
2149.74466	3605.8875
2152.7054	3619.2875
2155.66425	3613.0875
2158.6212	3606.1875
2161.57625	3584.5875
2164.52941	3582.1875
2167.48067	3574.8875
2170.43004	3561.3875
2173.37752	3560.1875
2176.32311	3570.8875
2179.26681	3555.5875
2182.20863	3567.1875
2185.14856	3549.8875
2188.08661	3557.2875
2191.02278	3539.7875
2193.95707	3528.9875
2196.88948	3519.5875
2199.82001	3517.4875
2202.74867	3517.8875
2205.67545	3523.1875
2208.60037	3492.7875
2211.52341	3510.7875
2214.44458	3483.5875
2217.36388	3473.6875
2220.28132	3473.2875
2223.1969	3451.3875
2226.11061	3447.4875
2229.02246	3440.0875
2231.93245	3421.2875
2234.84058	3415.3875
2237.74686	3407.3875
2240.65128	3405.4875
2243.55385	3394.2875
2246.45456	3388.7875
2249.35343	3383.3875
2252.25044	3372.9875
2255.14561	3359.6875
2258.03893	3380.5875
2260.93041	3373.4875
2263.82004	3347.9875
2266.70783	3355.4875
2269.59378	3324.0875
2272.4779	3313.9875
2275.36017	3301.3875
2278.24061	3302.4875
2281.11922	3293.6875
2283.996	3271.9875
2286.87094	3274.5875
2289.74405	3254.6875
2292.61534	3250.3875
2295.4848	3242.6875
2298.35243	3229.5875
2301.21824	3242.6875
2304.08223	3229.4875
2306.94439	3224.7875
2309.80474	3218.5875
2312.66327	3208.5875
2315.51999	3215.1875
2318.37489	3199.1875
2321.22797	3201.3875
2324.07925	3181.6875
2326.92871	3175.2875
2329.77637	3182.0875
2332.62222	3171.8875
2335.46626	3149.6875
2338.3085	3152.7875
2341.14893	3139.4875
2343.98756	3138.2875
2346.8244	3132.9875
2349.65943	3135.9875
2352.49267	3130.8875
2355.32411	3114.2875
2358.15376	3134.9875
2360.98161	3129.1875
2363.80768	3125.4875
2366.63195	3133.3875
2369.45444	3124.1875
2372.27514	3118.3875
2375.09405	3101.8875
2377.91118	3099.0875
2380.72652	3091.8875
2383.54009	3077.3875
2386.35187	3069.5875
2389.16188	3052.2875
2391.97011	3030.8875
2394.77657	3032.1875
2397.58125	3031.8875
2400.38416	3032.1875
2403.18529	3001.5875
2405.98466	3001.6875
2408.78226	3017.4875
2411.57809	2994.2875
2414.37216	2986.4875
2417.16446	2978.4875
2419.955	2979.7875
2422.74378	2981.1875
2425.5308	2969.0875
2428.31606	2959.5875
2431.09956	2960.1875
2433.88131	2940.7875
2436.6613	2952.3875
2439.43954	2942.4875
2442.21603	2940.9875
2444.99077	2936.9875
2447.76377	2926.9875
2450.53501	2927.6875
2453.30451	2927.5875
2456.07226	2917.7875
2458.83827	2916.5875
2461.60254	2904.5875
2464.36507	2910.0875
2467.12586	2906.7875
2469.88492	2901.2875
2472.64224	2896.5875
2475.39782	2907.5875
2478.15167	2910.1875
2480.90379	2881.8875
2483.65417	2886.9875
2486.40283	2896.3875
2489.14976	2891.7875
2491.89497	2891.1875
2494.63845	2899.8875
2497.3802	2898.7875
2500.12024	2883.5875
2502.85855	2858.2875
2505.59514	2854.1875
2508.33002	2863.7875
2511.06318	2835.2875
2513.79462	2837.5875
2516.52435	2820.2875
2519.25237	2835.1875
2521.97867	2812.5875
2524.70327	2812.5875
2527.42616	2804.9875
2530.14734	2792.2875
2532.86681	2789.2875
2535.58458	2788.1875
2538.30065	2775.5875
2541.01501	2786.3875
2543.72768	2776.6875
2546.43864	2771.8875
2549.14791	2750.2875
2551.85548	2758.9875
2554.56136	2741.4875
2557.26554	2748.2875
2559.96803	2735.0875
2562.66883	2723.9875
2565.36794	2718.8875
2568.06536	2721.8875
2570.7611	2708.1875
2573.45514	2704.9875
2576.14751	2707.0875
2578.83819	2691.3875
2581.52719	2666.3875
2584.21451	2687.2875
2586.90015	2669.0875
2589.58411	2670.4875
2592.2664	2674.5875
2594.94701	2644.8875
2597.62594	2648.7875
2600.30321	2645.5875
2602.9788	2633.2875
2605.65273	2628.8875
2608.32498	2636.3875
2610.99557	2619.3875
2613.66449	2612.6875
2616.33175	2602.4875
2618.99734	2604.2875
2621.66128	2606.5875
2624.32355	2598.4875
2626.98416	2595.3875
2629.64311	2589.9875
2632.30041	2580.3875
2634.95605	2586.0875
2637.61004	2570.4875
2640.26238	2561.7875
2642.91306	2562.5875
2645.56209	2557.9875
2648.20948	2549.2875
2650.85521	2555.0875
2653.4993	2541.4875
2656.14175	2545.9875
2658.78255	2545.2875
2661.42171	2552.0875
2664.05923	2548.8875
2666.6951	2549.4875
2669.32934	2547.0875
2671.96194	2545.2875
2674.59291	2545.7875
2677.22224	2547.7875
2679.84993	2544.8875
2682.476	2533.8875
2685.10043	2542.4875
2687.72324	2538.3875
2690.34441	2532.5875
2692.96396	2533.5875
2695.58188	2530.1875
2698.19818	2524.1875
2700.81285	2535.0875
2703.4259	2551.0875
2706.03733	2591.4875
2708.64714	2562.8875
2711.25533	2540.0875
2713.86191	2521.7875
2716.46687	2545.3875
2719.07021	2539.3875
2721.67194	2518.7875
2724.27206	2517.4875
2726.87057	2512.0875
2729.46747	2516.6875
2732.06276	2505.3875
2734.65644	2513.1875
2737.24852	2507.3875
2739.83899	2497.5875
2742.42786	2501.9875
2745.01513	2481.3875
2747.60079	2497.7875
2750.18486	2483.9875
2752.76733	2472.9875
2755.3482	2465.7875
2757.92747	2462.7875
2760.50515	2463.2875
2763.08123	2451.2875
2765.65573	2455.5875
2768.22863	2469.7875
2770.79994	2450.0875
2773.36967	2450.6875
2775.9378	2433.9875
2778.50435	2436.2875
2781.06932	2427.5875
2783.6327	2430.1875
2786.1945	2430.2875
2788.75471	2424.1875
2791.31335	2407.3875
2793.87041	2405.3875
2796.42589	2398.9875
2798.97979	2399.7875
2801.53212	2389.4875
2804.08288	2378.8875
2806.63206	2379.9875
2809.17967	2367.1875
2811.72571	2374.1875
2814.27018	2369.2875
2816.81308	2363.5875
2819.35442	2353.2875
2821.89419	2361.3875
2824.43239	2364.2875
2826.96904	2352.3875
2829.50412	2355.2875
2832.03763	2350.8875
2834.56959	2347.1875
2837.1	2342.5875
2839.62884	2343.7875
2842.15613	2351.4875
2844.68186	2354.4875
2847.20604	2353.7875
2849.72867	2362.3875
2852.24974	2366.3875
2854.76927	2363.0875
2857.28724	2376.1875
2859.80367	2357.5875
2862.31855	2353.9875
2864.83189	2340.0875
2867.34368	2339.5875
2869.85393	2342.8875
2872.36264	2341.9875
2874.8698	2329.5875
2877.37543	2339.9875
2879.87952	2343.3875
2882.38207	2326.5875
2884.88308	2324.7875
2887.38256	2324.1875
2889.88051	2326.4875
2892.37692	2318.7875
2894.8718	2310.4875
2897.36515	2323.1875
2899.85698	2316.6875
2902.34727	2322.4875
2904.83604	2330.1875
2907.32328	2323.0875
2909.809	2318.9875
2912.29319	2326.2875
2914.77587	2324.9875
2917.25702	2331.5875
2919.73665	2325.6875
2922.21476	2318.5875
2924.69136	2330.5875
2927.16644	2326.4875
2929.64	2317.4875
2932.11205	2318.3875
2934.58258	2318.7875
2937.05161	2314.5875
2939.51912	2306.8875
2941.98513	2303.2875
2944.44962	2281.7875
2946.91261	2291.1875
2949.37409	2303.8875
2951.83407	2302.1875
2954.29254	2278.0875
2956.74951	2278.3875
2959.20498	2273.0875
2961.65895	2259.2875
2964.11142	2259.6875
2966.56239	2256.1875
2969.01186	2243.1875
2971.45984	2242.1875
2973.90632	2243.4875
2976.35131	2233.3875
2978.7948	2232.1875
2981.23681	2214.8875
2983.67732	2220.2875
2986.11635	2220.3875
2988.55388	2202.9875
2990.98993	2210.1875
2993.4245	2198.6875
2995.85758	2198.6875
2998.28917	2189.5875
3000.71928	2187.2875
3003.14791	2186.9875
3005.57506	2193.5875
3008.00073	2170.8875
3010.42493	2180.7875
3012.84764	2172.1875
3015.26888	2175.0875
3017.68865	2172.3875
3020.10694	2161.2875
3022.52376	2155.6875
3024.9391	2157.7875
3027.35298	2151.6875
3029.76539	2142.6875
3032.17632	2149.5875
3034.5858	2143.3875
3036.9938	2142.2875
3039.40034	2141.7875
3041.80542	2143.2875
3044.20903	2133.8875
3046.61118	2133.2875
3049.01187	2123.2875
3051.4111	2126.2875
3053.80888	2126.1875
3056.20519	2123.2875
3058.60005	2113.2875
3060.99345	2132.7875
3063.3854	2118.2875
3065.7759	2116.4875
3068.16494	2110.5875
3070.55254	2106.6875
3072.93868	2108.6875
3075.32338	2111.9875
3077.70662	2104.3875
3080.08842	2103.6875
3082.46878	2113.6875
3084.84769	2102.3875
3087.22515	2097.9875
3089.60118	2101.7875
3091.97576	2101.2875
3094.3489	2096.0875
3096.72061	2100.7875
3099.09087	2111.6875
3101.4597	2102.3875
3103.82709	2109.2875
3106.19305	2106.8875
3108.55757	2107.9875
3110.92066	2101.2875
3113.28232	2105.6875
3115.64255	2114.6875
3118.00134	2115.1875
3120.35871	2106.6875
3122.71466	2097.2875
3125.06917	2105.2875
3127.42226	2099.6875
3129.77393	2103.4875
3132.12417	2114.5875
3134.47299	2116.2875
3136.82039	2109.8875
3139.16636	2102.1875
3141.51092	2115.5875
3143.85406	2121.6875
3146.19579	2126.2875
3148.53609	2124.6875
3150.87499	2126.0875
3153.21246	2142.5875
3155.54853	2147.7875
3157.88318	2146.7875
3160.21642	2156.7875
3162.54826	2147.4875
3164.87868	2167.1875
3167.2077	2157.3875
3169.5353	2167.1875
3171.86151	2169.4875
3174.18631	2166.7875
3176.5097	2167.8875
3178.83169	2176.0875
3181.15228	2180.3875
3183.47147	2175.6875
3185.78926	2170.1875
3188.10565	2179.2875
3190.42065	2176.2875
3192.73424	2181.2875
3195.04645	2179.8875
3197.35725	2179.8875
3199.66667	2175.8875
3201.97469	2190.1875
3204.28132	2189.7875
3206.58656	2194.2875
3208.8904	2196.8875
3211.19287	2204.2875
3213.49394	2210.3875
3215.79363	2210.9875
3218.09193	2216.5875
3220.38884	2222.7875
3222.68438	2240.0875
3224.97853	2222.9875
3227.2713	2210.5875
3229.56269	2204.7875
3231.8527	2204.4875
3234.14133	2198.0875
3236.42858	2197.8875
3238.71446	2192.7875
3240.99896	2193.9875
3243.28209	2198.3875
3245.56384	2189.7875
3247.84423	2195.5875
3250.12324	2198.6875
3252.40088	2199.3875
3254.67715	2191.8875
3256.95205	2181.8875
3259.22558	2195.6875
3261.49775	2183.2875
3263.76855	2181.5875
3266.03799	2179.4875
3268.30606	2166.8875
3270.57277	2163.3875
3272.83812	2171.3875
3275.10211	2159.5875
3277.36474	2169.5875
3279.62601	2175.6875
3281.88593	2151.9875
3284.14448	2147.0875
3286.40168	2146.9875
3288.65753	2159.1875
3290.91202	2137.6875
3293.16516	2141.5875
3295.41695	2135.4875
3297.66738	2123.6875
3299.91647	2118.7875
3302.16421	2100.8875
3304.4106	2093.8875
3306.65564	2081.5875
3308.89933	2076.8875
3311.14169	2073.7875
3313.38269	2056.3875
3315.62236	2036.0875
3317.86068	2026.4875
3320.09766	1996.8875
3322.3333	1994.4875
3324.5676	1985.4875
3326.80056	1971.2875
3329.03219	1957.3875
3331.26248	0.4875
3333.49143	-0.4125
3335.71905	1.4875
