Data from AgNPs_FTO_APTES_UA_10um_CRN_0.1mM_R6G_10uM_NaF_0.1M_Addition_RamanShift__16__13-54-09-143.txt Node

Date: Tue Dec 21 13:54:09 GMT 2021
User: TCL
Spectrometer: QEP01345
Trigger mode: 4
Integration Time (sec): 7.000000E0
Scans to average: 10
Electric dark correction enabled: true
Nonlinearity correction enabled: false
Boxcar width: 0
XAxis mode: Raman Shifts
Number of Pixels in Spectrum: 1044
>>>>>Begin Spectral Data<<<<<
46.04893	0.5
50.45542	-1.4
54.85868	-1
59.25871	-0.5
63.6555	43
68.04907	48.7
72.43941	49.2
76.82654	51.3
81.21044	55.5
85.59113	56.9
89.96862	57.1
94.34289	59.4
98.71396	58.4
103.08183	62.5
107.4465	66.4
111.80798	71.3
116.16626	69.7
120.52136	69.3
124.87327	72.1
129.222	73
133.56755	83.2
137.90993	91.7
142.24913	98.3
146.58517	105.5
150.91804	127.3
155.24774	149
159.57429	186.9
163.89768	242
168.21792	315.2
172.53501	430
176.84895	596.8
181.15975	839.7
185.46741	1170
189.77193	1625.2
194.07331	2184.8
198.37157	2828
202.6667	3509.1
206.9587	4177.7
211.24758	4875.2
215.53334	5551.7
219.81599	6254
224.09553	7019.9
228.37195	7874.6
232.64527	8796.1
236.91549	9781
241.18261	10778.4
245.44663	11691
249.70755	12536.1
253.96539	13209.7
258.22014	13781.5
262.4718	14230.4
266.72039	14538.4
270.96589	14703.8
275.20832	14754.6
279.44768	14657.6
283.68397	14507.3
287.91719	14408.1
292.14735	14351.2
296.37445	14357.5
300.59849	14419.8
304.81948	14471.1
309.03742	14472.5
313.25231	14282.8
317.46415	13900.4
321.67296	13452.6
325.87872	13067.4
330.08145	12856.8
334.28114	12794.2
338.47781	12872.5
342.67145	13041.7
346.86207	13241.5
351.04966	13509.8
355.23424	13799.3
359.4158	14030.3
363.59435	14179.3
367.76989	14318.2
371.94243	14379.1
376.11196	14415.3
380.27849	14489
384.44203	14579.6
388.60257	14726.1
392.76012	14861.3
396.91468	15056
401.06626	15265.1
405.21485	15447.1
409.36047	15377
413.50311	15125.2
417.64277	14903.1
421.77947	14760.7
425.9132	14759.2
430.04396	14812
434.17176	14872.2
438.2966	14974.2
442.41849	15156.2
446.53742	15508
450.6534	15905.6
454.76644	16220.7
458.87653	16410.7
462.98368	16379.6
467.08789	16298.2
471.18916	16144.2
475.2875	16044.5
479.38291	16058.7
483.4754	15996.7
487.56496	15881.6
491.6516	15602.1
495.73531	15396.7
499.81612	15239.3
503.89401	15279.7
507.96899	15275.1
512.04106	15216.6
516.11023	15127.3
520.1765	14988.9
524.23987	14871.3
528.30034	14766.2
532.35792	14700.5
536.41261	14610.6
540.46441	14490.3
544.51333	14456.8
548.55936	14532.4
552.60252	14785.2
556.64279	15082.8
560.6802	15273.1
564.71473	15408.5
568.7464	15632
572.7752	15952.3
576.80114	16270.5
580.82422	16451
584.84444	16599.9
588.86181	16742.9
592.87633	16865.6
596.888	16863.9
600.89682	16889.5
604.9028	17381.2
608.90594	18832.7
612.90624	20397.2
616.90371	19231.9
620.89834	16122.5
624.89015	14646.4
628.87913	14479.1
632.86528	14698.1
636.84862	14809.7
640.82913	14724.8
644.80683	14361.1
648.78172	14017.9
652.75379	13916.9
656.72306	13976.4
660.68952	14181
664.65319	14220.5
668.61405	14055.4
672.57211	14081.3
676.52738	14211.4
680.47986	14268.7
684.42955	14227.1
688.37646	14082.5
692.32058	14008.9
696.26192	14009.2
700.20048	14077.6
704.13626	14154.2
708.06928	14153.9
711.99952	14062.7
715.927	14033.3
719.85171	13982.3
723.77365	13996.3
727.69284	13895.3
731.60928	13784.7
735.52295	13752.4
739.43388	13714.2
743.34206	13725.5
747.24749	13769.9
751.15017	13818.4
755.05012	13967.4
758.94733	14371.7
762.8418	15063.7
766.73354	16278.2
770.62254	17540.7
774.50882	17964.7
778.39237	17320.2
782.27321	15964.3
786.15132	14791.8
790.02671	14016.7
793.89938	13634.9
797.76935	13442.6
801.6366	13408.2
805.50115	13350.2
809.36299	13274.2
813.22213	13167.3
817.07857	13103.2
820.93231	13054.2
824.78336	12993
828.63172	12956.7
832.47738	12910.7
836.32036	12874.7
840.16066	12839.9
843.99827	12835.3
847.8332	12799
851.66546	12765
855.49504	12751
859.32195	12800.4
863.1462	12795.9
866.96777	12747.1
870.78668	12790.1
874.60293	12777.3
878.41652	12782.2
882.22745	12806
886.03573	12883.9
889.84136	12871.4
893.64433	12843.9
897.44466	12749
901.24235	12680
905.0374	12546.1
908.8298	12526.5
912.61957	12466.2
916.40671	12528.3
920.19121	12674.8
923.97308	12789.5
927.75233	12823
931.52895	12748.6
935.30295	12601.9
939.07433	12363.1
942.84309	12181.8
946.60924	12083.9
950.37278	12035.7
954.13371	12001.8
957.89203	11966.1
961.64774	11963.9
965.40086	11954.3
969.15137	11863.3
972.89929	11798.4
976.64461	11720.7
980.38733	11699.7
984.12747	11697.8
987.86502	11753.6
991.59999	11848.3
995.33237	11994.4
999.06217	12173.3
1002.78939	12468.6
1006.51404	12653.4
1010.23611	12849.8
1013.95561	12997
1017.67255	13042.6
1021.38692	12923.7
1025.09872	12718.4
1028.80796	12581.1
1032.51465	12610.2
1036.21877	12740.4
1039.92035	12809
1043.61937	12856.6
1047.31584	12802.7
1051.00976	12764.2
1054.70114	12763.3
1058.38998	12795.8
1062.07627	12868.4
1065.76003	13000.6
1069.44126	13131.2
1073.11995	13300.6
1076.79611	13474.8
1080.46974	13518
1084.14085	13553.9
1087.80943	13638.9
1091.47549	13790.9
1095.13903	13871.6
1098.80005	13777
1102.45857	13481
1106.11456	13210.6
1109.76805	13039.4
1113.41903	13041.7
1117.06751	13113.1
1120.71348	13283.2
1124.35696	13496
1127.99793	13696.9
1131.63641	13858.3
1135.2724	13816.8
1138.90589	13714.3
1142.5369	13599.6
1146.16542	13577.5
1149.79145	13566.9
1153.415	13660.2
1157.03607	13820.7
1160.65467	14144.7
1164.27079	14667.8
1167.88443	15372.3
1171.49561	16257.7
1175.10432	17435.8
1178.71056	18876.6
1182.31434	20238.3
1185.91565	21018.1
1189.51451	21077.3
1193.11091	20613.3
1196.70485	19804.9
1200.29634	18927.5
1203.88538	18197.5
1207.47197	17574.4
1211.05612	17099.4
1214.63782	16664.8
1218.21708	16315.9
1221.79391	16105.5
1225.36829	15960.3
1228.94024	15798.4
1232.50976	15541.8
1236.07685	15354.7
1239.6415	15295.6
1243.20374	15253.6
1246.76355	15322.2
1250.32093	15481.4
1253.8759	15791.2
1257.42845	16225.1
1260.97859	16633.5
1264.52631	17090.5
1268.07163	17543.7
1271.61453	18014.4
1275.15503	18479.9
1278.69312	19018.9
1282.22882	19492.4
1285.76211	20025.9
1289.29301	20677.3
1292.82151	21486.6
1296.34761	22433.2
1299.87133	23489.6
1303.39266	24662.7
1306.9116	25896.4
1310.42815	27126.2
1313.94233	27946.8
1317.45412	28066.9
1320.96354	27791.6
1324.47058	27419.7
1327.97525	26981.9
1331.47754	26619.5
1334.97747	26438.3
1338.47502	26338.7
1341.97022	26205.8
1345.46305	26097.9
1348.95352	25921.1
1352.44163	25836.2
1355.92738	26159.4
1359.41078	26860.9
1362.89183	27648.3
1366.37053	27267.1
1369.84688	25351.5
1373.32088	22835
1376.79254	21039.9
1380.26186	20170.6
1383.72883	19936.4
1387.19347	19804.1
1390.65578	19652.6
1394.11575	19652
1397.57339	19748.4
1401.0287	20084.3
1404.48168	20298.1
1407.93234	20304.8
1411.38068	20000.3
1414.82669	19350.2
1418.27039	18567.2
1421.71177	17778.3
1425.15083	17131.2
1428.58758	16729.7
1432.02203	16730.9
1435.45416	16956.4
1438.88399	17360.3
1442.31151	17756.8
1445.73673	18118.6
1449.15965	18509.5
1452.58027	18850.2
1455.9986	19030.1
1459.41463	19259.2
1462.82837	19558.7
1466.23982	19908.6
1469.64898	20183.5
1473.05586	20275.8
1476.46045	20219.7
1479.86276	20143.1
1483.26279	19914.6
1486.66054	19829.5
1490.05602	19878.9
1493.44922	20061.2
1496.84016	20430.6
1500.22882	20941.6
1503.61521	21781.1
1506.99934	22767.8
1510.38121	23563.4
1513.76081	23777.2
1517.13816	23198
1520.51324	22112.8
1523.88607	21047.8
1527.25665	20357.6
1530.62498	20008.1
1533.99105	19851.1
1537.35488	19633.9
1540.71647	19293.7
1544.07581	18923.2
1547.4329	18451.8
1550.78776	18134.3
1554.14038	17890.7
1557.49077	17813
1560.83892	17896.1
1564.18484	18019.1
1567.52853	18168.5
1570.86999	18384.5
1574.20922	18622.7
1577.54624	18778.4
1580.88103	18699.3
1584.2136	18615.7
1587.54395	18755.9
1590.87208	19292.6
1594.19801	20161.8
1597.52172	21142.3
1600.84321	21522.8
1604.16251	20865.5
1607.47959	19564.2
1610.79447	18052.3
1614.10715	16659.2
1617.41763	15397
1620.7259	14509.4
1624.03199	13999
1627.33587	13872.1
1630.63757	14118.2
1633.93707	14846.8
1637.23439	16086.6
1640.52951	17951.2
1643.82246	20214.3
1647.11321	22236.9
1650.40179	23074.1
1653.68819	22132.2
1656.97241	19787.7
1660.25446	17085.9
1663.53433	14872
1666.81203	13364
1670.08756	12410.6
1673.36092	11829.9
1676.63211	11437.8
1679.90115	11153.6
1683.16801	10924.2
1686.43272	10783.9
1689.69527	10652.8
1692.95567	10572.2
1696.2139	10510
1699.46999	10466.5
1702.72392	10432.5
1705.97571	10366.8
1709.22535	10313.2
1712.47284	10272.1
1715.71819	10245.1
1718.96139	10177
1722.20246	10136.8
1725.44139	10075.4
1728.67818	10063.4
1731.91284	9971
1735.14537	9935.8
1738.37576	9886.3
1741.60403	9858.9
1744.83017	9819.3
1748.05418	9810.6
1751.27607	9831.3
1754.49584	9853.9
1757.71349	9868.7
1760.92903	9846
1764.14244	9799.6
1767.35375	9748.9
1770.56294	9703.4
1773.77002	9631.1
1776.97499	9556.1
1780.17785	9516
1783.37861	9504.9
1786.57727	9462.3
1789.77382	9422.6
1792.96828	9399.5
1796.16064	9360.8
1799.3509	9337.7
1802.53907	9309.5
1805.72514	9246.3
1808.90913	9250.5
1812.09102	9225.9
1815.27083	9186
1818.44856	9172.8
1821.6242	9141
1824.79776	9147.4
1827.96924	9133.9
1831.13864	9109.9
1834.30597	9092.8
1837.47122	9105.8
1840.6344	9089.9
1843.7955	9103
1846.95454	9080.4
1850.11151	9074.9
1853.26642	9059.3
1856.41926	9062.5
1859.57004	9040.9
1862.71876	9026.6
1865.86542	9045.5
1869.01003	9018.8
1872.15258	9010.1
1875.29308	9000.4
1878.43152	8986.2
1881.56792	8955.9
1884.70227	8957.1
1887.83457	8946.9
1890.96482	8927.5
1894.09304	8892.7
1897.21921	8913
1900.34335	8903.6
1903.46544	8895.8
1906.58551	8847.7
1909.70353	8841.1
1912.81953	8822.6
1915.93349	8816.2
1919.04543	8782.5
1922.15534	8775.3
1925.26322	8734.7
1928.36908	8711
1931.47292	8693.1
1934.57473	8678.1
1937.67453	8651.3
1940.77232	8625.3
1943.86808	8573.9
1946.96184	8565.4
1950.05358	8540.7
1953.14331	8514.9
1956.23103	8498.5
1959.31675	8468
1962.40046	8441.1
1965.48217	8393.3
1968.56188	8367
1971.63959	8335.8
1974.7153	8333.7
1977.78901	8282.1
1980.86073	8251
1983.93046	8232.2
1986.99819	8232.6
1990.06394	8198.3
1993.1277	8146.4
1996.18947	8123.5
1999.24925	8112
2002.30706	8088.5
2005.36288	8056.7
2008.41672	8027.3
2011.46859	7998.6
2014.51848	7983.3
2017.56639	7939.3
2020.61233	7910.9
2023.6563	7901.8
2026.6983	7894.9
2029.73833	7860.4
2032.7764	7845.5
2035.8125	7838.3
2038.84664	7820.2
2041.87881	7802.7
2044.90903	7763.9
2047.93729	7759.3
2050.96359	7777.3
2053.98794	7750.3
2057.01034	7744
2060.03078	7721.6
2063.04927	7697.3
2066.06582	7715.1
2069.08042	7703.8
2072.09307	7691.5
2075.10378	7666.4
2078.11255	7670.7
2081.11938	7673.3
2084.12426	7661.1
2087.12722	7640.1
2090.12824	7643.8
2093.12732	7654.7
2096.12447	7666.7
2099.11969	7646.9
2102.11299	7653.9
2105.10435	7628.3
2108.09379	7656.4
2111.08131	7643.9
2114.0669	7645.2
2117.05057	7651.6
2120.03233	7647.8
2123.01216	7648.8
2125.99008	7647.8
2128.96609	7659.9
2131.94018	7656.1
2134.91236	7674.5
2137.88263	7657.4
2140.851	7657.4
2143.81746	7671.8
2146.78201	7657
2149.74466	7676.9
2152.7054	7654.1
2155.66425	7640.4
2158.6212	7645.9
2161.57625	7629.5
2164.52941	7622.6
2167.48067	7626.9
2170.43004	7606.4
2173.37752	7608.6
2176.32311	7588.8
2179.26681	7592
2182.20863	7595.8
2185.14856	7588.1
2188.08661	7578.3
2191.02278	7581.6
2193.95707	7586.4
2196.88948	7547.6
2199.82001	7570.3
2202.74867	7552.2
2205.67545	7551.2
2208.60037	7526.1
2211.52341	7490.9
2214.44458	7519.7
2217.36388	7490.1
2220.28132	7479.2
2223.1969	7440.5
2226.11061	7449.6
2229.02246	7426.8
2231.93245	7418.9
2234.84058	7387.4
2237.74686	7365.9
2240.65128	7364.7
2243.55385	7368.6
2246.45456	7346.1
2249.35343	7315.3
2252.25044	7335.5
2255.14561	7296.1
2258.03893	7314.6
2260.93041	7295.2
2263.82004	7274.4
2266.70783	7245.5
2269.59378	7221.6
2272.4779	7210
2275.36017	7192.6
2278.24061	7167.1
2281.11922	7153.3
2283.996	7123.1
2286.87094	7118.1
2289.74405	7114.7
2292.61534	7099.4
2295.4848	7080.3
2298.35243	7078.9
2301.21824	7059.1
2304.08223	7071.8
2306.94439	7078.1
2309.80474	7035.7
2312.66327	7032.7
2315.51999	7037.2
2318.37489	7035.3
2321.22797	6999.2
2324.07925	7021.7
2326.92871	6987.6
2329.77637	7010.8
2332.62222	6988.6
2335.46626	6959.3
2338.3085	6952.2
2341.14893	6979.6
2343.98756	6977
2346.8244	6964.4
2349.65943	6951.1
2352.49267	6948.2
2355.32411	6950.9
2358.15376	6957.9
2360.98161	6940.1
2363.80768	6938
2366.63195	6937.9
2369.45444	6908.4
2372.27514	6939.9
2375.09405	6892.3
2377.91118	6883.5
2380.72652	6872.5
2383.54009	6863.1
2386.35187	6831.4
2389.16188	6802.1
2391.97011	6773.5
2394.77657	6794.2
2397.58125	6776.3
2400.38416	6771.1
2403.18529	6749.5
2405.98466	6732.4
2408.78226	6720.8
2411.57809	6701.4
2414.37216	6703.6
2417.16446	6686.9
2419.955	6675.2
2422.74378	6692.7
2425.5308	6670.7
2428.31606	6662
2431.09956	6651.7
2433.88131	6651.5
2436.6613	6646
2439.43954	6638.6
2442.21603	6612
2444.99077	6623.4
2447.76377	6622.7
2450.53501	6602.3
2453.30451	6619
2456.07226	6621.9
2458.83827	6605.6
2461.60254	6612.7
2464.36507	6594
2467.12586	6601.1
2469.88492	6572.2
2472.64224	6580.8
2475.39782	6605.5
2478.15167	6593.7
2480.90379	6592
2483.65417	6566.9
2486.40283	6563.6
2489.14976	6562.3
2491.89497	6578
2494.63845	6592.6
2497.3802	6589.3
2500.12024	6566.4
2502.85855	6567.4
2505.59514	6541.6
2508.33002	6563.1
2511.06318	6558.3
2513.79462	6509.4
2516.52435	6508.2
2519.25237	6508.9
2521.97867	6489.5
2524.70327	6494.8
2527.42616	6476.4
2530.14734	6470.8
2532.86681	6450.3
2535.58458	6441.2
2538.30065	6432
2541.01501	6446.6
2543.72768	6442.9
2546.43864	6397.6
2549.14791	6409.1
2551.85548	6422.8
2554.56136	6424.5
2557.26554	6381.4
2559.96803	6384.8
2562.66883	6398.4
2565.36794	6375.8
2568.06536	6378.8
2570.7611	6361.9
2573.45514	6359.2
2576.14751	6336.6
2578.83819	6346.4
2581.52719	6340.7
2584.21451	6313.4
2586.90015	6303.1
2589.58411	6314.6
2592.2664	6307.4
2594.94701	6274
2597.62594	6296.3
2600.30321	6261
2602.9788	6260.6
2605.65273	6249.8
2608.32498	6261.6
2610.99557	6246.8
2613.66449	6255.3
2616.33175	6236.5
2618.99734	6245.5
2621.66128	6215.8
2624.32355	6220.1
2626.98416	6217.9
2629.64311	6222.8
2632.30041	6217.9
2634.95605	6210.1
2637.61004	6196.4
2640.26238	6218.2
2642.91306	6198.1
2645.56209	6198.9
2648.20948	6170.9
2650.85521	6187.6
2653.4993	6181.3
2656.14175	6162.2
2658.78255	6175.6
2661.42171	6172.7
2664.05923	6173
2666.6951	6181.8
2669.32934	6182
2671.96194	6180
2674.59291	6178.3
2677.22224	6169.8
2679.84993	6168.4
2682.476	6175.7
2685.10043	6167
2687.72324	6154.9
2690.34441	6152.7
2692.96396	6142.4
2695.58188	6141.9
2698.19818	6139.8
2700.81285	6139.7
2703.4259	6161.9
2706.03733	6212.1
2708.64714	6195.7
2711.25533	6178.4
2713.86191	6164.9
2716.46687	6160.1
2719.07021	6171.6
2721.67194	6155.3
2724.27206	6166.5
2726.87057	6162.7
2729.46747	6163
2732.06276	6169.3
2734.65644	6163.3
2737.24852	6143.2
2739.83899	6158.5
2742.42786	6157
2745.01513	6126.9
2747.60079	6126.7
2750.18486	6123.3
2752.76733	6127.1
2755.3482	6106.6
2757.92747	6116.6
2760.50515	6097.9
2763.08123	6131.4
2765.65573	6106.8
2768.22863	6121.2
2770.79994	6096.8
2773.36967	6102.7
2775.9378	6099.2
2778.50435	6094.7
2781.06932	6077.1
2783.6327	6072.2
2786.1945	6070.6
2788.75471	6062.9
2791.31335	6061.8
2793.87041	6054.4
2796.42589	6025.2
2798.97979	6015
2801.53212	6005
2804.08288	6020.6
2806.63206	6005.8
2809.17967	6004.7
2811.72571	5983.7
2814.27018	5959.3
2816.81308	5970.9
2819.35442	5959.9
2821.89419	5959.9
2824.43239	5958.7
2826.96904	5949.7
2829.50412	5938.9
2832.03763	5931.2
2834.56959	5916
2837.1	5915.2
2839.62884	5904.7
2842.15613	5909.7
2844.68186	5908.3
2847.20604	5929.7
2849.72867	5928.3
2852.24974	5903.3
2854.76927	5919
2857.28724	5922.3
2859.80367	5907.9
2862.31855	5881.6
2864.83189	5879.8
2867.34368	5884.4
2869.85393	5890
2872.36264	5864.9
2874.8698	5867.4
2877.37543	5852
2879.87952	5870.5
2882.38207	5870.7
2884.88308	5881.3
2887.38256	5862
2889.88051	5864.4
2892.37692	5865.7
2894.8718	5881.4
2897.36515	5874.6
2899.85698	5885.6
2902.34727	5882
2904.83604	5896.9
2907.32328	5893.1
2909.809	5917
2912.29319	5930.8
2914.77587	5929.4
2917.25702	5931.8
2919.73665	5904.9
2922.21476	5940.3
2924.69136	5920.3
2927.16644	5942.9
2929.64	5925.8
2932.11205	5916.6
2934.58258	5903.9
2937.05161	5930.2
2939.51912	5924.2
2941.98513	5912.4
2944.44962	5875.1
2946.91261	5865.3
2949.37409	5883.5
2951.83407	5859.8
2954.29254	5863
2956.74951	5860
2959.20498	5814.8
2961.65895	5800.4
2964.11142	5809.5
2966.56239	5793.9
2969.01186	5769.7
2971.45984	5747.6
2973.90632	5743.3
2976.35131	5716.1
2978.7948	5703
2981.23681	5682.8
2983.67732	5665.3
2986.11635	5652.2
2988.55388	5623.8
2990.98993	5628.6
2993.4245	5613.3
2995.85758	5587.8
2998.28917	5577.2
3000.71928	5585.4
3003.14791	5565.7
3005.57506	5573.7
3008.00073	5537.7
3010.42493	5530.1
3012.84764	5522.7
3015.26888	5521.8
3017.68865	5502.7
3020.10694	5506.8
3022.52376	5483.5
3024.9391	5486.5
3027.35298	5458
3029.76539	5460.3
3032.17632	5447.5
3034.5858	5428.6
3036.9938	5403
3039.40034	5409.7
3041.80542	5412.7
3044.20903	5397.1
3046.61118	5405.4
3049.01187	5371.8
3051.4111	5377.4
3053.80888	5359.6
3056.20519	5344.2
3058.60005	5337.3
3060.99345	5329.8
3063.3854	5298
3065.7759	5315
3068.16494	5284.4
3070.55254	5267.9
3072.93868	5258
3075.32338	5264
3077.70662	5242.2
3080.08842	5227.7
3082.46878	5208.9
3084.84769	5204.6
3087.22515	5201.3
3089.60118	5192.6
3091.97576	5205.9
3094.3489	5201.4
3096.72061	5209
3099.09087	5216.3
3101.4597	5201.8
3103.82709	5195.9
3106.19305	5171
3108.55757	5193.1
3110.92066	5163.7
3113.28232	5144
3115.64255	5149.3
3118.00134	5138.1
3120.35871	5125.2
3122.71466	5123.1
3125.06917	5119.3
3127.42226	5100.7
3129.77393	5111
3132.12417	5091.7
3134.47299	5111.2
3136.82039	5107.5
3139.16636	5095.3
3141.51092	5101.7
3143.85406	5102
3146.19579	5102.2
3148.53609	5111.5
3150.87499	5110.4
3153.21246	5107.3
3155.54853	5126.1
3157.88318	5117.4
3160.21642	5118.8
3162.54826	5119
3164.87868	5091.4
3167.2077	5107.7
3169.5353	5102.9
3171.86151	5091.5
3174.18631	5099.3
3176.5097	5076.9
3178.83169	5074.7
3181.15228	5097
3183.47147	5081.9
3185.78926	5062.7
3188.10565	5079.5
3190.42065	5074.4
3192.73424	5082.3
3195.04645	5083.6
3197.35725	5076.4
3199.66667	5080
3201.97469	5079.4
3204.28132	5080.6
3206.58656	5094.4
3208.8904	5073.5
3211.19287	5084.7
3213.49394	5080.5
3215.79363	5100.6
3218.09193	5093.2
3220.38884	5097.2
3222.68438	5108.1
3224.97853	5068.5
3227.2713	5074.5
3229.56269	5075.4
3231.8527	5086.9
3234.14133	5057.8
3236.42858	5052.6
3238.71446	5042.6
3240.99896	5045.2
3243.28209	5040.8
3245.56384	5019.8
3247.84423	5031.6
3250.12324	5021.4
3252.40088	5024.2
3254.67715	5018.2
3256.95205	5005.5
3259.22558	4996.2
3261.49775	4994
3263.76855	4974.8
3266.03799	4954.1
3268.30606	4949.5
3270.57277	4937.1
3272.83812	4929.3
3275.10211	4942
3277.36474	4921.8
3279.62601	4932.7
3281.88593	4909.2
3284.14448	4917.6
3286.40168	4918.6
3288.65753	4902.4
3290.91202	4909.2
3293.16516	4874.4
3295.41695	4873.2
3297.66738	4847.2
3299.91647	4820
3302.16421	4790.5
3304.4106	4776
3306.65564	4744.5
3308.89933	4726.9
3311.14169	4718.9
3313.38269	4677.6
3315.62236	4647.7
3317.86068	4601.5
3320.09766	4566.3
3322.3333	4518.9
3324.5676	4523.4
3326.80056	4459.1
3329.03219	4432.7
3331.26248	1.8
3333.49143	-0.2
3335.71905	0.7
