Data from AgNPs_FTO_APTES_UA_100um_CRN_0.1mM_R6G_10uM_NaF_0.1M_Addition_RamanShift__15__16-02-29-289.txt Node

Date: Tue Dec 21 16:02:29 GMT 2021
User: TCL
Spectrometer: QEP01345
Trigger mode: 4
Integration Time (sec): 7.000000E0
Scans to average: 10
Electric dark correction enabled: true
Nonlinearity correction enabled: false
Boxcar width: 0
XAxis mode: Raman Shifts
Number of Pixels in Spectrum: 1044
>>>>>Begin Spectral Data<<<<<
46.04893	0.2875
50.45542	-1.2125
54.85868	-0.4125
59.25871	1.2875
63.6555	27.8875
68.04907	36.0875
72.43941	39.4875
76.82654	39.8875
81.21044	43.2875
85.59113	44.1875
89.96862	45.6875
94.34289	47.9875
98.71396	45.1875
103.08183	48.9875
107.4465	54.4875
111.80798	56.0875
116.16626	53.8875
120.52136	55.3875
124.87327	56.3875
129.222	54.5875
133.56755	59.3875
137.90993	65.2875
142.24913	69.1875
146.58517	72.9875
150.91804	84.3875
155.24774	96.6875
159.57429	117.0875
163.89768	151.1875
168.21792	193.3875
172.53501	261.0875
176.84895	348.1875
181.15975	499.2875
185.46741	696.3875
189.77193	950.3875
194.07331	1290.4875
198.37157	1676.6875
202.6667	2071.6875
206.9587	2478.7875
211.24758	2883.9875
215.53334	3296.3875
219.81599	3703.7875
224.09553	4158.5875
228.37195	4670.1875
232.64527	5237.6875
236.91549	5821.0875
241.18261	6422.4875
245.44663	6947.1875
249.70755	7443.7875
253.96539	7850.2875
258.22014	8190.6875
262.4718	8452.5875
266.72039	8664.1875
270.96589	8748.7875
275.20832	8741.9875
279.44768	8670.4875
283.68397	8542.2875
287.91719	8447.9875
292.14735	8356.0875
296.37445	8361.7875
300.59849	8372.8875
304.81948	8418.9875
309.03742	8437.4875
313.25231	8333.1875
317.46415	8142.9875
321.67296	7884.3875
325.87872	7656.8875
330.08145	7596.4875
334.28114	7564.0875
338.47781	7620.3875
342.67145	7726.6875
346.86207	7865.7875
351.04966	8047.1875
355.23424	8206.5875
359.4158	8382.2875
363.59435	8508.5875
367.76989	8622.4875
371.94243	8666.4875
376.11196	8752.7875
380.27849	8804.9875
384.44203	8835.4875
388.60257	8872.4875
392.76012	8910.7875
396.91468	8975.5875
401.06626	9098.9875
405.21485	9187.1875
409.36047	9157.5875
413.50311	8943.9875
417.64277	8768.0875
421.77947	8642.0875
425.9132	8593.9875
430.04396	8588.1875
434.17176	8610.3875
438.2966	8657.8875
442.41849	8724.8875
446.53742	8806.4875
450.6534	8958.7875
454.76644	9051.2875
458.87653	9106.9875
462.98368	9143.5875
467.08789	9142.4875
471.18916	9074.1875
475.2875	9023.2875
479.38291	8983.3875
483.4754	8932.8875
487.56496	8896.5875
491.6516	8823.8875
495.73531	8774.4875
499.81612	8778.5875
503.89401	8804.2875
507.96899	8842.9875
512.04106	8846.2875
516.11023	8879.2875
520.1765	8906.6875
524.23987	8873.9875
528.30034	8800.0875
532.35792	8783.3875
536.41261	8703.3875
540.46441	8620.6875
544.51333	8606.4875
548.55936	8622.0875
552.60252	8726.0875
556.64279	8822.2875
560.6802	8884.0875
564.71473	8887.3875
568.7464	8932.8875
572.7752	9031.7875
576.80114	9036.0875
580.82422	9046.9875
584.84444	9051.6875
588.86181	9075.9875
592.87633	9024.2875
596.888	9030.1875
600.89682	9102.4875
604.9028	9487.0875
608.90594	10487.6875
612.90624	11835.3875
616.90371	11602.4875
620.89834	9813.5875
624.89015	8883.6875
628.87913	8742.3875
632.86528	8879.9875
636.84862	9011.9875
640.82913	8978.3875
644.80683	8783.9875
648.78172	8557.0875
652.75379	8482.2875
656.72306	8550.0875
660.68952	8709.7875
664.65319	8710.6875
668.61405	8567.6875
672.57211	8553.6875
676.52738	8576.3875
680.47986	8604.3875
684.42955	8568.0875
688.37646	8493.1875
692.32058	8453.5875
696.26192	8444.9875
700.20048	8474.1875
704.13626	8494.9875
708.06928	8487.8875
711.99952	8426.3875
715.927	8379.2875
719.85171	8374.2875
723.77365	8360.8875
727.69284	8329.0875
731.60928	8293.0875
735.52295	8267.5875
739.43388	8232.2875
743.34206	8227.6875
747.24749	8231.1875
751.15017	8237.2875
755.05012	8269.7875
758.94733	8410.9875
762.8418	8753.8875
766.73354	9375.2875
770.62254	10153.0875
774.50882	10584.8875
778.39237	10311.1875
782.27321	9528.6875
786.15132	8829.0875
790.02671	8390.5875
793.89938	8191.8875
797.76935	8070.8875
801.6366	8034.5875
805.50115	7995.6875
809.36299	7999.2875
813.22213	7995.3875
817.07857	7970.1875
820.93231	7931.2875
824.78336	7875.7875
828.63172	7862.9875
832.47738	7843.5875
836.32036	7797.4875
840.16066	7779.6875
843.99827	7744.3875
847.8332	7737.1875
851.66546	7718.1875
855.49504	7700.2875
859.32195	7710.2875
863.1462	7709.8875
866.96777	7714.9875
870.78668	7703.3875
874.60293	7696.7875
878.41652	7716.4875
882.22745	7739.4875
886.03573	7751.3875
889.84136	7775.4875
893.64433	7732.7875
897.44466	7688.3875
901.24235	7653.0875
905.0374	7595.5875
908.8298	7584.2875
912.61957	7541.2875
916.40671	7536.9875
920.19121	7567.6875
923.97308	7586.9875
927.75233	7585.4875
931.52895	7585.1875
935.30295	7511.4875
939.07433	7443.1875
942.84309	7334.6875
946.60924	7283.7875
950.37278	7243.0875
954.13371	7208.2875
957.89203	7167.9875
961.64774	7162.5875
965.40086	7154.2875
969.15137	7107.7875
972.89929	7093.3875
976.64461	7052.2875
980.38733	7050.5875
984.12747	7045.9875
987.86502	7056.0875
991.59999	7072.0875
995.33237	7083.3875
999.06217	7126.8875
1002.78939	7177.3875
1006.51404	7228.6875
1010.23611	7295.1875
1013.95561	7373.9875
1017.67255	7370.8875
1021.38692	7369.4875
1025.09872	7286.8875
1028.80796	7238.5875
1032.51465	7186.2875
1036.21877	7199.1875
1039.92035	7216.4875
1043.61937	7230.5875
1047.31584	7246.3875
1051.00976	7260.1875
1054.70114	7291.2875
1058.38998	7304.6875
1062.07627	7341.3875
1065.76003	7410.7875
1069.44126	7431.8875
1073.11995	7470.5875
1076.79611	7554.6875
1080.46974	7595.1875
1084.14085	7595.5875
1087.80943	7621.5875
1091.47549	7643.6875
1095.13903	7665.4875
1098.80005	7615.3875
1102.45857	7491.4875
1106.11456	7425.6875
1109.76805	7364.0875
1113.41903	7408.5875
1117.06751	7500.4875
1120.71348	7598.5875
1124.35696	7732.4875
1127.99793	7875.9875
1131.63641	8000.9875
1135.2724	7943.8875
1138.90589	7808.7875
1142.5369	7709.7875
1146.16542	7567.0875
1149.79145	7510.1875
1153.415	7453.8875
1157.03607	7434.8875
1160.65467	7469.9875
1164.27079	7629.4875
1167.88443	7827.8875
1171.49561	8116.2875
1175.10432	8579.9875
1178.71056	9193.3875
1182.31434	9743.2875
1185.91565	9978.0875
1189.51451	9915.1875
1193.11091	9659.9875
1196.70485	9321.2875
1200.29634	9003.5875
1203.88538	8741.8875
1207.47197	8475.0875
1211.05612	8174.2875
1214.63782	7966.4875
1218.21708	7830.5875
1221.79391	7723.6875
1225.36829	7659.9875
1228.94024	7611.2875
1232.50976	7597.0875
1236.07685	7569.3875
1239.6415	7597.1875
1243.20374	7611.2875
1246.76355	7653.9875
1250.32093	7689.4875
1253.8759	7776.1875
1257.42845	7918.2875
1260.97859	8037.6875
1264.52631	8165.1875
1268.07163	8280.7875
1271.61453	8436.3875
1275.15503	8509.6875
1278.69312	8623.3875
1282.22882	8711.3875
1285.76211	8806.1875
1289.29301	8941.7875
1292.82151	9190.7875
1296.34761	9418.1875
1299.87133	9700.0875
1303.39266	10095.9875
1306.9116	10596.1875
1310.42815	11141.2875
1313.94233	11463.8875
1317.45412	11428.2875
1320.96354	11117.5875
1324.47058	10793.3875
1327.97525	10490.7875
1331.47754	10210.0875
1334.97747	10042.7875
1338.47502	10049.1875
1341.97022	10161.5875
1345.46305	10342.2875
1348.95352	10631.8875
1352.44163	11006.5875
1355.92738	11463.7875
1359.41078	12179.6875
1362.89183	12962.9875
1366.37053	13005.5875
1369.84688	11856.1875
1373.32088	10454.1875
1376.79254	9509.6875
1380.26186	8983.9875
1383.72883	8752.9875
1387.19347	8575.1875
1390.65578	8458.3875
1394.11575	8270.9875
1397.57339	8145.9875
1401.0287	8067.8875
1404.48168	8021.4875
1407.93234	7973.5875
1411.38068	7892.1875
1414.82669	7791.6875
1418.27039	7672.2875
1421.71177	7538.4875
1425.15083	7414.1875
1428.58758	7296.3875
1432.02203	7286.0875
1435.45416	7299.1875
1438.88399	7339.5875
1442.31151	7360.9875
1445.73673	7427.0875
1449.15965	7488.1875
1452.58027	7537.2875
1455.9986	7564.4875
1459.41463	7617.8875
1462.82837	7706.4875
1466.23982	7774.4875
1469.64898	7900.5875
1473.05586	7980.9875
1476.46045	8027.1875
1479.86276	8061.8875
1483.26279	8102.1875
1486.66054	8209.6875
1490.05602	8309.8875
1493.44922	8518.5875
1496.84016	8845.5875
1500.22882	9390.1875
1503.61521	10090.8875
1506.99934	10937.4875
1510.38121	11655.7875
1513.76081	11873.8875
1517.13816	11461.1875
1520.51324	10630.1875
1523.88607	9780.0875
1527.25665	9201.5875
1530.62498	8819.1875
1533.99105	8578.6875
1537.35488	8424.7875
1540.71647	8302.9875
1544.07581	8153.5875
1547.4329	8083.6875
1550.78776	8014.7875
1554.14038	7981.9875
1557.49077	8035.0875
1560.83892	8117.7875
1564.18484	8211.8875
1567.52853	8360.0875
1570.86999	8490.0875
1574.20922	8580.8875
1577.54624	8600.4875
1580.88103	8419.4875
1584.2136	8125.4875
1587.54395	7928.8875
1590.87208	7870.3875
1594.19801	7993.4875
1597.52172	8204.9875
1600.84321	8363.3875
1604.16251	8239.9875
1607.47959	7956.6875
1610.79447	7681.6875
1614.10715	7371.9875
1617.41763	7098.6875
1620.7259	6844.9875
1624.03199	6681.5875
1627.33587	6632.0875
1630.63757	6676.0875
1633.93707	6799.2875
1637.23439	7033.4875
1640.52951	7429.3875
1643.82246	8029.9875
1647.11321	8733.9875
1650.40179	9320.8875
1653.68819	9368.3875
1656.97241	8772.1875
1660.25446	7923.1875
1663.53433	7218.3875
1666.81203	6729.9875
1670.08756	6407.0875
1673.36092	6205.2875
1676.63211	6066.3875
1679.90115	5964.2875
1683.16801	5895.9875
1686.43272	5823.0875
1689.69527	5758.7875
1692.95567	5736.7875
1696.2139	5734.9875
1699.46999	5722.0875
1702.72392	5671.5875
1705.97571	5635.9875
1709.22535	5557.7875
1712.47284	5513.2875
1715.71819	5501.4875
1718.96139	5446.0875
1722.20246	5442.1875
1725.44139	5405.5875
1728.67818	5387.9875
1731.91284	5359.3875
1735.14537	5305.2875
1738.37576	5282.9875
1741.60403	5277.5875
1744.83017	5258.2875
1748.05418	5247.8875
1751.27607	5249.1875
1754.49584	5256.1875
1757.71349	5264.2875
1760.92903	5244.7875
1764.14244	5245.6875
1767.35375	5234.7875
1770.56294	5190.7875
1773.77002	5159.1875
1776.97499	5138.7875
1780.17785	5088.3875
1783.37861	5081.2875
1786.57727	5034.1875
1789.77382	5011.7875
1792.96828	4998.7875
1796.16064	4973.0875
1799.3509	4947.2875
1802.53907	4936.7875
1805.72514	4897.9875
1808.90913	4888.0875
1812.09102	4867.1875
1815.27083	4857.6875
1818.44856	4851.1875
1821.6242	4826.4875
1824.79776	4802.5875
1827.96924	4799.3875
1831.13864	4782.3875
1834.30597	4779.8875
1837.47122	4763.0875
1840.6344	4755.0875
1843.7955	4745.0875
1846.95454	4753.1875
1850.11151	4735.4875
1853.26642	4726.0875
1856.41926	4724.5875
1859.57004	4703.4875
1862.71876	4707.6875
1865.86542	4703.7875
1869.01003	4691.1875
1872.15258	4686.2875
1875.29308	4673.4875
1878.43152	4656.0875
1881.56792	4651.0875
1884.70227	4647.6875
1887.83457	4648.7875
1890.96482	4630.3875
1894.09304	4615.5875
1897.21921	4609.5875
1900.34335	4599.9875
1903.46544	4588.7875
1906.58551	4589.0875
1909.70353	4588.7875
1912.81953	4575.8875
1915.93349	4564.6875
1919.04543	4556.2875
1922.15534	4534.9875
1925.26322	4528.6875
1928.36908	4501.5875
1931.47292	4515.0875
1934.57473	4484.1875
1937.67453	4464.5875
1940.77232	4458.1875
1943.86808	4447.1875
1946.96184	4435.2875
1950.05358	4424.2875
1953.14331	4402.8875
1956.23103	4393.7875
1959.31675	4389.9875
1962.40046	4363.0875
1965.48217	4337.4875
1968.56188	4330.9875
1971.63959	4307.1875
1974.7153	4293.8875
1977.78901	4281.1875
1980.86073	4267.9875
1983.93046	4251.9875
1986.99819	4229.2875
1990.06394	4204.2875
1993.1277	4200.9875
1996.18947	4192.3875
1999.24925	4174.1875
2002.30706	4168.5875
2005.36288	4139.6875
2008.41672	4136.3875
2011.46859	4109.1875
2014.51848	4096.3875
2017.56639	4083.0875
2020.61233	4083.8875
2023.6563	4060.4875
2026.6983	4051.9875
2029.73833	4030.5875
2032.7764	4016.6875
2035.8125	4003.6875
2038.84664	3987.1875
2041.87881	3994.6875
2044.90903	3984.1875
2047.93729	3957.0875
2050.96359	3961.5875
2053.98794	3955.3875
2057.01034	3937.5875
2060.03078	3947.5875
2063.04927	3923.9875
2066.06582	3914.4875
2069.08042	3913.1875
2072.09307	3903.0875
2075.10378	3896.4875
2078.11255	3899.8875
2081.11938	3890.5875
2084.12426	3886.1875
2087.12722	3874.5875
2090.12824	3884.6875
2093.12732	3879.2875
2096.12447	3879.7875
2099.11969	3881.3875
2102.11299	3881.0875
2105.10435	3877.6875
2108.09379	3865.6875
2111.08131	3872.3875
2114.0669	3867.8875
2117.05057	3877.1875
2120.03233	3884.1875
2123.01216	3878.2875
2125.99008	3875.4875
2128.96609	3870.9875
2131.94018	3870.6875
2134.91236	3877.4875
2137.88263	3873.1875
2140.851	3880.8875
2143.81746	3865.9875
2146.78201	3871.2875
2149.74466	3871.3875
2152.7054	3874.2875
2155.66425	3855.0875
2158.6212	3859.1875
2161.57625	3847.0875
2164.52941	3853.0875
2167.48067	3841.5875
2170.43004	3853.1875
2173.37752	3841.1875
2176.32311	3833.6875
2179.26681	3822.2875
2182.20863	3824.6875
2185.14856	3829.4875
2188.08661	3817.3875
2191.02278	3805.8875
2193.95707	3795.8875
2196.88948	3796.1875
2199.82001	3790.7875
2202.74867	3799.3875
2205.67545	3782.5875
2208.60037	3785.4875
2211.52341	3769.3875
2214.44458	3764.6875
2217.36388	3750.2875
2220.28132	3743.6875
2223.1969	3721.3875
2226.11061	3712.8875
2229.02246	3716.7875
2231.93245	3692.7875
2234.84058	3687.1875
2237.74686	3677.6875
2240.65128	3673.8875
2243.55385	3664.9875
2246.45456	3661.9875
2249.35343	3657.7875
2252.25044	3642.2875
2255.14561	3635.2875
2258.03893	3652.4875
2260.93041	3639.5875
2263.82004	3630.1875
2266.70783	3614.8875
2269.59378	3594.8875
2272.4779	3583.6875
2275.36017	3576.9875
2278.24061	3562.4875
2281.11922	3555.8875
2283.996	3555.0875
2286.87094	3532.3875
2289.74405	3534.8875
2292.61534	3521.0875
2295.4848	3511.4875
2298.35243	3513.9875
2301.21824	3488.3875
2304.08223	3513.1875
2306.94439	3484.4875
2309.80474	3490.1875
2312.66327	3485.7875
2315.51999	3483.2875
2318.37489	3479.7875
2321.22797	3454.9875
2324.07925	3458.1875
2326.92871	3458.9875
2329.77637	3457.8875
2332.62222	3441.3875
2335.46626	3436.7875
2338.3085	3431.3875
2341.14893	3424.8875
2343.98756	3422.9875
2346.8244	3414.1875
2349.65943	3422.7875
2352.49267	3443.0875
2355.32411	3435.5875
2358.15376	3408.5875
2360.98161	3408.6875
2363.80768	3393.3875
2366.63195	3382.4875
2369.45444	3390.1875
2372.27514	3401.6875
2375.09405	3384.2875
2377.91118	3380.2875
2380.72652	3360.2875
2383.54009	3350.7875
2386.35187	3341.0875
2389.16188	3329.7875
2391.97011	3317.6875
2394.77657	3309.5875
2397.58125	3296.0875
2400.38416	3292.6875
2403.18529	3282.8875
2405.98466	3280.8875
2408.78226	3267.8875
2411.57809	3260.8875
2414.37216	3254.6875
2417.16446	3257.1875
2419.955	3252.1875
2422.74378	3251.4875
2425.5308	3226.0875
2428.31606	3243.6875
2431.09956	3233.8875
2433.88131	3215.6875
2436.6613	3229.0875
2439.43954	3216.9875
2442.21603	3211.0875
2444.99077	3198.3875
2447.76377	3195.4875
2450.53501	3188.3875
2453.30451	3202.6875
2456.07226	3189.4875
2458.83827	3182.5875
2461.60254	3172.8875
2464.36507	3165.4875
2467.12586	3167.1875
2469.88492	3169.0875
2472.64224	3167.2875
2475.39782	3170.7875
2478.15167	3176.3875
2480.90379	3164.3875
2483.65417	3155.1875
2486.40283	3147.6875
2489.14976	3152.1875
2491.89497	3147.9875
2494.63845	3169.4875
2497.3802	3169.0875
2500.12024	3152.0875
2502.85855	3135.9875
2505.59514	3131.2875
2508.33002	3125.9875
2511.06318	3102.8875
2513.79462	3112.3875
2516.52435	3097.6875
2519.25237	3095.1875
2521.97867	3080.6875
2524.70327	3081.8875
2527.42616	3076.0875
2530.14734	3065.9875
2532.86681	3060.4875
2535.58458	3058.4875
2538.30065	3048.5875
2541.01501	3038.1875
2543.72768	3041.6875
2546.43864	3026.3875
2549.14791	3024.1875
2551.85548	3015.4875
2554.56136	3019.8875
2557.26554	3008.4875
2559.96803	2998.9875
2562.66883	2984.7875
2565.36794	2983.4875
2568.06536	2977.3875
2570.7611	2976.3875
2573.45514	2961.3875
2576.14751	2961.7875
2578.83819	2944.9875
2581.52719	2951.9875
2584.21451	2936.8875
2586.90015	2943.9875
2589.58411	2945.2875
2592.2664	2925.7875
2594.94701	2912.3875
2597.62594	2907.4875
2600.30321	2898.9875
2602.9788	2899.5875
2605.65273	2887.9875
2608.32498	2888.7875
2610.99557	2867.3875
2613.66449	2877.1875
2616.33175	2875.2875
2618.99734	2862.9875
2621.66128	2858.1875
2624.32355	2865.8875
2626.98416	2858.0875
2629.64311	2847.4875
2632.30041	2839.2875
2634.95605	2833.6875
2637.61004	2833.5875
2640.26238	2833.7875
2642.91306	2822.4875
2645.56209	2817.4875
2648.20948	2814.0875
2650.85521	2796.3875
2653.4993	2814.2875
2656.14175	2806.2875
2658.78255	2808.7875
2661.42171	2812.5875
2664.05923	2804.3875
2666.6951	2809.1875
2669.32934	2812.5875
2671.96194	2799.5875
2674.59291	2796.6875
2677.22224	2799.4875
2679.84993	2788.0875
2682.476	2795.2875
2685.10043	2794.5875
2687.72324	2784.7875
2690.34441	2786.7875
2692.96396	2787.4875
2695.58188	2795.1875
2698.19818	2789.5875
2700.81285	2789.1875
2703.4259	2803.6875
2706.03733	2856.5875
2708.64714	2811.5875
2711.25533	2799.7875
2713.86191	2792.9875
2716.46687	2798.6875
2719.07021	2780.0875
2721.67194	2786.1875
2724.27206	2773.1875
2726.87057	2769.6875
2729.46747	2775.2875
2732.06276	2780.1875
2734.65644	2767.3875
2737.24852	2776.8875
2739.83899	2755.3875
2742.42786	2754.0875
2745.01513	2746.3875
2747.60079	2749.2875
2750.18486	2724.8875
2752.76733	2739.2875
2755.3482	2730.9875
2757.92747	2728.8875
2760.50515	2725.2875
2763.08123	2716.1875
2765.65573	2718.4875
2768.22863	2714.7875
2770.79994	2703.6875
2773.36967	2709.1875
2775.9378	2704.0875
2778.50435	2695.1875
2781.06932	2683.8875
2783.6327	2687.6875
2786.1945	2678.0875
2788.75471	2680.1875
2791.31335	2653.7875
2793.87041	2667.2875
2796.42589	2649.9875
2798.97979	2650.4875
2801.53212	2649.0875
2804.08288	2636.7875
2806.63206	2644.2875
2809.17967	2626.7875
2811.72571	2623.5875
2814.27018	2626.6875
2816.81308	2616.2875
2819.35442	2601.9875
2821.89419	2604.6875
2824.43239	2598.3875
2826.96904	2602.9875
2829.50412	2603.2875
2832.03763	2596.6875
2834.56959	2594.3875
2837.1	2592.7875
2839.62884	2596.0875
2842.15613	2590.2875
2844.68186	2607.3875
2847.20604	2595.8875
2849.72867	2607.1875
2852.24974	2582.3875
2854.76927	2610.5875
2857.28724	2609.7875
2859.80367	2596.8875
2862.31855	2581.0875
2864.83189	2577.8875
2867.34368	2569.3875
2869.85393	2568.9875
2872.36264	2566.0875
2874.8698	2576.3875
2877.37543	2577.8875
2879.87952	2579.3875
2882.38207	2575.8875
2884.88308	2565.3875
2887.38256	2559.1875
2889.88051	2559.2875
2892.37692	2562.7875
2894.8718	2562.1875
2897.36515	2567.4875
2899.85698	2561.3875
2902.34727	2562.2875
2904.83604	2557.7875
2907.32328	2560.7875
2909.809	2568.4875
2912.29319	2573.1875
2914.77587	2573.0875
2917.25702	2563.1875
2919.73665	2564.2875
2922.21476	2567.1875
2924.69136	2559.1875
2927.16644	2560.3875
2929.64	2559.3875
2932.11205	2559.5875
2934.58258	2560.9875
2937.05161	2557.9875
2939.51912	2564.0875
2941.98513	2555.3875
2944.44962	2545.0875
2946.91261	2535.1875
2949.37409	2542.9875
2951.83407	2547.2875
2954.29254	2541.7875
2956.74951	2529.1875
2959.20498	2535.5875
2961.65895	2518.2875
2964.11142	2520.3875
2966.56239	2512.9875
2969.01186	2501.5875
2971.45984	2489.0875
2973.90632	2487.2875
2976.35131	2493.4875
2978.7948	2490.2875
2981.23681	2475.7875
2983.67732	2461.1875
2986.11635	2459.5875
2988.55388	2460.3875
2990.98993	2446.7875
2993.4245	2446.9875
2995.85758	2439.1875
2998.28917	2431.5875
3000.71928	2443.5875
3003.14791	2430.3875
3005.57506	2437.9875
3008.00073	2426.2875
3010.42493	2416.1875
3012.84764	2423.1875
3015.26888	2429.9875
3017.68865	2419.6875
3020.10694	2417.0875
3022.52376	2415.0875
3024.9391	2404.9875
3027.35298	2409.8875
3029.76539	2407.4875
3032.17632	2399.4875
3034.5858	2389.7875
3036.9938	2388.7875
3039.40034	2379.2875
3041.80542	2375.1875
3044.20903	2369.2875
3046.61118	2371.8875
3049.01187	2362.6875
3051.4111	2371.3875
3053.80888	2356.9875
3056.20519	2366.4875
3058.60005	2356.5875
3060.99345	2358.4875
3063.3854	2352.4875
3065.7759	2343.1875
3068.16494	2346.7875
3070.55254	2338.0875
3072.93868	2346.4875
3075.32338	2340.0875
3077.70662	2329.1875
3080.08842	2331.0875
3082.46878	2333.7875
3084.84769	2344.1875
3087.22515	2351.2875
3089.60118	2335.4875
3091.97576	2339.7875
3094.3489	2333.6875
3096.72061	2331.0875
3099.09087	2344.0875
3101.4597	2342.5875
3103.82709	2345.9875
3106.19305	2335.7875
3108.55757	2346.4875
3110.92066	2338.1875
3113.28232	2328.8875
3115.64255	2319.3875
3118.00134	2333.4875
3120.35871	2333.1875
3122.71466	2325.0875
3125.06917	2324.7875
3127.42226	2324.5875
3129.77393	2327.1875
3132.12417	2325.6875
3134.47299	2330.2875
3136.82039	2348.8875
3139.16636	2340.7875
3141.51092	2349.2875
3143.85406	2348.2875
3146.19579	2350.7875
3148.53609	2350.4875
3150.87499	2351.7875
3153.21246	2367.8875
3155.54853	2372.2875
3157.88318	2367.6875
3160.21642	2375.0875
3162.54826	2380.2875
3164.87868	2381.2875
3167.2077	2389.8875
3169.5353	2380.9875
3171.86151	2372.2875
3174.18631	2381.1875
3176.5097	2398.1875
3178.83169	2388.5875
3181.15228	2388.9875
3183.47147	2380.5875
3185.78926	2381.3875
3188.10565	2380.5875
3190.42065	2383.9875
3192.73424	2390.2875
3195.04645	2391.8875
3197.35725	2393.3875
3199.66667	2410.6875
3201.97469	2402.9875
3204.28132	2407.8875
3206.58656	2413.5875
3208.8904	2424.3875
3211.19287	2409.3875
3213.49394	2418.9875
3215.79363	2420.9875
3218.09193	2417.9875
3220.38884	2444.5875
3222.68438	2453.2875
3224.97853	2427.9875
3227.2713	2425.0875
3229.56269	2436.6875
3231.8527	2429.8875
3234.14133	2410.0875
3236.42858	2415.8875
3238.71446	2409.4875
3240.99896	2398.5875
3243.28209	2404.1875
3245.56384	2402.9875
3247.84423	2414.2875
3250.12324	2410.1875
3252.40088	2410.1875
3254.67715	2396.5875
3256.95205	2404.5875
3259.22558	2401.7875
3261.49775	2398.2875
3263.76855	2402.9875
3266.03799	2397.1875
3268.30606	2388.1875
3270.57277	2363.7875
3272.83812	2373.6875
3275.10211	2370.8875
3277.36474	2363.8875
3279.62601	2386.5875
3281.88593	2365.4875
3284.14448	2362.1875
3286.40168	2359.8875
3288.65753	2353.0875
3290.91202	2359.8875
3293.16516	2359.2875
3295.41695	2348.8875
3297.66738	2323.1875
3299.91647	2324.1875
3302.16421	2306.1875
3304.4106	2289.6875
3306.65564	2292.5875
3308.89933	2281.9875
3311.14169	2277.4875
3313.38269	2263.8875
3315.62236	2245.6875
3317.86068	2233.1875
3320.09766	2205.0875
3322.3333	2198.5875
3324.5676	2186.5875
3326.80056	2182.6875
3329.03219	2160.2875
3331.26248	0.0875
3333.49143	0.4875
3335.71905	-0.6125
