Data from AgNPs_FTO_APTES_UA_10um_CRN_0.1mM_R6G_10uM_NaF_0.1M_Addition_RamanShift__24__14-03-29-153.txt Node

Date: Tue Dec 21 14:03:29 GMT 2021
User: TCL
Spectrometer: QEP01345
Trigger mode: 4
Integration Time (sec): 7.000000E0
Scans to average: 10
Electric dark correction enabled: true
Nonlinearity correction enabled: false
Boxcar width: 0
XAxis mode: Raman Shifts
Number of Pixels in Spectrum: 1044
>>>>>Begin Spectral Data<<<<<
46.04893	-0.1625
50.45542	-1.0625
54.85868	-1.0625
59.25871	0.1375
63.6555	47.9375
68.04907	53.9375
72.43941	57.9375
76.82654	59.1375
81.21044	64.2375
85.59113	62.7375
89.96862	63.4375
94.34289	67.3375
98.71396	68.4375
103.08183	72.0375
107.4465	77.2375
111.80798	74.7375
116.16626	79.6375
120.52136	82.4375
124.87327	88.3375
129.222	88.6375
133.56755	96.5375
137.90993	104.7375
142.24913	111.2375
146.58517	123.5375
150.91804	147.0375
155.24774	176.0375
159.57429	215.9375
163.89768	278.5375
168.21792	371.5375
172.53501	495.8375
176.84895	689.1375
181.15975	976.4375
185.46741	1359.8375
189.77193	1878.0375
194.07331	2514.9375
198.37157	3262.1375
202.6667	4046.8375
206.9587	4820.2375
211.24758	5603.2375
215.53334	6396.3375
219.81599	7216.5375
224.09553	8113.4375
228.37195	9132.4375
232.64527	10238.3375
236.91549	11396.2375
241.18261	12585.7375
245.44663	13648.3375
249.70755	14645.0375
253.96539	15433.2375
258.22014	16105.8375
262.4718	16640.5375
266.72039	17048.6375
270.96589	17244.4375
275.20832	17316.3375
279.44768	17224.1375
283.68397	17098.7375
287.91719	16980.8375
292.14735	16934.7375
296.37445	17023.0375
300.59849	17104.0375
304.81948	17169.1375
309.03742	17107.1375
313.25231	16873.0375
317.46415	16382.0375
321.67296	15795.7375
325.87872	15310.4375
330.08145	15102.9375
334.28114	15068.2375
338.47781	15202.4375
342.67145	15436.5375
346.86207	15749.3375
351.04966	16116.1375
355.23424	16578.1375
359.4158	16929.0375
363.59435	17179.6375
367.76989	17344.1375
371.94243	17455.2375
376.11196	17538.3375
380.27849	17622.0375
384.44203	17750.5375
388.60257	17826.7375
392.76012	17974.6375
396.91468	18148.4375
401.06626	18438.7375
405.21485	18691.9375
409.36047	18676.8375
413.50311	18332.0375
417.64277	17995.8375
421.77947	17861.0375
425.9132	17865.3375
430.04396	17956.6375
434.17176	18124.4375
438.2966	18345.5375
442.41849	18707.9375
446.53742	19266.6375
450.6534	19890.1375
454.76644	20353.5375
458.87653	20541.4375
462.98368	20419.7375
467.08789	20217.9375
471.18916	19940.7375
475.2875	19746.2375
479.38291	19718.4375
483.4754	19658.8375
487.56496	19365.2375
491.6516	18993.6375
495.73531	18653.0375
499.81612	18461.0375
503.89401	18495.0375
507.96899	18501.9375
512.04106	18424.0375
516.11023	18310.2375
520.1765	18248.2375
524.23987	18149.3375
528.30034	18037.3375
532.35792	17982.9375
536.41261	17830.2375
540.46441	17648.7375
544.51333	17500.1375
548.55936	17606.8375
552.60252	17849.9375
556.64279	18227.9375
560.6802	18528.5375
564.71473	18745.9375
568.7464	19117.6375
572.7752	19488.7375
576.80114	19622.0375
580.82422	19643.5375
584.84444	19724.7375
588.86181	19966.0375
592.87633	20350.6375
596.888	20711.0375
600.89682	20818.4375
604.9028	21463.6375
608.90594	23473.3375
612.90624	25788.7375
616.90371	24453.2375
620.89834	20153.6375
624.89015	18149.3375
628.87913	17897.4375
632.86528	18073.4375
636.84862	18200.1375
640.82913	17971.1375
644.80683	17483.7375
648.78172	16995.7375
652.75379	16828.0375
656.72306	17009.1375
660.68952	17325.5375
664.65319	17352.5375
668.61405	17162.4375
672.57211	17139.3375
676.52738	17276.5375
680.47986	17304.8375
684.42955	17156.9375
688.37646	17029.9375
692.32058	16945.5375
696.26192	17021.9375
700.20048	17127.9375
704.13626	17249.5375
708.06928	17202.5375
711.99952	17077.1375
715.927	16938.6375
719.85171	16936.3375
723.77365	16941.9375
727.69284	16829.8375
731.60928	16764.0375
735.52295	16781.5375
739.43388	16820.5375
743.34206	16852.6375
747.24749	16898.8375
751.15017	16960.2375
755.05012	17183.1375
758.94733	17657.3375
762.8418	18593.6375
766.73354	20113.4375
770.62254	21797.9375
774.50882	22484.3375
778.39237	21623.7375
782.27321	19760.3375
786.15132	18126.8375
790.02671	17083.5375
793.89938	16611.0375
797.76935	16393.7375
801.6366	16368.9375
805.50115	16357.0375
809.36299	16283.2375
813.22213	16195.0375
817.07857	16169.9375
820.93231	16098.7375
824.78336	16033.3375
828.63172	15988.8375
832.47738	15931.6375
836.32036	15929.1375
840.16066	15921.6375
843.99827	15913.1375
847.8332	15878.6375
851.66546	15828.6375
855.49504	15808.5375
859.32195	15837.6375
863.1462	15855.1375
866.96777	15824.7375
870.78668	15805.0375
874.60293	15797.0375
878.41652	15806.9375
882.22745	15809.6375
886.03573	15858.9375
889.84136	15874.1375
893.64433	15811.2375
897.44466	15682.5375
901.24235	15578.5375
905.0374	15467.0375
908.8298	15374.5375
912.61957	15393.3375
916.40671	15498.6375
920.19121	15665.8375
923.97308	15838.2375
927.75233	15877.1375
931.52895	15855.2375
935.30295	15701.3375
939.07433	15436.5375
942.84309	15186.1375
946.60924	15048.7375
950.37278	15006.8375
954.13371	14900.9375
957.89203	14845.6375
961.64774	14804.4375
965.40086	14752.8375
969.15137	14641.8375
972.89929	14556.7375
976.64461	14496.7375
980.38733	14442.4375
984.12747	14472.9375
987.86502	14578.7375
991.59999	14752.7375
995.33237	14974.9375
999.06217	15355.0375
1002.78939	15861.7375
1006.51404	16283.5375
1010.23611	16569.6375
1013.95561	16766.0375
1017.67255	16799.7375
1021.38692	16593.0375
1025.09872	16314.6375
1028.80796	16242.0375
1032.51465	16466.0375
1036.21877	16696.6375
1039.92035	16812.5375
1043.61937	16741.4375
1047.31584	16526.2375
1051.00976	16192.8375
1054.70114	16026.2375
1058.38998	15979.1375
1062.07627	16056.1375
1065.76003	16168.1375
1069.44126	16226.2375
1073.11995	16379.1375
1076.79611	16519.1375
1080.46974	16563.5375
1084.14085	16666.0375
1087.80943	16817.2375
1091.47549	16977.7375
1095.13903	16985.3375
1098.80005	16792.7375
1102.45857	16460.5375
1106.11456	16203.1375
1109.76805	16121.2375
1113.41903	16242.3375
1117.06751	16415.3375
1120.71348	16676.4375
1124.35696	16980.9375
1127.99793	17274.4375
1131.63641	17487.7375
1135.2724	17371.1375
1138.90589	17152.8375
1142.5369	16974.1375
1146.16542	16851.0375
1149.79145	16800.9375
1153.415	16880.6375
1157.03607	17026.5375
1160.65467	17372.0375
1164.27079	18011.0375
1167.88443	18869.8375
1171.49561	20019.7375
1175.10432	21599.8375
1178.71056	23556.8375
1182.31434	25413.7375
1185.91565	26355.4375
1189.51451	26367.2375
1193.11091	25654.5375
1196.70485	24566.7375
1200.29634	23470.0375
1203.88538	22571.0375
1207.47197	21792.5375
1211.05612	21153.6375
1214.63782	20708.5375
1218.21708	20452.8375
1221.79391	20321.3375
1225.36829	20166.3375
1228.94024	19910.9375
1232.50976	19598.9375
1236.07685	19337.5375
1239.6415	19185.4375
1243.20374	19171.9375
1246.76355	19309.1375
1250.32093	19601.0375
1253.8759	19993.5375
1257.42845	20552.0375
1260.97859	21143.0375
1264.52631	21587.8375
1268.07163	22129.6375
1271.61453	22691.4375
1275.15503	23315.3375
1278.69312	23980.4375
1282.22882	24514.1375
1285.76211	25156.2375
1289.29301	25918.9375
1292.82151	26981.0375
1296.34761	28196.2375
1299.87133	29726.6375
1303.39266	31533.0375
1306.9116	33513.8375
1310.42815	35556.5375
1313.94233	36923.9375
1317.45412	37009.6375
1320.96354	36341.8375
1324.47058	35422.3375
1327.97525	34546.2375
1331.47754	33909.1375
1334.97747	33656.9375
1338.47502	33770.6375
1341.97022	33900.5375
1345.46305	33659.9375
1348.95352	33278.9375
1352.44163	33187.2375
1355.92738	33742.1375
1359.41078	35077.8375
1362.89183	36458.2375
1366.37053	35826.8375
1369.84688	32803.9375
1373.32088	29262.3375
1376.79254	26773.5375
1380.26186	25645.1375
1383.72883	25286.3375
1387.19347	25223.0375
1390.65578	25103.2375
1394.11575	25262.5375
1397.57339	25761.2375
1401.0287	26491.4375
1404.48168	27188.1375
1407.93234	27686.4375
1411.38068	27606.3375
1414.82669	26942.0375
1418.27039	25804.9375
1421.71177	24484.6375
1425.15083	23388.5375
1428.58758	22700.6375
1432.02203	22573.7375
1435.45416	22828.4375
1438.88399	23153.3375
1442.31151	23628.2375
1445.73673	24108.8375
1449.15965	24578.3375
1452.58027	24986.3375
1455.9986	25203.0375
1459.41463	25500.9375
1462.82837	25887.9375
1466.23982	26437.8375
1469.64898	26910.5375
1473.05586	27109.4375
1476.46045	27113.3375
1479.86276	26934.9375
1483.26279	26683.0375
1486.66054	26553.3375
1490.05602	26531.1375
1493.44922	26672.9375
1496.84016	26726.1375
1500.22882	26963.7375
1503.61521	27640.1375
1506.99934	28630.5375
1510.38121	29575.5375
1513.76081	29918.5375
1517.13816	29222.2375
1520.51324	27788.9375
1523.88607	26419.5375
1527.25665	25551.6375
1530.62498	25147.6375
1533.99105	25010.4375
1537.35488	24908.2375
1540.71647	24732.0375
1544.07581	24471.8375
1547.4329	24095.3375
1550.78776	23693.3375
1554.14038	23415.6375
1557.49077	23317.4375
1560.83892	23425.4375
1564.18484	23553.6375
1567.52853	23603.8375
1570.86999	23683.8375
1574.20922	23826.5375
1577.54624	24002.0375
1580.88103	23856.5375
1584.2136	23857.8375
1587.54395	24239.4375
1590.87208	25355.9375
1594.19801	26938.3375
1597.52172	28664.2375
1600.84321	29457.9375
1604.16251	28547.3375
1607.47959	26545.1375
1610.79447	24117.8375
1614.10715	21870.2375
1617.41763	20069.7375
1620.7259	18878.7375
1624.03199	18275.6375
1627.33587	18198.0375
1630.63757	18605.5375
1633.93707	19597.8375
1637.23439	21227.0375
1640.52951	23536.6375
1643.82246	26294.7375
1647.11321	28730.9375
1650.40179	29523.7375
1653.68819	28124.7375
1656.97241	24916.7375
1660.25446	21435.8375
1663.53433	18762.5375
1666.81203	16952.1375
1670.08756	15814.0375
1673.36092	15090.3375
1676.63211	14633.4375
1679.90115	14257.9375
1683.16801	14025.5375
1686.43272	13815.7375
1689.69527	13681.8375
1692.95567	13556.8375
1696.2139	13497.6375
1699.46999	13436.6375
1702.72392	13412.9375
1705.97571	13351.6375
1709.22535	13269.8375
1712.47284	13248.0375
1715.71819	13211.0375
1718.96139	13140.3375
1722.20246	13113.4375
1725.44139	13043.8375
1728.67818	12971.2375
1731.91284	12917.2375
1735.14537	12856.9375
1738.37576	12791.4375
1741.60403	12776.2375
1744.83017	12734.9375
1748.05418	12708.3375
1751.27607	12725.6375
1754.49584	12709.4375
1757.71349	12708.1375
1760.92903	12662.9375
1764.14244	12611.0375
1767.35375	12612.4375
1770.56294	12540.0375
1773.77002	12508.6375
1776.97499	12463.2375
1780.17785	12398.2375
1783.37861	12404.4375
1786.57727	12348.2375
1789.77382	12325.6375
1792.96828	12323.7375
1796.16064	12283.2375
1799.3509	12229.3375
1802.53907	12233.3375
1805.72514	12186.9375
1808.90913	12154.4375
1812.09102	12132.7375
1815.27083	12088.5375
1818.44856	12066.3375
1821.6242	12066.2375
1824.79776	12032.3375
1827.96924	12039.0375
1831.13864	11992.1375
1834.30597	11996.4375
1837.47122	11987.5375
1840.6344	11976.5375
1843.7955	11984.1375
1846.95454	11974.0375
1850.11151	11946.0375
1853.26642	11954.2375
1856.41926	11967.6375
1859.57004	11969.6375
1862.71876	11944.3375
1865.86542	11994.4375
1869.01003	11934.9375
1872.15258	11936.5375
1875.29308	11942.5375
1878.43152	11949.8375
1881.56792	11894.9375
1884.70227	11907.1375
1887.83457	11923.4375
1890.96482	11917.7375
1894.09304	11879.9375
1897.21921	11913.0375
1900.34335	11890.2375
1903.46544	11881.8375
1906.58551	11879.8375
1909.70353	11849.9375
1912.81953	11829.1375
1915.93349	11804.6375
1919.04543	11795.4375
1922.15534	11773.6375
1925.26322	11735.1375
1928.36908	11707.4375
1931.47292	11668.9375
1934.57473	11631.4375
1937.67453	11606.8375
1940.77232	11541.9375
1943.86808	11526.8375
1946.96184	11528.4375
1950.05358	11438.9375
1953.14331	11411.8375
1956.23103	11384.1375
1959.31675	11346.3375
1962.40046	11314.8375
1965.48217	11269.7375
1968.56188	11238.1375
1971.63959	11184.3375
1974.7153	11157.7375
1977.78901	11105.0375
1980.86073	11086.7375
1983.93046	11054.4375
1986.99819	11021.9375
1990.06394	10998.8375
1993.1277	10932.8375
1996.18947	10905.9375
1999.24925	10879.2375
2002.30706	10828.8375
2005.36288	10810.1375
2008.41672	10793.5375
2011.46859	10724.0375
2014.51848	10722.7375
2017.56639	10695.4375
2020.61233	10668.6375
2023.6563	10621.3375
2026.6983	10632.9375
2029.73833	10620.2375
2032.7764	10594.2375
2035.8125	10563.8375
2038.84664	10544.1375
2041.87881	10528.6375
2044.90903	10513.0375
2047.93729	10490.3375
2050.96359	10500.5375
2053.98794	10456.7375
2057.01034	10457.4375
2060.03078	10438.0375
2063.04927	10400.8375
2066.06582	10403.4375
2069.08042	10373.4375
2072.09307	10383.8375
2075.10378	10367.3375
2078.11255	10367.6375
2081.11938	10349.1375
2084.12426	10330.4375
2087.12722	10327.6375
2090.12824	10329.2375
2093.12732	10328.4375
2096.12447	10315.2375
2099.11969	10287.0375
2102.11299	10310.1375
2105.10435	10310.9375
2108.09379	10298.3375
2111.08131	10315.8375
2114.0669	10313.9375
2117.05057	10306.6375
2120.03233	10330.0375
2123.01216	10315.6375
2125.99008	10344.9375
2128.96609	10342.8375
2131.94018	10334.4375
2134.91236	10347.3375
2137.88263	10351.8375
2140.851	10331.4375
2143.81746	10351.5375
2146.78201	10325.9375
2149.74466	10326.9375
2152.7054	10349.9375
2155.66425	10332.4375
2158.6212	10317.7375
2161.57625	10308.0375
2164.52941	10300.2375
2167.48067	10289.4375
2170.43004	10296.1375
2173.37752	10285.6375
2176.32311	10247.6375
2179.26681	10282.8375
2182.20863	10269.9375
2185.14856	10272.9375
2188.08661	10273.2375
2191.02278	10248.3375
2193.95707	10253.1375
2196.88948	10262.8375
2199.82001	10265.0375
2202.74867	10251.3375
2205.67545	10262.0375
2208.60037	10221.0375
2211.52341	10229.1375
2214.44458	10215.3375
2217.36388	10187.6375
2220.28132	10144.4375
2223.1969	10144.7375
2226.11061	10145.8375
2229.02246	10110.9375
2231.93245	10087.0375
2234.84058	10073.2375
2237.74686	10061.1375
2240.65128	10038.0375
2243.55385	10033.5375
2246.45456	10011.5375
2249.35343	9975.8375
2252.25044	9999.6375
2255.14561	9950.6375
2258.03893	9954.5375
2260.93041	9948.2375
2263.82004	9901.1375
2266.70783	9894.4375
2269.59378	9818.1375
2272.4779	9818.3375
2275.36017	9790.1375
2278.24061	9780.5375
2281.11922	9733.1375
2283.996	9734.7375
2286.87094	9710.7375
2289.74405	9711.2375
2292.61534	9683.4375
2295.4848	9684.5375
2298.35243	9675.7375
2301.21824	9662.8375
2304.08223	9665.3375
2306.94439	9652.5375
2309.80474	9660.1375
2312.66327	9656.7375
2315.51999	9657.0375
2318.37489	9662.0375
2321.22797	9620.5375
2324.07925	9612.1375
2326.92871	9592.2375
2329.77637	9578.9375
2332.62222	9605.0375
2335.46626	9569.2375
2338.3085	9570.0375
2341.14893	9594.2375
2343.98756	9580.2375
2346.8244	9584.5375
2349.65943	9586.1375
2352.49267	9577.5375
2355.32411	9570.7375
2358.15376	9574.4375
2360.98161	9552.0375
2363.80768	9558.8375
2366.63195	9528.8375
2369.45444	9510.5375
2372.27514	9497.2375
2375.09405	9478.7375
2377.91118	9462.8375
2380.72652	9423.9375
2383.54009	9406.5375
2386.35187	9394.5375
2389.16188	9356.3375
2391.97011	9348.7375
2394.77657	9324.9375
2397.58125	9321.5375
2400.38416	9307.6375
2403.18529	9280.8375
2405.98466	9285.7375
2408.78226	9255.0375
2411.57809	9219.5375
2414.37216	9220.0375
2417.16446	9220.5375
2419.955	9187.4375
2422.74378	9159.3375
2425.5308	9158.3375
2428.31606	9155.3375
2431.09956	9156.4375
2433.88131	9158.1375
2436.6613	9143.0375
2439.43954	9115.4375
2442.21603	9106.6375
2444.99077	9101.1375
2447.76377	9102.2375
2450.53501	9121.5375
2453.30451	9116.4375
2456.07226	9100.7375
2458.83827	9086.7375
2461.60254	9082.9375
2464.36507	9083.0375
2467.12586	9064.1375
2469.88492	9065.6375
2472.64224	9077.1375
2475.39782	9097.8375
2478.15167	9100.2375
2480.90379	9092.9375
2483.65417	9085.1375
2486.40283	9090.4375
2489.14976	9105.8375
2491.89497	9088.9375
2494.63845	9124.8375
2497.3802	9116.7375
2500.12024	9102.9375
2502.85855	9092.2375
2505.59514	9062.2375
2508.33002	9072.6375
2511.06318	9062.0375
2513.79462	9046.1375
2516.52435	9028.9375
2519.25237	9011.6375
2521.97867	9003.1375
2524.70327	9005.2375
2527.42616	8984.3375
2530.14734	8981.5375
2532.86681	8963.7375
2535.58458	8952.0375
2538.30065	8928.0375
2541.01501	8927.1375
2543.72768	8920.4375
2546.43864	8956.1375
2549.14791	8910.2375
2551.85548	8921.6375
2554.56136	8878.0375
2557.26554	8857.6375
2559.96803	8898.1375
2562.66883	8861.5375
2565.36794	8861.6375
2568.06536	8844.2375
2570.7611	8829.7375
2573.45514	8838.7375
2576.14751	8832.2375
2578.83819	8817.1375
2581.52719	8845.3375
2584.21451	8836.9375
2586.90015	8823.0375
2589.58411	8798.1375
2592.2664	8814.4375
2594.94701	8789.6375
2597.62594	8779.4375
2600.30321	8759.4375
2602.9788	8750.5375
2605.65273	8767.7375
2608.32498	8742.2375
2610.99557	8748.4375
2613.66449	8756.4375
2616.33175	8723.2375
2618.99734	8758.9375
2621.66128	8750.6375
2624.32355	8717.6375
2626.98416	8741.7375
2629.64311	8752.3375
2632.30041	8736.1375
2634.95605	8749.7375
2637.61004	8746.0375
2640.26238	8740.2375
2642.91306	8705.8375
2645.56209	8710.5375
2648.20948	8705.8375
2650.85521	8696.9375
2653.4993	8675.3375
2656.14175	8696.8375
2658.78255	8684.9375
2661.42171	8685.7375
2664.05923	8694.9375
2666.6951	8703.2375
2669.32934	8735.7375
2671.96194	8721.5375
2674.59291	8722.4375
2677.22224	8698.1375
2679.84993	8713.9375
2682.476	8684.6375
2685.10043	8690.1375
2687.72324	8664.1375
2690.34441	8662.0375
2692.96396	8673.3375
2695.58188	8668.4375
2698.19818	8645.0375
2700.81285	8657.3375
2703.4259	8695.4375
2706.03733	8746.2375
2708.64714	8698.1375
2711.25533	8706.7375
2713.86191	8687.9375
2716.46687	8697.1375
2719.07021	8701.7375
2721.67194	8691.2375
2724.27206	8673.4375
2726.87057	8694.7375
2729.46747	8694.2375
2732.06276	8706.1375
2734.65644	8687.3375
2737.24852	8688.8375
2739.83899	8687.3375
2742.42786	8680.8375
2745.01513	8654.0375
2747.60079	8668.6375
2750.18486	8653.1375
2752.76733	8654.0375
2755.3482	8651.3375
2757.92747	8675.6375
2760.50515	8648.6375
2763.08123	8664.9375
2765.65573	8659.4375
2768.22863	8676.6375
2770.79994	8627.6375
2773.36967	8647.7375
2775.9378	8645.9375
2778.50435	8654.9375
2781.06932	8629.3375
2783.6327	8626.5375
2786.1945	8631.7375
2788.75471	8602.5375
2791.31335	8600.6375
2793.87041	8579.5375
2796.42589	8570.9375
2798.97979	8561.1375
2801.53212	8545.8375
2804.08288	8554.7375
2806.63206	8511.4375
2809.17967	8530.5375
2811.72571	8522.4375
2814.27018	8497.4375
2816.81308	8476.7375
2819.35442	8493.2375
2821.89419	8474.2375
2824.43239	8482.6375
2826.96904	8484.0375
2829.50412	8450.0375
2832.03763	8467.4375
2834.56959	8443.9375
2837.1	8423.9375
2839.62884	8431.7375
2842.15613	8429.6375
2844.68186	8427.1375
2847.20604	8435.8375
2849.72867	8427.1375
2852.24974	8407.7375
2854.76927	8422.0375
2857.28724	8425.3375
2859.80367	8405.9375
2862.31855	8400.0375
2864.83189	8374.5375
2867.34368	8366.6375
2869.85393	8357.5375
2872.36264	8339.5375
2874.8698	8372.3375
2877.37543	8351.6375
2879.87952	8377.0375
2882.38207	8371.4375
2884.88308	8360.0375
2887.38256	8371.7375
2889.88051	8375.5375
2892.37692	8374.1375
2894.8718	8380.0375
2897.36515	8384.3375
2899.85698	8393.3375
2902.34727	8392.1375
2904.83604	8400.6375
2907.32328	8443.9375
2909.809	8435.9375
2912.29319	8446.3375
2914.77587	8434.1375
2917.25702	8454.3375
2919.73665	8434.5375
2922.21476	8447.6375
2924.69136	8444.0375
2927.16644	8435.2375
2929.64	8428.7375
2932.11205	8412.2375
2934.58258	8389.9375
2937.05161	8403.5375
2939.51912	8415.5375
2941.98513	8388.1375
2944.44962	8374.6375
2946.91261	8336.1375
2949.37409	8367.8375
2951.83407	8348.6375
2954.29254	8309.0375
2956.74951	8290.7375
2959.20498	8289.3375
2961.65895	8254.7375
2964.11142	8236.1375
2966.56239	8209.7375
2969.01186	8188.5375
2971.45984	8191.4375
2973.90632	8158.1375
2976.35131	8133.7375
2978.7948	8098.6375
2981.23681	8083.7375
2983.67732	8061.2375
2986.11635	8036.8375
2988.55388	8021.7375
2990.98993	8010.1375
2993.4245	7977.7375
2995.85758	7975.7375
2998.28917	7936.0375
3000.71928	7950.6375
3003.14791	7942.6375
3005.57506	7917.0375
3008.00073	7893.2375
3010.42493	7887.1375
3012.84764	7866.6375
3015.26888	7878.3375
3017.68865	7846.0375
3020.10694	7838.6375
3022.52376	7817.2375
3024.9391	7789.5375
3027.35298	7787.5375
3029.76539	7756.3375
3032.17632	7772.7375
3034.5858	7745.3375
3036.9938	7744.4375
3039.40034	7716.6375
3041.80542	7715.2375
3044.20903	7680.4375
3046.61118	7684.1375
3049.01187	7681.8375
3051.4111	7669.9375
3053.80888	7630.4375
3056.20519	7616.8375
3058.60005	7603.8375
3060.99345	7584.1375
3063.3854	7584.8375
3065.7759	7537.0375
3068.16494	7523.4375
3070.55254	7475.0375
3072.93868	7474.8375
3075.32338	7445.3375
3077.70662	7453.9375
3080.08842	7410.7375
3082.46878	7401.5375
3084.84769	7392.3375
3087.22515	7384.5375
3089.60118	7381.2375
3091.97576	7378.6375
3094.3489	7384.4375
3096.72061	7394.9375
3099.09087	7365.3375
3101.4597	7367.0375
3103.82709	7366.3375
3106.19305	7382.8375
3108.55757	7341.6375
3110.92066	7315.8375
3113.28232	7302.3375
3115.64255	7280.2375
3118.00134	7255.4375
3120.35871	7267.4375
3122.71466	7229.9375
3125.06917	7231.2375
3127.42226	7195.0375
3129.77393	7227.4375
3132.12417	7196.1375
3134.47299	7213.6375
3136.82039	7208.9375
3139.16636	7204.1375
3141.51092	7199.7375
3143.85406	7182.6375
3146.19579	7187.6375
3148.53609	7196.3375
3150.87499	7198.1375
3153.21246	7186.6375
3155.54853	7196.6375
3157.88318	7205.6375
3160.21642	7176.5375
3162.54826	7177.6375
3164.87868	7159.3375
3167.2077	7169.2375
3169.5353	7166.6375
3171.86151	7156.1375
3174.18631	7160.6375
3176.5097	7149.4375
3178.83169	7139.4375
3181.15228	7143.1375
3183.47147	7128.5375
3185.78926	7133.4375
3188.10565	7122.9375
3190.42065	7123.7375
3192.73424	7134.5375
3195.04645	7097.7375
3197.35725	7136.9375
3199.66667	7127.9375
3201.97469	7132.0375
3204.28132	7103.1375
3206.58656	7139.9375
3208.8904	7123.4375
3211.19287	7120.8375
3213.49394	7109.2375
3215.79363	7100.8375
3218.09193	7123.8375
3220.38884	7134.6375
3222.68438	7147.4375
3224.97853	7126.1375
3227.2713	7111.5375
3229.56269	7089.2375
3231.8527	7099.0375
3234.14133	7075.6375
3236.42858	7073.3375
3238.71446	7063.7375
3240.99896	7040.1375
3243.28209	7040.3375
3245.56384	7037.1375
3247.84423	7032.7375
3250.12324	7011.5375
3252.40088	7014.8375
3254.67715	7018.4375
3256.95205	6995.5375
3259.22558	6991.4375
3261.49775	6953.1375
3263.76855	6945.0375
3266.03799	6930.8375
3268.30606	6940.9375
3270.57277	6922.8375
3272.83812	6895.9375
3275.10211	6890.9375
3277.36474	6875.8375
3279.62601	6899.5375
3281.88593	6858.6375
3284.14448	6885.8375
3286.40168	6899.5375
3288.65753	6852.4375
3290.91202	6856.0375
3293.16516	6825.3375
3295.41695	6802.4375
3297.66738	6777.8375
3299.91647	6768.6375
3302.16421	6691.9375
3304.4106	6679.5375
3306.65564	6662.8375
3308.89933	6600.9375
3311.14169	6579.1375
3313.38269	6553.4375
3315.62236	6477.7375
3317.86068	6424.6375
3320.09766	6367.0375
3322.3333	6329.1375
3324.5676	6331.7375
3326.80056	6215.7375
3329.03219	6199.0375
3331.26248	2.6375
3333.49143	-0.2625
3335.71905	0.3375
