Data from AgNPs_FTO_APTES_UA_5um_CRN_0.1mM_R6G_10uM_NaF_0.1M_Addition_RamanShift__6__13-03-59-085.txt Node

Date: Tue Dec 21 13:03:59 GMT 2021
User: TCL
Spectrometer: QEP01345
Trigger mode: 4
Integration Time (sec): 7.000000E0
Scans to average: 10
Electric dark correction enabled: true
Nonlinearity correction enabled: false
Boxcar width: 0
XAxis mode: Raman Shifts
Number of Pixels in Spectrum: 1044
>>>>>Begin Spectral Data<<<<<
46.04893	0.1625
50.45542	-1.7375
54.85868	0.0625
59.25871	0.0625
63.6555	41.9625
68.04907	47.7625
72.43941	47.1625
76.82654	46.6625
81.21044	54.4625
85.59113	54.0625
89.96862	55.1625
94.34289	61.0625
98.71396	60.1625
103.08183	66.0625
107.4465	68.7625
111.80798	67.4625
116.16626	69.0625
120.52136	70.7625
124.87327	69.3625
129.222	73.5625
133.56755	79.6625
137.90993	88.4625
142.24913	95.9625
146.58517	109.0625
150.91804	124.3625
155.24774	143.7625
159.57429	182.2625
163.89768	236.3625
168.21792	307.8625
172.53501	410.6625
176.84895	572.2625
181.15975	806.6625
185.46741	1119.4625
189.77193	1551.4625
194.07331	2077.8625
198.37157	2669.9625
202.6667	3309.6625
206.9587	3951.1625
211.24758	4582.0625
215.53334	5225.8625
219.81599	5893.1625
224.09553	6651.5625
228.37195	7459.9625
232.64527	8351.0625
236.91549	9244.3625
241.18261	10162.5625
245.44663	11045.2625
249.70755	11767.2625
253.96539	12412.6625
258.22014	12941.8625
262.4718	13332.5625
266.72039	13626.6625
270.96589	13711.0625
275.20832	13696.1625
279.44768	13529.7625
283.68397	13418.5625
287.91719	13307.8625
292.14735	13193.3625
296.37445	13182.2625
300.59849	13189.7625
304.81948	13277.2625
309.03742	13313.5625
313.25231	13250.6625
317.46415	13021.4625
321.67296	12739.1625
325.87872	12458.9625
330.08145	12262.6625
334.28114	12220.1625
338.47781	12246.1625
342.67145	12329.6625
346.86207	12511.9625
351.04966	12699.0625
355.23424	12927.2625
359.4158	13102.1625
363.59435	13248.6625
367.76989	13320.7625
371.94243	13331.3625
376.11196	13353.1625
380.27849	13405.5625
384.44203	13489.9625
388.60257	13625.5625
392.76012	13826.7625
396.91468	14081.9625
401.06626	14341.5625
405.21485	14551.8625
409.36047	14469.0625
413.50311	14310.9625
417.64277	14182.4625
421.77947	14225.7625
425.9132	14288.2625
430.04396	14372.0625
434.17176	14402.1625
438.2966	14463.8625
442.41849	14705.6625
446.53742	15093.4625
450.6534	15535.1625
454.76644	15835.4625
458.87653	15845.2625
462.98368	15731.9625
467.08789	15566.4625
471.18916	15379.2625
475.2875	15191.6625
479.38291	15130.7625
483.4754	15071.2625
487.56496	14925.7625
491.6516	14672.1625
495.73531	14376.0625
499.81612	14260.7625
503.89401	14266.8625
507.96899	14264.6625
512.04106	14182.5625
516.11023	13978.5625
520.1765	13797.1625
524.23987	13645.4625
528.30034	13573.1625
532.35792	13463.0625
536.41261	13315.5625
540.46441	13154.6625
544.51333	13136.5625
548.55936	13219.3625
552.60252	13511.0625
556.64279	13900.4625
560.6802	14230.0625
564.71473	14395.3625
568.7464	14679.5625
572.7752	15256.4625
576.80114	15842.0625
580.82422	16497.0625
584.84444	17326.6625
588.86181	18411.4625
592.87633	19316.0625
596.888	19244.6625
600.89682	18048.2625
604.9028	17237.0625
608.90594	17809.3625
612.90624	18718.8625
616.90371	17392.3625
620.89834	14599.0625
624.89015	13318.3625
628.87913	13209.4625
632.86528	13407.7625
636.84862	13437.3625
640.82913	13196.7625
644.80683	12836.4625
648.78172	12626.7625
652.75379	12571.0625
656.72306	12687.1625
660.68952	12807.8625
664.65319	12736.6625
668.61405	12549.5625
672.57211	12530.8625
676.52738	12668.6625
680.47986	12723.2625
684.42955	12646.4625
688.37646	12528.5625
692.32058	12507.9625
696.26192	12621.3625
700.20048	12839.5625
704.13626	12945.1625
708.06928	12975.8625
711.99952	12993.4625
715.927	12975.9625
719.85171	13018.7625
723.77365	12965.6625
727.69284	12741.9625
731.60928	12563.4625
735.52295	12500.2625
739.43388	12495.6625
743.34206	12564.2625
747.24749	12603.8625
751.15017	12773.1625
755.05012	13010.7625
758.94733	13394.7625
762.8418	14051.8625
766.73354	15134.1625
770.62254	16098.0625
774.50882	16262.0625
778.39237	15518.6625
782.27321	14369.3625
786.15132	13397.2625
790.02671	12770.1625
793.89938	12444.6625
797.76935	12315.8625
801.6366	12274.1625
805.50115	12274.9625
809.36299	12197.6625
813.22213	12061.3625
817.07857	12038.5625
820.93231	11925.6625
824.78336	11827.4625
828.63172	11736.9625
832.47738	11669.7625
836.32036	11656.6625
840.16066	11659.8625
843.99827	11664.1625
847.8332	11634.7625
851.66546	11601.6625
855.49504	11589.2625
859.32195	11558.7625
863.1462	11556.8625
866.96777	11528.0625
870.78668	11507.7625
874.60293	11542.6625
878.41652	11543.0625
882.22745	11585.9625
886.03573	11648.4625
889.84136	11657.9625
893.64433	11613.6625
897.44466	11550.5625
901.24235	11475.9625
905.0374	11418.3625
908.8298	11336.6625
912.61957	11354.7625
916.40671	11456.3625
920.19121	11630.7625
923.97308	11832.2625
927.75233	11911.0625
931.52895	11762.4625
935.30295	11540.1625
939.07433	11205.7625
942.84309	11011.0625
946.60924	10894.4625
950.37278	10822.2625
954.13371	10856.4625
957.89203	10863.7625
961.64774	10871.3625
965.40086	10883.5625
969.15137	10846.4625
972.89929	10747.3625
976.64461	10665.8625
980.38733	10643.5625
984.12747	10628.0625
987.86502	10674.8625
991.59999	10718.8625
995.33237	10856.6625
999.06217	11060.4625
1002.78939	11316.3625
1006.51404	11637.1625
1010.23611	11899.5625
1013.95561	12088.2625
1017.67255	12179.5625
1021.38692	12045.9625
1025.09872	11757.2625
1028.80796	11527.3625
1032.51465	11482.0625
1036.21877	11548.3625
1039.92035	11659.7625
1043.61937	11710.4625
1047.31584	11727.5625
1051.00976	11731.9625
1054.70114	11723.8625
1058.38998	11760.9625
1062.07627	11854.3625
1065.76003	11996.5625
1069.44126	12242.5625
1073.11995	12530.1625
1076.79611	12732.3625
1080.46974	12818.3625
1084.14085	12851.7625
1087.80943	12951.1625
1091.47549	13078.6625
1095.13903	13219.5625
1098.80005	13021.8625
1102.45857	12607.0625
1106.11456	12222.4625
1109.76805	12006.4625
1113.41903	11992.6625
1117.06751	12034.6625
1120.71348	12210.4625
1124.35696	12401.2625
1127.99793	12601.4625
1131.63641	12799.0625
1135.2724	12821.8625
1138.90589	12797.2625
1142.5369	12848.4625
1146.16542	12993.2625
1149.79145	13139.5625
1153.415	13300.2625
1157.03607	13490.8625
1160.65467	13925.0625
1164.27079	14716.1625
1167.88443	15681.2625
1171.49561	16766.5625
1175.10432	18035.2625
1178.71056	19577.4625
1182.31434	20958.3625
1185.91565	21555.1625
1189.51451	21237.6625
1193.11091	20548.0625
1196.70485	19653.3625
1200.29634	18722.7625
1203.88538	18143.3625
1207.47197	17837.1625
1211.05612	17639.1625
1214.63782	17295.8625
1218.21708	16735.3625
1221.79391	16271.2625
1225.36829	15982.9625
1228.94024	15829.1625
1232.50976	15561.2625
1236.07685	15264.1625
1239.6415	15016.3625
1243.20374	14925.5625
1246.76355	15012.6625
1250.32093	15219.0625
1253.8759	15556.5625
1257.42845	16137.2625
1260.97859	16690.0625
1264.52631	17299.4625
1268.07163	17858.7625
1271.61453	18439.4625
1275.15503	19004.0625
1278.69312	19724.1625
1282.22882	20579.2625
1285.76211	21636.9625
1289.29301	22819.3625
1292.82151	24097.5625
1296.34761	25533.2625
1299.87133	27097.9625
1303.39266	28633.2625
1306.9116	29964.4625
1310.42815	30893.5625
1313.94233	31402.0625
1317.45412	31195.2625
1320.96354	30429.8625
1324.47058	29691.7625
1327.97525	29266.0625
1331.47754	28950.3625
1334.97747	28552.4625
1338.47502	28102.8625
1341.97022	27444.9625
1345.46305	26788.8625
1348.95352	26353.1625
1352.44163	26439.3625
1355.92738	27271.1625
1359.41078	28708.5625
1362.89183	29960.1625
1366.37053	30006.7625
1369.84688	28142.3625
1373.32088	24957.9625
1376.79254	22505.3625
1380.26186	21455.3625
1383.72883	21281.9625
1387.19347	21162.9625
1390.65578	20861.1625
1394.11575	20802.3625
1397.57339	21055.5625
1401.0287	21543.6625
1404.48168	21847.0625
1407.93234	21741.5625
1411.38068	21184.7625
1414.82669	20291.9625
1418.27039	19325.7625
1421.71177	18394.1625
1425.15083	17647.2625
1428.58758	17307.9625
1432.02203	17419.2625
1435.45416	17951.4625
1438.88399	18527.6625
1442.31151	18947.7625
1445.73673	19242.5625
1449.15965	19526.2625
1452.58027	19663.0625
1455.9986	19573.6625
1459.41463	19661.2625
1462.82837	19975.4625
1466.23982	20457.4625
1469.64898	20898.5625
1473.05586	21164.2625
1476.46045	21234.4625
1479.86276	21156.3625
1483.26279	21070.1625
1486.66054	21043.2625
1490.05602	21254.3625
1493.44922	21569.1625
1496.84016	21918.0625
1500.22882	22246.2625
1503.61521	22722.8625
1506.99934	23217.7625
1510.38121	23573.1625
1513.76081	23488.5625
1517.13816	23002.2625
1520.51324	22348.0625
1523.88607	21926.1625
1527.25665	21790.7625
1530.62498	21803.9625
1533.99105	21633.8625
1537.35488	21196.7625
1540.71647	20525.3625
1544.07581	19762.1625
1547.4329	18985.3625
1550.78776	18332.3625
1554.14038	17869.6625
1557.49077	17645.0625
1560.83892	17551.5625
1564.18484	17617.3625
1567.52853	17736.9625
1570.86999	17977.9625
1574.20922	18403.2625
1577.54624	18777.9625
1580.88103	18956.9625
1584.2136	19175.7625
1587.54395	19766.9625
1590.87208	20902.4625
1594.19801	22268.6625
1597.52172	23625.1625
1600.84321	23978.0625
1604.16251	22788.5625
1607.47959	20653.8625
1610.79447	18413.2625
1614.10715	16457.9625
1617.41763	14993.8625
1620.7259	14063.2625
1624.03199	13624.9625
1627.33587	13584.1625
1630.63757	14093.1625
1633.93707	15196.0625
1637.23439	17088.4625
1640.52951	19985.3625
1643.82246	23656.2625
1647.11321	26737.9625
1650.40179	27571.0625
1653.68819	25461.4625
1656.97241	21570.6625
1660.25446	17814.2625
1663.53433	14950.1625
1666.81203	13147.9625
1670.08756	11998.1625
1673.36092	11309.0625
1676.63211	10855.0625
1679.90115	10579.6625
1683.16801	10316.5625
1686.43272	10158.5625
1689.69527	10024.9625
1692.95567	9912.1625
1696.2139	9863.7625
1699.46999	9854.4625
1702.72392	9771.8625
1705.97571	9720.8625
1709.22535	9685.2625
1712.47284	9643.1625
1715.71819	9609.0625
1718.96139	9569.0625
1722.20246	9501.7625
1725.44139	9473.3625
1728.67818	9428.5625
1731.91284	9349.0625
1735.14537	9310.8625
1738.37576	9240.1625
1741.60403	9182.9625
1744.83017	9157.4625
1748.05418	9162.9625
1751.27607	9161.0625
1754.49584	9164.8625
1757.71349	9179.2625
1760.92903	9167.2625
1764.14244	9151.8625
1767.35375	9118.8625
1770.56294	9066.0625
1773.77002	9001.9625
1776.97499	8966.3625
1780.17785	8933.7625
1783.37861	8922.7625
1786.57727	8874.7625
1789.77382	8849.4625
1792.96828	8801.9625
1796.16064	8790.7625
1799.3509	8757.2625
1802.53907	8754.5625
1805.72514	8715.7625
1808.90913	8687.2625
1812.09102	8676.3625
1815.27083	8638.2625
1818.44856	8639.5625
1821.6242	8627.2625
1824.79776	8595.4625
1827.96924	8600.0625
1831.13864	8592.0625
1834.30597	8592.1625
1837.47122	8585.6625
1840.6344	8594.4625
1843.7955	8571.1625
1846.95454	8570.6625
1850.11151	8576.1625
1853.26642	8568.2625
1856.41926	8553.7625
1859.57004	8570.7625
1862.71876	8537.4625
1865.86542	8527.4625
1869.01003	8520.8625
1872.15258	8487.1625
1875.29308	8488.1625
1878.43152	8468.4625
1881.56792	8468.5625
1884.70227	8436.1625
1887.83457	8433.7625
1890.96482	8431.6625
1894.09304	8395.9625
1897.21921	8404.1625
1900.34335	8403.4625
1903.46544	8377.1625
1906.58551	8357.4625
1909.70353	8328.2625
1912.81953	8306.2625
1915.93349	8291.8625
1919.04543	8286.7625
1922.15534	8270.6625
1925.26322	8236.3625
1928.36908	8208.1625
1931.47292	8188.6625
1934.57473	8142.4625
1937.67453	8150.8625
1940.77232	8118.2625
1943.86808	8092.9625
1946.96184	8084.8625
1950.05358	8053.4625
1953.14331	8025.5625
1956.23103	7986.2625
1959.31675	7974.3625
1962.40046	7948.7625
1965.48217	7930.1625
1968.56188	7901.1625
1971.63959	7860.6625
1974.7153	7847.3625
1977.78901	7799.9625
1980.86073	7783.2625
1983.93046	7783.6625
1986.99819	7721.0625
1990.06394	7700.8625
1993.1277	7680.3625
1996.18947	7679.8625
1999.24925	7657.3625
2002.30706	7602.8625
2005.36288	7577.8625
2008.41672	7585.3625
2011.46859	7546.1625
2014.51848	7533.2625
2017.56639	7499.4625
2020.61233	7489.3625
2023.6563	7478.3625
2026.6983	7461.2625
2029.73833	7444.5625
2032.7764	7413.6625
2035.8125	7416.4625
2038.84664	7380.6625
2041.87881	7392.8625
2044.90903	7374.0625
2047.93729	7362.6625
2050.96359	7345.8625
2053.98794	7349.3625
2057.01034	7326.2625
2060.03078	7312.0625
2063.04927	7320.4625
2066.06582	7299.5625
2069.08042	7287.2625
2072.09307	7273.3625
2075.10378	7276.2625
2078.11255	7273.3625
2081.11938	7262.9625
2084.12426	7278.8625
2087.12722	7261.2625
2090.12824	7255.3625
2093.12732	7265.7625
2096.12447	7255.6625
2099.11969	7221.7625
2102.11299	7258.1625
2105.10435	7254.8625
2108.09379	7249.3625
2111.08131	7265.7625
2114.0669	7233.5625
2117.05057	7262.5625
2120.03233	7264.8625
2123.01216	7270.6625
2125.99008	7264.3625
2128.96609	7279.3625
2131.94018	7271.1625
2134.91236	7273.2625
2137.88263	7257.5625
2140.851	7250.8625
2143.81746	7255.2625
2146.78201	7243.6625
2149.74466	7251.3625
2152.7054	7260.9625
2155.66425	7237.9625
2158.6212	7228.7625
2161.57625	7223.4625
2164.52941	7227.8625
2167.48067	7214.5625
2170.43004	7226.2625
2173.37752	7233.8625
2176.32311	7212.1625
2179.26681	7236.4625
2182.20863	7214.0625
2185.14856	7203.3625
2188.08661	7214.9625
2191.02278	7192.7625
2193.95707	7196.4625
2196.88948	7192.9625
2199.82001	7183.0625
2202.74867	7170.5625
2205.67545	7155.3625
2208.60037	7142.5625
2211.52341	7133.1625
2214.44458	7144.2625
2217.36388	7107.3625
2220.28132	7087.0625
2223.1969	7072.8625
2226.11061	7090.9625
2229.02246	7066.5625
2231.93245	7073.0625
2234.84058	7071.4625
2237.74686	7058.4625
2240.65128	7025.5625
2243.55385	7016.4625
2246.45456	7016.9625
2249.35343	6986.6625
2252.25044	6992.9625
2255.14561	6955.9625
2258.03893	6967.1625
2260.93041	6959.4625
2263.82004	6927.7625
2266.70783	6894.8625
2269.59378	6885.7625
2272.4779	6862.6625
2275.36017	6839.5625
2278.24061	6823.5625
2281.11922	6792.2625
2283.996	6789.0625
2286.87094	6790.3625
2289.74405	6762.9625
2292.61534	6749.3625
2295.4848	6752.5625
2298.35243	6756.5625
2301.21824	6736.7625
2304.08223	6741.3625
2306.94439	6746.9625
2309.80474	6733.8625
2312.66327	6730.2625
2315.51999	6721.5625
2318.37489	6719.9625
2321.22797	6700.5625
2324.07925	6700.1625
2326.92871	6708.2625
2329.77637	6685.2625
2332.62222	6659.4625
2335.46626	6660.1625
2338.3085	6659.0625
2341.14893	6664.9625
2343.98756	6668.4625
2346.8244	6647.6625
2349.65943	6661.3625
2352.49267	6672.1625
2355.32411	6652.2625
2358.15376	6651.0625
2360.98161	6640.7625
2363.80768	6653.0625
2366.63195	6637.5625
2369.45444	6617.7625
2372.27514	6619.1625
2375.09405	6593.0625
2377.91118	6586.1625
2380.72652	6577.4625
2383.54009	6579.2625
2386.35187	6548.6625
2389.16188	6534.3625
2391.97011	6533.8625
2394.77657	6515.6625
2397.58125	6509.2625
2400.38416	6493.1625
2403.18529	6476.6625
2405.98466	6461.1625
2408.78226	6462.0625
2411.57809	6457.4625
2414.37216	6432.2625
2417.16446	6432.3625
2419.955	6442.6625
2422.74378	6437.1625
2425.5308	6433.8625
2428.31606	6425.9625
2431.09956	6417.2625
2433.88131	6404.6625
2436.6613	6410.5625
2439.43954	6399.8625
2442.21603	6384.8625
2444.99077	6376.5625
2447.76377	6383.4625
2450.53501	6393.0625
2453.30451	6381.0625
2456.07226	6387.8625
2458.83827	6398.8625
2461.60254	6386.9625
2464.36507	6377.0625
2467.12586	6379.6625
2469.88492	6351.5625
2472.64224	6364.2625
2475.39782	6376.7625
2478.15167	6378.9625
2480.90379	6386.6625
2483.65417	6366.6625
2486.40283	6374.3625
2489.14976	6379.0625
2491.89497	6363.2625
2494.63845	6382.2625
2497.3802	6386.8625
2500.12024	6358.8625
2502.85855	6357.1625
2505.59514	6345.2625
2508.33002	6347.6625
2511.06318	6334.6625
2513.79462	6327.3625
2516.52435	6318.0625
2519.25237	6317.2625
2521.97867	6325.5625
2524.70327	6285.6625
2527.42616	6299.9625
2530.14734	6277.8625
2532.86681	6275.6625
2535.58458	6275.6625
2538.30065	6259.0625
2541.01501	6265.5625
2543.72768	6250.6625
2546.43864	6246.0625
2549.14791	6236.9625
2551.85548	6241.2625
2554.56136	6237.3625
2557.26554	6231.2625
2559.96803	6240.9625
2562.66883	6232.0625
2565.36794	6219.1625
2568.06536	6210.5625
2570.7611	6205.9625
2573.45514	6209.5625
2576.14751	6207.2625
2578.83819	6208.3625
2581.52719	6222.8625
2584.21451	6193.4625
2586.90015	6174.0625
2589.58411	6165.1625
2592.2664	6179.9625
2594.94701	6160.4625
2597.62594	6154.0625
2600.30321	6138.5625
2602.9788	6168.1625
2605.65273	6147.4625
2608.32498	6150.3625
2610.99557	6133.6625
2613.66449	6134.6625
2616.33175	6125.9625
2618.99734	6133.6625
2621.66128	6113.6625
2624.32355	6107.5625
2626.98416	6096.2625
2629.64311	6114.1625
2632.30041	6109.6625
2634.95605	6106.1625
2637.61004	6096.9625
2640.26238	6097.2625
2642.91306	6089.8625
2645.56209	6082.8625
2648.20948	6081.9625
2650.85521	6074.0625
2653.4993	6072.6625
2656.14175	6066.4625
2658.78255	6084.1625
2661.42171	6087.6625
2664.05923	6102.5625
2666.6951	6084.7625
2669.32934	6090.6625
2671.96194	6107.2625
2674.59291	6095.6625
2677.22224	6108.2625
2679.84993	6105.3625
2682.476	6094.8625
2685.10043	6099.8625
2687.72324	6076.2625
2690.34441	6077.3625
2692.96396	6093.0625
2695.58188	6092.1625
2698.19818	6071.1625
2700.81285	6090.3625
2703.4259	6105.1625
2706.03733	6160.9625
2708.64714	6132.0625
2711.25533	6125.0625
2713.86191	6107.9625
2716.46687	6114.6625
2719.07021	6124.4625
2721.67194	6122.7625
2724.27206	6084.2625
2726.87057	6123.1625
2729.46747	6114.5625
2732.06276	6122.4625
2734.65644	6127.8625
2737.24852	6106.9625
2739.83899	6114.9625
2742.42786	6099.2625
2745.01513	6090.9625
2747.60079	6104.7625
2750.18486	6099.0625
2752.76733	6077.8625
2755.3482	6081.8625
2757.92747	6095.2625
2760.50515	6082.8625
2763.08123	6087.9625
2765.65573	6080.0625
2768.22863	6080.4625
2770.79994	6066.5625
2773.36967	6064.4625
2775.9378	6089.7625
2778.50435	6073.6625
2781.06932	6074.7625
2783.6327	6073.1625
2786.1945	6057.9625
2788.75471	6064.5625
2791.31335	6058.4625
2793.87041	6031.3625
2796.42589	6026.7625
2798.97979	6014.5625
2801.53212	6015.1625
2804.08288	6002.1625
2806.63206	5987.4625
2809.17967	5986.9625
2811.72571	5971.5625
2814.27018	5985.3625
2816.81308	5970.5625
2819.35442	5953.4625
2821.89419	5947.4625
2824.43239	5940.4625
2826.96904	5950.6625
2829.50412	5940.4625
2832.03763	5941.3625
2834.56959	5945.8625
2837.1	5937.7625
2839.62884	5937.0625
2842.15613	5949.6625
2844.68186	5958.7625
2847.20604	5967.0625
2849.72867	5981.5625
2852.24974	5957.1625
2854.76927	5982.4625
2857.28724	5962.0625
2859.80367	5942.0625
2862.31855	5937.0625
2864.83189	5919.8625
2867.34368	5936.9625
2869.85393	5914.5625
2872.36264	5914.7625
2874.8698	5913.0625
2877.37543	5900.8625
2879.87952	5916.4625
2882.38207	5886.1625
2884.88308	5911.1625
2887.38256	5906.1625
2889.88051	5904.9625
2892.37692	5915.9625
2894.8718	5897.1625
2897.36515	5934.2625
2899.85698	5928.2625
2902.34727	5935.0625
2904.83604	5934.3625
2907.32328	5947.5625
2909.809	5948.2625
2912.29319	5956.0625
2914.77587	5980.4625
2917.25702	5958.7625
2919.73665	5960.3625
2922.21476	5957.4625
2924.69136	5969.8625
2927.16644	5989.6625
2929.64	5971.2625
2932.11205	5950.9625
2934.58258	5930.8625
2937.05161	5942.2625
2939.51912	5942.7625
2941.98513	5950.7625
2944.44962	5913.4625
2946.91261	5922.3625
2949.37409	5902.2625
2951.83407	5879.7625
2954.29254	5890.2625
2956.74951	5868.5625
2959.20498	5860.2625
2961.65895	5846.0625
2964.11142	5827.1625
2966.56239	5815.9625
2969.01186	5790.8625
2971.45984	5794.0625
2973.90632	5761.4625
2976.35131	5741.8625
2978.7948	5754.5625
2981.23681	5714.9625
2983.67732	5688.8625
2986.11635	5692.8625
2988.55388	5651.3625
2990.98993	5636.5625
2993.4245	5605.8625
2995.85758	5601.7625
2998.28917	5611.8625
3000.71928	5596.6625
3003.14791	5589.2625
3005.57506	5590.7625
3008.00073	5565.2625
3010.42493	5559.6625
3012.84764	5572.6625
3015.26888	5538.7625
3017.68865	5521.0625
3020.10694	5504.5625
3022.52376	5513.4625
3024.9391	5497.4625
3027.35298	5481.2625
3029.76539	5470.3625
3032.17632	5464.6625
3034.5858	5453.5625
3036.9938	5447.0625
3039.40034	5448.9625
3041.80542	5435.1625
3044.20903	5422.5625
3046.61118	5424.1625
3049.01187	5405.5625
3051.4111	5387.6625
3053.80888	5373.8625
3056.20519	5391.2625
3058.60005	5373.5625
3060.99345	5361.4625
3063.3854	5349.8625
3065.7759	5328.5625
3068.16494	5301.7625
3070.55254	5294.9625
3072.93868	5297.1625
3075.32338	5286.8625
3077.70662	5278.3625
3080.08842	5246.7625
3082.46878	5240.9625
3084.84769	5217.9625
3087.22515	5223.9625
3089.60118	5217.3625
3091.97576	5211.2625
3094.3489	5217.8625
3096.72061	5208.6625
3099.09087	5226.8625
3101.4597	5202.7625
3103.82709	5202.9625
3106.19305	5206.9625
3108.55757	5192.9625
3110.92066	5182.8625
3113.28232	5173.7625
3115.64255	5153.3625
3118.00134	5140.3625
3120.35871	5133.1625
3122.71466	5122.7625
3125.06917	5142.9625
3127.42226	5116.9625
3129.77393	5127.9625
3132.12417	5118.5625
3134.47299	5117.7625
3136.82039	5114.8625
3139.16636	5118.0625
3141.51092	5115.4625
3143.85406	5124.5625
3146.19579	5121.9625
3148.53609	5096.0625
3150.87499	5109.3625
3153.21246	5108.3625
3155.54853	5114.6625
3157.88318	5108.6625
3160.21642	5120.3625
3162.54826	5101.2625
3164.87868	5099.0625
3167.2077	5108.2625
3169.5353	5102.4625
3171.86151	5092.1625
3174.18631	5090.5625
3176.5097	5082.2625
3178.83169	5087.9625
3181.15228	5090.7625
3183.47147	5072.3625
3185.78926	5066.7625
3188.10565	5066.8625
3190.42065	5080.0625
3192.73424	5057.8625
3195.04645	5065.1625
3197.35725	5079.3625
3199.66667	5050.8625
3201.97469	5091.2625
3204.28132	5058.3625
3206.58656	5062.3625
3208.8904	5051.3625
3211.19287	5057.5625
3213.49394	5056.5625
3215.79363	5077.9625
3218.09193	5056.4625
3220.38884	5057.9625
3222.68438	5052.5625
3224.97853	5043.8625
3227.2713	5066.5625
3229.56269	5042.2625
3231.8527	5039.0625
3234.14133	5040.2625
3236.42858	5024.4625
3238.71446	5016.5625
3240.99896	5025.9625
3243.28209	5029.1625
3245.56384	5010.7625
3247.84423	5012.9625
3250.12324	4998.2625
3252.40088	4992.6625
3254.67715	4975.3625
3256.95205	4982.1625
3259.22558	4971.0625
3261.49775	4940.4625
3263.76855	4952.1625
3266.03799	4935.6625
3268.30606	4923.9625
3270.57277	4910.3625
3272.83812	4909.1625
3275.10211	4907.6625
3277.36474	4888.0625
3279.62601	4895.5625
3281.88593	4890.0625
3284.14448	4900.8625
3286.40168	4899.7625
3288.65753	4886.5625
3290.91202	4888.0625
3293.16516	4851.4625
3295.41695	4872.0625
3297.66738	4830.2625
3299.91647	4805.8625
3302.16421	4767.6625
3304.4106	4746.4625
3306.65564	4725.6625
3308.89933	4713.4625
3311.14169	4684.1625
3313.38269	4649.9625
3315.62236	4620.5625
3317.86068	4577.2625
3320.09766	4524.8625
3322.3333	4496.2625
3324.5676	4507.9625
3326.80056	4424.6625
3329.03219	4411.1625
3331.26248	1.1625
3333.49143	-1.4375
3335.71905	0.6625
