Data from AgNPs_FTO_APTES_UA_100um_CRN_0.1mM_R6G_10uM_NaF_0.1M_Addition_RamanShift__29__16-18-49-308.txt Node

Date: Tue Dec 21 16:18:49 GMT 2021
User: TCL
Spectrometer: QEP01345
Trigger mode: 4
Integration Time (sec): 7.000000E0
Scans to average: 10
Electric dark correction enabled: true
Nonlinearity correction enabled: false
Boxcar width: 0
XAxis mode: Raman Shifts
Number of Pixels in Spectrum: 1044
>>>>>Begin Spectral Data<<<<<
46.04893	0.9875
50.45542	-0.3125
54.85868	-0.5125
59.25871	-0.3125
63.6555	29.5875
68.04907	31.6875
72.43941	34.7875
76.82654	33.5875
81.21044	40.6875
85.59113	38.1875
89.96862	40.9875
94.34289	44.0875
98.71396	42.2875
103.08183	44.9875
107.4465	47.5875
111.80798	45.2875
116.16626	47.9875
120.52136	50.4875
124.87327	59.7875
129.222	45.6875
133.56755	50.9875
137.90993	54.1875
142.24913	51.7875
146.58517	57.9875
150.91804	65.8875
155.24774	73.1875
159.57429	86.9875
163.89768	107.5875
168.21792	133.0875
172.53501	174.1875
176.84895	236.3875
181.15975	329.9875
185.46741	455.4875
189.77193	626.6875
194.07331	834.2875
198.37157	1077.7875
202.6667	1324.1875
206.9587	1591.0875
211.24758	1838.3875
215.53334	2086.1875
219.81599	2364.5875
224.09553	2668.1875
228.37195	3025.4875
232.64527	3392.5875
236.91549	3789.1875
241.18261	4150.2875
245.44663	4507.9875
249.70755	4793.6875
253.96539	5043.8875
258.22014	5200.8875
262.4718	5357.2875
266.72039	5441.7875
270.96589	5474.8875
275.20832	5472.0875
279.44768	5402.0875
283.68397	5329.4875
287.91719	5240.5875
292.14735	5232.4875
296.37445	5303.6875
300.59849	5446.9875
304.81948	5608.7875
309.03742	5734.2875
313.25231	5692.1875
317.46415	5464.3875
321.67296	5126.9875
325.87872	4824.5875
330.08145	4690.7875
334.28114	4673.8875
338.47781	4753.5875
342.67145	4842.3875
346.86207	5013.7875
351.04966	5271.3875
355.23424	5546.6875
359.4158	5786.2875
363.59435	5892.4875
367.76989	5965.4875
371.94243	5989.6875
376.11196	5986.5875
380.27849	5989.8875
384.44203	5952.3875
388.60257	5886.3875
392.76012	5867.2875
396.91468	5894.1875
401.06626	6014.8875
405.21485	6129.5875
409.36047	6059.2875
413.50311	5829.2875
417.64277	5547.2875
421.77947	5382.3875
425.9132	5300.1875
430.04396	5288.1875
434.17176	5315.2875
438.2966	5356.0875
442.41849	5434.2875
446.53742	5521.4875
450.6534	5640.7875
454.76644	5703.9875
458.87653	5725.3875
462.98368	5707.9875
467.08789	5659.6875
471.18916	5578.2875
475.2875	5490.8875
479.38291	5428.7875
483.4754	5402.9875
487.56496	5353.5875
491.6516	5364.8875
495.73531	5361.2875
499.81612	5338.0875
503.89401	5369.6875
507.96899	5395.1875
512.04106	5435.2875
516.11023	5542.7875
520.1765	5607.0875
524.23987	5629.5875
528.30034	5570.4875
532.35792	5484.9875
536.41261	5364.8875
540.46441	5264.3875
544.51333	5180.1875
548.55936	5157.7875
552.60252	5231.9875
556.64279	5319.4875
560.6802	5371.8875
564.71473	5433.3875
568.7464	5565.1875
572.7752	5696.7875
576.80114	5581.9875
580.82422	5457.7875
584.84444	5372.6875
588.86181	5399.8875
592.87633	5395.7875
596.888	5433.7875
600.89682	5577.7875
604.9028	6041.2875
608.90594	7359.8875
612.90624	9207.1875
616.90371	9131.7875
620.89834	6951.7875
624.89015	5858.0875
628.87913	5741.3875
632.86528	5880.8875
636.84862	6003.7875
640.82913	5947.6875
644.80683	5643.8875
648.78172	5382.9875
652.75379	5258.6875
656.72306	5331.6875
660.68952	5468.4875
664.65319	5438.4875
668.61405	5219.9875
672.57211	5110.0875
676.52738	5108.0875
680.47986	5116.8875
684.42955	5082.4875
688.37646	5058.9875
692.32058	5074.9875
696.26192	5049.7875
700.20048	5134.9875
704.13626	5142.5875
708.06928	5142.8875
711.99952	5099.6875
715.927	5088.8875
719.85171	5100.5875
723.77365	5123.0875
727.69284	5083.7875
731.60928	5043.5875
735.52295	5008.9875
739.43388	4988.1875
743.34206	5004.0875
747.24749	5023.8875
751.15017	5055.4875
755.05012	5120.0875
758.94733	5282.5875
762.8418	5693.2875
766.73354	6429.2875
770.62254	7252.3875
774.50882	7739.0875
778.39237	7514.6875
782.27321	6656.4875
786.15132	5824.5875
790.02671	5313.4875
793.89938	5113.2875
797.76935	5044.2875
801.6366	5031.7875
805.50115	5094.1875
809.36299	5168.6875
813.22213	5219.4875
817.07857	5172.6875
820.93231	5098.3875
824.78336	5007.0875
828.63172	4943.5875
832.47738	4908.7875
836.32036	4877.6875
840.16066	4862.9875
843.99827	4827.2875
847.8332	4810.6875
851.66546	4783.8875
855.49504	4798.7875
859.32195	4777.5875
863.1462	4749.5875
866.96777	4771.1875
870.78668	4778.0875
874.60293	4846.1875
878.41652	4885.6875
882.22745	4962.2875
886.03573	5016.1875
889.84136	5037.2875
893.64433	4973.2875
897.44466	4914.2875
901.24235	4828.7875
905.0374	4751.3875
908.8298	4703.5875
912.61957	4666.4875
916.40671	4661.5875
920.19121	4672.1875
923.97308	4695.4875
927.75233	4701.8875
931.52895	4744.0875
935.30295	4716.1875
939.07433	4631.6875
942.84309	4536.8875
946.60924	4487.6875
950.37278	4428.4875
954.13371	4431.9875
957.89203	4415.3875
961.64774	4413.0875
965.40086	4393.3875
969.15137	4371.0875
972.89929	4363.3875
976.64461	4338.4875
980.38733	4338.5875
984.12747	4353.5875
987.86502	4357.9875
991.59999	4379.6875
995.33237	4409.1875
999.06217	4463.0875
1002.78939	4534.2875
1006.51404	4663.9875
1010.23611	4745.4875
1013.95561	4862.8875
1017.67255	4848.1875
1021.38692	4810.1875
1025.09872	4738.3875
1028.80796	4670.1875
1032.51465	4623.7875
1036.21877	4624.7875
1039.92035	4633.3875
1043.61937	4646.2875
1047.31584	4629.5875
1051.00976	4634.9875
1054.70114	4644.2875
1058.38998	4660.4875
1062.07627	4684.3875
1065.76003	4736.7875
1069.44126	4766.3875
1073.11995	4800.5875
1076.79611	4804.2875
1080.46974	4833.0875
1084.14085	4889.1875
1087.80943	4972.2875
1091.47549	5003.8875
1095.13903	4943.6875
1098.80005	4833.8875
1102.45857	4725.9875
1106.11456	4659.2875
1109.76805	4688.4875
1113.41903	4778.7875
1117.06751	4939.4875
1120.71348	5127.7875
1124.35696	5358.7875
1127.99793	5567.8875
1131.63641	5657.2875
1135.2724	5561.9875
1138.90589	5385.0875
1142.5369	5239.8875
1146.16542	5086.8875
1149.79145	4919.6875
1153.415	4829.2875
1157.03607	4783.7875
1160.65467	4795.0875
1164.27079	4891.4875
1167.88443	5068.9875
1171.49561	5334.4875
1175.10432	5833.3875
1178.71056	6517.7875
1182.31434	7063.4875
1185.91565	7222.8875
1189.51451	7079.8875
1193.11091	6769.8875
1196.70485	6461.4875
1200.29634	6237.9875
1203.88538	6103.9875
1207.47197	5838.3875
1211.05612	5581.3875
1214.63782	5347.6875
1218.21708	5171.4875
1221.79391	5068.0875
1225.36829	5024.5875
1228.94024	4986.9875
1232.50976	4976.7875
1236.07685	4967.3875
1239.6415	4972.6875
1243.20374	4990.2875
1246.76355	5039.5875
1250.32093	5075.5875
1253.8759	5155.9875
1257.42845	5277.9875
1260.97859	5368.1875
1264.52631	5447.3875
1268.07163	5552.1875
1271.61453	5625.6875
1275.15503	5706.5875
1278.69312	5748.9875
1282.22882	5746.9875
1285.76211	5834.3875
1289.29301	5981.6875
1292.82151	6157.3875
1296.34761	6345.1875
1299.87133	6630.0875
1303.39266	7103.5875
1306.9116	7828.8875
1310.42815	8587.4875
1313.94233	8965.2875
1317.45412	8728.5875
1320.96354	8162.3875
1324.47058	7619.0875
1327.97525	7140.0875
1331.47754	6873.2875
1334.97747	6760.0875
1338.47502	6837.4875
1341.97022	7022.6875
1345.46305	7298.9875
1348.95352	7659.9875
1352.44163	8163.5875
1355.92738	8851.6875
1359.41078	9918.1875
1362.89183	10970.0875
1366.37053	10747.7875
1369.84688	9335.7875
1373.32088	7908.2875
1376.79254	6947.7875
1380.26186	6411.9875
1383.72883	6144.7875
1387.19347	5964.0875
1390.65578	5796.4875
1394.11575	5643.7875
1397.57339	5560.9875
1401.0287	5530.3875
1404.48168	5549.4875
1407.93234	5577.9875
1411.38068	5583.4875
1414.82669	5524.9875
1418.27039	5449.5875
1421.71177	5318.2875
1425.15083	5205.0875
1428.58758	5128.4875
1432.02203	5135.5875
1435.45416	5159.1875
1438.88399	5138.4875
1442.31151	5132.7875
1445.73673	5163.4875
1449.15965	5194.5875
1452.58027	5180.4875
1455.9986	5160.4875
1459.41463	5167.5875
1462.82837	5208.4875
1466.23982	5290.1875
1469.64898	5384.9875
1473.05586	5454.1875
1476.46045	5493.0875
1479.86276	5563.3875
1483.26279	5672.3875
1486.66054	5818.1875
1490.05602	5996.3875
1493.44922	6251.7875
1496.84016	6669.5875
1500.22882	7287.2875
1503.61521	8137.6875
1506.99934	9106.2875
1510.38121	9904.5875
1513.76081	10151.7875
1517.13816	9575.8875
1520.51324	8484.0875
1523.88607	7395.5875
1527.25665	6712.6875
1530.62498	6288.6875
1533.99105	6087.6875
1537.35488	5948.9875
1540.71647	5898.5875
1544.07581	5876.9875
1547.4329	5878.2875
1550.78776	5870.5875
1554.14038	5861.7875
1557.49077	5917.9875
1560.83892	5967.6875
1564.18484	6098.9875
1567.52853	6277.4875
1570.86999	6423.9875
1574.20922	6510.1875
1577.54624	6494.7875
1580.88103	6227.3875
1584.2136	5861.7875
1587.54395	5662.9875
1590.87208	5655.3875
1594.19801	5831.3875
1597.52172	6120.7875
1600.84321	6296.6875
1604.16251	6179.9875
1607.47959	5895.2875
1610.79447	5590.8875
1614.10715	5293.8875
1617.41763	5042.4875
1620.7259	4878.7875
1624.03199	4810.2875
1627.33587	4764.0875
1630.63757	4824.9875
1633.93707	4968.4875
1637.23439	5189.8875
1640.52951	5542.2875
1643.82246	6081.7875
1647.11321	6756.1875
1650.40179	7337.1875
1653.68819	7337.2875
1656.97241	6651.8875
1660.25446	5777.1875
1663.53433	5110.6875
1666.81203	4734.3875
1670.08756	4491.8875
1673.36092	4310.3875
1676.63211	4198.4875
1679.90115	4116.9875
1683.16801	4061.8875
1686.43272	4008.0875
1689.69527	3971.4875
1692.95567	3961.1875
1696.2139	3955.1875
1699.46999	3954.5875
1702.72392	3911.0875
1705.97571	3863.7875
1709.22535	3812.8875
1712.47284	3789.8875
1715.71819	3766.6875
1718.96139	3766.3875
1722.20246	3759.2875
1725.44139	3727.3875
1728.67818	3691.8875
1731.91284	3666.6875
1735.14537	3645.9875
1738.37576	3624.7875
1741.60403	3605.6875
1744.83017	3600.2875
1748.05418	3592.2875
1751.27607	3595.9875
1754.49584	3600.5875
1757.71349	3584.1875
1760.92903	3596.3875
1764.14244	3571.4875
1767.35375	3574.4875
1770.56294	3558.1875
1773.77002	3533.2875
1776.97499	3499.3875
1780.17785	3469.7875
1783.37861	3468.0875
1786.57727	3449.0875
1789.77382	3434.2875
1792.96828	3439.1875
1796.16064	3413.6875
1799.3509	3427.3875
1802.53907	3406.7875
1805.72514	3392.7875
1808.90913	3369.0875
1812.09102	3369.6875
1815.27083	3343.8875
1818.44856	3363.4875
1821.6242	3345.0875
1824.79776	3334.7875
1827.96924	3331.1875
1831.13864	3319.7875
1834.30597	3307.8875
1837.47122	3299.0875
1840.6344	3291.4875
1843.7955	3304.3875
1846.95454	3299.1875
1850.11151	3290.1875
1853.26642	3289.2875
1856.41926	3282.6875
1859.57004	3283.5875
1862.71876	3287.3875
1865.86542	3275.1875
1869.01003	3271.1875
1872.15258	3272.2875
1875.29308	3263.9875
1878.43152	3261.3875
1881.56792	3254.0875
1884.70227	3254.0875
1887.83457	3251.0875
1890.96482	3240.8875
1894.09304	3239.2875
1897.21921	3233.7875
1900.34335	3231.2875
1903.46544	3211.1875
1906.58551	3218.6875
1909.70353	3231.6875
1912.81953	3211.5875
1915.93349	3208.0875
1919.04543	3215.6875
1922.15534	3180.9875
1925.26322	3189.2875
1928.36908	3192.2875
1931.47292	3191.8875
1934.57473	3176.7875
1937.67453	3143.6875
1940.77232	3147.6875
1943.86808	3148.7875
1946.96184	3130.0875
1950.05358	3126.9875
1953.14331	3100.1875
1956.23103	3103.0875
1959.31675	3104.6875
1962.40046	3087.8875
1965.48217	3075.1875
1968.56188	3053.9875
1971.63959	3053.3875
1974.7153	3045.7875
1977.78901	3056.5875
1980.86073	3013.9875
1983.93046	3018.5875
1986.99819	3011.4875
1990.06394	2999.1875
1993.1277	2984.5875
1996.18947	2971.1875
1999.24925	2960.0875
2002.30706	2956.7875
2005.36288	2939.2875
2008.41672	2923.5875
2011.46859	2929.2875
2014.51848	2907.8875
2017.56639	2906.2875
2020.61233	2890.2875
2023.6563	2884.5875
2026.6983	2882.0875
2029.73833	2852.2875
2032.7764	2862.8875
2035.8125	2840.1875
2038.84664	2847.8875
2041.87881	2846.0875
2044.90903	2828.9875
2047.93729	2832.2875
2050.96359	2825.1875
2053.98794	2830.3875
2057.01034	2835.7875
2060.03078	2821.3875
2063.04927	2815.3875
2066.06582	2801.3875
2069.08042	2795.9875
2072.09307	2792.4875
2075.10378	2777.4875
2078.11255	2783.5875
2081.11938	2781.2875
2084.12426	2791.7875
2087.12722	2781.2875
2090.12824	2795.6875
2093.12732	2778.9875
2096.12447	2784.3875
2099.11969	2787.4875
2102.11299	2772.5875
2105.10435	2774.5875
2108.09379	2777.9875
2111.08131	2782.5875
2114.0669	2788.1875
2117.05057	2776.4875
2120.03233	2789.3875
2123.01216	2786.5875
2125.99008	2779.2875
2128.96609	2793.0875
2131.94018	2788.7875
2134.91236	2780.3875
2137.88263	2777.7875
2140.851	2789.0875
2143.81746	2793.1875
2146.78201	2783.9875
2149.74466	2782.3875
2152.7054	2789.5875
2155.66425	2777.1875
2158.6212	2770.1875
2161.57625	2766.4875
2164.52941	2752.5875
2167.48067	2765.7875
2170.43004	2758.5875
2173.37752	2771.0875
2176.32311	2758.6875
2179.26681	2757.6875
2182.20863	2764.7875
2185.14856	2768.4875
2188.08661	2746.0875
2191.02278	2752.5875
2193.95707	2745.2875
2196.88948	2736.6875
2199.82001	2751.1875
2202.74867	2728.4875
2205.67545	2727.3875
2208.60037	2720.6875
2211.52341	2725.1875
2214.44458	2720.0875
2217.36388	2704.9875
2220.28132	2709.6875
2223.1969	2704.0875
2226.11061	2685.5875
2229.02246	2677.0875
2231.93245	2681.1875
2234.84058	2675.7875
2237.74686	2668.9875
2240.65128	2663.1875
2243.55385	2662.1875
2246.45456	2657.7875
2249.35343	2645.7875
2252.25044	2650.2875
2255.14561	2649.4875
2258.03893	2644.5875
2260.93041	2653.8875
2263.82004	2641.1875
2266.70783	2626.6875
2269.59378	2629.3875
2272.4779	2609.9875
2275.36017	2598.6875
2278.24061	2595.7875
2281.11922	2596.1875
2283.996	2590.9875
2286.87094	2586.4875
2289.74405	2579.9875
2292.61534	2555.4875
2295.4848	2564.9875
2298.35243	2550.5875
2301.21824	2549.3875
2304.08223	2554.7875
2306.94439	2541.1875
2309.80474	2535.7875
2312.66327	2549.1875
2315.51999	2552.0875
2318.37489	2532.4875
2321.22797	2528.0875
2324.07925	2535.0875
2326.92871	2543.0875
2329.77637	2526.9875
2332.62222	2511.7875
2335.46626	2515.6875
2338.3085	2516.3875
2341.14893	2506.5875
2343.98756	2504.0875
2346.8244	2500.4875
2349.65943	2503.1875
2352.49267	2492.1875
2355.32411	2498.1875
2358.15376	2502.1875
2360.98161	2521.1875
2363.80768	2506.3875
2366.63195	2504.6875
2369.45444	2512.8875
2372.27514	2493.9875
2375.09405	2494.2875
2377.91118	2485.8875
2380.72652	2483.5875
2383.54009	2476.1875
2386.35187	2473.1875
2389.16188	2455.4875
2391.97011	2449.9875
2394.77657	2432.4875
2397.58125	2427.2875
2400.38416	2432.0875
2403.18529	2421.9875
2405.98466	2412.2875
2408.78226	2399.3875
2411.57809	2399.0875
2414.37216	2391.3875
2417.16446	2388.3875
2419.955	2395.7875
2422.74378	2395.9875
2425.5308	2376.2875
2428.31606	2386.2875
2431.09956	2375.8875
2433.88131	2379.1875
2436.6613	2374.7875
2439.43954	2367.2875
2442.21603	2367.3875
2444.99077	2361.8875
2447.76377	2367.8875
2450.53501	2367.6875
2453.30451	2361.8875
2456.07226	2354.6875
2458.83827	2361.2875
2461.60254	2351.9875
2464.36507	2349.6875
2467.12586	2356.9875
2469.88492	2332.9875
2472.64224	2343.4875
2475.39782	2362.0875
2478.15167	2363.7875
2480.90379	2345.7875
2483.65417	2343.3875
2486.40283	2343.5875
2489.14976	2357.2875
2491.89497	2352.6875
2494.63845	2360.6875
2497.3802	2363.1875
2500.12024	2341.4875
2502.85855	2337.3875
2505.59514	2337.9875
2508.33002	2322.2875
2511.06318	2315.5875
2513.79462	2312.7875
2516.52435	2300.0875
2519.25237	2286.7875
2521.97867	2286.1875
2524.70327	2288.0875
2527.42616	2277.2875
2530.14734	2272.9875
2532.86681	2272.6875
2535.58458	2264.2875
2538.30065	2264.8875
2541.01501	2265.8875
2543.72768	2270.8875
2546.43864	2251.2875
2549.14791	2257.9875
2551.85548	2245.0875
2554.56136	2246.8875
2557.26554	2246.3875
2559.96803	2232.0875
2562.66883	2234.3875
2565.36794	2225.7875
2568.06536	2233.8875
2570.7611	2225.3875
2573.45514	2221.6875
2576.14751	2208.9875
2578.83819	2194.6875
2581.52719	2200.1875
2584.21451	2187.3875
2586.90015	2203.7875
2589.58411	2202.3875
2592.2664	2196.2875
2594.94701	2179.1875
2597.62594	2186.2875
2600.30321	2167.0875
2602.9788	2178.9875
2605.65273	2170.0875
2608.32498	2165.5875
2610.99557	2163.2875
2613.66449	2161.3875
2616.33175	2160.4875
2618.99734	2159.4875
2621.66128	2159.6875
2624.32355	2147.4875
2626.98416	2154.3875
2629.64311	2141.6875
2632.30041	2137.4875
2634.95605	2149.1875
2637.61004	2127.5875
2640.26238	2119.3875
2642.91306	2120.8875
2645.56209	2121.9875
2648.20948	2122.7875
2650.85521	2116.5875
2653.4993	2117.2875
2656.14175	2118.5875
2658.78255	2113.3875
2661.42171	2115.7875
2664.05923	2111.8875
2666.6951	2107.3875
2669.32934	2110.2875
2671.96194	2121.8875
2674.59291	2115.0875
2677.22224	2125.1875
2679.84993	2117.7875
2682.476	2111.6875
2685.10043	2120.8875
2687.72324	2118.4875
2690.34441	2122.7875
2692.96396	2109.6875
2695.58188	2113.2875
2698.19818	2121.6875
2700.81285	2127.2875
2703.4259	2143.5875
2706.03733	2180.3875
2708.64714	2149.7875
2711.25533	2134.0875
2713.86191	2115.6875
2716.46687	2124.5875
2719.07021	2124.0875
2721.67194	2131.4875
2724.27206	2111.9875
2726.87057	2126.1875
2729.46747	2114.8875
2732.06276	2109.9875
2734.65644	2109.6875
2737.24852	2104.1875
2739.83899	2111.8875
2742.42786	2108.3875
2745.01513	2094.8875
2747.60079	2093.9875
2750.18486	2086.8875
2752.76733	2092.3875
2755.3482	2082.8875
2757.92747	2083.9875
2760.50515	2080.5875
2763.08123	2075.3875
2765.65573	2075.4875
2768.22863	2070.8875
2770.79994	2072.7875
2773.36967	2067.0875
2775.9378	2057.5875
2778.50435	2064.8875
2781.06932	2061.7875
2783.6327	2064.7875
2786.1945	2056.7875
2788.75471	2047.7875
2791.31335	2052.7875
2793.87041	2037.6875
2796.42589	2035.2875
2798.97979	2030.8875
2801.53212	2031.4875
2804.08288	2032.9875
2806.63206	2032.3875
2809.17967	2021.1875
2811.72571	2030.6875
2814.27018	2032.4875
2816.81308	2023.3875
2819.35442	2021.1875
2821.89419	2016.3875
2824.43239	2013.7875
2826.96904	2022.9875
2829.50412	2019.7875
2832.03763	2016.1875
2834.56959	2009.9875
2837.1	2014.3875
2839.62884	2012.0875
2842.15613	2020.5875
2844.68186	2015.1875
2847.20604	2032.2875
2849.72867	2034.0875
2852.24974	2038.2875
2854.76927	2037.9875
2857.28724	2051.0875
2859.80367	2043.3875
2862.31855	2034.6875
2864.83189	2030.6875
2867.34368	2027.4875
2869.85393	2025.9875
2872.36264	2013.6875
2874.8698	2007.6875
2877.37543	2009.1875
2879.87952	2025.2875
2882.38207	2016.7875
2884.88308	2008.3875
2887.38256	2006.5875
2889.88051	2011.7875
2892.37692	2009.7875
2894.8718	2004.5875
2897.36515	2013.1875
2899.85698	2015.6875
2902.34727	2006.7875
2904.83604	2016.7875
2907.32328	2011.0875
2909.809	2017.5875
2912.29319	2023.1875
2914.77587	2019.6875
2917.25702	2006.1875
2919.73665	2008.9875
2922.21476	2012.2875
2924.69136	2018.0875
2927.16644	2011.9875
2929.64	2007.2875
2932.11205	1997.7875
2934.58258	2004.1875
2937.05161	1997.9875
2939.51912	2003.8875
2941.98513	1992.4875
2944.44962	1989.8875
2946.91261	1987.6875
2949.37409	1991.1875
2951.83407	1980.3875
2954.29254	1979.0875
2956.74951	1973.3875
2959.20498	1972.8875
2961.65895	1972.0875
2964.11142	1957.8875
2966.56239	1958.3875
2969.01186	1950.3875
2971.45984	1945.2875
2973.90632	1931.6875
2976.35131	1935.9875
2978.7948	1930.9875
2981.23681	1935.7875
2983.67732	1921.4875
2986.11635	1922.8875
2988.55388	1925.4875
2990.98993	1921.5875
2993.4245	1917.2875
2995.85758	1916.5875
2998.28917	1905.8875
3000.71928	1918.6875
3003.14791	1907.6875
3005.57506	1909.8875
3008.00073	1909.7875
3010.42493	1900.9875
3012.84764	1915.2875
3015.26888	1900.0875
3017.68865	1896.3875
3020.10694	1903.9875
3022.52376	1886.1875
3024.9391	1898.5875
3027.35298	1893.3875
3029.76539	1890.9875
3032.17632	1890.1875
3034.5858	1890.6875
3036.9938	1886.0875
3039.40034	1887.8875
3041.80542	1880.6875
3044.20903	1882.5875
3046.61118	1884.3875
3049.01187	1882.7875
3051.4111	1882.0875
3053.80888	1872.1875
3056.20519	1864.1875
3058.60005	1877.5875
3060.99345	1874.6875
3063.3854	1866.0875
3065.7759	1865.8875
3068.16494	1869.8875
3070.55254	1870.9875
3072.93868	1868.8875
3075.32338	1861.0875
3077.70662	1855.8875
3080.08842	1859.1875
3082.46878	1849.9875
3084.84769	1858.8875
3087.22515	1874.5875
3089.60118	1867.0875
3091.97576	1862.7875
3094.3489	1867.9875
3096.72061	1864.2875
3099.09087	1864.1875
3101.4597	1875.8875
3103.82709	1884.8875
3106.19305	1868.9875
3108.55757	1875.8875
3110.92066	1876.2875
3113.28232	1874.7875
3115.64255	1881.8875
3118.00134	1879.7875
3120.35871	1876.6875
3122.71466	1877.7875
3125.06917	1874.0875
3127.42226	1885.1875
3129.77393	1885.6875
3132.12417	1876.9875
3134.47299	1885.2875
3136.82039	1894.4875
3139.16636	1900.1875
3141.51092	1902.6875
3143.85406	1916.4875
3146.19579	1914.5875
3148.53609	1912.7875
3150.87499	1923.1875
3153.21246	1923.6875
3155.54853	1936.6875
3157.88318	1940.1875
3160.21642	1941.8875
3162.54826	1945.4875
3164.87868	1958.7875
3167.2077	1949.9875
3169.5353	1948.2875
3171.86151	1971.1875
3174.18631	1956.2875
3176.5097	1968.7875
3178.83169	1959.9875
3181.15228	1970.2875
3183.47147	1962.8875
3185.78926	1972.2875
3188.10565	1967.0875
3190.42065	1975.5875
3192.73424	1978.4875
3195.04645	1981.8875
3197.35725	1984.5875
3199.66667	1995.0875
3201.97469	1998.9875
3204.28132	2004.5875
3206.58656	2003.1875
3208.8904	2003.8875
3211.19287	2009.8875
3213.49394	2019.3875
3215.79363	2022.6875
3218.09193	2030.1875
3220.38884	2043.7875
3222.68438	2047.3875
3224.97853	2033.9875
3227.2713	2036.0875
3229.56269	2033.7875
3231.8527	2038.7875
3234.14133	2023.7875
3236.42858	2020.7875
3238.71446	2022.4875
3240.99896	2011.6875
3243.28209	2021.0875
3245.56384	2019.8875
3247.84423	2035.5875
3250.12324	2014.3875
3252.40088	2017.6875
3254.67715	2017.2875
3256.95205	2022.4875
3259.22558	2013.7875
3261.49775	2006.1875
3263.76855	2005.1875
3266.03799	2017.1875
3268.30606	1991.4875
3270.57277	2004.2875
3272.83812	1994.4875
3275.10211	1985.5875
3277.36474	1989.5875
3279.62601	1995.9875
3281.88593	1992.8875
3284.14448	1989.1875
3286.40168	1993.7875
3288.65753	1985.6875
3290.91202	1995.8875
3293.16516	1978.9875
3295.41695	1977.2875
3297.66738	1971.9875
3299.91647	1942.7875
3302.16421	1943.5875
3304.4106	1938.0875
3306.65564	1927.1875
3308.89933	1925.0875
3311.14169	1919.8875
3313.38269	1905.4875
3315.62236	1887.3875
3317.86068	1886.5875
3320.09766	1860.0875
3322.3333	1844.6875
3324.5676	1850.5875
3326.80056	1831.9875
3329.03219	1824.1875
3331.26248	-0.4125
3333.49143	0.1875
3335.71905	1.1875
