Data from AgNPs_FTO_APTES_UA_0um_CRN_0.1mM_R6G_10uM_NaF_0.1M_Addition_RamanShift__32__10-48-38-931.txt Node

Date: Tue Dec 21 10:48:38 GMT 2021
User: TCL
Spectrometer: QEP01345
Trigger mode: 4
Integration Time (sec): 7.000000E0
Scans to average: 10
Electric dark correction enabled: true
Nonlinearity correction enabled: false
Boxcar width: 0
XAxis mode: Raman Shifts
Number of Pixels in Spectrum: 1044
>>>>>Begin Spectral Data<<<<<
46.04893	-0.7625
50.45542	-1.3625
54.85868	-0.0625
59.25871	0.5375
63.6555	30.1375
68.04907	34.5375
72.43941	40.1375
76.82654	36.8375
81.21044	45.0375
85.59113	42.9375
89.96862	43.4375
94.34289	44.2375
98.71396	46.8375
103.08183	46.3375
107.4465	50.0375
111.80798	52.2375
116.16626	50.0375
120.52136	49.5375
124.87327	52.5375
129.222	52.4375
133.56755	56.0375
137.90993	64.2375
142.24913	61.3375
146.58517	68.8375
150.91804	76.2375
155.24774	86.6375
159.57429	106.4375
163.89768	136.1375
168.21792	171.6375
172.53501	228.0375
176.84895	318.3375
181.15975	433.8375
185.46741	606.2375
189.77193	842.2375
194.07331	1123.8375
198.37157	1435.1375
202.6667	1773.3375
206.9587	2117.8375
211.24758	2454.2375
215.53334	2784.7375
219.81599	3132.8375
224.09553	3518.5375
228.37195	3948.6375
232.64527	4406.0375
236.91549	4872.3375
241.18261	5375.3375
245.44663	5812.0375
249.70755	6176.7375
253.96539	6519.1375
258.22014	6778.9375
262.4718	7029.1375
266.72039	7168.1375
270.96589	7238.4375
275.20832	7193.0375
279.44768	7106.2375
283.68397	6968.8375
287.91719	6816.5375
292.14735	6730.7375
296.37445	6709.7375
300.59849	6732.4375
304.81948	6841.0375
309.03742	6938.1375
313.25231	6980.9375
317.46415	6961.7375
321.67296	6917.6375
325.87872	6869.2375
330.08145	6888.5375
334.28114	6935.5375
338.47781	6988.4375
342.67145	7045.7375
346.86207	7089.2375
351.04966	7170.1375
355.23424	7292.6375
359.4158	7415.7375
363.59435	7482.2375
367.76989	7551.8375
371.94243	7582.4375
376.11196	7626.4375
380.27849	7666.8375
384.44203	7695.5375
388.60257	7671.7375
392.76012	7652.6375
396.91468	7669.3375
401.06626	7759.0375
405.21485	7847.6375
409.36047	7860.1375
413.50311	7752.3375
417.64277	7666.8375
421.77947	7666.6375
425.9132	7712.8375
430.04396	7822.6375
434.17176	8006.5375
438.2966	8263.8375
442.41849	8719.0375
446.53742	9344.8375
450.6534	9964.7375
454.76644	10294.7375
458.87653	10123.6375
462.98368	9631.2375
467.08789	9068.9375
471.18916	8603.4375
475.2875	8232.5375
479.38291	7925.4375
483.4754	7729.4375
487.56496	7616.2375
491.6516	7561.5375
495.73531	7551.9375
499.81612	7567.4375
503.89401	7611.3375
507.96899	7629.8375
512.04106	7612.4375
516.11023	7614.4375
520.1765	7670.5375
524.23987	7789.0375
528.30034	7885.9375
532.35792	7921.5375
536.41261	7819.3375
540.46441	7609.3375
544.51333	7517.8375
548.55936	7529.6375
552.60252	7718.2375
556.64279	7989.5375
560.6802	8187.4375
564.71473	8090.1375
568.7464	7887.2375
572.7752	7859.9375
576.80114	7863.2375
580.82422	7943.5375
584.84444	8292.2375
588.86181	9152.4375
592.87633	10533.0375
596.888	11484.6375
600.89682	10882.0375
604.9028	10161.8375
608.90594	10317.8375
612.90624	11019.9375
616.90371	10641.9375
620.89834	9037.8375
624.89015	8208.2375
628.87913	8059.6375
632.86528	7966.6375
636.84862	7795.1375
640.82913	7584.6375
644.80683	7441.3375
648.78172	7359.1375
652.75379	7411.9375
656.72306	7589.4375
660.68952	7806.4375
664.65319	7762.7375
668.61405	7600.8375
672.57211	7586.9375
676.52738	7620.1375
680.47986	7563.3375
684.42955	7474.1375
688.37646	7427.7375
692.32058	7463.9375
696.26192	7576.8375
700.20048	7724.9375
704.13626	7794.9375
708.06928	7702.2375
711.99952	7582.0375
715.927	7570.4375
719.85171	7598.5375
723.77365	7582.2375
727.69284	7532.5375
731.60928	7522.4375
735.52295	7560.2375
739.43388	7630.8375
743.34206	7655.8375
747.24749	7645.4375
751.15017	7658.1375
755.05012	7710.2375
758.94733	7859.8375
762.8418	8174.2375
766.73354	8709.2375
770.62254	9347.4375
774.50882	9701.8375
778.39237	9513.2375
782.27321	8877.0375
786.15132	8264.0375
790.02671	7898.9375
793.89938	7742.9375
797.76935	7661.2375
801.6366	7633.9375
805.50115	7593.5375
809.36299	7564.5375
813.22213	7559.1375
817.07857	7549.3375
820.93231	7541.4375
824.78336	7536.6375
828.63172	7536.4375
832.47738	7560.6375
836.32036	7610.1375
840.16066	7674.1375
843.99827	7714.5375
847.8332	7702.4375
851.66546	7663.9375
855.49504	7628.3375
859.32195	7620.0375
863.1462	7585.7375
866.96777	7549.0375
870.78668	7504.6375
874.60293	7473.2375
878.41652	7478.8375
882.22745	7510.5375
886.03573	7529.1375
889.84136	7534.8375
893.64433	7486.1375
897.44466	7449.5375
901.24235	7443.8375
905.0374	7388.4375
908.8298	7378.9375
912.61957	7363.2375
916.40671	7421.9375
920.19121	7531.4375
923.97308	7632.6375
927.75233	7742.8375
931.52895	7764.7375
935.30295	7682.1375
939.07433	7546.7375
942.84309	7378.5375
946.60924	7303.6375
950.37278	7274.9375
954.13371	7222.0375
957.89203	7158.7375
961.64774	7115.1375
965.40086	7087.9375
969.15137	7067.5375
972.89929	7078.9375
976.64461	7057.9375
980.38733	7097.8375
984.12747	7175.1375
987.86502	7261.7375
991.59999	7369.5375
995.33237	7552.7375
999.06217	7868.6375
1002.78939	8183.7375
1006.51404	8272.2375
1010.23611	8270.5375
1013.95561	8366.2375
1017.67255	8407.7375
1021.38692	8310.2375
1025.09872	8128.3375
1028.80796	8155.7375
1032.51465	8427.6375
1036.21877	8710.6375
1039.92035	8765.4375
1043.61937	8648.5375
1047.31584	8391.5375
1051.00976	8079.7375
1054.70114	7870.0375
1058.38998	7784.3375
1062.07627	7714.9375
1065.76003	7665.0375
1069.44126	7625.3375
1073.11995	7661.9375
1076.79611	7771.8375
1080.46974	7878.5375
1084.14085	7959.1375
1087.80943	8067.2375
1091.47549	8102.1375
1095.13903	8037.1375
1098.80005	7904.2375
1102.45857	7764.0375
1106.11456	7751.2375
1109.76805	7818.0375
1113.41903	7896.0375
1117.06751	7973.5375
1120.71348	8063.3375
1124.35696	8140.5375
1127.99793	8229.6375
1131.63641	8240.0375
1135.2724	8135.2375
1138.90589	7983.4375
1142.5369	7904.0375
1146.16542	7930.5375
1149.79145	7970.5375
1153.415	7971.7375
1157.03607	7968.4375
1160.65467	8055.4375
1164.27079	8235.2375
1167.88443	8618.4375
1171.49561	9269.6375
1175.10432	10178.9375
1178.71056	11347.8375
1182.31434	12471.1375
1185.91565	12971.6375
1189.51451	12587.1375
1193.11091	11796.9375
1196.70485	11062.3375
1200.29634	10390.4375
1203.88538	9782.6375
1207.47197	9315.7375
1211.05612	9033.2375
1214.63782	8972.4375
1218.21708	9196.1375
1221.79391	9546.6375
1225.36829	9767.3375
1228.94024	9632.4375
1232.50976	9203.4375
1236.07685	8851.5375
1239.6415	8645.0375
1243.20374	8648.6375
1246.76355	8692.4375
1250.32093	8827.2375
1253.8759	9063.9375
1257.42845	9375.4375
1260.97859	9702.2375
1264.52631	10011.1375
1268.07163	10235.2375
1271.61453	10431.4375
1275.15503	10590.7375
1278.69312	10804.3375
1282.22882	10998.7375
1285.76211	11312.6375
1289.29301	11695.0375
1292.82151	12142.2375
1296.34761	12721.5375
1299.87133	13438.9375
1303.39266	14344.4375
1306.9116	15524.3375
1310.42815	17016.7375
1313.94233	18185.1375
1317.45412	18388.0375
1320.96354	17395.0375
1324.47058	15906.9375
1327.97525	14387.3375
1331.47754	13416.6375
1334.97747	12958.8375
1338.47502	12947.6375
1341.97022	12910.3375
1345.46305	12754.9375
1348.95352	12905.5375
1352.44163	13698.8375
1355.92738	15145.1375
1359.41078	16799.4375
1362.89183	18074.1375
1366.37053	18109.8375
1369.84688	16419.7375
1373.32088	13926.8375
1376.79254	12183.5375
1380.26186	11602.8375
1383.72883	11528.6375
1387.19347	11340.8375
1390.65578	10907.3375
1394.11575	10627.6375
1397.57339	10660.3375
1401.0287	10854.3375
1404.48168	11034.5375
1407.93234	11175.0375
1411.38068	11264.8375
1414.82669	11217.7375
1418.27039	10970.5375
1421.71177	10628.6375
1425.15083	10324.4375
1428.58758	10270.5375
1432.02203	10490.4375
1435.45416	10831.6375
1438.88399	11123.2375
1442.31151	11241.1375
1445.73673	11296.0375
1449.15965	11272.5375
1452.58027	11096.5375
1455.9986	10716.0375
1459.41463	10414.2375
1462.82837	10383.1375
1466.23982	10671.2375
1469.64898	11118.5375
1473.05586	11506.6375
1476.46045	11739.9375
1479.86276	11996.7375
1483.26279	12089.4375
1486.66054	12051.1375
1490.05602	12035.0375
1493.44922	11947.6375
1496.84016	11666.3375
1500.22882	11319.8375
1503.61521	11244.5375
1506.99934	11380.9375
1510.38121	11686.2375
1513.76081	11867.3375
1517.13816	11761.9375
1520.51324	11317.1375
1523.88607	10863.4375
1527.25665	10660.6375
1530.62498	10650.8375
1533.99105	10659.6375
1537.35488	10643.5375
1540.71647	10607.0375
1544.07581	10477.3375
1547.4329	10284.3375
1550.78776	10053.1375
1554.14038	9747.5375
1557.49077	9511.4375
1560.83892	9279.2375
1564.18484	9209.7375
1567.52853	9234.6375
1570.86999	9415.0375
1574.20922	9553.2375
1577.54624	9622.5375
1580.88103	9566.2375
1584.2136	9507.6375
1587.54395	9662.6375
1590.87208	10215.4375
1594.19801	11277.6375
1597.52172	12685.4375
1600.84321	13920.6375
1604.16251	14054.4375
1607.47959	12860.7375
1610.79447	11158.4375
1614.10715	9627.5375
1617.41763	8691.3375
1620.7259	8266.4375
1624.03199	8104.9375
1627.33587	8135.0375
1630.63757	8331.0375
1633.93707	8769.1375
1637.23439	9547.1375
1640.52951	10769.9375
1643.82246	12416.1375
1647.11321	13845.2375
1650.40179	14031.1375
1653.68819	12717.5375
1656.97241	10732.9375
1660.25446	9125.1375
1663.53433	8103.2375
1666.81203	7532.8375
1670.08756	7202.8375
1673.36092	6997.3375
1676.63211	6838.7375
1679.90115	6752.4375
1683.16801	6670.7375
1686.43272	6612.6375
1689.69527	6547.6375
1692.95567	6544.0375
1696.2139	6560.2375
1699.46999	6543.2375
1702.72392	6505.6375
1705.97571	6509.4375
1709.22535	6468.9375
1712.47284	6483.2375
1715.71819	6476.2375
1718.96139	6464.7375
1722.20246	6436.6375
1725.44139	6425.1375
1728.67818	6387.6375
1731.91284	6372.6375
1735.14537	6344.7375
1738.37576	6326.2375
1741.60403	6297.8375
1744.83017	6267.5375
1748.05418	6267.4375
1751.27607	6254.1375
1754.49584	6256.1375
1757.71349	6263.5375
1760.92903	6260.5375
1764.14244	6229.0375
1767.35375	6236.9375
1770.56294	6216.2375
1773.77002	6176.7375
1776.97499	6176.4375
1780.17785	6160.1375
1783.37861	6148.7375
1786.57727	6137.1375
1789.77382	6112.0375
1792.96828	6117.7375
1796.16064	6088.0375
1799.3509	6078.4375
1802.53907	6058.0375
1805.72514	6051.4375
1808.90913	6055.3375
1812.09102	6044.1375
1815.27083	6017.7375
1818.44856	5996.7375
1821.6242	6008.0375
1824.79776	5986.5375
1827.96924	5962.0375
1831.13864	5970.8375
1834.30597	5962.8375
1837.47122	5938.8375
1840.6344	5950.2375
1843.7955	5937.4375
1846.95454	5935.8375
1850.11151	5909.6375
1853.26642	5912.7375
1856.41926	5938.2375
1859.57004	5930.5375
1862.71876	5924.2375
1865.86542	5917.2375
1869.01003	5905.0375
1872.15258	5901.2375
1875.29308	5911.5375
1878.43152	5889.4375
1881.56792	5882.9375
1884.70227	5894.9375
1887.83457	5887.8375
1890.96482	5899.6375
1894.09304	5888.8375
1897.21921	5881.6375
1900.34335	5872.9375
1903.46544	5877.1375
1906.58551	5873.0375
1909.70353	5876.3375
1912.81953	5882.2375
1915.93349	5855.4375
1919.04543	5850.3375
1922.15534	5842.5375
1925.26322	5829.0375
1928.36908	5819.5375
1931.47292	5816.7375
1934.57473	5789.5375
1937.67453	5767.8375
1940.77232	5766.0375
1943.86808	5746.2375
1946.96184	5745.8375
1950.05358	5718.9375
1953.14331	5705.5375
1956.23103	5693.4375
1959.31675	5662.1375
1962.40046	5651.5375
1965.48217	5649.5375
1968.56188	5629.7375
1971.63959	5620.2375
1974.7153	5596.8375
1977.78901	5577.5375
1980.86073	5565.3375
1983.93046	5538.3375
1986.99819	5546.2375
1990.06394	5526.6375
1993.1277	5512.2375
1996.18947	5471.9375
1999.24925	5476.3375
2002.30706	5468.1375
2005.36288	5438.6375
2008.41672	5445.9375
2011.46859	5396.9375
2014.51848	5393.1375
2017.56639	5379.3375
2020.61233	5373.8375
2023.6563	5364.1375
2026.6983	5359.4375
2029.73833	5349.3375
2032.7764	5325.2375
2035.8125	5322.3375
2038.84664	5316.3375
2041.87881	5334.3375
2044.90903	5316.1375
2047.93729	5298.1375
2050.96359	5307.2375
2053.98794	5289.5375
2057.01034	5269.1375
2060.03078	5287.2375
2063.04927	5271.9375
2066.06582	5268.9375
2069.08042	5282.8375
2072.09307	5249.1375
2075.10378	5239.8375
2078.11255	5249.9375
2081.11938	5248.0375
2084.12426	5244.9375
2087.12722	5255.9375
2090.12824	5249.2375
2093.12732	5262.4375
2096.12447	5268.5375
2099.11969	5253.2375
2102.11299	5245.4375
2105.10435	5262.6375
2108.09379	5273.0375
2111.08131	5268.3375
2114.0669	5264.6375
2117.05057	5278.8375
2120.03233	5264.0375
2123.01216	5247.7375
2125.99008	5265.4375
2128.96609	5272.1375
2131.94018	5251.2375
2134.91236	5263.7375
2137.88263	5278.9375
2140.851	5279.7375
2143.81746	5291.4375
2146.78201	5291.3375
2149.74466	5284.2375
2152.7054	5287.8375
2155.66425	5285.6375
2158.6212	5270.9375
2161.57625	5270.5375
2164.52941	5268.6375
2167.48067	5269.4375
2170.43004	5268.0375
2173.37752	5266.6375
2176.32311	5274.6375
2179.26681	5283.5375
2182.20863	5279.5375
2185.14856	5275.2375
2188.08661	5275.3375
2191.02278	5269.5375
2193.95707	5283.8375
2196.88948	5273.2375
2199.82001	5282.7375
2202.74867	5281.8375
2205.67545	5282.1375
2208.60037	5272.1375
2211.52341	5266.9375
2214.44458	5262.4375
2217.36388	5237.2375
2220.28132	5242.2375
2223.1969	5252.0375
2226.11061	5210.3375
2229.02246	5205.0375
2231.93245	5218.6375
2234.84058	5195.2375
2237.74686	5185.2375
2240.65128	5163.2375
2243.55385	5174.1375
2246.45456	5166.1375
2249.35343	5166.0375
2252.25044	5173.1375
2255.14561	5127.3375
2258.03893	5147.7375
2260.93041	5144.4375
2263.82004	5101.0375
2266.70783	5090.9375
2269.59378	5070.9375
2272.4779	5087.7375
2275.36017	5087.2375
2278.24061	5045.3375
2281.11922	5038.9375
2283.996	5034.0375
2286.87094	5038.9375
2289.74405	5020.5375
2292.61534	5018.2375
2295.4848	5029.7375
2298.35243	5036.5375
2301.21824	5026.3375
2304.08223	5021.8375
2306.94439	5013.6375
2309.80474	5039.1375
2312.66327	5026.9375
2315.51999	5029.3375
2318.37489	5044.1375
2321.22797	5023.9375
2324.07925	5014.9375
2326.92871	5008.2375
2329.77637	5003.4375
2332.62222	5007.0375
2335.46626	5007.7375
2338.3085	4991.5375
2341.14893	4992.3375
2343.98756	5005.0375
2346.8244	4990.4375
2349.65943	4986.0375
2352.49267	4995.7375
2355.32411	4969.8375
2358.15376	4973.7375
2360.98161	4970.2375
2363.80768	4970.8375
2366.63195	4968.6375
2369.45444	4943.9375
2372.27514	4933.1375
2375.09405	4934.9375
2377.91118	4933.1375
2380.72652	4914.0375
2383.54009	4903.2375
2386.35187	4904.0375
2389.16188	4856.7375
2391.97011	4872.3375
2394.77657	4859.3375
2397.58125	4854.5375
2400.38416	4869.0375
2403.18529	4866.7375
2405.98466	4862.8375
2408.78226	4837.1375
2411.57809	4831.9375
2414.37216	4818.8375
2417.16446	4805.5375
2419.955	4798.6375
2422.74378	4790.6375
2425.5308	4799.4375
2428.31606	4791.1375
2431.09956	4768.6375
2433.88131	4793.6375
2436.6613	4774.5375
2439.43954	4778.6375
2442.21603	4769.2375
2444.99077	4781.4375
2447.76377	4760.7375
2450.53501	4772.6375
2453.30451	4753.1375
2456.07226	4745.7375
2458.83827	4754.5375
2461.60254	4749.8375
2464.36507	4766.9375
2467.12586	4749.7375
2469.88492	4756.6375
2472.64224	4752.3375
2475.39782	4755.9375
2478.15167	4778.5375
2480.90379	4756.7375
2483.65417	4764.4375
2486.40283	4757.8375
2489.14976	4764.5375
2491.89497	4770.4375
2494.63845	4779.3375
2497.3802	4773.2375
2500.12024	4780.0375
2502.85855	4768.4375
2505.59514	4754.7375
2508.33002	4743.6375
2511.06318	4736.7375
2513.79462	4725.3375
2516.52435	4722.0375
2519.25237	4720.1375
2521.97867	4715.1375
2524.70327	4708.0375
2527.42616	4714.3375
2530.14734	4691.7375
2532.86681	4694.7375
2535.58458	4685.3375
2538.30065	4684.0375
2541.01501	4699.5375
2543.72768	4676.8375
2546.43864	4692.2375
2549.14791	4664.1375
2551.85548	4670.0375
2554.56136	4661.0375
2557.26554	4659.8375
2559.96803	4660.7375
2562.66883	4658.3375
2565.36794	4650.4375
2568.06536	4655.3375
2570.7611	4660.9375
2573.45514	4650.8375
2576.14751	4645.7375
2578.83819	4649.2375
2581.52719	4648.6375
2584.21451	4643.4375
2586.90015	4642.4375
2589.58411	4638.5375
2592.2664	4623.3375
2594.94701	4610.4375
2597.62594	4605.1375
2600.30321	4598.4375
2602.9788	4616.6375
2605.65273	4588.4375
2608.32498	4593.1375
2610.99557	4584.2375
2613.66449	4595.0375
2616.33175	4581.9375
2618.99734	4572.7375
2621.66128	4576.2375
2624.32355	4561.8375
2626.98416	4584.3375
2629.64311	4581.6375
2632.30041	4579.9375
2634.95605	4576.4375
2637.61004	4561.9375
2640.26238	4556.2375
2642.91306	4564.8375
2645.56209	4551.0375
2648.20948	4540.7375
2650.85521	4541.5375
2653.4993	4536.5375
2656.14175	4526.1375
2658.78255	4538.6375
2661.42171	4547.4375
2664.05923	4560.4375
2666.6951	4552.9375
2669.32934	4555.0375
2671.96194	4559.7375
2674.59291	4550.8375
2677.22224	4554.6375
2679.84993	4561.9375
2682.476	4532.0375
2685.10043	4530.6375
2687.72324	4525.9375
2690.34441	4529.6375
2692.96396	4526.6375
2695.58188	4536.8375
2698.19818	4549.6375
2700.81285	4523.9375
2703.4259	4569.2375
2706.03733	4615.5375
2708.64714	4581.4375
2711.25533	4585.2375
2713.86191	4586.1375
2716.46687	4590.3375
2719.07021	4596.7375
2721.67194	4581.3375
2724.27206	4558.6375
2726.87057	4577.5375
2729.46747	4578.5375
2732.06276	4588.9375
2734.65644	4587.5375
2737.24852	4592.1375
2739.83899	4570.3375
2742.42786	4567.1375
2745.01513	4561.9375
2747.60079	4555.9375
2750.18486	4551.4375
2752.76733	4549.1375
2755.3482	4558.5375
2757.92747	4558.9375
2760.50515	4546.7375
2763.08123	4545.0375
2765.65573	4536.5375
2768.22863	4563.9375
2770.79994	4552.8375
2773.36967	4551.3375
2775.9378	4547.1375
2778.50435	4551.6375
2781.06932	4532.5375
2783.6327	4554.6375
2786.1945	4542.5375
2788.75471	4543.6375
2791.31335	4536.0375
2793.87041	4539.7375
2796.42589	4518.7375
2798.97979	4534.1375
2801.53212	4537.8375
2804.08288	4517.7375
2806.63206	4513.8375
2809.17967	4515.0375
2811.72571	4521.6375
2814.27018	4527.4375
2816.81308	4520.3375
2819.35442	4519.7375
2821.89419	4537.5375
2824.43239	4538.6375
2826.96904	4533.4375
2829.50412	4559.7375
2832.03763	4521.5375
2834.56959	4551.1375
2837.1	4551.8375
2839.62884	4576.6375
2842.15613	4614.1375
2844.68186	4660.4375
2847.20604	4711.6375
2849.72867	4743.1375
2852.24974	4731.1375
2854.76927	4749.5375
2857.28724	4756.4375
2859.80367	4730.1375
2862.31855	4719.0375
2864.83189	4716.1375
2867.34368	4709.5375
2869.85393	4704.2375
2872.36264	4687.7375
2874.8698	4686.2375
2877.37543	4689.2375
2879.87952	4688.7375
2882.38207	4720.1375
2884.88308	4699.8375
2887.38256	4717.1375
2889.88051	4716.0375
2892.37692	4738.7375
2894.8718	4739.7375
2897.36515	4767.8375
2899.85698	4755.4375
2902.34727	4768.9375
2904.83604	4784.6375
2907.32328	4790.1375
2909.809	4784.2375
2912.29319	4798.0375
2914.77587	4811.7375
2917.25702	4804.6375
2919.73665	4798.8375
2922.21476	4787.6375
2924.69136	4783.8375
2927.16644	4803.2375
2929.64	4793.7375
2932.11205	4762.8375
2934.58258	4733.3375
2937.05161	4736.9375
2939.51912	4710.5375
2941.98513	4698.0375
2944.44962	4655.2375
2946.91261	4602.9375
2949.37409	4595.7375
2951.83407	4553.8375
2954.29254	4540.3375
2956.74951	4533.6375
2959.20498	4521.8375
2961.65895	4516.5375
2964.11142	4477.1375
2966.56239	4469.2375
2969.01186	4442.0375
2971.45984	4437.0375
2973.90632	4410.8375
2976.35131	4408.8375
2978.7948	4378.7375
2981.23681	4368.7375
2983.67732	4358.7375
2986.11635	4341.3375
2988.55388	4322.9375
2990.98993	4312.9375
2993.4245	4305.2375
2995.85758	4303.3375
2998.28917	4293.0375
3000.71928	4290.4375
3003.14791	4278.9375
3005.57506	4286.8375
3008.00073	4260.4375
3010.42493	4266.1375
3012.84764	4248.2375
3015.26888	4258.0375
3017.68865	4260.9375
3020.10694	4248.8375
3022.52376	4241.4375
3024.9391	4236.5375
3027.35298	4227.7375
3029.76539	4218.9375
3032.17632	4236.1375
3034.5858	4207.0375
3036.9938	4211.5375
3039.40034	4191.5375
3041.80542	4191.3375
3044.20903	4184.9375
3046.61118	4193.5375
3049.01187	4200.9375
3051.4111	4205.0375
3053.80888	4203.7375
3056.20519	4204.8375
3058.60005	4198.0375
3060.99345	4203.1375
3063.3854	4210.1375
3065.7759	4188.9375
3068.16494	4174.1375
3070.55254	4180.6375
3072.93868	4174.9375
3075.32338	4156.1375
3077.70662	4156.9375
3080.08842	4133.9375
3082.46878	4134.5375
3084.84769	4122.9375
3087.22515	4129.2375
3089.60118	4121.0375
3091.97576	4116.3375
3094.3489	4118.1375
3096.72061	4115.0375
3099.09087	4110.4375
3101.4597	4118.0375
3103.82709	4105.4375
3106.19305	4106.1375
3108.55757	4098.1375
3110.92066	4098.9375
3113.28232	4087.6375
3115.64255	4100.7375
3118.00134	4078.8375
3120.35871	4079.0375
3122.71466	4071.1375
3125.06917	4064.0375
3127.42226	4073.7375
3129.77393	4066.7375
3132.12417	4082.7375
3134.47299	4072.2375
3136.82039	4073.5375
3139.16636	4079.5375
3141.51092	4086.4375
3143.85406	4093.5375
3146.19579	4109.4375
3148.53609	4096.9375
3150.87499	4103.5375
3153.21246	4101.4375
3155.54853	4116.8375
3157.88318	4111.8375
3160.21642	4111.8375
3162.54826	4108.4375
3164.87868	4102.7375
3167.2077	4104.9375
3169.5353	4118.4375
3171.86151	4118.8375
3174.18631	4108.3375
3176.5097	4121.4375
3178.83169	4100.9375
3181.15228	4120.0375
3183.47147	4119.7375
3185.78926	4105.3375
3188.10565	4099.5375
3190.42065	4114.0375
3192.73424	4118.1375
3195.04645	4122.6375
3197.35725	4124.6375
3199.66667	4125.9375
3201.97469	4139.9375
3204.28132	4128.6375
3206.58656	4133.1375
3208.8904	4131.7375
3211.19287	4137.2375
3213.49394	4134.2375
3215.79363	4129.4375
3218.09193	4137.4375
3220.38884	4146.3375
3222.68438	4164.6375
3224.97853	4160.5375
3227.2713	4163.3375
3229.56269	4154.3375
3231.8527	4161.0375
3234.14133	4142.2375
3236.42858	4140.2375
3238.71446	4132.5375
3240.99896	4125.5375
3243.28209	4145.6375
3245.56384	4129.5375
3247.84423	4143.0375
3250.12324	4132.7375
3252.40088	4145.1375
3254.67715	4136.3375
3256.95205	4125.0375
3259.22558	4128.0375
3261.49775	4123.4375
3263.76855	4109.2375
3266.03799	4104.7375
3268.30606	4103.6375
3270.57277	4100.9375
3272.83812	4097.3375
3275.10211	4095.2375
3277.36474	4102.0375
3279.62601	4092.6375
3281.88593	4098.2375
3284.14448	4126.1375
3286.40168	4098.5375
3288.65753	4107.5375
3290.91202	4093.4375
3293.16516	4078.1375
3295.41695	4074.8375
3297.66738	4052.7375
3299.91647	4028.0375
3302.16421	4007.0375
3304.4106	3997.0375
3306.65564	3976.2375
3308.89933	3964.0375
3311.14169	3947.3375
3313.38269	3920.5375
3315.62236	3906.5375
3317.86068	3867.8375
3320.09766	3845.3375
3322.3333	3809.5375
3324.5676	3836.5375
3326.80056	3781.2375
3329.03219	3752.4375
3331.26248	1.7375
3333.49143	-0.6625
3335.71905	1.2375
