Data from AgNPs_FTO_APTES_UA_50um_CRN_0.1mM_R6G_10uM_NaF_0.1M_Addition_RamanShift__14__15-19-19-240.txt Node

Date: Tue Dec 21 15:19:19 GMT 2021
User: TCL
Spectrometer: QEP01345
Trigger mode: 4
Integration Time (sec): 7.000000E0
Scans to average: 10
Electric dark correction enabled: true
Nonlinearity correction enabled: false
Boxcar width: 0
XAxis mode: Raman Shifts
Number of Pixels in Spectrum: 1044
>>>>>Begin Spectral Data<<<<<
46.04893	0.3375
50.45542	-0.6625
54.85868	-0.4625
59.25871	1.5375
63.6555	35.8375
68.04907	41.2375
72.43941	43.0375
76.82654	45.4375
81.21044	50.2375
85.59113	48.2375
89.96862	51.0375
94.34289	51.5375
98.71396	53.4375
103.08183	54.5375
107.4465	59.6375
111.80798	58.7375
116.16626	60.5375
120.52136	57.2375
124.87327	59.6375
129.222	62.2375
133.56755	65.7375
137.90993	68.4375
142.24913	72.9375
146.58517	80.9375
150.91804	92.8375
155.24774	109.0375
159.57429	127.7375
163.89768	161.2375
168.21792	207.1375
172.53501	278.9375
176.84895	382.4375
181.15975	531.9375
185.46741	748.7375
189.77193	1020.5375
194.07331	1387.6375
198.37157	1792.8375
202.6667	2215.4375
206.9587	2657.2375
211.24758	3065.0375
215.53334	3522.3375
219.81599	3966.6375
224.09553	4419.2375
228.37195	4980.7375
232.64527	5560.8375
236.91549	6196.9375
241.18261	6846.0375
245.44663	7414.1375
249.70755	7944.7375
253.96539	8405.5375
258.22014	8754.4375
262.4718	9037.5375
266.72039	9208.2375
270.96589	9285.3375
275.20832	9246.8375
279.44768	9155.5375
283.68397	9062.8375
287.91719	8942.2375
292.14735	8887.0375
296.37445	8818.0375
300.59849	8847.3375
304.81948	8844.8375
309.03742	8816.4375
313.25231	8785.6375
317.46415	8617.3375
321.67296	8394.6375
325.87872	8212.1375
330.08145	8095.4375
334.28114	8070.4375
338.47781	8155.0375
342.67145	8227.7375
346.86207	8346.8375
351.04966	8486.2375
355.23424	8633.4375
359.4158	8764.0375
363.59435	8894.8375
367.76989	8957.0375
371.94243	9019.9375
376.11196	9050.4375
380.27849	9078.8375
384.44203	9115.2375
388.60257	9172.6375
392.76012	9244.9375
396.91468	9331.5375
401.06626	9495.6375
405.21485	9595.1375
409.36047	9591.8375
413.50311	9428.7375
417.64277	9262.2375
421.77947	9184.0375
425.9132	9161.0375
430.04396	9165.2375
434.17176	9210.1375
438.2966	9245.5375
442.41849	9331.4375
446.53742	9420.1375
450.6534	9571.4375
454.76644	9668.8375
458.87653	9729.8375
462.98368	9765.8375
467.08789	9751.5375
471.18916	9723.1375
475.2875	9645.3375
479.38291	9610.6375
483.4754	9545.2375
487.56496	9502.8375
491.6516	9463.0375
495.73531	9408.7375
499.81612	9378.8375
503.89401	9401.6375
507.96899	9441.9375
512.04106	9480.1375
516.11023	9466.6375
520.1765	9423.9375
524.23987	9400.4375
528.30034	9298.2375
532.35792	9243.9375
536.41261	9147.1375
540.46441	9090.7375
544.51333	9093.1375
548.55936	9144.1375
552.60252	9275.6375
556.64279	9385.6375
560.6802	9483.9375
564.71473	9523.4375
568.7464	9577.6375
572.7752	9710.8375
576.80114	9815.5375
580.82422	9972.7375
584.84444	10052.1375
588.86181	10080.6375
592.87633	10069.3375
596.888	10026.2375
600.89682	10068.6375
604.9028	10361.2375
608.90594	11178.0375
612.90624	12193.4375
616.90371	11854.4375
620.89834	10195.5375
624.89015	9385.5375
628.87913	9233.8375
632.86528	9295.0375
636.84862	9391.7375
640.82913	9392.7375
644.80683	9209.3375
648.78172	9064.7375
652.75379	9009.4375
656.72306	9085.0375
660.68952	9240.9375
664.65319	9256.5375
668.61405	9175.5375
672.57211	9158.3375
676.52738	9223.8375
680.47986	9270.2375
684.42955	9236.5375
688.37646	9200.1375
692.32058	9201.9375
696.26192	9197.0375
700.20048	9236.7375
704.13626	9231.8375
708.06928	9238.8375
711.99952	9168.8375
715.927	9092.8375
719.85171	9083.7375
723.77365	9017.5375
727.69284	8979.5375
731.60928	8904.9375
735.52295	8872.1375
739.43388	8845.1375
743.34206	8874.3375
747.24749	8894.8375
751.15017	8941.5375
755.05012	9004.0375
758.94733	9173.0375
762.8418	9554.9375
766.73354	10161.1375
770.62254	10834.0375
774.50882	11130.2375
778.39237	10797.7375
782.27321	10108.4375
786.15132	9485.3375
790.02671	9070.7375
793.89938	8872.2375
797.76935	8769.2375
801.6366	8705.1375
805.50115	8675.3375
809.36299	8674.2375
813.22213	8593.7375
817.07857	8589.7375
820.93231	8577.9375
824.78336	8542.3375
828.63172	8527.0375
832.47738	8519.4375
836.32036	8504.9375
840.16066	8456.5375
843.99827	8454.5375
847.8332	8443.1375
851.66546	8428.7375
855.49504	8407.7375
859.32195	8426.2375
863.1462	8399.0375
866.96777	8371.8375
870.78668	8398.9375
874.60293	8391.0375
878.41652	8392.4375
882.22745	8418.5375
886.03573	8441.0375
889.84136	8451.3375
893.64433	8404.5375
897.44466	8406.5375
901.24235	8395.6375
905.0374	8377.9375
908.8298	8359.9375
912.61957	8350.7375
916.40671	8375.0375
920.19121	8432.1375
923.97308	8439.9375
927.75233	8432.9375
931.52895	8401.2375
935.30295	8328.6375
939.07433	8221.3375
942.84309	8132.6375
946.60924	8063.6375
950.37278	8009.2375
954.13371	8003.1375
957.89203	7967.2375
961.64774	7977.1375
965.40086	7945.8375
969.15137	7928.8375
972.89929	7896.8375
976.64461	7878.8375
980.38733	7857.6375
984.12747	7851.9375
987.86502	7856.1375
991.59999	7883.9375
995.33237	7891.9375
999.06217	7906.1375
1002.78939	7988.3375
1006.51404	8038.7375
1010.23611	8123.6375
1013.95561	8172.1375
1017.67255	8187.5375
1021.38692	8175.0375
1025.09872	8132.7375
1028.80796	8040.0375
1032.51465	8030.4375
1036.21877	8025.1375
1039.92035	8061.6375
1043.61937	8073.5375
1047.31584	8143.9375
1051.00976	8157.8375
1054.70114	8194.9375
1058.38998	8213.8375
1062.07627	8277.0375
1065.76003	8328.8375
1069.44126	8416.8375
1073.11995	8478.3375
1076.79611	8562.5375
1080.46974	8589.3375
1084.14085	8597.0375
1087.80943	8648.4375
1091.47549	8678.9375
1095.13903	8718.6375
1098.80005	8664.0375
1102.45857	8522.8375
1106.11456	8416.5375
1109.76805	8321.3375
1113.41903	8328.7375
1117.06751	8374.5375
1120.71348	8463.6375
1124.35696	8557.6375
1127.99793	8656.4375
1131.63641	8766.2375
1135.2724	8697.5375
1138.90589	8607.1375
1142.5369	8508.5375
1146.16542	8491.2375
1149.79145	8473.0375
1153.415	8477.8375
1157.03607	8506.7375
1160.65467	8598.7375
1164.27079	8788.0375
1167.88443	9003.1375
1171.49561	9356.7375
1175.10432	9833.1375
1178.71056	10451.0375
1182.31434	11010.9375
1185.91565	11297.9375
1189.51451	11340.9375
1193.11091	11171.4375
1196.70485	10839.4375
1200.29634	10484.8375
1203.88538	10193.2375
1207.47197	9861.5375
1211.05612	9598.4375
1214.63782	9381.8375
1218.21708	9226.0375
1221.79391	9070.2375
1225.36829	8973.1375
1228.94024	8939.0375
1232.50976	8909.3375
1236.07685	8879.4375
1239.6415	8885.6375
1243.20374	8920.1375
1246.76355	8944.2375
1250.32093	8976.9375
1253.8759	9065.3375
1257.42845	9228.4375
1260.97859	9370.4375
1264.52631	9559.4375
1268.07163	9727.7375
1271.61453	9856.3375
1275.15503	9970.3375
1278.69312	10093.5375
1282.22882	10198.4375
1285.76211	10363.9375
1289.29301	10544.2375
1292.82151	10771.5375
1296.34761	11069.6375
1299.87133	11401.8375
1303.39266	11806.0375
1306.9116	12287.5375
1310.42815	12789.3375
1313.94233	13040.9375
1317.45412	13006.8375
1320.96354	12831.6375
1324.47058	12616.9375
1327.97525	12384.3375
1331.47754	12225.6375
1334.97747	12194.3375
1338.47502	12228.5375
1341.97022	12359.2375
1345.46305	12552.4375
1348.95352	12781.7375
1352.44163	13035.5375
1355.92738	13276.8375
1359.41078	13750.5375
1362.89183	14314.9375
1366.37053	14209.8375
1369.84688	13252.7375
1373.32088	11981.8375
1376.79254	11081.2375
1380.26186	10579.2375
1383.72883	10354.9375
1387.19347	10196.4375
1390.65578	10018.0375
1394.11575	9874.1375
1397.57339	9749.9375
1401.0287	9663.5375
1404.48168	9615.4375
1407.93234	9574.1375
1411.38068	9460.2375
1414.82669	9340.3375
1418.27039	9154.0375
1421.71177	8963.1375
1425.15083	8785.6375
1428.58758	8665.4375
1432.02203	8628.3375
1435.45416	8619.5375
1438.88399	8701.9375
1442.31151	8735.0375
1445.73673	8810.3375
1449.15965	8895.1375
1452.58027	8977.5375
1455.9986	9021.3375
1459.41463	9081.0375
1462.82837	9197.1375
1466.23982	9306.6375
1469.64898	9440.5375
1473.05586	9558.7375
1476.46045	9645.9375
1479.86276	9686.4375
1483.26279	9754.8375
1486.66054	9864.5375
1490.05602	10019.3375
1493.44922	10253.3375
1496.84016	10610.9375
1500.22882	11144.4375
1503.61521	11903.5375
1506.99934	12646.9375
1510.38121	13182.7375
1513.76081	13240.4375
1517.13816	12788.0375
1520.51324	12071.2375
1523.88607	11409.1375
1527.25665	10913.5375
1530.62498	10644.0375
1533.99105	10426.5375
1537.35488	10224.1375
1540.71647	10046.2375
1544.07581	9827.0375
1547.4329	9680.4375
1550.78776	9571.9375
1554.14038	9481.1375
1557.49077	9494.5375
1560.83892	9542.8375
1564.18484	9671.1375
1567.52853	9824.0375
1570.86999	9948.0375
1574.20922	10036.4375
1577.54624	10080.1375
1580.88103	9910.8375
1584.2136	9672.0375
1587.54395	9499.2375
1590.87208	9484.5375
1594.19801	9649.5375
1597.52172	9921.8375
1600.84321	10067.4375
1604.16251	9903.3375
1607.47959	9582.0375
1610.79447	9197.5375
1614.10715	8823.3375
1617.41763	8435.7375
1620.7259	8107.7375
1624.03199	7922.6375
1627.33587	7857.9375
1630.63757	7878.4375
1633.93707	8023.6375
1637.23439	8349.2375
1640.52951	8857.6375
1643.82246	9593.2375
1647.11321	10401.2375
1650.40179	11014.9375
1653.68819	10993.1375
1656.97241	10315.6375
1660.25446	9328.9375
1663.53433	8504.6375
1666.81203	7859.0375
1670.08756	7446.9375
1673.36092	7178.2375
1676.63211	6980.7375
1679.90115	6867.5375
1683.16801	6760.2375
1686.43272	6685.7375
1689.69527	6629.2375
1692.95567	6592.6375
1696.2139	6558.1375
1699.46999	6534.4375
1702.72392	6510.7375
1705.97571	6466.8375
1709.22535	6436.8375
1712.47284	6428.3375
1715.71819	6407.7375
1718.96139	6378.0375
1722.20246	6344.3375
1725.44139	6315.1375
1728.67818	6286.3375
1731.91284	6222.3375
1735.14537	6198.5375
1738.37576	6179.0375
1741.60403	6135.2375
1744.83017	6141.5375
1748.05418	6124.8375
1751.27607	6101.9375
1754.49584	6117.9375
1757.71349	6156.0375
1760.92903	6125.4375
1764.14244	6095.3375
1767.35375	6094.5375
1770.56294	6066.4375
1773.77002	6023.4375
1776.97499	5970.1375
1780.17785	5949.4375
1783.37861	5923.0375
1786.57727	5881.8375
1789.77382	5868.6375
1792.96828	5828.2375
1796.16064	5806.9375
1799.3509	5787.7375
1802.53907	5778.9375
1805.72514	5745.8375
1808.90913	5733.1375
1812.09102	5730.2375
1815.27083	5695.7375
1818.44856	5683.3375
1821.6242	5663.5375
1824.79776	5679.3375
1827.96924	5627.8375
1831.13864	5628.1375
1834.30597	5616.5375
1837.47122	5613.9375
1840.6344	5604.8375
1843.7955	5592.1375
1846.95454	5584.5375
1850.11151	5576.6375
1853.26642	5572.0375
1856.41926	5558.8375
1859.57004	5554.6375
1862.71876	5538.2375
1865.86542	5514.4375
1869.01003	5517.5375
1872.15258	5519.2375
1875.29308	5493.9375
1878.43152	5479.8375
1881.56792	5489.6375
1884.70227	5461.3375
1887.83457	5454.9375
1890.96482	5440.1375
1894.09304	5411.7375
1897.21921	5424.1375
1900.34335	5403.0375
1903.46544	5415.0375
1906.58551	5389.4375
1909.70353	5391.7375
1912.81953	5375.0375
1915.93349	5355.4375
1919.04543	5351.2375
1922.15534	5346.2375
1925.26322	5330.4375
1928.36908	5303.9375
1931.47292	5285.9375
1934.57473	5274.2375
1937.67453	5245.3375
1940.77232	5254.8375
1943.86808	5227.0375
1946.96184	5206.0375
1950.05358	5176.4375
1953.14331	5176.9375
1956.23103	5156.6375
1959.31675	5148.8375
1962.40046	5099.7375
1965.48217	5085.6375
1968.56188	5081.1375
1971.63959	5064.9375
1974.7153	5062.0375
1977.78901	5029.3375
1980.86073	5003.7375
1983.93046	4996.9375
1986.99819	4990.4375
1990.06394	4966.5375
1993.1277	4929.7375
1996.18947	4914.3375
1999.24925	4893.6375
2002.30706	4894.6375
2005.36288	4881.0375
2008.41672	4855.8375
2011.46859	4839.9375
2014.51848	4818.2375
2017.56639	4814.6375
2020.61233	4798.6375
2023.6563	4775.4375
2026.6983	4762.0375
2029.73833	4731.9375
2032.7764	4726.7375
2035.8125	4711.2375
2038.84664	4692.1375
2041.87881	4704.4375
2044.90903	4683.6375
2047.93729	4664.4375
2050.96359	4659.3375
2053.98794	4645.6375
2057.01034	4645.0375
2060.03078	4637.8375
2063.04927	4613.6375
2066.06582	4607.2375
2069.08042	4604.5375
2072.09307	4605.2375
2075.10378	4583.9375
2078.11255	4593.2375
2081.11938	4595.2375
2084.12426	4597.8375
2087.12722	4586.0375
2090.12824	4582.5375
2093.12732	4585.3375
2096.12447	4567.5375
2099.11969	4566.0375
2102.11299	4564.7375
2105.10435	4569.1375
2108.09379	4560.4375
2111.08131	4571.0375
2114.0669	4569.8375
2117.05057	4561.8375
2120.03233	4572.3375
2123.01216	4565.5375
2125.99008	4569.3375
2128.96609	4579.5375
2131.94018	4565.0375
2134.91236	4552.0375
2137.88263	4558.4375
2140.851	4546.4375
2143.81746	4553.7375
2146.78201	4561.7375
2149.74466	4561.8375
2152.7054	4550.5375
2155.66425	4553.2375
2158.6212	4528.3375
2161.57625	4534.3375
2164.52941	4518.3375
2167.48067	4538.1375
2170.43004	4502.5375
2173.37752	4505.3375
2176.32311	4515.4375
2179.26681	4514.8375
2182.20863	4489.6375
2185.14856	4496.4375
2188.08661	4504.9375
2191.02278	4496.6375
2193.95707	4469.9375
2196.88948	4476.9375
2199.82001	4465.6375
2202.74867	4460.1375
2205.67545	4466.4375
2208.60037	4460.9375
2211.52341	4417.5375
2214.44458	4425.0375
2217.36388	4413.6375
2220.28132	4405.2375
2223.1969	4380.0375
2226.11061	4365.0375
2229.02246	4354.6375
2231.93245	4351.8375
2234.84058	4344.9375
2237.74686	4329.1375
2240.65128	4322.6375
2243.55385	4323.8375
2246.45456	4319.7375
2249.35343	4303.3375
2252.25044	4296.7375
2255.14561	4298.7375
2258.03893	4287.5375
2260.93041	4288.2375
2263.82004	4266.1375
2266.70783	4251.9375
2269.59378	4245.4375
2272.4779	4216.3375
2275.36017	4222.0375
2278.24061	4200.7375
2281.11922	4197.5375
2283.996	4179.9375
2286.87094	4174.0375
2289.74405	4168.8375
2292.61534	4152.6375
2295.4848	4151.9375
2298.35243	4149.4375
2301.21824	4125.8375
2304.08223	4130.6375
2306.94439	4103.0375
2309.80474	4106.2375
2312.66327	4099.8375
2315.51999	4104.0375
2318.37489	4087.5375
2321.22797	4081.5375
2324.07925	4079.3375
2326.92871	4079.0375
2329.77637	4059.7375
2332.62222	4059.2375
2335.46626	4047.6375
2338.3085	4033.1375
2341.14893	4035.8375
2343.98756	4033.5375
2346.8244	4018.9375
2349.65943	4001.2375
2352.49267	4006.9375
2355.32411	4016.2375
2358.15376	4014.2375
2360.98161	4001.4375
2363.80768	4001.9375
2366.63195	4006.2375
2369.45444	3984.2375
2372.27514	3990.1375
2375.09405	3976.4375
2377.91118	3962.4375
2380.72652	3950.9375
2383.54009	3951.4375
2386.35187	3942.4375
2389.16188	3932.7375
2391.97011	3910.6375
2394.77657	3892.3375
2397.58125	3877.1375
2400.38416	3887.3375
2403.18529	3862.9375
2405.98466	3865.3375
2408.78226	3853.6375
2411.57809	3844.6375
2414.37216	3843.7375
2417.16446	3841.7375
2419.955	3826.5375
2422.74378	3819.4375
2425.5308	3817.9375
2428.31606	3823.8375
2431.09956	3817.6375
2433.88131	3806.8375
2436.6613	3797.4375
2439.43954	3778.1375
2442.21603	3772.0375
2444.99077	3767.5375
2447.76377	3786.2375
2450.53501	3770.5375
2453.30451	3774.5375
2456.07226	3762.7375
2458.83827	3758.9375
2461.60254	3750.5375
2464.36507	3751.8375
2467.12586	3745.4375
2469.88492	3731.9375
2472.64224	3733.7375
2475.39782	3739.8375
2478.15167	3730.0375
2480.90379	3720.3375
2483.65417	3724.0375
2486.40283	3721.3375
2489.14976	3716.5375
2491.89497	3710.2375
2494.63845	3720.2375
2497.3802	3710.3375
2500.12024	3702.4375
2502.85855	3687.3375
2505.59514	3694.5375
2508.33002	3667.0375
2511.06318	3678.5375
2513.79462	3650.0375
2516.52435	3648.1375
2519.25237	3655.9375
2521.97867	3651.5375
2524.70327	3630.0375
2527.42616	3626.5375
2530.14734	3616.8375
2532.86681	3601.4375
2535.58458	3598.8375
2538.30065	3584.3375
2541.01501	3590.4375
2543.72768	3578.7375
2546.43864	3581.6375
2549.14791	3578.7375
2551.85548	3580.6375
2554.56136	3555.8375
2557.26554	3543.9375
2559.96803	3544.4375
2562.66883	3546.1375
2565.36794	3537.8375
2568.06536	3532.8375
2570.7611	3514.8375
2573.45514	3508.5375
2576.14751	3504.2375
2578.83819	3500.2375
2581.52719	3492.8375
2584.21451	3482.2375
2586.90015	3461.5375
2589.58411	3464.7375
2592.2664	3457.7375
2594.94701	3450.4375
2597.62594	3453.7375
2600.30321	3432.8375
2602.9788	3422.7375
2605.65273	3410.4375
2608.32498	3418.6375
2610.99557	3416.4375
2613.66449	3395.9375
2616.33175	3386.7375
2618.99734	3389.5375
2621.66128	3377.9375
2624.32355	3385.2375
2626.98416	3367.2375
2629.64311	3365.5375
2632.30041	3373.3375
2634.95605	3360.5375
2637.61004	3352.6375
2640.26238	3357.0375
2642.91306	3347.5375
2645.56209	3331.2375
2648.20948	3322.8375
2650.85521	3319.5375
2653.4993	3329.0375
2656.14175	3320.5375
2658.78255	3319.7375
2661.42171	3340.4375
2664.05923	3312.2375
2666.6951	3323.1375
2669.32934	3317.6375
2671.96194	3316.2375
2674.59291	3311.2375
2677.22224	3317.5375
2679.84993	3317.9375
2682.476	3312.4375
2685.10043	3312.0375
2687.72324	3300.9375
2690.34441	3305.0375
2692.96396	3299.7375
2695.58188	3302.1375
2698.19818	3309.8375
2700.81285	3301.6375
2703.4259	3325.9375
2706.03733	3365.7375
2708.64714	3317.8375
2711.25533	3303.5375
2713.86191	3289.9375
2716.46687	3293.9375
2719.07021	3291.1375
2721.67194	3292.1375
2724.27206	3280.7375
2726.87057	3295.1375
2729.46747	3273.1375
2732.06276	3276.8375
2734.65644	3269.7375
2737.24852	3270.6375
2739.83899	3260.8375
2742.42786	3262.0375
2745.01513	3260.9375
2747.60079	3251.1375
2750.18486	3244.1375
2752.76733	3239.3375
2755.3482	3224.4375
2757.92747	3227.7375
2760.50515	3219.4375
2763.08123	3223.9375
2765.65573	3214.6375
2768.22863	3203.4375
2770.79994	3185.8375
2773.36967	3205.0375
2775.9378	3193.1375
2778.50435	3191.9375
2781.06932	3176.6375
2783.6327	3190.1375
2786.1945	3179.6375
2788.75471	3179.5375
2791.31335	3162.4375
2793.87041	3169.0375
2796.42589	3139.2375
2798.97979	3130.1375
2801.53212	3130.3375
2804.08288	3132.9375
2806.63206	3119.5375
2809.17967	3105.8375
2811.72571	3112.4375
2814.27018	3096.2375
2816.81308	3106.9375
2819.35442	3091.7375
2821.89419	3094.5375
2824.43239	3076.7375
2826.96904	3078.1375
2829.50412	3079.7375
2832.03763	3077.5375
2834.56959	3071.6375
2837.1	3073.2375
2839.62884	3081.9375
2842.15613	3070.6375
2844.68186	3080.6375
2847.20604	3090.7375
2849.72867	3079.8375
2852.24974	3087.6375
2854.76927	3077.4375
2857.28724	3091.6375
2859.80367	3072.3375
2862.31855	3060.7375
2864.83189	3048.4375
2867.34368	3049.5375
2869.85393	3052.4375
2872.36264	3040.0375
2874.8698	3039.9375
2877.37543	3031.7375
2879.87952	3052.7375
2882.38207	3031.8375
2884.88308	3034.8375
2887.38256	3042.1375
2889.88051	3021.1375
2892.37692	3028.4375
2894.8718	3022.6375
2897.36515	3024.6375
2899.85698	3036.6375
2902.34727	3027.3375
2904.83604	3033.4375
2907.32328	3031.1375
2909.809	3035.0375
2912.29319	3035.9375
2914.77587	3044.7375
2917.25702	3034.8375
2919.73665	3030.2375
2922.21476	3044.7375
2924.69136	3037.8375
2927.16644	3043.0375
2929.64	3033.3375
2932.11205	3030.9375
2934.58258	3023.0375
2937.05161	3019.5375
2939.51912	3029.3375
2941.98513	3023.9375
2944.44962	3009.1375
2946.91261	3001.6375
2949.37409	3019.9375
2951.83407	3002.9375
2954.29254	3003.9375
2956.74951	3002.5375
2959.20498	2983.5375
2961.65895	2968.1375
2964.11142	2982.4375
2966.56239	2969.2375
2969.01186	2953.8375
2971.45984	2952.9375
2973.90632	2937.9375
2976.35131	2934.6375
2978.7948	2918.7375
2981.23681	2924.2375
2983.67732	2901.4375
2986.11635	2906.5375
2988.55388	2892.3375
2990.98993	2887.1375
2993.4245	2876.1375
2995.85758	2861.9375
2998.28917	2864.4375
3000.71928	2875.7375
3003.14791	2866.9375
3005.57506	2850.3375
3008.00073	2847.3375
3010.42493	2849.7375
3012.84764	2843.4375
3015.26888	2842.9375
3017.68865	2840.1375
3020.10694	2845.5375
3022.52376	2826.4375
3024.9391	2837.0375
3027.35298	2820.9375
3029.76539	2808.2375
3032.17632	2811.7375
3034.5858	2787.1375
3036.9938	2801.4375
3039.40034	2797.9375
3041.80542	2781.6375
3044.20903	2789.3375
3046.61118	2776.2375
3049.01187	2780.6375
3051.4111	2773.6375
3053.80888	2758.3375
3056.20519	2760.0375
3058.60005	2758.5375
3060.99345	2758.2375
3063.3854	2749.0375
3065.7759	2740.1375
3068.16494	2734.7375
3070.55254	2731.6375
3072.93868	2739.2375
3075.32338	2737.2375
3077.70662	2727.2375
3080.08842	2712.9375
3082.46878	2720.5375
3084.84769	2721.0375
3087.22515	2729.5375
3089.60118	2734.0375
3091.97576	2714.1375
3094.3489	2721.5375
3096.72061	2725.0375
3099.09087	2733.3375
3101.4597	2726.6375
3103.82709	2724.0375
3106.19305	2720.0375
3108.55757	2713.3375
3110.92066	2724.1375
3113.28232	2713.3375
3115.64255	2710.8375
3118.00134	2705.8375
3120.35871	2702.4375
3122.71466	2698.1375
3125.06917	2694.8375
3127.42226	2685.7375
3129.77393	2705.0375
3132.12417	2701.5375
3134.47299	2711.5375
3136.82039	2709.0375
3139.16636	2704.8375
3141.51092	2724.1375
3143.85406	2718.7375
3146.19579	2713.4375
3148.53609	2717.6375
3150.87499	2714.2375
3153.21246	2736.8375
3155.54853	2727.4375
3157.88318	2734.6375
3160.21642	2740.7375
3162.54826	2733.0375
3164.87868	2745.5375
3167.2077	2742.0375
3169.5353	2736.9375
3171.86151	2744.7375
3174.18631	2733.8375
3176.5097	2741.9375
3178.83169	2737.6375
3181.15228	2746.3375
3183.47147	2735.2375
3185.78926	2742.0375
3188.10565	2734.4375
3190.42065	2739.2375
3192.73424	2742.7375
3195.04645	2749.9375
3197.35725	2742.2375
3199.66667	2751.6375
3201.97469	2756.5375
3204.28132	2761.5375
3206.58656	2765.1375
3208.8904	2761.3375
3211.19287	2761.9375
3213.49394	2763.7375
3215.79363	2759.7375
3218.09193	2766.0375
3220.38884	2763.8375
3222.68438	2790.8375
3224.97853	2766.1375
3227.2713	2765.7375
3229.56269	2767.5375
3231.8527	2756.0375
3234.14133	2757.9375
3236.42858	2746.3375
3238.71446	2743.2375
3240.99896	2738.5375
3243.28209	2743.6375
3245.56384	2733.7375
3247.84423	2736.8375
3250.12324	2724.8375
3252.40088	2731.2375
3254.67715	2722.4375
3256.95205	2730.8375
3259.22558	2734.4375
3261.49775	2714.7375
3263.76855	2723.5375
3266.03799	2718.9375
3268.30606	2707.9375
3270.57277	2710.6375
3272.83812	2692.3375
3275.10211	2684.7375
3277.36474	2679.2375
3279.62601	2697.0375
3281.88593	2679.4375
3284.14448	2682.8375
3286.40168	2679.9375
3288.65753	2675.1375
3290.91202	2679.1375
3293.16516	2669.2375
3295.41695	2662.5375
3297.66738	2647.6375
3299.91647	2633.9375
3302.16421	2621.8375
3304.4106	2619.7375
3306.65564	2598.3375
3308.89933	2577.9375
3311.14169	2582.9375
3313.38269	2559.6375
3315.62236	2536.7375
3317.86068	2522.8375
3320.09766	2490.6375
3322.3333	2496.4375
3324.5676	2485.9375
3326.80056	2446.9375
3329.03219	2422.1375
3331.26248	0.9375
3333.49143	-0.3625
3335.71905	-0.6625
