Data from AgNPs_FTO_APTES_UA_20um_CRN_0.1mM_R6G_10uM_NaF_0.1M_Addition_RamanShift__30__14-51-19-208.txt Node

Date: Tue Dec 21 14:51:19 GMT 2021
User: TCL
Spectrometer: QEP01345
Trigger mode: 4
Integration Time (sec): 7.000000E0
Scans to average: 10
Electric dark correction enabled: true
Nonlinearity correction enabled: false
Boxcar width: 0
XAxis mode: Raman Shifts
Number of Pixels in Spectrum: 1044
>>>>>Begin Spectral Data<<<<<
46.04893	0.5
50.45542	-1.9
54.85868	-0.7
59.25871	1.3
63.6555	31.6
68.04907	34.7
72.43941	38.2
76.82654	39.2
81.21044	44.1
85.59113	45
89.96862	47.5
94.34289	46.7
98.71396	45.9
103.08183	51.7
107.4465	54.3
111.80798	53.4
116.16626	51.3
120.52136	54.3
124.87327	53.3
129.222	52.8
133.56755	57
137.90993	61.5
142.24913	60.1
146.58517	64.5
150.91804	73.3
155.24774	83.1
159.57429	94.7
163.89768	115.9
168.21792	149.8
172.53501	192.4
176.84895	262.6
181.15975	358.5
185.46741	488.2
189.77193	674.3
194.07331	905.6
198.37157	1157.5
202.6667	1421.3
206.9587	1692.1
211.24758	1960.8
215.53334	2241.2
219.81599	2546.8
224.09553	2893.3
228.37195	3263.6
232.64527	3677.5
236.91549	4107.5
241.18261	4506.8
245.44663	4843.2
249.70755	5136.3
253.96539	5373.6
258.22014	5554.6
262.4718	5663.8
266.72039	5777
270.96589	5803.7
275.20832	5796.3
279.44768	5740.3
283.68397	5684.8
287.91719	5656.8
292.14735	5658.1
296.37445	5760.1
300.59849	5924.6
304.81948	6130.4
309.03742	6315.4
313.25231	6275.5
317.46415	5997.4
321.67296	5564.7
325.87872	5173.1
330.08145	4991.9
334.28114	4964.1
338.47781	5037.4
342.67145	5183.2
346.86207	5394
351.04966	5719.2
355.23424	6065.6
359.4158	6319.5
363.59435	6459.2
367.76989	6494.3
371.94243	6469.4
376.11196	6418.7
380.27849	6365
384.44203	6310.3
388.60257	6239.2
392.76012	6198.3
396.91468	6269.9
401.06626	6460.8
405.21485	6621
409.36047	6547.1
413.50311	6249.4
417.64277	5925.6
421.77947	5727.5
425.9132	5628.1
430.04396	5629.3
434.17176	5638.5
438.2966	5696
442.41849	5793.3
446.53742	5955.2
450.6534	6106.9
454.76644	6218.3
458.87653	6221.8
462.98368	6173.8
467.08789	6094.2
471.18916	5965.7
475.2875	5816.4
479.38291	5741.6
483.4754	5654.9
487.56496	5595.3
491.6516	5570.1
495.73531	5546.3
499.81612	5555.7
503.89401	5574.5
507.96899	5610.5
512.04106	5682.1
516.11023	5747.1
520.1765	5788.4
524.23987	5796.8
528.30034	5697.2
532.35792	5589.7
536.41261	5443.4
540.46441	5275.6
544.51333	5219.6
548.55936	5230.5
552.60252	5340.6
556.64279	5489.7
560.6802	5575.7
564.71473	5676.4
568.7464	5927.3
572.7752	6107.4
576.80114	5993.5
580.82422	5832
584.84444	5777.4
588.86181	5742.5
592.87633	5733.7
596.888	5760
600.89682	5945.8
604.9028	6553.9
608.90594	8225
612.90624	10418.4
616.90371	10265.3
620.89834	7377.7
624.89015	5913
628.87913	5681.7
632.86528	5768.3
636.84862	5881.2
640.82913	5805
644.80683	5505.3
648.78172	5268.8
652.75379	5214.2
656.72306	5379.3
660.68952	5630.8
664.65319	5593
668.61405	5325.3
672.57211	5182.3
676.52738	5176.9
680.47986	5170.9
684.42955	5137.7
688.37646	5116.1
692.32058	5120.9
696.26192	5143.4
700.20048	5214.9
704.13626	5302.8
708.06928	5317.6
711.99952	5259.4
715.927	5203.9
719.85171	5200.7
723.77365	5196.6
727.69284	5109.5
731.60928	5045.5
735.52295	5023.8
739.43388	5018.7
743.34206	5037.9
747.24749	5082.9
751.15017	5164
755.05012	5282.2
758.94733	5545.1
762.8418	6123.5
766.73354	7112
770.62254	8128.8
774.50882	8693.8
778.39237	8413.5
782.27321	7337.9
786.15132	6197
790.02671	5524
793.89938	5237.1
797.76935	5107.1
801.6366	5081.1
805.50115	5097.6
809.36299	5126.2
813.22213	5129.6
817.07857	5094.2
820.93231	5039.1
824.78336	4999.3
828.63172	4968.3
832.47738	4960.7
836.32036	4939.8
840.16066	4915.4
843.99827	4889.5
847.8332	4856.9
851.66546	4836.5
855.49504	4806.3
859.32195	4808.8
863.1462	4805.8
866.96777	4778.4
870.78668	4772.6
874.60293	4817.2
878.41652	4860.4
882.22745	4900.8
886.03573	4972.3
889.84136	4960.7
893.64433	4912.9
897.44466	4879.6
901.24235	4831.6
905.0374	4769.4
908.8298	4735.4
912.61957	4705.4
916.40671	4721.2
920.19121	4788.3
923.97308	4809
927.75233	4841.2
931.52895	4878.8
935.30295	4808.5
939.07433	4661.4
942.84309	4529.5
946.60924	4461.9
950.37278	4419
954.13371	4392.9
957.89203	4384.7
961.64774	4360.3
965.40086	4342.9
969.15137	4320.5
972.89929	4319.9
976.64461	4295.9
980.38733	4297.3
984.12747	4307.6
987.86502	4301.4
991.59999	4330.6
995.33237	4380.6
999.06217	4469.8
1002.78939	4568.8
1006.51404	4703.5
1010.23611	4858.6
1013.95561	4936.1
1017.67255	4962.9
1021.38692	4859.2
1025.09872	4785.6
1028.80796	4706.1
1032.51465	4693.6
1036.21877	4746
1039.92035	4831.3
1043.61937	4858.2
1047.31584	4869.8
1051.00976	4847.7
1054.70114	4820.1
1058.38998	4826.4
1062.07627	4875.7
1065.76003	4939.3
1069.44126	4974.5
1073.11995	5047
1076.79611	5099
1080.46974	5147.7
1084.14085	5252.3
1087.80943	5348
1091.47549	5397.8
1095.13903	5329.8
1098.80005	5151.8
1102.45857	4975.6
1106.11456	4858.5
1109.76805	4853.2
1113.41903	4959
1117.06751	5127.7
1120.71348	5361.4
1124.35696	5641.8
1127.99793	5917.6
1131.63641	5954
1135.2724	5713.1
1138.90589	5453
1142.5369	5298.3
1146.16542	5148.5
1149.79145	5069.1
1153.415	5015
1157.03607	5028.4
1160.65467	5106.1
1164.27079	5279.1
1167.88443	5532.5
1171.49561	5966.7
1175.10432	6688.6
1178.71056	7651.6
1182.31434	8358.9
1185.91565	8534.4
1189.51451	8318.4
1193.11091	7910.2
1196.70485	7469.6
1200.29634	7132.4
1203.88538	6801.6
1207.47197	6391.6
1211.05612	6019.8
1214.63782	5735.6
1218.21708	5621.1
1221.79391	5577.4
1225.36829	5579.4
1228.94024	5592.3
1232.50976	5607.2
1236.07685	5607.8
1239.6415	5615
1243.20374	5636.6
1246.76355	5655.9
1250.32093	5716.2
1253.8759	5833.1
1257.42845	5991
1260.97859	6153.8
1264.52631	6306.9
1268.07163	6470.9
1271.61453	6633.6
1275.15503	6756.3
1278.69312	6819.2
1282.22882	6862.3
1285.76211	7018.3
1289.29301	7237.5
1292.82151	7467.6
1296.34761	7750.1
1299.87133	8120.8
1303.39266	8757.5
1306.9116	9683.5
1310.42815	10681.6
1313.94233	11244.3
1317.45412	11007.1
1320.96354	10336.3
1324.47058	9619.8
1327.97525	9078.6
1331.47754	8722.9
1334.97747	8637.5
1338.47502	8716.5
1341.97022	8932.9
1345.46305	9261.5
1348.95352	9659.5
1352.44163	10224.2
1355.92738	11106.8
1359.41078	12444.5
1362.89183	13600.2
1366.37053	13230.7
1369.84688	11526.1
1373.32088	9770
1376.79254	8529.7
1380.26186	7803
1383.72883	7412.8
1387.19347	7141.2
1390.65578	6893.8
1394.11575	6684.3
1397.57339	6623.2
1401.0287	6665.7
1404.48168	6713.4
1407.93234	6777.8
1411.38068	6837.4
1414.82669	6777.6
1418.27039	6634.9
1421.71177	6427.1
1425.15083	6261.1
1428.58758	6158.1
1432.02203	6140.5
1435.45416	6160.5
1438.88399	6185.4
1442.31151	6171.3
1445.73673	6202.3
1449.15965	6251.7
1452.58027	6266.8
1455.9986	6213.5
1459.41463	6251.3
1462.82837	6341.7
1466.23982	6448.6
1469.64898	6581.2
1473.05586	6651.9
1476.46045	6718.2
1479.86276	6844.4
1483.26279	6980.1
1486.66054	7189
1490.05602	7473.8
1493.44922	7867.5
1496.84016	8400.3
1500.22882	9244.6
1503.61521	10304.1
1506.99934	11433.9
1510.38121	12396.6
1513.76081	12717.9
1517.13816	12032.5
1520.51324	10649
1523.88607	9267.2
1527.25665	8368.1
1530.62498	7838.3
1533.99105	7565.7
1537.35488	7396.7
1540.71647	7291.3
1544.07581	7234.5
1547.4329	7198
1550.78776	7137.9
1554.14038	7087.7
1557.49077	7087
1560.83892	7168.8
1564.18484	7376.1
1567.52853	7597.1
1570.86999	7773.1
1574.20922	7907.7
1577.54624	7871.7
1580.88103	7488.4
1584.2136	6980.8
1587.54395	6729.3
1590.87208	6756.4
1594.19801	7101.7
1597.52172	7599
1600.84321	7828.7
1604.16251	7651.9
1607.47959	7163.5
1610.79447	6628
1614.10715	6116.8
1617.41763	5705.4
1620.7259	5451.1
1624.03199	5301.2
1627.33587	5272.8
1630.63757	5348.2
1633.93707	5545.4
1637.23439	5907.6
1640.52951	6483.1
1643.82246	7240.9
1647.11321	8133.2
1650.40179	8826.2
1653.68819	8724.4
1656.97241	7738
1660.25446	6568.6
1663.53433	5665.4
1666.81203	5092.7
1670.08756	4749.1
1673.36092	4532.6
1676.63211	4386.3
1679.90115	4285.3
1683.16801	4185.7
1686.43272	4121.7
1689.69527	4059.5
1692.95567	4033.3
1696.2139	4026.8
1699.46999	3986.7
1702.72392	3977.3
1705.97571	3936.1
1709.22535	3914.7
1712.47284	3900.5
1715.71819	3894.3
1718.96139	3894.3
1722.20246	3895.3
1725.44139	3866.6
1728.67818	3850.3
1731.91284	3803
1735.14537	3774.4
1738.37576	3752.3
1741.60403	3737.8
1744.83017	3713.5
1748.05418	3712.1
1751.27607	3696.1
1754.49584	3687
1757.71349	3678.9
1760.92903	3670.7
1764.14244	3656.8
1767.35375	3645.4
1770.56294	3625.7
1773.77002	3591
1776.97499	3581.1
1780.17785	3562.3
1783.37861	3550
1786.57727	3534.7
1789.77382	3531.9
1792.96828	3505.1
1796.16064	3504
1799.3509	3495.7
1802.53907	3488.5
1805.72514	3471.2
1808.90913	3448.4
1812.09102	3460
1815.27083	3448.2
1818.44856	3422.7
1821.6242	3415.4
1824.79776	3421.4
1827.96924	3412.6
1831.13864	3395.5
1834.30597	3397.4
1837.47122	3382.7
1840.6344	3381.2
1843.7955	3379.7
1846.95454	3377.5
1850.11151	3367.2
1853.26642	3374.9
1856.41926	3367.9
1859.57004	3369.5
1862.71876	3372.8
1865.86542	3356.9
1869.01003	3356.4
1872.15258	3360.5
1875.29308	3359.4
1878.43152	3352.5
1881.56792	3346.9
1884.70227	3339.2
1887.83457	3336.4
1890.96482	3346.1
1894.09304	3328.3
1897.21921	3332.7
1900.34335	3322.7
1903.46544	3341.2
1906.58551	3325.4
1909.70353	3328.9
1912.81953	3325.3
1915.93349	3311.7
1919.04543	3322.6
1922.15534	3316.3
1925.26322	3300.8
1928.36908	3291
1931.47292	3279.6
1934.57473	3260.1
1937.67453	3250.2
1940.77232	3239.3
1943.86808	3226.7
1946.96184	3200.6
1950.05358	3191.4
1953.14331	3184.6
1956.23103	3170.7
1959.31675	3170.9
1962.40046	3152.3
1965.48217	3151.8
1968.56188	3129.7
1971.63959	3126.2
1974.7153	3125.3
1977.78901	3107.7
1980.86073	3104.9
1983.93046	3093.6
1986.99819	3082.7
1990.06394	3050.4
1993.1277	3062.3
1996.18947	3043.4
1999.24925	3028.8
2002.30706	3025.1
2005.36288	3007.7
2008.41672	2992.6
2011.46859	2979.2
2014.51848	2988
2017.56639	2969.9
2020.61233	2966.1
2023.6563	2946.9
2026.6983	2945.6
2029.73833	2937.7
2032.7764	2932.3
2035.8125	2928.4
2038.84664	2916.1
2041.87881	2911.1
2044.90903	2900.2
2047.93729	2889.3
2050.96359	2880.8
2053.98794	2892.9
2057.01034	2866.5
2060.03078	2872.8
2063.04927	2867.6
2066.06582	2862.7
2069.08042	2863.3
2072.09307	2857
2075.10378	2856.8
2078.11255	2851.3
2081.11938	2866.3
2084.12426	2848.3
2087.12722	2844.9
2090.12824	2836.3
2093.12732	2854.7
2096.12447	2847.3
2099.11969	2839.1
2102.11299	2833.5
2105.10435	2833
2108.09379	2840.1
2111.08131	2842.8
2114.0669	2841.9
2117.05057	2857.9
2120.03233	2835.2
2123.01216	2835.7
2125.99008	2835.2
2128.96609	2836.6
2131.94018	2836.9
2134.91236	2837.4
2137.88263	2839.2
2140.851	2834.9
2143.81746	2854.3
2146.78201	2840.2
2149.74466	2834.2
2152.7054	2830.8
2155.66425	2837.4
2158.6212	2818.1
2161.57625	2826.2
2164.52941	2824.4
2167.48067	2821.1
2170.43004	2816.4
2173.37752	2823.8
2176.32311	2813.4
2179.26681	2811
2182.20863	2806
2185.14856	2812.7
2188.08661	2803.2
2191.02278	2797.9
2193.95707	2808.3
2196.88948	2793.2
2199.82001	2796.1
2202.74867	2774.4
2205.67545	2775.5
2208.60037	2788.5
2211.52341	2767.2
2214.44458	2760
2217.36388	2753.8
2220.28132	2746.5
2223.1969	2731.1
2226.11061	2743.3
2229.02246	2723
2231.93245	2723.1
2234.84058	2721.8
2237.74686	2721.3
2240.65128	2715.7
2243.55385	2703.8
2246.45456	2692.9
2249.35343	2689.9
2252.25044	2692.7
2255.14561	2694.6
2258.03893	2695.8
2260.93041	2706.7
2263.82004	2685.9
2266.70783	2671.4
2269.59378	2665.4
2272.4779	2662.5
2275.36017	2642.1
2278.24061	2646.6
2281.11922	2652.2
2283.996	2629.9
2286.87094	2639.2
2289.74405	2620.3
2292.61534	2605.8
2295.4848	2610.9
2298.35243	2606.8
2301.21824	2592.5
2304.08223	2596.2
2306.94439	2595.7
2309.80474	2593.9
2312.66327	2586.2
2315.51999	2596
2318.37489	2578.3
2321.22797	2574.3
2324.07925	2577.6
2326.92871	2575.3
2329.77637	2571.2
2332.62222	2571.7
2335.46626	2555.2
2338.3085	2561.6
2341.14893	2565.6
2343.98756	2546.6
2346.8244	2560.2
2349.65943	2558.2
2352.49267	2556.8
2355.32411	2552
2358.15376	2551.7
2360.98161	2569.1
2363.80768	2558.2
2366.63195	2567.4
2369.45444	2564.2
2372.27514	2560.6
2375.09405	2554
2377.91118	2553.5
2380.72652	2542.5
2383.54009	2522.7
2386.35187	2526.3
2389.16188	2513
2391.97011	2498
2394.77657	2489.3
2397.58125	2485.7
2400.38416	2476.1
2403.18529	2465.1
2405.98466	2463.3
2408.78226	2449.3
2411.57809	2458.4
2414.37216	2452.5
2417.16446	2455.5
2419.955	2425.9
2422.74378	2454.3
2425.5308	2430.3
2428.31606	2428.8
2431.09956	2437.7
2433.88131	2431.6
2436.6613	2436.7
2439.43954	2429.1
2442.21603	2422.4
2444.99077	2428.1
2447.76377	2421.2
2450.53501	2422.6
2453.30451	2428.6
2456.07226	2429
2458.83827	2410.4
2461.60254	2421.2
2464.36507	2413.5
2467.12586	2409.8
2469.88492	2406.6
2472.64224	2407.5
2475.39782	2421.5
2478.15167	2409
2480.90379	2422.3
2483.65417	2413.9
2486.40283	2422
2489.14976	2422.1
2491.89497	2427.2
2494.63845	2436.9
2497.3802	2448.6
2500.12024	2425.2
2502.85855	2427.8
2505.59514	2416.7
2508.33002	2400.1
2511.06318	2385.9
2513.79462	2394.2
2516.52435	2371.5
2519.25237	2372.2
2521.97867	2361.4
2524.70327	2356
2527.42616	2349.8
2530.14734	2339.4
2532.86681	2345.1
2535.58458	2330.5
2538.30065	2337.1
2541.01501	2325.7
2543.72768	2330.2
2546.43864	2334.8
2549.14791	2319.4
2551.85548	2324.8
2554.56136	2335.2
2557.26554	2309.9
2559.96803	2315.1
2562.66883	2323.1
2565.36794	2314.5
2568.06536	2301.2
2570.7611	2305.9
2573.45514	2306.8
2576.14751	2302.4
2578.83819	2303.4
2581.52719	2280.3
2584.21451	2284.4
2586.90015	2282.5
2589.58411	2279.4
2592.2664	2274.5
2594.94701	2275.9
2597.62594	2268.6
2600.30321	2248.3
2602.9788	2260.7
2605.65273	2257.1
2608.32498	2258.7
2610.99557	2262.1
2613.66449	2256.4
2616.33175	2245
2618.99734	2259.7
2621.66128	2256.7
2624.32355	2236.9
2626.98416	2241.1
2629.64311	2227.7
2632.30041	2244.8
2634.95605	2237.5
2637.61004	2234.5
2640.26238	2224.9
2642.91306	2227.2
2645.56209	2221.7
2648.20948	2217.9
2650.85521	2223.1
2653.4993	2212
2656.14175	2224.9
2658.78255	2224.6
2661.42171	2226.4
2664.05923	2242.3
2666.6951	2224
2669.32934	2239.7
2671.96194	2222.3
2674.59291	2231.6
2677.22224	2238.7
2679.84993	2239.3
2682.476	2222.7
2685.10043	2225.3
2687.72324	2236.3
2690.34441	2233.2
2692.96396	2238.5
2695.58188	2249.2
2698.19818	2242.6
2700.81285	2244.7
2703.4259	2271.3
2706.03733	2301.9
2708.64714	2264.4
2711.25533	2266.3
2713.86191	2265.2
2716.46687	2260.6
2719.07021	2266.8
2721.67194	2255.1
2724.27206	2252.7
2726.87057	2263.6
2729.46747	2254.3
2732.06276	2256.7
2734.65644	2254.2
2737.24852	2237.3
2739.83899	2240.3
2742.42786	2238.2
2745.01513	2227.9
2747.60079	2233.8
2750.18486	2233.6
2752.76733	2226.1
2755.3482	2217.7
2757.92747	2219.6
2760.50515	2226
2763.08123	2215.9
2765.65573	2214.6
2768.22863	2210
2770.79994	2199.8
2773.36967	2210.4
2775.9378	2196.9
2778.50435	2209.5
2781.06932	2202.3
2783.6327	2208
2786.1945	2202.6
2788.75471	2212.8
2791.31335	2198.9
2793.87041	2206
2796.42589	2203
2798.97979	2203.8
2801.53212	2211.1
2804.08288	2215
2806.63206	2215.5
2809.17967	2202.3
2811.72571	2211.8
2814.27018	2213
2816.81308	2223.2
2819.35442	2224.4
2821.89419	2234.3
2824.43239	2228.5
2826.96904	2226.8
2829.50412	2232.9
2832.03763	2236.9
2834.56959	2233.7
2837.1	2237.9
2839.62884	2268.1
2842.15613	2286.4
2844.68186	2322.1
2847.20604	2350.9
2849.72867	2395.4
2852.24974	2409.6
2854.76927	2415.1
2857.28724	2416.4
2859.80367	2398.2
2862.31855	2380.2
2864.83189	2378.1
2867.34368	2371.3
2869.85393	2354.9
2872.36264	2353.2
2874.8698	2354
2877.37543	2357.3
2879.87952	2352.2
2882.38207	2340.9
2884.88308	2347
2887.38256	2347.1
2889.88051	2331.2
2892.37692	2355.1
2894.8718	2350.7
2897.36515	2351.5
2899.85698	2346
2902.34727	2347.5
2904.83604	2346.7
2907.32328	2353.7
2909.809	2339.6
2912.29319	2353.6
2914.77587	2347.8
2917.25702	2339.9
2919.73665	2329.6
2922.21476	2331.5
2924.69136	2335.1
2927.16644	2331.7
2929.64	2323.4
2932.11205	2323.8
2934.58258	2312.2
2937.05161	2307.4
2939.51912	2298.9
2941.98513	2282.9
2944.44962	2253.6
2946.91261	2232.8
2949.37409	2216.6
2951.83407	2207.7
2954.29254	2197.8
2956.74951	2176.3
2959.20498	2166.4
2961.65895	2152.8
2964.11142	2151.7
2966.56239	2136.6
2969.01186	2130.5
2971.45984	2121.9
2973.90632	2113.7
2976.35131	2116.4
2978.7948	2104.1
2981.23681	2088.5
2983.67732	2083.4
2986.11635	2083.8
2988.55388	2078.9
2990.98993	2068
2993.4245	2056.4
2995.85758	2050.2
2998.28917	2051.1
3000.71928	2047.9
3003.14791	2036.1
3005.57506	2047.5
3008.00073	2043.3
3010.42493	2036.8
3012.84764	2037.6
3015.26888	2032.1
3017.68865	2030.2
3020.10694	2027.9
3022.52376	2024
3024.9391	2030.2
3027.35298	2018.9
3029.76539	2012.2
3032.17632	2021.9
3034.5858	2012.9
3036.9938	2006.3
3039.40034	1998.5
3041.80542	2009.3
3044.20903	2008.4
3046.61118	2009.5
3049.01187	1992.6
3051.4111	1989.1
3053.80888	1996.6
3056.20519	1997.7
3058.60005	1992.4
3060.99345	1982.9
3063.3854	1991.5
3065.7759	1982.3
3068.16494	1990.1
3070.55254	1975.2
3072.93868	1976.4
3075.32338	1968.9
3077.70662	1960.8
3080.08842	1966.2
3082.46878	1967.6
3084.84769	1958
3087.22515	1954.3
3089.60118	1960.3
3091.97576	1957.9
3094.3489	1953.1
3096.72061	1948.1
3099.09087	1955.7
3101.4597	1952.7
3103.82709	1965.4
3106.19305	1964.1
3108.55757	1955.9
3110.92066	1945
3113.28232	1949.1
3115.64255	1954
3118.00134	1948.3
3120.35871	1946.2
3122.71466	1954.4
3125.06917	1956.6
3127.42226	1954.3
3129.77393	1957.2
3132.12417	1963.9
3134.47299	1968.2
3136.82039	1973.2
3139.16636	1967.1
3141.51092	1978.4
3143.85406	1987
3146.19579	1985.8
3148.53609	1985.1
3150.87499	1996
3153.21246	1992.1
3155.54853	2008.6
3157.88318	2006.4
3160.21642	2000.3
3162.54826	2012.5
3164.87868	2019.8
3167.2077	2017.5
3169.5353	2026.8
3171.86151	2035.7
3174.18631	2025.6
3176.5097	2038.7
3178.83169	2041.6
3181.15228	2038
3183.47147	2046
3185.78926	2029.1
3188.10565	2044.7
3190.42065	2036.8
3192.73424	2053.4
3195.04645	2053.5
3197.35725	2065.5
3199.66667	2066.5
3201.97469	2079.5
3204.28132	2068.3
3206.58656	2086.3
3208.8904	2076.8
3211.19287	2076.8
3213.49394	2084.5
3215.79363	2085.7
3218.09193	2084.8
3220.38884	2099.1
3222.68438	2109.3
3224.97853	2090
3227.2713	2082.4
3229.56269	2081.8
3231.8527	2099.7
3234.14133	2083.6
3236.42858	2081.4
3238.71446	2076.4
3240.99896	2081.2
3243.28209	2077.7
3245.56384	2073.4
3247.84423	2082.7
3250.12324	2079.5
3252.40088	2076
3254.67715	2086
3256.95205	2063.9
3259.22558	2072.5
3261.49775	2077.5
3263.76855	2064.8
3266.03799	2063.8
3268.30606	2067.6
3270.57277	2057.4
3272.83812	2052.3
3275.10211	2048.3
3277.36474	2045.4
3279.62601	2051.4
3281.88593	2044
3284.14448	2045.1
3286.40168	2052.6
3288.65753	2038.1
3290.91202	2037.4
3293.16516	2029.8
3295.41695	2034.4
3297.66738	2021.2
3299.91647	2003.9
3302.16421	2005.8
3304.4106	1999.7
3306.65564	1973.9
3308.89933	1964.7
3311.14169	1960.3
3313.38269	1956
3315.62236	1940
3317.86068	1928.1
3320.09766	1894.6
3322.3333	1897.5
3324.5676	1900.3
3326.80056	1875.2
3329.03219	1864.1
3331.26248	1.1
3333.49143	-0.1
3335.71905	0.8
