Data from AgNPs_FTO_APTES_UA_10um_CRN_0.1mM_R6G_10uM_NaF_0.1M_Addition_RamanShift__3__13-38-59-125.txt Node

Date: Tue Dec 21 13:38:59 GMT 2021
User: TCL
Spectrometer: QEP01345
Trigger mode: 4
Integration Time (sec): 7.000000E0
Scans to average: 10
Electric dark correction enabled: true
Nonlinearity correction enabled: false
Boxcar width: 0
XAxis mode: Raman Shifts
Number of Pixels in Spectrum: 1044
>>>>>Begin Spectral Data<<<<<
46.04893	-0.2
50.45542	-0.5
54.85868	-1.8
59.25871	0.6
63.6555	48
68.04907	48.7
72.43941	54.5
76.82654	57.9
81.21044	61.9
85.59113	61.2
89.96862	63.5
94.34289	64.2
98.71396	65.9
103.08183	69.9
107.4465	71
111.80798	74.5
116.16626	73.8
120.52136	75.7
124.87327	78.1
129.222	84.8
133.56755	90.4
137.90993	96
142.24913	104.2
146.58517	118.4
150.91804	137.5
155.24774	167
159.57429	205
163.89768	262.6
168.21792	346.6
172.53501	467.6
176.84895	651.1
181.15975	909.9
185.46741	1270.4
189.77193	1768.3
194.07331	2370.1
198.37157	3046.3
202.6667	3769.6
206.9587	4496.1
211.24758	5230.3
215.53334	5970.5
219.81599	6719.2
224.09553	7581.2
228.37195	8521.6
232.64527	9546.1
236.91549	10581.5
241.18261	11637.6
245.44663	12652.8
249.70755	13456.6
253.96539	14224.1
258.22014	14840.5
262.4718	15291.8
266.72039	15641.5
270.96589	15756.6
275.20832	15710.3
279.44768	15584.7
283.68397	15403.5
287.91719	15253.6
292.14735	15149.5
296.37445	15147.7
300.59849	15243.8
304.81948	15384.8
309.03742	15445.1
313.25231	15342.9
317.46415	15067.4
321.67296	14667.4
325.87872	14324.9
330.08145	14100.1
334.28114	14017.4
338.47781	14085.7
342.67145	14265.4
346.86207	14484.5
351.04966	14753.9
355.23424	15086.6
359.4158	15354.8
363.59435	15546.3
367.76989	15663.6
371.94243	15740
376.11196	15789.5
380.27849	15867.8
384.44203	15955.3
388.60257	16116.2
392.76012	16303.4
396.91468	16542.7
401.06626	16807.1
405.21485	16982.6
409.36047	16942.9
413.50311	16695.2
417.64277	16470.8
421.77947	16372.6
425.9132	16365.2
430.04396	16405.5
434.17176	16475.6
438.2966	16595
442.41849	16833.3
446.53742	17307.9
450.6534	17837.4
454.76644	18224.3
458.87653	18273.3
462.98368	18157
467.08789	17928.3
471.18916	17690.7
475.2875	17443.5
479.38291	17325.1
483.4754	17264.5
487.56496	17139
491.6516	16878
495.73531	16603.9
499.81612	16479
503.89401	16492.1
507.96899	16541.2
512.04106	16471.8
516.11023	16323.6
520.1765	16205.7
524.23987	16106.2
528.30034	16000.1
532.35792	15903.8
536.41261	15687.1
540.46441	15491.8
544.51333	15413.8
548.55936	15507.6
552.60252	15822.3
556.64279	16183.8
560.6802	16526
564.71473	16697.7
568.7464	16917.9
572.7752	17350.2
576.80114	17805.3
580.82422	18220.1
584.84444	18845.9
588.86181	19647.6
592.87633	20337.4
596.888	20374
600.89682	19632.9
604.9028	19464.4
608.90594	20869.2
612.90624	22632.1
616.90371	21349.4
620.89834	17734
624.89015	15980.6
628.87913	15797.9
632.86528	15912.6
636.84862	15959.3
640.82913	15727.9
644.80683	15302.2
648.78172	15000.8
652.75379	14946.3
656.72306	15096.3
660.68952	15290.6
664.65319	15209.2
668.61405	14979.4
672.57211	14929.7
676.52738	15031.5
680.47986	15078.5
684.42955	14960.8
688.37646	14865.8
692.32058	14888.8
696.26192	15053.1
700.20048	15242
704.13626	15354.7
708.06928	15318
711.99952	15251.1
715.927	15241
719.85171	15300.8
723.77365	15260.8
727.69284	15059.1
731.60928	14853.3
735.52295	14815.9
739.43388	14812.2
743.34206	14841
747.24749	14931
751.15017	15029.1
755.05012	15238.7
758.94733	15688.6
762.8418	16449.8
766.73354	17711.8
770.62254	19051.6
774.50882	19519.3
778.39237	18752.5
782.27321	17386.6
786.15132	16130.1
790.02671	15262.2
793.89938	14906
797.76935	14751.5
801.6366	14695.2
805.50115	14650.2
809.36299	14556.4
813.22213	14425.5
817.07857	14331.5
820.93231	14255.9
824.78336	14129.6
828.63172	14086.5
832.47738	14068.2
836.32036	14103.4
840.16066	14110.5
843.99827	14087.4
847.8332	14031.9
851.66546	13984.8
855.49504	13960.4
859.32195	13953.4
863.1462	13937.8
866.96777	13865.7
870.78668	13878
874.60293	13887.4
878.41652	13912.8
882.22745	13957.5
886.03573	14049
889.84136	14051.2
893.64433	14010.9
897.44466	13922.8
901.24235	13838.7
905.0374	13735.6
908.8298	13667.9
912.61957	13641.6
916.40671	13693.5
920.19121	13929.8
923.97308	14096.9
927.75233	14192.1
931.52895	14119.7
935.30295	13917.6
939.07433	13614.7
942.84309	13377.2
946.60924	13288.9
950.37278	13190.6
954.13371	13168
957.89203	13145.4
961.64774	13158.5
965.40086	13147.4
969.15137	13096.5
972.89929	13023.7
976.64461	12957.1
980.38733	12982.6
984.12747	12982.4
987.86502	13056.9
991.59999	13196
995.33237	13397.8
999.06217	13716.8
1002.78939	14148
1006.51404	14451.7
1010.23611	14715
1013.95561	14850.3
1017.67255	14933.2
1021.38692	14788.2
1025.09872	14526.9
1028.80796	14381
1032.51465	14548.7
1036.21877	14844.7
1039.92035	15002.8
1043.61937	14963.7
1047.31584	14795.8
1051.00976	14539.5
1054.70114	14370.6
1058.38998	14314.1
1062.07627	14392.5
1065.76003	14489.3
1069.44126	14658.8
1073.11995	14919
1076.79611	15189.2
1080.46974	15308.3
1084.14085	15373.2
1087.80943	15531.9
1091.47549	15688
1095.13903	15785.5
1098.80005	15584
1102.45857	15187.9
1106.11456	14825.5
1109.76805	14652.9
1113.41903	14658.5
1117.06751	14733.2
1120.71348	14927.7
1124.35696	15145.3
1127.99793	15400.2
1131.63641	15536.5
1135.2724	15483.4
1138.90589	15382.3
1142.5369	15337.9
1146.16542	15379.6
1149.79145	15464.3
1153.415	15588.5
1157.03607	15764.5
1160.65467	16167.9
1164.27079	16863.4
1167.88443	17889.5
1171.49561	19002.4
1175.10432	20473.9
1178.71056	22315.9
1182.31434	24037.5
1185.91565	24862.5
1189.51451	24632.9
1193.11091	23786
1196.70485	22686.3
1200.29634	21624
1203.88538	20906.5
1207.47197	20383.8
1211.05612	19971.5
1214.63782	19556.9
1218.21708	19123.8
1221.79391	18745.4
1225.36829	18525.9
1228.94024	18329
1232.50976	18040.4
1236.07685	17700.7
1239.6415	17499.8
1243.20374	17456.8
1246.76355	17568.4
1250.32093	17857.7
1253.8759	18217.7
1257.42845	18801.4
1260.97859	19477.7
1264.52631	20122.2
1268.07163	20716.3
1271.61453	21425.5
1275.15503	22071.4
1278.69312	22727.1
1282.22882	23427.4
1285.76211	24272.1
1289.29301	25303.1
1292.82151	26450.7
1296.34761	27848.9
1299.87133	29449.9
1303.39266	31220.1
1306.9116	32917
1310.42815	34409.7
1313.94233	35231
1317.45412	34958.7
1320.96354	33946.2
1324.47058	32937.2
1327.97525	32105.5
1331.47754	31451.4
1334.97747	31065.1
1338.47502	30689.1
1341.97022	30167.9
1345.46305	29707.3
1348.95352	29499
1352.44163	29845
1355.92738	30910.8
1359.41078	32659.9
1362.89183	34212.6
1366.37053	34085.9
1369.84688	31493.1
1373.32088	27850.5
1376.79254	25187.2
1380.26186	24003.7
1383.72883	23759.2
1387.19347	23577.8
1390.65578	23223.4
1394.11575	23070.2
1397.57339	23228.2
1401.0287	23600.2
1404.48168	23866.3
1407.93234	23862.9
1411.38068	23419.8
1414.82669	22685.9
1418.27039	21826
1421.71177	20924.2
1425.15083	20182
1428.58758	19818.4
1432.02203	19967.5
1435.45416	20494.4
1438.88399	21054.1
1442.31151	21468.3
1445.73673	21796.2
1449.15965	22044.1
1452.58027	22123.5
1455.9986	22042.7
1459.41463	22156.1
1462.82837	22427.1
1466.23982	22918.7
1469.64898	23380.2
1473.05586	23700.3
1476.46045	23783.6
1479.86276	23741.7
1483.26279	23564.3
1486.66054	23553.4
1490.05602	23747.6
1493.44922	24123
1496.84016	24485.2
1500.22882	25013.7
1503.61521	25760
1506.99934	26719.8
1510.38121	27495.2
1513.76081	27640.4
1517.13816	26938.6
1520.51324	25757.5
1523.88607	24670
1527.25665	24118.3
1530.62498	23861.3
1533.99105	23707.5
1537.35488	23338.1
1540.71647	22800.9
1544.07581	22159
1547.4329	21510.5
1550.78776	20939.7
1554.14038	20579.1
1557.49077	20349.9
1560.83892	20333.1
1564.18484	20443.8
1567.52853	20606.5
1570.86999	20866.1
1574.20922	21221
1577.54624	21575
1580.88103	21601
1584.2136	21661.2
1587.54395	22221.6
1590.87208	23306.4
1594.19801	24789
1597.52172	26251.7
1600.84321	26767.4
1604.16251	25678.4
1607.47959	23482.8
1610.79447	21109.1
1614.10715	19056.8
1617.41763	17524.6
1620.7259	16503.4
1624.03199	16035.4
1627.33587	16022.2
1630.63757	16493.4
1633.93707	17601.4
1637.23439	19395.4
1640.52951	22115
1643.82246	25583
1647.11321	28582.4
1650.40179	29451.5
1653.68819	27566.7
1656.97241	23776.7
1660.25446	19985.3
1663.53433	17165.6
1666.81203	15353.2
1670.08756	14216.3
1673.36092	13534.5
1676.63211	13058.9
1679.90115	12730.2
1683.16801	12495.3
1686.43272	12320.8
1689.69527	12155.5
1692.95567	12058
1696.2139	12006.9
1699.46999	11976.7
1702.72392	11928.8
1705.97571	11868.7
1709.22535	11833
1712.47284	11782.8
1715.71819	11729
1718.96139	11692.8
1722.20246	11632
1725.44139	11590.7
1728.67818	11528.6
1731.91284	11456.9
1735.14537	11391.6
1738.37576	11345.5
1741.60403	11293.3
1744.83017	11276
1748.05418	11233.9
1751.27607	11251.6
1754.49584	11249.2
1757.71349	11253.9
1760.92903	11248.8
1764.14244	11229.4
1767.35375	11193.8
1770.56294	11142.1
1773.77002	11098.6
1776.97499	11065.1
1780.17785	11007.4
1783.37861	10997.8
1786.57727	10927.9
1789.77382	10898.9
1792.96828	10885.9
1796.16064	10858.7
1799.3509	10828.4
1802.53907	10811.4
1805.72514	10764.9
1808.90913	10733.9
1812.09102	10721.2
1815.27083	10699.2
1818.44856	10670.9
1821.6242	10644.6
1824.79776	10656
1827.96924	10631.8
1831.13864	10640.4
1834.30597	10627.9
1837.47122	10624.9
1840.6344	10619.2
1843.7955	10614.1
1846.95454	10591.9
1850.11151	10597.6
1853.26642	10564.7
1856.41926	10542.2
1859.57004	10594
1862.71876	10564.3
1865.86542	10563.2
1869.01003	10541.7
1872.15258	10538.9
1875.29308	10524.1
1878.43152	10500.9
1881.56792	10485.8
1884.70227	10473.3
1887.83457	10430.7
1890.96482	10441.6
1894.09304	10432.5
1897.21921	10409.5
1900.34335	10397.3
1903.46544	10402.9
1906.58551	10384.8
1909.70353	10352.1
1912.81953	10343.2
1915.93349	10317.9
1919.04543	10304.1
1922.15534	10275.3
1925.26322	10222.9
1928.36908	10207.9
1931.47292	10186.3
1934.57473	10177.5
1937.67453	10129.5
1940.77232	10110.3
1943.86808	10086.4
1946.96184	10084.7
1950.05358	10030.3
1953.14331	9988.3
1956.23103	9962.4
1959.31675	9954.5
1962.40046	9922.9
1965.48217	9897.1
1968.56188	9838.6
1971.63959	9826
1974.7153	9778.5
1977.78901	9758.8
1980.86073	9750.4
1983.93046	9701.5
1986.99819	9656.2
1990.06394	9627.4
1993.1277	9610.4
1996.18947	9563.4
1999.24925	9551.5
2002.30706	9521.7
2005.36288	9496.8
2008.41672	9449.6
2011.46859	9430.7
2014.51848	9392.7
2017.56639	9376.3
2020.61233	9356.2
2023.6563	9348
2026.6983	9309.8
2029.73833	9343.9
2032.7764	9273.4
2035.8125	9257.2
2038.84664	9243.1
2041.87881	9236.2
2044.90903	9195.7
2047.93729	9197.9
2050.96359	9210.2
2053.98794	9190.2
2057.01034	9184.8
2060.03078	9163.5
2063.04927	9143.2
2066.06582	9145.5
2069.08042	9127.5
2072.09307	9134.9
2075.10378	9110.6
2078.11255	9130.9
2081.11938	9106.5
2084.12426	9108.5
2087.12722	9091.4
2090.12824	9081.6
2093.12732	9080.8
2096.12447	9096.5
2099.11969	9095.6
2102.11299	9084.9
2105.10435	9077.6
2108.09379	9087.2
2111.08131	9088.8
2114.0669	9095.8
2117.05057	9093.6
2120.03233	9122.2
2123.01216	9098.6
2125.99008	9090.6
2128.96609	9106.1
2131.94018	9137.2
2134.91236	9149.1
2137.88263	9140.6
2140.851	9120.6
2143.81746	9121.9
2146.78201	9129.5
2149.74466	9133.2
2152.7054	9140.1
2155.66425	9113.9
2158.6212	9111.8
2161.57625	9116.9
2164.52941	9092.2
2167.48067	9114.2
2170.43004	9080.4
2173.37752	9075.9
2176.32311	9078.4
2179.26681	9084.5
2182.20863	9056.4
2185.14856	9072.6
2188.08661	9081
2191.02278	9083.7
2193.95707	9065.8
2196.88948	9078.2
2199.82001	9073.8
2202.74867	9046.1
2205.67545	9062.9
2208.60037	9020.1
2211.52341	9021.2
2214.44458	9026.4
2217.36388	8991.3
2220.28132	8972.5
2223.1969	8945.8
2226.11061	8949.8
2229.02246	8931.4
2231.93245	8915.1
2234.84058	8915.7
2237.74686	8901.4
2240.65128	8877.5
2243.55385	8867.5
2246.45456	8863.1
2249.35343	8832.4
2252.25044	8846.9
2255.14561	8804.1
2258.03893	8806.4
2260.93041	8778.9
2263.82004	8776.9
2266.70783	8730.4
2269.59378	8718.3
2272.4779	8698.1
2275.36017	8686.2
2278.24061	8662
2281.11922	8624.8
2283.996	8615.3
2286.87094	8621.1
2289.74405	8584.4
2292.61534	8599.1
2295.4848	8577.3
2298.35243	8583.3
2301.21824	8579.9
2304.08223	8578.9
2306.94439	8572.1
2309.80474	8571.3
2312.66327	8573.4
2315.51999	8565.8
2318.37489	8550.3
2321.22797	8542
2324.07925	8504.9
2326.92871	8524.6
2329.77637	8511.8
2332.62222	8512.3
2335.46626	8502.4
2338.3085	8471.8
2341.14893	8482.1
2343.98756	8492.8
2346.8244	8480.3
2349.65943	8492.6
2352.49267	8467.5
2355.32411	8489.7
2358.15376	8469.6
2360.98161	8472
2363.80768	8450.9
2366.63195	8456.4
2369.45444	8443.5
2372.27514	8441.6
2375.09405	8405.6
2377.91118	8404.7
2380.72652	8381.9
2383.54009	8364.3
2386.35187	8334.4
2389.16188	8317.6
2391.97011	8303.5
2394.77657	8301.3
2397.58125	8292.6
2400.38416	8281.6
2403.18529	8260.7
2405.98466	8265.6
2408.78226	8234.2
2411.57809	8212.6
2414.37216	8195.5
2417.16446	8188.9
2419.955	8185.9
2422.74378	8180.2
2425.5308	8158.9
2428.31606	8162
2431.09956	8159.1
2433.88131	8134.1
2436.6613	8152.3
2439.43954	8146.1
2442.21603	8146.5
2444.99077	8114.1
2447.76377	8148.5
2450.53501	8144.3
2453.30451	8133.1
2456.07226	8136.3
2458.83827	8132.3
2461.60254	8154.1
2464.36507	8142.5
2467.12586	8150
2469.88492	8116.9
2472.64224	8122.8
2475.39782	8127.4
2478.15167	8155.9
2480.90379	8123
2483.65417	8145.1
2486.40283	8111.6
2489.14976	8146.6
2491.89497	8119.7
2494.63845	8137.1
2497.3802	8140.7
2500.12024	8139.6
2502.85855	8115.4
2505.59514	8137.1
2508.33002	8116.8
2511.06318	8084.5
2513.79462	8070.3
2516.52435	8067.2
2519.25237	8048
2521.97867	8037.2
2524.70327	8058.9
2527.42616	8049.8
2530.14734	8041.3
2532.86681	8031.8
2535.58458	8011.3
2538.30065	8012.9
2541.01501	8002.9
2543.72768	7988.5
2546.43864	7992.4
2549.14791	7984.1
2551.85548	7979.8
2554.56136	7981.2
2557.26554	7967.6
2559.96803	7978.1
2562.66883	7947.2
2565.36794	7979.6
2568.06536	7951.6
2570.7611	7949.1
2573.45514	7927.4
2576.14751	7958.1
2578.83819	7933.9
2581.52719	7934.7
2584.21451	7924.2
2586.90015	7908.8
2589.58411	7890.7
2592.2664	7894.6
2594.94701	7870.8
2597.62594	7879.9
2600.30321	7863.6
2602.9788	7863.3
2605.65273	7848.4
2608.32498	7865.5
2610.99557	7833.2
2613.66449	7863
2616.33175	7842.1
2618.99734	7848.3
2621.66128	7824.1
2624.32355	7820.6
2626.98416	7828.7
2629.64311	7816.8
2632.30041	7838.8
2634.95605	7814.2
2637.61004	7804.2
2640.26238	7782.1
2642.91306	7779
2645.56209	7768.7
2648.20948	7786.2
2650.85521	7760.5
2653.4993	7773.5
2656.14175	7771.1
2658.78255	7788.3
2661.42171	7777.8
2664.05923	7793.5
2666.6951	7792.8
2669.32934	7794.7
2671.96194	7797.9
2674.59291	7797.1
2677.22224	7782.7
2679.84993	7801
2682.476	7778.2
2685.10043	7775.3
2687.72324	7762.2
2690.34441	7751.2
2692.96396	7764.9
2695.58188	7765.6
2698.19818	7766.9
2700.81285	7774
2703.4259	7770.2
2706.03733	7850
2708.64714	7828.1
2711.25533	7813.5
2713.86191	7791.1
2716.46687	7810.8
2719.07021	7821.7
2721.67194	7818.4
2724.27206	7799.1
2726.87057	7809.6
2729.46747	7827.4
2732.06276	7832
2734.65644	7811.5
2737.24852	7817.4
2739.83899	7772
2742.42786	7809.2
2745.01513	7789.1
2747.60079	7785.8
2750.18486	7775
2752.76733	7756.1
2755.3482	7753.2
2757.92747	7754.4
2760.50515	7758.1
2763.08123	7766.4
2765.65573	7761.2
2768.22863	7756.2
2770.79994	7744.2
2773.36967	7749.9
2775.9378	7742.6
2778.50435	7749.1
2781.06932	7734.2
2783.6327	7740.6
2786.1945	7726.6
2788.75471	7739.1
2791.31335	7700.4
2793.87041	7702.8
2796.42589	7673.9
2798.97979	7675.2
2801.53212	7660.4
2804.08288	7649.3
2806.63206	7634.5
2809.17967	7641.9
2811.72571	7602
2814.27018	7618
2816.81308	7591.5
2819.35442	7585.5
2821.89419	7593.9
2824.43239	7583.3
2826.96904	7581
2829.50412	7588.5
2832.03763	7570.3
2834.56959	7584
2837.1	7578
2839.62884	7566.5
2842.15613	7545.1
2844.68186	7581.4
2847.20604	7594.2
2849.72867	7582.2
2852.24974	7568.4
2854.76927	7565.9
2857.28724	7605.6
2859.80367	7573
2862.31855	7555.9
2864.83189	7541.8
2867.34368	7524.6
2869.85393	7530.9
2872.36264	7533.3
2874.8698	7515.9
2877.37543	7512.4
2879.87952	7527.4
2882.38207	7525.2
2884.88308	7496.7
2887.38256	7526.7
2889.88051	7529.6
2892.37692	7524.6
2894.8718	7517.6
2897.36515	7538.2
2899.85698	7540.5
2902.34727	7557
2904.83604	7542.7
2907.32328	7555.1
2909.809	7568.6
2912.29319	7582.8
2914.77587	7590.9
2917.25702	7602.8
2919.73665	7575.7
2922.21476	7581.4
2924.69136	7596.9
2927.16644	7589.1
2929.64	7579.3
2932.11205	7558.1
2934.58258	7531.5
2937.05161	7554
2939.51912	7555.1
2941.98513	7547.2
2944.44962	7534
2946.91261	7488.3
2949.37409	7533.4
2951.83407	7478.7
2954.29254	7479.1
2956.74951	7470.3
2959.20498	7449.8
2961.65895	7425.7
2964.11142	7418.4
2966.56239	7410.9
2969.01186	7395.6
2971.45984	7371.3
2973.90632	7371
2976.35131	7335.6
2978.7948	7325.4
2981.23681	7317.5
2983.67732	7275.2
2986.11635	7274.2
2988.55388	7262.1
2990.98993	7235.8
2993.4245	7219.8
2995.85758	7203.7
2998.28917	7197.9
3000.71928	7192.3
3003.14791	7170.1
3005.57506	7170.5
3008.00073	7169.2
3010.42493	7151.5
3012.84764	7134.2
3015.26888	7138.3
3017.68865	7121.2
3020.10694	7102.4
3022.52376	7054.1
3024.9391	7054.4
3027.35298	7059.8
3029.76539	7043.6
3032.17632	7066.7
3034.5858	7003.1
3036.9938	7012.9
3039.40034	7004.9
3041.80542	7003
3044.20903	6980.3
3046.61118	6985.8
3049.01187	6954.4
3051.4111	6960.6
3053.80888	6957.3
3056.20519	6939.1
3058.60005	6929
3060.99345	6901.3
3063.3854	6888.2
3065.7759	6873.5
3068.16494	6879.7
3070.55254	6857.8
3072.93868	6855.4
3075.32338	6822.8
3077.70662	6816.8
3080.08842	6791.8
3082.46878	6798.8
3084.84769	6761.5
3087.22515	6752.8
3089.60118	6769.4
3091.97576	6742.8
3094.3489	6748.8
3096.72061	6773.1
3099.09087	6755.1
3101.4597	6741.4
3103.82709	6748.5
3106.19305	6745.3
3108.55757	6736.1
3110.92066	6717.8
3113.28232	6699.1
3115.64255	6685.4
3118.00134	6674.2
3120.35871	6668.7
3122.71466	6649.4
3125.06917	6663.7
3127.42226	6634.1
3129.77393	6634.5
3132.12417	6636.8
3134.47299	6644.3
3136.82039	6642.5
3139.16636	6627
3141.51092	6634.9
3143.85406	6627
3146.19579	6634.9
3148.53609	6632.3
3150.87499	6639.2
3153.21246	6618.9
3155.54853	6628.1
3157.88318	6636.9
3160.21642	6626.4
3162.54826	6629.9
3164.87868	6615
3167.2077	6634.7
3169.5353	6609.5
3171.86151	6626.9
3174.18631	6626.8
3176.5097	6614.7
3178.83169	6605.3
3181.15228	6601.4
3183.47147	6599.2
3185.78926	6588.1
3188.10565	6595
3190.42065	6573.9
3192.73424	6590.6
3195.04645	6592.8
3197.35725	6588.7
3199.66667	6572.2
3201.97469	6579.4
3204.28132	6581.4
3206.58656	6579.6
3208.8904	6605.1
3211.19287	6591.4
3213.49394	6589.2
3215.79363	6577.8
3218.09193	6583
3220.38884	6593.3
3222.68438	6613.3
3224.97853	6577.2
3227.2713	6604
3229.56269	6567
3231.8527	6582.7
3234.14133	6554.8
3236.42858	6549.8
3238.71446	6548.3
3240.99896	6518.8
3243.28209	6532.6
3245.56384	6511.7
3247.84423	6529.8
3250.12324	6512.8
3252.40088	6512.4
3254.67715	6509.9
3256.95205	6492.6
3259.22558	6496.8
3261.49775	6467.4
3263.76855	6439.2
3266.03799	6448.4
3268.30606	6442.7
3270.57277	6423.7
3272.83812	6401
3275.10211	6399.2
3277.36474	6381.1
3279.62601	6399.1
3281.88593	6385.9
3284.14448	6412.6
3286.40168	6380.8
3288.65753	6375.7
3290.91202	6384.9
3293.16516	6350.2
3295.41695	6358.7
3297.66738	6311.4
3299.91647	6275.1
3302.16421	6245.7
3304.4106	6217.7
3306.65564	6199
3308.89933	6144.7
3311.14169	6121.5
3313.38269	6088.1
3315.62236	6039.5
3317.86068	5994.5
3320.09766	5940.4
3322.3333	5887.5
3324.5676	5896.9
3326.80056	5827.2
3329.03219	5785.9
3331.26248	2.2
3333.49143	0.8
3335.71905	-0.3
