Data from AgNPs_FTO_APTES_UA_1um_CRN_0.1mM_R6G_10uM_NaF_0.1M_Addition_RamanShift__19__11-56-19-008.txt Node

Date: Tue Dec 21 11:56:19 GMT 2021
User: TCL
Spectrometer: QEP01345
Trigger mode: 4
Integration Time (sec): 7.000000E0
Scans to average: 10
Electric dark correction enabled: true
Nonlinearity correction enabled: false
Boxcar width: 0
XAxis mode: Raman Shifts
Number of Pixels in Spectrum: 1044
>>>>>Begin Spectral Data<<<<<
46.04893	0.0375
50.45542	-0.0625
54.85868	-0.5625
59.25871	-0.1625
63.6555	39.8375
68.04907	43.5375
72.43941	46.3375
76.82654	47.9375
81.21044	54.1375
85.59113	52.5375
89.96862	54.9375
94.34289	54.6375
98.71396	55.7375
103.08183	59.6375
107.4465	61.1375
111.80798	64.6375
116.16626	64.1375
120.52136	67.0375
124.87327	66.6375
129.222	65.7375
133.56755	75.2375
137.90993	81.3375
142.24913	87.0375
146.58517	94.3375
150.91804	109.1375
155.24774	127.3375
159.57429	158.1375
163.89768	203.4375
168.21792	260.5375
172.53501	354.8375
176.84895	484.8375
181.15975	687.8375
185.46741	955.9375
189.77193	1311.6375
194.07331	1755.1375
198.37157	2270.8375
202.6667	2801.7375
206.9587	3350.2375
211.24758	3881.3375
215.53334	4432.4375
219.81599	5006.2375
224.09553	5637.8375
228.37195	6332.9375
232.64527	7093.6375
236.91549	7866.3375
241.18261	8645.6375
245.44663	9344.7375
249.70755	9940.6375
253.96539	10464.0375
258.22014	10873.9375
262.4718	11238.9375
266.72039	11444.8375
270.96589	11516.0375
275.20832	11444.5375
279.44768	11316.1375
283.68397	11147.4375
287.91719	11081.6375
292.14735	11013.6375
296.37445	10993.9375
300.59849	10989.0375
304.81948	11063.4375
309.03742	11052.9375
313.25231	10992.3375
317.46415	10794.9375
321.67296	10495.1375
325.87872	10221.0375
330.08145	10023.5375
334.28114	9988.0375
338.47781	10028.0375
342.67145	10127.1375
346.86207	10309.3375
351.04966	10487.2375
355.23424	10698.4375
359.4158	10859.1375
363.59435	10985.6375
367.76989	11027.3375
371.94243	11043.9375
376.11196	11069.8375
380.27849	11117.8375
384.44203	11192.6375
388.60257	11281.6375
392.76012	11372.5375
396.91468	11578.4375
401.06626	11784.4375
405.21485	11922.1375
409.36047	11825.2375
413.50311	11675.6375
417.64277	11549.0375
421.77947	11558.4375
425.9132	11626.3375
430.04396	11718.3375
434.17176	11811.9375
438.2966	11896.5375
442.41849	12159.6375
446.53742	12650.6375
450.6534	13181.6375
454.76644	13468.4375
458.87653	13494.3375
462.98368	13232.8375
467.08789	12973.4375
471.18916	12675.8375
475.2875	12461.2375
479.38291	12363.9375
483.4754	12286.6375
487.56496	12181.7375
491.6516	11937.3375
495.73531	11784.4375
499.81612	11672.0375
503.89401	11715.8375
507.96899	11726.6375
512.04106	11581.3375
516.11023	11408.5375
520.1765	11221.1375
524.23987	11128.5375
528.30034	11123.5375
532.35792	11047.0375
536.41261	10876.9375
540.46441	10674.3375
544.51333	10570.1375
548.55936	10623.4375
552.60252	10924.2375
556.64279	11282.8375
560.6802	11561.0375
564.71473	11727.1375
568.7464	12013.1375
572.7752	12427.9375
576.80114	12823.5375
580.82422	13176.5375
584.84444	13587.9375
588.86181	14195.9375
592.87633	14879.6375
596.888	15260.6375
600.89682	14894.1375
604.9028	14709.0375
608.90594	15385.7375
612.90624	16247.4375
616.90371	14911.3375
620.89834	12102.7375
624.89015	10806.4375
628.87913	10705.0375
632.86528	10893.0375
636.84862	10970.5375
640.82913	10816.1375
644.80683	10460.3375
648.78172	10204.0375
652.75379	10104.8375
656.72306	10147.0375
660.68952	10297.9375
664.65319	10277.0375
668.61405	10087.7375
672.57211	10109.8375
676.52738	10227.4375
680.47986	10272.2375
684.42955	10160.8375
688.37646	10008.1375
692.32058	9922.0375
696.26192	9961.7375
700.20048	10066.5375
704.13626	10141.0375
708.06928	10173.0375
711.99952	10080.7375
715.927	10048.0375
719.85171	10063.5375
723.77365	10023.7375
727.69284	9951.9375
731.60928	9836.4375
735.52295	9821.6375
739.43388	9834.2375
743.34206	9869.5375
747.24749	9908.1375
751.15017	10037.4375
755.05012	10233.0375
758.94733	10588.9375
762.8418	11270.4375
766.73354	12367.4375
770.62254	13431.5375
774.50882	13603.4375
778.39237	12801.2375
782.27321	11633.3375
786.15132	10661.5375
790.02671	10039.2375
793.89938	9698.8375
797.76935	9606.6375
801.6366	9582.2375
805.50115	9551.1375
809.36299	9473.9375
813.22213	9340.1375
817.07857	9255.4375
820.93231	9162.8375
824.78336	9083.8375
828.63172	9044.9375
832.47738	9031.9375
836.32036	9028.1375
840.16066	9018.5375
843.99827	8995.9375
847.8332	8977.9375
851.66546	8929.9375
855.49504	8914.8375
859.32195	8949.4375
863.1462	8935.9375
866.96777	8916.6375
870.78668	8891.3375
874.60293	8887.9375
878.41652	8891.3375
882.22745	8917.1375
886.03573	8963.0375
889.84136	8955.2375
893.64433	8925.7375
897.44466	8889.8375
901.24235	8831.6375
905.0374	8760.2375
908.8298	8665.7375
912.61957	8651.8375
916.40671	8692.2375
920.19121	8863.2375
923.97308	9056.9375
927.75233	9150.7375
931.52895	9084.7375
935.30295	8902.6375
939.07433	8646.9375
942.84309	8439.6375
946.60924	8327.9375
950.37278	8266.7375
954.13371	8271.2375
957.89203	8246.9375
961.64774	8225.0375
965.40086	8196.6375
969.15137	8164.0375
972.89929	8108.1375
976.64461	8044.3375
980.38733	8007.8375
984.12747	8000.8375
987.86502	8032.5375
991.59999	8102.0375
995.33237	8288.5375
999.06217	8574.8375
1002.78939	8894.4375
1006.51404	9214.0375
1010.23611	9469.2375
1013.95561	9615.7375
1017.67255	9642.0375
1021.38692	9462.2375
1025.09872	9171.3375
1028.80796	8958.0375
1032.51465	8967.9375
1036.21877	9062.7375
1039.92035	9121.1375
1043.61937	9126.0375
1047.31584	9080.1375
1051.00976	8987.4375
1054.70114	8942.5375
1058.38998	8929.1375
1062.07627	8947.5375
1065.76003	9014.2375
1069.44126	9120.7375
1073.11995	9361.5375
1076.79611	9527.3375
1080.46974	9604.2375
1084.14085	9675.5375
1087.80943	9816.5375
1091.47549	9963.0375
1095.13903	10002.3375
1098.80005	9784.5375
1102.45857	9473.1375
1106.11456	9213.8375
1109.76805	9090.4375
1113.41903	9106.8375
1117.06751	9199.2375
1120.71348	9357.7375
1124.35696	9547.0375
1127.99793	9740.6375
1131.63641	9883.7375
1135.2724	9866.4375
1138.90589	9827.4375
1142.5369	9789.4375
1146.16542	9811.5375
1149.79145	9870.5375
1153.415	9980.0375
1157.03607	10184.4375
1160.65467	10554.9375
1164.27079	11174.0375
1167.88443	12078.3375
1171.49561	13201.9375
1175.10432	14625.8375
1178.71056	16432.0375
1182.31434	17999.4375
1185.91565	18755.4375
1189.51451	18485.1375
1193.11091	17610.0375
1196.70485	16540.6375
1200.29634	15436.3375
1203.88538	14481.1375
1207.47197	13817.0375
1211.05612	13322.0375
1214.63782	13028.5375
1218.21708	12851.6375
1221.79391	12901.9375
1225.36829	13006.8375
1228.94024	12950.9375
1232.50976	12640.1375
1236.07685	12185.7375
1239.6415	11867.2375
1243.20374	11720.6375
1246.76355	11658.9375
1250.32093	11803.7375
1253.8759	12062.7375
1257.42845	12528.0375
1260.97859	12990.7375
1264.52631	13521.1375
1268.07163	14052.7375
1271.61453	14556.8375
1275.15503	15070.6375
1278.69312	15655.4375
1282.22882	16255.6375
1285.76211	16969.2375
1289.29301	17793.7375
1292.82151	18719.0375
1296.34761	19835.9375
1299.87133	21177.8375
1303.39266	22635.3375
1306.9116	24323.1375
1310.42815	26059.2375
1313.94233	27368.7375
1317.45412	27866.7375
1320.96354	27426.1375
1324.47058	26703.4375
1327.97525	25912.5375
1331.47754	25182.3375
1334.97747	24585.6375
1338.47502	24067.6375
1341.97022	23490.9375
1345.46305	22760.6375
1348.95352	22246.1375
1352.44163	22173.5375
1355.92738	22891.1375
1359.41078	24167.0375
1362.89183	25435.3375
1366.37053	25606.8375
1369.84688	23921.8375
1373.32088	21056.7375
1376.79254	18665.2375
1380.26186	17533.8375
1383.72883	17258.5375
1387.19347	16999.5375
1390.65578	16770.0375
1394.11575	16863.5375
1397.57339	17401.9375
1401.0287	18156.0375
1404.48168	18877.4375
1407.93234	19164.7375
1411.38068	18917.6375
1414.82669	18192.6375
1418.27039	17227.8375
1421.71177	16139.4375
1425.15083	15209.3375
1428.58758	14662.8375
1432.02203	14646.3375
1435.45416	14985.4375
1438.88399	15532.8375
1442.31151	16025.8375
1445.73673	16433.9375
1449.15965	16875.9375
1452.58027	17050.6375
1455.9986	17047.1375
1459.41463	17091.9375
1462.82837	17411.5375
1466.23982	18008.0375
1469.64898	18534.9375
1473.05586	18777.3375
1476.46045	18825.1375
1479.86276	18750.9375
1483.26279	18513.3375
1486.66054	18366.0375
1490.05602	18421.8375
1493.44922	18507.8375
1496.84016	18514.5375
1500.22882	18565.3375
1503.61521	18845.5375
1506.99934	19375.0375
1510.38121	19813.8375
1513.76081	19807.4375
1517.13816	19212.6375
1520.51324	18224.3375
1523.88607	17384.7375
1527.25665	16873.9375
1530.62498	16682.4375
1533.99105	16656.5375
1537.35488	16583.7375
1540.71647	16330.9375
1544.07581	15930.4375
1547.4329	15395.9375
1550.78776	14929.1375
1554.14038	14568.6375
1557.49077	14365.2375
1560.83892	14319.7375
1564.18484	14323.0375
1567.52853	14399.0375
1570.86999	14544.7375
1574.20922	14796.7375
1577.54624	14974.4375
1580.88103	14962.8375
1584.2136	14941.7375
1587.54395	15356.6375
1590.87208	16357.0375
1594.19801	17849.1375
1597.52172	19499.6375
1600.84321	20377.3375
1604.16251	19755.5375
1607.47959	17959.3375
1610.79447	15755.4375
1614.10715	13748.1375
1617.41763	12170.7375
1620.7259	11148.9375
1624.03199	10622.7375
1627.33587	10520.8375
1630.63757	10902.8375
1633.93707	11858.2375
1637.23439	13528.5375
1640.52951	16106.4375
1643.82246	19474.4375
1647.11321	22446.7375
1650.40179	23383.4375
1653.68819	21658.2375
1656.97241	18168.6375
1660.25446	14619.0375
1663.53433	11952.6375
1666.81203	10262.4375
1670.08756	9245.4375
1673.36092	8634.3375
1676.63211	8221.5375
1679.90115	7938.3375
1683.16801	7741.7375
1686.43272	7609.6375
1689.69527	7473.5375
1692.95567	7364.5375
1696.2139	7301.1375
1699.46999	7281.9375
1702.72392	7199.6375
1705.97571	7175.5375
1709.22535	7117.9375
1712.47284	7100.7375
1715.71819	7070.8375
1718.96139	7029.4375
1722.20246	6998.6375
1725.44139	6942.6375
1728.67818	6915.1375
1731.91284	6845.0375
1735.14537	6797.2375
1738.37576	6764.1375
1741.60403	6726.8375
1744.83017	6727.6375
1748.05418	6754.3375
1751.27607	6752.5375
1754.49584	6770.7375
1757.71349	6794.4375
1760.92903	6740.9375
1764.14244	6710.7375
1767.35375	6658.1375
1770.56294	6605.8375
1773.77002	6545.3375
1776.97499	6507.3375
1780.17785	6464.6375
1783.37861	6426.5375
1786.57727	6421.2375
1789.77382	6375.0375
1792.96828	6350.2375
1796.16064	6318.7375
1799.3509	6297.0375
1802.53907	6276.9375
1805.72514	6238.9375
1808.90913	6215.8375
1812.09102	6209.0375
1815.27083	6164.1375
1818.44856	6189.0375
1821.6242	6152.9375
1824.79776	6152.9375
1827.96924	6133.2375
1831.13864	6145.1375
1834.30597	6126.6375
1837.47122	6125.2375
1840.6344	6116.2375
1843.7955	6114.9375
1846.95454	6118.0375
1850.11151	6120.3375
1853.26642	6118.9375
1856.41926	6115.0375
1859.57004	6117.1375
1862.71876	6093.6375
1865.86542	6085.3375
1869.01003	6085.2375
1872.15258	6090.0375
1875.29308	6088.2375
1878.43152	6086.3375
1881.56792	6064.1375
1884.70227	6075.0375
1887.83457	6070.1375
1890.96482	6071.9375
1894.09304	6042.4375
1897.21921	6053.9375
1900.34335	6037.1375
1903.46544	6034.9375
1906.58551	6025.1375
1909.70353	6010.7375
1912.81953	5996.4375
1915.93349	5971.6375
1919.04543	5955.0375
1922.15534	5924.5375
1925.26322	5919.2375
1928.36908	5886.1375
1931.47292	5852.9375
1934.57473	5825.0375
1937.67453	5807.5375
1940.77232	5788.3375
1943.86808	5760.4375
1946.96184	5754.6375
1950.05358	5731.8375
1953.14331	5704.5375
1956.23103	5682.0375
1959.31675	5680.7375
1962.40046	5650.5375
1965.48217	5632.3375
1968.56188	5596.4375
1971.63959	5575.5375
1974.7153	5567.6375
1977.78901	5544.2375
1980.86073	5532.0375
1983.93046	5507.3375
1986.99819	5486.6375
1990.06394	5460.1375
1993.1277	5457.7375
1996.18947	5406.2375
1999.24925	5396.9375
2002.30706	5378.1375
2005.36288	5376.1375
2008.41672	5364.5375
2011.46859	5358.5375
2014.51848	5332.7375
2017.56639	5312.9375
2020.61233	5292.6375
2023.6563	5293.4375
2026.6983	5270.4375
2029.73833	5264.9375
2032.7764	5248.7375
2035.8125	5252.0375
2038.84664	5227.2375
2041.87881	5219.1375
2044.90903	5207.3375
2047.93729	5204.4375
2050.96359	5200.6375
2053.98794	5202.1375
2057.01034	5180.7375
2060.03078	5187.4375
2063.04927	5179.3375
2066.06582	5164.5375
2069.08042	5138.0375
2072.09307	5154.4375
2075.10378	5137.1375
2078.11255	5141.8375
2081.11938	5146.5375
2084.12426	5123.8375
2087.12722	5123.3375
2090.12824	5105.0375
2093.12732	5104.3375
2096.12447	5117.7375
2099.11969	5109.3375
2102.11299	5098.2375
2105.10435	5108.8375
2108.09379	5096.1375
2111.08131	5101.0375
2114.0669	5113.4375
2117.05057	5094.0375
2120.03233	5110.7375
2123.01216	5092.8375
2125.99008	5106.2375
2128.96609	5098.6375
2131.94018	5100.0375
2134.91236	5087.5375
2137.88263	5098.0375
2140.851	5104.0375
2143.81746	5091.4375
2146.78201	5098.1375
2149.74466	5087.8375
2152.7054	5078.3375
2155.66425	5077.5375
2158.6212	5081.8375
2161.57625	5066.2375
2164.52941	5055.9375
2167.48067	5075.7375
2170.43004	5071.5375
2173.37752	5074.6375
2176.32311	5063.3375
2179.26681	5037.7375
2182.20863	5060.2375
2185.14856	5052.8375
2188.08661	5043.5375
2191.02278	5046.4375
2193.95707	5043.0375
2196.88948	5043.5375
2199.82001	5026.7375
2202.74867	5044.3375
2205.67545	5020.1375
2208.60037	4996.2375
2211.52341	4998.9375
2214.44458	4982.1375
2217.36388	4977.2375
2220.28132	4976.9375
2223.1969	4955.4375
2226.11061	4948.3375
2229.02246	4935.3375
2231.93245	4924.9375
2234.84058	4932.9375
2237.74686	4913.7375
2240.65128	4917.4375
2243.55385	4900.9375
2246.45456	4906.4375
2249.35343	4894.2375
2252.25044	4860.1375
2255.14561	4859.7375
2258.03893	4865.9375
2260.93041	4840.4375
2263.82004	4828.3375
2266.70783	4812.8375
2269.59378	4790.9375
2272.4779	4774.0375
2275.36017	4777.5375
2278.24061	4751.8375
2281.11922	4733.1375
2283.996	4737.9375
2286.87094	4724.4375
2289.74405	4711.3375
2292.61534	4700.6375
2295.4848	4701.0375
2298.35243	4698.7375
2301.21824	4687.4375
2304.08223	4707.2375
2306.94439	4681.0375
2309.80474	4674.1375
2312.66327	4679.4375
2315.51999	4660.5375
2318.37489	4671.9375
2321.22797	4663.0375
2324.07925	4666.5375
2326.92871	4670.9375
2329.77637	4641.1375
2332.62222	4637.9375
2335.46626	4653.6375
2338.3085	4654.6375
2341.14893	4645.9375
2343.98756	4641.7375
2346.8244	4651.7375
2349.65943	4649.3375
2352.49267	4639.6375
2355.32411	4647.0375
2358.15376	4652.2375
2360.98161	4642.0375
2363.80768	4647.2375
2366.63195	4645.4375
2369.45444	4646.5375
2372.27514	4621.7375
2375.09405	4594.1375
2377.91118	4598.3375
2380.72652	4580.1375
2383.54009	4580.9375
2386.35187	4559.3375
2389.16188	4548.6375
2391.97011	4536.7375
2394.77657	4532.1375
2397.58125	4521.0375
2400.38416	4511.6375
2403.18529	4492.9375
2405.98466	4483.7375
2408.78226	4497.5375
2411.57809	4471.6375
2414.37216	4475.0375
2417.16446	4454.0375
2419.955	4458.7375
2422.74378	4469.0375
2425.5308	4457.1375
2428.31606	4438.8375
2431.09956	4434.9375
2433.88131	4454.6375
2436.6613	4439.2375
2439.43954	4435.6375
2442.21603	4439.9375
2444.99077	4430.6375
2447.76377	4431.7375
2450.53501	4448.1375
2453.30451	4432.5375
2456.07226	4430.7375
2458.83827	4445.5375
2461.60254	4431.6375
2464.36507	4428.5375
2467.12586	4430.9375
2469.88492	4427.1375
2472.64224	4437.8375
2475.39782	4431.4375
2478.15167	4440.0375
2480.90379	4460.7375
2483.65417	4450.9375
2486.40283	4449.8375
2489.14976	4438.0375
2491.89497	4457.0375
2494.63845	4457.0375
2497.3802	4457.2375
2500.12024	4459.3375
2502.85855	4441.6375
2505.59514	4449.9375
2508.33002	4437.2375
2511.06318	4411.4375
2513.79462	4409.5375
2516.52435	4413.9375
2519.25237	4406.5375
2521.97867	4386.6375
2524.70327	4401.3375
2527.42616	4403.1375
2530.14734	4380.7375
2532.86681	4401.2375
2535.58458	4368.4375
2538.30065	4376.3375
2541.01501	4376.5375
2543.72768	4364.7375
2546.43864	4370.0375
2549.14791	4373.7375
2551.85548	4356.0375
2554.56136	4365.8375
2557.26554	4357.4375
2559.96803	4351.1375
2562.66883	4351.2375
2565.36794	4343.9375
2568.06536	4328.1375
2570.7611	4330.0375
2573.45514	4337.4375
2576.14751	4342.7375
2578.83819	4333.3375
2581.52719	4343.5375
2584.21451	4339.6375
2586.90015	4326.7375
2589.58411	4338.9375
2592.2664	4339.0375
2594.94701	4316.4375
2597.62594	4326.8375
2600.30321	4319.4375
2602.9788	4306.2375
2605.65273	4296.9375
2608.32498	4312.5375
2610.99557	4313.0375
2613.66449	4321.4375
2616.33175	4307.9375
2618.99734	4327.8375
2621.66128	4301.8375
2624.32355	4301.7375
2626.98416	4319.4375
2629.64311	4316.5375
2632.30041	4303.3375
2634.95605	4314.7375
2637.61004	4309.8375
2640.26238	4300.8375
2642.91306	4306.9375
2645.56209	4319.5375
2648.20948	4319.3375
2650.85521	4308.9375
2653.4993	4314.5375
2656.14175	4307.0375
2658.78255	4301.8375
2661.42171	4321.7375
2664.05923	4334.7375
2666.6951	4325.1375
2669.32934	4313.1375
2671.96194	4321.6375
2674.59291	4316.8375
2677.22224	4301.9375
2679.84993	4310.7375
2682.476	4305.0375
2685.10043	4314.7375
2687.72324	4291.7375
2690.34441	4288.6375
2692.96396	4292.7375
2695.58188	4305.7375
2698.19818	4296.7375
2700.81285	4301.3375
2703.4259	4307.9375
2706.03733	4380.6375
2708.64714	4350.5375
2711.25533	4325.5375
2713.86191	4311.4375
2716.46687	4329.4375
2719.07021	4328.4375
2721.67194	4335.0375
2724.27206	4327.6375
2726.87057	4321.9375
2729.46747	4317.8375
2732.06276	4332.1375
2734.65644	4336.4375
2737.24852	4340.1375
2739.83899	4331.3375
2742.42786	4337.8375
2745.01513	4329.8375
2747.60079	4336.1375
2750.18486	4325.8375
2752.76733	4321.1375
2755.3482	4315.6375
2757.92747	4331.1375
2760.50515	4320.5375
2763.08123	4316.6375
2765.65573	4318.1375
2768.22863	4325.7375
2770.79994	4327.7375
2773.36967	4340.4375
2775.9378	4333.7375
2778.50435	4330.1375
2781.06932	4339.3375
2783.6327	4344.1375
2786.1945	4351.3375
2788.75471	4332.3375
2791.31335	4336.8375
2793.87041	4334.8375
2796.42589	4313.0375
2798.97979	4315.7375
2801.53212	4311.9375
2804.08288	4310.8375
2806.63206	4320.1375
2809.17967	4293.0375
2811.72571	4291.2375
2814.27018	4304.8375
2816.81308	4313.1375
2819.35442	4282.5375
2821.89419	4299.3375
2824.43239	4292.0375
2826.96904	4290.3375
2829.50412	4299.2375
2832.03763	4276.6375
2834.56959	4267.4375
2837.1	4271.3375
2839.62884	4275.6375
2842.15613	4273.4375
2844.68186	4287.8375
2847.20604	4290.5375
2849.72867	4275.2375
2852.24974	4273.1375
2854.76927	4286.6375
2857.28724	4297.7375
2859.80367	4282.9375
2862.31855	4266.3375
2864.83189	4261.2375
2867.34368	4263.3375
2869.85393	4259.4375
2872.36264	4261.9375
2874.8698	4263.7375
2877.37543	4259.1375
2879.87952	4268.3375
2882.38207	4272.5375
2884.88308	4270.4375
2887.38256	4274.9375
2889.88051	4292.9375
2892.37692	4297.5375
2894.8718	4295.5375
2897.36515	4307.9375
2899.85698	4320.3375
2902.34727	4331.5375
2904.83604	4327.5375
2907.32328	4350.3375
2909.809	4348.4375
2912.29319	4367.7375
2914.77587	4358.9375
2917.25702	4377.4375
2919.73665	4381.0375
2922.21476	4371.4375
2924.69136	4384.6375
2927.16644	4391.6375
2929.64	4392.0375
2932.11205	4399.4375
2934.58258	4366.5375
2937.05161	4364.4375
2939.51912	4387.3375
2941.98513	4375.9375
2944.44962	4383.3375
2946.91261	4364.7375
2949.37409	4368.5375
2951.83407	4368.5375
2954.29254	4345.8375
2956.74951	4341.4375
2959.20498	4322.6375
2961.65895	4301.6375
2964.11142	4290.9375
2966.56239	4272.3375
2969.01186	4246.1375
2971.45984	4248.4375
2973.90632	4221.9375
2976.35131	4193.5375
2978.7948	4182.5375
2981.23681	4173.1375
2983.67732	4152.5375
2986.11635	4130.7375
2988.55388	4122.8375
2990.98993	4108.6375
2993.4245	4091.5375
2995.85758	4082.2375
2998.28917	4088.8375
3000.71928	4061.6375
3003.14791	4060.5375
3005.57506	4074.9375
3008.00073	4055.0375
3010.42493	4050.7375
3012.84764	4039.6375
3015.26888	4016.9375
3017.68865	4022.1375
3020.10694	3998.9375
3022.52376	3999.2375
3024.9391	3982.9375
3027.35298	3969.4375
3029.76539	3966.2375
3032.17632	3955.8375
3034.5858	3965.3375
3036.9938	3935.9375
3039.40034	3946.6375
3041.80542	3939.1375
3044.20903	3933.0375
3046.61118	3941.1375
3049.01187	3923.8375
3051.4111	3920.7375
3053.80888	3905.0375
3056.20519	3895.8375
3058.60005	3903.4375
3060.99345	3884.7375
3063.3854	3879.8375
3065.7759	3855.2375
3068.16494	3835.2375
3070.55254	3822.0375
3072.93868	3827.9375
3075.32338	3819.4375
3077.70662	3800.3375
3080.08842	3797.2375
3082.46878	3791.8375
3084.84769	3790.2375
3087.22515	3783.4375
3089.60118	3817.5375
3091.97576	3800.9375
3094.3489	3789.9375
3096.72061	3777.9375
3099.09087	3802.7375
3101.4597	3793.0375
3103.82709	3781.4375
3106.19305	3776.4375
3108.55757	3775.0375
3110.92066	3775.0375
3113.28232	3756.6375
3115.64255	3758.8375
3118.00134	3741.7375
3120.35871	3747.5375
3122.71466	3734.9375
3125.06917	3731.8375
3127.42226	3721.4375
3129.77393	3748.9375
3132.12417	3714.7375
3134.47299	3731.7375
3136.82039	3739.3375
3139.16636	3736.4375
3141.51092	3741.4375
3143.85406	3725.4375
3146.19579	3734.7375
3148.53609	3725.2375
3150.87499	3731.6375
3153.21246	3723.6375
3155.54853	3735.4375
3157.88318	3715.2375
3160.21642	3740.7375
3162.54826	3727.8375
3164.87868	3729.5375
3167.2077	3745.4375
3169.5353	3740.6375
3171.86151	3735.9375
3174.18631	3750.2375
3176.5097	3736.1375
3178.83169	3725.1375
3181.15228	3735.3375
3183.47147	3739.0375
3185.78926	3734.9375
3188.10565	3740.9375
3190.42065	3739.1375
3192.73424	3745.2375
3195.04645	3737.8375
3197.35725	3753.6375
3199.66667	3756.3375
3201.97469	3758.3375
3204.28132	3754.5375
3206.58656	3753.9375
3208.8904	3759.9375
3211.19287	3751.7375
3213.49394	3751.4375
3215.79363	3758.5375
3218.09193	3748.7375
3220.38884	3751.9375
3222.68438	3767.1375
3224.97853	3761.2375
3227.2713	3758.8375
3229.56269	3749.9375
3231.8527	3743.6375
3234.14133	3743.4375
3236.42858	3745.4375
3238.71446	3752.4375
3240.99896	3736.2375
3243.28209	3741.8375
3245.56384	3725.6375
3247.84423	3733.5375
3250.12324	3730.6375
3252.40088	3725.9375
3254.67715	3709.1375
3256.95205	3721.5375
3259.22558	3716.4375
3261.49775	3681.0375
3263.76855	3682.2375
3266.03799	3680.4375
3268.30606	3667.7375
3270.57277	3668.0375
3272.83812	3655.2375
3275.10211	3647.0375
3277.36474	3644.6375
3279.62601	3652.4375
3281.88593	3645.3375
3284.14448	3665.9375
3286.40168	3659.6375
3288.65753	3652.5375
3290.91202	3661.9375
3293.16516	3655.1375
3295.41695	3649.1375
3297.66738	3618.3375
3299.91647	3617.6375
3302.16421	3591.2375
3304.4106	3567.4375
3306.65564	3565.9375
3308.89933	3523.4375
3311.14169	3503.6375
3313.38269	3485.8375
3315.62236	3469.3375
3317.86068	3435.0375
3320.09766	3396.5375
3322.3333	3382.1375
3324.5676	3370.6375
3326.80056	3335.1375
3329.03219	3309.1375
3331.26248	0.9375
3333.49143	0.1375
3335.71905	0.4375
