Data from AgNPs_FTO_APTES_UA_50um_CRN_0.1mM_R6G_10uM_NaF_0.1M_Addition_RamanShift__9__15-13-29-234.txt Node

Date: Tue Dec 21 15:13:29 GMT 2021
User: TCL
Spectrometer: QEP01345
Trigger mode: 4
Integration Time (sec): 7.000000E0
Scans to average: 10
Electric dark correction enabled: true
Nonlinearity correction enabled: false
Boxcar width: 0
XAxis mode: Raman Shifts
Number of Pixels in Spectrum: 1044
>>>>>Begin Spectral Data<<<<<
46.04893	0.7375
50.45542	-0.5625
54.85868	-1.0625
59.25871	0.2375
63.6555	33.7375
68.04907	44.1375
72.43941	43.5375
76.82654	46.0375
81.21044	50.7375
85.59113	51.6375
89.96862	55.1375
94.34289	54.4375
98.71396	55.4375
103.08183	62.1375
107.4465	61.3375
111.80798	63.0375
116.16626	62.7375
120.52136	61.1375
124.87327	64.1375
129.222	64.3375
133.56755	69.0375
137.90993	76.6375
142.24913	79.4375
146.58517	86.8375
150.91804	100.5375
155.24774	111.1375
159.57429	135.1375
163.89768	174.1375
168.21792	224.3375
172.53501	293.9375
176.84895	406.7375
181.15975	569.2375
185.46741	795.8375
189.77193	1088.1375
194.07331	1455.2375
198.37157	1897.5375
202.6667	2349.4375
206.9587	2790.5375
211.24758	3249.9375
215.53334	3686.2375
219.81599	4168.3375
224.09553	4715.8375
228.37195	5294.0375
232.64527	5948.0375
236.91549	6601.0375
241.18261	7267.2375
245.44663	7861.8375
249.70755	8391.1375
253.96539	8843.4375
258.22014	9204.0375
262.4718	9469.1375
266.72039	9690.4375
270.96589	9805.5375
275.20832	9801.6375
279.44768	9734.1375
283.68397	9628.5375
287.91719	9543.8375
292.14735	9496.7375
296.37445	9505.5375
300.59849	9563.3375
304.81948	9665.1375
309.03742	9680.4375
313.25231	9614.3375
317.46415	9390.1375
321.67296	9091.4375
325.87872	8830.7375
330.08145	8666.2375
334.28114	8641.9375
338.47781	8686.1375
342.67145	8775.5375
346.86207	8933.6375
351.04966	9107.8375
355.23424	9317.5375
359.4158	9457.2375
363.59435	9607.0375
367.76989	9678.4375
371.94243	9744.8375
376.11196	9754.4375
380.27849	9772.9375
384.44203	9823.7375
388.60257	9862.2375
392.76012	9937.7375
396.91468	10072.0375
401.06626	10179.9375
405.21485	10295.6375
409.36047	10238.3375
413.50311	10016.0375
417.64277	9822.2375
421.77947	9700.0375
425.9132	9675.7375
430.04396	9712.8375
434.17176	9773.7375
438.2966	9796.3375
442.41849	9889.6375
446.53742	10072.6375
450.6534	10252.8375
454.76644	10410.4375
458.87653	10475.2375
462.98368	10470.6375
467.08789	10435.4375
471.18916	10354.0375
475.2875	10279.7375
479.38291	10264.1375
483.4754	10181.6375
487.56496	10077.9375
491.6516	9981.7375
495.73531	9873.7375
499.81612	9785.3375
503.89401	9828.6375
507.96899	9866.7375
512.04106	9849.3375
516.11023	9863.2375
520.1765	9817.8375
524.23987	9750.3375
528.30034	9662.0375
532.35792	9589.7375
536.41261	9497.7375
540.46441	9403.5375
544.51333	9354.2375
548.55936	9460.0375
552.60252	9634.6375
556.64279	9813.4375
560.6802	9913.2375
564.71473	10011.8375
568.7464	10124.6375
572.7752	10355.7375
576.80114	10561.1375
580.82422	10687.2375
584.84444	10840.0375
588.86181	10963.4375
592.87633	11102.4375
596.888	11078.6375
600.89682	10956.2375
604.9028	11177.2375
608.90594	12219.6375
612.90624	13537.9375
616.90371	13006.3375
620.89834	10784.6375
624.89015	9643.9375
628.87913	9509.1375
632.86528	9635.4375
636.84862	9809.2375
640.82913	9748.0375
644.80683	9472.6375
648.78172	9243.8375
652.75379	9170.5375
656.72306	9222.7375
660.68952	9390.2375
664.65319	9348.9375
668.61405	9151.8375
672.57211	9101.3375
676.52738	9121.3375
680.47986	9155.1375
684.42955	9114.2375
688.37646	9017.1375
692.32058	8987.9375
696.26192	9023.9375
700.20048	9118.8375
704.13626	9183.2375
708.06928	9208.1375
711.99952	9175.4375
715.927	9122.6375
719.85171	9097.7375
723.77365	9128.0375
727.69284	9029.5375
731.60928	8940.1375
735.52295	8880.4375
739.43388	8875.9375
743.34206	8903.0375
747.24749	8913.3375
751.15017	8986.3375
755.05012	9097.0375
758.94733	9364.0375
762.8418	9833.4375
766.73354	10714.4375
770.62254	11623.4375
774.50882	11961.7375
778.39237	11465.3375
782.27321	10509.0375
786.15132	9672.0375
790.02671	9144.6375
793.89938	8915.6375
797.76935	8757.8375
801.6366	8728.3375
805.50115	8695.3375
809.36299	8675.0375
813.22213	8655.5375
817.07857	8622.8375
820.93231	8589.5375
824.78336	8537.4375
828.63172	8517.3375
832.47738	8479.6375
836.32036	8433.7375
840.16066	8409.8375
843.99827	8392.9375
847.8332	8371.4375
851.66546	8353.6375
855.49504	8351.7375
859.32195	8346.4375
863.1462	8320.6375
866.96777	8291.0375
870.78668	8304.3375
874.60293	8306.9375
878.41652	8318.8375
882.22745	8341.7375
886.03573	8385.4375
889.84136	8408.1375
893.64433	8384.8375
897.44466	8317.5375
901.24235	8302.8375
905.0374	8256.7375
908.8298	8205.7375
912.61957	8188.0375
916.40671	8268.1375
920.19121	8311.5375
923.97308	8358.7375
927.75233	8378.3375
931.52895	8326.2375
935.30295	8203.5375
939.07433	8051.8375
942.84309	7927.3375
946.60924	7829.3375
950.37278	7796.2375
954.13371	7779.7375
957.89203	7790.7375
961.64774	7727.9375
965.40086	7733.7375
969.15137	7727.8375
972.89929	7667.4375
976.64461	7635.1375
980.38733	7621.7375
984.12747	7605.9375
987.86502	7637.3375
991.59999	7651.8375
995.33237	7693.4375
999.06217	7745.2375
1002.78939	7844.0375
1006.51404	7947.9375
1010.23611	8063.3375
1013.95561	8151.5375
1017.67255	8182.8375
1021.38692	8139.3375
1025.09872	8055.7375
1028.80796	7943.4375
1032.51465	7869.7375
1036.21877	7881.1375
1039.92035	7929.5375
1043.61937	7957.0375
1047.31584	8011.0375
1051.00976	8029.0375
1054.70114	8070.5375
1058.38998	8110.0375
1062.07627	8166.0375
1065.76003	8244.1375
1069.44126	8327.4375
1073.11995	8448.7375
1076.79611	8557.7375
1080.46974	8613.8375
1084.14085	8631.2375
1087.80943	8705.1375
1091.47549	8769.6375
1095.13903	8797.2375
1098.80005	8687.7375
1102.45857	8510.5375
1106.11456	8330.3375
1109.76805	8227.2375
1113.41903	8254.7375
1117.06751	8344.7375
1120.71348	8483.3375
1124.35696	8687.6375
1127.99793	8863.4375
1131.63641	9006.1375
1135.2724	8927.3375
1138.90589	8786.3375
1142.5369	8690.7375
1146.16542	8654.9375
1149.79145	8608.7375
1153.415	8614.2375
1157.03607	8666.7375
1160.65467	8816.8375
1164.27079	9073.6375
1167.88443	9458.6375
1171.49561	9996.3375
1175.10432	10712.1375
1178.71056	11646.9375
1182.31434	12441.2375
1185.91565	12850.6375
1189.51451	12767.1375
1193.11091	12404.2375
1196.70485	11901.8375
1200.29634	11419.1375
1203.88538	11028.8375
1207.47197	10683.4375
1211.05612	10359.1375
1214.63782	10052.7375
1218.21708	9810.8375
1221.79391	9598.8375
1225.36829	9461.7375
1228.94024	9387.4375
1232.50976	9348.2375
1236.07685	9297.3375
1239.6415	9250.4375
1243.20374	9243.4375
1246.76355	9261.2375
1250.32093	9355.9375
1253.8759	9480.3375
1257.42845	9708.1375
1260.97859	9977.4375
1264.52631	10220.8375
1268.07163	10445.5375
1271.61453	10662.3375
1275.15503	10869.8375
1278.69312	11097.1375
1282.22882	11310.8375
1285.76211	11626.6375
1289.29301	12001.3375
1292.82151	12472.1375
1296.34761	13039.6375
1299.87133	13629.5375
1303.39266	14360.8375
1306.9116	15078.6375
1310.42815	15780.9375
1313.94233	16167.6375
1317.45412	16056.0375
1320.96354	15716.6375
1324.47058	15296.3375
1327.97525	14985.6375
1331.47754	14702.2375
1334.97747	14511.3375
1338.47502	14405.4375
1341.97022	14396.7375
1345.46305	14469.3375
1348.95352	14642.3375
1352.44163	14896.0375
1355.92738	15377.9375
1359.41078	16256.3375
1362.89183	17206.4375
1366.37053	17213.5375
1369.84688	15788.3375
1373.32088	13914.4375
1376.79254	12554.9375
1380.26186	11907.7375
1383.72883	11676.6375
1387.19347	11505.0375
1390.65578	11313.3375
1394.11575	11154.7375
1397.57339	11069.3375
1401.0287	11052.3375
1404.48168	11017.4375
1407.93234	10881.7375
1411.38068	10635.9375
1414.82669	10367.8375
1418.27039	10035.0375
1421.71177	9771.6375
1425.15083	9480.2375
1428.58758	9330.3375
1432.02203	9324.8375
1435.45416	9440.1375
1438.88399	9634.1375
1442.31151	9708.8375
1445.73673	9836.5375
1449.15965	9940.0375
1452.58027	10052.0375
1455.9986	10124.1375
1459.41463	10196.4375
1462.82837	10336.3375
1466.23982	10484.7375
1469.64898	10636.5375
1473.05586	10758.9375
1476.46045	10778.0375
1479.86276	10809.6375
1483.26279	10854.5375
1486.66054	10945.9375
1490.05602	11154.3375
1493.44922	11424.5375
1496.84016	11891.5375
1500.22882	12583.6375
1503.61521	13489.7375
1506.99934	14504.2375
1510.38121	15298.9375
1513.76081	15443.0375
1517.13816	14886.6375
1520.51324	13904.3375
1523.88607	12985.4375
1527.25665	12418.8375
1530.62498	12048.4375
1533.99105	11856.3375
1537.35488	11596.3375
1540.71647	11314.9375
1544.07581	11011.3375
1547.4329	10687.7375
1550.78776	10465.6375
1554.14038	10319.8375
1557.49077	10264.2375
1560.83892	10357.6375
1564.18484	10488.3375
1567.52853	10666.9375
1570.86999	10849.4375
1574.20922	11048.7375
1577.54624	11146.6375
1580.88103	11016.0375
1584.2136	10735.5375
1587.54395	10599.3375
1590.87208	10725.1375
1594.19801	11038.5375
1597.52172	11461.4375
1600.84321	11628.8375
1604.16251	11288.6375
1607.47959	10649.1375
1610.79447	9971.7375
1614.10715	9320.7375
1617.41763	8767.7375
1620.7259	8353.5375
1624.03199	8121.2375
1627.33587	8034.1375
1630.63757	8177.2375
1633.93707	8503.6375
1637.23439	9139.7375
1640.52951	10112.3375
1643.82246	11365.8375
1647.11321	12676.4375
1650.40179	13371.0375
1653.68819	13008.9375
1656.97241	11652.2375
1660.25446	10059.6375
1663.53433	8814.1375
1666.81203	7977.4375
1670.08756	7464.5375
1673.36092	7113.7375
1676.63211	6903.0375
1679.90115	6755.7375
1683.16801	6632.7375
1686.43272	6541.9375
1689.69527	6483.0375
1692.95567	6400.1375
1696.2139	6380.6375
1699.46999	6351.5375
1702.72392	6281.3375
1705.97571	6234.9375
1709.22535	6167.4375
1712.47284	6123.1375
1715.71819	6080.5375
1718.96139	6067.6375
1722.20246	6024.0375
1725.44139	6003.6375
1728.67818	5951.1375
1731.91284	5906.3375
1735.14537	5860.7375
1738.37576	5839.6375
1741.60403	5835.2375
1744.83017	5794.1375
1748.05418	5798.5375
1751.27607	5790.8375
1754.49584	5790.0375
1757.71349	5796.3375
1760.92903	5788.9375
1764.14244	5768.4375
1767.35375	5782.4375
1770.56294	5728.4375
1773.77002	5697.8375
1776.97499	5674.1375
1780.17785	5629.2375
1783.37861	5613.9375
1786.57727	5569.1375
1789.77382	5553.0375
1792.96828	5531.4375
1796.16064	5527.2375
1799.3509	5496.9375
1802.53907	5479.7375
1805.72514	5467.3375
1808.90913	5443.6375
1812.09102	5422.6375
1815.27083	5411.5375
1818.44856	5393.5375
1821.6242	5395.3375
1824.79776	5380.1375
1827.96924	5347.5375
1831.13864	5353.7375
1834.30597	5356.2375
1837.47122	5339.5375
1840.6344	5334.6375
1843.7955	5327.7375
1846.95454	5321.7375
1850.11151	5317.9375
1853.26642	5287.0375
1856.41926	5283.6375
1859.57004	5285.8375
1862.71876	5270.8375
1865.86542	5250.7375
1869.01003	5258.7375
1872.15258	5244.2375
1875.29308	5227.7375
1878.43152	5213.9375
1881.56792	5220.6375
1884.70227	5202.6375
1887.83457	5190.1375
1890.96482	5177.7375
1894.09304	5161.2375
1897.21921	5161.8375
1900.34335	5138.9375
1903.46544	5152.1375
1906.58551	5126.5375
1909.70353	5118.5375
1912.81953	5096.8375
1915.93349	5101.2375
1919.04543	5092.0375
1922.15534	5072.3375
1925.26322	5052.8375
1928.36908	5042.8375
1931.47292	5025.7375
1934.57473	5006.2375
1937.67453	4989.6375
1940.77232	4981.8375
1943.86808	4956.3375
1946.96184	4950.3375
1950.05358	4937.5375
1953.14331	4916.9375
1956.23103	4887.2375
1959.31675	4874.0375
1962.40046	4858.0375
1965.48217	4846.4375
1968.56188	4826.4375
1971.63959	4838.9375
1974.7153	4808.5375
1977.78901	4775.8375
1980.86073	4763.5375
1983.93046	4751.4375
1986.99819	4717.9375
1990.06394	4704.6375
1993.1277	4696.1375
1996.18947	4646.1375
1999.24925	4652.9375
2002.30706	4646.0375
2005.36288	4619.6375
2008.41672	4612.0375
2011.46859	4590.7375
2014.51848	4582.3375
2017.56639	4567.6375
2020.61233	4541.9375
2023.6563	4526.8375
2026.6983	4521.0375
2029.73833	4484.0375
2032.7764	4479.2375
2035.8125	4471.2375
2038.84664	4447.7375
2041.87881	4453.7375
2044.90903	4436.1375
2047.93729	4424.8375
2050.96359	4433.2375
2053.98794	4425.2375
2057.01034	4410.1375
2060.03078	4403.2375
2063.04927	4392.8375
2066.06582	4385.9375
2069.08042	4394.1375
2072.09307	4385.2375
2075.10378	4371.3375
2078.11255	4361.2375
2081.11938	4369.1375
2084.12426	4362.9375
2087.12722	4352.0375
2090.12824	4358.7375
2093.12732	4356.5375
2096.12447	4346.9375
2099.11969	4342.6375
2102.11299	4341.3375
2105.10435	4347.8375
2108.09379	4345.2375
2111.08131	4347.3375
2114.0669	4355.4375
2117.05057	4350.2375
2120.03233	4352.7375
2123.01216	4321.4375
2125.99008	4344.3375
2128.96609	4345.1375
2131.94018	4344.9375
2134.91236	4340.4375
2137.88263	4328.0375
2140.851	4339.7375
2143.81746	4335.7375
2146.78201	4331.3375
2149.74466	4318.0375
2152.7054	4325.6375
2155.66425	4305.0375
2158.6212	4309.6375
2161.57625	4305.2375
2164.52941	4319.0375
2167.48067	4294.9375
2170.43004	4288.0375
2173.37752	4295.1375
2176.32311	4288.1375
2179.26681	4293.1375
2182.20863	4278.9375
2185.14856	4275.6375
2188.08661	4275.1375
2191.02278	4266.1375
2193.95707	4257.9375
2196.88948	4261.3375
2199.82001	4248.4375
2202.74867	4237.4375
2205.67545	4228.1375
2208.60037	4222.4375
2211.52341	4194.1375
2214.44458	4219.3375
2217.36388	4195.5375
2220.28132	4190.6375
2223.1969	4164.2375
2226.11061	4168.6375
2229.02246	4139.6375
2231.93245	4134.2375
2234.84058	4139.1375
2237.74686	4132.2375
2240.65128	4116.4375
2243.55385	4123.6375
2246.45456	4107.6375
2249.35343	4098.6375
2252.25044	4083.0375
2255.14561	4083.2375
2258.03893	4066.7375
2260.93041	4069.2375
2263.82004	4056.5375
2266.70783	4050.0375
2269.59378	4026.8375
2272.4779	4015.2375
2275.36017	4008.7375
2278.24061	4006.7375
2281.11922	3990.8375
2283.996	3981.6375
2286.87094	3990.3375
2289.74405	3966.6375
2292.61534	3959.4375
2295.4848	3943.9375
2298.35243	3958.9375
2301.21824	3914.4375
2304.08223	3928.4375
2306.94439	3920.2375
2309.80474	3912.8375
2312.66327	3923.1375
2315.51999	3900.1375
2318.37489	3896.1375
2321.22797	3894.9375
2324.07925	3893.2375
2326.92871	3872.7375
2329.77637	3887.8375
2332.62222	3874.5375
2335.46626	3874.9375
2338.3085	3843.8375
2341.14893	3861.7375
2343.98756	3847.7375
2346.8244	3840.6375
2349.65943	3835.3375
2352.49267	3836.9375
2355.32411	3846.3375
2358.15376	3844.7375
2360.98161	3835.8375
2363.80768	3832.0375
2366.63195	3834.5375
2369.45444	3838.9375
2372.27514	3810.8375
2375.09405	3814.5375
2377.91118	3799.1375
2380.72652	3773.9375
2383.54009	3787.0375
2386.35187	3757.1375
2389.16188	3754.6375
2391.97011	3744.0375
2394.77657	3733.6375
2397.58125	3730.3375
2400.38416	3727.7375
2403.18529	3720.7375
2405.98466	3705.8375
2408.78226	3696.3375
2411.57809	3682.0375
2414.37216	3684.1375
2417.16446	3691.3375
2419.955	3673.0375
2422.74378	3662.5375
2425.5308	3667.3375
2428.31606	3647.7375
2431.09956	3674.2375
2433.88131	3653.0375
2436.6613	3652.0375
2439.43954	3649.9375
2442.21603	3642.6375
2444.99077	3634.9375
2447.76377	3644.4375
2450.53501	3624.0375
2453.30451	3628.8375
2456.07226	3628.7375
2458.83827	3604.3375
2461.60254	3620.8375
2464.36507	3613.4375
2467.12586	3610.3375
2469.88492	3602.3375
2472.64224	3607.0375
2475.39782	3601.4375
2478.15167	3609.0375
2480.90379	3615.4375
2483.65417	3607.8375
2486.40283	3593.3375
2489.14976	3598.9375
2491.89497	3587.5375
2494.63845	3601.6375
2497.3802	3590.1375
2500.12024	3588.4375
2502.85855	3583.5375
2505.59514	3575.3375
2508.33002	3563.9375
2511.06318	3553.8375
2513.79462	3553.6375
2516.52435	3540.1375
2519.25237	3533.2375
2521.97867	3529.1375
2524.70327	3519.5375
2527.42616	3523.3375
2530.14734	3506.8375
2532.86681	3497.6375
2535.58458	3497.1375
2538.30065	3475.7375
2541.01501	3480.3375
2543.72768	3487.2375
2546.43864	3475.7375
2549.14791	3481.4375
2551.85548	3464.2375
2554.56136	3471.3375
2557.26554	3466.3375
2559.96803	3450.1375
2562.66883	3430.1375
2565.36794	3435.0375
2568.06536	3434.2375
2570.7611	3432.1375
2573.45514	3421.1375
2576.14751	3425.7375
2578.83819	3400.7375
2581.52719	3389.7375
2584.21451	3385.8375
2586.90015	3374.2375
2589.58411	3387.2375
2592.2664	3371.5375
2594.94701	3365.2375
2597.62594	3367.8375
2600.30321	3353.1375
2602.9788	3336.4375
2605.65273	3341.9375
2608.32498	3347.6375
2610.99557	3332.9375
2613.66449	3338.8375
2616.33175	3326.9375
2618.99734	3330.3375
2621.66128	3319.7375
2624.32355	3319.7375
2626.98416	3315.0375
2629.64311	3292.3375
2632.30041	3289.0375
2634.95605	3301.2375
2637.61004	3284.3375
2640.26238	3294.9375
2642.91306	3283.4375
2645.56209	3260.3375
2648.20948	3276.5375
2650.85521	3262.5375
2653.4993	3270.4375
2656.14175	3260.4375
2658.78255	3268.5375
2661.42171	3272.4375
2664.05923	3259.9375
2666.6951	3264.5375
2669.32934	3270.9375
2671.96194	3274.4375
2674.59291	3263.1375
2677.22224	3272.1375
2679.84993	3266.1375
2682.476	3279.4375
2685.10043	3274.5375
2687.72324	3259.2375
2690.34441	3251.9375
2692.96396	3258.0375
2695.58188	3256.7375
2698.19818	3262.9375
2700.81285	3267.1375
2703.4259	3282.0375
2706.03733	3326.9375
2708.64714	3295.4375
2711.25533	3267.3375
2713.86191	3254.5375
2716.46687	3262.5375
2719.07021	3258.1375
2721.67194	3252.8375
2724.27206	3261.9375
2726.87057	3250.8375
2729.46747	3254.6375
2732.06276	3243.6375
2734.65644	3257.1375
2737.24852	3242.7375
2739.83899	3221.9375
2742.42786	3231.1375
2745.01513	3225.1375
2747.60079	3218.0375
2750.18486	3220.3375
2752.76733	3219.0375
2755.3482	3208.6375
2757.92747	3210.1375
2760.50515	3192.1375
2763.08123	3202.4375
2765.65573	3193.7375
2768.22863	3190.8375
2770.79994	3188.0375
2773.36967	3188.7375
2775.9378	3179.0375
2778.50435	3165.7375
2781.06932	3163.4375
2783.6327	3161.7375
2786.1945	3161.7375
2788.75471	3166.5375
2791.31335	3149.9375
2793.87041	3153.3375
2796.42589	3132.1375
2798.97979	3138.4375
2801.53212	3122.6375
2804.08288	3129.9375
2806.63206	3118.9375
2809.17967	3110.2375
2811.72571	3102.9375
2814.27018	3102.9375
2816.81308	3107.0375
2819.35442	3111.5375
2821.89419	3086.2375
2824.43239	3086.4375
2826.96904	3090.5375
2829.50412	3094.1375
2832.03763	3090.7375
2834.56959	3086.9375
2837.1	3085.9375
2839.62884	3089.7375
2842.15613	3098.3375
2844.68186	3093.1375
2847.20604	3098.1375
2849.72867	3116.3375
2852.24974	3114.2375
2854.76927	3116.0375
2857.28724	3120.4375
2859.80367	3097.6375
2862.31855	3101.5375
2864.83189	3094.7375
2867.34368	3098.1375
2869.85393	3085.4375
2872.36264	3081.0375
2874.8698	3070.3375
2877.37543	3069.8375
2879.87952	3079.1375
2882.38207	3070.4375
2884.88308	3067.1375
2887.38256	3079.3375
2889.88051	3072.2375
2892.37692	3065.8375
2894.8718	3060.3375
2897.36515	3078.8375
2899.85698	3067.7375
2902.34727	3078.2375
2904.83604	3073.1375
2907.32328	3075.5375
2909.809	3067.6375
2912.29319	3089.3375
2914.77587	3082.2375
2917.25702	3078.1375
2919.73665	3083.9375
2922.21476	3078.8375
2924.69136	3082.3375
2927.16644	3097.6375
2929.64	3084.9375
2932.11205	3073.8375
2934.58258	3060.4375
2937.05161	3068.2375
2939.51912	3060.9375
2941.98513	3065.1375
2944.44962	3050.3375
2946.91261	3039.8375
2949.37409	3039.1375
2951.83407	3038.1375
2954.29254	3040.1375
2956.74951	3016.6375
2959.20498	3028.9375
2961.65895	3007.3375
2964.11142	3007.7375
2966.56239	2988.1375
2969.01186	2983.8375
2971.45984	2984.8375
2973.90632	2968.8375
2976.35131	2963.4375
2978.7948	2937.9375
2981.23681	2948.8375
2983.67732	2945.4375
2986.11635	2927.1375
2988.55388	2902.3375
2990.98993	2912.1375
2993.4245	2906.8375
2995.85758	2886.6375
2998.28917	2889.7375
3000.71928	2891.6375
3003.14791	2884.9375
3005.57506	2874.5375
3008.00073	2883.2375
3010.42493	2873.1375
3012.84764	2865.9375
3015.26888	2852.6375
3017.68865	2863.8375
3020.10694	2856.9375
3022.52376	2856.6375
3024.9391	2850.0375
3027.35298	2848.8375
3029.76539	2839.1375
3032.17632	2834.7375
3034.5858	2824.2375
3036.9938	2825.1375
3039.40034	2821.8375
3041.80542	2812.0375
3044.20903	2810.0375
3046.61118	2812.0375
3049.01187	2800.2375
3051.4111	2798.3375
3053.80888	2798.8375
3056.20519	2792.2375
3058.60005	2786.5375
3060.99345	2776.5375
3063.3854	2781.8375
3065.7759	2772.1375
3068.16494	2778.1375
3070.55254	2772.8375
3072.93868	2759.3375
3075.32338	2757.6375
3077.70662	2751.5375
3080.08842	2753.3375
3082.46878	2755.1375
3084.84769	2745.6375
3087.22515	2749.3375
3089.60118	2752.9375
3091.97576	2745.8375
3094.3489	2747.3375
3096.72061	2757.5375
3099.09087	2737.3375
3101.4597	2736.6375
3103.82709	2747.0375
3106.19305	2742.5375
3108.55757	2736.3375
3110.92066	2738.8375
3113.28232	2733.8375
3115.64255	2727.7375
3118.00134	2732.5375
3120.35871	2727.1375
3122.71466	2727.1375
3125.06917	2720.7375
3127.42226	2714.4375
3129.77393	2717.6375
3132.12417	2724.5375
3134.47299	2737.7375
3136.82039	2734.3375
3139.16636	2736.4375
3141.51092	2749.2375
3143.85406	2742.7375
3146.19579	2741.7375
3148.53609	2751.2375
3150.87499	2760.3375
3153.21246	2748.6375
3155.54853	2767.9375
3157.88318	2772.0375
3160.21642	2759.4375
3162.54826	2763.4375
3164.87868	2760.8375
3167.2077	2773.7375
3169.5353	2780.1375
3171.86151	2771.7375
3174.18631	2776.0375
3176.5097	2771.2375
3178.83169	2770.6375
3181.15228	2774.4375
3183.47147	2782.2375
3185.78926	2766.8375
3188.10565	2765.9375
3190.42065	2773.1375
3192.73424	2771.6375
3195.04645	2768.7375
3197.35725	2781.5375
3199.66667	2786.7375
3201.97469	2790.1375
3204.28132	2778.1375
3206.58656	2798.9375
3208.8904	2803.0375
3211.19287	2783.3375
3213.49394	2800.0375
3215.79363	2806.6375
3218.09193	2798.7375
3220.38884	2810.3375
3222.68438	2829.3375
3224.97853	2808.6375
3227.2713	2812.7375
3229.56269	2797.7375
3231.8527	2802.8375
3234.14133	2792.2375
3236.42858	2788.7375
3238.71446	2784.7375
3240.99896	2777.2375
3243.28209	2779.6375
3245.56384	2777.9375
3247.84423	2772.2375
3250.12324	2765.8375
3252.40088	2775.4375
3254.67715	2768.6375
3256.95205	2767.1375
3259.22558	2762.1375
3261.49775	2755.0375
3263.76855	2756.4375
3266.03799	2730.7375
3268.30606	2738.8375
3270.57277	2735.5375
3272.83812	2731.8375
3275.10211	2727.6375
3277.36474	2731.3375
3279.62601	2723.2375
3281.88593	2726.7375
3284.14448	2732.9375
3286.40168	2722.8375
3288.65753	2710.6375
3290.91202	2716.7375
3293.16516	2707.0375
3295.41695	2714.3375
3297.66738	2689.7375
3299.91647	2675.3375
3302.16421	2660.8375
3304.4106	2653.9375
3306.65564	2639.5375
3308.89933	2626.0375
3311.14169	2612.1375
3313.38269	2604.9375
3315.62236	2578.0375
3317.86068	2551.9375
3320.09766	2526.4375
3322.3333	2519.5375
3324.5676	2507.5375
3326.80056	2480.5375
3329.03219	2465.4375
3331.26248	0.3375
3333.49143	0.7375
3335.71905	0.7375
