Data from AgNPs_FTO_APTES_UA_10um_CRN_0.1mM_R6G_10uM_NaF_0.1M_Addition_RamanShift__29__14-09-19-160.txt Node

Date: Tue Dec 21 14:09:19 GMT 2021
User: TCL
Spectrometer: QEP01345
Trigger mode: 4
Integration Time (sec): 7.000000E0
Scans to average: 10
Electric dark correction enabled: true
Nonlinearity correction enabled: false
Boxcar width: 0
XAxis mode: Raman Shifts
Number of Pixels in Spectrum: 1044
>>>>>Begin Spectral Data<<<<<
46.04893	0.1375
50.45542	-0.0625
54.85868	0.1375
59.25871	-1.0625
63.6555	31.3375
68.04907	39.1375
72.43941	39.7375
76.82654	38.8375
81.21044	45.7375
85.59113	44.5375
89.96862	45.9375
94.34289	46.4375
98.71396	51.1375
103.08183	51.1375
107.4465	54.2375
111.80798	51.4375
116.16626	54.5375
120.52136	57.1375
124.87327	55.1375
129.222	54.5375
133.56755	61.6375
137.90993	66.3375
142.24913	65.8375
146.58517	75.4375
150.91804	85.1375
155.24774	98.9375
159.57429	119.8375
163.89768	146.7375
168.21792	192.3375
172.53501	256.1375
176.84895	353.0375
181.15975	493.6375
185.46741	686.0375
189.77193	941.4375
194.07331	1264.9375
198.37157	1625.8375
202.6667	2010.7375
206.9587	2394.9375
211.24758	2771.3375
215.53334	3167.4375
219.81599	3578.7375
224.09553	4038.8375
228.37195	4556.6375
232.64527	5117.5375
236.91549	5719.4375
241.18261	6284.1375
245.44663	6800.0375
249.70755	7267.3375
253.96539	7652.4375
258.22014	7965.2375
262.4718	8197.1375
266.72039	8362.9375
270.96589	8411.7375
275.20832	8464.6375
279.44768	8413.7375
283.68397	8378.9375
287.91719	8351.8375
292.14735	8344.5375
296.37445	8375.9375
300.59849	8515.2375
304.81948	8659.8375
309.03742	8756.4375
313.25231	8711.9375
317.46415	8425.2375
321.67296	7968.3375
325.87872	7615.1375
330.08145	7415.3375
334.28114	7403.0375
338.47781	7532.8375
342.67145	7681.7375
346.86207	7916.1375
351.04966	8238.8375
355.23424	8588.8375
359.4158	8895.8375
363.59435	9052.8375
367.76989	9085.5375
371.94243	9059.4375
376.11196	9040.1375
380.27849	9011.7375
384.44203	9009.5375
388.60257	8989.2375
392.76012	9002.5375
396.91468	9134.6375
401.06626	9359.2375
405.21485	9575.9375
409.36047	9541.9375
413.50311	9296.7375
417.64277	9016.6375
421.77947	8824.2375
425.9132	8793.1375
430.04396	8839.0375
434.17176	8863.2375
438.2966	8957.3375
442.41849	9118.6375
446.53742	9345.5375
450.6534	9603.3375
454.76644	9788.6375
458.87653	9836.4375
462.98368	9786.2375
467.08789	9683.8375
471.18916	9504.7375
475.2875	9320.5375
479.38291	9209.7375
483.4754	9074.4375
487.56496	8973.1375
491.6516	8886.6375
495.73531	8855.4375
499.81612	8823.0375
503.89401	8872.6375
507.96899	8890.0375
512.04106	8907.5375
516.11023	8942.0375
520.1765	8957.7375
524.23987	8926.0375
528.30034	8851.0375
532.35792	8726.5375
536.41261	8589.7375
540.46441	8442.1375
544.51333	8377.2375
548.55936	8453.6375
552.60252	8584.8375
556.64279	8775.0375
560.6802	8882.4375
564.71473	9007.7375
568.7464	9272.9375
572.7752	9492.7375
576.80114	9474.2375
580.82422	9411.0375
584.84444	9376.6375
588.86181	9405.2375
592.87633	9424.0375
596.888	9473.1375
600.89682	9666.6375
604.9028	10317.5375
608.90594	12004.7375
612.90624	14137.4375
616.90371	13737.0375
620.89834	10766.3375
624.89015	9260.6375
628.87913	9027.1375
632.86528	9107.1375
636.84862	9178.9375
640.82913	9019.5375
644.80683	8706.9375
648.78172	8468.6375
652.75379	8432.9375
656.72306	8652.8375
660.68952	8921.3375
664.65319	8926.3375
668.61405	8677.9375
672.57211	8524.6375
676.52738	8549.6375
680.47986	8571.4375
684.42955	8535.0375
688.37646	8488.5375
692.32058	8520.7375
696.26192	8565.1375
700.20048	8660.9375
704.13626	8752.0375
708.06928	8795.4375
711.99952	8678.5375
715.927	8610.2375
719.85171	8591.9375
723.77365	8542.6375
727.69284	8470.1375
731.60928	8369.0375
735.52295	8336.5375
739.43388	8334.0375
743.34206	8384.6375
747.24749	8479.6375
751.15017	8551.6375
755.05012	8720.8375
758.94733	9065.5375
762.8418	9708.4375
766.73354	10794.6375
770.62254	11849.3375
774.50882	12319.3375
778.39237	11911.4375
782.27321	10709.2375
786.15132	9556.8375
790.02671	8837.2375
793.89938	8531.2375
797.76935	8383.4375
801.6366	8342.6375
805.50115	8351.6375
809.36299	8375.4375
813.22213	8369.6375
817.07857	8352.7375
820.93231	8318.3375
824.78336	8268.6375
828.63172	8259.4375
832.47738	8260.1375
836.32036	8246.8375
840.16066	8204.8375
843.99827	8184.1375
847.8332	8165.4375
851.66546	8144.4375
855.49504	8121.2375
859.32195	8097.9375
863.1462	8063.8375
866.96777	8083.4375
870.78668	8031.9375
874.60293	8091.4375
878.41652	8118.3375
882.22745	8169.7375
886.03573	8211.1375
889.84136	8228.4375
893.64433	8164.3375
897.44466	8090.5375
901.24235	8068.9375
905.0374	8010.1375
908.8298	8007.4375
912.61957	7958.6375
916.40671	8041.3375
920.19121	8083.5375
923.97308	8171.9375
927.75233	8221.9375
931.52895	8209.9375
935.30295	8104.7375
939.07433	7958.6375
942.84309	7811.3375
946.60924	7694.0375
950.37278	7671.3375
954.13371	7624.0375
957.89203	7597.8375
961.64774	7586.6375
965.40086	7565.8375
969.15137	7537.2375
972.89929	7502.2375
976.64461	7473.7375
980.38733	7474.8375
984.12747	7494.0375
987.86502	7531.1375
991.59999	7560.4375
995.33237	7644.6375
999.06217	7808.9375
1002.78939	8013.2375
1006.51404	8215.0375
1010.23611	8429.6375
1013.95561	8544.2375
1017.67255	8569.3375
1021.38692	8469.1375
1025.09872	8318.1375
1028.80796	8241.3375
1032.51465	8284.7375
1036.21877	8365.8375
1039.92035	8436.9375
1043.61937	8485.9375
1047.31584	8428.2375
1051.00976	8366.9375
1054.70114	8354.7375
1058.38998	8362.1375
1062.07627	8424.8375
1065.76003	8530.3375
1069.44126	8594.6375
1073.11995	8689.4375
1076.79611	8761.1375
1080.46974	8775.0375
1084.14085	8827.0375
1087.80943	8952.8375
1091.47549	9007.8375
1095.13903	8916.3375
1098.80005	8718.7375
1102.45857	8482.9375
1106.11456	8323.6375
1109.76805	8292.6375
1113.41903	8369.0375
1117.06751	8541.6375
1120.71348	8796.0375
1124.35696	9086.9375
1127.99793	9340.1375
1131.63641	9343.8375
1135.2724	9120.8375
1138.90589	8889.3375
1142.5369	8741.1375
1146.16542	8613.0375
1149.79145	8551.0375
1153.415	8528.1375
1157.03607	8592.1375
1160.65467	8747.2375
1164.27079	8954.1375
1167.88443	9306.8375
1171.49561	9845.7375
1175.10432	10705.4375
1178.71056	11846.8375
1182.31434	12694.7375
1185.91565	13018.8375
1189.51451	12912.2375
1193.11091	12521.3375
1196.70485	11998.4375
1200.29634	11470.7375
1203.88538	11033.6375
1207.47197	10482.0375
1211.05612	10061.3375
1214.63782	9762.2375
1218.21708	9658.4375
1221.79391	9628.7375
1225.36829	9663.8375
1228.94024	9663.2375
1232.50976	9733.2375
1236.07685	9721.6375
1239.6415	9718.4375
1243.20374	9746.4375
1246.76355	9796.3375
1250.32093	9896.1375
1253.8759	10089.6375
1257.42845	10321.1375
1260.97859	10563.6375
1264.52631	10779.7375
1268.07163	10954.6375
1271.61453	11164.3375
1275.15503	11359.2375
1278.69312	11535.9375
1282.22882	11686.4375
1285.76211	11946.2375
1289.29301	12295.8375
1292.82151	12658.0375
1296.34761	13019.4375
1299.87133	13586.0375
1303.39266	14383.2375
1306.9116	15460.5375
1310.42815	16646.9375
1313.94233	17294.2375
1317.45412	17152.4375
1320.96354	16506.4375
1324.47058	15800.2375
1327.97525	15251.2375
1331.47754	14940.7375
1334.97747	14933.1375
1338.47502	15156.9375
1341.97022	15438.3375
1345.46305	15727.1375
1348.95352	15894.0375
1352.44163	16203.4375
1355.92738	16839.3375
1359.41078	18070.0375
1362.89183	19095.4375
1366.37053	18657.3375
1369.84688	16814.9375
1373.32088	14966.8375
1376.79254	13610.1375
1380.26186	12801.8375
1383.72883	12363.8375
1387.19347	12094.7375
1390.65578	11847.4375
1394.11575	11720.5375
1397.57339	11705.8375
1401.0287	11834.0375
1404.48168	12036.9375
1407.93234	12272.7375
1411.38068	12409.8375
1414.82669	12321.6375
1418.27039	12006.0375
1421.71177	11635.7375
1425.15083	11292.5375
1428.58758	11140.2375
1432.02203	11116.7375
1435.45416	11126.0375
1438.88399	11171.8375
1442.31151	11147.5375
1445.73673	11178.2375
1449.15965	11290.4375
1452.58027	11288.9375
1455.9986	11232.5375
1459.41463	11245.8375
1462.82837	11421.9375
1466.23982	11552.9375
1469.64898	11807.2375
1473.05586	11938.3375
1476.46045	11996.8375
1479.86276	12141.9375
1483.26279	12323.6375
1486.66054	12568.2375
1490.05602	12888.6375
1493.44922	13285.9375
1496.84016	13859.7375
1500.22882	14624.2375
1503.61521	15643.5375
1506.99934	16680.1375
1510.38121	17535.2375
1513.76081	17702.1375
1517.13816	16945.8375
1520.51324	15545.8375
1523.88607	14260.0375
1527.25665	13400.3375
1530.62498	12905.8375
1533.99105	12606.5375
1537.35488	12481.6375
1540.71647	12369.6375
1544.07581	12317.4375
1547.4329	12214.0375
1550.78776	12086.8375
1554.14038	11978.4375
1557.49077	11929.6375
1560.83892	12025.7375
1564.18484	12211.7375
1567.52853	12388.8375
1570.86999	12527.1375
1574.20922	12608.9375
1577.54624	12499.4375
1580.88103	12169.9375
1584.2136	11724.9375
1587.54395	11602.7375
1590.87208	11899.8375
1594.19801	12548.2375
1597.52172	13336.1375
1600.84321	13721.3375
1604.16251	13414.9375
1607.47959	12627.5375
1610.79447	11688.7375
1614.10715	10820.4375
1617.41763	10123.8375
1620.7259	9679.0375
1624.03199	9444.2375
1627.33587	9418.2375
1630.63757	9577.4375
1633.93707	9945.5375
1637.23439	10554.1375
1640.52951	11392.1375
1643.82246	12462.0375
1647.11321	13511.1375
1650.40179	14069.3375
1653.68819	13633.8375
1656.97241	12253.8375
1660.25446	10724.7375
1663.53433	9543.2375
1666.81203	8777.7375
1670.08756	8320.0375
1673.36092	8030.2375
1676.63211	7833.4375
1679.90115	7691.9375
1683.16801	7574.3375
1686.43272	7473.9375
1689.69527	7408.5375
1692.95567	7352.8375
1696.2139	7315.9375
1699.46999	7307.7375
1702.72392	7282.4375
1705.97571	7243.4375
1709.22535	7211.3375
1712.47284	7183.9375
1715.71819	7188.6375
1718.96139	7152.3375
1722.20246	7152.3375
1725.44139	7127.8375
1728.67818	7116.4375
1731.91284	7051.1375
1735.14537	7029.1375
1738.37576	6978.1375
1741.60403	6950.4375
1744.83017	6942.2375
1748.05418	6929.1375
1751.27607	6904.3375
1754.49584	6912.5375
1757.71349	6900.5375
1760.92903	6891.9375
1764.14244	6861.5375
1767.35375	6864.5375
1770.56294	6841.5375
1773.77002	6810.8375
1776.97499	6759.4375
1780.17785	6743.3375
1783.37861	6696.6375
1786.57727	6706.1375
1789.77382	6688.8375
1792.96828	6671.9375
1796.16064	6655.8375
1799.3509	6652.6375
1802.53907	6632.5375
1805.72514	6620.2375
1808.90913	6612.8375
1812.09102	6589.8375
1815.27083	6558.0375
1818.44856	6555.9375
1821.6242	6549.2375
1824.79776	6550.0375
1827.96924	6531.5375
1831.13864	6520.4375
1834.30597	6513.4375
1837.47122	6506.5375
1840.6344	6492.4375
1843.7955	6508.1375
1846.95454	6503.8375
1850.11151	6473.8375
1853.26642	6502.3375
1856.41926	6480.5375
1859.57004	6489.0375
1862.71876	6502.0375
1865.86542	6483.8375
1869.01003	6469.1375
1872.15258	6481.6375
1875.29308	6475.2375
1878.43152	6466.2375
1881.56792	6472.0375
1884.70227	6461.7375
1887.83457	6445.0375
1890.96482	6461.5375
1894.09304	6443.3375
1897.21921	6450.4375
1900.34335	6436.4375
1903.46544	6446.0375
1906.58551	6446.2375
1909.70353	6440.4375
1912.81953	6454.8375
1915.93349	6420.7375
1919.04543	6416.4375
1922.15534	6407.2375
1925.26322	6387.3375
1928.36908	6380.8375
1931.47292	6378.0375
1934.57473	6340.3375
1937.67453	6315.2375
1940.77232	6306.0375
1943.86808	6281.7375
1946.96184	6261.6375
1950.05358	6223.6375
1953.14331	6206.0375
1956.23103	6180.7375
1959.31675	6184.1375
1962.40046	6148.3375
1965.48217	6138.7375
1968.56188	6127.0375
1971.63959	6088.0375
1974.7153	6077.2375
1977.78901	6073.9375
1980.86073	6057.3375
1983.93046	6028.1375
1986.99819	5998.8375
1990.06394	5980.8375
1993.1277	5967.3375
1996.18947	5932.0375
1999.24925	5924.7375
2002.30706	5895.6375
2005.36288	5871.7375
2008.41672	5848.6375
2011.46859	5841.6375
2014.51848	5842.4375
2017.56639	5812.5375
2020.61233	5809.6375
2023.6563	5783.2375
2026.6983	5774.3375
2029.73833	5756.9375
2032.7764	5740.5375
2035.8125	5736.8375
2038.84664	5713.3375
2041.87881	5712.9375
2044.90903	5691.2375
2047.93729	5669.0375
2050.96359	5689.8375
2053.98794	5672.4375
2057.01034	5659.3375
2060.03078	5661.9375
2063.04927	5647.2375
2066.06582	5635.5375
2069.08042	5636.5375
2072.09307	5608.3375
2075.10378	5617.3375
2078.11255	5629.1375
2081.11938	5609.1375
2084.12426	5609.7375
2087.12722	5605.4375
2090.12824	5599.7375
2093.12732	5586.0375
2096.12447	5590.5375
2099.11969	5588.1375
2102.11299	5596.1375
2105.10435	5585.4375
2108.09379	5597.4375
2111.08131	5597.2375
2114.0669	5597.1375
2117.05057	5599.1375
2120.03233	5610.6375
2123.01216	5611.5375
2125.99008	5596.9375
2128.96609	5610.0375
2131.94018	5611.5375
2134.91236	5608.7375
2137.88263	5608.5375
2140.851	5605.2375
2143.81746	5620.4375
2146.78201	5608.2375
2149.74466	5614.0375
2152.7054	5604.2375
2155.66425	5607.3375
2158.6212	5613.2375
2161.57625	5584.9375
2164.52941	5595.4375
2167.48067	5571.2375
2170.43004	5592.8375
2173.37752	5561.3375
2176.32311	5578.0375
2179.26681	5583.3375
2182.20863	5571.7375
2185.14856	5578.4375
2188.08661	5566.4375
2191.02278	5564.0375
2193.95707	5555.3375
2196.88948	5539.6375
2199.82001	5546.1375
2202.74867	5528.1375
2205.67545	5533.1375
2208.60037	5524.8375
2211.52341	5519.2375
2214.44458	5509.5375
2217.36388	5485.0375
2220.28132	5490.7375
2223.1969	5462.0375
2226.11061	5464.3375
2229.02246	5461.0375
2231.93245	5430.5375
2234.84058	5426.2375
2237.74686	5427.7375
2240.65128	5405.9375
2243.55385	5399.9375
2246.45456	5418.5375
2249.35343	5382.2375
2252.25044	5379.8375
2255.14561	5376.8375
2258.03893	5386.4375
2260.93041	5385.1375
2263.82004	5355.4375
2266.70783	5342.6375
2269.59378	5320.4375
2272.4779	5315.0375
2275.36017	5285.9375
2278.24061	5272.4375
2281.11922	5260.3375
2283.996	5252.6375
2286.87094	5240.3375
2289.74405	5226.7375
2292.61534	5232.2375
2295.4848	5237.8375
2298.35243	5203.3375
2301.21824	5212.8375
2304.08223	5201.6375
2306.94439	5205.5375
2309.80474	5195.1375
2312.66327	5191.9375
2315.51999	5179.6375
2318.37489	5173.6375
2321.22797	5167.0375
2324.07925	5165.0375
2326.92871	5177.0375
2329.77637	5159.5375
2332.62222	5150.2375
2335.46626	5136.0375
2338.3085	5135.1375
2341.14893	5123.2375
2343.98756	5134.9375
2346.8244	5138.9375
2349.65943	5118.6375
2352.49267	5138.8375
2355.32411	5122.4375
2358.15376	5119.3375
2360.98161	5113.8375
2363.80768	5111.0375
2366.63195	5112.0375
2369.45444	5099.9375
2372.27514	5106.4375
2375.09405	5097.1375
2377.91118	5087.0375
2380.72652	5070.0375
2383.54009	5074.1375
2386.35187	5029.5375
2389.16188	5019.5375
2391.97011	5035.3375
2394.77657	5002.3375
2397.58125	4998.8375
2400.38416	4973.4375
2403.18529	4973.2375
2405.98466	4965.3375
2408.78226	4938.3375
2411.57809	4937.9375
2414.37216	4939.1375
2417.16446	4937.4375
2419.955	4923.1375
2422.74378	4917.0375
2425.5308	4897.3375
2428.31606	4907.9375
2431.09956	4903.0375
2433.88131	4895.9375
2436.6613	4884.6375
2439.43954	4874.7375
2442.21603	4862.7375
2444.99077	4862.2375
2447.76377	4857.1375
2450.53501	4877.7375
2453.30451	4850.5375
2456.07226	4847.9375
2458.83827	4843.4375
2461.60254	4844.1375
2464.36507	4842.9375
2467.12586	4832.9375
2469.88492	4854.1375
2472.64224	4840.4375
2475.39782	4856.4375
2478.15167	4854.0375
2480.90379	4835.5375
2483.65417	4843.7375
2486.40283	4844.3375
2489.14976	4843.5375
2491.89497	4849.0375
2494.63845	4857.8375
2497.3802	4851.9375
2500.12024	4845.6375
2502.85855	4856.1375
2505.59514	4826.6375
2508.33002	4811.6375
2511.06318	4813.3375
2513.79462	4804.2375
2516.52435	4793.8375
2519.25237	4780.0375
2521.97867	4772.1375
2524.70327	4757.2375
2527.42616	4752.8375
2530.14734	4747.4375
2532.86681	4724.3375
2535.58458	4734.5375
2538.30065	4719.9375
2541.01501	4717.7375
2543.72768	4714.8375
2546.43864	4698.8375
2549.14791	4702.0375
2551.85548	4703.4375
2554.56136	4693.5375
2557.26554	4676.6375
2559.96803	4676.8375
2562.66883	4691.9375
2565.36794	4661.4375
2568.06536	4672.6375
2570.7611	4651.5375
2573.45514	4644.1375
2576.14751	4648.9375
2578.83819	4650.5375
2581.52719	4642.3375
2584.21451	4627.3375
2586.90015	4621.1375
2589.58411	4616.8375
2592.2664	4605.9375
2594.94701	4611.9375
2597.62594	4599.7375
2600.30321	4583.8375
2602.9788	4581.9375
2605.65273	4587.4375
2608.32498	4582.2375
2610.99557	4573.4375
2613.66449	4582.5375
2616.33175	4568.3375
2618.99734	4574.8375
2621.66128	4557.9375
2624.32355	4559.1375
2626.98416	4557.1375
2629.64311	4540.9375
2632.30041	4549.2375
2634.95605	4559.2375
2637.61004	4541.6375
2640.26238	4532.4375
2642.91306	4525.7375
2645.56209	4525.2375
2648.20948	4533.6375
2650.85521	4517.5375
2653.4993	4504.7375
2656.14175	4502.6375
2658.78255	4507.7375
2661.42171	4519.2375
2664.05923	4528.0375
2666.6951	4519.6375
2669.32934	4524.1375
2671.96194	4529.4375
2674.59291	4528.4375
2677.22224	4524.5375
2679.84993	4543.5375
2682.476	4515.1375
2685.10043	4537.3375
2687.72324	4522.6375
2690.34441	4536.5375
2692.96396	4520.0375
2695.58188	4537.5375
2698.19818	4525.7375
2700.81285	4527.7375
2703.4259	4563.7375
2706.03733	4620.0375
2708.64714	4579.8375
2711.25533	4553.6375
2713.86191	4555.4375
2716.46687	4553.2375
2719.07021	4564.1375
2721.67194	4563.3375
2724.27206	4544.2375
2726.87057	4541.3375
2729.46747	4552.5375
2732.06276	4552.4375
2734.65644	4541.2375
2737.24852	4531.6375
2739.83899	4517.2375
2742.42786	4523.0375
2745.01513	4514.1375
2747.60079	4511.3375
2750.18486	4508.7375
2752.76733	4506.5375
2755.3482	4488.5375
2757.92747	4513.2375
2760.50515	4493.2375
2763.08123	4493.2375
2765.65573	4476.1375
2768.22863	4489.5375
2770.79994	4481.4375
2773.36967	4481.0375
2775.9378	4483.7375
2778.50435	4482.3375
2781.06932	4472.3375
2783.6327	4462.9375
2786.1945	4471.6375
2788.75471	4458.2375
2791.31335	4470.1375
2793.87041	4456.5375
2796.42589	4443.2375
2798.97979	4450.5375
2801.53212	4435.9375
2804.08288	4445.8375
2806.63206	4448.3375
2809.17967	4446.7375
2811.72571	4439.3375
2814.27018	4445.5375
2816.81308	4453.3375
2819.35442	4452.9375
2821.89419	4440.3375
2824.43239	4453.2375
2826.96904	4451.8375
2829.50412	4449.4375
2832.03763	4444.4375
2834.56959	4459.8375
2837.1	4451.9375
2839.62884	4457.3375
2842.15613	4474.1375
2844.68186	4518.8375
2847.20604	4530.1375
2849.72867	4573.3375
2852.24974	4565.9375
2854.76927	4568.9375
2857.28724	4575.9375
2859.80367	4552.7375
2862.31855	4541.5375
2864.83189	4530.3375
2867.34368	4506.5375
2869.85393	4494.2375
2872.36264	4488.4375
2874.8698	4479.7375
2877.37543	4490.9375
2879.87952	4487.5375
2882.38207	4490.2375
2884.88308	4481.5375
2887.38256	4483.3375
2889.88051	4491.0375
2892.37692	4483.1375
2894.8718	4476.3375
2897.36515	4494.7375
2899.85698	4488.0375
2902.34727	4499.9375
2904.83604	4494.2375
2907.32328	4500.2375
2909.809	4503.1375
2912.29319	4491.7375
2914.77587	4502.9375
2917.25702	4496.7375
2919.73665	4494.9375
2922.21476	4473.3375
2924.69136	4485.9375
2927.16644	4484.1375
2929.64	4457.4375
2932.11205	4447.6375
2934.58258	4442.4375
2937.05161	4448.5375
2939.51912	4428.0375
2941.98513	4402.2375
2944.44962	4387.2375
2946.91261	4372.5375
2949.37409	4345.0375
2951.83407	4341.4375
2954.29254	4322.6375
2956.74951	4321.1375
2959.20498	4291.3375
2961.65895	4271.4375
2964.11142	4257.2375
2966.56239	4232.5375
2969.01186	4237.1375
2971.45984	4223.7375
2973.90632	4219.6375
2976.35131	4198.9375
2978.7948	4187.4375
2981.23681	4180.6375
2983.67732	4165.9375
2986.11635	4151.4375
2988.55388	4124.9375
2990.98993	4123.6375
2993.4245	4101.9375
2995.85758	4116.1375
2998.28917	4088.5375
3000.71928	4089.0375
3003.14791	4092.6375
3005.57506	4067.0375
3008.00073	4068.0375
3010.42493	4063.1375
3012.84764	4049.3375
3015.26888	4051.7375
3017.68865	4044.9375
3020.10694	4036.0375
3022.52376	4031.6375
3024.9391	4013.6375
3027.35298	4027.9375
3029.76539	4008.4375
3032.17632	4002.9375
3034.5858	3988.5375
3036.9938	3991.0375
3039.40034	3989.2375
3041.80542	3982.6375
3044.20903	3961.3375
3046.61118	3973.1375
3049.01187	3965.6375
3051.4111	3961.2375
3053.80888	3949.1375
3056.20519	3930.8375
3058.60005	3942.6375
3060.99345	3921.4375
3063.3854	3907.8375
3065.7759	3909.6375
3068.16494	3894.1375
3070.55254	3881.0375
3072.93868	3877.3375
3075.32338	3861.9375
3077.70662	3851.1375
3080.08842	3830.3375
3082.46878	3829.1375
3084.84769	3825.8375
3087.22515	3814.4375
3089.60118	3820.4375
3091.97576	3815.4375
3094.3489	3816.9375
3096.72061	3815.3375
3099.09087	3825.4375
3101.4597	3797.8375
3103.82709	3801.7375
3106.19305	3799.7375
3108.55757	3797.9375
3110.92066	3779.6375
3113.28232	3769.1375
3115.64255	3766.7375
3118.00134	3758.6375
3120.35871	3764.7375
3122.71466	3753.0375
3125.06917	3756.1375
3127.42226	3750.6375
3129.77393	3744.9375
3132.12417	3754.7375
3134.47299	3758.3375
3136.82039	3769.0375
3139.16636	3757.1375
3141.51092	3758.1375
3143.85406	3750.6375
3146.19579	3759.6375
3148.53609	3767.4375
3150.87499	3755.6375
3153.21246	3781.5375
3155.54853	3780.5375
3157.88318	3776.9375
3160.21642	3777.9375
3162.54826	3766.7375
3164.87868	3768.1375
3167.2077	3769.1375
3169.5353	3769.0375
3171.86151	3765.3375
3174.18631	3784.9375
3176.5097	3768.4375
3178.83169	3757.0375
3181.15228	3783.6375
3183.47147	3768.4375
3185.78926	3764.1375
3188.10565	3754.8375
3190.42065	3767.4375
3192.73424	3767.1375
3195.04645	3763.4375
3197.35725	3778.6375
3199.66667	3776.6375
3201.97469	3780.0375
3204.28132	3772.2375
3206.58656	3789.6375
3208.8904	3783.1375
3211.19287	3775.6375
3213.49394	3791.5375
3215.79363	3783.1375
3218.09193	3791.8375
3220.38884	3789.1375
3222.68438	3810.3375
3224.97853	3781.0375
3227.2713	3768.1375
3229.56269	3760.3375
3231.8527	3789.4375
3234.14133	3772.2375
3236.42858	3752.8375
3238.71446	3747.9375
3240.99896	3741.1375
3243.28209	3746.3375
3245.56384	3732.1375
3247.84423	3742.9375
3250.12324	3726.8375
3252.40088	3722.6375
3254.67715	3729.5375
3256.95205	3715.0375
3259.22558	3716.0375
3261.49775	3709.4375
3263.76855	3690.1375
3266.03799	3707.6375
3268.30606	3692.7375
3270.57277	3673.7375
3272.83812	3673.8375
3275.10211	3674.6375
3277.36474	3658.3375
3279.62601	3660.7375
3281.88593	3670.7375
3284.14448	3660.3375
3286.40168	3648.6375
3288.65753	3652.3375
3290.91202	3647.4375
3293.16516	3632.6375
3295.41695	3619.9375
3297.66738	3590.9375
3299.91647	3586.5375
3302.16421	3550.4375
3304.4106	3541.2375
3306.65564	3541.8375
3308.89933	3499.1375
3311.14169	3504.3375
3313.38269	3479.4375
3315.62236	3452.0375
3317.86068	3426.8375
3320.09766	3384.7375
3322.3333	3378.2375
3324.5676	3362.7375
3326.80056	3326.6375
3329.03219	3304.1375
3331.26248	1.4375
3333.49143	0.4375
3335.71905	-0.3625
