Data from AgNPs_FTO_APTES_UA_1um_CRN_0.1mM_R6G_10uM_NaF_0.1M_Addition_RamanShift__17__11-53-59-006.txt Node

Date: Tue Dec 21 11:53:59 GMT 2021
User: TCL
Spectrometer: QEP01345
Trigger mode: 4
Integration Time (sec): 7.000000E0
Scans to average: 10
Electric dark correction enabled: true
Nonlinearity correction enabled: false
Boxcar width: 0
XAxis mode: Raman Shifts
Number of Pixels in Spectrum: 1044
>>>>>Begin Spectral Data<<<<<
46.04893	-0.5125
50.45542	-2.0125
54.85868	-0.2125
59.25871	1.2875
63.6555	35.8875
68.04907	43.7875
72.43941	50.3875
76.82654	49.2875
81.21044	55.6875
85.59113	55.4875
89.96862	60.5875
94.34289	57.9875
98.71396	61.4875
103.08183	63.4875
107.4465	69.4875
111.80798	66.6875
116.16626	69.1875
120.52136	67.9875
124.87327	71.3875
129.222	71.5875
133.56755	77.1875
137.90993	86.3875
142.24913	91.3875
146.58517	98.5875
150.91804	115.4875
155.24774	134.3875
159.57429	164.0875
163.89768	206.8875
168.21792	272.6875
172.53501	365.1875
176.84895	502.6875
181.15975	706.5875
185.46741	979.7875
189.77193	1361.0875
194.07331	1827.5875
198.37157	2352.0875
202.6667	2903.3875
206.9587	3472.9875
211.24758	4037.0875
215.53334	4583.2875
219.81599	5184.0875
224.09553	5843.0875
228.37195	6582.8875
232.64527	7361.2875
236.91549	8186.2875
241.18261	8976.6875
245.44663	9702.9875
249.70755	10317.5875
253.96539	10884.4875
258.22014	11301.4875
262.4718	11621.7875
266.72039	11849.7875
270.96589	11905.2875
275.20832	11842.7875
279.44768	11716.5875
283.68397	11547.4875
287.91719	11447.5875
292.14735	11371.5875
296.37445	11375.4875
300.59849	11398.7875
304.81948	11468.6875
309.03742	11502.1875
313.25231	11471.1875
317.46415	11254.3875
321.67296	10891.2875
325.87872	10518.7875
330.08145	10367.0875
334.28114	10293.2875
338.47781	10351.6875
342.67145	10448.5875
346.86207	10640.2875
351.04966	10879.5875
355.23424	11085.9875
359.4158	11275.4875
363.59435	11399.5875
367.76989	11479.9875
371.94243	11503.6875
376.11196	11491.4875
380.27849	11517.2875
384.44203	11572.4875
388.60257	11666.5875
392.76012	11777.3875
396.91468	11940.6875
401.06626	12190.9875
405.21485	12336.9875
409.36047	12286.7875
413.50311	12036.5875
417.64277	11851.5875
421.77947	11826.2875
425.9132	11920.4875
430.04396	11972.8875
434.17176	12006.1875
438.2966	12103.9875
442.41849	12364.7875
446.53742	12810.2875
450.6534	13323.1875
454.76644	13613.9875
458.87653	13590.9875
462.98368	13401.4875
467.08789	13100.5875
471.18916	12865.1875
475.2875	12641.8875
479.38291	12502.0875
483.4754	12439.5875
487.56496	12316.2875
491.6516	12123.7875
495.73531	11967.0875
499.81612	11894.3875
503.89401	11929.0875
507.96899	11976.6875
512.04106	11867.7875
516.11023	11701.4875
520.1765	11531.3875
524.23987	11449.4875
528.30034	11410.1875
532.35792	11357.9875
536.41261	11229.1875
540.46441	10971.4875
544.51333	10843.3875
548.55936	10931.0875
552.60252	11233.4875
556.64279	11566.3875
560.6802	11822.0875
564.71473	11964.6875
568.7464	12184.2875
572.7752	12619.6875
576.80114	12991.2875
580.82422	13346.0875
584.84444	13822.1875
588.86181	14339.1875
592.87633	14948.5875
596.888	15173.0875
600.89682	14873.2875
604.9028	14788.2875
608.90594	15730.5875
612.90624	16868.3875
616.90371	15652.2875
620.89834	12599.7875
624.89015	11129.3875
628.87913	10977.6875
632.86528	11178.0875
636.84862	11300.5875
640.82913	11148.1875
644.80683	10802.7875
648.78172	10508.4875
652.75379	10394.7875
656.72306	10495.1875
660.68952	10666.3875
664.65319	10639.6875
668.61405	10452.9875
672.57211	10438.9875
676.52738	10540.1875
680.47986	10599.4875
684.42955	10501.7875
688.37646	10287.9875
692.32058	10199.2875
696.26192	10253.1875
700.20048	10387.2875
704.13626	10452.7875
708.06928	10485.2875
711.99952	10387.4875
715.927	10375.7875
719.85171	10353.7875
723.77365	10371.5875
727.69284	10250.4875
731.60928	10142.5875
735.52295	10089.1875
739.43388	10113.5875
743.34206	10143.8875
747.24749	10186.1875
751.15017	10295.8875
755.05012	10519.4875
758.94733	10885.3875
762.8418	11614.0875
766.73354	12806.6875
770.62254	13949.4875
774.50882	14214.1875
778.39237	13402.9875
782.27321	12183.1875
786.15132	11121.2875
790.02671	10404.9875
793.89938	10055.1875
797.76935	9892.4875
801.6366	9871.3875
805.50115	9834.3875
809.36299	9752.1875
813.22213	9618.3875
817.07857	9530.6875
820.93231	9441.7875
824.78336	9405.4875
828.63172	9357.4875
832.47738	9318.9875
836.32036	9318.3875
840.16066	9320.5875
843.99827	9275.7875
847.8332	9258.6875
851.66546	9220.7875
855.49504	9235.8875
859.32195	9230.9875
863.1462	9239.5875
866.96777	9220.0875
870.78668	9202.4875
874.60293	9193.8875
878.41652	9202.5875
882.22745	9227.0875
886.03573	9266.7875
889.84136	9278.1875
893.64433	9242.8875
897.44466	9208.9875
901.24235	9137.6875
905.0374	9083.7875
908.8298	8987.5875
912.61957	8960.9875
916.40671	8997.7875
920.19121	9140.2875
923.97308	9323.9875
927.75233	9426.4875
931.52895	9389.3875
935.30295	9218.6875
939.07433	8972.1875
942.84309	8735.9875
946.60924	8647.0875
950.37278	8583.8875
954.13371	8552.8875
957.89203	8530.3875
961.64774	8502.3875
965.40086	8486.9875
969.15137	8460.1875
972.89929	8390.5875
976.64461	8332.4875
980.38733	8303.0875
984.12747	8289.3875
987.86502	8330.8875
991.59999	8428.4875
995.33237	8558.0875
999.06217	8828.4875
1002.78939	9146.0875
1006.51404	9439.2875
1010.23611	9638.7875
1013.95561	9831.1875
1017.67255	9881.4875
1021.38692	9708.6875
1025.09872	9426.1875
1028.80796	9214.4875
1032.51465	9175.9875
1036.21877	9285.9875
1039.92035	9352.3875
1043.61937	9349.7875
1047.31584	9312.8875
1051.00976	9243.1875
1054.70114	9253.3875
1058.38998	9225.4875
1062.07627	9235.0875
1065.76003	9327.7875
1069.44126	9447.3875
1073.11995	9670.9875
1076.79611	9880.9875
1080.46974	9924.7875
1084.14085	9980.0875
1087.80943	10143.3875
1091.47549	10286.6875
1095.13903	10315.3875
1098.80005	10132.8875
1102.45857	9775.0875
1106.11456	9496.5875
1109.76805	9375.2875
1113.41903	9383.3875
1117.06751	9482.3875
1120.71348	9657.8875
1124.35696	9858.7875
1127.99793	10102.0875
1131.63641	10258.1875
1135.2724	10226.0875
1138.90589	10117.7875
1142.5369	10050.6875
1146.16542	10036.7875
1149.79145	10069.2875
1153.415	10192.2875
1157.03607	10337.1875
1160.65467	10683.2875
1164.27079	11307.5875
1167.88443	12171.9875
1171.49561	13271.5875
1175.10432	14716.8875
1178.71056	16509.3875
1182.31434	18127.8875
1185.91565	18850.5875
1189.51451	18576.8875
1193.11091	17783.0875
1196.70485	16702.3875
1200.29634	15502.5875
1203.88538	14519.3875
1207.47197	13787.2875
1211.05612	13324.9875
1214.63782	12947.1875
1218.21708	12814.2875
1221.79391	12831.1875
1225.36829	12990.5875
1228.94024	12939.8875
1232.50976	12648.7875
1236.07685	12266.1875
1239.6415	11969.3875
1243.20374	11840.5875
1246.76355	11778.9875
1250.32093	11903.5875
1253.8759	12154.0875
1257.42845	12614.6875
1260.97859	13105.5875
1264.52631	13594.0875
1268.07163	14124.9875
1271.61453	14627.7875
1275.15503	15134.5875
1278.69312	15707.5875
1282.22882	16268.9875
1285.76211	16910.5875
1289.29301	17681.8875
1292.82151	18536.4875
1296.34761	19554.5875
1299.87133	20778.3875
1303.39266	22218.4875
1306.9116	23853.0875
1310.42815	25588.9875
1313.94233	26966.8875
1317.45412	27397.5875
1320.96354	26887.3875
1324.47058	26132.6875
1327.97525	25317.8875
1331.47754	24556.8875
1334.97747	23945.5875
1338.47502	23455.0875
1341.97022	22915.8875
1345.46305	22341.9875
1348.95352	21972.0875
1352.44163	22054.9875
1355.92738	22792.8875
1359.41078	24130.7875
1362.89183	25476.0875
1366.37053	25637.4875
1369.84688	23894.6875
1373.32088	20938.4875
1376.79254	18563.4875
1380.26186	17405.7875
1383.72883	16984.9875
1387.19347	16735.6875
1390.65578	16416.9875
1394.11575	16475.0875
1397.57339	16862.5875
1401.0287	17542.2875
1404.48168	18099.0875
1407.93234	18336.5875
1411.38068	18108.9875
1414.82669	17502.2875
1418.27039	16627.1875
1421.71177	15711.2875
1425.15083	14890.0875
1428.58758	14416.5875
1432.02203	14364.2875
1435.45416	14680.2875
1438.88399	15173.4875
1442.31151	15613.8875
1445.73673	16010.6875
1449.15965	16349.9875
1452.58027	16587.0875
1455.9986	16599.7875
1459.41463	16657.6875
1462.82837	17015.0875
1466.23982	17505.3875
1469.64898	17994.0875
1473.05586	18277.9875
1476.46045	18285.2875
1479.86276	18207.6875
1483.26279	18056.0875
1486.66054	17993.8875
1490.05602	18103.7875
1493.44922	18320.6875
1496.84016	18476.8875
1500.22882	18758.2875
1503.61521	19326.2875
1506.99934	20115.1875
1510.38121	20819.5875
1513.76081	20832.1875
1517.13816	20120.2875
1520.51324	18886.9875
1523.88607	17737.4875
1527.25665	17071.3875
1530.62498	16706.5875
1533.99105	16537.8875
1537.35488	16419.2875
1540.71647	16160.8875
1544.07581	15748.4875
1547.4329	15300.6875
1550.78776	14853.3875
1554.14038	14524.1875
1557.49077	14361.2875
1560.83892	14348.2875
1564.18484	14436.0875
1567.52853	14526.1875
1570.86999	14697.1875
1574.20922	14937.8875
1577.54624	15101.0875
1580.88103	14956.6875
1584.2136	14846.9875
1587.54395	15134.3875
1590.87208	15954.6875
1594.19801	17285.8875
1597.52172	18812.8875
1600.84321	19656.6875
1604.16251	19107.0875
1607.47959	17455.4875
1610.79447	15492.3875
1614.10715	13648.0875
1617.41763	12185.9875
1620.7259	11203.7875
1624.03199	10663.0875
1627.33587	10593.7875
1630.63757	10916.3875
1633.93707	11770.3875
1637.23439	13324.0875
1640.52951	15791.8875
1643.82246	18963.2875
1647.11321	21807.2875
1650.40179	22895.2875
1653.68819	21387.0875
1656.97241	18101.7875
1660.25446	14669.9875
1663.53433	12026.1875
1666.81203	10368.4875
1670.08756	9388.9875
1673.36092	8757.5875
1676.63211	8416.5875
1679.90115	8137.6875
1683.16801	7917.7875
1686.43272	7758.7875
1689.69527	7669.3875
1692.95567	7573.7875
1696.2139	7520.6875
1699.46999	7482.7875
1702.72392	7451.7875
1705.97571	7369.7875
1709.22535	7360.9875
1712.47284	7297.8875
1715.71819	7275.0875
1718.96139	7255.9875
1722.20246	7214.4875
1725.44139	7152.6875
1728.67818	7096.5875
1731.91284	7061.9875
1735.14537	7026.5875
1738.37576	6976.8875
1741.60403	6963.7875
1744.83017	6959.2875
1748.05418	6972.6875
1751.27607	6970.6875
1754.49584	6995.6875
1757.71349	7009.3875
1760.92903	6972.1875
1764.14244	6919.0875
1767.35375	6869.0875
1770.56294	6814.3875
1773.77002	6751.0875
1776.97499	6725.2875
1780.17785	6689.7875
1783.37861	6641.7875
1786.57727	6625.9875
1789.77382	6573.4875
1792.96828	6561.8875
1796.16064	6519.8875
1799.3509	6499.1875
1802.53907	6465.9875
1805.72514	6447.4875
1808.90913	6428.6875
1812.09102	6413.9875
1815.27083	6388.0875
1818.44856	6381.9875
1821.6242	6375.1875
1824.79776	6346.8875
1827.96924	6348.9875
1831.13864	6327.8875
1834.30597	6329.8875
1837.47122	6322.8875
1840.6344	6300.7875
1843.7955	6332.7875
1846.95454	6335.9875
1850.11151	6331.1875
1853.26642	6311.8875
1856.41926	6327.0875
1859.57004	6295.4875
1862.71876	6288.5875
1865.86542	6287.1875
1869.01003	6287.3875
1872.15258	6288.6875
1875.29308	6286.3875
1878.43152	6286.9875
1881.56792	6257.4875
1884.70227	6255.9875
1887.83457	6272.0875
1890.96482	6248.2875
1894.09304	6235.9875
1897.21921	6241.4875
1900.34335	6246.9875
1903.46544	6221.6875
1906.58551	6213.7875
1909.70353	6191.1875
1912.81953	6172.8875
1915.93349	6140.6875
1919.04543	6121.9875
1922.15534	6127.1875
1925.26322	6108.1875
1928.36908	6056.7875
1931.47292	6035.3875
1934.57473	6020.0875
1937.67453	5984.5875
1940.77232	5993.1875
1943.86808	5957.6875
1946.96184	5908.8875
1950.05358	5916.9875
1953.14331	5897.7875
1956.23103	5860.0875
1959.31675	5839.1875
1962.40046	5828.0875
1965.48217	5813.8875
1968.56188	5794.9875
1971.63959	5780.9875
1974.7153	5748.9875
1977.78901	5739.9875
1980.86073	5701.9875
1983.93046	5686.5875
1986.99819	5665.6875
1990.06394	5640.8875
1993.1277	5627.2875
1996.18947	5608.0875
1999.24925	5586.9875
2002.30706	5565.8875
2005.36288	5548.3875
2008.41672	5523.5875
2011.46859	5525.7875
2014.51848	5490.0875
2017.56639	5475.2875
2020.61233	5459.4875
2023.6563	5447.9875
2026.6983	5433.0875
2029.73833	5436.5875
2032.7764	5400.1875
2035.8125	5399.9875
2038.84664	5400.0875
2041.87881	5386.8875
2044.90903	5368.2875
2047.93729	5365.9875
2050.96359	5369.0875
2053.98794	5340.4875
2057.01034	5346.5875
2060.03078	5337.0875
2063.04927	5320.2875
2066.06582	5310.4875
2069.08042	5288.4875
2072.09307	5301.1875
2075.10378	5307.8875
2078.11255	5302.1875
2081.11938	5304.8875
2084.12426	5292.4875
2087.12722	5290.7875
2090.12824	5283.4875
2093.12732	5286.3875
2096.12447	5275.5875
2099.11969	5264.1875
2102.11299	5273.9875
2105.10435	5272.9875
2108.09379	5289.1875
2111.08131	5261.7875
2114.0669	5264.7875
2117.05057	5245.1875
2120.03233	5268.6875
2123.01216	5263.0875
2125.99008	5271.2875
2128.96609	5254.8875
2131.94018	5272.5875
2134.91236	5276.2875
2137.88263	5254.7875
2140.851	5257.6875
2143.81746	5245.6875
2146.78201	5253.8875
2149.74466	5262.0875
2152.7054	5247.7875
2155.66425	5231.7875
2158.6212	5242.8875
2161.57625	5244.3875
2164.52941	5234.9875
2167.48067	5234.2875
2170.43004	5219.4875
2173.37752	5202.1875
2176.32311	5221.7875
2179.26681	5211.1875
2182.20863	5211.7875
2185.14856	5213.5875
2188.08661	5216.4875
2191.02278	5217.5875
2193.95707	5191.1875
2196.88948	5176.3875
2199.82001	5206.1875
2202.74867	5179.9875
2205.67545	5173.3875
2208.60037	5178.8875
2211.52341	5161.9875
2214.44458	5154.5875
2217.36388	5146.1875
2220.28132	5112.3875
2223.1969	5112.4875
2226.11061	5094.7875
2229.02246	5087.9875
2231.93245	5077.6875
2234.84058	5081.3875
2237.74686	5083.6875
2240.65128	5068.0875
2243.55385	5073.6875
2246.45456	5054.9875
2249.35343	5037.5875
2252.25044	5021.5875
2255.14561	5011.4875
2258.03893	5010.3875
2260.93041	5002.5875
2263.82004	4981.9875
2266.70783	4972.9875
2269.59378	4941.8875
2272.4779	4924.5875
2275.36017	4930.8875
2278.24061	4914.9875
2281.11922	4895.3875
2283.996	4886.9875
2286.87094	4874.7875
2289.74405	4876.4875
2292.61534	4858.8875
2295.4848	4843.1875
2298.35243	4864.2875
2301.21824	4840.2875
2304.08223	4832.5875
2306.94439	4832.0875
2309.80474	4829.4875
2312.66327	4832.6875
2315.51999	4827.5875
2318.37489	4814.5875
2321.22797	4816.2875
2324.07925	4818.9875
2326.92871	4790.6875
2329.77637	4802.7875
2332.62222	4805.3875
2335.46626	4797.5875
2338.3085	4783.4875
2341.14893	4783.5875
2343.98756	4790.6875
2346.8244	4788.7875
2349.65943	4792.5875
2352.49267	4797.9875
2355.32411	4776.1875
2358.15376	4789.2875
2360.98161	4792.8875
2363.80768	4787.5875
2366.63195	4782.2875
2369.45444	4783.9875
2372.27514	4781.2875
2375.09405	4755.7875
2377.91118	4741.9875
2380.72652	4736.0875
2383.54009	4715.7875
2386.35187	4699.0875
2389.16188	4692.3875
2391.97011	4689.6875
2394.77657	4675.9875
2397.58125	4675.3875
2400.38416	4661.4875
2403.18529	4639.8875
2405.98466	4642.1875
2408.78226	4629.7875
2411.57809	4606.6875
2414.37216	4610.5875
2417.16446	4605.9875
2419.955	4592.0875
2422.74378	4607.1875
2425.5308	4591.4875
2428.31606	4590.1875
2431.09956	4589.7875
2433.88131	4582.5875
2436.6613	4575.1875
2439.43954	4564.6875
2442.21603	4567.5875
2444.99077	4580.9875
2447.76377	4592.6875
2450.53501	4569.1875
2453.30451	4573.9875
2456.07226	4584.5875
2458.83827	4564.2875
2461.60254	4553.2875
2464.36507	4579.8875
2467.12586	4583.7875
2469.88492	4574.2875
2472.64224	4573.8875
2475.39782	4569.6875
2478.15167	4563.4875
2480.90379	4589.4875
2483.65417	4579.9875
2486.40283	4569.6875
2489.14976	4569.9875
2491.89497	4566.4875
2494.63845	4592.6875
2497.3802	4593.2875
2500.12024	4591.0875
2502.85855	4568.1875
2505.59514	4561.5875
2508.33002	4555.5875
2511.06318	4553.7875
2513.79462	4541.2875
2516.52435	4523.1875
2519.25237	4519.2875
2521.97867	4518.0875
2524.70327	4508.0875
2527.42616	4523.0875
2530.14734	4495.9875
2532.86681	4496.5875
2535.58458	4493.3875
2538.30065	4475.1875
2541.01501	4480.0875
2543.72768	4472.6875
2546.43864	4471.4875
2549.14791	4462.1875
2551.85548	4464.9875
2554.56136	4466.3875
2557.26554	4456.6875
2559.96803	4466.9875
2562.66883	4450.5875
2565.36794	4454.1875
2568.06536	4455.0875
2570.7611	4443.5875
2573.45514	4432.8875
2576.14751	4435.4875
2578.83819	4426.5875
2581.52719	4435.8875
2584.21451	4430.8875
2586.90015	4418.2875
2589.58411	4419.1875
2592.2664	4416.0875
2594.94701	4420.7875
2597.62594	4427.7875
2600.30321	4405.5875
2602.9788	4401.5875
2605.65273	4396.9875
2608.32498	4399.7875
2610.99557	4395.1875
2613.66449	4404.8875
2616.33175	4405.1875
2618.99734	4392.9875
2621.66128	4404.9875
2624.32355	4393.1875
2626.98416	4409.2875
2629.64311	4398.1875
2632.30041	4394.6875
2634.95605	4410.5875
2637.61004	4387.7875
2640.26238	4376.0875
2642.91306	4385.0875
2645.56209	4378.9875
2648.20948	4383.0875
2650.85521	4383.1875
2653.4993	4376.2875
2656.14175	4395.2875
2658.78255	4398.6875
2661.42171	4370.3875
2664.05923	4398.7875
2666.6951	4402.7875
2669.32934	4403.1875
2671.96194	4398.2875
2674.59291	4409.7875
2677.22224	4381.0875
2679.84993	4405.7875
2682.476	4383.0875
2685.10043	4391.1875
2687.72324	4374.1875
2690.34441	4373.3875
2692.96396	4369.7875
2695.58188	4376.7875
2698.19818	4374.2875
2700.81285	4378.5875
2703.4259	4391.8875
2706.03733	4431.2875
2708.64714	4403.9875
2711.25533	4408.7875
2713.86191	4393.4875
2716.46687	4395.0875
2719.07021	4390.2875
2721.67194	4397.3875
2724.27206	4393.6875
2726.87057	4395.0875
2729.46747	4384.6875
2732.06276	4413.7875
2734.65644	4412.1875
2737.24852	4404.8875
2739.83899	4373.4875
2742.42786	4393.2875
2745.01513	4398.6875
2747.60079	4385.6875
2750.18486	4390.4875
2752.76733	4382.7875
2755.3482	4381.5875
2757.92747	4377.4875
2760.50515	4372.9875
2763.08123	4386.2875
2765.65573	4378.3875
2768.22863	4379.7875
2770.79994	4387.5875
2773.36967	4391.6875
2775.9378	4390.7875
2778.50435	4385.3875
2781.06932	4388.9875
2783.6327	4401.9875
2786.1945	4398.9875
2788.75471	4408.4875
2791.31335	4388.2875
2793.87041	4378.2875
2796.42589	4369.0875
2798.97979	4374.8875
2801.53212	4355.4875
2804.08288	4351.3875
2806.63206	4367.9875
2809.17967	4361.1875
2811.72571	4351.6875
2814.27018	4347.5875
2816.81308	4346.5875
2819.35442	4336.2875
2821.89419	4320.9875
2824.43239	4339.3875
2826.96904	4331.4875
2829.50412	4324.9875
2832.03763	4317.5875
2834.56959	4340.2875
2837.1	4311.2875
2839.62884	4316.8875
2842.15613	4311.2875
2844.68186	4328.0875
2847.20604	4345.7875
2849.72867	4321.4875
2852.24974	4340.8875
2854.76927	4327.7875
2857.28724	4335.4875
2859.80367	4329.3875
2862.31855	4307.5875
2864.83189	4313.5875
2867.34368	4314.6875
2869.85393	4306.9875
2872.36264	4292.9875
2874.8698	4309.4875
2877.37543	4293.0875
2879.87952	4306.5875
2882.38207	4317.8875
2884.88308	4323.7875
2887.38256	4312.0875
2889.88051	4325.5875
2892.37692	4330.9875
2894.8718	4335.1875
2897.36515	4334.6875
2899.85698	4365.8875
2902.34727	4370.1875
2904.83604	4364.6875
2907.32328	4400.4875
2909.809	4387.1875
2912.29319	4397.6875
2914.77587	4407.3875
2917.25702	4392.9875
2919.73665	4411.9875
2922.21476	4407.2875
2924.69136	4415.2875
2927.16644	4410.9875
2929.64	4414.3875
2932.11205	4412.2875
2934.58258	4399.1875
2937.05161	4414.0875
2939.51912	4429.9875
2941.98513	4418.0875
2944.44962	4419.2875
2946.91261	4391.8875
2949.37409	4394.4875
2951.83407	4394.0875
2954.29254	4378.8875
2956.74951	4363.7875
2959.20498	4355.4875
2961.65895	4343.0875
2964.11142	4319.6875
2966.56239	4291.0875
2969.01186	4288.3875
2971.45984	4257.5875
2973.90632	4249.5875
2976.35131	4226.7875
2978.7948	4211.0875
2981.23681	4203.7875
2983.67732	4175.8875
2986.11635	4177.7875
2988.55388	4149.1875
2990.98993	4135.7875
2993.4245	4136.2875
2995.85758	4117.9875
2998.28917	4107.6875
3000.71928	4101.3875
3003.14791	4107.3875
3005.57506	4090.6875
3008.00073	4086.0875
3010.42493	4084.1875
3012.84764	4075.5875
3015.26888	4060.4875
3017.68865	4051.6875
3020.10694	4029.1875
3022.52376	4023.8875
3024.9391	4027.2875
3027.35298	4019.8875
3029.76539	3997.5875
3032.17632	3980.3875
3034.5858	3983.1875
3036.9938	3984.7875
3039.40034	3977.0875
3041.80542	3976.8875
3044.20903	3966.0875
3046.61118	3964.1875
3049.01187	3950.6875
3051.4111	3946.9875
3053.80888	3944.1875
3056.20519	3929.4875
3058.60005	3927.0875
3060.99345	3900.5875
3063.3854	3904.9875
3065.7759	3895.8875
3068.16494	3886.1875
3070.55254	3871.9875
3072.93868	3869.0875
3075.32338	3849.7875
3077.70662	3858.5875
3080.08842	3839.0875
3082.46878	3836.3875
3084.84769	3834.7875
3087.22515	3833.4875
3089.60118	3829.2875
3091.97576	3829.7875
3094.3489	3828.1875
3096.72061	3822.4875
3099.09087	3832.4875
3101.4597	3828.6875
3103.82709	3839.8875
3106.19305	3808.0875
3108.55757	3804.7875
3110.92066	3793.0875
3113.28232	3816.5875
3115.64255	3786.2875
3118.00134	3785.0875
3120.35871	3768.6875
3122.71466	3762.9875
3125.06917	3772.1875
3127.42226	3760.4875
3129.77393	3759.4875
3132.12417	3763.4875
3134.47299	3766.8875
3136.82039	3775.5875
3139.16636	3760.3875
3141.51092	3767.1875
3143.85406	3763.1875
3146.19579	3773.8875
3148.53609	3758.7875
3150.87499	3761.3875
3153.21246	3764.3875
3155.54853	3780.9875
3157.88318	3761.8875
3160.21642	3769.1875
3162.54826	3770.5875
3164.87868	3772.7875
3167.2077	3777.7875
3169.5353	3765.2875
3171.86151	3762.0875
3174.18631	3764.9875
3176.5097	3772.0875
3178.83169	3769.7875
3181.15228	3786.7875
3183.47147	3766.7875
3185.78926	3761.4875
3188.10565	3771.3875
3190.42065	3796.2875
3192.73424	3775.0875
3195.04645	3773.2875
3197.35725	3772.3875
3199.66667	3775.1875
3201.97469	3789.0875
3204.28132	3783.7875
3206.58656	3789.8875
3208.8904	3786.6875
3211.19287	3793.2875
3213.49394	3785.6875
3215.79363	3784.3875
3218.09193	3797.8875
3220.38884	3786.6875
3222.68438	3798.9875
3224.97853	3797.7875
3227.2713	3794.2875
3229.56269	3793.3875
3231.8527	3794.2875
3234.14133	3787.0875
3236.42858	3777.2875
3238.71446	3780.6875
3240.99896	3778.5875
3243.28209	3768.8875
3245.56384	3764.2875
3247.84423	3764.7875
3250.12324	3762.1875
3252.40088	3766.4875
3254.67715	3757.6875
3256.95205	3751.4875
3259.22558	3739.0875
3261.49775	3740.5875
3263.76855	3705.8875
3266.03799	3713.6875
3268.30606	3697.4875
3270.57277	3687.4875
3272.83812	3699.5875
3275.10211	3684.9875
3277.36474	3689.4875
3279.62601	3683.3875
3281.88593	3696.8875
3284.14448	3691.1875
3286.40168	3702.8875
3288.65753	3687.6875
3290.91202	3704.9875
3293.16516	3670.1875
3295.41695	3671.0875
3297.66738	3652.8875
3299.91647	3647.4875
3302.16421	3608.1875
3304.4106	3603.4875
3306.65564	3575.7875
3308.89933	3545.1875
3311.14169	3539.4875
3313.38269	3524.4875
3315.62236	3508.5875
3317.86068	3457.6875
3320.09766	3419.2875
3322.3333	3413.1875
3324.5676	3399.5875
3326.80056	3349.4875
3329.03219	3337.0875
3331.26248	1.1875
3333.49143	0.0875
3335.71905	0.1875
