Data from AgNPs_FTO_APTES_UA_0um_CRN_0.1mM_R6G_10uM_NaF_0.1M_Addition_RamanShift__39__10-56-48-940.txt Node

Date: Tue Dec 21 10:56:48 GMT 2021
User: TCL
Spectrometer: QEP01345
Trigger mode: 4
Integration Time (sec): 7.000000E0
Scans to average: 10
Electric dark correction enabled: true
Nonlinearity correction enabled: false
Boxcar width: 0
XAxis mode: Raman Shifts
Number of Pixels in Spectrum: 1044
>>>>>Begin Spectral Data<<<<<
46.04893	-0.5
50.45542	-1.5
54.85868	-0.4
59.25871	0.7
63.6555	42.4
68.04907	47.7
72.43941	51.5
76.82654	50.4
81.21044	56.6
85.59113	55.8
89.96862	59.7
94.34289	59
98.71396	59.3
103.08183	64.8
107.4465	67.2
111.80798	69.2
116.16626	69.9
120.52136	71.8
124.87327	72.2
129.222	71.7
133.56755	80.7
137.90993	89.1
142.24913	95.9
146.58517	110.4
150.91804	122.9
155.24774	146.8
159.57429	189.5
163.89768	241.6
168.21792	315.3
172.53501	425.9
176.84895	595.5
181.15975	836
185.46741	1162.2
189.77193	1599.2
194.07331	2144.6
198.37157	2730.2
202.6667	3372.6
206.9587	4012.1
211.24758	4633.4
215.53334	5266
219.81599	5951.6
224.09553	6722
228.37195	7549.5
232.64527	8462.3
236.91549	9384.3
241.18261	10284
245.44663	11091.2
249.70755	11754
253.96539	12350.7
258.22014	12818.2
262.4718	13217.9
266.72039	13451
270.96589	13542.9
275.20832	13477.5
279.44768	13342.8
283.68397	13160.6
287.91719	13041.9
292.14735	12988.2
296.37445	12959.8
300.59849	13037.5
304.81948	13183.2
309.03742	13284.1
313.25231	13358.6
317.46415	13358.4
321.67296	13265.3
325.87872	13163.6
330.08145	13076.4
334.28114	13021.3
338.47781	13032.9
342.67145	13142.1
346.86207	13336.8
351.04966	13561
355.23424	13769
359.4158	13895.5
363.59435	13980.8
367.76989	13995.6
371.94243	13964.2
376.11196	13937.2
380.27849	14020.5
384.44203	14155.1
388.60257	14298.1
392.76012	14400.8
396.91468	14513.8
401.06626	14724.1
405.21485	14893.7
409.36047	14902.2
413.50311	14789.6
417.64277	14976.7
421.77947	15206.8
425.9132	15385.8
430.04396	15493.9
434.17176	15617.2
438.2966	15857.1
442.41849	16302.5
446.53742	17227
450.6534	18094.3
454.76644	18501.7
458.87653	18259.4
462.98368	17648.5
467.08789	16991.8
471.18916	16308.6
475.2875	15651.8
479.38291	15184.4
483.4754	14983
487.56496	14846.5
491.6516	14616.2
495.73531	14451.9
499.81612	14380.8
503.89401	14483.2
507.96899	14536.3
512.04106	14371.9
516.11023	14069.9
520.1765	13788.6
524.23987	13704
528.30034	13717.6
532.35792	13713
536.41261	13471.4
540.46441	13123.1
544.51333	12957.9
548.55936	13096.1
552.60252	13581.5
556.64279	14309.1
560.6802	14955.5
564.71473	15087.2
568.7464	15167.5
572.7752	15650.6
576.80114	16471.2
580.82422	17484
584.84444	19091.5
588.86181	21752.6
592.87633	24626.3
596.888	25336.4
600.89682	22574.4
604.9028	19658.5
608.90594	19042.4
612.90624	19419.4
616.90371	17997.9
620.89834	15022.8
624.89015	13621.4
628.87913	13455.2
632.86528	13543.9
636.84862	13356.6
640.82913	12949.7
644.80683	12568.6
648.78172	12410.4
652.75379	12460.8
656.72306	12646
660.68952	12776.5
664.65319	12631
668.61405	12272.1
672.57211	12272.5
676.52738	12430.1
680.47986	12464.3
684.42955	12281.1
688.37646	12131.8
692.32058	12218.1
696.26192	12526.3
700.20048	12873.6
704.13626	13077
708.06928	13141.3
711.99952	13122.7
715.927	13207.3
719.85171	13338.8
723.77365	13259.7
727.69284	12942.8
731.60928	12660.7
735.52295	12604.3
739.43388	12682.1
743.34206	12780.5
747.24749	12931.5
751.15017	13131.3
755.05012	13444.4
758.94733	13903.2
762.8418	14694.8
766.73354	15906.7
770.62254	16975.3
774.50882	16902.4
778.39237	15847.9
782.27321	14594.4
786.15132	13634.6
790.02671	13032.5
793.89938	12711.8
797.76935	12597.2
801.6366	12570.7
805.50115	12560.1
809.36299	12488.1
813.22213	12317.8
817.07857	12177.4
820.93231	12012.9
824.78336	11869.5
828.63172	11775
832.47738	11750.6
836.32036	11800.9
840.16066	11860.7
843.99827	11890.4
847.8332	11903.6
851.66546	11845.9
855.49504	11862.1
859.32195	11824.3
863.1462	11776.2
866.96777	11692.7
870.78668	11638.4
874.60293	11637.5
878.41652	11635.6
882.22745	11725.3
886.03573	11762.6
889.84136	11755.4
893.64433	11664.3
897.44466	11613.3
901.24235	11571.1
905.0374	11510.8
908.8298	11466.3
912.61957	11457.7
916.40671	11581
920.19121	11858.6
923.97308	12148.7
927.75233	12315.9
931.52895	12122.3
935.30295	11744.7
939.07433	11343.4
942.84309	11114.7
946.60924	11014.8
950.37278	10961.3
954.13371	10985.4
957.89203	11012.3
961.64774	10974.9
965.40086	11011.6
969.15137	10966.3
972.89929	10867.9
976.64461	10767.6
980.38733	10749.9
984.12747	10740.7
987.86502	10821.7
991.59999	10931
995.33237	11130.9
999.06217	11501
1002.78939	11959.2
1006.51404	12407.2
1010.23611	12770.1
1013.95561	13045.9
1017.67255	13278.9
1021.38692	13047.2
1025.09872	12512.5
1028.80796	12165.4
1032.51465	12168.2
1036.21877	12310.9
1039.92035	12410.2
1043.61937	12378.9
1047.31584	12239.6
1051.00976	12094.9
1054.70114	11996.8
1058.38998	11977.9
1062.07627	11985.8
1065.76003	12091.9
1069.44126	12282.9
1073.11995	12585
1076.79611	12838.4
1080.46974	12996.1
1084.14085	13179
1087.80943	13384.8
1091.47549	13622.7
1095.13903	13652.9
1098.80005	13322.4
1102.45857	12795.3
1106.11456	12460.5
1109.76805	12371.6
1113.41903	12482.1
1117.06751	12598.2
1120.71348	12748.2
1124.35696	12941.6
1127.99793	13134.2
1131.63641	13239.9
1135.2724	13261.2
1138.90589	13306.4
1142.5369	13457.1
1146.16542	13699.2
1149.79145	13994.6
1153.415	14179.3
1157.03607	14505.1
1160.65467	15190.9
1164.27079	16419.5
1167.88443	17906.1
1171.49561	19424
1175.10432	21277
1178.71056	23680.1
1182.31434	25781.3
1185.91565	26177
1189.51451	24827.8
1193.11091	23200.6
1196.70485	21970.5
1200.29634	20943.3
1203.88538	20222.5
1207.47197	19948.8
1211.05612	19746.7
1214.63782	19319
1218.21708	18834.3
1221.79391	18527.7
1225.36829	18573.4
1228.94024	18509.5
1232.50976	17919.5
1236.07685	17028.7
1239.6415	16328.9
1243.20374	16084.6
1246.76355	16137.3
1250.32093	16415
1253.8759	16911.2
1257.42845	17576.8
1260.97859	18243.5
1264.52631	18992.8
1268.07163	19678.8
1271.61453	20373.1
1275.15503	21122.1
1278.69312	22158.1
1282.22882	23520.8
1285.76211	25311
1289.29301	27332.1
1292.82151	29497.6
1296.34761	31985.5
1299.87133	34916.4
1303.39266	37837.3
1306.9116	40260.7
1310.42815	42121.1
1313.94233	43236.7
1317.45412	42718.6
1320.96354	40690.9
1324.47058	38489.6
1327.97525	36766.3
1331.47754	35554.9
1334.97747	34520.5
1338.47502	33382.1
1341.97022	31856.2
1345.46305	30390.6
1348.95352	29789.5
1352.44163	30702.6
1355.92738	33372.9
1359.41078	37004.9
1362.89183	39738
1366.37053	40271.5
1369.84688	37252.7
1373.32088	31506.6
1376.79254	27013.9
1380.26186	25642.1
1383.72883	25832
1387.19347	25759.8
1390.65578	25219.5
1394.11575	25181.2
1397.57339	25960.1
1401.0287	27023
1404.48168	27794.2
1407.93234	27777.5
1411.38068	27065.8
1414.82669	25972.8
1418.27039	24674.4
1421.71177	23260.6
1425.15083	21985.1
1428.58758	21350.4
1432.02203	21701.3
1435.45416	22733.6
1438.88399	23837.4
1442.31151	24462.3
1445.73673	24786.4
1449.15965	24854
1452.58027	24481.4
1455.9986	23796.8
1459.41463	23431.7
1462.82837	23598.2
1466.23982	24420.3
1469.64898	25366.9
1473.05586	26035.3
1476.46045	26362.9
1479.86276	26482.7
1483.26279	26210.6
1486.66054	26025.9
1490.05602	26005.4
1493.44922	26116.5
1496.84016	25943.1
1500.22882	25501.7
1503.61521	25165.7
1506.99934	25015.7
1510.38121	25044.5
1513.76081	25055.4
1517.13816	24833.3
1520.51324	24615.4
1523.88607	24763.3
1527.25665	25372.3
1530.62498	25962.9
1533.99105	26132
1537.35488	25741.4
1540.71647	24794.7
1544.07581	23656.2
1547.4329	22442.4
1550.78776	21303.9
1554.14038	20387.2
1557.49077	19787.2
1560.83892	19358.7
1564.18484	19208.4
1567.52853	19260
1570.86999	19618
1574.20922	20166.3
1577.54624	20764.2
1580.88103	21135.7
1584.2136	21705.1
1587.54395	23118
1590.87208	25517.2
1594.19801	28521.8
1597.52172	31497.6
1600.84321	32821.3
1604.16251	31125
1607.47959	27225.3
1610.79447	22822.1
1614.10715	19288.6
1617.41763	16974.9
1620.7259	15674.7
1624.03199	15159.8
1627.33587	15326.8
1630.63757	16099.6
1633.93707	17747.6
1637.23439	20704.5
1640.52951	25526.7
1643.82246	31996.6
1647.11321	37600.9
1650.40179	38495.1
1653.68819	33951.8
1656.97241	26967.3
1660.25446	20877.8
1663.53433	16886.8
1666.81203	14506.2
1670.08756	13160.7
1673.36092	12312.9
1676.63211	11781.4
1679.90115	11430.2
1683.16801	11154.7
1686.43272	10973.6
1689.69527	10840.2
1692.95567	10716
1696.2139	10675.9
1699.46999	10594.9
1702.72392	10508.6
1705.97571	10460.1
1709.22535	10404.7
1712.47284	10375.7
1715.71819	10346.6
1718.96139	10315.7
1722.20246	10249.4
1725.44139	10188.7
1728.67818	10122.8
1731.91284	10054.3
1735.14537	9974.8
1738.37576	9917.4
1741.60403	9851.2
1744.83017	9807.9
1748.05418	9793.8
1751.27607	9766.2
1754.49584	9757.8
1757.71349	9779.9
1760.92903	9780.5
1764.14244	9746.1
1767.35375	9724.3
1770.56294	9659.5
1773.77002	9636.5
1776.97499	9623.8
1780.17785	9566
1783.37861	9545.9
1786.57727	9539.1
1789.77382	9472.5
1792.96828	9456.5
1796.16064	9409.8
1799.3509	9382.4
1802.53907	9376.3
1805.72514	9323.2
1808.90913	9326.9
1812.09102	9287.3
1815.27083	9258.9
1818.44856	9233.2
1821.6242	9234.8
1824.79776	9225.2
1827.96924	9234.9
1831.13864	9214.3
1834.30597	9195.1
1837.47122	9205.8
1840.6344	9189.5
1843.7955	9197.5
1846.95454	9171.9
1850.11151	9208.2
1853.26642	9178.1
1856.41926	9188.4
1859.57004	9171.8
1862.71876	9154.9
1865.86542	9146.4
1869.01003	9153.8
1872.15258	9132.8
1875.29308	9132
1878.43152	9134.6
1881.56792	9120
1884.70227	9126.4
1887.83457	9143.6
1890.96482	9113.2
1894.09304	9121.5
1897.21921	9092.1
1900.34335	9101.8
1903.46544	9081.6
1906.58551	9088.7
1909.70353	9049.4
1912.81953	9050.3
1915.93349	9008.5
1919.04543	8988
1922.15534	8948.9
1925.26322	8952.8
1928.36908	8903.6
1931.47292	8878.5
1934.57473	8830.6
1937.67453	8817.2
1940.77232	8796.2
1943.86808	8796.8
1946.96184	8775.1
1950.05358	8743
1953.14331	8729.5
1956.23103	8700.9
1959.31675	8681.4
1962.40046	8634.8
1965.48217	8601.8
1968.56188	8573.1
1971.63959	8534.5
1974.7153	8508.6
1977.78901	8494.2
1980.86073	8433.8
1983.93046	8433.4
1986.99819	8410.7
1990.06394	8389.8
1993.1277	8384.8
1996.18947	8345.5
1999.24925	8333.9
2002.30706	8313.8
2005.36288	8283
2008.41672	8270.8
2011.46859	8223.2
2014.51848	8216.1
2017.56639	8189.9
2020.61233	8177.5
2023.6563	8168.5
2026.6983	8153.7
2029.73833	8135.9
2032.7764	8133.3
2035.8125	8082.2
2038.84664	8064.3
2041.87881	8070.6
2044.90903	8039.8
2047.93729	8031.9
2050.96359	8059
2053.98794	8030.9
2057.01034	8041.5
2060.03078	8035.5
2063.04927	7995
2066.06582	8014.9
2069.08042	7993.6
2072.09307	7990.2
2075.10378	7980.5
2078.11255	7963
2081.11938	7979.5
2084.12426	7971.5
2087.12722	7979.7
2090.12824	7957.4
2093.12732	7988.7
2096.12447	7967.6
2099.11969	7963.6
2102.11299	7981.3
2105.10435	7989.5
2108.09379	8001.9
2111.08131	7976.8
2114.0669	7968.4
2117.05057	7975.5
2120.03233	7986
2123.01216	7972.6
2125.99008	7956.5
2128.96609	7976.2
2131.94018	7980.7
2134.91236	7980.3
2137.88263	7983.9
2140.851	7984.6
2143.81746	7982.8
2146.78201	7975.1
2149.74466	7967.6
2152.7054	7943.2
2155.66425	7950.2
2158.6212	7943.2
2161.57625	7946.3
2164.52941	7967.3
2167.48067	7952.6
2170.43004	7946.9
2173.37752	7954.3
2176.32311	7932.7
2179.26681	7941.6
2182.20863	7957.5
2185.14856	7959.5
2188.08661	7971.1
2191.02278	7977.4
2193.95707	7964.2
2196.88948	7974
2199.82001	7958.9
2202.74867	7943.1
2205.67545	7911.9
2208.60037	7879.5
2211.52341	7898.1
2214.44458	7879.3
2217.36388	7866.5
2220.28132	7863.5
2223.1969	7811.3
2226.11061	7850
2229.02246	7828.2
2231.93245	7817.1
2234.84058	7835.3
2237.74686	7813.1
2240.65128	7826.8
2243.55385	7826.9
2246.45456	7802.1
2249.35343	7789.5
2252.25044	7741.5
2255.14561	7706.5
2258.03893	7701.9
2260.93041	7700.5
2263.82004	7659.7
2266.70783	7641
2269.59378	7592.3
2272.4779	7586.1
2275.36017	7557.7
2278.24061	7548.7
2281.11922	7530.1
2283.996	7532.1
2286.87094	7551.8
2289.74405	7529.9
2292.61534	7526.6
2295.4848	7499.7
2298.35243	7528.3
2301.21824	7513.2
2304.08223	7507.1
2306.94439	7506.6
2309.80474	7530
2312.66327	7511
2315.51999	7509.3
2318.37489	7505.7
2321.22797	7502.1
2324.07925	7486.9
2326.92871	7482.1
2329.77637	7474.4
2332.62222	7462.6
2335.46626	7449.1
2338.3085	7447
2341.14893	7459.1
2343.98756	7456.9
2346.8244	7472.6
2349.65943	7466.2
2352.49267	7466.9
2355.32411	7448.9
2358.15376	7443.2
2360.98161	7458.4
2363.80768	7443.4
2366.63195	7432.3
2369.45444	7428.9
2372.27514	7414.2
2375.09405	7391.8
2377.91118	7389.5
2380.72652	7369.3
2383.54009	7363.6
2386.35187	7333.6
2389.16188	7331.2
2391.97011	7326
2394.77657	7291.8
2397.58125	7293.5
2400.38416	7303.4
2403.18529	7318.4
2405.98466	7285.8
2408.78226	7278.3
2411.57809	7260.2
2414.37216	7249.4
2417.16446	7245.7
2419.955	7222.1
2422.74378	7238.5
2425.5308	7215.7
2428.31606	7210.9
2431.09956	7209.2
2433.88131	7206.2
2436.6613	7213.6
2439.43954	7202.6
2442.21603	7181.1
2444.99077	7207.8
2447.76377	7207.3
2450.53501	7203.2
2453.30451	7188.2
2456.07226	7202.4
2458.83827	7201.4
2461.60254	7209.8
2464.36507	7216.4
2467.12586	7221.1
2469.88492	7217.9
2472.64224	7209.2
2475.39782	7235.3
2478.15167	7229.7
2480.90379	7233.3
2483.65417	7231.8
2486.40283	7210
2489.14976	7219.3
2491.89497	7230.1
2494.63845	7245.1
2497.3802	7260.4
2500.12024	7244.7
2502.85855	7242.9
2505.59514	7226.5
2508.33002	7219.7
2511.06318	7220.7
2513.79462	7207.3
2516.52435	7196.2
2519.25237	7192.6
2521.97867	7181.9
2524.70327	7181.1
2527.42616	7173.3
2530.14734	7167.5
2532.86681	7165.9
2535.58458	7154.7
2538.30065	7138.9
2541.01501	7165.2
2543.72768	7146.7
2546.43864	7142.9
2549.14791	7147.9
2551.85548	7136.7
2554.56136	7129.6
2557.26554	7133
2559.96803	7124.5
2562.66883	7151.5
2565.36794	7162.3
2568.06536	7150.4
2570.7611	7148.2
2573.45514	7162
2576.14751	7135.4
2578.83819	7146.4
2581.52719	7143
2584.21451	7172.9
2586.90015	7162.7
2589.58411	7169.4
2592.2664	7121
2594.94701	7114.4
2597.62594	7117.4
2600.30321	7113.4
2602.9788	7118.5
2605.65273	7125.8
2608.32498	7132.7
2610.99557	7128.5
2613.66449	7121.7
2616.33175	7119.9
2618.99734	7125
2621.66128	7103.9
2624.32355	7116.4
2626.98416	7123.4
2629.64311	7118.5
2632.30041	7106.9
2634.95605	7118.3
2637.61004	7114.4
2640.26238	7102.6
2642.91306	7091.6
2645.56209	7085.4
2648.20948	7083.8
2650.85521	7088.7
2653.4993	7095.6
2656.14175	7098.5
2658.78255	7119.6
2661.42171	7110.6
2664.05923	7146.8
2666.6951	7151.5
2669.32934	7166.6
2671.96194	7164.7
2674.59291	7155.6
2677.22224	7138
2679.84993	7167.5
2682.476	7151.2
2685.10043	7132.5
2687.72324	7123.5
2690.34441	7115.7
2692.96396	7137.1
2695.58188	7140.8
2698.19818	7119.7
2700.81285	7138
2703.4259	7166.6
2706.03733	7209.9
2708.64714	7178.9
2711.25533	7191.4
2713.86191	7183.7
2716.46687	7196
2719.07021	7218.6
2721.67194	7201.9
2724.27206	7182.6
2726.87057	7200
2729.46747	7206.7
2732.06276	7236.1
2734.65644	7227.5
2737.24852	7234.3
2739.83899	7206.1
2742.42786	7220.3
2745.01513	7198
2747.60079	7224.1
2750.18486	7207.7
2752.76733	7205.5
2755.3482	7195.8
2757.92747	7227.7
2760.50515	7210.7
2763.08123	7218
2765.65573	7203.8
2768.22863	7221.1
2770.79994	7210.2
2773.36967	7255.8
2775.9378	7230.4
2778.50435	7227.5
2781.06932	7239
2783.6327	7231.3
2786.1945	7230.9
2788.75471	7223.1
2791.31335	7214.7
2793.87041	7212.4
2796.42589	7216.8
2798.97979	7180.4
2801.53212	7200.8
2804.08288	7191.2
2806.63206	7173
2809.17967	7150.3
2811.72571	7150.6
2814.27018	7140.2
2816.81308	7140.7
2819.35442	7126.8
2821.89419	7127.8
2824.43239	7121.5
2826.96904	7147.9
2829.50412	7149.6
2832.03763	7119.5
2834.56959	7134
2837.1	7131.9
2839.62884	7128.2
2842.15613	7131.3
2844.68186	7177.4
2847.20604	7185.1
2849.72867	7200.8
2852.24974	7177.6
2854.76927	7200.6
2857.28724	7200.2
2859.80367	7181
2862.31855	7137.3
2864.83189	7136.4
2867.34368	7120.8
2869.85393	7144.3
2872.36264	7126.1
2874.8698	7128.5
2877.37543	7118.3
2879.87952	7129.3
2882.38207	7144.6
2884.88308	7140.6
2887.38256	7132.1
2889.88051	7147.1
2892.37692	7143.1
2894.8718	7178.5
2897.36515	7189.7
2899.85698	7202.6
2902.34727	7225.2
2904.83604	7206.3
2907.32328	7207.4
2909.809	7212
2912.29319	7220
2914.77587	7212.5
2917.25702	7220.9
2919.73665	7217.7
2922.21476	7228.1
2924.69136	7242.9
2927.16644	7227.2
2929.64	7215.8
2932.11205	7200
2934.58258	7200.9
2937.05161	7214.7
2939.51912	7204.7
2941.98513	7199.1
2944.44962	7175.5
2946.91261	7145.5
2949.37409	7176.2
2951.83407	7141.3
2954.29254	7135.7
2956.74951	7133.9
2959.20498	7116.6
2961.65895	7089.1
2964.11142	7083.1
2966.56239	7074
2969.01186	7039
2971.45984	7003.7
2973.90632	6981.1
2976.35131	6963
2978.7948	6944.2
2981.23681	6912.5
2983.67732	6883.9
2986.11635	6885.5
2988.55388	6844.6
2990.98993	6842.5
2993.4245	6842.2
2995.85758	6805.3
2998.28917	6787.5
3000.71928	6789.7
3003.14791	6788.2
3005.57506	6776.2
3008.00073	6765.6
3010.42493	6749.5
3012.84764	6757.7
3015.26888	6737.4
3017.68865	6702.5
3020.10694	6701.9
3022.52376	6689.9
3024.9391	6666.4
3027.35298	6661.7
3029.76539	6646.8
3032.17632	6665.1
3034.5858	6628.5
3036.9938	6630
3039.40034	6639.6
3041.80542	6625.2
3044.20903	6626.3
3046.61118	6610.5
3049.01187	6610.9
3051.4111	6579.3
3053.80888	6581.2
3056.20519	6574.2
3058.60005	6585.2
3060.99345	6557.1
3063.3854	6545.1
3065.7759	6534.7
3068.16494	6495.5
3070.55254	6479.4
3072.93868	6466.3
3075.32338	6453.6
3077.70662	6422.9
3080.08842	6418.6
3082.46878	6410.1
3084.84769	6400.9
3087.22515	6367.1
3089.60118	6390.4
3091.97576	6379.5
3094.3489	6385.5
3096.72061	6384.7
3099.09087	6363.8
3101.4597	6361.6
3103.82709	6369.8
3106.19305	6352.6
3108.55757	6341.7
3110.92066	6319.6
3113.28232	6307.7
3115.64255	6297.9
3118.00134	6295.4
3120.35871	6284.7
3122.71466	6275.1
3125.06917	6251.1
3127.42226	6248.9
3129.77393	6260.7
3132.12417	6259.6
3134.47299	6256.1
3136.82039	6235.7
3139.16636	6260.4
3141.51092	6246.2
3143.85406	6251.2
3146.19579	6250.1
3148.53609	6237.5
3150.87499	6235.6
3153.21246	6239.1
3155.54853	6242.1
3157.88318	6227.1
3160.21642	6236.6
3162.54826	6220.4
3164.87868	6223.2
3167.2077	6211.4
3169.5353	6214.3
3171.86151	6215.3
3174.18631	6220.7
3176.5097	6218.7
3178.83169	6211.2
3181.15228	6206.9
3183.47147	6207.5
3185.78926	6213.6
3188.10565	6211.1
3190.42065	6197.3
3192.73424	6193.7
3195.04645	6178.6
3197.35725	6186.6
3199.66667	6200.3
3201.97469	6167.5
3204.28132	6161.9
3206.58656	6186
3208.8904	6165.3
3211.19287	6175.6
3213.49394	6160.1
3215.79363	6146.4
3218.09193	6152
3220.38884	6173.8
3222.68438	6180.9
3224.97853	6162.7
3227.2713	6168.5
3229.56269	6149.7
3231.8527	6166.4
3234.14133	6155.6
3236.42858	6150.4
3238.71446	6137
3240.99896	6139.8
3243.28209	6145.6
3245.56384	6124.2
3247.84423	6131.6
3250.12324	6118.5
3252.40088	6111.4
3254.67715	6118.6
3256.95205	6099.2
3259.22558	6066.3
3261.49775	6048.9
3263.76855	6052.2
3266.03799	6033.1
3268.30606	6014.8
3270.57277	5992.5
3272.83812	5988.9
3275.10211	5987.8
3277.36474	5980
3279.62601	6005.4
3281.88593	5996.8
3284.14448	6020.9
3286.40168	6035.6
3288.65753	6021
3290.91202	6002.3
3293.16516	5987.4
3295.41695	5973.3
3297.66738	5942.9
3299.91647	5906
3302.16421	5876.9
3304.4106	5851.4
3306.65564	5820.1
3308.89933	5769
3311.14169	5745.8
3313.38269	5682.8
3315.62236	5671.7
3317.86068	5609.7
3320.09766	5550.5
3322.3333	5533.2
3324.5676	5515.2
3326.80056	5437.2
3329.03219	5415.7
3331.26248	1.6
3333.49143	0
3335.71905	0.7
