Data from AgNPs_FTO_APTES_UA_50um_CRN_0.1mM_R6G_10uM_NaF_0.1M_Addition_RamanShift__0__15-02-59-222.txt Node

Date: Tue Dec 21 15:02:59 GMT 2021
User: TCL
Spectrometer: QEP01345
Trigger mode: 4
Integration Time (sec): 7.000000E0
Scans to average: 10
Electric dark correction enabled: true
Nonlinearity correction enabled: false
Boxcar width: 0
XAxis mode: Raman Shifts
Number of Pixels in Spectrum: 1044
>>>>>Begin Spectral Data<<<<<
46.04893	0.5875
50.45542	-0.6125
54.85868	-0.3125
59.25871	-1.0125
63.6555	10.3875
68.04907	11.6875
72.43941	15.0875
76.82654	14.1875
81.21044	16.8875
85.59113	18.8875
89.96862	13.4875
94.34289	16.2875
98.71396	15.2875
103.08183	18.0875
107.4465	21.9875
111.80798	23.3875
116.16626	20.6875
120.52136	19.1875
124.87327	20.0875
129.222	18.8875
133.56755	20.5875
137.90993	25.4875
142.24913	27.4875
146.58517	28.9875
150.91804	30.1875
155.24774	39.5875
159.57429	51.0875
163.89768	63.6875
168.21792	83.8875
172.53501	109.4875
176.84895	146.5875
181.15975	216.1875
185.46741	293.7875
189.77193	414.9875
194.07331	556.4875
198.37157	714.3875
202.6667	887.1875
206.9587	1062.9875
211.24758	1229.9875
215.53334	1412.8875
219.81599	1596.6875
224.09553	1802.0875
228.37195	2026.9875
232.64527	2271.2875
236.91549	2520.1875
241.18261	2767.2875
245.44663	3002.1875
249.70755	3193.1875
253.96539	3350.0875
258.22014	3487.3875
262.4718	3587.4875
266.72039	3672.2875
270.96589	3687.4875
275.20832	3689.0875
279.44768	3650.8875
283.68397	3602.4875
287.91719	3588.6875
292.14735	3547.9875
296.37445	3552.6875
300.59849	3566.9875
304.81948	3614.5875
309.03742	3652.1875
313.25231	3641.3875
317.46415	3573.6875
321.67296	3456.0875
325.87872	3359.1875
330.08145	3310.6875
334.28114	3296.0875
338.47781	3319.7875
342.67145	3365.9875
346.86207	3431.2875
351.04966	3496.2875
355.23424	3576.5875
359.4158	3652.2875
363.59435	3692.0875
367.76989	3730.1875
371.94243	3739.4875
376.11196	3752.4875
380.27849	3762.3875
384.44203	3768.0875
388.60257	3780.1875
392.76012	3817.1875
396.91468	3858.1875
401.06626	3925.3875
405.21485	3973.8875
409.36047	3958.0875
413.50311	3885.3875
417.64277	3801.2875
421.77947	3760.4875
425.9132	3750.9875
430.04396	3753.6875
434.17176	3771.0875
438.2966	3791.1875
442.41849	3844.9875
446.53742	3923.3875
450.6534	4006.9875
454.76644	4063.8875
458.87653	4071.8875
462.98368	4062.1875
467.08789	4042.3875
471.18916	3985.7875
475.2875	3958.4875
479.38291	3920.8875
483.4754	3894.7875
487.56496	3872.4875
491.6516	3840.6875
495.73531	3793.3875
499.81612	3778.3875
503.89401	3788.7875
507.96899	3796.5875
512.04106	3789.3875
516.11023	3774.2875
520.1765	3768.6875
524.23987	3761.1875
528.30034	3740.2875
532.35792	3697.6875
536.41261	3668.8875
540.46441	3622.7875
544.51333	3614.5875
548.55936	3607.7875
552.60252	3675.7875
556.64279	3760.1875
560.6802	3803.7875
564.71473	3818.4875
568.7464	3873.4875
572.7752	3987.3875
576.80114	4044.9875
580.82422	4085.7875
584.84444	4180.4875
588.86181	4290.1875
592.87633	4391.9875
596.888	4425.1875
600.89682	4344.6875
604.9028	4389.5875
608.90594	4771.9875
612.90624	5343.2875
616.90371	5140.0875
620.89834	4219.2875
624.89015	3759.0875
628.87913	3697.5875
632.86528	3727.9875
636.84862	3794.2875
640.82913	3752.3875
644.80683	3656.0875
648.78172	3560.0875
652.75379	3551.2875
656.72306	3580.7875
660.68952	3648.3875
664.65319	3627.3875
668.61405	3558.6875
672.57211	3526.9875
676.52738	3535.0875
680.47986	3544.3875
684.42955	3523.7875
688.37646	3495.1875
692.32058	3491.9875
696.26192	3500.1875
700.20048	3548.3875
704.13626	3582.4875
708.06928	3595.6875
711.99952	3578.1875
715.927	3577.1875
719.85171	3558.8875
723.77365	3559.9875
727.69284	3513.0875
731.60928	3483.8875
735.52295	3462.7875
739.43388	3462.5875
743.34206	3473.5875
747.24749	3495.6875
751.15017	3517.9875
755.05012	3563.7875
758.94733	3655.2875
762.8418	3840.3875
766.73354	4162.8875
770.62254	4533.9875
774.50882	4675.2875
778.39237	4509.9875
782.27321	4135.7875
786.15132	3796.1875
790.02671	3582.8875
793.89938	3473.6875
797.76935	3423.2875
801.6366	3427.7875
805.50115	3397.5875
809.36299	3411.2875
813.22213	3395.1875
817.07857	3362.5875
820.93231	3365.5875
824.78336	3348.1875
828.63172	3324.8875
832.47738	3317.9875
836.32036	3325.0875
840.16066	3323.2875
843.99827	3315.1875
847.8332	3299.9875
851.66546	3290.8875
855.49504	3294.7875
859.32195	3290.0875
863.1462	3276.9875
866.96777	3278.8875
870.78668	3279.0875
874.60293	3269.6875
878.41652	3275.7875
882.22745	3291.7875
886.03573	3303.9875
889.84136	3327.3875
893.64433	3303.0875
897.44466	3274.3875
901.24235	3266.6875
905.0374	3249.2875
908.8298	3227.4875
912.61957	3218.6875
916.40671	3238.3875
920.19121	3261.0875
923.97308	3300.4875
927.75233	3310.5875
931.52895	3295.7875
935.30295	3262.6875
939.07433	3199.6875
942.84309	3158.6875
946.60924	3121.9875
950.37278	3100.7875
954.13371	3075.2875
957.89203	3078.2875
961.64774	3079.2875
965.40086	3064.5875
969.15137	3070.2875
972.89929	3048.4875
976.64461	3037.8875
980.38733	3056.8875
984.12747	3048.9875
987.86502	3060.0875
991.59999	3054.4875
995.33237	3086.3875
999.06217	3117.1875
1002.78939	3172.5875
1006.51404	3222.0875
1010.23611	3263.0875
1013.95561	3285.1875
1017.67255	3306.9875
1021.38692	3292.9875
1025.09872	3240.7875
1028.80796	3189.5875
1032.51465	3181.8875
1036.21877	3204.1875
1039.92035	3225.4875
1043.61937	3232.8875
1047.31584	3241.5875
1051.00976	3239.4875
1054.70114	3254.1875
1058.38998	3241.7875
1062.07627	3258.6875
1065.76003	3307.7875
1069.44126	3336.1875
1073.11995	3387.3875
1076.79611	3431.8875
1080.46974	3464.1875
1084.14085	3482.5875
1087.80943	3499.2875
1091.47549	3522.1875
1095.13903	3547.4875
1098.80005	3497.3875
1102.45857	3415.1875
1106.11456	3344.7875
1109.76805	3301.3875
1113.41903	3324.3875
1117.06751	3365.8875
1120.71348	3416.4875
1124.35696	3505.6875
1127.99793	3562.3875
1131.63641	3627.1875
1135.2724	3587.1875
1138.90589	3545.9875
1142.5369	3490.1875
1146.16542	3483.2875
1149.79145	3472.0875
1153.415	3477.8875
1157.03607	3495.0875
1160.65467	3539.0875
1164.27079	3643.6875
1167.88443	3802.7875
1171.49561	4027.7875
1175.10432	4312.6875
1178.71056	4680.6875
1182.31434	5022.6875
1185.91565	5152.9875
1189.51451	5112.7875
1193.11091	4904.4875
1196.70485	4712.8875
1200.29634	4532.2875
1203.88538	4378.5875
1207.47197	4259.5875
1211.05612	4147.3875
1214.63782	4047.4875
1218.21708	3956.3875
1221.79391	3882.0875
1225.36829	3857.2875
1228.94024	3820.9875
1232.50976	3802.9875
1236.07685	3772.4875
1239.6415	3735.0875
1243.20374	3747.9875
1246.76355	3769.3875
1250.32093	3783.7875
1253.8759	3850.9875
1257.42845	3945.1875
1260.97859	4053.7875
1264.52631	4160.4875
1268.07163	4241.4875
1271.61453	4324.1875
1275.15503	4400.6875
1278.69312	4513.5875
1282.22882	4610.9875
1285.76211	4732.5875
1289.29301	4903.3875
1292.82151	5117.4875
1296.34761	5344.1875
1299.87133	5606.6875
1303.39266	5911.9875
1306.9116	6231.7875
1310.42815	6548.0875
1313.94233	6716.4875
1317.45412	6637.5875
1320.96354	6441.9875
1324.47058	6235.1875
1327.97525	6009.2875
1331.47754	5876.9875
1334.97747	5797.7875
1338.47502	5748.9875
1341.97022	5712.6875
1345.46305	5716.4875
1348.95352	5794.3875
1352.44163	5955.9875
1355.92738	6221.9875
1359.41078	6638.7875
1362.89183	7090.3875
1366.37053	7086.4875
1369.84688	6484.0875
1373.32088	5655.9875
1376.79254	5105.2875
1380.26186	4827.3875
1383.72883	4738.9875
1387.19347	4674.3875
1390.65578	4591.2875
1394.11575	4522.1875
1397.57339	4509.8875
1401.0287	4501.2875
1404.48168	4503.6875
1407.93234	4452.2875
1411.38068	4370.8875
1414.82669	4273.1875
1418.27039	4140.5875
1421.71177	4053.6875
1425.15083	3929.9875
1428.58758	3878.7875
1432.02203	3876.4875
1435.45416	3940.7875
1438.88399	4016.8875
1442.31151	4047.8875
1445.73673	4100.5875
1449.15965	4153.6875
1452.58027	4145.5875
1455.9986	4160.5875
1459.41463	4187.1875
1462.82837	4225.1875
1466.23982	4288.7875
1469.64898	4356.2875
1473.05586	4408.8875
1476.46045	4432.9875
1479.86276	4464.9875
1483.26279	4481.4875
1486.66054	4506.6875
1490.05602	4579.5875
1493.44922	4686.8875
1496.84016	4886.2875
1500.22882	5155.5875
1503.61521	5487.7875
1506.99934	5874.4875
1510.38121	6170.6875
1513.76081	6230.8875
1517.13816	5982.4875
1520.51324	5559.5875
1523.88607	5196.4875
1527.25665	4959.8875
1530.62498	4848.0875
1533.99105	4770.1875
1537.35488	4656.9875
1540.71647	4562.7875
1544.07581	4410.0875
1547.4329	4307.7875
1550.78776	4226.8875
1554.14038	4171.6875
1557.49077	4175.8875
1560.83892	4177.5875
1564.18484	4238.2875
1567.52853	4308.5875
1570.86999	4369.2875
1574.20922	4472.8875
1577.54624	4515.0875
1580.88103	4462.9875
1584.2136	4342.5875
1587.54395	4305.4875
1590.87208	4393.5875
1594.19801	4554.3875
1597.52172	4778.1875
1600.84321	4848.8875
1604.16251	4704.6875
1607.47959	4410.1875
1610.79447	4096.0875
1614.10715	3815.4875
1617.41763	3575.4875
1620.7259	3434.1875
1624.03199	3335.0875
1627.33587	3323.5875
1630.63757	3375.4875
1633.93707	3530.5875
1637.23439	3818.9875
1640.52951	4227.7875
1643.82246	4786.1875
1647.11321	5345.7875
1650.40179	5630.2875
1653.68819	5440.4875
1656.97241	4843.9875
1660.25446	4162.0875
1663.53433	3628.7875
1666.81203	3283.9875
1670.08756	3079.9875
1673.36092	2946.2875
1676.63211	2868.5875
1679.90115	2791.6875
1683.16801	2757.0875
1686.43272	2717.2875
1689.69527	2710.9875
1692.95567	2677.1875
1696.2139	2670.6875
1699.46999	2660.3875
1702.72392	2637.8875
1705.97571	2609.6875
1709.22535	2589.3875
1712.47284	2570.2875
1715.71819	2547.0875
1718.96139	2550.4875
1722.20246	2527.3875
1725.44139	2510.5875
1728.67818	2508.8875
1731.91284	2494.3875
1735.14537	2476.4875
1738.37576	2449.3875
1741.60403	2447.6875
1744.83017	2442.5875
1748.05418	2445.1875
1751.27607	2442.1875
1754.49584	2448.0875
1757.71349	2466.8875
1760.92903	2450.2875
1764.14244	2434.4875
1767.35375	2449.9875
1770.56294	2437.8875
1773.77002	2413.4875
1776.97499	2399.0875
1780.17785	2388.8875
1783.37861	2359.1875
1786.57727	2365.9875
1789.77382	2350.3875
1792.96828	2353.5875
1796.16064	2337.0875
1799.3509	2331.2875
1802.53907	2328.9875
1805.72514	2308.2875
1808.90913	2320.8875
1812.09102	2310.6875
1815.27083	2292.9875
1818.44856	2294.7875
1821.6242	2285.0875
1824.79776	2290.3875
1827.96924	2279.7875
1831.13864	2271.2875
1834.30597	2272.3875
1837.47122	2266.3875
1840.6344	2264.8875
1843.7955	2255.9875
1846.95454	2253.6875
1850.11151	2253.7875
1853.26642	2247.8875
1856.41926	2259.6875
1859.57004	2241.8875
1862.71876	2237.3875
1865.86542	2244.0875
1869.01003	2236.5875
1872.15258	2238.7875
1875.29308	2231.2875
1878.43152	2227.7875
1881.56792	2220.0875
1884.70227	2216.8875
1887.83457	2218.1875
1890.96482	2205.7875
1894.09304	2199.0875
1897.21921	2201.9875
1900.34335	2200.4875
1903.46544	2200.0875
1906.58551	2187.3875
1909.70353	2187.3875
1912.81953	2185.0875
1915.93349	2184.0875
1919.04543	2181.4875
1922.15534	2179.0875
1925.26322	2174.8875
1928.36908	2164.6875
1931.47292	2150.8875
1934.57473	2157.9875
1937.67453	2136.3875
1940.77232	2136.7875
1943.86808	2127.8875
1946.96184	2118.1875
1950.05358	2120.2875
1953.14331	2107.9875
1956.23103	2098.5875
1959.31675	2097.0875
1962.40046	2092.1875
1965.48217	2076.7875
1968.56188	2074.5875
1971.63959	2069.8875
1974.7153	2059.2875
1977.78901	2063.1875
1980.86073	2054.3875
1983.93046	2044.6875
1986.99819	2029.4875
1990.06394	2023.4875
1993.1277	2024.1875
1996.18947	2007.5875
1999.24925	2016.6875
2002.30706	1992.6875
2005.36288	1992.2875
2008.41672	1992.2875
2011.46859	1978.1875
2014.51848	1970.7875
2017.56639	1960.2875
2020.61233	1965.4875
2023.6563	1963.9875
2026.6983	1957.6875
2029.73833	1932.1875
2032.7764	1936.2875
2035.8125	1941.7875
2038.84664	1928.8875
2041.87881	1925.0875
2044.90903	1921.6875
2047.93729	1919.7875
2050.96359	1915.1875
2053.98794	1917.2875
2057.01034	1927.0875
2060.03078	1909.7875
2063.04927	1904.0875
2066.06582	1903.1875
2069.08042	1895.1875
2072.09307	1897.6875
2075.10378	1899.3875
2078.11255	1891.9875
2081.11938	1899.8875
2084.12426	1901.6875
2087.12722	1891.6875
2090.12824	1893.0875
2093.12732	1891.6875
2096.12447	1884.9875
2099.11969	1876.7875
2102.11299	1895.3875
2105.10435	1887.1875
2108.09379	1896.4875
2111.08131	1897.0875
2114.0669	1889.4875
2117.05057	1888.5875
2120.03233	1886.3875
2123.01216	1884.4875
2125.99008	1892.6875
2128.96609	1890.4875
2131.94018	1884.9875
2134.91236	1892.4875
2137.88263	1894.5875
2140.851	1890.8875
2143.81746	1881.8875
2146.78201	1893.1875
2149.74466	1891.0875
2152.7054	1892.7875
2155.66425	1877.4875
2158.6212	1884.7875
2161.57625	1869.5875
2164.52941	1885.0875
2167.48067	1881.5875
2170.43004	1870.1875
2173.37752	1871.1875
2176.32311	1876.1875
2179.26681	1877.0875
2182.20863	1874.4875
2185.14856	1865.9875
2188.08661	1870.8875
2191.02278	1869.9875
2193.95707	1854.8875
2196.88948	1862.7875
2199.82001	1855.1875
2202.74867	1856.2875
2205.67545	1863.6875
2208.60037	1846.6875
2211.52341	1859.3875
2214.44458	1852.0875
2217.36388	1837.7875
2220.28132	1835.7875
2223.1969	1832.2875
2226.11061	1826.6875
2229.02246	1826.1875
2231.93245	1820.2875
2234.84058	1819.1875
2237.74686	1818.3875
2240.65128	1803.8875
2243.55385	1813.4875
2246.45456	1811.2875
2249.35343	1801.3875
2252.25044	1789.6875
2255.14561	1801.8875
2258.03893	1799.8875
2260.93041	1806.8875
2263.82004	1794.2875
2266.70783	1783.2875
2269.59378	1773.2875
2272.4779	1775.6875
2275.36017	1775.3875
2278.24061	1769.2875
2281.11922	1762.5875
2283.996	1758.6875
2286.87094	1747.8875
2289.74405	1742.6875
2292.61534	1744.0875
2295.4848	1746.7875
2298.35243	1745.2875
2301.21824	1732.9875
2304.08223	1734.8875
2306.94439	1745.8875
2309.80474	1732.4875
2312.66327	1732.3875
2315.51999	1728.8875
2318.37489	1723.8875
2321.22797	1724.0875
2324.07925	1725.5875
2326.92871	1724.1875
2329.77637	1719.0875
2332.62222	1710.7875
2335.46626	1714.5875
2338.3085	1712.2875
2341.14893	1713.9875
2343.98756	1705.6875
2346.8244	1705.5875
2349.65943	1706.4875
2352.49267	1707.5875
2355.32411	1704.9875
2358.15376	1704.7875
2360.98161	1711.1875
2363.80768	1703.4875
2366.63195	1703.3875
2369.45444	1702.5875
2372.27514	1694.0875
2375.09405	1692.6875
2377.91118	1692.7875
2380.72652	1682.5875
2383.54009	1682.0875
2386.35187	1690.9875
2389.16188	1667.6875
2391.97011	1670.1875
2394.77657	1662.0875
2397.58125	1648.4875
2400.38416	1653.5875
2403.18529	1649.7875
2405.98466	1651.7875
2408.78226	1649.4875
2411.57809	1639.9875
2414.37216	1640.1875
2417.16446	1645.1875
2419.955	1633.4875
2422.74378	1639.8875
2425.5308	1628.7875
2428.31606	1635.8875
2431.09956	1629.7875
2433.88131	1634.5875
2436.6613	1619.2875
2439.43954	1633.5875
2442.21603	1611.3875
2444.99077	1619.0875
2447.76377	1624.2875
2450.53501	1619.8875
2453.30451	1625.1875
2456.07226	1625.5875
2458.83827	1622.1875
2461.60254	1620.5875
2464.36507	1616.7875
2467.12586	1614.4875
2469.88492	1614.9875
2472.64224	1608.1875
2475.39782	1623.5875
2478.15167	1628.6875
2480.90379	1611.3875
2483.65417	1609.3875
2486.40283	1614.2875
2489.14976	1601.8875
2491.89497	1611.4875
2494.63845	1630.1875
2497.3802	1615.4875
2500.12024	1611.3875
2502.85855	1605.2875
2505.59514	1602.9875
2508.33002	1601.6875
2511.06318	1601.5875
2513.79462	1588.8875
2516.52435	1588.4875
2519.25237	1582.0875
2521.97867	1576.6875
2524.70327	1583.3875
2527.42616	1581.1875
2530.14734	1572.9875
2532.86681	1571.4875
2535.58458	1574.2875
2538.30065	1559.1875
2541.01501	1571.1875
2543.72768	1568.0875
2546.43864	1568.8875
2549.14791	1567.1875
2551.85548	1562.5875
2554.56136	1563.9875
2557.26554	1561.9875
2559.96803	1553.6875
2562.66883	1550.2875
2565.36794	1547.3875
2568.06536	1549.0875
2570.7611	1551.6875
2573.45514	1546.1875
2576.14751	1544.6875
2578.83819	1537.3875
2581.52719	1540.6875
2584.21451	1529.2875
2586.90015	1526.5875
2589.58411	1525.7875
2592.2664	1524.2875
2594.94701	1516.8875
2597.62594	1524.6875
2600.30321	1515.8875
2602.9788	1511.9875
2605.65273	1510.9875
2608.32498	1502.4875
2610.99557	1508.5875
2613.66449	1505.8875
2616.33175	1507.3875
2618.99734	1502.7875
2621.66128	1495.9875
2624.32355	1502.3875
2626.98416	1502.6875
2629.64311	1493.9875
2632.30041	1491.7875
2634.95605	1496.2875
2637.61004	1487.5875
2640.26238	1493.3875
2642.91306	1488.8875
2645.56209	1487.2875
2648.20948	1491.9875
2650.85521	1478.2875
2653.4993	1479.0875
2656.14175	1483.2875
2658.78255	1485.1875
2661.42171	1485.1875
2664.05923	1479.1875
2666.6951	1484.8875
2669.32934	1483.1875
2671.96194	1485.8875
2674.59291	1485.2875
2677.22224	1493.4875
2679.84993	1489.0875
2682.476	1482.6875
2685.10043	1484.6875
2687.72324	1482.5875
2690.34441	1475.6875
2692.96396	1475.8875
2695.58188	1476.6875
2698.19818	1478.5875
2700.81285	1480.8875
2703.4259	1503.3875
2706.03733	1542.9875
2708.64714	1511.0875
2711.25533	1502.8875
2713.86191	1489.8875
2716.46687	1484.3875
2719.07021	1485.9875
2721.67194	1486.0875
2724.27206	1480.6875
2726.87057	1486.0875
2729.46747	1472.8875
2732.06276	1474.5875
2734.65644	1477.8875
2737.24852	1474.1875
2739.83899	1473.8875
2742.42786	1471.5875
2745.01513	1469.0875
2747.60079	1474.2875
2750.18486	1467.0875
2752.76733	1464.0875
2755.3482	1465.5875
2757.92747	1466.3875
2760.50515	1455.3875
2763.08123	1456.9875
2765.65573	1447.0875
2768.22863	1456.3875
2770.79994	1447.5875
2773.36967	1457.3875
2775.9378	1453.9875
2778.50435	1456.3875
2781.06932	1447.8875
2783.6327	1452.0875
2786.1945	1442.1875
2788.75471	1440.5875
2791.31335	1436.2875
2793.87041	1436.1875
2796.42589	1433.0875
2798.97979	1437.7875
2801.53212	1434.3875
2804.08288	1435.6875
2806.63206	1426.2875
2809.17967	1420.3875
2811.72571	1420.1875
2814.27018	1421.9875
2816.81308	1424.7875
2819.35442	1423.9875
2821.89419	1414.7875
2824.43239	1410.8875
2826.96904	1406.2875
2829.50412	1408.5875
2832.03763	1411.5875
2834.56959	1408.7875
2837.1	1410.5875
2839.62884	1411.4875
2842.15613	1413.5875
2844.68186	1406.9875
2847.20604	1416.4875
2849.72867	1420.5875
2852.24974	1420.4875
2854.76927	1427.9875
2857.28724	1445.1875
2859.80367	1421.7875
2862.31855	1412.6875
2864.83189	1412.9875
2867.34368	1415.4875
2869.85393	1414.1875
2872.36264	1406.3875
2874.8698	1397.5875
2877.37543	1396.6875
2879.87952	1415.2875
2882.38207	1416.6875
2884.88308	1407.0875
2887.38256	1402.2875
2889.88051	1402.2875
2892.37692	1409.5875
2894.8718	1405.5875
2897.36515	1408.1875
2899.85698	1408.1875
2902.34727	1417.7875
2904.83604	1413.2875
2907.32328	1404.7875
2909.809	1406.3875
2912.29319	1407.7875
2914.77587	1411.6875
2917.25702	1415.6875
2919.73665	1401.2875
2922.21476	1415.0875
2924.69136	1407.8875
2927.16644	1410.9875
2929.64	1408.2875
2932.11205	1419.4875
2934.58258	1413.2875
2937.05161	1406.8875
2939.51912	1402.6875
2941.98513	1405.8875
2944.44962	1405.7875
2946.91261	1387.2875
2949.37409	1402.0875
2951.83407	1397.1875
2954.29254	1397.8875
2956.74951	1389.6875
2959.20498	1385.2875
2961.65895	1380.0875
2964.11142	1374.5875
2966.56239	1369.0875
2969.01186	1367.6875
2971.45984	1360.0875
2973.90632	1363.6875
2976.35131	1356.8875
2978.7948	1348.8875
2981.23681	1356.3875
2983.67732	1345.6875
2986.11635	1350.4875
2988.55388	1337.5875
2990.98993	1337.9875
2993.4245	1330.0875
2995.85758	1320.4875
2998.28917	1321.4875
3000.71928	1330.9875
3003.14791	1324.6875
3005.57506	1333.0875
3008.00073	1325.3875
3010.42493	1320.7875
3012.84764	1325.5875
3015.26888	1316.9875
3017.68865	1318.0875
3020.10694	1313.5875
3022.52376	1312.8875
3024.9391	1313.6875
3027.35298	1308.9875
3029.76539	1294.7875
3032.17632	1302.9875
3034.5858	1295.1875
3036.9938	1301.0875
3039.40034	1294.8875
3041.80542	1291.4875
3044.20903	1285.1875
3046.61118	1295.8875
3049.01187	1290.9875
3051.4111	1286.2875
3053.80888	1280.7875
3056.20519	1284.9875
3058.60005	1284.7875
3060.99345	1279.1875
3063.3854	1280.9875
3065.7759	1280.6875
3068.16494	1271.2875
3070.55254	1271.1875
3072.93868	1260.8875
3075.32338	1270.3875
3077.70662	1258.4875
3080.08842	1266.4875
3082.46878	1266.9875
3084.84769	1260.8875
3087.22515	1260.2875
3089.60118	1269.5875
3091.97576	1260.2875
3094.3489	1265.3875
3096.72061	1258.0875
3099.09087	1256.0875
3101.4597	1255.4875
3103.82709	1263.0875
3106.19305	1248.2875
3108.55757	1254.7875
3110.92066	1253.1875
3113.28232	1256.5875
3115.64255	1251.0875
3118.00134	1248.4875
3120.35871	1248.9875
3122.71466	1246.2875
3125.06917	1234.8875
3127.42226	1245.7875
3129.77393	1243.8875
3132.12417	1244.4875
3134.47299	1250.5875
3136.82039	1245.9875
3139.16636	1243.5875
3141.51092	1253.6875
3143.85406	1247.9875
3146.19579	1249.4875
3148.53609	1258.6875
3150.87499	1248.2875
3153.21246	1247.3875
3155.54853	1247.4875
3157.88318	1258.4875
3160.21642	1254.7875
3162.54826	1247.8875
3164.87868	1254.6875
3167.2077	1256.8875
3169.5353	1256.9875
3171.86151	1253.9875
3174.18631	1262.0875
3176.5097	1261.8875
3178.83169	1253.3875
3181.15228	1260.4875
3183.47147	1255.2875
3185.78926	1251.6875
3188.10565	1254.3875
3190.42065	1245.6875
3192.73424	1259.4875
3195.04645	1258.3875
3197.35725	1250.5875
3199.66667	1257.2875
3201.97469	1254.0875
3204.28132	1256.3875
3206.58656	1262.0875
3208.8904	1257.3875
3211.19287	1258.2875
3213.49394	1251.2875
3215.79363	1265.8875
3218.09193	1262.4875
3220.38884	1272.7875
3222.68438	1277.2875
3224.97853	1265.2875
3227.2713	1262.8875
3229.56269	1263.6875
3231.8527	1263.0875
3234.14133	1252.9875
3236.42858	1247.9875
3238.71446	1260.2875
3240.99896	1251.4875
3243.28209	1252.8875
3245.56384	1249.9875
3247.84423	1256.6875
3250.12324	1252.6875
3252.40088	1241.3875
3254.67715	1246.1875
3256.95205	1243.7875
3259.22558	1240.7875
3261.49775	1243.6875
3263.76855	1236.1875
3266.03799	1241.6875
3268.30606	1233.5875
3270.57277	1235.1875
3272.83812	1223.1875
3275.10211	1230.5875
3277.36474	1226.0875
3279.62601	1223.6875
3281.88593	1226.8875
3284.14448	1230.1875
3286.40168	1219.8875
3288.65753	1222.0875
3290.91202	1231.3875
3293.16516	1221.5875
3295.41695	1215.2875
3297.66738	1216.8875
3299.91647	1204.1875
3302.16421	1190.8875
3304.4106	1199.1875
3306.65564	1189.6875
3308.89933	1176.7875
3311.14169	1180.7875
3313.38269	1169.5875
3315.62236	1155.5875
3317.86068	1156.6875
3320.09766	1129.6875
3322.3333	1141.0875
3324.5676	1138.0875
3326.80056	1124.2875
3329.03219	1115.3875
3331.26248	-0.1125
3333.49143	-0.5125
3335.71905	-0.0125
