Data from AgNPs_FTO_APTES_UA_0um_CRN_0.1mM_R6G_10uM_NaF_0.1M_Addition_RamanShift__48__11-07-18-952.txt Node

Date: Tue Dec 21 11:07:18 GMT 2021
User: TCL
Spectrometer: QEP01345
Trigger mode: 4
Integration Time (sec): 7.000000E0
Scans to average: 10
Electric dark correction enabled: true
Nonlinearity correction enabled: false
Boxcar width: 0
XAxis mode: Raman Shifts
Number of Pixels in Spectrum: 1044
>>>>>Begin Spectral Data<<<<<
46.04893	-0.3625
50.45542	-0.0625
54.85868	-1.2625
59.25871	1.6375
63.6555	32.7375
68.04907	40.2375
72.43941	38.3375
76.82654	42.3375
81.21044	47.7375
85.59113	47.3375
89.96862	44.2375
94.34289	47.0375
98.71396	49.0375
103.08183	54.2375
107.4465	51.9375
111.80798	55.6375
116.16626	57.8375
120.52136	57.4375
124.87327	61.5375
129.222	62.3375
133.56755	66.6375
137.90993	75.4375
142.24913	79.9375
146.58517	89.9375
150.91804	106.1375
155.24774	125.5375
159.57429	156.1375
163.89768	199.1375
168.21792	268.0375
172.53501	361.6375
176.84895	508.4375
181.15975	716.0375
185.46741	994.0375
189.77193	1365.1375
194.07331	1835.1375
198.37157	2369.2375
202.6667	2928.7375
206.9587	3494.8375
211.24758	4056.1375
215.53334	4620.0375
219.81599	5190.8375
224.09553	5855.1375
228.37195	6581.8375
232.64527	7352.2375
236.91549	8173.5375
241.18261	8986.1375
245.44663	9687.8375
249.70755	10327.0375
253.96539	10857.2375
258.22014	11300.7375
262.4718	11664.6375
266.72039	11888.9375
270.96589	12013.2375
275.20832	12000.6375
279.44768	11933.0375
283.68397	11840.3375
287.91719	11793.7375
292.14735	11753.6375
296.37445	11745.9375
300.59849	11814.5375
304.81948	11900.5375
309.03742	11960.3375
313.25231	11906.2375
317.46415	11688.1375
321.67296	11356.5375
325.87872	11040.0375
330.08145	10820.4375
334.28114	10739.3375
338.47781	10776.7375
342.67145	10869.1375
346.86207	11068.0375
351.04966	11281.4375
355.23424	11480.8375
359.4158	11658.8375
363.59435	11768.7375
367.76989	11802.6375
371.94243	11806.7375
376.11196	11746.8375
380.27849	11705.1375
384.44203	11741.1375
388.60257	11799.3375
392.76012	11931.6375
396.91468	12130.9375
401.06626	12370.0375
405.21485	12544.9375
409.36047	12523.9375
413.50311	12361.6375
417.64277	12364.0375
421.77947	12464.7375
425.9132	12373.3375
430.04396	12387.5375
434.17176	12429.1375
438.2966	12483.4375
442.41849	12649.0375
446.53742	12973.6375
450.6534	13287.3375
454.76644	13464.0375
458.87653	13499.9375
462.98368	13398.9375
467.08789	13241.7375
471.18916	13056.9375
475.2875	12853.5375
479.38291	12742.3375
483.4754	12705.2375
487.56496	12660.7375
491.6516	12517.3375
495.73531	12366.2375
499.81612	12232.0375
503.89401	12288.8375
507.96899	12347.5375
512.04106	12284.5375
516.11023	12156.4375
520.1765	11918.4375
524.23987	11725.6375
528.30034	11585.3375
532.35792	11457.7375
536.41261	11302.3375
540.46441	11147.5375
544.51333	11131.2375
548.55936	11255.8375
552.60252	11563.0375
556.64279	11936.1375
560.6802	12173.3375
564.71473	12280.5375
568.7464	12570.9375
572.7752	13105.4375
576.80114	13717.0375
580.82422	14387.8375
584.84444	15030.3375
588.86181	15739.8375
592.87633	16328.4375
596.888	16333.2375
600.89682	15666.4375
604.9028	15087.4375
608.90594	15603.6375
612.90624	16498.7375
616.90371	15396.2375
620.89834	12679.9375
624.89015	11406.5375
628.87913	11269.4375
632.86528	11449.2375
636.84862	11574.5375
640.82913	11399.4375
644.80683	11069.4375
648.78172	10830.7375
652.75379	10760.1375
656.72306	10858.3375
660.68952	11014.1375
664.65319	10996.0375
668.61405	10781.4375
672.57211	10737.5375
676.52738	10815.2375
680.47986	10819.1375
684.42955	10717.3375
688.37646	10631.9375
692.32058	10619.4375
696.26192	10743.0375
700.20048	10882.5375
704.13626	11042.5375
708.06928	11155.1375
711.99952	11214.3375
715.927	11174.9375
719.85171	11148.5375
723.77365	11017.2375
727.69284	10816.3375
731.60928	10613.3375
735.52295	10538.4375
739.43388	10551.8375
743.34206	10575.9375
747.24749	10683.7375
751.15017	10843.7375
755.05012	11105.2375
758.94733	11580.1375
762.8418	12342.2375
766.73354	13527.3375
770.62254	14561.6375
774.50882	14570.8375
778.39237	13621.4375
782.27321	12524.4375
786.15132	11625.4375
790.02671	11019.6375
793.89938	10703.3375
797.76935	10553.3375
801.6366	10510.1375
805.50115	10451.7375
809.36299	10361.4375
813.22213	10286.5375
817.07857	10217.1375
820.93231	10164.1375
824.78336	10076.7375
828.63172	10012.3375
832.47738	9943.5375
836.32036	9952.4375
840.16066	9921.7375
843.99827	9905.9375
847.8332	9932.0375
851.66546	9901.0375
855.49504	9926.0375
859.32195	9948.6375
863.1462	9889.7375
866.96777	9837.1375
870.78668	9818.0375
874.60293	9825.9375
878.41652	9816.6375
882.22745	9842.9375
886.03573	9909.2375
889.84136	9869.1375
893.64433	9897.9375
897.44466	9905.1375
901.24235	9863.5375
905.0374	9828.3375
908.8298	9755.4375
912.61957	9738.8375
916.40671	9830.4375
920.19121	10034.6375
923.97308	10215.6375
927.75233	10282.7375
931.52895	10160.6375
935.30295	9937.3375
939.07433	9640.8375
942.84309	9405.4375
946.60924	9269.2375
950.37278	9196.3375
954.13371	9175.3375
957.89203	9199.0375
961.64774	9199.7375
965.40086	9164.5375
969.15137	9150.2375
972.89929	9111.8375
976.64461	9011.4375
980.38733	8995.7375
984.12747	8964.9375
987.86502	8977.0375
991.59999	9036.1375
995.33237	9106.0375
999.06217	9218.0375
1002.78939	9418.8375
1006.51404	9608.1375
1010.23611	9870.6375
1013.95561	10024.6375
1017.67255	10101.2375
1021.38692	10017.2375
1025.09872	9817.7375
1028.80796	9620.9375
1032.51465	9536.6375
1036.21877	9584.4375
1039.92035	9643.7375
1043.61937	9702.8375
1047.31584	9755.9375
1051.00976	9783.2375
1054.70114	9815.3375
1058.38998	9900.4375
1062.07627	9964.5375
1065.76003	10132.2375
1069.44126	10332.6375
1073.11995	10590.1375
1076.79611	10855.0375
1080.46974	10900.0375
1084.14085	10980.6375
1087.80943	11142.4375
1091.47549	11327.8375
1095.13903	11394.5375
1098.80005	11226.4375
1102.45857	10794.2375
1106.11456	10395.9375
1109.76805	10167.4375
1113.41903	10095.9375
1117.06751	10191.0375
1120.71348	10334.3375
1124.35696	10507.3375
1127.99793	10696.4375
1131.63641	10864.7375
1135.2724	10859.3375
1138.90589	10782.2375
1142.5369	10796.1375
1146.16542	10866.4375
1149.79145	10973.2375
1153.415	11126.1375
1157.03607	11324.5375
1160.65467	11725.7375
1164.27079	12388.6375
1167.88443	13272.8375
1171.49561	14260.4375
1175.10432	15438.1375
1178.71056	16930.6375
1182.31434	18208.6375
1185.91565	18851.8375
1189.51451	18830.4375
1193.11091	18373.0375
1196.70485	17578.5375
1200.29634	16607.3375
1203.88538	15814.5375
1207.47197	15307.6375
1211.05612	15008.3375
1214.63782	14628.2375
1218.21708	14164.3375
1221.79391	13769.7375
1225.36829	13471.7375
1228.94024	13311.6375
1232.50976	13134.8375
1236.07685	12862.7375
1239.6415	12679.1375
1243.20374	12586.3375
1246.76355	12577.7375
1250.32093	12719.0375
1253.8759	13010.4375
1257.42845	13456.7375
1260.97859	13955.6375
1264.52631	14469.9375
1268.07163	15015.9375
1271.61453	15501.6375
1275.15503	16022.1375
1278.69312	16612.0375
1282.22882	17290.0375
1285.76211	18078.3375
1289.29301	18985.2375
1292.82151	19968.2375
1296.34761	21112.7375
1299.87133	22485.5375
1303.39266	23835.5375
1306.9116	25090.8375
1310.42815	26131.3375
1313.94233	26720.1375
1317.45412	26576.7375
1320.96354	26029.0375
1324.47058	25676.0375
1327.97525	25460.9375
1331.47754	25321.9375
1334.97747	25111.5375
1338.47502	24796.7375
1341.97022	24337.4375
1345.46305	23876.1375
1348.95352	23456.1375
1352.44163	23261.9375
1355.92738	23572.5375
1359.41078	24507.8375
1362.89183	25523.2375
1366.37053	25655.7375
1369.84688	24108.0375
1373.32088	21451.3375
1376.79254	19201.0375
1380.26186	18178.5375
1383.72883	17950.3375
1387.19347	17780.5375
1390.65578	17571.0375
1394.11575	17479.0375
1397.57339	17658.8375
1401.0287	17976.4375
1404.48168	18195.4375
1407.93234	18121.9375
1411.38068	17724.1375
1414.82669	17018.7375
1418.27039	16257.2375
1421.71177	15436.5375
1425.15083	14729.2375
1428.58758	14336.9375
1432.02203	14333.7375
1435.45416	14673.1375
1438.88399	15161.4375
1442.31151	15504.3375
1445.73673	15823.7375
1449.15965	16096.1375
1452.58027	16311.2375
1455.9986	16372.1375
1459.41463	16508.7375
1462.82837	16735.1375
1466.23982	17070.5375
1469.64898	17466.5375
1473.05586	17647.5375
1476.46045	17727.7375
1479.86276	17777.8375
1483.26279	17784.2375
1486.66054	17945.6375
1490.05602	18256.7375
1493.44922	18757.8375
1496.84016	19303.0375
1500.22882	19996.9375
1503.61521	20787.4375
1506.99934	21619.2375
1510.38121	22178.0375
1513.76081	22234.7375
1517.13816	21639.4375
1520.51324	20766.0375
1523.88607	19967.4375
1527.25665	19598.8375
1530.62498	19325.4375
1533.99105	19021.0375
1537.35488	18620.2375
1540.71647	17994.4375
1544.07581	17233.4375
1547.4329	16458.1375
1550.78776	15867.9375
1554.14038	15408.8375
1557.49077	15272.2375
1560.83892	15264.3375
1564.18484	15400.0375
1567.52853	15608.4375
1570.86999	15844.6375
1574.20922	16161.1375
1577.54624	16433.2375
1580.88103	16391.9375
1584.2136	16342.4375
1587.54395	16669.1375
1590.87208	17438.5375
1594.19801	18546.2375
1597.52172	19715.8375
1600.84321	20070.2375
1604.16251	19124.5375
1607.47959	17462.4375
1610.79447	15747.7375
1614.10715	14167.2375
1617.41763	12886.0375
1620.7259	11969.4375
1624.03199	11514.0375
1627.33587	11420.9375
1630.63757	11708.9375
1633.93707	12540.6375
1637.23439	13997.5375
1640.52951	16277.4375
1643.82246	19348.1375
1647.11321	22283.4375
1650.40179	23733.0375
1653.68819	22725.6375
1656.97241	19792.3375
1660.25446	16389.8375
1663.53433	13546.0375
1666.81203	11636.2375
1670.08756	10461.7375
1673.36092	9744.3375
1676.63211	9297.4375
1679.90115	8982.6375
1683.16801	8760.4375
1686.43272	8577.6375
1689.69527	8475.5375
1692.95567	8367.7375
1696.2139	8330.6375
1699.46999	8288.9375
1702.72392	8221.9375
1705.97571	8185.2375
1709.22535	8108.2375
1712.47284	8078.0375
1715.71819	8056.4375
1718.96139	8043.9375
1722.20246	7965.4375
1725.44139	7926.7375
1728.67818	7886.2375
1731.91284	7816.1375
1735.14537	7743.4375
1738.37576	7710.2375
1741.60403	7674.9375
1744.83017	7660.0375
1748.05418	7621.1375
1751.27607	7642.7375
1754.49584	7638.2375
1757.71349	7641.6375
1760.92903	7632.2375
1764.14244	7618.6375
1767.35375	7574.1375
1770.56294	7542.0375
1773.77002	7499.0375
1776.97499	7476.0375
1780.17785	7434.4375
1783.37861	7397.6375
1786.57727	7387.7375
1789.77382	7359.8375
1792.96828	7336.6375
1796.16064	7299.3375
1799.3509	7273.1375
1802.53907	7266.6375
1805.72514	7209.5375
1808.90913	7190.3375
1812.09102	7178.2375
1815.27083	7138.5375
1818.44856	7142.5375
1821.6242	7097.8375
1824.79776	7118.8375
1827.96924	7091.1375
1831.13864	7105.5375
1834.30597	7101.0375
1837.47122	7120.6375
1840.6344	7107.8375
1843.7955	7100.1375
1846.95454	7102.7375
1850.11151	7092.4375
1853.26642	7090.3375
1856.41926	7093.0375
1859.57004	7080.0375
1862.71876	7047.8375
1865.86542	7046.0375
1869.01003	7041.4375
1872.15258	7017.7375
1875.29308	7021.1375
1878.43152	7001.5375
1881.56792	6986.5375
1884.70227	6976.3375
1887.83457	6987.9375
1890.96482	6953.4375
1894.09304	6934.2375
1897.21921	6934.0375
1900.34335	6930.8375
1903.46544	6907.8375
1906.58551	6903.9375
1909.70353	6884.8375
1912.81953	6866.1375
1915.93349	6841.6375
1919.04543	6798.5375
1922.15534	6797.8375
1925.26322	6772.8375
1928.36908	6748.4375
1931.47292	6724.5375
1934.57473	6711.5375
1937.67453	6683.2375
1940.77232	6659.0375
1943.86808	6633.8375
1946.96184	6608.1375
1950.05358	6607.6375
1953.14331	6564.3375
1956.23103	6536.6375
1959.31675	6534.4375
1962.40046	6520.6375
1965.48217	6496.7375
1968.56188	6450.6375
1971.63959	6442.0375
1974.7153	6414.9375
1977.78901	6400.4375
1980.86073	6357.2375
1983.93046	6353.1375
1986.99819	6323.6375
1990.06394	6281.5375
1993.1277	6279.2375
1996.18947	6244.7375
1999.24925	6246.5375
2002.30706	6219.6375
2005.36288	6193.1375
2008.41672	6193.4375
2011.46859	6155.5375
2014.51848	6142.9375
2017.56639	6103.2375
2020.61233	6098.9375
2023.6563	6098.9375
2026.6983	6059.7375
2029.73833	6045.4375
2032.7764	6033.3375
2035.8125	6008.2375
2038.84664	5984.8375
2041.87881	5999.2375
2044.90903	5962.8375
2047.93729	5957.2375
2050.96359	5944.0375
2053.98794	5957.3375
2057.01034	5954.6375
2060.03078	5943.9375
2063.04927	5925.0375
2066.06582	5910.2375
2069.08042	5908.6375
2072.09307	5919.2375
2075.10378	5872.5375
2078.11255	5891.6375
2081.11938	5918.4375
2084.12426	5899.8375
2087.12722	5898.7375
2090.12824	5883.9375
2093.12732	5894.0375
2096.12447	5881.3375
2099.11969	5880.8375
2102.11299	5890.7375
2105.10435	5889.2375
2108.09379	5879.5375
2111.08131	5872.5375
2114.0669	5868.3375
2117.05057	5887.2375
2120.03233	5877.5375
2123.01216	5863.2375
2125.99008	5873.6375
2128.96609	5872.2375
2131.94018	5863.3375
2134.91236	5868.9375
2137.88263	5874.3375
2140.851	5857.3375
2143.81746	5859.7375
2146.78201	5853.7375
2149.74466	5862.0375
2152.7054	5856.1375
2155.66425	5840.0375
2158.6212	5844.5375
2161.57625	5819.5375
2164.52941	5827.1375
2167.48067	5826.7375
2170.43004	5837.4375
2173.37752	5808.7375
2176.32311	5816.5375
2179.26681	5812.4375
2182.20863	5807.6375
2185.14856	5806.2375
2188.08661	5806.5375
2191.02278	5789.9375
2193.95707	5772.5375
2196.88948	5770.4375
2199.82001	5787.1375
2202.74867	5756.6375
2205.67545	5750.5375
2208.60037	5729.9375
2211.52341	5726.9375
2214.44458	5710.7375
2217.36388	5698.3375
2220.28132	5686.6375
2223.1969	5683.3375
2226.11061	5660.8375
2229.02246	5642.2375
2231.93245	5650.9375
2234.84058	5643.2375
2237.74686	5637.7375
2240.65128	5626.1375
2243.55385	5622.9375
2246.45456	5631.6375
2249.35343	5591.8375
2252.25044	5585.4375
2255.14561	5570.9375
2258.03893	5565.5375
2260.93041	5558.0375
2263.82004	5539.6375
2266.70783	5507.9375
2269.59378	5494.7375
2272.4779	5475.7375
2275.36017	5460.2375
2278.24061	5454.6375
2281.11922	5426.4375
2283.996	5421.6375
2286.87094	5410.8375
2289.74405	5388.1375
2292.61534	5398.4375
2295.4848	5384.1375
2298.35243	5377.6375
2301.21824	5379.4375
2304.08223	5349.2375
2306.94439	5365.1375
2309.80474	5334.8375
2312.66327	5340.6375
2315.51999	5337.7375
2318.37489	5338.3375
2321.22797	5320.0375
2324.07925	5311.2375
2326.92871	5301.1375
2329.77637	5306.7375
2332.62222	5288.4375
2335.46626	5288.2375
2338.3085	5284.0375
2341.14893	5278.1375
2343.98756	5284.5375
2346.8244	5272.7375
2349.65943	5267.8375
2352.49267	5259.4375
2355.32411	5265.9375
2358.15376	5260.5375
2360.98161	5255.7375
2363.80768	5257.7375
2366.63195	5252.2375
2369.45444	5250.5375
2372.27514	5255.6375
2375.09405	5234.0375
2377.91118	5239.0375
2380.72652	5203.6375
2383.54009	5210.5375
2386.35187	5173.0375
2389.16188	5156.3375
2391.97011	5158.8375
2394.77657	5133.7375
2397.58125	5122.1375
2400.38416	5120.2375
2403.18529	5111.8375
2405.98466	5112.4375
2408.78226	5093.9375
2411.57809	5094.1375
2414.37216	5088.6375
2417.16446	5082.6375
2419.955	5084.6375
2422.74378	5070.3375
2425.5308	5040.7375
2428.31606	5049.9375
2431.09956	5041.7375
2433.88131	5041.0375
2436.6613	5041.7375
2439.43954	5024.9375
2442.21603	5033.4375
2444.99077	5019.9375
2447.76377	5028.8375
2450.53501	5032.7375
2453.30451	5010.7375
2456.07226	5019.3375
2458.83827	5017.5375
2461.60254	5005.8375
2464.36507	5012.1375
2467.12586	5018.8375
2469.88492	5012.1375
2472.64224	5007.4375
2475.39782	5020.7375
2478.15167	5004.7375
2480.90379	4989.2375
2483.65417	4998.5375
2486.40283	4991.6375
2489.14976	4980.9375
2491.89497	4983.8375
2494.63845	4989.2375
2497.3802	5009.2375
2500.12024	5005.3375
2502.85855	4972.3375
2505.59514	4979.0375
2508.33002	4959.8375
2511.06318	4954.4375
2513.79462	4957.6375
2516.52435	4945.7375
2519.25237	4935.5375
2521.97867	4925.0375
2524.70327	4918.9375
2527.42616	4916.5375
2530.14734	4911.9375
2532.86681	4888.1375
2535.58458	4888.0375
2538.30065	4880.2375
2541.01501	4863.4375
2543.72768	4864.9375
2546.43864	4869.1375
2549.14791	4857.2375
2551.85548	4839.5375
2554.56136	4845.1375
2557.26554	4845.5375
2559.96803	4837.6375
2562.66883	4826.6375
2565.36794	4838.9375
2568.06536	4820.4375
2570.7611	4818.4375
2573.45514	4807.0375
2576.14751	4810.0375
2578.83819	4774.6375
2581.52719	4784.7375
2584.21451	4787.2375
2586.90015	4769.1375
2589.58411	4767.7375
2592.2664	4772.3375
2594.94701	4745.0375
2597.62594	4740.3375
2600.30321	4737.8375
2602.9788	4738.2375
2605.65273	4739.0375
2608.32498	4734.2375
2610.99557	4732.7375
2613.66449	4727.9375
2616.33175	4723.8375
2618.99734	4710.9375
2621.66128	4705.0375
2624.32355	4706.8375
2626.98416	4709.6375
2629.64311	4707.0375
2632.30041	4697.5375
2634.95605	4689.9375
2637.61004	4679.6375
2640.26238	4690.9375
2642.91306	4682.9375
2645.56209	4685.3375
2648.20948	4680.0375
2650.85521	4679.2375
2653.4993	4673.2375
2656.14175	4668.6375
2658.78255	4670.8375
2661.42171	4664.6375
2664.05923	4688.4375
2666.6951	4670.3375
2669.32934	4669.7375
2671.96194	4672.2375
2674.59291	4683.5375
2677.22224	4679.6375
2679.84993	4675.0375
2682.476	4679.0375
2685.10043	4668.5375
2687.72324	4674.6375
2690.34441	4663.1375
2692.96396	4661.1375
2695.58188	4662.8375
2698.19818	4671.6375
2700.81285	4677.1375
2703.4259	4692.2375
2706.03733	4710.4375
2708.64714	4688.9375
2711.25533	4684.1375
2713.86191	4683.6375
2716.46687	4690.0375
2719.07021	4694.7375
2721.67194	4682.6375
2724.27206	4674.5375
2726.87057	4657.7375
2729.46747	4677.1375
2732.06276	4669.8375
2734.65644	4688.3375
2737.24852	4667.5375
2739.83899	4658.3375
2742.42786	4662.0375
2745.01513	4649.6375
2747.60079	4644.5375
2750.18486	4641.6375
2752.76733	4630.2375
2755.3482	4639.0375
2757.92747	4641.0375
2760.50515	4641.3375
2763.08123	4628.8375
2765.65573	4625.3375
2768.22863	4621.2375
2770.79994	4630.8375
2773.36967	4630.7375
2775.9378	4613.5375
2778.50435	4634.6375
2781.06932	4615.5375
2783.6327	4623.2375
2786.1945	4624.0375
2788.75471	4610.3375
2791.31335	4593.1375
2793.87041	4580.8375
2796.42589	4575.7375
2798.97979	4585.5375
2801.53212	4582.3375
2804.08288	4584.2375
2806.63206	4566.8375
2809.17967	4565.8375
2811.72571	4542.9375
2814.27018	4543.0375
2816.81308	4539.1375
2819.35442	4543.8375
2821.89419	4520.9375
2824.43239	4514.3375
2826.96904	4537.5375
2829.50412	4535.5375
2832.03763	4500.4375
2834.56959	4515.4375
2837.1	4500.4375
2839.62884	4514.8375
2842.15613	4522.6375
2844.68186	4530.2375
2847.20604	4553.3375
2849.72867	4543.2375
2852.24974	4542.4375
2854.76927	4541.0375
2857.28724	4540.5375
2859.80367	4527.5375
2862.31855	4505.8375
2864.83189	4507.9375
2867.34368	4508.3375
2869.85393	4488.9375
2872.36264	4491.7375
2874.8698	4487.7375
2877.37543	4464.0375
2879.87952	4493.6375
2882.38207	4470.5375
2884.88308	4479.7375
2887.38256	4487.5375
2889.88051	4485.6375
2892.37692	4490.4375
2894.8718	4481.0375
2897.36515	4483.4375
2899.85698	4491.1375
2902.34727	4503.7375
2904.83604	4493.0375
2907.32328	4499.6375
2909.809	4510.3375
2912.29319	4529.4375
2914.77587	4508.3375
2917.25702	4511.4375
2919.73665	4522.7375
2922.21476	4511.4375
2924.69136	4521.3375
2927.16644	4506.9375
2929.64	4511.2375
2932.11205	4502.8375
2934.58258	4475.9375
2937.05161	4488.3375
2939.51912	4489.6375
2941.98513	4480.3375
2944.44962	4478.8375
2946.91261	4457.4375
2949.37409	4461.8375
2951.83407	4457.3375
2954.29254	4446.4375
2956.74951	4426.7375
2959.20498	4415.9375
2961.65895	4414.4375
2964.11142	4407.1375
2966.56239	4365.4375
2969.01186	4377.6375
2971.45984	4338.3375
2973.90632	4360.9375
2976.35131	4329.8375
2978.7948	4334.8375
2981.23681	4314.8375
2983.67732	4294.6375
2986.11635	4272.7375
2988.55388	4264.0375
2990.98993	4257.4375
2993.4245	4254.4375
2995.85758	4243.6375
2998.28917	4225.2375
3000.71928	4231.3375
3003.14791	4214.8375
3005.57506	4210.8375
3008.00073	4187.3375
3010.42493	4180.9375
3012.84764	4182.4375
3015.26888	4177.2375
3017.68865	4162.4375
3020.10694	4151.3375
3022.52376	4138.2375
3024.9391	4129.8375
3027.35298	4139.3375
3029.76539	4101.1375
3032.17632	4118.2375
3034.5858	4105.8375
3036.9938	4095.3375
3039.40034	4080.8375
3041.80542	4070.9375
3044.20903	4077.4375
3046.61118	4074.5375
3049.01187	4053.8375
3051.4111	4056.6375
3053.80888	4041.0375
3056.20519	4046.9375
3058.60005	4031.2375
3060.99345	4021.3375
3063.3854	4020.2375
3065.7759	4001.7375
3068.16494	3980.9375
3070.55254	3970.0375
3072.93868	3978.3375
3075.32338	3964.9375
3077.70662	3952.2375
3080.08842	3923.0375
3082.46878	3938.1375
3084.84769	3924.5375
3087.22515	3924.4375
3089.60118	3911.5375
3091.97576	3905.5375
3094.3489	3915.3375
3096.72061	3910.5375
3099.09087	3921.6375
3101.4597	3905.5375
3103.82709	3896.7375
3106.19305	3892.8375
3108.55757	3882.5375
3110.92066	3877.8375
3113.28232	3860.7375
3115.64255	3847.8375
3118.00134	3857.3375
3120.35871	3853.3375
3122.71466	3848.6375
3125.06917	3839.3375
3127.42226	3826.3375
3129.77393	3826.6375
3132.12417	3825.7375
3134.47299	3826.0375
3136.82039	3822.7375
3139.16636	3818.0375
3141.51092	3822.2375
3143.85406	3839.3375
3146.19579	3830.5375
3148.53609	3822.5375
3150.87499	3824.9375
3153.21246	3819.8375
3155.54853	3831.6375
3157.88318	3827.5375
3160.21642	3840.0375
3162.54826	3822.3375
3164.87868	3824.5375
3167.2077	3821.2375
3169.5353	3820.8375
3171.86151	3819.2375
3174.18631	3814.1375
3176.5097	3812.3375
3178.83169	3805.6375
3181.15228	3811.0375
3183.47147	3788.0375
3185.78926	3788.4375
3188.10565	3789.7375
3190.42065	3787.4375
3192.73424	3790.8375
3195.04645	3793.6375
3197.35725	3776.1375
3199.66667	3791.8375
3201.97469	3765.9375
3204.28132	3771.2375
3206.58656	3779.4375
3208.8904	3776.7375
3211.19287	3782.2375
3213.49394	3779.9375
3215.79363	3771.2375
3218.09193	3766.2375
3220.38884	3777.9375
3222.68438	3799.2375
3224.97853	3775.1375
3227.2713	3773.0375
3229.56269	3765.7375
3231.8527	3771.5375
3234.14133	3749.7375
3236.42858	3749.4375
3238.71446	3752.9375
3240.99896	3732.1375
3243.28209	3743.4375
3245.56384	3726.7375
3247.84423	3737.4375
3250.12324	3714.1375
3252.40088	3723.6375
3254.67715	3718.6375
3256.95205	3710.3375
3259.22558	3698.1375
3261.49775	3681.0375
3263.76855	3671.8375
3266.03799	3669.0375
3268.30606	3654.7375
3270.57277	3651.8375
3272.83812	3640.4375
3275.10211	3644.3375
3277.36474	3638.0375
3279.62601	3638.8375
3281.88593	3647.2375
3284.14448	3659.4375
3286.40168	3641.3375
3288.65753	3620.5375
3290.91202	3645.5375
3293.16516	3631.8375
3295.41695	3611.5375
3297.66738	3581.9375
3299.91647	3573.3375
3302.16421	3551.5375
3304.4106	3537.9375
3306.65564	3521.1375
3308.89933	3484.6375
3311.14169	3467.5375
3313.38269	3453.3375
3315.62236	3422.8375
3317.86068	3392.5375
3320.09766	3345.9375
3322.3333	3323.7375
3324.5676	3335.0375
3326.80056	3276.8375
3329.03219	3252.8375
3331.26248	0.7375
3333.49143	0.2375
3335.71905	-0.6625
