Data from AgNPs_FTO_APTES_UA_50um_CRN_0.1mM_R6G_10uM_NaF_0.1M_Addition_RamanShift__30__15-37-59-262.txt Node

Date: Tue Dec 21 15:37:59 GMT 2021
User: TCL
Spectrometer: QEP01345
Trigger mode: 4
Integration Time (sec): 7.000000E0
Scans to average: 10
Electric dark correction enabled: true
Nonlinearity correction enabled: false
Boxcar width: 0
XAxis mode: Raman Shifts
Number of Pixels in Spectrum: 1044
>>>>>Begin Spectral Data<<<<<
46.04893	-0.175
50.45542	-0.075
54.85868	-0.875
59.25871	-0.575
63.6555	29.925
68.04907	36.825
72.43941	35.525
76.82654	38.725
81.21044	44.225
85.59113	42.625
89.96862	45.325
94.34289	47.725
98.71396	47.825
103.08183	50.725
107.4465	52.925
111.80798	51.425
116.16626	52.625
120.52136	52.425
124.87327	53.925
129.222	50.925
133.56755	53.325
137.90993	61.525
142.24913	60.625
146.58517	67.025
150.91804	75.425
155.24774	82.425
159.57429	96.725
163.89768	121.625
168.21792	157.625
172.53501	203.625
176.84895	277.225
181.15975	387.025
185.46741	528.425
189.77193	730.125
194.07331	980.125
198.37157	1265.425
202.6667	1553.225
206.9587	1860.525
211.24758	2152.425
215.53334	2451.525
219.81599	2785.625
224.09553	3166.925
228.37195	3612.125
232.64527	4086.825
236.91549	4543.125
241.18261	5008.225
245.44663	5385.325
249.70755	5680.825
253.96539	5932.525
258.22014	6117.525
262.4718	6271.425
266.72039	6388.525
270.96589	6422.925
275.20832	6413.425
279.44768	6342.025
283.68397	6253.525
287.91719	6175.525
292.14735	6191.125
296.37445	6321.825
300.59849	6547.925
304.81948	6827.025
309.03742	7051.525
313.25231	7010.725
317.46415	6693.525
321.67296	6180.525
325.87872	5717.425
330.08145	5509.225
334.28114	5492.425
338.47781	5590.725
342.67145	5731.425
346.86207	5970.925
351.04966	6351.825
355.23424	6758.125
359.4158	7084.525
363.59435	7241.625
367.76989	7319.525
371.94243	7300.025
376.11196	7291.925
380.27849	7230.525
384.44203	7155.725
388.60257	7058.825
392.76012	6972.325
396.91468	7025.825
401.06626	7227.225
405.21485	7366.925
409.36047	7251.725
413.50311	6869.925
417.64277	6470.125
421.77947	6254.825
425.9132	6133.325
430.04396	6124.625
434.17176	6136.825
438.2966	6195.225
442.41849	6309.725
446.53742	6465.625
450.6534	6637.825
454.76644	6739.225
458.87653	6746.525
462.98368	6696.125
467.08789	6604.125
471.18916	6488.925
475.2875	6363.325
479.38291	6258.025
483.4754	6161.325
487.56496	6140.225
491.6516	6080.125
495.73531	6081.625
499.81612	6083.925
503.89401	6121.225
507.96899	6191.925
512.04106	6267.725
516.11023	6375.025
520.1765	6464.125
524.23987	6451.525
528.30034	6348.625
532.35792	6228.425
536.41261	6078.425
540.46441	5905.125
544.51333	5804.725
548.55936	5823.925
552.60252	5933.525
556.64279	6113.025
560.6802	6201.825
564.71473	6304.225
568.7464	6559.625
572.7752	6749.325
576.80114	6578.425
580.82422	6344.325
584.84444	6250.925
588.86181	6252.425
592.87633	6253.825
596.888	6315.225
600.89682	6487.825
604.9028	7191.025
608.90594	9151.725
612.90624	11882.225
616.90371	11780.125
620.89834	8376.125
624.89015	6626.025
628.87913	6358.925
632.86528	6480.225
636.84862	6650.825
640.82913	6557.225
644.80683	6201.225
648.78172	5899.425
652.75379	5840.025
656.72306	6007.325
660.68952	6280.025
664.65319	6228.725
668.61405	5893.525
672.57211	5744.125
676.52738	5712.225
680.47986	5714.225
684.42955	5667.325
688.37646	5621.825
692.32058	5641.825
696.26192	5688.325
700.20048	5755.425
704.13626	5806.325
708.06928	5814.025
711.99952	5760.525
715.927	5744.525
719.85171	5759.025
723.77365	5754.225
727.69284	5703.525
731.60928	5650.425
735.52295	5619.425
739.43388	5640.025
743.34206	5636.025
747.24749	5673.125
751.15017	5727.025
755.05012	5832.225
758.94733	6120.825
762.8418	6739.525
766.73354	7842.725
770.62254	9098.525
774.50882	9793.225
778.39237	9492.025
782.27321	8221.125
786.15132	6929.025
790.02671	6144.725
793.89938	5819.025
797.76935	5696.725
801.6366	5655.725
805.50115	5691.725
809.36299	5740.725
813.22213	5763.525
817.07857	5727.225
820.93231	5654.525
824.78336	5615.325
828.63172	5584.225
832.47738	5556.125
836.32036	5528.125
840.16066	5472.125
843.99827	5433.125
847.8332	5426.825
851.66546	5401.025
855.49504	5408.125
859.32195	5377.525
863.1462	5360.625
866.96777	5371.625
870.78668	5383.525
874.60293	5400.125
878.41652	5463.625
882.22745	5546.725
886.03573	5622.525
889.84136	5614.525
893.64433	5571.025
897.44466	5494.825
901.24235	5435.425
905.0374	5371.725
908.8298	5331.025
912.61957	5298.725
916.40671	5316.025
920.19121	5338.825
923.97308	5369.825
927.75233	5403.225
931.52895	5464.425
935.30295	5397.925
939.07433	5259.525
942.84309	5118.925
946.60924	5039.525
950.37278	4978.825
954.13371	4962.225
957.89203	4952.825
961.64774	4923.325
965.40086	4924.625
969.15137	4919.325
972.89929	4884.725
976.64461	4875.825
980.38733	4874.725
984.12747	4885.425
987.86502	4892.025
991.59999	4922.925
995.33237	4950.425
999.06217	5059.925
1002.78939	5155.925
1006.51404	5273.025
1010.23611	5452.225
1013.95561	5535.525
1017.67255	5539.725
1021.38692	5461.925
1025.09872	5370.025
1028.80796	5289.925
1032.51465	5256.425
1036.21877	5281.225
1039.92035	5302.425
1043.61937	5327.625
1047.31584	5353.125
1051.00976	5344.525
1054.70114	5322.425
1058.38998	5341.325
1062.07627	5383.725
1065.76003	5425.225
1069.44126	5477.525
1073.11995	5536.025
1076.79611	5573.525
1080.46974	5636.525
1084.14085	5757.225
1087.80943	5896.925
1091.47549	5950.325
1095.13903	5872.925
1098.80005	5708.125
1102.45857	5501.525
1106.11456	5415.825
1109.76805	5459.425
1113.41903	5587.225
1117.06751	5800.425
1120.71348	6090.625
1124.35696	6401.425
1127.99793	6701.825
1131.63641	6730.725
1135.2724	6465.025
1138.90589	6188.625
1142.5369	5972.525
1146.16542	5807.225
1149.79145	5670.125
1153.415	5613.325
1157.03607	5592.325
1160.65467	5648.225
1164.27079	5816.725
1167.88443	6085.425
1171.49561	6541.825
1175.10432	7332.925
1178.71056	8363.625
1182.31434	9205.825
1185.91565	9418.825
1189.51451	9133.425
1193.11091	8621.425
1196.70485	8069.825
1200.29634	7687.725
1203.88538	7397.125
1207.47197	6999.725
1211.05612	6584.925
1214.63782	6297.625
1218.21708	6141.425
1221.79391	6062.125
1225.36829	6036.825
1228.94024	6009.525
1232.50976	5999.825
1236.07685	5972.525
1239.6415	5976.725
1243.20374	6013.425
1246.76355	6066.825
1250.32093	6130.125
1253.8759	6221.525
1257.42845	6392.525
1260.97859	6565.325
1264.52631	6718.925
1268.07163	6883.825
1271.61453	7021.025
1275.15503	7136.825
1278.69312	7204.325
1282.22882	7227.925
1285.76211	7363.625
1289.29301	7608.725
1292.82151	7875.225
1296.34761	8152.625
1299.87133	8597.825
1303.39266	9321.025
1306.9116	10402.725
1310.42815	11601.525
1313.94233	12206.825
1317.45412	11919.225
1320.96354	11087.725
1324.47058	10160.625
1327.97525	9414.725
1331.47754	8945.025
1334.97747	8787.325
1338.47502	8859.625
1341.97022	9096.825
1345.46305	9514.425
1348.95352	10100.325
1352.44163	10833.425
1355.92738	11891.925
1359.41078	13570.525
1362.89183	15122.725
1366.37053	14730.225
1369.84688	12614.925
1373.32088	10458.525
1376.79254	9023.125
1380.26186	8210.325
1383.72883	7804.725
1387.19347	7534.525
1390.65578	7282.725
1394.11575	7047.125
1397.57339	6960.925
1401.0287	6980.825
1404.48168	7025.225
1407.93234	7084.625
1411.38068	7085.825
1414.82669	7043.125
1418.27039	6910.725
1421.71177	6733.525
1425.15083	6545.325
1428.58758	6473.425
1432.02203	6463.725
1435.45416	6501.125
1438.88399	6539.925
1442.31151	6496.125
1445.73673	6541.625
1449.15965	6589.925
1452.58027	6588.725
1455.9986	6563.325
1459.41463	6562.125
1462.82837	6645.125
1466.23982	6776.625
1469.64898	6894.725
1473.05586	7007.825
1476.46045	7036.825
1479.86276	7152.425
1483.26279	7300.725
1486.66054	7511.325
1490.05602	7788.525
1493.44922	8185.525
1496.84016	8791.425
1500.22882	9742.025
1503.61521	11051.025
1506.99934	12481.825
1510.38121	13703.025
1513.76081	14150.425
1517.13816	13326.025
1520.51324	11627.425
1523.88607	9978.125
1527.25665	8877.025
1530.62498	8268.525
1533.99105	7913.025
1537.35488	7717.125
1540.71647	7603.225
1544.07581	7557.425
1547.4329	7530.225
1550.78776	7497.725
1554.14038	7479.125
1557.49077	7501.725
1560.83892	7620.725
1564.18484	7843.525
1567.52853	8091.125
1570.86999	8311.325
1574.20922	8482.125
1577.54624	8441.425
1580.88103	8040.725
1584.2136	7467.325
1587.54395	7128.325
1590.87208	7142.225
1594.19801	7448.725
1597.52172	7932.525
1600.84321	8212.225
1604.16251	8005.825
1607.47959	7568.225
1610.79447	7058.625
1614.10715	6560.525
1617.41763	6165.425
1620.7259	5894.125
1624.03199	5763.725
1627.33587	5731.325
1630.63757	5817.825
1633.93707	6020.425
1637.23439	6374.625
1640.52951	6943.725
1643.82246	7780.925
1647.11321	8862.825
1650.40179	9747.725
1653.68819	9689.425
1656.97241	8609.425
1660.25446	7256.025
1663.53433	6279.225
1666.81203	5673.825
1670.08756	5310.925
1673.36092	5056.925
1676.63211	4925.425
1679.90115	4814.925
1683.16801	4730.625
1686.43272	4662.825
1689.69527	4624.725
1692.95567	4586.225
1696.2139	4571.525
1699.46999	4564.625
1702.72392	4524.025
1705.97571	4483.425
1709.22535	4435.425
1712.47284	4425.725
1715.71819	4425.425
1718.96139	4408.425
1722.20246	4394.225
1725.44139	4373.925
1728.67818	4335.125
1731.91284	4308.125
1735.14537	4280.525
1738.37576	4249.925
1741.60403	4232.425
1744.83017	4203.725
1748.05418	4215.425
1751.27607	4200.025
1754.49584	4195.425
1757.71349	4195.125
1760.92903	4195.825
1764.14244	4162.325
1767.35375	4159.825
1770.56294	4146.625
1773.77002	4115.825
1776.97499	4082.625
1780.17785	4076.825
1783.37861	4068.925
1786.57727	4043.225
1789.77382	4027.925
1792.96828	4015.025
1796.16064	4015.525
1799.3509	4007.225
1802.53907	4010.325
1805.72514	3980.625
1808.90913	3963.325
1812.09102	3953.725
1815.27083	3932.425
1818.44856	3932.525
1821.6242	3927.725
1824.79776	3922.625
1827.96924	3916.225
1831.13864	3901.725
1834.30597	3903.525
1837.47122	3891.225
1840.6344	3892.525
1843.7955	3889.925
1846.95454	3881.825
1850.11151	3871.925
1853.26642	3871.025
1856.41926	3869.525
1859.57004	3875.125
1862.71876	3842.425
1865.86542	3854.525
1869.01003	3851.125
1872.15258	3866.025
1875.29308	3844.325
1878.43152	3847.225
1881.56792	3863.725
1884.70227	3838.425
1887.83457	3829.125
1890.96482	3825.925
1894.09304	3821.325
1897.21921	3821.325
1900.34335	3818.125
1903.46544	3809.325
1906.58551	3804.425
1909.70353	3811.725
1912.81953	3821.025
1915.93349	3797.025
1919.04543	3790.125
1922.15534	3784.825
1925.26322	3776.825
1928.36908	3760.725
1931.47292	3759.425
1934.57473	3733.925
1937.67453	3735.625
1940.77232	3719.625
1943.86808	3710.125
1946.96184	3692.425
1950.05358	3684.925
1953.14331	3663.025
1956.23103	3660.725
1959.31675	3654.825
1962.40046	3639.725
1965.48217	3631.825
1968.56188	3633.025
1971.63959	3619.325
1974.7153	3605.625
1977.78901	3591.525
1980.86073	3581.925
1983.93046	3567.225
1986.99819	3550.325
1990.06394	3537.925
1993.1277	3528.125
1996.18947	3519.425
1999.24925	3492.125
2002.30706	3489.525
2005.36288	3463.725
2008.41672	3475.425
2011.46859	3447.425
2014.51848	3431.825
2017.56639	3425.025
2020.61233	3416.125
2023.6563	3404.525
2026.6983	3401.625
2029.73833	3412.125
2032.7764	3385.625
2035.8125	3370.325
2038.84664	3374.225
2041.87881	3361.325
2044.90903	3353.525
2047.93729	3347.725
2050.96359	3346.225
2053.98794	3339.325
2057.01034	3329.525
2060.03078	3313.925
2063.04927	3327.425
2066.06582	3316.425
2069.08042	3302.325
2072.09307	3313.825
2075.10378	3293.525
2078.11255	3304.025
2081.11938	3294.425
2084.12426	3296.425
2087.12722	3290.225
2090.12824	3289.725
2093.12732	3293.525
2096.12447	3280.225
2099.11969	3280.125
2102.11299	3292.725
2105.10435	3284.625
2108.09379	3286.725
2111.08131	3297.525
2114.0669	3287.925
2117.05057	3292.325
2120.03233	3297.425
2123.01216	3284.625
2125.99008	3304.525
2128.96609	3301.125
2131.94018	3307.325
2134.91236	3299.225
2137.88263	3285.925
2140.851	3296.325
2143.81746	3296.425
2146.78201	3300.025
2149.74466	3294.525
2152.7054	3289.625
2155.66425	3285.625
2158.6212	3277.725
2161.57625	3272.025
2164.52941	3280.925
2167.48067	3272.525
2170.43004	3262.425
2173.37752	3264.025
2176.32311	3255.425
2179.26681	3267.525
2182.20863	3254.425
2185.14856	3271.525
2188.08661	3251.825
2191.02278	3257.525
2193.95707	3245.425
2196.88948	3234.225
2199.82001	3249.425
2202.74867	3227.525
2205.67545	3239.725
2208.60037	3229.825
2211.52341	3211.625
2214.44458	3217.225
2217.36388	3202.025
2220.28132	3200.725
2223.1969	3196.325
2226.11061	3196.125
2229.02246	3177.525
2231.93245	3173.025
2234.84058	3159.225
2237.74686	3155.425
2240.65128	3153.025
2243.55385	3152.725
2246.45456	3146.425
2249.35343	3124.525
2252.25044	3126.725
2255.14561	3137.025
2258.03893	3142.325
2260.93041	3138.625
2263.82004	3133.725
2266.70783	3118.325
2269.59378	3108.325
2272.4779	3110.425
2275.36017	3092.125
2278.24061	3092.725
2281.11922	3083.425
2283.996	3060.925
2286.87094	3063.425
2289.74405	3070.025
2292.61534	3046.525
2295.4848	3038.625
2298.35243	3037.325
2301.21824	3031.625
2304.08223	3033.025
2306.94439	3020.825
2309.80474	3030.525
2312.66327	3019.025
2315.51999	3005.425
2318.37489	3013.525
2321.22797	3013.425
2324.07925	2997.625
2326.92871	2995.125
2329.77637	3007.825
2332.62222	2994.425
2335.46626	2993.425
2338.3085	2972.525
2341.14893	2965.325
2343.98756	2985.625
2346.8244	2980.525
2349.65943	2977.625
2352.49267	2988.825
2355.32411	2977.525
2358.15376	2979.425
2360.98161	2982.225
2363.80768	2983.125
2366.63195	3002.125
2369.45444	2983.425
2372.27514	2977.325
2375.09405	2973.925
2377.91118	2958.125
2380.72652	2963.125
2383.54009	2941.125
2386.35187	2937.625
2389.16188	2919.025
2391.97011	2903.025
2394.77657	2898.025
2397.58125	2887.525
2400.38416	2891.225
2403.18529	2880.725
2405.98466	2874.725
2408.78226	2866.125
2411.57809	2871.025
2414.37216	2863.825
2417.16446	2854.025
2419.955	2852.225
2422.74378	2835.125
2425.5308	2834.625
2428.31606	2838.625
2431.09956	2840.525
2433.88131	2833.925
2436.6613	2837.325
2439.43954	2829.225
2442.21603	2824.225
2444.99077	2815.125
2447.76377	2828.325
2450.53501	2830.125
2453.30451	2825.825
2456.07226	2819.725
2458.83827	2824.125
2461.60254	2812.625
2464.36507	2806.225
2467.12586	2820.625
2469.88492	2808.025
2472.64224	2794.925
2475.39782	2808.625
2478.15167	2816.425
2480.90379	2808.825
2483.65417	2814.625
2486.40283	2819.925
2489.14976	2822.225
2491.89497	2815.725
2494.63845	2842.325
2497.3802	2836.325
2500.12024	2822.425
2502.85855	2817.925
2505.59514	2805.325
2508.33002	2796.825
2511.06318	2764.725
2513.79462	2776.825
2516.52435	2745.825
2519.25237	2752.425
2521.97867	2739.725
2524.70327	2737.425
2527.42616	2732.925
2530.14734	2723.125
2532.86681	2709.825
2535.58458	2722.825
2538.30065	2709.025
2541.01501	2712.625
2543.72768	2702.825
2546.43864	2695.725
2549.14791	2706.225
2551.85548	2698.525
2554.56136	2701.825
2557.26554	2679.025
2559.96803	2695.325
2562.66883	2686.325
2565.36794	2652.925
2568.06536	2678.925
2570.7611	2656.725
2573.45514	2665.725
2576.14751	2664.225
2578.83819	2644.325
2581.52719	2657.325
2584.21451	2639.025
2586.90015	2647.925
2589.58411	2634.825
2592.2664	2622.625
2594.94701	2619.125
2597.62594	2620.825
2600.30321	2613.825
2602.9788	2608.625
2605.65273	2605.625
2608.32498	2616.825
2610.99557	2612.725
2613.66449	2606.825
2616.33175	2604.225
2618.99734	2597.225
2621.66128	2590.625
2624.32355	2593.425
2626.98416	2587.125
2629.64311	2586.025
2632.30041	2576.725
2634.95605	2578.025
2637.61004	2566.725
2640.26238	2568.025
2642.91306	2555.825
2645.56209	2549.225
2648.20948	2563.625
2650.85521	2549.925
2653.4993	2552.625
2656.14175	2546.025
2658.78255	2540.925
2661.42171	2550.925
2664.05923	2560.425
2666.6951	2559.925
2669.32934	2564.125
2671.96194	2574.425
2674.59291	2559.025
2677.22224	2558.325
2679.84993	2569.625
2682.476	2561.225
2685.10043	2559.025
2687.72324	2549.625
2690.34441	2562.625
2692.96396	2557.725
2695.58188	2561.825
2698.19818	2553.625
2700.81285	2575.725
2703.4259	2573.725
2706.03733	2624.625
2708.64714	2592.625
2711.25533	2574.725
2713.86191	2580.725
2716.46687	2576.425
2719.07021	2553.025
2721.67194	2564.725
2724.27206	2548.425
2726.87057	2545.625
2729.46747	2556.525
2732.06276	2553.325
2734.65644	2556.025
2737.24852	2555.025
2739.83899	2541.625
2742.42786	2543.925
2745.01513	2537.525
2747.60079	2530.225
2750.18486	2535.025
2752.76733	2533.725
2755.3482	2518.425
2757.92747	2516.725
2760.50515	2519.925
2763.08123	2502.825
2765.65573	2496.025
2768.22863	2506.525
2770.79994	2499.725
2773.36967	2510.125
2775.9378	2512.725
2778.50435	2502.625
2781.06932	2487.125
2783.6327	2488.925
2786.1945	2482.525
2788.75471	2490.825
2791.31335	2492.425
2793.87041	2485.425
2796.42589	2477.425
2798.97979	2469.825
2801.53212	2486.625
2804.08288	2476.725
2806.63206	2463.525
2809.17967	2467.125
2811.72571	2459.525
2814.27018	2467.825
2816.81308	2471.125
2819.35442	2458.525
2821.89419	2469.325
2824.43239	2466.425
2826.96904	2475.825
2829.50412	2470.625
2832.03763	2464.225
2834.56959	2462.825
2837.1	2478.925
2839.62884	2480.325
2842.15613	2486.825
2844.68186	2498.725
2847.20604	2511.225
2849.72867	2525.225
2852.24974	2535.025
2854.76927	2534.025
2857.28724	2555.625
2859.80367	2533.225
2862.31855	2528.725
2864.83189	2511.025
2867.34368	2510.925
2869.85393	2513.025
2872.36264	2501.625
2874.8698	2496.225
2877.37543	2495.725
2879.87952	2489.825
2882.38207	2495.125
2884.88308	2499.125
2887.38256	2504.625
2889.88051	2488.725
2892.37692	2484.025
2894.8718	2501.925
2897.36515	2488.225
2899.85698	2485.225
2902.34727	2499.125
2904.83604	2492.125
2907.32328	2505.225
2909.809	2495.525
2912.29319	2494.625
2914.77587	2488.125
2917.25702	2486.725
2919.73665	2489.925
2922.21476	2489.425
2924.69136	2491.225
2927.16644	2482.025
2929.64	2491.125
2932.11205	2476.025
2934.58258	2456.225
2937.05161	2468.425
2939.51912	2454.625
2941.98513	2465.025
2944.44962	2445.125
2946.91261	2430.625
2949.37409	2442.525
2951.83407	2416.025
2954.29254	2408.225
2956.74951	2406.425
2959.20498	2409.525
2961.65895	2395.925
2964.11142	2392.825
2966.56239	2386.325
2969.01186	2379.225
2971.45984	2355.325
2973.90632	2370.125
2976.35131	2350.125
2978.7948	2346.025
2981.23681	2349.625
2983.67732	2343.325
2986.11635	2335.925
2988.55388	2331.125
2990.98993	2314.225
2993.4245	2321.325
2995.85758	2322.125
2998.28917	2306.025
3000.71928	2323.625
3003.14791	2308.025
3005.57506	2312.425
3008.00073	2307.825
3010.42493	2306.725
3012.84764	2295.025
3015.26888	2308.725
3017.68865	2297.425
3020.10694	2298.425
3022.52376	2288.125
3024.9391	2287.225
3027.35298	2285.325
3029.76539	2277.125
3032.17632	2281.525
3034.5858	2278.925
3036.9938	2263.625
3039.40034	2269.225
3041.80542	2271.525
3044.20903	2251.525
3046.61118	2254.025
3049.01187	2272.025
3051.4111	2256.525
3053.80888	2245.325
3056.20519	2245.925
3058.60005	2254.225
3060.99345	2250.425
3063.3854	2239.125
3065.7759	2243.125
3068.16494	2228.225
3070.55254	2225.125
3072.93868	2226.525
3075.32338	2228.025
3077.70662	2214.325
3080.08842	2223.025
3082.46878	2204.525
3084.84769	2219.325
3087.22515	2215.525
3089.60118	2213.725
3091.97576	2225.525
3094.3489	2206.625
3096.72061	2227.225
3099.09087	2226.825
3101.4597	2214.025
3103.82709	2229.225
3106.19305	2227.325
3108.55757	2223.825
3110.92066	2220.925
3113.28232	2221.925
3115.64255	2215.925
3118.00134	2214.325
3120.35871	2204.925
3122.71466	2214.325
3125.06917	2210.525
3127.42226	2214.025
3129.77393	2216.025
3132.12417	2223.925
3134.47299	2226.025
3136.82039	2230.225
3139.16636	2240.925
3141.51092	2236.125
3143.85406	2249.925
3146.19579	2249.325
3148.53609	2245.725
3150.87499	2255.225
3153.21246	2265.325
3155.54853	2266.125
3157.88318	2274.225
3160.21642	2279.125
3162.54826	2272.825
3164.87868	2280.225
3167.2077	2279.425
3169.5353	2284.125
3171.86151	2288.525
3174.18631	2296.425
3176.5097	2279.725
3178.83169	2281.225
3181.15228	2294.425
3183.47147	2295.525
3185.78926	2295.225
3188.10565	2295.125
3190.42065	2300.725
3192.73424	2307.725
3195.04645	2307.025
3197.35725	2296.325
3199.66667	2318.625
3201.97469	2314.225
3204.28132	2329.725
3206.58656	2331.325
3208.8904	2329.825
3211.19287	2335.525
3213.49394	2337.125
3215.79363	2342.125
3218.09193	2353.025
3220.38884	2352.325
3222.68438	2378.025
3224.97853	2354.325
3227.2713	2343.925
3229.56269	2342.525
3231.8527	2348.525
3234.14133	2342.025
3236.42858	2339.925
3238.71446	2342.525
3240.99896	2328.225
3243.28209	2333.225
3245.56384	2331.625
3247.84423	2329.325
3250.12324	2335.225
3252.40088	2335.225
3254.67715	2337.825
3256.95205	2332.225
3259.22558	2329.025
3261.49775	2319.125
3263.76855	2313.925
3266.03799	2326.225
3268.30606	2313.625
3270.57277	2312.125
3272.83812	2301.625
3275.10211	2294.425
3277.36474	2293.925
3279.62601	2301.825
3281.88593	2293.625
3284.14448	2299.225
3286.40168	2300.525
3288.65753	2291.425
3290.91202	2293.425
3293.16516	2282.725
3295.41695	2278.025
3297.66738	2259.025
3299.91647	2260.225
3302.16421	2232.025
3304.4106	2237.325
3306.65564	2227.025
3308.89933	2212.425
3311.14169	2211.425
3313.38269	2193.725
3315.62236	2186.025
3317.86068	2158.725
3320.09766	2132.125
3322.3333	2116.625
3324.5676	2128.425
3326.80056	2106.425
3329.03219	2073.025
3331.26248	0.525
3333.49143	-0.675
3335.71905	1.525
