Data from AgNPs_FTO_APTES_UA_5um_CRN_0.1mM_R6G_10uM_NaF_0.1M_Addition_RamanShift__4__13-01-39-083.txt Node

Date: Tue Dec 21 13:01:39 GMT 2021
User: TCL
Spectrometer: QEP01345
Trigger mode: 4
Integration Time (sec): 7.000000E0
Scans to average: 10
Electric dark correction enabled: true
Nonlinearity correction enabled: false
Boxcar width: 0
XAxis mode: Raman Shifts
Number of Pixels in Spectrum: 1044
>>>>>Begin Spectral Data<<<<<
46.04893	-0.1125
50.45542	-1.2125
54.85868	-0.7125
59.25871	-0.0125
63.6555	46.9875
68.04907	51.1875
72.43941	55.7875
76.82654	54.4875
81.21044	61.6875
85.59113	58.3875
89.96862	62.8875
94.34289	64.7875
98.71396	64.3875
103.08183	67.2875
107.4465	68.7875
111.80798	72.4875
116.16626	71.3875
120.52136	73.8875
124.87327	76.4875
129.222	80.1875
133.56755	87.6875
137.90993	93.6875
142.24913	99.1875
146.58517	115.2875
150.91804	131.1875
155.24774	153.7875
159.57429	186.6875
163.89768	242.5875
168.21792	320.1875
172.53501	433.5875
176.84895	600.1875
181.15975	844.7875
185.46741	1188.0875
189.77193	1633.9875
194.07331	2196.6875
198.37157	2830.6875
202.6667	3493.6875
206.9587	4178.7875
211.24758	4850.8875
215.53334	5531.4875
219.81599	6233.7875
224.09553	7040.2875
228.37195	7901.0875
232.64527	8825.4875
236.91549	9825.9875
241.18261	10807.9875
245.44663	11712.7875
249.70755	12486.9875
253.96539	13178.1875
258.22014	13704.0875
262.4718	14142.8875
266.72039	14426.0875
270.96589	14535.1875
275.20832	14470.0875
279.44768	14333.8875
283.68397	14183.6875
287.91719	14071.1875
292.14735	13957.8875
296.37445	13946.8875
300.59849	14021.3875
304.81948	14114.8875
309.03742	14139.3875
313.25231	14078.9875
317.46415	13850.6875
321.67296	13524.6875
325.87872	13199.2875
330.08145	13016.3875
334.28114	12949.8875
338.47781	13002.2875
342.67145	13114.9875
346.86207	13294.1875
351.04966	13521.5875
355.23424	13781.8875
359.4158	13995.6875
363.59435	14137.1875
367.76989	14220.2875
371.94243	14284.9875
376.11196	14303.4875
380.27849	14374.1875
384.44203	14466.6875
388.60257	14660.5875
392.76012	14856.1875
396.91468	15102.7875
401.06626	15346.5875
405.21485	15573.6875
409.36047	15556.6875
413.50311	15323.3875
417.64277	15186.7875
421.77947	15161.5875
425.9132	15172.2875
430.04396	15236.4875
434.17176	15315.2875
438.2966	15383.6875
442.41849	15644.1875
446.53742	16070.7875
450.6534	16607.5875
454.76644	16967.1875
458.87653	17012.1875
462.98368	16874.9875
467.08789	16569.2875
471.18916	16313.1875
475.2875	16105.2875
479.38291	15993.3875
483.4754	15931.6875
487.56496	15793.1875
491.6516	15585.4875
495.73531	15333.9875
499.81612	15169.3875
503.89401	15173.6875
507.96899	15190.4875
512.04106	15046.6875
516.11023	14878.2875
520.1765	14689.0875
524.23987	14594.9875
528.30034	14518.7875
532.35792	14440.5875
536.41261	14234.0875
540.46441	14040.4875
544.51333	13959.2875
548.55936	14098.5875
552.60252	14419.1875
556.64279	14788.6875
560.6802	15112.9875
564.71473	15300.3875
568.7464	15558.0875
572.7752	16091.5875
576.80114	16610.8875
580.82422	17188.0875
584.84444	18001.5875
588.86181	19010.1875
592.87633	19879.4875
596.888	19777.3875
600.89682	18739.1875
604.9028	18178.6875
608.90594	19216.2875
612.90624	20534.6875
616.90371	19189.8875
620.89834	15910.2875
624.89015	14375.9875
628.87913	14243.1875
632.86528	14365.2875
636.84862	14378.1875
640.82913	14125.7875
644.80683	13737.1875
648.78172	13468.3875
652.75379	13399.5875
656.72306	13530.4875
660.68952	13695.7875
664.65319	13619.0875
668.61405	13400.0875
672.57211	13376.8875
676.52738	13496.7875
680.47986	13530.8875
684.42955	13476.9875
688.37646	13341.5875
692.32058	13348.5875
696.26192	13495.7875
700.20048	13686.1875
704.13626	13818.0875
708.06928	13810.3875
711.99952	13744.7875
715.927	13758.4875
719.85171	13835.0875
723.77365	13796.9875
727.69284	13575.3875
731.60928	13411.3875
735.52295	13341.9875
739.43388	13361.8875
743.34206	13408.9875
747.24749	13479.6875
751.15017	13598.8875
755.05012	13828.4875
758.94733	14230.8875
762.8418	14959.1875
766.73354	16149.8875
770.62254	17310.4875
774.50882	17598.1875
778.39237	16823.9875
782.27321	15546.7875
786.15132	14440.6875
790.02671	13692.2875
793.89938	13353.1875
797.76935	13203.4875
801.6366	13188.3875
805.50115	13191.8875
809.36299	13049.8875
813.22213	12926.2875
817.07857	12833.2875
820.93231	12734.0875
824.78336	12636.1875
828.63172	12562.6875
832.47738	12523.1875
836.32036	12555.5875
840.16066	12582.4875
843.99827	12571.3875
847.8332	12563.9875
851.66546	12465.8875
855.49504	12465.2875
859.32195	12445.9875
863.1462	12427.0875
866.96777	12391.6875
870.78668	12373.8875
874.60293	12387.8875
878.41652	12393.1875
882.22745	12422.8875
886.03573	12497.2875
889.84136	12514.2875
893.64433	12450.8875
897.44466	12389.9875
901.24235	12297.8875
905.0374	12200.8875
908.8298	12157.9875
912.61957	12151.7875
916.40671	12230.5875
920.19121	12456.8875
923.97308	12655.5875
927.75233	12758.6875
931.52895	12667.9875
935.30295	12413.6875
939.07433	12123.4875
942.84309	11879.8875
946.60924	11781.7875
950.37278	11697.3875
954.13371	11717.7875
957.89203	11684.6875
961.64774	11680.9875
965.40086	11671.3875
969.15137	11621.0875
972.89929	11554.9875
976.64461	11491.7875
980.38733	11439.1875
984.12747	11478.0875
987.86502	11563.3875
991.59999	11686.5875
995.33237	11859.5875
999.06217	12225.7875
1002.78939	12629.0875
1006.51404	12968.0875
1010.23611	13175.5875
1013.95561	13385.9875
1017.67255	13445.8875
1021.38692	13277.8875
1025.09872	13012.2875
1028.80796	12866.0875
1032.51465	13039.8875
1036.21877	13304.8875
1039.92035	13492.0875
1043.61937	13448.4875
1047.31584	13258.5875
1051.00976	13058.6875
1054.70114	12881.4875
1058.38998	12823.6875
1062.07627	12867.6875
1065.76003	12969.5875
1069.44126	13159.4875
1073.11995	13428.9875
1076.79611	13702.0875
1080.46974	13746.4875
1084.14085	13830.2875
1087.80943	13966.6875
1091.47549	14140.4875
1095.13903	14226.0875
1098.80005	13994.1875
1102.45857	13571.5875
1106.11456	13195.1875
1109.76805	13023.2875
1113.41903	12979.9875
1117.06751	13073.0875
1120.71348	13258.5875
1124.35696	13487.7875
1127.99793	13707.7875
1131.63641	13870.8875
1135.2724	13915.4875
1138.90589	13812.7875
1142.5369	13834.2875
1146.16542	13920.5875
1149.79145	14023.7875
1153.415	14145.4875
1157.03607	14377.0875
1160.65467	14821.6875
1164.27079	15659.9875
1167.88443	16706.9875
1171.49561	17894.1875
1175.10432	19313.6875
1178.71056	21184.6875
1182.31434	22874.6875
1185.91565	23650.1875
1189.51451	23265.3875
1193.11091	22350.5875
1196.70485	21247.9875
1200.29634	20214.1875
1203.88538	19444.9875
1207.47197	19015.0875
1211.05612	18725.8875
1214.63782	18302.1875
1218.21708	17818.8875
1221.79391	17450.0875
1225.36829	17244.9875
1228.94024	17089.5875
1232.50976	16742.9875
1236.07685	16325.2875
1239.6415	16053.9875
1243.20374	15977.0875
1246.76355	16080.7875
1250.32093	16347.9875
1253.8759	16793.6875
1257.42845	17362.7875
1260.97859	18013.6875
1264.52631	18666.1875
1268.07163	19339.9875
1271.61453	20017.8875
1275.15503	20686.3875
1278.69312	21463.4875
1282.22882	22296.2875
1285.76211	23228.3875
1289.29301	24456.8875
1292.82151	25773.4875
1296.34761	27255.3875
1299.87133	29030.4875
1303.39266	30849.8875
1306.9116	32604.4875
1310.42815	33973.3875
1313.94233	34689.8875
1317.45412	34389.2875
1320.96354	33357.8875
1324.47058	32264.8875
1327.97525	31494.0875
1331.47754	30955.4875
1334.97747	30431.1875
1338.47502	29912.8875
1341.97022	29147.3875
1345.46305	28407.5875
1348.95352	27960.5875
1352.44163	28276.1875
1355.92738	29509.8875
1359.41078	31326.7875
1362.89183	32860.0875
1366.37053	32882.7875
1369.84688	30574.1875
1373.32088	26966.3875
1376.79254	24174.4875
1380.26186	23008.0875
1383.72883	22740.3875
1387.19347	22541.2875
1390.65578	22174.8875
1394.11575	22098.0875
1397.57339	22399.8875
1401.0287	22976.4875
1404.48168	23394.3875
1407.93234	23336.3875
1411.38068	22788.3875
1414.82669	21934.8875
1418.27039	20953.7875
1421.71177	19970.5875
1425.15083	19139.9875
1428.58758	18713.2875
1432.02203	18890.9875
1435.45416	19461.2875
1438.88399	20093.5875
1442.31151	20521.7875
1445.73673	20873.5875
1449.15965	21109.0875
1452.58027	21199.3875
1455.9986	21133.1875
1459.41463	21153.0875
1462.82837	21481.2875
1466.23982	21997.7875
1469.64898	22507.6875
1473.05586	22845.4875
1476.46045	22925.7875
1479.86276	22918.2875
1483.26279	22735.3875
1486.66054	22708.9875
1490.05602	22956.1875
1493.44922	23243.9875
1496.84016	23495.2875
1500.22882	23854.5875
1503.61521	24371.1875
1506.99934	25082.8875
1510.38121	25533.5875
1513.76081	25514.4875
1517.13816	24918.4875
1520.51324	23923.3875
1523.88607	23170.9875
1527.25665	22901.2875
1530.62498	22793.8875
1533.99105	22674.6875
1537.35488	22347.4875
1540.71647	21756.3875
1544.07581	21019.8875
1547.4329	20272.4875
1550.78776	19662.3875
1554.14038	19195.4875
1557.49077	18956.6875
1560.83892	18863.8875
1564.18484	18915.2875
1567.52853	19044.4875
1570.86999	19294.9875
1574.20922	19689.5875
1577.54624	20055.4875
1580.88103	20187.8875
1584.2136	20392.9875
1587.54395	21061.9875
1590.87208	22329.8875
1594.19801	24050.7875
1597.52172	25618.6875
1600.84321	26102.8875
1604.16251	24879.6875
1607.47959	22498.7875
1610.79447	19934.6875
1614.10715	17762.4875
1617.41763	16133.6875
1620.7259	15133.3875
1624.03199	14671.0875
1627.33587	14695.2875
1630.63757	15238.2875
1633.93707	16402.3875
1637.23439	18338.9875
1640.52951	21383.6875
1643.82246	25159.8875
1647.11321	28375.0875
1650.40179	29171.4875
1653.68819	26959.3875
1656.97241	22896.5875
1660.25446	18860.2875
1663.53433	15946.9875
1666.81203	14064.3875
1670.08756	12926.9875
1673.36092	12214.4875
1676.63211	11739.2875
1679.90115	11435.8875
1683.16801	11187.3875
1686.43272	10996.9875
1689.69527	10900.4875
1692.95567	10806.1875
1696.2139	10739.5875
1699.46999	10673.3875
1702.72392	10654.8875
1705.97571	10583.7875
1709.22535	10545.2875
1712.47284	10508.0875
1715.71819	10448.1875
1718.96139	10435.0875
1722.20246	10360.5875
1725.44139	10326.4875
1728.67818	10272.3875
1731.91284	10212.3875
1735.14537	10140.9875
1738.37576	10106.1875
1741.60403	10046.1875
1744.83017	10017.5875
1748.05418	10021.1875
1751.27607	10000.2875
1754.49584	10027.6875
1757.71349	10043.1875
1760.92903	10048.9875
1764.14244	9986.0875
1767.35375	9943.6875
1770.56294	9900.2875
1773.77002	9838.7875
1776.97499	9805.5875
1780.17785	9767.6875
1783.37861	9749.1875
1786.57727	9707.3875
1789.77382	9683.0875
1792.96828	9654.3875
1796.16064	9631.5875
1799.3509	9598.9875
1802.53907	9618.9875
1805.72514	9549.8875
1808.90913	9543.4875
1812.09102	9524.2875
1815.27083	9502.7875
1818.44856	9482.9875
1821.6242	9448.4875
1824.79776	9461.9875
1827.96924	9458.0875
1831.13864	9442.5875
1834.30597	9438.2875
1837.47122	9420.1875
1840.6344	9441.1875
1843.7955	9424.5875
1846.95454	9414.7875
1850.11151	9416.5875
1853.26642	9423.5875
1856.41926	9418.0875
1859.57004	9401.1875
1862.71876	9385.3875
1865.86542	9383.8875
1869.01003	9348.6875
1872.15258	9362.9875
1875.29308	9316.9875
1878.43152	9359.2875
1881.56792	9311.3875
1884.70227	9315.0875
1887.83457	9310.3875
1890.96482	9306.5875
1894.09304	9293.5875
1897.21921	9260.9875
1900.34335	9268.7875
1903.46544	9241.4875
1906.58551	9234.4875
1909.70353	9206.4875
1912.81953	9222.1875
1915.93349	9188.6875
1919.04543	9154.5875
1922.15534	9130.3875
1925.26322	9103.9875
1928.36908	9069.3875
1931.47292	9037.2875
1934.57473	9026.7875
1937.67453	8984.6875
1940.77232	8959.2875
1943.86808	8957.6875
1946.96184	8911.8875
1950.05358	8905.0875
1953.14331	8885.9875
1956.23103	8823.2875
1959.31675	8817.3875
1962.40046	8805.3875
1965.48217	8770.3875
1968.56188	8753.2875
1971.63959	8714.8875
1974.7153	8679.3875
1977.78901	8665.2875
1980.86073	8619.4875
1983.93046	8607.0875
1986.99819	8566.2875
1990.06394	8531.1875
1993.1277	8535.8875
1996.18947	8475.9875
1999.24925	8505.9875
2002.30706	8440.7875
2005.36288	8425.2875
2008.41672	8405.3875
2011.46859	8358.6875
2014.51848	8356.5875
2017.56639	8332.9875
2020.61233	8296.2875
2023.6563	8295.8875
2026.6983	8287.8875
2029.73833	8275.7875
2032.7764	8264.1875
2035.8125	8249.1875
2038.84664	8206.0875
2041.87881	8206.3875
2044.90903	8192.1875
2047.93729	8187.4875
2050.96359	8196.2875
2053.98794	8179.2875
2057.01034	8139.8875
2060.03078	8135.8875
2063.04927	8140.9875
2066.06582	8140.0875
2069.08042	8103.9875
2072.09307	8114.2875
2075.10378	8096.3875
2078.11255	8095.8875
2081.11938	8100.0875
2084.12426	8077.6875
2087.12722	8086.8875
2090.12824	8072.3875
2093.12732	8074.9875
2096.12447	8067.4875
2099.11969	8076.2875
2102.11299	8060.7875
2105.10435	8081.4875
2108.09379	8077.8875
2111.08131	8090.9875
2114.0669	8074.4875
2117.05057	8096.2875
2120.03233	8109.6875
2123.01216	8082.1875
2125.99008	8088.0875
2128.96609	8113.0875
2131.94018	8105.1875
2134.91236	8130.9875
2137.88263	8097.8875
2140.851	8103.1875
2143.81746	8108.6875
2146.78201	8082.6875
2149.74466	8105.1875
2152.7054	8105.1875
2155.66425	8106.8875
2158.6212	8082.6875
2161.57625	8090.7875
2164.52941	8087.9875
2167.48067	8075.4875
2170.43004	8082.8875
2173.37752	8059.8875
2176.32311	8067.8875
2179.26681	8069.3875
2182.20863	8081.3875
2185.14856	8065.6875
2188.08661	8074.8875
2191.02278	8062.7875
2193.95707	8069.0875
2196.88948	8047.3875
2199.82001	8058.3875
2202.74867	8033.1875
2205.67545	8032.7875
2208.60037	8007.5875
2211.52341	8021.8875
2214.44458	8002.4875
2217.36388	7996.8875
2220.28132	7988.3875
2223.1969	7948.3875
2226.11061	7951.0875
2229.02246	7967.9875
2231.93245	7953.0875
2234.84058	7949.1875
2237.74686	7912.7875
2240.65128	7912.1875
2243.55385	7903.6875
2246.45456	7891.6875
2249.35343	7853.4875
2252.25044	7844.9875
2255.14561	7832.3875
2258.03893	7839.4875
2260.93041	7828.7875
2263.82004	7797.2875
2266.70783	7760.3875
2269.59378	7753.8875
2272.4779	7719.0875
2275.36017	7727.7875
2278.24061	7698.1875
2281.11922	7674.4875
2283.996	7663.6875
2286.87094	7669.7875
2289.74405	7642.6875
2292.61534	7660.8875
2295.4848	7640.0875
2298.35243	7613.2875
2301.21824	7643.9875
2304.08223	7653.1875
2306.94439	7637.6875
2309.80474	7643.9875
2312.66327	7611.9875
2315.51999	7634.9875
2318.37489	7617.9875
2321.22797	7602.7875
2324.07925	7595.1875
2326.92871	7577.8875
2329.77637	7609.5875
2332.62222	7603.9875
2335.46626	7605.3875
2338.3085	7569.4875
2341.14893	7586.6875
2343.98756	7569.6875
2346.8244	7578.1875
2349.65943	7571.5875
2352.49267	7565.1875
2355.32411	7579.6875
2358.15376	7562.3875
2360.98161	7580.8875
2363.80768	7554.7875
2366.63195	7547.7875
2369.45444	7544.3875
2372.27514	7541.4875
2375.09405	7493.6875
2377.91118	7506.6875
2380.72652	7468.4875
2383.54009	7488.7875
2386.35187	7460.3875
2389.16188	7437.7875
2391.97011	7418.2875
2394.77657	7409.5875
2397.58125	7405.9875
2400.38416	7399.9875
2403.18529	7368.1875
2405.98466	7363.9875
2408.78226	7356.3875
2411.57809	7323.4875
2414.37216	7336.3875
2417.16446	7306.9875
2419.955	7321.3875
2422.74378	7316.0875
2425.5308	7310.0875
2428.31606	7298.8875
2431.09956	7304.7875
2433.88131	7299.0875
2436.6613	7295.2875
2439.43954	7288.2875
2442.21603	7265.7875
2444.99077	7282.1875
2447.76377	7277.9875
2450.53501	7282.7875
2453.30451	7263.2875
2456.07226	7274.1875
2458.83827	7287.8875
2461.60254	7280.2875
2464.36507	7281.3875
2467.12586	7294.8875
2469.88492	7274.5875
2472.64224	7265.6875
2475.39782	7288.7875
2478.15167	7295.7875
2480.90379	7292.2875
2483.65417	7284.6875
2486.40283	7287.2875
2489.14976	7264.6875
2491.89497	7270.1875
2494.63845	7306.0875
2497.3802	7296.3875
2500.12024	7280.5875
2502.85855	7302.0875
2505.59514	7272.6875
2508.33002	7264.7875
2511.06318	7280.1875
2513.79462	7248.3875
2516.52435	7237.3875
2519.25237	7238.8875
2521.97867	7228.9875
2524.70327	7211.9875
2527.42616	7213.0875
2530.14734	7208.5875
2532.86681	7203.0875
2535.58458	7232.6875
2538.30065	7191.3875
2541.01501	7192.9875
2543.72768	7183.4875
2546.43864	7171.2875
2549.14791	7169.3875
2551.85548	7167.8875
2554.56136	7166.0875
2557.26554	7177.7875
2559.96803	7169.0875
2562.66883	7168.4875
2565.36794	7143.4875
2568.06536	7153.7875
2570.7611	7153.7875
2573.45514	7151.7875
2576.14751	7147.3875
2578.83819	7147.7875
2581.52719	7130.2875
2584.21451	7140.1875
2586.90015	7157.9875
2589.58411	7122.3875
2592.2664	7110.7875
2594.94701	7109.3875
2597.62594	7109.9875
2600.30321	7096.5875
2602.9788	7112.1875
2605.65273	7102.1875
2608.32498	7087.5875
2610.99557	7106.1875
2613.66449	7098.1875
2616.33175	7050.7875
2618.99734	7091.5875
2621.66128	7080.6875
2624.32355	7074.8875
2626.98416	7077.7875
2629.64311	7056.8875
2632.30041	7080.9875
2634.95605	7058.3875
2637.61004	7060.5875
2640.26238	7049.8875
2642.91306	7052.2875
2645.56209	7029.9875
2648.20948	7042.9875
2650.85521	7032.5875
2653.4993	7036.3875
2656.14175	7040.9875
2658.78255	7037.5875
2661.42171	7046.9875
2664.05923	7063.5875
2666.6951	7048.8875
2669.32934	7061.9875
2671.96194	7062.6875
2674.59291	7078.7875
2677.22224	7064.0875
2679.84993	7066.9875
2682.476	7053.4875
2685.10043	7036.5875
2687.72324	7049.2875
2690.34441	7063.0875
2692.96396	7024.2875
2695.58188	7056.3875
2698.19818	7045.2875
2700.81285	7040.3875
2703.4259	7083.9875
2706.03733	7120.7875
2708.64714	7083.9875
2711.25533	7083.1875
2713.86191	7071.8875
2716.46687	7082.8875
2719.07021	7083.2875
2721.67194	7079.1875
2724.27206	7076.7875
2726.87057	7075.3875
2729.46747	7088.5875
2732.06276	7107.7875
2734.65644	7078.1875
2737.24852	7104.5875
2739.83899	7107.3875
2742.42786	7093.2875
2745.01513	7068.7875
2747.60079	7076.5875
2750.18486	7081.7875
2752.76733	7074.2875
2755.3482	7066.1875
2757.92747	7061.7875
2760.50515	7057.8875
2763.08123	7047.6875
2765.65573	7053.7875
2768.22863	7076.4875
2770.79994	7070.5875
2773.36967	7056.6875
2775.9378	7064.0875
2778.50435	7072.8875
2781.06932	7056.8875
2783.6327	7066.4875
2786.1945	7052.3875
2788.75471	7038.8875
2791.31335	7040.5875
2793.87041	7027.6875
2796.42589	7019.8875
2798.97979	7003.6875
2801.53212	6973.2875
2804.08288	6992.6875
2806.63206	6988.2875
2809.17967	6963.3875
2811.72571	6951.9875
2814.27018	6956.7875
2816.81308	6934.8875
2819.35442	6945.2875
2821.89419	6938.2875
2824.43239	6938.1875
2826.96904	6934.8875
2829.50412	6933.4875
2832.03763	6909.3875
2834.56959	6924.9875
2837.1	6936.7875
2839.62884	6906.5875
2842.15613	6925.6875
2844.68186	6940.3875
2847.20604	6963.8875
2849.72867	6957.0875
2852.24974	6953.3875
2854.76927	6966.1875
2857.28724	6978.3875
2859.80367	6943.2875
2862.31855	6936.7875
2864.83189	6913.9875
2867.34368	6935.0875
2869.85393	6918.1875
2872.36264	6894.3875
2874.8698	6900.9875
2877.37543	6908.8875
2879.87952	6918.3875
2882.38207	6923.6875
2884.88308	6900.1875
2887.38256	6917.1875
2889.88051	6918.8875
2892.37692	6950.3875
2894.8718	6934.1875
2897.36515	6931.9875
2899.85698	6958.2875
2902.34727	6964.9875
2904.83604	6953.9875
2907.32328	6984.1875
2909.809	7002.2875
2912.29319	6981.9875
2914.77587	6997.9875
2917.25702	6998.3875
2919.73665	6976.2875
2922.21476	7004.3875
2924.69136	6971.8875
2927.16644	6996.5875
2929.64	6997.7875
2932.11205	6988.7875
2934.58258	6964.1875
2937.05161	6981.2875
2939.51912	6995.5875
2941.98513	6970.1875
2944.44962	6930.8875
2946.91261	6929.7875
2949.37409	6938.6875
2951.83407	6926.0875
2954.29254	6907.3875
2956.74951	6908.4875
2959.20498	6881.3875
2961.65895	6875.1875
2964.11142	6859.2875
2966.56239	6827.0875
2969.01186	6818.1875
2971.45984	6796.8875
2973.90632	6777.6875
2976.35131	6753.4875
2978.7948	6742.5875
2981.23681	6743.8875
2983.67732	6690.6875
2986.11635	6686.5875
2988.55388	6657.1875
2990.98993	6656.9875
2993.4245	6647.8875
2995.85758	6626.3875
2998.28917	6613.9875
3000.71928	6614.5875
3003.14791	6608.6875
3005.57506	6605.5875
3008.00073	6582.2875
3010.42493	6581.9875
3012.84764	6561.3875
3015.26888	6561.7875
3017.68865	6541.4875
3020.10694	6519.3875
3022.52376	6514.5875
3024.9391	6512.9875
3027.35298	6492.1875
3029.76539	6491.0875
3032.17632	6499.5875
3034.5858	6450.4875
3036.9938	6470.4875
3039.40034	6458.2875
3041.80542	6449.9875
3044.20903	6440.1875
3046.61118	6417.8875
3049.01187	6414.0875
3051.4111	6419.4875
3053.80888	6384.0875
3056.20519	6385.2875
3058.60005	6385.9875
3060.99345	6357.2875
3063.3854	6360.7875
3065.7759	6335.6875
3068.16494	6330.8875
3070.55254	6304.2875
3072.93868	6297.7875
3075.32338	6295.7875
3077.70662	6281.4875
3080.08842	6244.5875
3082.46878	6267.0875
3084.84769	6240.7875
3087.22515	6239.8875
3089.60118	6248.3875
3091.97576	6230.9875
3094.3489	6232.9875
3096.72061	6245.8875
3099.09087	6209.0875
3101.4597	6205.7875
3103.82709	6222.7875
3106.19305	6216.6875
3108.55757	6213.6875
3110.92066	6174.6875
3113.28232	6178.5875
3115.64255	6164.5875
3118.00134	6157.9875
3120.35871	6136.6875
3122.71466	6122.7875
3125.06917	6129.0875
3127.42226	6128.1875
3129.77393	6110.0875
3132.12417	6121.3875
3134.47299	6106.0875
3136.82039	6117.7875
3139.16636	6113.6875
3141.51092	6105.6875
3143.85406	6109.1875
3146.19579	6116.6875
3148.53609	6112.5875
3150.87499	6113.8875
3153.21246	6124.5875
3155.54853	6128.0875
3157.88318	6123.2875
3160.21642	6123.8875
3162.54826	6124.7875
3164.87868	6100.7875
3167.2077	6119.1875
3169.5353	6108.2875
3171.86151	6109.6875
3174.18631	6107.6875
3176.5097	6087.8875
3178.83169	6106.9875
3181.15228	6092.8875
3183.47147	6083.0875
3185.78926	6080.8875
3188.10565	6072.0875
3190.42065	6087.4875
3192.73424	6077.0875
3195.04645	6074.7875
3197.35725	6082.2875
3199.66667	6067.5875
3201.97469	6080.2875
3204.28132	6069.5875
3206.58656	6094.3875
3208.8904	6084.9875
3211.19287	6084.1875
3213.49394	6086.4875
3215.79363	6078.5875
3218.09193	6087.3875
3220.38884	6095.3875
3222.68438	6104.4875
3224.97853	6073.7875
3227.2713	6088.4875
3229.56269	6068.7875
3231.8527	6078.4875
3234.14133	6055.7875
3236.42858	6047.9875
3238.71446	6052.5875
3240.99896	6049.5875
3243.28209	6032.5875
3245.56384	6039.2875
3247.84423	6065.6875
3250.12324	6028.2875
3252.40088	6017.2875
3254.67715	6019.3875
3256.95205	5997.2875
3259.22558	6004.8875
3261.49775	5985.6875
3263.76855	5970.4875
3266.03799	5971.6875
3268.30606	5947.2875
3270.57277	5928.8875
3272.83812	5905.8875
3275.10211	5925.9875
3277.36474	5918.2875
3279.62601	5937.7875
3281.88593	5908.0875
3284.14448	5950.7875
3286.40168	5933.9875
3288.65753	5911.9875
3290.91202	5914.7875
3293.16516	5898.8875
3295.41695	5886.5875
3297.66738	5860.9875
3299.91647	5824.7875
3302.16421	5770.1875
3304.4106	5752.5875
3306.65564	5727.8875
3308.89933	5698.0875
3311.14169	5692.3875
3313.38269	5632.6875
3315.62236	5612.0875
3317.86068	5555.5875
3320.09766	5509.1875
3322.3333	5460.5875
3324.5676	5471.2875
3326.80056	5377.0875
3329.03219	5350.0875
3331.26248	1.6875
3333.49143	0.9875
3335.71905	-0.3125
