Data from AgNPs_FTO_APTES_UA_2um_CRN_0.1mM_R6G_10uM_NaF_0.1M_Addition_RamanShift__32__12-52-19-072.txt Node

Date: Tue Dec 21 12:52:19 GMT 2021
User: TCL
Spectrometer: QEP01345
Trigger mode: 4
Integration Time (sec): 7.000000E0
Scans to average: 10
Electric dark correction enabled: true
Nonlinearity correction enabled: false
Boxcar width: 0
XAxis mode: Raman Shifts
Number of Pixels in Spectrum: 1044
>>>>>Begin Spectral Data<<<<<
46.04893	-0.2625
50.45542	-0.8625
54.85868	0.0375
59.25871	1.6375
63.6555	34.5375
68.04907	41.8375
72.43941	42.4375
76.82654	43.6375
81.21044	50.9375
85.59113	53.5375
89.96862	53.1375
94.34289	53.6375
98.71396	51.7375
103.08183	55.7375
107.4465	60.2375
111.80798	59.6375
116.16626	59.9375
120.52136	61.2375
124.87327	59.9375
129.222	60.0375
133.56755	65.6375
137.90993	69.7375
142.24913	71.7375
146.58517	79.0375
150.91804	91.5375
155.24774	107.0375
159.57429	126.9375
163.89768	157.6375
168.21792	204.1375
172.53501	270.9375
176.84895	370.3375
181.15975	522.6375
185.46741	719.8375
189.77193	987.9375
194.07331	1321.7375
198.37157	1709.0375
202.6667	2113.4375
206.9587	2520.4375
211.24758	2925.7375
215.53334	3372.0375
219.81599	3843.3375
224.09553	4405.4375
228.37195	5010.9375
232.64527	5677.6375
236.91549	6328.5375
241.18261	6893.8375
245.44663	7379.5375
249.70755	7734.4375
253.96539	8020.1375
258.22014	8232.0375
262.4718	8427.1375
266.72039	8534.2375
270.96589	8608.0375
275.20832	8561.4375
279.44768	8473.2375
283.68397	8338.1375
287.91719	8282.6375
292.14735	8306.2375
296.37445	8529.1375
300.59849	8927.1375
304.81948	9426.8375
309.03742	9875.9375
313.25231	9923.1375
317.46415	9414.8375
321.67296	8517.8375
325.87872	7740.1375
330.08145	7341.4375
334.28114	7288.9375
338.47781	7435.2375
342.67145	7678.9375
346.86207	8103.0375
351.04966	8734.8375
355.23424	9449.1375
359.4158	10001.2375
363.59435	10213.3375
367.76989	10190.1375
371.94243	10073.7375
376.11196	9914.8375
380.27849	9761.1375
384.44203	9588.1375
388.60257	9384.8375
392.76012	9275.5375
396.91468	9380.0375
401.06626	9715.6375
405.21485	9966.4375
409.36047	9780.0375
413.50311	9147.5375
417.64277	8533.0375
421.77947	8166.7375
425.9132	8018.4375
430.04396	8006.6375
434.17176	8046.9375
438.2966	8195.0375
442.41849	8456.3375
446.53742	8843.1375
450.6534	9176.0375
454.76644	9368.0375
458.87653	9353.4375
462.98368	9172.3375
467.08789	8922.4375
471.18916	8657.0375
475.2875	8365.4375
479.38291	8136.2375
483.4754	7915.3375
487.56496	7760.4375
491.6516	7644.4375
495.73531	7607.8375
499.81612	7626.2375
503.89401	7718.1375
507.96899	7837.3375
512.04106	7961.1375
516.11023	8087.9375
520.1765	8169.1375
524.23987	8152.2375
528.30034	7990.1375
532.35792	7765.4375
536.41261	7504.4375
540.46441	7225.4375
544.51333	7055.2375
548.55936	7089.9375
552.60252	7313.6375
556.64279	7623.4375
560.6802	7814.2375
564.71473	8079.5375
568.7464	8669.2375
572.7752	9045.1375
576.80114	8793.0375
580.82422	8353.5375
584.84444	8184.6375
588.86181	8166.4375
592.87633	8274.5375
596.888	8386.2375
600.89682	8671.9375
604.9028	9779.2375
608.90594	13009.5375
612.90624	17546.3375
616.90371	17176.8375
620.89834	11122.2375
624.89015	7990.0375
628.87913	7376.9375
632.86528	7428.5375
636.84862	7591.8375
640.82913	7439.3375
644.80683	6974.6375
648.78172	6636.7375
652.75379	6633.5375
656.72306	7055.3375
660.68952	7587.7375
664.65319	7537.0375
668.61405	6992.2375
672.57211	6714.6375
676.52738	6687.9375
680.47986	6682.4375
684.42955	6580.4375
688.37646	6524.5375
692.32058	6529.3375
696.26192	6621.0375
700.20048	6770.6375
704.13626	6919.7375
708.06928	6902.2375
711.99952	6789.4375
715.927	6722.3375
719.85171	6734.3375
723.77365	6721.6375
727.69284	6611.4375
731.60928	6499.5375
735.52295	6510.3375
739.43388	6531.2375
743.34206	6578.1375
747.24749	6618.6375
751.15017	6701.3375
755.05012	6918.7375
758.94733	7396.4375
762.8418	8540.7375
766.73354	10486.9375
770.62254	12526.6375
774.50882	13576.1375
778.39237	13091.2375
782.27321	11070.1375
786.15132	8849.7375
790.02671	7468.0375
793.89938	6914.8375
797.76935	6652.3375
801.6366	6537.7375
805.50115	6476.1375
809.36299	6459.5375
813.22213	6398.0375
817.07857	6358.3375
820.93231	6339.6375
824.78336	6346.4375
828.63172	6433.2375
832.47738	6431.8375
836.32036	6408.9375
840.16066	6331.7375
843.99827	6270.3375
847.8332	6217.7375
851.66546	6201.6375
855.49504	6210.9375
859.32195	6176.7375
863.1462	6118.1375
866.96777	6074.8375
870.78668	6085.6375
874.60293	6069.0375
878.41652	6107.6375
882.22745	6177.0375
886.03573	6199.5375
889.84136	6196.2375
893.64433	6147.3375
897.44466	6099.6375
901.24235	6098.4375
905.0374	6051.2375
908.8298	5999.9375
912.61957	5947.3375
916.40671	6014.5375
920.19121	6091.7375
923.97308	6208.1375
927.75233	6329.8375
931.52895	6406.7375
935.30295	6291.1375
939.07433	6023.7375
942.84309	5739.0375
946.60924	5604.0375
950.37278	5513.0375
954.13371	5468.4375
957.89203	5421.6375
961.64774	5406.2375
965.40086	5394.5375
969.15137	5354.5375
972.89929	5343.3375
976.64461	5318.6375
980.38733	5315.2375
984.12747	5349.9375
987.86502	5376.6375
991.59999	5405.1375
995.33237	5498.2375
999.06217	5672.1375
1002.78939	5896.9375
1006.51404	6130.6375
1010.23611	6357.2375
1013.95561	6474.7375
1017.67255	6402.9375
1021.38692	6207.6375
1025.09872	6002.6375
1028.80796	5878.0375
1032.51465	5885.4375
1036.21877	6005.0375
1039.92035	6130.0375
1043.61937	6221.6375
1047.31584	6225.0375
1051.00976	6164.1375
1054.70114	6108.7375
1058.38998	6069.6375
1062.07627	6089.2375
1065.76003	6134.1375
1069.44126	6231.5375
1073.11995	6369.7375
1076.79611	6533.6375
1080.46974	6677.4375
1084.14085	6922.8375
1087.80943	7213.7375
1091.47549	7340.1375
1095.13903	7151.6375
1098.80005	6793.1375
1102.45857	6432.1375
1106.11456	6274.7375
1109.76805	6287.0375
1113.41903	6466.4375
1117.06751	6807.5375
1120.71348	7281.0375
1124.35696	7815.9375
1127.99793	8252.8375
1131.63641	8186.7375
1135.2724	7631.7375
1138.90589	7087.7375
1142.5369	6770.7375
1146.16542	6610.7375
1149.79145	6505.8375
1153.415	6511.1375
1157.03607	6609.4375
1160.65467	6794.6375
1164.27079	7157.5375
1167.88443	7733.4375
1171.49561	8688.3375
1175.10432	10243.0375
1178.71056	12267.1375
1182.31434	13728.1375
1185.91565	14029.1375
1189.51451	13537.6375
1193.11091	12602.2375
1196.70485	11479.4375
1200.29634	10532.8375
1203.88538	9774.2375
1207.47197	8915.3375
1211.05612	8196.2375
1214.63782	7824.3375
1218.21708	7692.4375
1221.79391	7708.9375
1225.36829	7738.6375
1228.94024	7718.3375
1232.50976	7656.6375
1236.07685	7597.8375
1239.6415	7621.3375
1243.20374	7666.5375
1246.76355	7691.5375
1250.32093	7773.1375
1253.8759	7988.3375
1257.42845	8360.8375
1260.97859	8763.4375
1264.52631	9210.3375
1268.07163	9588.0375
1271.61453	9933.0375
1275.15503	10148.1375
1278.69312	10259.6375
1282.22882	10311.1375
1285.76211	10663.4375
1289.29301	11181.7375
1292.82151	11754.2375
1296.34761	12349.2375
1299.87133	13162.3375
1303.39266	14437.7375
1306.9116	16396.2375
1310.42815	18734.3375
1313.94233	20194.2375
1317.45412	19887.9375
1320.96354	18403.8375
1324.47058	16661.3375
1327.97525	15167.6375
1331.47754	14211.3375
1334.97747	13836.7375
1338.47502	13818.8375
1341.97022	14082.5375
1345.46305	14520.6375
1348.95352	15289.6375
1352.44163	16589.6375
1355.92738	18536.9375
1359.41078	21503.4375
1362.89183	24326.5375
1366.37053	23883.2375
1369.84688	20221.2375
1373.32088	16392.1375
1376.79254	13766.4375
1380.26186	12366.0375
1383.72883	11622.9375
1387.19347	11105.2375
1390.65578	10561.2375
1394.11575	10178.1375
1397.57339	10131.7375
1401.0287	10275.3375
1404.48168	10503.9375
1407.93234	10659.1375
1411.38068	10697.0375
1414.82669	10539.8375
1418.27039	10178.5375
1421.71177	9753.5375
1425.15083	9388.3375
1428.58758	9179.9375
1432.02203	9238.0375
1435.45416	9389.7375
1438.88399	9517.1375
1442.31151	9541.4375
1445.73673	9612.1375
1449.15965	9716.1375
1452.58027	9712.6375
1455.9986	9599.7375
1459.41463	9585.3375
1462.82837	9747.4375
1466.23982	10029.4375
1469.64898	10345.2375
1473.05586	10575.2375
1476.46045	10714.7375
1479.86276	10920.4375
1483.26279	11132.3375
1486.66054	11420.7375
1490.05602	11812.5375
1493.44922	12354.3375
1496.84016	13119.8375
1500.22882	14463.6375
1503.61521	16370.7375
1506.99934	18599.6375
1510.38121	20697.3375
1513.76081	21821.4375
1517.13816	20806.8375
1520.51324	17972.0375
1523.88607	15019.5375
1527.25665	13083.2375
1530.62498	12015.2375
1533.99105	11467.3375
1537.35488	11134.5375
1540.71647	10891.2375
1544.07581	10733.1375
1547.4329	10561.8375
1550.78776	10393.6375
1554.14038	10222.2375
1557.49077	10193.7375
1560.83892	10298.0375
1564.18484	10671.2375
1567.52853	11149.5375
1570.86999	11548.2375
1574.20922	11856.6375
1577.54624	11795.6375
1580.88103	11153.9375
1584.2136	10218.7375
1587.54395	9769.7375
1590.87208	9986.1375
1594.19801	10869.0375
1597.52172	12026.9375
1600.84321	12736.7375
1604.16251	12324.1375
1607.47959	11223.9375
1610.79447	9881.3375
1614.10715	8641.5375
1617.41763	7712.4375
1620.7259	7189.0375
1624.03199	6905.4375
1627.33587	6904.6375
1630.63757	7093.3375
1633.93707	7575.1375
1637.23439	8425.6375
1640.52951	9732.3375
1643.82246	11587.6375
1647.11321	13738.0375
1650.40179	15251.6375
1653.68819	14919.5375
1656.97241	12639.9375
1660.25446	9947.0375
1663.53433	7976.8375
1666.81203	6762.8375
1670.08756	6100.0375
1673.36092	5673.1375
1676.63211	5432.1375
1679.90115	5244.3375
1683.16801	5136.9375
1686.43272	5019.4375
1689.69527	4960.6375
1692.95567	4906.8375
1696.2139	4891.9375
1699.46999	4896.1375
1702.72392	4849.8375
1705.97571	4828.0375
1709.22535	4795.0375
1712.47284	4768.1375
1715.71819	4779.4375
1718.96139	4781.5375
1722.20246	4767.4375
1725.44139	4735.7375
1728.67818	4697.2375
1731.91284	4630.0375
1735.14537	4575.4375
1738.37576	4520.9375
1741.60403	4488.5375
1744.83017	4478.3375
1748.05418	4473.6375
1751.27607	4448.1375
1754.49584	4452.9375
1757.71349	4452.7375
1760.92903	4428.0375
1764.14244	4392.8375
1767.35375	4390.9375
1770.56294	4362.9375
1773.77002	4316.5375
1776.97499	4281.5375
1780.17785	4240.8375
1783.37861	4215.5375
1786.57727	4189.0375
1789.77382	4189.7375
1792.96828	4154.3375
1796.16064	4159.7375
1799.3509	4145.6375
1802.53907	4119.4375
1805.72514	4097.3375
1808.90913	4091.2375
1812.09102	4071.5375
1815.27083	4058.3375
1818.44856	4032.8375
1821.6242	4025.7375
1824.79776	4032.3375
1827.96924	4005.3375
1831.13864	3995.9375
1834.30597	3980.6375
1837.47122	3979.1375
1840.6344	3972.1375
1843.7955	3978.8375
1846.95454	3971.0375
1850.11151	3952.2375
1853.26642	3962.4375
1856.41926	3948.7375
1859.57004	3967.6375
1862.71876	3934.7375
1865.86542	3949.2375
1869.01003	3963.7375
1872.15258	3960.3375
1875.29308	3953.9375
1878.43152	3962.5375
1881.56792	3949.4375
1884.70227	3945.1375
1887.83457	3956.7375
1890.96482	3947.7375
1894.09304	3941.7375
1897.21921	3963.3375
1900.34335	3951.1375
1903.46544	3963.3375
1906.58551	3954.1375
1909.70353	3948.0375
1912.81953	3945.6375
1915.93349	3953.1375
1919.04543	3931.4375
1922.15534	3926.5375
1925.26322	3923.8375
1928.36908	3908.0375
1931.47292	3885.5375
1934.57473	3865.8375
1937.67453	3859.5375
1940.77232	3821.9375
1943.86808	3801.7375
1946.96184	3787.4375
1950.05358	3762.8375
1953.14331	3749.2375
1956.23103	3718.1375
1959.31675	3728.9375
1962.40046	3703.6375
1965.48217	3674.8375
1968.56188	3664.9375
1971.63959	3670.6375
1974.7153	3669.5375
1977.78901	3632.8375
1980.86073	3628.0375
1983.93046	3608.8375
1986.99819	3590.1375
1990.06394	3573.9375
1993.1277	3565.9375
1996.18947	3533.5375
1999.24925	3534.7375
2002.30706	3523.2375
2005.36288	3498.7375
2008.41672	3490.4375
2011.46859	3488.3375
2014.51848	3472.2375
2017.56639	3453.3375
2020.61233	3443.6375
2023.6563	3439.4375
2026.6983	3416.8375
2029.73833	3420.9375
2032.7764	3409.6375
2035.8125	3393.3375
2038.84664	3384.6375
2041.87881	3387.7375
2044.90903	3380.6375
2047.93729	3374.8375
2050.96359	3361.1375
2053.98794	3361.9375
2057.01034	3345.0375
2060.03078	3343.6375
2063.04927	3325.3375
2066.06582	3319.1375
2069.08042	3317.5375
2072.09307	3311.8375
2075.10378	3311.7375
2078.11255	3306.1375
2081.11938	3309.2375
2084.12426	3307.2375
2087.12722	3309.4375
2090.12824	3293.4375
2093.12732	3292.9375
2096.12447	3284.2375
2099.11969	3285.3375
2102.11299	3282.3375
2105.10435	3294.1375
2108.09379	3289.5375
2111.08131	3293.9375
2114.0669	3277.7375
2117.05057	3272.7375
2120.03233	3284.1375
2123.01216	3288.3375
2125.99008	3296.9375
2128.96609	3288.1375
2131.94018	3286.0375
2134.91236	3287.6375
2137.88263	3297.5375
2140.851	3281.1375
2143.81746	3278.6375
2146.78201	3275.6375
2149.74466	3268.9375
2152.7054	3270.2375
2155.66425	3260.8375
2158.6212	3242.5375
2161.57625	3248.6375
2164.52941	3261.5375
2167.48067	3233.5375
2170.43004	3248.9375
2173.37752	3228.8375
2176.32311	3232.7375
2179.26681	3241.7375
2182.20863	3236.3375
2185.14856	3226.1375
2188.08661	3235.6375
2191.02278	3222.0375
2193.95707	3214.5375
2196.88948	3223.1375
2199.82001	3209.4375
2202.74867	3205.9375
2205.67545	3200.0375
2208.60037	3199.1375
2211.52341	3182.4375
2214.44458	3178.9375
2217.36388	3162.7375
2220.28132	3169.5375
2223.1969	3151.5375
2226.11061	3153.0375
2229.02246	3139.7375
2231.93245	3132.7375
2234.84058	3130.7375
2237.74686	3115.6375
2240.65128	3107.0375
2243.55385	3109.5375
2246.45456	3110.9375
2249.35343	3102.7375
2252.25044	3094.0375
2255.14561	3091.7375
2258.03893	3098.8375
2260.93041	3117.4375
2263.82004	3088.5375
2266.70783	3084.2375
2269.59378	3072.4375
2272.4779	3059.0375
2275.36017	3058.9375
2278.24061	3043.2375
2281.11922	3039.2375
2283.996	3042.7375
2286.87094	3016.8375
2289.74405	3002.5375
2292.61534	2992.2375
2295.4848	2993.0375
2298.35243	2991.9375
2301.21824	2982.9375
2304.08223	2970.0375
2306.94439	2967.8375
2309.80474	2966.0375
2312.66327	2962.6375
2315.51999	2974.2375
2318.37489	2966.1375
2321.22797	2957.4375
2324.07925	2949.9375
2326.92871	2943.0375
2329.77637	2961.0375
2332.62222	2934.0375
2335.46626	2947.5375
2338.3085	2938.1375
2341.14893	2934.1375
2343.98756	2930.1375
2346.8244	2940.2375
2349.65943	2945.6375
2352.49267	2942.2375
2355.32411	2941.8375
2358.15376	2972.4375
2360.98161	2972.0375
2363.80768	2976.4375
2366.63195	2985.9375
2369.45444	2999.1375
2372.27514	2985.7375
2375.09405	2976.4375
2377.91118	2968.4375
2380.72652	2942.6375
2383.54009	2924.5375
2386.35187	2917.1375
2389.16188	2883.5375
2391.97011	2880.3375
2394.77657	2884.1375
2397.58125	2861.9375
2400.38416	2858.4375
2403.18529	2847.4375
2405.98466	2838.0375
2408.78226	2827.6375
2411.57809	2818.6375
2414.37216	2819.0375
2417.16446	2812.5375
2419.955	2813.4375
2422.74378	2810.7375
2425.5308	2800.5375
2428.31606	2808.7375
2431.09956	2796.3375
2433.88131	2808.2375
2436.6613	2798.7375
2439.43954	2795.8375
2442.21603	2782.4375
2444.99077	2802.5375
2447.76377	2817.8375
2450.53501	2802.0375
2453.30451	2813.4375
2456.07226	2822.2375
2458.83827	2814.3375
2461.60254	2807.4375
2464.36507	2803.4375
2467.12586	2805.0375
2469.88492	2789.5375
2472.64224	2803.8375
2475.39782	2827.8375
2478.15167	2838.8375
2480.90379	2817.1375
2483.65417	2830.1375
2486.40283	2839.9375
2489.14976	2843.8375
2491.89497	2851.4375
2494.63845	2884.5375
2497.3802	2872.4375
2500.12024	2871.5375
2502.85855	2841.7375
2505.59514	2833.4375
2508.33002	2813.8375
2511.06318	2795.2375
2513.79462	2782.6375
2516.52435	2777.5375
2519.25237	2750.3375
2521.97867	2744.7375
2524.70327	2741.7375
2527.42616	2734.7375
2530.14734	2722.3375
2532.86681	2725.4375
2535.58458	2713.7375
2538.30065	2717.4375
2541.01501	2718.7375
2543.72768	2711.1375
2546.43864	2733.2375
2549.14791	2714.8375
2551.85548	2725.5375
2554.56136	2720.2375
2557.26554	2708.8375
2559.96803	2717.4375
2562.66883	2716.0375
2565.36794	2708.1375
2568.06536	2698.9375
2570.7611	2690.6375
2573.45514	2697.9375
2576.14751	2687.8375
2578.83819	2694.6375
2581.52719	2705.9375
2584.21451	2686.4375
2586.90015	2674.5375
2589.58411	2673.1375
2592.2664	2661.0375
2594.94701	2671.4375
2597.62594	2663.9375
2600.30321	2659.0375
2602.9788	2662.3375
2605.65273	2658.5375
2608.32498	2664.2375
2610.99557	2659.9375
2613.66449	2654.3375
2616.33175	2664.9375
2618.99734	2667.9375
2621.66128	2653.9375
2624.32355	2660.3375
2626.98416	2661.3375
2629.64311	2650.5375
2632.30041	2642.7375
2634.95605	2640.0375
2637.61004	2637.2375
2640.26238	2629.2375
2642.91306	2620.8375
2645.56209	2626.5375
2648.20948	2625.9375
2650.85521	2627.3375
2653.4993	2614.8375
2656.14175	2613.7375
2658.78255	2635.1375
2661.42171	2634.9375
2664.05923	2636.0375
2666.6951	2642.8375
2669.32934	2647.0375
2671.96194	2639.2375
2674.59291	2648.4375
2677.22224	2652.2375
2679.84993	2653.4375
2682.476	2650.7375
2685.10043	2655.0375
2687.72324	2637.4375
2690.34441	2650.6375
2692.96396	2653.4375
2695.58188	2653.6375
2698.19818	2653.1375
2700.81285	2657.2375
2703.4259	2688.6375
2706.03733	2769.8375
2708.64714	2726.9375
2711.25533	2704.4375
2713.86191	2677.1375
2716.46687	2696.7375
2719.07021	2692.4375
2721.67194	2692.7375
2724.27206	2701.5375
2726.87057	2694.3375
2729.46747	2680.9375
2732.06276	2691.1375
2734.65644	2686.5375
2737.24852	2680.1375
2739.83899	2654.2375
2742.42786	2659.4375
2745.01513	2660.5375
2747.60079	2658.3375
2750.18486	2651.5375
2752.76733	2637.4375
2755.3482	2641.7375
2757.92747	2639.7375
2760.50515	2626.1375
2763.08123	2626.2375
2765.65573	2633.2375
2768.22863	2629.7375
2770.79994	2631.9375
2773.36967	2642.0375
2775.9378	2638.0375
2778.50435	2643.5375
2781.06932	2650.5375
2783.6327	2645.3375
2786.1945	2656.8375
2788.75471	2660.5375
2791.31335	2664.7375
2793.87041	2654.2375
2796.42589	2659.1375
2798.97979	2650.8375
2801.53212	2659.1375
2804.08288	2675.1375
2806.63206	2683.3375
2809.17967	2688.3375
2811.72571	2682.8375
2814.27018	2697.2375
2816.81308	2708.3375
2819.35442	2716.0375
2821.89419	2717.2375
2824.43239	2735.8375
2826.96904	2724.5375
2829.50412	2738.8375
2832.03763	2736.3375
2834.56959	2751.0375
2837.1	2745.7375
2839.62884	2768.7375
2842.15613	2805.7375
2844.68186	2881.8375
2847.20604	2933.5375
2849.72867	2987.1375
2852.24974	3000.1375
2854.76927	3005.5375
2857.28724	3019.5375
2859.80367	2997.7375
2862.31855	2973.3375
2864.83189	2963.5375
2867.34368	2942.1375
2869.85393	2935.4375
2872.36264	2926.2375
2874.8698	2919.6375
2877.37543	2910.5375
2879.87952	2907.8375
2882.38207	2914.0375
2884.88308	2903.3375
2887.38256	2892.1375
2889.88051	2893.3375
2892.37692	2906.7375
2894.8718	2894.0375
2897.36515	2926.1375
2899.85698	2915.3375
2902.34727	2913.7375
2904.83604	2910.5375
2907.32328	2920.3375
2909.809	2914.2375
2912.29319	2901.6375
2914.77587	2901.8375
2917.25702	2906.1375
2919.73665	2903.0375
2922.21476	2888.0375
2924.69136	2894.5375
2927.16644	2889.2375
2929.64	2878.3375
2932.11205	2867.2375
2934.58258	2844.5375
2937.05161	2843.1375
2939.51912	2819.3375
2941.98513	2786.9375
2944.44962	2738.0375
2946.91261	2715.4375
2949.37409	2679.1375
2951.83407	2652.8375
2954.29254	2649.1375
2956.74951	2619.9375
2959.20498	2609.1375
2961.65895	2589.7375
2964.11142	2581.1375
2966.56239	2564.7375
2969.01186	2545.9375
2971.45984	2537.9375
2973.90632	2527.2375
2976.35131	2518.5375
2978.7948	2497.4375
2981.23681	2491.6375
2983.67732	2477.1375
2986.11635	2463.3375
2988.55388	2449.7375
2990.98993	2441.3375
2993.4245	2424.9375
2995.85758	2435.4375
2998.28917	2431.9375
3000.71928	2422.0375
3003.14791	2415.8375
3005.57506	2412.2375
3008.00073	2405.9375
3010.42493	2408.5375
3012.84764	2401.8375
3015.26888	2395.8375
3017.68865	2384.1375
3020.10694	2376.6375
3022.52376	2371.5375
3024.9391	2379.3375
3027.35298	2375.3375
3029.76539	2374.4375
3032.17632	2359.4375
3034.5858	2353.4375
3036.9938	2335.6375
3039.40034	2350.1375
3041.80542	2340.5375
3044.20903	2329.4375
3046.61118	2332.0375
3049.01187	2322.0375
3051.4111	2309.4375
3053.80888	2319.8375
3056.20519	2307.2375
3058.60005	2315.2375
3060.99345	2306.7375
3063.3854	2311.1375
3065.7759	2293.5375
3068.16494	2296.7375
3070.55254	2288.4375
3072.93868	2279.2375
3075.32338	2272.4375
3077.70662	2266.9375
3080.08842	2259.6375
3082.46878	2249.8375
3084.84769	2224.3375
3087.22515	2237.0375
3089.60118	2230.0375
3091.97576	2228.4375
3094.3489	2231.4375
3096.72061	2223.6375
3099.09087	2216.7375
3101.4597	2214.1375
3103.82709	2205.0375
3106.19305	2197.3375
3108.55757	2202.2375
3110.92066	2199.6375
3113.28232	2199.9375
3115.64255	2178.8375
3118.00134	2191.0375
3120.35871	2184.6375
3122.71466	2183.5375
3125.06917	2181.0375
3127.42226	2180.1375
3129.77393	2189.4375
3132.12417	2188.1375
3134.47299	2190.3375
3136.82039	2188.5375
3139.16636	2195.2375
3141.51092	2200.1375
3143.85406	2195.3375
3146.19579	2205.0375
3148.53609	2210.0375
3150.87499	2201.2375
3153.21246	2203.9375
3155.54853	2205.6375
3157.88318	2207.2375
3160.21642	2216.2375
3162.54826	2206.6375
3164.87868	2209.4375
3167.2077	2214.8375
3169.5353	2218.1375
3171.86151	2215.6375
3174.18631	2221.9375
3176.5097	2222.4375
3178.83169	2209.8375
3181.15228	2219.6375
3183.47147	2213.3375
3185.78926	2220.6375
3188.10565	2209.4375
3190.42065	2228.0375
3192.73424	2219.5375
3195.04645	2231.0375
3197.35725	2233.4375
3199.66667	2238.2375
3201.97469	2245.3375
3204.28132	2243.4375
3206.58656	2257.4375
3208.8904	2243.6375
3211.19287	2247.7375
3213.49394	2255.2375
3215.79363	2252.6375
3218.09193	2260.2375
3220.38884	2262.4375
3222.68438	2282.5375
3224.97853	2266.4375
3227.2713	2259.3375
3229.56269	2270.0375
3231.8527	2263.6375
3234.14133	2245.2375
3236.42858	2251.8375
3238.71446	2250.1375
3240.99896	2246.9375
3243.28209	2236.5375
3245.56384	2238.1375
3247.84423	2237.8375
3250.12324	2233.4375
3252.40088	2241.2375
3254.67715	2225.7375
3256.95205	2222.3375
3259.22558	2224.3375
3261.49775	2210.8375
3263.76855	2209.7375
3266.03799	2200.6375
3268.30606	2204.4375
3270.57277	2197.9375
3272.83812	2204.6375
3275.10211	2194.2375
3277.36474	2193.4375
3279.62601	2187.8375
3281.88593	2189.3375
3284.14448	2198.7375
3286.40168	2185.8375
3288.65753	2184.2375
3290.91202	2190.2375
3293.16516	2187.1375
3295.41695	2178.2375
3297.66738	2172.8375
3299.91647	2153.7375
3302.16421	2149.9375
3304.4106	2134.1375
3306.65564	2121.6375
3308.89933	2104.0375
3311.14169	2108.0375
3313.38269	2090.3375
3315.62236	2076.1375
3317.86068	2048.1375
3320.09766	2023.5375
3322.3333	2017.4375
3324.5676	2024.3375
3326.80056	1998.5375
3329.03219	1990.3375
3331.26248	-0.0625
3333.49143	-0.9625
3335.71905	0.1375
