Data from AgNPs_FTO_APTES_UA_50um_CRN_0.1mM_R6G_10uM_NaF_0.1M_Addition_RamanShift__31__15-39-09-263.txt Node

Date: Tue Dec 21 15:39:09 GMT 2021
User: TCL
Spectrometer: QEP01345
Trigger mode: 4
Integration Time (sec): 7.000000E0
Scans to average: 10
Electric dark correction enabled: true
Nonlinearity correction enabled: false
Boxcar width: 0
XAxis mode: Raman Shifts
Number of Pixels in Spectrum: 1044
>>>>>Begin Spectral Data<<<<<
46.04893	0.9
50.45542	-0.5
54.85868	-1.9
59.25871	1.6
63.6555	26.9
68.04907	34.9
72.43941	37.2
76.82654	38.5
81.21044	44.1
85.59113	45.4
89.96862	43.9
94.34289	46.2
98.71396	45.5
103.08183	50.9
107.4465	54.7
111.80798	52.8
116.16626	50.3
120.52136	47.2
124.87327	52.4
129.222	54.4
133.56755	54.7
137.90993	60.6
142.24913	58.3
146.58517	64.3
150.91804	69.6
155.24774	79.6
159.57429	94.3
163.89768	120.9
168.21792	151.5
172.53501	196
176.84895	266.3
181.15975	368
185.46741	503.9
189.77193	696.7
194.07331	931
198.37157	1196.7
202.6667	1484
206.9587	1748.4
211.24758	2047.3
215.53334	2335.3
219.81599	2655.9
224.09553	3026.7
228.37195	3449
232.64527	3904.6
236.91549	4354.9
241.18261	4775.2
245.44663	5137.2
249.70755	5420.1
253.96539	5649.6
258.22014	5801.8
262.4718	5935.7
266.72039	6021.6
270.96589	6041.6
275.20832	6038.4
279.44768	5962.9
283.68397	5866.8
287.91719	5778.5
292.14735	5807.1
296.37445	5961.3
300.59849	6177.3
304.81948	6515.2
309.03742	6750.3
313.25231	6741.6
317.46415	6418.8
321.67296	5862.2
325.87872	5394.7
330.08145	5153
334.28114	5118.2
338.47781	5216.1
342.67145	5382.8
346.86207	5643.1
351.04966	5999
355.23424	6453.9
359.4158	6799
363.59435	6969.3
367.76989	7037.1
371.94243	7002.8
376.11196	6957.1
380.27849	6883.3
384.44203	6813.4
388.60257	6689
392.76012	6597.5
396.91468	6636.6
401.06626	6818.7
405.21485	6991
409.36047	6848.7
413.50311	6432.4
417.64277	6031.7
421.77947	5771.2
425.9132	5674.8
430.04396	5644.4
434.17176	5637.6
438.2966	5702.1
442.41849	5831.7
446.53742	5987.8
450.6534	6125.1
454.76644	6221.1
458.87653	6234.1
462.98368	6164.1
467.08789	6077.5
471.18916	5929
475.2875	5809.7
479.38291	5697.4
483.4754	5645.5
487.56496	5580.6
491.6516	5552.3
495.73531	5519.7
499.81612	5544.7
503.89401	5608.6
507.96899	5668.5
512.04106	5761.4
516.11023	5892.1
520.1765	5978.7
524.23987	5988.2
528.30034	5853.8
532.35792	5705.2
536.41261	5563.9
540.46441	5386.8
544.51333	5292.8
548.55936	5301.3
552.60252	5418.9
556.64279	5587.8
560.6802	5673.3
564.71473	5767.2
568.7464	6042.8
572.7752	6243.5
576.80114	6055.1
580.82422	5801.7
584.84444	5664.4
588.86181	5650.2
592.87633	5666.1
596.888	5713.1
600.89682	5908.5
604.9028	6648.9
608.90594	8670.6
612.90624	11595.1
616.90371	11517.8
620.89834	7915.5
624.89015	6111.3
628.87913	5827.5
632.86528	5944.5
636.84862	6105.6
640.82913	6036.7
644.80683	5693.6
648.78172	5366
652.75379	5284.9
656.72306	5458.5
660.68952	5748.8
664.65319	5682.3
668.61405	5344.5
672.57211	5166
676.52738	5151.7
680.47986	5150.1
684.42955	5103.5
688.37646	5074.5
692.32058	5080.7
696.26192	5086
700.20048	5175.9
704.13626	5250.3
708.06928	5240.1
711.99952	5198.7
715.927	5162.9
719.85171	5186.3
723.77365	5193.4
727.69284	5152
731.60928	5079.7
735.52295	5063.9
739.43388	5063.9
743.34206	5089.2
747.24749	5110.6
751.15017	5145
755.05012	5248.5
758.94733	5533.6
762.8418	6183.5
766.73354	7354.2
770.62254	8659
774.50882	9375.6
778.39237	9080.3
782.27321	7786.2
786.15132	6412.9
790.02671	5616.7
793.89938	5271.9
797.76935	5139.7
801.6366	5115.6
805.50115	5131
809.36299	5166.3
813.22213	5202.3
817.07857	5159.4
820.93231	5110.1
824.78336	5057.2
828.63172	5012.6
832.47738	4993.7
836.32036	4969.4
840.16066	4919.4
843.99827	4865.4
847.8332	4838.6
851.66546	4839.8
855.49504	4836.7
859.32195	4838.9
863.1462	4809.7
866.96777	4795.3
870.78668	4823.2
874.60293	4850.9
878.41652	4891.4
882.22745	4990.1
886.03573	5027.4
889.84136	5071.1
893.64433	5000
897.44466	4954.5
901.24235	4890.8
905.0374	4831.7
908.8298	4771.9
912.61957	4743.9
916.40671	4731.6
920.19121	4775.6
923.97308	4787.8
927.75233	4835.7
931.52895	4891.7
935.30295	4849.1
939.07433	4701.5
942.84309	4544.8
946.60924	4472.4
950.37278	4423.4
954.13371	4409.2
957.89203	4389.2
961.64774	4375.1
965.40086	4379.5
969.15137	4349.7
972.89929	4335.5
976.64461	4311.2
980.38733	4314.9
984.12747	4323.7
987.86502	4339.3
991.59999	4366.1
995.33237	4391.7
999.06217	4474.8
1002.78939	4589.4
1006.51404	4706.8
1010.23611	4873.7
1013.95561	4951.8
1017.67255	4950.5
1021.38692	4886.3
1025.09872	4793.9
1028.80796	4698.9
1032.51465	4673.9
1036.21877	4700
1039.92035	4730.9
1043.61937	4777.5
1047.31584	4767.1
1051.00976	4775.7
1054.70114	4757.9
1058.38998	4751
1062.07627	4791.4
1065.76003	4838.6
1069.44126	4881.1
1073.11995	4923
1076.79611	4990.8
1080.46974	5068.5
1084.14085	5198.7
1087.80943	5347.1
1091.47549	5413.8
1095.13903	5311.7
1098.80005	5108.9
1102.45857	4942.9
1106.11456	4857.6
1109.76805	4896.9
1113.41903	5018.6
1117.06751	5246.7
1120.71348	5543.3
1124.35696	5877.1
1127.99793	6180.9
1131.63641	6215.1
1135.2724	5939.2
1138.90589	5646.5
1142.5369	5430.2
1146.16542	5267.4
1149.79145	5106.2
1153.415	5029
1157.03607	5017.5
1160.65467	5083.3
1164.27079	5250.8
1167.88443	5509.8
1171.49561	5980.5
1175.10432	6756.6
1178.71056	7842
1182.31434	8700.4
1185.91565	8874.3
1189.51451	8586.5
1193.11091	8017.4
1196.70485	7470.2
1200.29634	7081.2
1203.88538	6789.4
1207.47197	6376.2
1211.05612	5979.5
1214.63782	5682.8
1218.21708	5520.7
1221.79391	5436
1225.36829	5407.7
1228.94024	5394.1
1232.50976	5367.9
1236.07685	5372.7
1239.6415	5360.9
1243.20374	5389.2
1246.76355	5430.4
1250.32093	5498.8
1253.8759	5592.6
1257.42845	5756.1
1260.97859	5928.2
1264.52631	6069
1268.07163	6256.1
1271.61453	6386.7
1275.15503	6524.3
1278.69312	6569.2
1282.22882	6593.7
1285.76211	6702.4
1289.29301	6938.9
1292.82151	7193.9
1296.34761	7482.2
1299.87133	7926.5
1303.39266	8659
1306.9116	9777
1310.42815	11002
1313.94233	11663.8
1317.45412	11308.2
1320.96354	10405.5
1324.47058	9390.7
1327.97525	8645.8
1331.47754	8162.3
1334.97747	7972.3
1338.47502	8012.1
1341.97022	8281.9
1345.46305	8722.7
1348.95352	9343.5
1352.44163	10157.8
1355.92738	11351.8
1359.41078	13117.7
1362.89183	14718.3
1366.37053	14357
1369.84688	12142.7
1373.32088	9912.7
1376.79254	8428
1380.26186	7576.7
1383.72883	7166.8
1387.19347	6868.2
1390.65578	6571.8
1394.11575	6363.4
1397.57339	6264.6
1401.0287	6263.2
1404.48168	6289.1
1407.93234	6323.8
1411.38068	6350.8
1414.82669	6309.3
1418.27039	6201.1
1421.71177	6048.7
1425.15083	5889.6
1428.58758	5784.8
1432.02203	5816.4
1435.45416	5844.7
1438.88399	5844.6
1442.31151	5854.3
1445.73673	5864.8
1449.15965	5935.1
1452.58027	5911.5
1455.9986	5878.8
1459.41463	5880.8
1462.82837	5946.9
1466.23982	6076.6
1469.64898	6225.5
1473.05586	6323.3
1476.46045	6350.5
1479.86276	6469
1483.26279	6605.8
1486.66054	6843.2
1490.05602	7115
1493.44922	7520.5
1496.84016	8167.2
1500.22882	9148.6
1503.61521	10543.7
1506.99934	12088.7
1510.38121	13380.5
1513.76081	13825.4
1517.13816	13005.9
1520.51324	11199.6
1523.88607	9455.3
1527.25665	8286.7
1530.62498	7630.8
1533.99105	7258.3
1537.35488	7071.2
1540.71647	6918.7
1544.07581	6876.3
1547.4329	6864.8
1550.78776	6836.7
1554.14038	6823.6
1557.49077	6859.6
1560.83892	6996.4
1564.18484	7215.4
1567.52853	7514.9
1570.86999	7751
1574.20922	7903.3
1577.54624	7891.1
1580.88103	7447.8
1584.2136	6836
1587.54395	6453.7
1590.87208	6460
1594.19801	6747.3
1597.52172	7207.4
1600.84321	7479.9
1604.16251	7258.6
1607.47959	6839.7
1610.79447	6375.7
1614.10715	5893.6
1617.41763	5518.5
1620.7259	5266.2
1624.03199	5147.8
1627.33587	5116.5
1630.63757	5194.3
1633.93707	5409.3
1637.23439	5767.5
1640.52951	6311.2
1643.82246	7156
1647.11321	8253.1
1650.40179	9194.8
1653.68819	9183.7
1656.97241	8086.6
1660.25446	6738
1663.53433	5720.7
1666.81203	5121.4
1670.08756	4754
1673.36092	4523.7
1676.63211	4373.2
1679.90115	4272
1683.16801	4181.1
1686.43272	4115.1
1689.69527	4083.1
1692.95567	4048
1696.2139	4034.8
1699.46999	4033.8
1702.72392	3997.4
1705.97571	3963
1709.22535	3921.4
1712.47284	3900.2
1715.71819	3885
1718.96139	3880.1
1722.20246	3873.4
1725.44139	3854.3
1728.67818	3805.8
1731.91284	3779.7
1735.14537	3739.7
1738.37576	3733.4
1741.60403	3721.2
1744.83017	3697.3
1748.05418	3692.6
1751.27607	3666.1
1754.49584	3673.2
1757.71349	3672.9
1760.92903	3651.6
1764.14244	3658.2
1767.35375	3648.2
1770.56294	3622.1
1773.77002	3609.7
1776.97499	3583.7
1780.17785	3564.5
1783.37861	3546.7
1786.57727	3533.6
1789.77382	3510.2
1792.96828	3504.4
1796.16064	3499.6
1799.3509	3487
1802.53907	3483.7
1805.72514	3460.3
1808.90913	3449.6
1812.09102	3440.8
1815.27083	3413.6
1818.44856	3426.5
1821.6242	3409.8
1824.79776	3401.5
1827.96924	3391.3
1831.13864	3388.3
1834.30597	3389.4
1837.47122	3379.5
1840.6344	3363.8
1843.7955	3383.3
1846.95454	3371.1
1850.11151	3372.5
1853.26642	3350.7
1856.41926	3354.9
1859.57004	3350
1862.71876	3334.3
1865.86542	3347.2
1869.01003	3341.6
1872.15258	3350.9
1875.29308	3349.8
1878.43152	3342.4
1881.56792	3335.8
1884.70227	3339.2
1887.83457	3329.9
1890.96482	3313.5
1894.09304	3320.2
1897.21921	3308.6
1900.34335	3316.3
1903.46544	3309.9
1906.58551	3303.6
1909.70353	3294.2
1912.81953	3294.5
1915.93349	3300.8
1919.04543	3295.5
1922.15534	3276.3
1925.26322	3290.7
1928.36908	3268.2
1931.47292	3253.2
1934.57473	3245.1
1937.67453	3233
1940.77232	3232.6
1943.86808	3207.3
1946.96184	3202
1950.05358	3184.5
1953.14331	3170.5
1956.23103	3167.3
1959.31675	3159.4
1962.40046	3141.7
1965.48217	3137
1968.56188	3119
1971.63959	3126.6
1974.7153	3114.5
1977.78901	3107.7
1980.86073	3095.8
1983.93046	3085
1986.99819	3061.7
1990.06394	3057.8
1993.1277	3049.4
1996.18947	3031.9
1999.24925	3026.7
2002.30706	3012.5
2005.36288	2998.9
2008.41672	2996.8
2011.46859	2981.8
2014.51848	2971.7
2017.56639	2964.2
2020.61233	2955.5
2023.6563	2950.7
2026.6983	2937.7
2029.73833	2924.4
2032.7764	2927.6
2035.8125	2908.1
2038.84664	2916.6
2041.87881	2894
2044.90903	2895.9
2047.93729	2887.4
2050.96359	2895.2
2053.98794	2873
2057.01034	2879.4
2060.03078	2879
2063.04927	2861.3
2066.06582	2856.3
2069.08042	2856.4
2072.09307	2852.6
2075.10378	2852
2078.11255	2835.7
2081.11938	2848.3
2084.12426	2851.5
2087.12722	2834.2
2090.12824	2847.3
2093.12732	2833.7
2096.12447	2840
2099.11969	2827.7
2102.11299	2841.7
2105.10435	2832.3
2108.09379	2833.1
2111.08131	2819.8
2114.0669	2839.8
2117.05057	2846.4
2120.03233	2844.9
2123.01216	2849.3
2125.99008	2843.9
2128.96609	2829.8
2131.94018	2843.7
2134.91236	2842.3
2137.88263	2850.7
2140.851	2838.7
2143.81746	2842.5
2146.78201	2838.2
2149.74466	2842.1
2152.7054	2827
2155.66425	2826.9
2158.6212	2839.8
2161.57625	2811
2164.52941	2817.4
2167.48067	2824.9
2170.43004	2813
2173.37752	2825.2
2176.32311	2815.8
2179.26681	2797.4
2182.20863	2803.6
2185.14856	2808.6
2188.08661	2812.7
2191.02278	2799
2193.95707	2799.5
2196.88948	2797.4
2199.82001	2791.7
2202.74867	2777.8
2205.67545	2790.7
2208.60037	2777
2211.52341	2769.5
2214.44458	2763.1
2217.36388	2756
2220.28132	2755.8
2223.1969	2749.9
2226.11061	2743.2
2229.02246	2730
2231.93245	2722.9
2234.84058	2707.3
2237.74686	2713.2
2240.65128	2700.2
2243.55385	2713.1
2246.45456	2717.2
2249.35343	2690.5
2252.25044	2695.6
2255.14561	2697.5
2258.03893	2708.8
2260.93041	2710
2263.82004	2687.5
2266.70783	2679.4
2269.59378	2681.4
2272.4779	2667.8
2275.36017	2652.4
2278.24061	2648.8
2281.11922	2655.7
2283.996	2640.5
2286.87094	2629.7
2289.74405	2627
2292.61534	2613.1
2295.4848	2617.8
2298.35243	2616.2
2301.21824	2602.3
2304.08223	2604.4
2306.94439	2591.6
2309.80474	2591.7
2312.66327	2600.3
2315.51999	2581.4
2318.37489	2587
2321.22797	2594.4
2324.07925	2577.1
2326.92871	2579.3
2329.77637	2575.8
2332.62222	2566.8
2335.46626	2573.4
2338.3085	2560.1
2341.14893	2557.6
2343.98756	2548
2346.8244	2563.5
2349.65943	2564.9
2352.49267	2558.5
2355.32411	2560.3
2358.15376	2571.3
2360.98161	2558.9
2363.80768	2566.2
2366.63195	2579.9
2369.45444	2572.9
2372.27514	2567.2
2375.09405	2556.9
2377.91118	2559.1
2380.72652	2542.1
2383.54009	2526
2386.35187	2514.9
2389.16188	2513.3
2391.97011	2509.5
2394.77657	2492.8
2397.58125	2484.8
2400.38416	2484.8
2403.18529	2468.3
2405.98466	2469.1
2408.78226	2465
2411.57809	2456.6
2414.37216	2446.1
2417.16446	2454
2419.955	2444
2422.74378	2448.8
2425.5308	2437.2
2428.31606	2437.9
2431.09956	2436.4
2433.88131	2426
2436.6613	2434.9
2439.43954	2432.1
2442.21603	2417
2444.99077	2421.4
2447.76377	2421.3
2450.53501	2426.7
2453.30451	2428.4
2456.07226	2443
2458.83827	2425.6
2461.60254	2419.5
2464.36507	2409
2467.12586	2416
2469.88492	2410.9
2472.64224	2418.1
2475.39782	2424.6
2478.15167	2432.8
2480.90379	2416.8
2483.65417	2425.6
2486.40283	2419.7
2489.14976	2433.9
2491.89497	2433.8
2494.63845	2441.8
2497.3802	2453.8
2500.12024	2434.3
2502.85855	2417.6
2505.59514	2416
2508.33002	2392.7
2511.06318	2393.2
2513.79462	2379.8
2516.52435	2369.6
2519.25237	2360.6
2521.97867	2339.7
2524.70327	2349.4
2527.42616	2347.7
2530.14734	2324.4
2532.86681	2332.3
2535.58458	2327.1
2538.30065	2325.3
2541.01501	2314.8
2543.72768	2324.4
2546.43864	2316.4
2549.14791	2314.4
2551.85548	2313.5
2554.56136	2304.9
2557.26554	2298.4
2559.96803	2315.7
2562.66883	2299.9
2565.36794	2291.6
2568.06536	2295.2
2570.7611	2286.6
2573.45514	2284.5
2576.14751	2277.1
2578.83819	2280.4
2581.52719	2275.7
2584.21451	2259.8
2586.90015	2264.8
2589.58411	2264.6
2592.2664	2249.1
2594.94701	2250.7
2597.62594	2246.8
2600.30321	2236.9
2602.9788	2223.7
2605.65273	2239.3
2608.32498	2239.8
2610.99557	2236.6
2613.66449	2231.8
2616.33175	2230.4
2618.99734	2221.8
2621.66128	2228
2624.32355	2228
2626.98416	2223.9
2629.64311	2216.6
2632.30041	2211.5
2634.95605	2207.6
2637.61004	2202.1
2640.26238	2198.2
2642.91306	2193.7
2645.56209	2199.6
2648.20948	2186.9
2650.85521	2183.8
2653.4993	2191.8
2656.14175	2183.7
2658.78255	2183.6
2661.42171	2199.9
2664.05923	2183.7
2666.6951	2204.1
2669.32934	2195.7
2671.96194	2193.9
2674.59291	2205.2
2677.22224	2203.3
2679.84993	2196.6
2682.476	2186.9
2685.10043	2200.7
2687.72324	2186.3
2690.34441	2200.3
2692.96396	2192.2
2695.58188	2195
2698.19818	2185.6
2700.81285	2195.8
2703.4259	2216.2
2706.03733	2263
2708.64714	2232.9
2711.25533	2220.4
2713.86191	2201
2716.46687	2212.3
2719.07021	2204
2721.67194	2199.6
2724.27206	2199.2
2726.87057	2195
2729.46747	2192.9
2732.06276	2203.3
2734.65644	2192.1
2737.24852	2193.2
2739.83899	2172.1
2742.42786	2185.2
2745.01513	2178.4
2747.60079	2172
2750.18486	2163.2
2752.76733	2162.6
2755.3482	2159.2
2757.92747	2157.9
2760.50515	2153
2763.08123	2154.6
2765.65573	2141.8
2768.22863	2153.1
2770.79994	2146
2773.36967	2146.6
2775.9378	2144.9
2778.50435	2131.3
2781.06932	2139.1
2783.6327	2135.2
2786.1945	2137.6
2788.75471	2141.6
2791.31335	2129.1
2793.87041	2131.9
2796.42589	2123.8
2798.97979	2133.2
2801.53212	2121.2
2804.08288	2128.4
2806.63206	2121.2
2809.17967	2122.9
2811.72571	2121
2814.27018	2127.5
2816.81308	2118.7
2819.35442	2117.8
2821.89419	2113.4
2824.43239	2130.2
2826.96904	2129.4
2829.50412	2125.7
2832.03763	2124.3
2834.56959	2133.2
2837.1	2124.9
2839.62884	2138.7
2842.15613	2136.9
2844.68186	2161.3
2847.20604	2176.2
2849.72867	2184
2852.24974	2195.5
2854.76927	2212
2857.28724	2211.9
2859.80367	2207.8
2862.31855	2189
2864.83189	2186.4
2867.34368	2174.9
2869.85393	2174.5
2872.36264	2174.7
2874.8698	2175
2877.37543	2174.7
2879.87952	2168.9
2882.38207	2161.7
2884.88308	2170.4
2887.38256	2161.4
2889.88051	2154.6
2892.37692	2159.9
2894.8718	2159.4
2897.36515	2152.3
2899.85698	2167.5
2902.34727	2170.3
2904.83604	2167.9
2907.32328	2166.5
2909.809	2166.4
2912.29319	2170.3
2914.77587	2161.6
2917.25702	2160.1
2919.73665	2156.5
2922.21476	2158.4
2924.69136	2147.2
2927.16644	2147.8
2929.64	2150.5
2932.11205	2137.7
2934.58258	2142.7
2937.05161	2133.5
2939.51912	2137.1
2941.98513	2122.4
2944.44962	2108.9
2946.91261	2098
2949.37409	2096.3
2951.83407	2091.1
2954.29254	2082.1
2956.74951	2069.5
2959.20498	2069.3
2961.65895	2070.7
2964.11142	2057.6
2966.56239	2046.4
2969.01186	2049.2
2971.45984	2042.3
2973.90632	2027.6
2976.35131	2022.4
2978.7948	2024.9
2981.23681	2021.6
2983.67732	2012.6
2986.11635	2013.9
2988.55388	2001.6
2990.98993	1987
2993.4245	1999.5
2995.85758	1981.6
2998.28917	1981
3000.71928	1991.6
3003.14791	1983.7
3005.57506	1983.2
3008.00073	1981.7
3010.42493	1979
3012.84764	1979.9
3015.26888	1973.9
3017.68865	1972.7
3020.10694	1978.7
3022.52376	1980.7
3024.9391	1973.9
3027.35298	1979.6
3029.76539	1962.6
3032.17632	1958.3
3034.5858	1956.3
3036.9938	1956.6
3039.40034	1963
3041.80542	1955.4
3044.20903	1951
3046.61118	1943.2
3049.01187	1946.9
3051.4111	1949.8
3053.80888	1935.7
3056.20519	1939.6
3058.60005	1934.3
3060.99345	1939.6
3063.3854	1925.3
3065.7759	1923.3
3068.16494	1923.1
3070.55254	1917.7
3072.93868	1925.8
3075.32338	1921.9
3077.70662	1913.1
3080.08842	1916.9
3082.46878	1920.5
3084.84769	1905.8
3087.22515	1907.5
3089.60118	1907.7
3091.97576	1922.4
3094.3489	1915.4
3096.72061	1917.8
3099.09087	1915.3
3101.4597	1910.3
3103.82709	1919.9
3106.19305	1918.3
3108.55757	1927.8
3110.92066	1919.2
3113.28232	1922.5
3115.64255	1911
3118.00134	1914
3120.35871	1913.6
3122.71466	1909.4
3125.06917	1923.9
3127.42226	1926.4
3129.77393	1922.2
3132.12417	1927.5
3134.47299	1935.8
3136.82039	1940.8
3139.16636	1939.2
3141.51092	1948.7
3143.85406	1947.2
3146.19579	1937.8
3148.53609	1948.6
3150.87499	1968.8
3153.21246	1968.2
3155.54853	1980.3
3157.88318	1971.1
3160.21642	1977.2
3162.54826	1990.5
3164.87868	1983.2
3167.2077	1979
3169.5353	1979.2
3171.86151	1991
3174.18631	1999.8
3176.5097	1998.9
3178.83169	2001
3181.15228	1998.7
3183.47147	1999.7
3185.78926	2008
3188.10565	2003.7
3190.42065	2006.5
3192.73424	2019.5
3195.04645	2004.8
3197.35725	2018.7
3199.66667	2023.7
3201.97469	2027.4
3204.28132	2049
3206.58656	2045.7
3208.8904	2041.5
3211.19287	2041.2
3213.49394	2051.5
3215.79363	2047.4
3218.09193	2062.2
3220.38884	2063
3222.68438	2076.6
3224.97853	2052.6
3227.2713	2065.2
3229.56269	2069.5
3231.8527	2069.5
3234.14133	2053.5
3236.42858	2054.3
3238.71446	2055.9
3240.99896	2047.4
3243.28209	2051.2
3245.56384	2052.5
3247.84423	2050.8
3250.12324	2055.3
3252.40088	2047.9
3254.67715	2048.1
3256.95205	2047.5
3259.22558	2040.4
3261.49775	2043.2
3263.76855	2045.5
3266.03799	2042
3268.30606	2034.8
3270.57277	2038.5
3272.83812	2026.7
3275.10211	2033.8
3277.36474	2013.6
3279.62601	2029.2
3281.88593	2011.6
3284.14448	2017.4
3286.40168	2017.2
3288.65753	2019.1
3290.91202	2020.2
3293.16516	2009.1
3295.41695	2011.5
3297.66738	1998.7
3299.91647	1986.4
3302.16421	1984.4
3304.4106	1969.8
3306.65564	1965
3308.89933	1954.8
3311.14169	1936.8
3313.38269	1936.2
3315.62236	1906.1
3317.86068	1894.6
3320.09766	1872.6
3322.3333	1869.8
3324.5676	1871
3326.80056	1855.7
3329.03219	1828
3331.26248	0.3
3333.49143	-0.7
3335.71905	0.7
