Data from AgNPs_FTO_APTES_UA_0um_CRN_0.1mM_R6G_10uM_NaF_0.1M_Addition_RamanShift__29__10-45-08-927.txt Node

Date: Tue Dec 21 10:45:08 GMT 2021
User: TCL
Spectrometer: QEP01345
Trigger mode: 4
Integration Time (sec): 7.000000E0
Scans to average: 10
Electric dark correction enabled: true
Nonlinearity correction enabled: false
Boxcar width: 0
XAxis mode: Raman Shifts
Number of Pixels in Spectrum: 1044
>>>>>Begin Spectral Data<<<<<
46.04893	0.1875
50.45542	-0.1125
54.85868	0.3875
59.25871	0.7875
63.6555	19.2875
68.04907	22.2875
72.43941	25.7875
76.82654	26.9875
81.21044	28.7875
85.59113	29.6875
89.96862	31.4875
94.34289	32.3875
98.71396	32.1875
103.08183	34.4875
107.4465	33.6875
111.80798	37.2875
116.16626	34.1875
120.52136	38.5875
124.87327	33.8875
129.222	33.9875
133.56755	35.9875
137.90993	40.9875
142.24913	36.6875
146.58517	42.7875
150.91804	42.3875
155.24774	46.3875
159.57429	52.1875
163.89768	63.9875
168.21792	78.5875
172.53501	99.9875
176.84895	134.3875
181.15975	187.2875
185.46741	250.5875
189.77193	347.1875
194.07331	457.2875
198.37157	581.5875
202.6667	719.5875
206.9587	848.6875
211.24758	977.8875
215.53334	1111.5875
219.81599	1242.6875
224.09553	1413.6875
228.37195	1589.9875
232.64527	1789.5875
236.91549	1996.3875
241.18261	2186.7875
245.44663	2348.1875
249.70755	2473.6875
253.96539	2558.3875
258.22014	2600.6875
262.4718	2612.8875
266.72039	2608.5875
270.96589	2600.2875
275.20832	2570.3875
279.44768	2510.7875
283.68397	2450.8875
287.91719	2398.5875
292.14735	2385.9875
296.37445	2434.7875
300.59849	2560.7875
304.81948	2718.3875
309.03742	2860.0875
313.25231	2881.9875
317.46415	2717.4875
321.67296	2455.3875
325.87872	2221.9875
330.08145	2091.5875
334.28114	2075.3875
338.47781	2129.3875
342.67145	2212.8875
346.86207	2353.9875
351.04966	2572.5875
355.23424	2809.7875
359.4158	2991.7875
363.59435	3085.5875
367.76989	3101.4875
371.94243	3067.6875
376.11196	3043.3875
380.27849	2983.5875
384.44203	2914.9875
388.60257	2818.2875
392.76012	2761.1875
396.91468	2786.6875
401.06626	2858.7875
405.21485	2925.0875
409.36047	2851.2875
413.50311	2641.4875
417.64277	2445.0875
421.77947	2336.6875
425.9132	2288.6875
430.04396	2270.7875
434.17176	2293.4875
438.2966	2342.0875
442.41849	2430.0875
446.53742	2543.1875
450.6534	2634.8875
454.76644	2687.8875
458.87653	2677.3875
462.98368	2633.2875
467.08789	2549.4875
471.18916	2462.1875
475.2875	2372.6875
479.38291	2299.9875
483.4754	2239.3875
487.56496	2202.2875
491.6516	2177.1875
495.73531	2174.6875
499.81612	2186.6875
503.89401	2228.8875
507.96899	2287.5875
512.04106	2350.3875
516.11023	2456.1875
520.1765	2494.7875
524.23987	2494.5875
528.30034	2427.5875
532.35792	2325.2875
536.41261	2240.8875
540.46441	2145.1875
544.51333	2091.6875
548.55936	2100.4875
552.60252	2131.7875
556.64279	2199.0875
560.6802	2254.8875
564.71473	2312.7875
568.7464	2443.4875
572.7752	2550.9875
576.80114	2416.7875
580.82422	2245.0875
584.84444	2135.2875
588.86181	2104.2875
592.87633	2125.6875
596.888	2164.2875
600.89682	2292.4875
604.9028	2648.7875
608.90594	3665.7875
612.90624	5132.7875
616.90371	5215.1875
620.89834	3462.6875
624.89015	2459.9875
628.87913	2211.7875
632.86528	2161.9875
636.84862	2194.5875
640.82913	2202.9875
644.80683	2123.2875
648.78172	2061.5875
652.75379	2125.1875
656.72306	2332.8875
660.68952	2536.2875
664.65319	2459.3875
668.61405	2180.3875
672.57211	2053.2875
676.52738	2065.3875
680.47986	2101.4875
684.42955	2087.9875
688.37646	2066.0875
692.32058	2108.9875
696.26192	2175.2875
700.20048	2273.0875
704.13626	2342.2875
708.06928	2302.9875
711.99952	2197.4875
715.927	2128.0875
719.85171	2092.2875
723.77365	2089.5875
727.69284	2070.2875
731.60928	2047.4875
735.52295	2067.2875
739.43388	2075.1875
743.34206	2068.0875
747.24749	2074.4875
751.15017	2072.8875
755.05012	2126.5875
758.94733	2276.5875
762.8418	2569.5875
766.73354	3061.2875
770.62254	3649.2875
774.50882	4080.6875
778.39237	4049.4875
782.27321	3481.4875
786.15132	2781.0875
790.02671	2372.2875
793.89938	2225.0875
797.76935	2188.1875
801.6366	2149.6875
805.50115	2112.6875
809.36299	2123.9875
813.22213	2099.8875
817.07857	2099.8875
820.93231	2094.2875
824.78336	2080.0875
828.63172	2088.2875
832.47738	2078.3875
836.32036	2081.8875
840.16066	2069.2875
843.99827	2038.5875
847.8332	2055.8875
851.66546	2089.4875
855.49504	2118.0875
859.32195	2118.1875
863.1462	2097.8875
866.96777	2062.4875
870.78668	2022.9875
874.60293	2010.2875
878.41652	2003.2875
882.22745	2016.3875
886.03573	2012.9875
889.84136	2012.1875
893.64433	1992.6875
897.44466	2001.8875
901.24235	2005.4875
905.0374	1984.2875
908.8298	1955.0875
912.61957	1941.7875
916.40671	1980.3875
920.19121	1997.3875
923.97308	2047.7875
927.75233	2094.0875
931.52895	2118.0875
935.30295	2107.2875
939.07433	2000.8875
942.84309	1899.1875
946.60924	1817.2875
950.37278	1775.4875
954.13371	1751.9875
957.89203	1734.3875
961.64774	1704.0875
965.40086	1691.9875
969.15137	1684.3875
972.89929	1667.8875
976.64461	1658.0875
980.38733	1673.8875
984.12747	1665.9875
987.86502	1670.1875
991.59999	1672.7875
995.33237	1677.0875
999.06217	1698.2875
1002.78939	1728.5875
1006.51404	1764.0875
1010.23611	1801.7875
1013.95561	1837.8875
1017.67255	1852.8875
1021.38692	1835.3875
1025.09872	1832.3875
1028.80796	1816.3875
1032.51465	1868.0875
1036.21877	1972.7875
1039.92035	2103.8875
1043.61937	2172.6875
1047.31584	2140.9875
1051.00976	2070.6875
1054.70114	1972.9875
1058.38998	1901.9875
1062.07627	1847.8875
1065.76003	1820.7875
1069.44126	1804.0875
1073.11995	1843.6875
1076.79611	1906.0875
1080.46974	1990.0875
1084.14085	2073.3875
1087.80943	2135.4875
1091.47549	2139.3875
1095.13903	2086.6875
1098.80005	1947.3875
1102.45857	1848.0875
1106.11456	1842.3875
1109.76805	1880.6875
1113.41903	1981.7875
1117.06751	2101.4875
1120.71348	2262.6875
1124.35696	2454.9875
1127.99793	2590.4875
1131.63641	2558.3875
1135.2724	2329.8875
1138.90589	2105.7875
1142.5369	1982.0875
1146.16542	1924.2875
1149.79145	1871.6875
1153.415	1880.3875
1157.03607	1920.6875
1160.65467	1993.7875
1164.27079	2087.0875
1167.88443	2202.0875
1171.49561	2445.9875
1175.10432	2824.7875
1178.71056	3354.8875
1182.31434	3697.9875
1185.91565	3715.3875
1189.51451	3595.8875
1193.11091	3359.4875
1196.70485	3088.2875
1200.29634	2842.9875
1203.88538	2634.5875
1207.47197	2365.4875
1211.05612	2155.7875
1214.63782	2027.1875
1218.21708	1968.4875
1221.79391	1953.5875
1225.36829	1933.7875
1228.94024	1933.6875
1232.50976	1941.4875
1236.07685	1960.1875
1239.6415	2005.5875
1243.20374	2062.9875
1246.76355	2107.7875
1250.32093	2154.3875
1253.8759	2250.8875
1257.42845	2376.1875
1260.97859	2504.7875
1264.52631	2627.7875
1268.07163	2757.0875
1271.61453	2834.6875
1275.15503	2851.3875
1278.69312	2808.2875
1282.22882	2773.2875
1285.76211	2815.1875
1289.29301	2933.3875
1292.82151	3059.6875
1296.34761	3138.0875
1299.87133	3299.7875
1303.39266	3574.2875
1306.9116	4057.6875
1310.42815	4607.0875
1313.94233	4943.1875
1317.45412	4763.6875
1320.96354	4235.1875
1324.47058	3692.6875
1327.97525	3237.9875
1331.47754	2972.2875
1334.97747	2868.6875
1338.47502	2914.4875
1341.97022	3056.7875
1345.46305	3310.8875
1348.95352	3737.4875
1352.44163	4318.4875
1355.92738	5079.4875
1359.41078	6071.1875
1362.89183	6884.9875
1366.37053	6616.5875
1369.84688	5547.6875
1373.32088	4441.1875
1376.79254	3666.2875
1380.26186	3195.2875
1383.72883	2912.6875
1387.19347	2671.7875
1390.65578	2459.5875
1394.11575	2287.2875
1397.57339	2207.0875
1401.0287	2177.6875
1404.48168	2155.2875
1407.93234	2159.6875
1411.38068	2189.8875
1414.82669	2244.3875
1418.27039	2285.0875
1421.71177	2322.1875
1425.15083	2327.4875
1428.58758	2339.3875
1432.02203	2383.5875
1435.45416	2399.1875
1438.88399	2420.3875
1442.31151	2401.2875
1445.73673	2368.2875
1449.15965	2340.9875
1452.58027	2272.9875
1455.9986	2199.3875
1459.41463	2163.2875
1462.82837	2171.9875
1466.23982	2212.4875
1469.64898	2273.4875
1473.05586	2314.7875
1476.46045	2347.7875
1479.86276	2421.8875
1483.26279	2467.8875
1486.66054	2530.7875
1490.05602	2606.2875
1493.44922	2746.1875
1496.84016	3011.5875
1500.22882	3493.0875
1503.61521	4115.6875
1506.99934	4836.8875
1510.38121	5505.8875
1513.76081	5830.8875
1517.13816	5489.3875
1520.51324	4588.9875
1523.88607	3654.2875
1527.25665	3041.6875
1530.62498	2718.1875
1533.99105	2538.7875
1537.35488	2451.1875
1540.71647	2383.4875
1544.07581	2392.9875
1547.4329	2406.5875
1550.78776	2429.1875
1554.14038	2472.6875
1557.49077	2513.4875
1560.83892	2593.0875
1564.18484	2696.6875
1567.52853	2862.2875
1570.86999	3032.3875
1574.20922	3157.4875
1577.54624	3150.7875
1580.88103	2909.2875
1584.2136	2542.7875
1587.54395	2325.0875
1590.87208	2312.0875
1594.19801	2426.1875
1597.52172	2621.0875
1600.84321	2724.8875
1604.16251	2618.9875
1607.47959	2416.9875
1610.79447	2208.8875
1614.10715	2017.9875
1617.41763	1877.5875
1620.7259	1799.9875
1624.03199	1770.9875
1627.33587	1782.5875
1630.63757	1811.3875
1633.93707	1866.0875
1637.23439	1969.5875
1640.52951	2191.3875
1643.82246	2522.4875
1647.11321	2976.4875
1650.40179	3390.8875
1653.68819	3393.7875
1656.97241	2920.3875
1660.25446	2347.2875
1663.53433	1949.4875
1666.81203	1737.4875
1670.08756	1625.4875
1673.36092	1547.6875
1676.63211	1509.9875
1679.90115	1477.9875
1683.16801	1449.5875
1686.43272	1433.8875
1689.69527	1403.3875
1692.95567	1393.7875
1696.2139	1399.3875
1699.46999	1380.3875
1702.72392	1364.7875
1705.97571	1353.1875
1709.22535	1339.2875
1712.47284	1345.4875
1715.71819	1358.8875
1718.96139	1367.9875
1722.20246	1369.2875
1725.44139	1351.4875
1728.67818	1325.7875
1731.91284	1300.3875
1735.14537	1254.4875
1738.37576	1236.8875
1741.60403	1207.6875
1744.83017	1192.2875
1748.05418	1179.7875
1751.27607	1161.8875
1754.49584	1156.9875
1757.71349	1151.2875
1760.92903	1131.8875
1764.14244	1124.2875
1767.35375	1111.5875
1770.56294	1102.3875
1773.77002	1076.1875
1776.97499	1058.4875
1780.17785	1061.1875
1783.37861	1051.6875
1786.57727	1039.6875
1789.77382	1033.5875
1792.96828	1022.8875
1796.16064	1011.0875
1799.3509	1007.8875
1802.53907	1000.4875
1805.72514	988.8875
1808.90913	986.3875
1812.09102	979.0875
1815.27083	970.0875
1818.44856	971.6875
1821.6242	967.5875
1824.79776	964.8875
1827.96924	956.2875
1831.13864	962.2875
1834.30597	951.3875
1837.47122	939.1875
1840.6344	945.8875
1843.7955	944.7875
1846.95454	933.7875
1850.11151	940.2875
1853.26642	928.6875
1856.41926	930.6875
1859.57004	927.4875
1862.71876	928.2875
1865.86542	928.2875
1869.01003	921.2875
1872.15258	922.2875
1875.29308	927.1875
1878.43152	921.2875
1881.56792	913.3875
1884.70227	910.5875
1887.83457	912.1875
1890.96482	907.9875
1894.09304	905.7875
1897.21921	911.8875
1900.34335	903.9875
1903.46544	908.3875
1906.58551	908.6875
1909.70353	907.1875
1912.81953	900.3875
1915.93349	898.2875
1919.04543	896.9875
1922.15534	889.2875
1925.26322	885.4875
1928.36908	881.6875
1931.47292	883.0875
1934.57473	879.6875
1937.67453	869.5875
1940.77232	867.1875
1943.86808	873.0875
1946.96184	866.6875
1950.05358	865.9875
1953.14331	861.5875
1956.23103	848.8875
1959.31675	848.1875
1962.40046	849.7875
1965.48217	840.9875
1968.56188	840.3875
1971.63959	838.7875
1974.7153	843.4875
1977.78901	835.7875
1980.86073	829.9875
1983.93046	835.1875
1986.99819	824.2875
1990.06394	818.3875
1993.1277	820.6875
1996.18947	813.2875
1999.24925	811.0875
2002.30706	805.7875
2005.36288	798.9875
2008.41672	796.7875
2011.46859	790.9875
2014.51848	789.1875
2017.56639	796.0875
2020.61233	786.3875
2023.6563	783.5875
2026.6983	779.8875
2029.73833	779.5875
2032.7764	771.2875
2035.8125	769.1875
2038.84664	777.3875
2041.87881	766.9875
2044.90903	765.7875
2047.93729	760.6875
2050.96359	763.2875
2053.98794	761.6875
2057.01034	755.4875
2060.03078	760.7875
2063.04927	755.6875
2066.06582	750.6875
2069.08042	753.8875
2072.09307	749.5875
2075.10378	744.7875
2078.11255	749.4875
2081.11938	752.8875
2084.12426	756.2875
2087.12722	746.0875
2090.12824	757.0875
2093.12732	756.1875
2096.12447	747.0875
2099.11969	751.3875
2102.11299	751.4875
2105.10435	753.7875
2108.09379	755.6875
2111.08131	751.0875
2114.0669	747.0875
2117.05057	746.1875
2120.03233	746.7875
2123.01216	742.0875
2125.99008	746.6875
2128.96609	742.7875
2131.94018	742.8875
2134.91236	740.4875
2137.88263	743.8875
2140.851	736.1875
2143.81746	733.0875
2146.78201	737.6875
2149.74466	739.4875
2152.7054	728.0875
2155.66425	736.9875
2158.6212	728.7875
2161.57625	726.3875
2164.52941	731.5875
2167.48067	730.7875
2170.43004	730.6875
2173.37752	719.3875
2176.32311	724.3875
2179.26681	723.9875
2182.20863	721.0875
2185.14856	731.1875
2188.08661	725.4875
2191.02278	723.2875
2193.95707	719.6875
2196.88948	720.5875
2199.82001	714.9875
2202.74867	713.4875
2205.67545	716.1875
2208.60037	711.8875
2211.52341	705.0875
2214.44458	707.9875
2217.36388	702.8875
2220.28132	704.2875
2223.1969	698.3875
2226.11061	695.7875
2229.02246	693.3875
2231.93245	693.4875
2234.84058	687.3875
2237.74686	691.3875
2240.65128	682.0875
2243.55385	683.7875
2246.45456	691.2875
2249.35343	677.8875
2252.25044	677.6875
2255.14561	682.4875
2258.03893	686.3875
2260.93041	694.3875
2263.82004	682.6875
2266.70783	681.7875
2269.59378	679.5875
2272.4779	677.4875
2275.36017	674.8875
2278.24061	678.7875
2281.11922	679.8875
2283.996	669.1875
2286.87094	667.9875
2289.74405	662.2875
2292.61534	666.2875
2295.4848	658.4875
2298.35243	655.8875
2301.21824	651.1875
2304.08223	654.7875
2306.94439	659.0875
2309.80474	645.5875
2312.66327	650.7875
2315.51999	647.2875
2318.37489	649.3875
2321.22797	642.2875
2324.07925	651.2875
2326.92871	646.6875
2329.77637	651.8875
2332.62222	651.2875
2335.46626	646.8875
2338.3085	638.7875
2341.14893	643.3875
2343.98756	637.3875
2346.8244	641.9875
2349.65943	642.5875
2352.49267	636.8875
2355.32411	638.7875
2358.15376	648.9875
2360.98161	646.8875
2363.80768	654.1875
2366.63195	655.0875
2369.45444	659.9875
2372.27514	662.4875
2375.09405	662.3875
2377.91118	649.0875
2380.72652	645.2875
2383.54009	642.1875
2386.35187	642.3875
2389.16188	634.1875
2391.97011	629.3875
2394.77657	631.8875
2397.58125	626.2875
2400.38416	622.4875
2403.18529	623.8875
2405.98466	617.6875
2408.78226	619.7875
2411.57809	611.6875
2414.37216	620.5875
2417.16446	619.0875
2419.955	609.6875
2422.74378	614.0875
2425.5308	610.5875
2428.31606	611.8875
2431.09956	607.7875
2433.88131	612.0875
2436.6613	615.7875
2439.43954	616.0875
2442.21603	608.3875
2444.99077	612.2875
2447.76377	613.9875
2450.53501	618.7875
2453.30451	617.6875
2456.07226	614.0875
2458.83827	613.0875
2461.60254	616.8875
2464.36507	615.4875
2467.12586	611.1875
2469.88492	613.8875
2472.64224	616.3875
2475.39782	620.9875
2478.15167	620.4875
2480.90379	618.2875
2483.65417	619.9875
2486.40283	622.7875
2489.14976	628.3875
2491.89497	623.2875
2494.63845	633.2875
2497.3802	638.5875
2500.12024	632.1875
2502.85855	629.5875
2505.59514	613.9875
2508.33002	616.6875
2511.06318	612.5875
2513.79462	602.4875
2516.52435	602.1875
2519.25237	597.4875
2521.97867	593.9875
2524.70327	598.1875
2527.42616	591.5875
2530.14734	591.8875
2532.86681	595.4875
2535.58458	593.0875
2538.30065	590.8875
2541.01501	591.5875
2543.72768	596.8875
2546.43864	594.2875
2549.14791	594.1875
2551.85548	598.6875
2554.56136	593.7875
2557.26554	599.2875
2559.96803	603.7875
2562.66883	601.0875
2565.36794	601.9875
2568.06536	601.5875
2570.7611	603.4875
2573.45514	610.4875
2576.14751	600.5875
2578.83819	600.7875
2581.52719	599.7875
2584.21451	599.4875
2586.90015	593.8875
2589.58411	588.9875
2592.2664	596.7875
2594.94701	589.7875
2597.62594	594.8875
2600.30321	591.7875
2602.9788	581.0875
2605.65273	586.6875
2608.32498	590.1875
2610.99557	588.0875
2613.66449	589.7875
2616.33175	590.8875
2618.99734	593.6875
2621.66128	592.3875
2624.32355	591.1875
2626.98416	591.4875
2629.64311	585.4875
2632.30041	581.7875
2634.95605	587.2875
2637.61004	587.5875
2640.26238	590.5875
2642.91306	582.4875
2645.56209	582.3875
2648.20948	584.9875
2650.85521	585.8875
2653.4993	587.0875
2656.14175	590.9875
2658.78255	591.2875
2661.42171	601.5875
2664.05923	599.2875
2666.6951	610.6875
2669.32934	609.2875
2671.96194	616.4875
2674.59291	629.3875
2677.22224	633.6875
2679.84993	639.5875
2682.476	633.7875
2685.10043	645.5875
2687.72324	644.1875
2690.34441	658.8875
2692.96396	662.7875
2695.58188	668.1875
2698.19818	669.9875
2700.81285	683.8875
2703.4259	712.1875
2706.03733	750.0875
2708.64714	733.9875
2711.25533	732.5875
2713.86191	728.9875
2716.46687	730.9875
2719.07021	737.2875
2721.67194	737.6875
2724.27206	724.4875
2726.87057	727.6875
2729.46747	721.5875
2732.06276	719.5875
2734.65644	714.7875
2737.24852	705.3875
2739.83899	701.4875
2742.42786	694.9875
2745.01513	693.9875
2747.60079	694.6875
2750.18486	689.5875
2752.76733	691.9875
2755.3482	688.8875
2757.92747	699.6875
2760.50515	710.7875
2763.08123	715.6875
2765.65573	717.4875
2768.22863	735.2875
2770.79994	743.6875
2773.36967	766.7875
2775.9378	778.1875
2778.50435	783.6875
2781.06932	800.8875
2783.6327	824.0875
2786.1945	845.0875
2788.75471	872.3875
2791.31335	889.7875
2793.87041	920.1875
2796.42589	945.9875
2798.97979	974.5875
2801.53212	1009.0875
2804.08288	1047.4875
2806.63206	1066.1875
2809.17967	1102.4875
2811.72571	1134.1875
2814.27018	1165.5875
2816.81308	1173.7875
2819.35442	1181.7875
2821.89419	1182.5875
2824.43239	1180.8875
2826.96904	1178.0875
2829.50412	1168.3875
2832.03763	1155.7875
2834.56959	1148.8875
2837.1	1156.5875
2839.62884	1185.3875
2842.15613	1230.0875
2844.68186	1281.0875
2847.20604	1358.3875
2849.72867	1412.3875
2852.24974	1421.8875
2854.76927	1427.7875
2857.28724	1426.9875
2859.80367	1391.1875
2862.31855	1365.6875
2864.83189	1351.2875
2867.34368	1324.9875
2869.85393	1309.6875
2872.36264	1293.4875
2874.8698	1275.9875
2877.37543	1277.5875
2879.87952	1264.8875
2882.38207	1257.0875
2884.88308	1254.0875
2887.38256	1252.6875
2889.88051	1257.2875
2892.37692	1263.8875
2894.8718	1260.2875
2897.36515	1267.6875
2899.85698	1267.5875
2902.34727	1273.3875
2904.83604	1265.9875
2907.32328	1264.0875
2909.809	1266.8875
2912.29319	1264.2875
2914.77587	1260.3875
2917.25702	1257.6875
2919.73665	1258.8875
2922.21476	1228.4875
2924.69136	1224.0875
2927.16644	1206.7875
2929.64	1188.8875
2932.11205	1169.0875
2934.58258	1140.7875
2937.05161	1120.2875
2939.51912	1084.4875
2941.98513	1048.2875
2944.44962	992.1875
2946.91261	946.4875
2949.37409	914.2875
2951.83407	878.2875
2954.29254	849.2875
2956.74951	830.3875
2959.20498	806.4875
2961.65895	791.0875
2964.11142	775.2875
2966.56239	763.2875
2969.01186	752.8875
2971.45984	747.3875
2973.90632	735.9875
2976.35131	719.2875
2978.7948	715.6875
2981.23681	714.8875
2983.67732	698.4875
2986.11635	697.1875
2988.55388	684.1875
2990.98993	678.2875
2993.4245	674.6875
2995.85758	652.5875
2998.28917	650.5875
3000.71928	644.3875
3003.14791	637.9875
3005.57506	637.1875
3008.00073	632.0875
3010.42493	624.5875
3012.84764	625.3875
3015.26888	622.4875
3017.68865	622.0875
3020.10694	622.7875
3022.52376	622.3875
3024.9391	625.9875
3027.35298	623.6875
3029.76539	616.4875
3032.17632	624.1875
3034.5858	622.6875
3036.9938	616.0875
3039.40034	617.5875
3041.80542	613.8875
3044.20903	616.1875
3046.61118	620.6875
3049.01187	610.9875
3051.4111	615.6875
3053.80888	606.6875
3056.20519	614.7875
3058.60005	617.0875
3060.99345	617.7875
3063.3854	615.6875
3065.7759	613.8875
3068.16494	622.4875
3070.55254	619.5875
3072.93868	622.8875
3075.32338	622.0875
3077.70662	613.5875
3080.08842	617.4875
3082.46878	609.6875
3084.84769	607.3875
3087.22515	603.9875
3089.60118	599.4875
3091.97576	598.2875
3094.3489	605.6875
3096.72061	598.4875
3099.09087	603.9875
3101.4597	599.6875
3103.82709	605.3875
3106.19305	603.6875
3108.55757	602.1875
3110.92066	610.8875
3113.28232	604.1875
3115.64255	611.5875
3118.00134	612.3875
3120.35871	614.3875
3122.71466	618.3875
3125.06917	624.1875
3127.42226	627.9875
3129.77393	631.9875
3132.12417	636.6875
3134.47299	640.2875
3136.82039	649.3875
3139.16636	646.9875
3141.51092	651.8875
3143.85406	659.4875
3146.19579	657.4875
3148.53609	665.5875
3150.87499	673.9875
3153.21246	675.5875
3155.54853	683.7875
3157.88318	687.3875
3160.21642	687.5875
3162.54826	697.6875
3164.87868	698.8875
3167.2077	707.7875
3169.5353	708.3875
3171.86151	715.2875
3174.18631	714.7875
3176.5097	722.0875
3178.83169	722.6875
3181.15228	726.0875
3183.47147	730.3875
3185.78926	733.2875
3188.10565	739.6875
3190.42065	739.3875
3192.73424	744.0875
3195.04645	747.0875
3197.35725	752.5875
3199.66667	762.2875
3201.97469	756.0875
3204.28132	768.7875
3206.58656	777.5875
3208.8904	767.5875
3211.19287	772.7875
3213.49394	775.0875
3215.79363	769.5875
3218.09193	782.0875
3220.38884	787.5875
3222.68438	791.5875
3224.97853	789.4875
3227.2713	786.1875
3229.56269	791.9875
3231.8527	796.7875
3234.14133	794.7875
3236.42858	795.8875
3238.71446	793.9875
3240.99896	785.0875
3243.28209	790.9875
3245.56384	793.5875
3247.84423	794.1875
3250.12324	797.2875
3252.40088	798.9875
3254.67715	799.3875
3256.95205	805.6875
3259.22558	797.2875
3261.49775	804.5875
3263.76855	806.1875
3266.03799	802.8875
3268.30606	800.4875
3270.57277	792.8875
3272.83812	796.4875
3275.10211	796.0875
3277.36474	799.0875
3279.62601	793.9875
3281.88593	802.9875
3284.14448	803.8875
3286.40168	804.4875
3288.65753	800.7875
3290.91202	806.1875
3293.16516	805.9875
3295.41695	801.9875
3297.66738	796.9875
3299.91647	799.5875
3302.16421	792.0875
3304.4106	791.1875
3306.65564	785.3875
3308.89933	786.4875
3311.14169	783.4875
3313.38269	779.2875
3315.62236	775.7875
3317.86068	771.0875
3320.09766	760.4875
3322.3333	760.9875
3324.5676	766.6875
3326.80056	764.7875
3329.03219	751.3875
3331.26248	-1.3125
3333.49143	-0.5125
3335.71905	-0.1125
