Data from AgNPs_FTO_APTES_UA_10um_CRN_0.1mM_R6G_10uM_NaF_0.1M_Addition_RamanShift__26__14-05-49-156.txt Node

Date: Tue Dec 21 14:05:49 GMT 2021
User: TCL
Spectrometer: QEP01345
Trigger mode: 4
Integration Time (sec): 7.000000E0
Scans to average: 10
Electric dark correction enabled: true
Nonlinearity correction enabled: false
Boxcar width: 0
XAxis mode: Raman Shifts
Number of Pixels in Spectrum: 1044
>>>>>Begin Spectral Data<<<<<
46.04893	-0.6625
50.45542	-0.9625
54.85868	-0.3625
59.25871	0.3375
63.6555	49.6375
68.04907	56.3375
72.43941	56.4375
76.82654	57.9375
81.21044	62.5375
85.59113	63.6375
89.96862	68.5375
94.34289	68.3375
98.71396	69.4375
103.08183	75.2375
107.4465	78.0375
111.80798	78.1375
116.16626	80.5375
120.52136	84.0375
124.87327	86.8375
129.222	85.0375
133.56755	94.6375
137.90993	105.0375
142.24913	110.4375
146.58517	125.5375
150.91804	146.7375
155.24774	178.7375
159.57429	216.1375
163.89768	280.7375
168.21792	366.2375
172.53501	495.2375
176.84895	690.6375
181.15975	965.6375
185.46741	1354.4375
189.77193	1872.0375
194.07331	2504.3375
198.37157	3229.2375
202.6667	4009.4375
206.9587	4804.8375
211.24758	5587.4375
215.53334	6368.1375
219.81599	7222.5375
224.09553	8179.0375
228.37195	9229.8375
232.64527	10406.4375
236.91549	11589.8375
241.18261	12740.4375
245.44663	13784.3375
249.70755	14701.6375
253.96539	15465.1375
258.22014	16092.5375
262.4718	16626.7375
266.72039	16980.9375
270.96589	17137.9375
275.20832	17168.8375
279.44768	17019.3375
283.68397	16859.9375
287.91719	16726.4375
292.14735	16729.8375
296.37445	16887.3375
300.59849	17219.1375
304.81948	17587.0375
309.03742	17776.1375
313.25231	17608.3375
317.46415	16909.0375
321.67296	15969.5375
325.87872	15186.0375
330.08145	14763.0375
334.28114	14750.8375
338.47781	14950.9375
342.67145	15303.1375
346.86207	15737.1375
351.04966	16407.7375
355.23424	17203.7375
359.4158	17749.5375
363.59435	18114.5375
367.76989	18267.2375
371.94243	18331.9375
376.11196	18331.2375
380.27849	18348.0375
384.44203	18327.1375
388.60257	18255.7375
392.76012	18244.4375
396.91468	18416.6375
401.06626	18790.8375
405.21485	19100.9375
409.36047	18960.9375
413.50311	18347.5375
417.64277	17749.3375
421.77947	17400.0375
425.9132	17242.9375
430.04396	17292.8375
434.17176	17402.3375
438.2966	17655.3375
442.41849	18004.6375
446.53742	18595.0375
450.6534	19212.3375
454.76644	19681.8375
458.87653	19849.5375
462.98368	19680.6375
467.08789	19456.3375
471.18916	19153.4375
475.2875	18844.0375
479.38291	18653.3375
483.4754	18464.7375
487.56496	18158.4375
491.6516	17832.5375
495.73531	17579.7375
499.81612	17481.0375
503.89401	17515.1375
507.96899	17612.0375
512.04106	17660.1375
516.11023	17758.7375
520.1765	17780.7375
524.23987	17704.3375
528.30034	17553.9375
532.35792	17343.0375
536.41261	17131.4375
540.46441	16815.6375
544.51333	16639.2375
548.55936	16690.6375
552.60252	16978.9375
556.64279	17364.8375
560.6802	17672.7375
564.71473	17955.9375
568.7464	18503.6375
572.7752	18935.2375
576.80114	18814.4375
580.82422	18447.8375
584.84444	18343.0375
588.86181	18463.2375
592.87633	18734.7375
596.888	19009.6375
600.89682	19334.3375
604.9028	20604.3375
608.90594	24192.8375
612.90624	28839.8375
616.90371	27742.3375
620.89834	21098.9375
624.89015	17803.9375
628.87913	17245.2375
632.86528	17386.8375
636.84862	17568.1375
640.82913	17277.7375
644.80683	16647.0375
648.78172	16066.7375
652.75379	15957.6375
656.72306	16334.2375
660.68952	16872.5375
664.65319	16884.2375
668.61405	16446.4375
672.57211	16271.0375
676.52738	16346.5375
680.47986	16299.4375
684.42955	16161.4375
688.37646	16051.5375
692.32058	15993.1375
696.26192	16080.3375
700.20048	16239.0375
704.13626	16389.2375
708.06928	16328.9375
711.99952	16188.4375
715.927	16047.1375
719.85171	16089.9375
723.77365	16070.5375
727.69284	15992.4375
731.60928	15884.5375
735.52295	15870.6375
739.43388	15918.8375
743.34206	15960.5375
747.24749	16022.7375
751.15017	16118.9375
755.05012	16326.8375
758.94733	16921.5375
762.8418	18220.9375
766.73354	20477.1375
770.62254	22920.5375
774.50882	24208.1375
778.39237	23295.8375
782.27321	20694.8375
786.15132	18170.7375
790.02671	16667.7375
793.89938	15957.5375
797.76935	15676.5375
801.6366	15570.8375
805.50115	15503.7375
809.36299	15495.5375
813.22213	15428.8375
817.07857	15409.1375
820.93231	15357.3375
824.78336	15331.0375
828.63172	15299.4375
832.47738	15282.4375
836.32036	15270.8375
840.16066	15215.4375
843.99827	15200.5375
847.8332	15141.0375
851.66546	15087.9375
855.49504	15052.0375
859.32195	15095.1375
863.1462	15031.9375
866.96777	15018.1375
870.78668	14987.0375
874.60293	15006.1375
878.41652	15055.3375
882.22745	15079.0375
886.03573	15169.3375
889.84136	15182.2375
893.64433	15059.9375
897.44466	14969.0375
901.24235	14842.5375
905.0374	14745.6375
908.8298	14644.8375
912.61957	14653.2375
916.40671	14766.4375
920.19121	14914.9375
923.97308	15049.9375
927.75233	15180.1375
931.52895	15250.5375
935.30295	15106.4375
939.07433	14753.5375
942.84309	14448.1375
946.60924	14271.5375
950.37278	14167.0375
954.13371	14126.6375
957.89203	14023.4375
961.64774	13965.0375
965.40086	13892.6375
969.15137	13835.2375
972.89929	13722.1375
976.64461	13701.3375
980.38733	13684.8375
984.12747	13697.3375
987.86502	13804.7375
991.59999	13935.7375
995.33237	14191.1375
999.06217	14610.2375
1002.78939	15113.1375
1006.51404	15625.3375
1010.23611	15951.0375
1013.95561	16196.0375
1017.67255	16171.9375
1021.38692	15932.6375
1025.09872	15673.3375
1028.80796	15608.9375
1032.51465	15838.2375
1036.21877	16097.6375
1039.92035	16201.5375
1043.61937	16070.4375
1047.31584	15859.6375
1051.00976	15522.5375
1054.70114	15312.0375
1058.38998	15243.5375
1062.07627	15274.1375
1065.76003	15363.4375
1069.44126	15458.0375
1073.11995	15603.3375
1076.79611	15722.9375
1080.46974	15881.1375
1084.14085	16071.4375
1087.80943	16346.6375
1091.47549	16503.9375
1095.13903	16422.6375
1098.80005	16085.5375
1102.45857	15666.7375
1106.11456	15438.4375
1109.76805	15443.8375
1113.41903	15687.0375
1117.06751	16005.9375
1120.71348	16521.8375
1124.35696	17069.4375
1127.99793	17504.3375
1131.63641	17644.6375
1135.2724	17187.6375
1138.90589	16699.4375
1142.5369	16333.6375
1146.16542	16094.8375
1149.79145	15933.1375
1153.415	15944.2375
1157.03607	16081.8375
1160.65467	16375.2375
1164.27079	16917.3375
1167.88443	17796.1375
1171.49561	19033.6375
1175.10432	20925.3375
1178.71056	23373.3375
1182.31434	25592.6375
1185.91565	26581.7375
1189.51451	26375.1375
1193.11091	25287.1375
1196.70485	23838.6375
1200.29634	22541.0375
1203.88538	21512.5375
1207.47197	20530.9375
1211.05612	19703.5375
1214.63782	19116.4375
1218.21708	18887.1375
1221.79391	18834.5375
1225.36829	18823.9375
1228.94024	18586.6375
1232.50976	18351.6375
1236.07685	18162.1375
1239.6415	18105.6375
1243.20374	18155.1375
1246.76355	18275.7375
1250.32093	18562.0375
1253.8759	19001.2375
1257.42845	19638.4375
1260.97859	20171.5375
1264.52631	20719.8375
1268.07163	21211.9375
1271.61453	21776.0375
1275.15503	22340.7375
1278.69312	22854.1375
1282.22882	23266.3375
1285.76211	23796.9375
1289.29301	24579.6375
1292.82151	25487.6375
1296.34761	26605.9375
1299.87133	28085.4375
1303.39266	30063.9375
1306.9116	32681.9375
1310.42815	35450.5375
1313.94233	37105.3375
1317.45412	36773.8375
1320.96354	35293.1375
1324.47058	33581.2375
1327.97525	32072.1375
1331.47754	31066.0375
1334.97747	30747.1375
1338.47502	30993.8375
1341.97022	31476.7375
1345.46305	31800.0375
1348.95352	32127.1375
1352.44163	32761.3375
1355.92738	34314.8375
1359.41078	37176.3375
1362.89183	39981.9375
1366.37053	39062.8375
1369.84688	34476.8375
1373.32088	29603.9375
1376.79254	26398.0375
1380.26186	24805.2375
1383.72883	24147.3375
1387.19347	23824.6375
1390.65578	23438.8375
1394.11575	23377.5375
1397.57339	23688.0375
1401.0287	24251.6375
1404.48168	24908.9375
1407.93234	25354.2375
1411.38068	25516.9375
1414.82669	25085.3375
1418.27039	24196.7375
1421.71177	23126.8375
1425.15083	22174.8375
1428.58758	21587.5375
1432.02203	21475.3375
1435.45416	21611.9375
1438.88399	21885.5375
1442.31151	22101.3375
1445.73673	22414.9375
1449.15965	22842.6375
1452.58027	23103.3375
1455.9986	23227.5375
1459.41463	23437.4375
1462.82837	23807.5375
1466.23982	24297.2375
1469.64898	24760.2375
1473.05586	24967.4375
1476.46045	24975.5375
1479.86276	24987.9375
1483.26279	25063.9375
1486.66054	25214.8375
1490.05602	25575.1375
1493.44922	26026.4375
1496.84016	26617.2375
1500.22882	27730.9375
1503.61521	29478.2375
1506.99934	31804.5375
1510.38121	33866.4375
1513.76081	34587.1375
1517.13816	33216.9375
1520.51324	30391.4375
1523.88607	27505.3375
1527.25665	25615.7375
1530.62498	24562.8375
1533.99105	24056.0375
1537.35488	23781.5375
1540.71647	23574.2375
1544.07581	23391.0375
1547.4329	23141.9375
1550.78776	22959.7375
1554.14038	22810.1375
1557.49077	22837.2375
1560.83892	23051.6375
1564.18484	23307.4375
1567.52853	23601.7375
1570.86999	23813.1375
1574.20922	24026.7375
1577.54624	24031.0375
1580.88103	23522.6375
1584.2136	22899.0375
1587.54395	22890.6375
1590.87208	23702.4375
1594.19801	25221.5375
1597.52172	27060.2375
1600.84321	27966.8375
1604.16251	27176.4375
1607.47959	25214.4375
1610.79447	22885.5375
1614.10715	20688.3375
1617.41763	19012.6375
1620.7259	17881.8375
1624.03199	17351.9375
1627.33587	17297.1375
1630.63757	17734.0375
1633.93707	18697.9375
1637.23439	20210.9375
1640.52951	22295.6375
1643.82246	24951.5375
1647.11321	27628.7375
1650.40179	29040.5375
1653.68819	27916.7375
1656.97241	24576.3375
1660.25446	20750.1375
1663.53433	17940.3375
1666.81203	16199.7375
1670.08756	15061.4375
1673.36092	14402.4375
1676.63211	13970.9375
1679.90115	13612.1375
1683.16801	13386.4375
1686.43272	13208.7375
1689.69527	13085.4375
1692.95567	12965.3375
1696.2139	12893.7375
1699.46999	12868.8375
1702.72392	12797.5375
1705.97571	12782.5375
1709.22535	12722.9375
1712.47284	12679.6375
1715.71819	12653.6375
1718.96139	12622.7375
1722.20246	12568.8375
1725.44139	12514.3375
1728.67818	12468.6375
1731.91284	12376.6375
1735.14537	12288.5375
1738.37576	12257.8375
1741.60403	12191.2375
1744.83017	12173.4375
1748.05418	12161.3375
1751.27607	12147.4375
1754.49584	12112.2375
1757.71349	12099.3375
1760.92903	12066.4375
1764.14244	12035.4375
1767.35375	12022.3375
1770.56294	11964.0375
1773.77002	11937.8375
1776.97499	11891.9375
1780.17785	11854.0375
1783.37861	11840.9375
1786.57727	11817.4375
1789.77382	11785.1375
1792.96828	11773.1375
1796.16064	11743.8375
1799.3509	11699.0375
1802.53907	11708.8375
1805.72514	11659.6375
1808.90913	11634.5375
1812.09102	11601.3375
1815.27083	11579.7375
1818.44856	11555.8375
1821.6242	11522.6375
1824.79776	11518.1375
1827.96924	11485.2375
1831.13864	11454.3375
1834.30597	11487.1375
1837.47122	11465.2375
1840.6344	11432.3375
1843.7955	11423.1375
1846.95454	11422.4375
1850.11151	11404.5375
1853.26642	11414.8375
1856.41926	11385.6375
1859.57004	11446.3375
1862.71876	11416.6375
1865.86542	11410.4375
1869.01003	11419.0375
1872.15258	11444.0375
1875.29308	11411.3375
1878.43152	11418.0375
1881.56792	11380.1375
1884.70227	11386.5375
1887.83457	11378.3375
1890.96482	11363.9375
1894.09304	11348.7375
1897.21921	11362.9375
1900.34335	11370.6375
1903.46544	11333.7375
1906.58551	11352.9375
1909.70353	11332.6375
1912.81953	11313.0375
1915.93349	11310.3375
1919.04543	11275.2375
1922.15534	11243.8375
1925.26322	11241.8375
1928.36908	11189.2375
1931.47292	11173.8375
1934.57473	11136.8375
1937.67453	11116.5375
1940.77232	11059.0375
1943.86808	11044.5375
1946.96184	11013.2375
1950.05358	10972.3375
1953.14331	10919.5375
1956.23103	10859.9375
1959.31675	10848.4375
1962.40046	10826.2375
1965.48217	10790.8375
1968.56188	10745.4375
1971.63959	10705.5375
1974.7153	10695.7375
1977.78901	10671.2375
1980.86073	10601.3375
1983.93046	10585.5375
1986.99819	10551.6375
1990.06394	10518.4375
1993.1277	10484.4375
1996.18947	10410.5375
1999.24925	10425.6375
2002.30706	10390.7375
2005.36288	10356.4375
2008.41672	10300.5375
2011.46859	10278.0375
2014.51848	10247.8375
2017.56639	10239.9375
2020.61233	10204.8375
2023.6563	10171.6375
2026.6983	10155.0375
2029.73833	10118.4375
2032.7764	10099.3375
2035.8125	10076.1375
2038.84664	10041.9375
2041.87881	10054.2375
2044.90903	10027.7375
2047.93729	10004.8375
2050.96359	10020.8375
2053.98794	10030.8375
2057.01034	9995.2375
2060.03078	9973.9375
2063.04927	9943.9375
2066.06582	9921.4375
2069.08042	9905.7375
2072.09307	9894.9375
2075.10378	9899.1375
2078.11255	9907.3375
2081.11938	9878.7375
2084.12426	9882.8375
2087.12722	9846.0375
2090.12824	9836.8375
2093.12732	9851.4375
2096.12447	9838.5375
2099.11969	9832.2375
2102.11299	9847.8375
2105.10435	9817.0375
2108.09379	9815.3375
2111.08131	9845.2375
2114.0669	9816.4375
2117.05057	9840.5375
2120.03233	9848.5375
2123.01216	9853.2375
2125.99008	9841.4375
2128.96609	9872.9375
2131.94018	9891.2375
2134.91236	9885.1375
2137.88263	9886.5375
2140.851	9876.5375
2143.81746	9862.1375
2146.78201	9862.2375
2149.74466	9870.6375
2152.7054	9856.3375
2155.66425	9845.4375
2158.6212	9840.3375
2161.57625	9816.0375
2164.52941	9814.9375
2167.48067	9801.9375
2170.43004	9810.0375
2173.37752	9798.6375
2176.32311	9787.6375
2179.26681	9818.9375
2182.20863	9792.2375
2185.14856	9794.6375
2188.08661	9782.5375
2191.02278	9785.9375
2193.95707	9776.5375
2196.88948	9766.5375
2199.82001	9780.1375
2202.74867	9755.1375
2205.67545	9733.4375
2208.60037	9723.3375
2211.52341	9728.1375
2214.44458	9735.8375
2217.36388	9680.1375
2220.28132	9680.6375
2223.1969	9660.3375
2226.11061	9650.3375
2229.02246	9645.0375
2231.93245	9603.6375
2234.84058	9614.1375
2237.74686	9563.4375
2240.65128	9573.1375
2243.55385	9540.7375
2246.45456	9541.7375
2249.35343	9503.9375
2252.25044	9514.8375
2255.14561	9500.9375
2258.03893	9508.1375
2260.93041	9494.9375
2263.82004	9453.4375
2266.70783	9417.8375
2269.59378	9369.4375
2272.4779	9365.2375
2275.36017	9329.8375
2278.24061	9302.0375
2281.11922	9296.6375
2283.996	9300.3375
2286.87094	9281.6375
2289.74405	9221.2375
2292.61534	9221.9375
2295.4848	9236.3375
2298.35243	9220.2375
2301.21824	9213.6375
2304.08223	9212.9375
2306.94439	9214.3375
2309.80474	9193.7375
2312.66327	9192.6375
2315.51999	9205.4375
2318.37489	9188.2375
2321.22797	9196.9375
2324.07925	9181.9375
2326.92871	9174.7375
2329.77637	9151.3375
2332.62222	9152.1375
2335.46626	9147.1375
2338.3085	9171.9375
2341.14893	9134.0375
2343.98756	9153.8375
2346.8244	9141.6375
2349.65943	9127.1375
2352.49267	9129.7375
2355.32411	9153.0375
2358.15376	9153.8375
2360.98161	9146.4375
2363.80768	9139.7375
2366.63195	9125.4375
2369.45444	9103.6375
2372.27514	9097.1375
2375.09405	9074.0375
2377.91118	9035.4375
2380.72652	9016.5375
2383.54009	8982.8375
2386.35187	8968.9375
2389.16188	8933.7375
2391.97011	8918.1375
2394.77657	8912.7375
2397.58125	8896.8375
2400.38416	8876.9375
2403.18529	8871.7375
2405.98466	8830.2375
2408.78226	8823.6375
2411.57809	8802.2375
2414.37216	8800.3375
2417.16446	8759.0375
2419.955	8769.1375
2422.74378	8763.4375
2425.5308	8725.7375
2428.31606	8704.8375
2431.09956	8740.8375
2433.88131	8692.4375
2436.6613	8731.4375
2439.43954	8702.5375
2442.21603	8683.1375
2444.99077	8663.3375
2447.76377	8692.9375
2450.53501	8689.4375
2453.30451	8648.4375
2456.07226	8704.1375
2458.83827	8682.7375
2461.60254	8687.2375
2464.36507	8674.8375
2467.12586	8648.7375
2469.88492	8665.9375
2472.64224	8670.5375
2475.39782	8660.7375
2478.15167	8690.7375
2480.90379	8667.6375
2483.65417	8708.8375
2486.40283	8693.4375
2489.14976	8708.0375
2491.89497	8690.2375
2494.63845	8728.0375
2497.3802	8718.5375
2500.12024	8729.5375
2502.85855	8708.2375
2505.59514	8662.9375
2508.33002	8668.6375
2511.06318	8638.1375
2513.79462	8618.7375
2516.52435	8628.9375
2519.25237	8586.0375
2521.97867	8563.7375
2524.70327	8559.9375
2527.42616	8539.5375
2530.14734	8538.2375
2532.86681	8510.4375
2535.58458	8521.3375
2538.30065	8506.0375
2541.01501	8522.2375
2543.72768	8506.8375
2546.43864	8477.2375
2549.14791	8500.8375
2551.85548	8502.2375
2554.56136	8486.4375
2557.26554	8458.8375
2559.96803	8444.9375
2562.66883	8451.1375
2565.36794	8454.6375
2568.06536	8424.6375
2570.7611	8425.4375
2573.45514	8425.6375
2576.14751	8413.9375
2578.83819	8406.5375
2581.52719	8424.6375
2584.21451	8424.0375
2586.90015	8386.2375
2589.58411	8363.0375
2592.2664	8369.7375
2594.94701	8354.4375
2597.62594	8373.2375
2600.30321	8338.5375
2602.9788	8336.3375
2605.65273	8335.9375
2608.32498	8357.4375
2610.99557	8353.7375
2613.66449	8336.6375
2616.33175	8345.2375
2618.99734	8336.3375
2621.66128	8319.4375
2624.32355	8315.9375
2626.98416	8353.2375
2629.64311	8331.6375
2632.30041	8322.2375
2634.95605	8305.4375
2637.61004	8333.3375
2640.26238	8285.3375
2642.91306	8283.7375
2645.56209	8280.4375
2648.20948	8280.6375
2650.85521	8246.3375
2653.4993	8267.9375
2656.14175	8254.4375
2658.78255	8272.9375
2661.42171	8250.3375
2664.05923	8280.4375
2666.6951	8305.1375
2669.32934	8295.1375
2671.96194	8278.7375
2674.59291	8295.2375
2677.22224	8295.2375
2679.84993	8278.2375
2682.476	8283.5375
2685.10043	8274.0375
2687.72324	8259.7375
2690.34441	8263.8375
2692.96396	8243.2375
2695.58188	8256.9375
2698.19818	8245.7375
2700.81285	8250.5375
2703.4259	8258.7375
2706.03733	8315.0375
2708.64714	8298.1375
2711.25533	8290.5375
2713.86191	8253.3375
2716.46687	8271.0375
2719.07021	8279.9375
2721.67194	8265.6375
2724.27206	8264.1375
2726.87057	8273.4375
2729.46747	8269.5375
2732.06276	8268.6375
2734.65644	8268.2375
2737.24852	8283.9375
2739.83899	8256.7375
2742.42786	8261.2375
2745.01513	8257.2375
2747.60079	8233.5375
2750.18486	8241.7375
2752.76733	8250.1375
2755.3482	8219.4375
2757.92747	8231.6375
2760.50515	8214.9375
2763.08123	8229.1375
2765.65573	8212.5375
2768.22863	8213.6375
2770.79994	8195.9375
2773.36967	8203.7375
2775.9378	8195.1375
2778.50435	8203.3375
2781.06932	8199.4375
2783.6327	8195.5375
2786.1945	8191.3375
2788.75471	8196.0375
2791.31335	8160.2375
2793.87041	8131.3375
2796.42589	8136.0375
2798.97979	8129.1375
2801.53212	8106.8375
2804.08288	8122.8375
2806.63206	8103.0375
2809.17967	8074.7375
2811.72571	8078.3375
2814.27018	8079.6375
2816.81308	8082.5375
2819.35442	8041.3375
2821.89419	8063.7375
2824.43239	8083.5375
2826.96904	8072.8375
2829.50412	8056.2375
2832.03763	8041.6375
2834.56959	8058.3375
2837.1	8036.0375
2839.62884	8048.6375
2842.15613	8042.2375
2844.68186	8066.6375
2847.20604	8059.5375
2849.72867	8077.2375
2852.24974	8059.7375
2854.76927	8069.0375
2857.28724	8073.7375
2859.80367	8043.0375
2862.31855	8045.3375
2864.83189	8026.6375
2867.34368	8036.2375
2869.85393	8003.1375
2872.36264	7983.4375
2874.8698	8012.9375
2877.37543	8012.3375
2879.87952	8020.2375
2882.38207	8021.2375
2884.88308	7995.7375
2887.38256	8011.9375
2889.88051	8015.2375
2892.37692	8021.2375
2894.8718	7992.5375
2897.36515	8013.6375
2899.85698	8022.4375
2902.34727	8027.6375
2904.83604	8018.4375
2907.32328	8038.1375
2909.809	8033.6375
2912.29319	8038.8375
2914.77587	8035.5375
2917.25702	8055.8375
2919.73665	8051.2375
2922.21476	8033.7375
2924.69136	8037.2375
2927.16644	8018.1375
2929.64	8022.4375
2932.11205	8004.9375
2934.58258	7981.2375
2937.05161	7991.7375
2939.51912	7985.5375
2941.98513	7952.9375
2944.44962	7946.7375
2946.91261	7921.9375
2949.37409	7923.6375
2951.83407	7897.1375
2954.29254	7887.4375
2956.74951	7869.5375
2959.20498	7852.7375
2961.65895	7808.3375
2964.11142	7798.6375
2966.56239	7771.5375
2969.01186	7777.0375
2971.45984	7743.0375
2973.90632	7707.8375
2976.35131	7680.7375
2978.7948	7657.8375
2981.23681	7656.3375
2983.67732	7628.9375
2986.11635	7601.6375
2988.55388	7591.4375
2990.98993	7579.1375
2993.4245	7574.4375
2995.85758	7558.0375
2998.28917	7528.2375
3000.71928	7529.9375
3003.14791	7516.9375
3005.57506	7506.1375
3008.00073	7482.7375
3010.42493	7475.2375
3012.84764	7469.6375
3015.26888	7455.1375
3017.68865	7427.5375
3020.10694	7401.2375
3022.52376	7405.3375
3024.9391	7397.7375
3027.35298	7372.2375
3029.76539	7373.6375
3032.17632	7356.4375
3034.5858	7342.8375
3036.9938	7300.5375
3039.40034	7286.9375
3041.80542	7307.3375
3044.20903	7288.8375
3046.61118	7268.0375
3049.01187	7252.5375
3051.4111	7240.3375
3053.80888	7211.0375
3056.20519	7210.0375
3058.60005	7183.4375
3060.99345	7172.3375
3063.3854	7163.9375
3065.7759	7139.5375
3068.16494	7097.0375
3070.55254	7081.4375
3072.93868	7073.5375
3075.32338	7038.5375
3077.70662	7056.1375
3080.08842	7028.6375
3082.46878	7006.1375
3084.84769	6967.4375
3087.22515	6959.8375
3089.60118	6966.7375
3091.97576	6962.6375
3094.3489	6954.1375
3096.72061	6970.4375
3099.09087	6963.4375
3101.4597	6933.2375
3103.82709	6935.1375
3106.19305	6910.3375
3108.55757	6918.0375
3110.92066	6889.7375
3113.28232	6867.0375
3115.64255	6849.8375
3118.00134	6845.9375
3120.35871	6835.1375
3122.71466	6832.4375
3125.06917	6820.1375
3127.42226	6820.2375
3129.77393	6805.0375
3132.12417	6790.3375
3134.47299	6785.8375
3136.82039	6784.9375
3139.16636	6792.3375
3141.51092	6792.1375
3143.85406	6796.1375
3146.19579	6792.8375
3148.53609	6774.5375
3150.87499	6782.5375
3153.21246	6770.1375
3155.54853	6790.0375
3157.88318	6776.3375
3160.21642	6795.3375
3162.54826	6772.7375
3164.87868	6773.4375
3167.2077	6765.1375
3169.5353	6766.8375
3171.86151	6751.9375
3174.18631	6757.8375
3176.5097	6740.9375
3178.83169	6726.0375
3181.15228	6735.5375
3183.47147	6717.7375
3185.78926	6720.1375
3188.10565	6714.8375
3190.42065	6727.9375
3192.73424	6702.5375
3195.04645	6703.7375
3197.35725	6704.7375
3199.66667	6718.2375
3201.97469	6744.4375
3204.28132	6723.2375
3206.58656	6743.9375
3208.8904	6721.8375
3211.19287	6720.8375
3213.49394	6715.5375
3215.79363	6707.8375
3218.09193	6722.9375
3220.38884	6718.1375
3222.68438	6724.8375
3224.97853	6727.5375
3227.2713	6710.5375
3229.56269	6690.2375
3231.8527	6699.2375
3234.14133	6702.3375
3236.42858	6671.5375
3238.71446	6678.4375
3240.99896	6652.2375
3243.28209	6645.2375
3245.56384	6642.1375
3247.84423	6653.4375
3250.12324	6633.5375
3252.40088	6608.9375
3254.67715	6604.2375
3256.95205	6594.4375
3259.22558	6592.1375
3261.49775	6586.0375
3263.76855	6570.3375
3266.03799	6528.5375
3268.30606	6550.1375
3270.57277	6531.4375
3272.83812	6525.0375
3275.10211	6513.1375
3277.36474	6507.0375
3279.62601	6509.9375
3281.88593	6502.0375
3284.14448	6512.1375
3286.40168	6502.4375
3288.65753	6478.4375
3290.91202	6468.7375
3293.16516	6465.2375
3295.41695	6451.7375
3297.66738	6412.1375
3299.91647	6375.6375
3302.16421	6334.1375
3304.4106	6317.0375
3306.65564	6285.2375
3308.89933	6219.4375
3311.14169	6202.9375
3313.38269	6156.3375
3315.62236	6124.9375
3317.86068	6073.9375
3320.09766	6028.8375
3322.3333	5981.9375
3324.5676	5966.7375
3326.80056	5886.2375
3329.03219	5845.5375
3331.26248	1.1375
3333.49143	-0.0625
3335.71905	0.1375
