Data from AgNPs_FTO_APTES_UA_1um_CRN_0.1mM_R6G_10uM_NaF_0.1M_Addition_RamanShift__2__11-36-28-986.txt Node

Date: Tue Dec 21 11:36:28 GMT 2021
User: TCL
Spectrometer: QEP01345
Trigger mode: 4
Integration Time (sec): 7.000000E0
Scans to average: 10
Electric dark correction enabled: true
Nonlinearity correction enabled: false
Boxcar width: 0
XAxis mode: Raman Shifts
Number of Pixels in Spectrum: 1044
>>>>>Begin Spectral Data<<<<<
46.04893	-0.0625
50.45542	-1.5625
54.85868	-0.5625
59.25871	0.4375
63.6555	38.6375
68.04907	44.9375
72.43941	43.7375
76.82654	44.6375
81.21044	53.1375
85.59113	50.9375
89.96862	52.9375
94.34289	55.6375
98.71396	53.8375
103.08183	58.7375
107.4465	63.0375
111.80798	63.8375
116.16626	62.9375
120.52136	65.7375
124.87327	64.3375
129.222	66.6375
133.56755	70.4375
137.90993	77.6375
142.24913	80.8375
146.58517	89.0375
150.91804	100.9375
155.24774	119.0375
159.57429	142.9375
163.89768	184.3375
168.21792	241.9375
172.53501	320.5375
176.84895	438.9375
181.15975	626.4375
185.46741	872.2375
189.77193	1202.0375
194.07331	1624.5375
198.37157	2088.0375
202.6667	2598.3375
206.9587	3117.5375
211.24758	3633.9375
215.53334	4177.0375
219.81599	4738.4375
224.09553	5371.8375
228.37195	6057.3375
232.64527	6815.4375
236.91549	7553.0375
241.18261	8237.6375
245.44663	8782.2375
249.70755	9227.5375
253.96539	9574.0375
258.22014	9857.7375
262.4718	10058.7375
266.72039	10203.3375
270.96589	10229.0375
275.20832	10142.6375
279.44768	9928.0375
283.68397	9714.1375
287.91719	9557.8375
292.14735	9504.8375
296.37445	9559.9375
300.59849	9801.9375
304.81948	10114.5375
309.03742	10458.9375
313.25231	10565.3375
317.46415	10381.3375
321.67296	9938.1375
325.87872	9489.1375
330.08145	9227.4375
334.28114	9150.3375
338.47781	9212.7375
342.67145	9371.5375
346.86207	9635.5375
351.04966	9981.8375
355.23424	10311.6375
359.4158	10561.8375
363.59435	10669.2375
367.76989	10654.6375
371.94243	10534.3375
376.11196	10452.4375
380.27849	10388.0375
384.44203	10368.3375
388.60257	10387.4375
392.76012	10453.0375
396.91468	10576.7375
401.06626	10833.0375
405.21485	11052.6375
409.36047	10948.3375
413.50311	10613.3375
417.64277	10279.6375
421.77947	10121.6375
425.9132	10068.3375
430.04396	10045.2375
434.17176	10030.0375
438.2966	10109.2375
442.41849	10333.9375
446.53742	10757.1375
450.6534	11208.3375
454.76644	11322.8375
458.87653	11188.4375
462.98368	10894.4375
467.08789	10607.9375
471.18916	10348.5375
475.2875	10012.2375
479.38291	9767.1375
483.4754	9609.0375
487.56496	9501.5375
491.6516	9470.4375
495.73531	9448.7375
499.81612	9492.8375
503.89401	9545.2375
507.96899	9584.2375
512.04106	9577.3375
516.11023	9540.1375
520.1765	9551.2375
524.23987	9604.5375
528.30034	9639.1375
532.35792	9598.7375
536.41261	9375.3375
540.46441	9104.0375
544.51333	8949.4375
548.55936	9006.1375
552.60252	9264.6375
556.64279	9584.6375
560.6802	9828.1375
564.71473	9858.6375
568.7464	10015.6375
572.7752	10297.4375
576.80114	10348.6375
580.82422	10538.8375
584.84444	11089.2375
588.86181	11938.9375
592.87633	12837.6375
596.888	13123.4375
600.89682	12433.3375
604.9028	12083.9375
608.90594	13761.4375
612.90624	16488.1375
616.90371	15938.8375
620.89834	11818.3375
624.89015	9639.6375
628.87913	9287.0375
632.86528	9419.3375
636.84862	9540.8375
640.82913	9368.5375
644.80683	8984.1375
648.78172	8725.8375
652.75379	8724.8375
656.72306	8945.8375
660.68952	9267.1375
664.65319	9151.1375
668.61405	8793.7375
672.57211	8684.4375
676.52738	8758.6375
680.47986	8801.5375
684.42955	8664.9375
688.37646	8511.0375
692.32058	8473.1375
696.26192	8573.0375
700.20048	8745.4375
704.13626	8834.7375
708.06928	8833.5375
711.99952	8757.4375
715.927	8753.9375
719.85171	8807.4375
723.77365	8806.0375
727.69284	8658.0375
731.60928	8537.8375
735.52295	8528.6375
739.43388	8527.6375
743.34206	8553.0375
747.24749	8640.0375
751.15017	8723.1375
755.05012	8897.1375
758.94733	9276.3375
762.8418	10141.4375
766.73354	11646.8375
770.62254	13109.3375
774.50882	13559.4375
778.39237	12879.8375
782.27321	11545.6375
786.15132	10168.0375
790.02671	9252.2375
793.89938	8816.1375
797.76935	8631.0375
801.6366	8545.2375
805.50115	8451.5375
809.36299	8401.2375
813.22213	8287.8375
817.07857	8220.7375
820.93231	8177.5375
824.78336	8151.9375
828.63172	8168.9375
832.47738	8191.7375
836.32036	8207.6375
840.16066	8189.8375
843.99827	8200.8375
847.8332	8156.2375
851.66546	8120.0375
855.49504	8102.2375
859.32195	8097.4375
863.1462	8075.2375
866.96777	8041.6375
870.78668	8019.6375
874.60293	8031.1375
878.41652	8038.2375
882.22745	8100.5375
886.03573	8181.3375
889.84136	8160.8375
893.64433	8115.7375
897.44466	8098.2375
901.24235	8077.4375
905.0374	8037.8375
908.8298	7961.8375
912.61957	7926.2375
916.40671	7967.8375
920.19121	8072.9375
923.97308	8230.8375
927.75233	8426.3375
931.52895	8536.9375
935.30295	8421.9375
939.07433	8113.7375
942.84309	7847.0375
946.60924	7734.5375
950.37278	7647.2375
954.13371	7614.0375
957.89203	7584.8375
961.64774	7555.3375
965.40086	7559.6375
969.15137	7540.6375
972.89929	7489.5375
976.64461	7481.6375
980.38733	7469.1375
984.12747	7487.2375
987.86502	7535.3375
991.59999	7621.5375
995.33237	7749.8375
999.06217	7974.3375
1002.78939	8236.2375
1006.51404	8474.6375
1010.23611	8620.3375
1013.95561	8778.9375
1017.67255	8851.8375
1021.38692	8751.9375
1025.09872	8545.2375
1028.80796	8450.6375
1032.51465	8536.5375
1036.21877	8727.5375
1039.92035	8833.9375
1043.61937	8799.9375
1047.31584	8698.1375
1051.00976	8532.0375
1054.70114	8424.8375
1058.38998	8351.8375
1062.07627	8328.9375
1065.76003	8317.3375
1069.44126	8411.0375
1073.11995	8613.2375
1076.79611	8859.0375
1080.46974	8992.1375
1084.14085	9103.7375
1087.80943	9311.0375
1091.47549	9445.4375
1095.13903	9350.0375
1098.80005	9062.0375
1102.45857	8721.7375
1106.11456	8497.9375
1109.76805	8447.9375
1113.41903	8525.1375
1117.06751	8687.9375
1120.71348	8944.3375
1124.35696	9292.8375
1127.99793	9615.9375
1131.63641	9693.8375
1135.2724	9421.4375
1138.90589	9136.7375
1142.5369	8949.2375
1146.16542	8887.0375
1149.79145	8880.5375
1153.415	8898.9375
1157.03607	8972.3375
1160.65467	9206.6375
1164.27079	9688.6375
1167.88443	10426.0375
1171.49561	11425.9375
1175.10432	12844.8375
1178.71056	14669.9375
1182.31434	16171.7375
1185.91565	16615.8375
1189.51451	16098.5375
1193.11091	15033.3375
1196.70485	13910.3375
1200.29634	12877.5375
1203.88538	12012.7375
1207.47197	11282.3375
1211.05612	10718.7375
1214.63782	10368.4375
1218.21708	10232.5375
1221.79391	10315.0375
1225.36829	10496.9375
1228.94024	10608.2375
1232.50976	10448.7375
1236.07685	10192.7375
1239.6415	9953.4375
1243.20374	9866.6375
1246.76355	9887.8375
1250.32093	9985.9375
1253.8759	10237.7375
1257.42845	10613.6375
1260.97859	11053.1375
1264.52631	11543.8375
1268.07163	11976.3375
1271.61453	12431.2375
1275.15503	12822.8375
1278.69312	13135.9375
1282.22882	13548.1375
1285.76211	14096.2375
1289.29301	14820.7375
1292.82151	15534.2375
1296.34761	16276.5375
1299.87133	17303.5375
1303.39266	18729.2375
1306.9116	20613.3375
1310.42815	22673.2375
1313.94233	24129.5375
1317.45412	23896.1375
1320.96354	22336.5375
1324.47058	20498.0375
1327.97525	18915.8375
1331.47754	17743.6375
1334.97747	16984.0375
1338.47502	16512.8375
1341.97022	16200.4375
1345.46305	16216.4375
1348.95352	16795.6375
1352.44163	17997.6375
1355.92738	19876.8375
1359.41078	22485.2375
1362.89183	24934.0375
1366.37053	25010.8375
1369.84688	22108.2375
1373.32088	18198.6375
1376.79254	15530.9375
1380.26186	14280.6375
1383.72883	13743.2375
1387.19347	13231.0375
1390.65578	12682.6375
1394.11575	12363.3375
1397.57339	12415.4375
1401.0287	12557.5375
1404.48168	12639.5375
1407.93234	12592.1375
1411.38068	12531.5375
1414.82669	12394.9375
1418.27039	12220.4375
1421.71177	11976.5375
1425.15083	11656.0375
1428.58758	11456.3375
1432.02203	11549.2375
1435.45416	11844.7375
1438.88399	12077.3375
1442.31151	12143.2375
1445.73673	12193.4375
1449.15965	12241.1375
1452.58027	12139.6375
1455.9986	11958.4375
1459.41463	11880.9375
1462.82837	12016.5375
1466.23982	12373.2375
1469.64898	12740.7375
1473.05586	13007.6375
1476.46045	13227.5375
1479.86276	13396.9375
1483.26279	13563.6375
1486.66054	13818.5375
1490.05602	14264.6375
1493.44922	14880.3375
1496.84016	15645.9375
1500.22882	16777.2375
1503.61521	18309.7375
1506.99934	20068.3375
1510.38121	21605.3375
1513.76081	22106.9375
1517.13816	20978.7375
1520.51324	18618.6375
1523.88607	16442.2375
1527.25665	15015.4375
1530.62498	14237.8375
1533.99105	13755.8375
1537.35488	13360.7375
1540.71647	12964.2375
1544.07581	12537.0375
1547.4329	12182.1375
1550.78776	11890.8375
1554.14038	11683.7375
1557.49077	11623.3375
1560.83892	11681.8375
1564.18484	11967.7375
1567.52853	12297.1375
1570.86999	12679.6375
1574.20922	13017.3375
1577.54624	12993.6375
1580.88103	12616.3375
1584.2136	12037.0375
1587.54395	11875.1375
1590.87208	12297.5375
1594.19801	13224.3375
1597.52172	14439.5375
1600.84321	15170.7375
1604.16251	14830.6375
1607.47959	13618.7375
1610.79447	12153.0375
1614.10715	10781.7375
1617.41763	9799.0375
1620.7259	9208.5375
1624.03199	8948.4375
1627.33587	8969.8375
1630.63757	9262.2375
1633.93707	9898.9375
1637.23439	11014.2375
1640.52951	12852.5375
1643.82246	15488.0375
1647.11321	18234.3375
1650.40179	19683.1375
1653.68819	18662.5375
1656.97241	15706.5375
1660.25446	12584.8375
1663.53433	10321.8375
1666.81203	8988.1375
1670.08756	8261.3375
1673.36092	7841.7375
1676.63211	7584.7375
1679.90115	7393.4375
1683.16801	7236.8375
1686.43272	7137.1375
1689.69527	7060.8375
1692.95567	7013.0375
1696.2139	6984.4375
1699.46999	6958.0375
1702.72392	6935.6375
1705.97571	6901.5375
1709.22535	6883.1375
1712.47284	6863.8375
1715.71819	6876.6375
1718.96139	6852.9375
1722.20246	6818.7375
1725.44139	6782.5375
1728.67818	6741.7375
1731.91284	6690.5375
1735.14537	6648.3375
1738.37576	6619.7375
1741.60403	6590.3375
1744.83017	6589.3375
1748.05418	6591.1375
1751.27607	6601.1375
1754.49584	6619.6375
1757.71349	6640.1375
1760.92903	6605.9375
1764.14244	6563.8375
1767.35375	6553.2375
1770.56294	6502.3375
1773.77002	6429.2375
1776.97499	6422.7375
1780.17785	6367.0375
1783.37861	6353.6375
1786.57727	6323.3375
1789.77382	6305.9375
1792.96828	6295.0375
1796.16064	6264.5375
1799.3509	6235.9375
1802.53907	6233.7375
1805.72514	6218.6375
1808.90913	6183.1375
1812.09102	6171.1375
1815.27083	6152.1375
1818.44856	6150.3375
1821.6242	6142.1375
1824.79776	6142.4375
1827.96924	6110.2375
1831.13864	6130.6375
1834.30597	6112.4375
1837.47122	6111.3375
1840.6344	6114.7375
1843.7955	6117.9375
1846.95454	6100.7375
1850.11151	6131.3375
1853.26642	6099.3375
1856.41926	6108.2375
1859.57004	6095.2375
1862.71876	6094.5375
1865.86542	6082.2375
1869.01003	6063.3375
1872.15258	6082.2375
1875.29308	6076.3375
1878.43152	6050.4375
1881.56792	6048.3375
1884.70227	6048.0375
1887.83457	6022.3375
1890.96482	6022.4375
1894.09304	6002.2375
1897.21921	6026.0375
1900.34335	6004.5375
1903.46544	6006.7375
1906.58551	5988.7375
1909.70353	6011.2375
1912.81953	5975.4375
1915.93349	5963.2375
1919.04543	5931.5375
1922.15534	5904.8375
1925.26322	5922.8375
1928.36908	5893.5375
1931.47292	5890.7375
1934.57473	5856.8375
1937.67453	5840.3375
1940.77232	5827.3375
1943.86808	5812.2375
1946.96184	5780.4375
1950.05358	5765.5375
1953.14331	5758.8375
1956.23103	5729.8375
1959.31675	5716.6375
1962.40046	5725.3375
1965.48217	5710.0375
1968.56188	5687.3375
1971.63959	5681.7375
1974.7153	5673.1375
1977.78901	5642.7375
1980.86073	5613.1375
1983.93046	5603.1375
1986.99819	5575.0375
1990.06394	5549.1375
1993.1277	5531.5375
1996.18947	5507.4375
1999.24925	5507.6375
2002.30706	5488.5375
2005.36288	5475.4375
2008.41672	5455.9375
2011.46859	5459.0375
2014.51848	5436.9375
2017.56639	5416.4375
2020.61233	5408.4375
2023.6563	5383.5375
2026.6983	5376.3375
2029.73833	5373.6375
2032.7764	5373.1375
2035.8125	5345.5375
2038.84664	5343.2375
2041.87881	5330.3375
2044.90903	5321.2375
2047.93729	5308.1375
2050.96359	5314.2375
2053.98794	5324.5375
2057.01034	5312.7375
2060.03078	5290.5375
2063.04927	5275.3375
2066.06582	5278.5375
2069.08042	5289.6375
2072.09307	5270.4375
2075.10378	5262.8375
2078.11255	5268.3375
2081.11938	5266.2375
2084.12426	5275.4375
2087.12722	5269.1375
2090.12824	5249.6375
2093.12732	5266.4375
2096.12447	5273.5375
2099.11969	5265.9375
2102.11299	5254.1375
2105.10435	5280.4375
2108.09379	5277.2375
2111.08131	5265.6375
2114.0669	5278.8375
2117.05057	5292.4375
2120.03233	5277.8375
2123.01216	5294.6375
2125.99008	5309.2375
2128.96609	5305.4375
2131.94018	5300.4375
2134.91236	5292.3375
2137.88263	5301.7375
2140.851	5294.5375
2143.81746	5300.2375
2146.78201	5294.5375
2149.74466	5303.3375
2152.7054	5303.4375
2155.66425	5282.3375
2158.6212	5273.9375
2161.57625	5292.4375
2164.52941	5292.1375
2167.48067	5282.2375
2170.43004	5276.2375
2173.37752	5285.1375
2176.32311	5277.4375
2179.26681	5295.5375
2182.20863	5282.8375
2185.14856	5278.9375
2188.08661	5289.5375
2191.02278	5289.6375
2193.95707	5279.2375
2196.88948	5278.2375
2199.82001	5273.5375
2202.74867	5282.6375
2205.67545	5271.0375
2208.60037	5261.3375
2211.52341	5247.7375
2214.44458	5242.6375
2217.36388	5258.0375
2220.28132	5236.3375
2223.1969	5214.6375
2226.11061	5216.3375
2229.02246	5197.5375
2231.93245	5201.1375
2234.84058	5191.8375
2237.74686	5196.9375
2240.65128	5194.6375
2243.55385	5186.9375
2246.45456	5179.3375
2249.35343	5153.0375
2252.25044	5158.2375
2255.14561	5140.2375
2258.03893	5158.1375
2260.93041	5155.8375
2263.82004	5125.2375
2266.70783	5124.3375
2269.59378	5115.9375
2272.4779	5105.6375
2275.36017	5090.5375
2278.24061	5089.9375
2281.11922	5071.3375
2283.996	5066.0375
2286.87094	5050.0375
2289.74405	5029.3375
2292.61534	5030.7375
2295.4848	5045.2375
2298.35243	5032.3375
2301.21824	5026.9375
2304.08223	5014.6375
2306.94439	5029.7375
2309.80474	5027.9375
2312.66327	5029.5375
2315.51999	5017.3375
2318.37489	5034.6375
2321.22797	5014.0375
2324.07925	5007.7375
2326.92871	5004.8375
2329.77637	5018.8375
2332.62222	5001.2375
2335.46626	5014.8375
2338.3085	5016.6375
2341.14893	5010.6375
2343.98756	5012.3375
2346.8244	5014.0375
2349.65943	5002.4375
2352.49267	5012.4375
2355.32411	4999.8375
2358.15376	5001.6375
2360.98161	5013.4375
2363.80768	5012.0375
2366.63195	5020.6375
2369.45444	5006.1375
2372.27514	4992.8375
2375.09405	4986.9375
2377.91118	4981.4375
2380.72652	4975.6375
2383.54009	4944.6375
2386.35187	4932.7375
2389.16188	4926.6375
2391.97011	4919.3375
2394.77657	4899.1375
2397.58125	4894.9375
2400.38416	4898.0375
2403.18529	4884.7375
2405.98466	4872.3375
2408.78226	4873.8375
2411.57809	4849.5375
2414.37216	4838.4375
2417.16446	4850.1375
2419.955	4829.6375
2422.74378	4834.8375
2425.5308	4824.3375
2428.31606	4845.4375
2431.09956	4836.3375
2433.88131	4833.6375
2436.6613	4848.4375
2439.43954	4833.8375
2442.21603	4818.6375
2444.99077	4835.7375
2447.76377	4833.8375
2450.53501	4825.7375
2453.30451	4829.9375
2456.07226	4832.3375
2458.83827	4847.4375
2461.60254	4851.7375
2464.36507	4843.4375
2467.12586	4846.1375
2469.88492	4834.4375
2472.64224	4850.5375
2475.39782	4838.4375
2478.15167	4852.5375
2480.90379	4852.4375
2483.65417	4868.8375
2486.40283	4864.6375
2489.14976	4864.4375
2491.89497	4864.5375
2494.63845	4876.2375
2497.3802	4882.8375
2500.12024	4879.1375
2502.85855	4840.9375
2505.59514	4843.9375
2508.33002	4836.4375
2511.06318	4821.0375
2513.79462	4797.5375
2516.52435	4797.4375
2519.25237	4786.9375
2521.97867	4780.7375
2524.70327	4773.6375
2527.42616	4765.2375
2530.14734	4751.5375
2532.86681	4752.4375
2535.58458	4763.8375
2538.30065	4742.9375
2541.01501	4748.4375
2543.72768	4730.4375
2546.43864	4739.4375
2549.14791	4745.3375
2551.85548	4737.1375
2554.56136	4727.2375
2557.26554	4735.1375
2559.96803	4738.6375
2562.66883	4721.2375
2565.36794	4725.4375
2568.06536	4731.0375
2570.7611	4722.0375
2573.45514	4712.9375
2576.14751	4716.3375
2578.83819	4717.2375
2581.52719	4720.7375
2584.21451	4700.9375
2586.90015	4698.7375
2589.58411	4700.3375
2592.2664	4688.2375
2594.94701	4673.1375
2597.62594	4689.5375
2600.30321	4667.3375
2602.9788	4666.3375
2605.65273	4660.7375
2608.32498	4652.3375
2610.99557	4661.9375
2613.66449	4651.4375
2616.33175	4656.6375
2618.99734	4662.2375
2621.66128	4651.9375
2624.32355	4667.8375
2626.98416	4637.6375
2629.64311	4623.9375
2632.30041	4632.5375
2634.95605	4634.8375
2637.61004	4627.7375
2640.26238	4618.8375
2642.91306	4605.7375
2645.56209	4597.2375
2648.20948	4601.6375
2650.85521	4594.3375
2653.4993	4602.4375
2656.14175	4589.4375
2658.78255	4608.7375
2661.42171	4599.4375
2664.05923	4618.7375
2666.6951	4635.2375
2669.32934	4635.3375
2671.96194	4634.3375
2674.59291	4645.4375
2677.22224	4634.1375
2679.84993	4642.9375
2682.476	4637.6375
2685.10043	4640.4375
2687.72324	4610.1375
2690.34441	4610.1375
2692.96396	4612.9375
2695.58188	4609.6375
2698.19818	4614.7375
2700.81285	4616.0375
2703.4259	4638.2375
2706.03733	4699.3375
2708.64714	4678.9375
2711.25533	4647.0375
2713.86191	4660.1375
2716.46687	4656.4375
2719.07021	4658.1375
2721.67194	4659.3375
2724.27206	4635.1375
2726.87057	4653.2375
2729.46747	4634.9375
2732.06276	4661.2375
2734.65644	4651.8375
2737.24852	4650.4375
2739.83899	4631.0375
2742.42786	4635.1375
2745.01513	4634.0375
2747.60079	4629.5375
2750.18486	4623.1375
2752.76733	4627.2375
2755.3482	4621.7375
2757.92747	4619.7375
2760.50515	4633.1375
2763.08123	4613.0375
2765.65573	4599.0375
2768.22863	4616.4375
2770.79994	4616.9375
2773.36967	4627.4375
2775.9378	4596.2375
2778.50435	4622.3375
2781.06932	4598.4375
2783.6327	4596.9375
2786.1945	4600.3375
2788.75471	4616.2375
2791.31335	4595.2375
2793.87041	4595.2375
2796.42589	4583.6375
2798.97979	4587.2375
2801.53212	4574.8375
2804.08288	4578.5375
2806.63206	4577.4375
2809.17967	4563.7375
2811.72571	4557.2375
2814.27018	4578.1375
2816.81308	4587.7375
2819.35442	4581.2375
2821.89419	4573.0375
2824.43239	4589.4375
2826.96904	4601.4375
2829.50412	4614.6375
2832.03763	4580.6375
2834.56959	4591.1375
2837.1	4591.8375
2839.62884	4590.1375
2842.15613	4611.5375
2844.68186	4615.9375
2847.20604	4650.1375
2849.72867	4645.6375
2852.24974	4647.1375
2854.76927	4671.8375
2857.28724	4650.1375
2859.80367	4650.0375
2862.31855	4638.9375
2864.83189	4644.6375
2867.34368	4648.7375
2869.85393	4645.2375
2872.36264	4638.4375
2874.8698	4626.6375
2877.37543	4634.5375
2879.87952	4665.8375
2882.38207	4659.7375
2884.88308	4669.8375
2887.38256	4667.4375
2889.88051	4668.2375
2892.37692	4686.3375
2894.8718	4673.2375
2897.36515	4702.5375
2899.85698	4708.7375
2902.34727	4701.4375
2904.83604	4723.4375
2907.32328	4746.3375
2909.809	4743.2375
2912.29319	4753.0375
2914.77587	4754.6375
2917.25702	4763.7375
2919.73665	4767.9375
2922.21476	4762.1375
2924.69136	4775.6375
2927.16644	4778.8375
2929.64	4774.3375
2932.11205	4771.4375
2934.58258	4744.9375
2937.05161	4774.3375
2939.51912	4785.1375
2941.98513	4766.3375
2944.44962	4760.6375
2946.91261	4718.8375
2949.37409	4723.1375
2951.83407	4717.1375
2954.29254	4694.0375
2956.74951	4683.0375
2959.20498	4667.4375
2961.65895	4668.5375
2964.11142	4646.3375
2966.56239	4622.3375
2969.01186	4606.9375
2971.45984	4596.3375
2973.90632	4571.6375
2976.35131	4532.8375
2978.7948	4535.0375
2981.23681	4539.8375
2983.67732	4506.5375
2986.11635	4497.4375
2988.55388	4484.5375
2990.98993	4470.1375
2993.4245	4478.7375
2995.85758	4457.0375
2998.28917	4447.8375
3000.71928	4460.4375
3003.14791	4464.2375
3005.57506	4467.3375
3008.00073	4443.5375
3010.42493	4439.4375
3012.84764	4449.9375
3015.26888	4421.8375
3017.68865	4421.6375
3020.10694	4408.8375
3022.52376	4401.0375
3024.9391	4389.5375
3027.35298	4381.2375
3029.76539	4377.9375
3032.17632	4355.7375
3034.5858	4348.5375
3036.9938	4341.4375
3039.40034	4333.4375
3041.80542	4341.5375
3044.20903	4322.3375
3046.61118	4326.9375
3049.01187	4318.0375
3051.4111	4319.5375
3053.80888	4300.7375
3056.20519	4300.3375
3058.60005	4300.4375
3060.99345	4297.3375
3063.3854	4293.0375
3065.7759	4278.8375
3068.16494	4269.4375
3070.55254	4263.7375
3072.93868	4273.0375
3075.32338	4245.0375
3077.70662	4243.4375
3080.08842	4222.6375
3082.46878	4228.6375
3084.84769	4196.2375
3087.22515	4209.0375
3089.60118	4218.1375
3091.97576	4223.6375
3094.3489	4226.6375
3096.72061	4237.9375
3099.09087	4223.2375
3101.4597	4219.9375
3103.82709	4226.7375
3106.19305	4235.1375
3108.55757	4209.8375
3110.92066	4207.2375
3113.28232	4199.4375
3115.64255	4190.6375
3118.00134	4191.1375
3120.35871	4180.6375
3122.71466	4193.9375
3125.06917	4176.5375
3127.42226	4184.2375
3129.77393	4190.5375
3132.12417	4185.7375
3134.47299	4192.0375
3136.82039	4189.9375
3139.16636	4199.4375
3141.51092	4198.1375
3143.85406	4197.3375
3146.19579	4202.7375
3148.53609	4210.1375
3150.87499	4212.1375
3153.21246	4203.3375
3155.54853	4235.2375
3157.88318	4231.0375
3160.21642	4234.8375
3162.54826	4236.7375
3164.87868	4239.2375
3167.2077	4240.9375
3169.5353	4241.9375
3171.86151	4237.0375
3174.18631	4234.4375
3176.5097	4236.1375
3178.83169	4221.5375
3181.15228	4240.3375
3183.47147	4216.6375
3185.78926	4227.6375
3188.10565	4234.3375
3190.42065	4235.0375
3192.73424	4233.6375
3195.04645	4237.3375
3197.35725	4240.3375
3199.66667	4241.7375
3201.97469	4249.6375
3204.28132	4264.5375
3206.58656	4272.5375
3208.8904	4249.6375
3211.19287	4260.4375
3213.49394	4255.6375
3215.79363	4259.8375
3218.09193	4272.3375
3220.38884	4290.1375
3222.68438	4304.0375
3224.97853	4276.4375
3227.2713	4264.1375
3229.56269	4288.0375
3231.8527	4274.8375
3234.14133	4271.0375
3236.42858	4253.7375
3238.71446	4250.4375
3240.99896	4246.7375
3243.28209	4258.7375
3245.56384	4249.4375
3247.84423	4250.3375
3250.12324	4255.6375
3252.40088	4252.0375
3254.67715	4245.8375
3256.95205	4243.1375
3259.22558	4232.3375
3261.49775	4212.8375
3263.76855	4215.9375
3266.03799	4220.1375
3268.30606	4207.4375
3270.57277	4215.8375
3272.83812	4205.2375
3275.10211	4203.0375
3277.36474	4191.9375
3279.62601	4205.9375
3281.88593	4200.1375
3284.14448	4199.0375
3286.40168	4206.7375
3288.65753	4199.8375
3290.91202	4183.5375
3293.16516	4176.1375
3295.41695	4194.4375
3297.66738	4166.8375
3299.91647	4149.5375
3302.16421	4130.4375
3304.4106	4114.5375
3306.65564	4087.1375
3308.89933	4074.1375
3311.14169	4050.9375
3313.38269	4038.7375
3315.62236	4019.2375
3317.86068	3993.0375
3320.09766	3935.1375
3322.3333	3920.4375
3324.5676	3914.8375
3326.80056	3870.1375
3329.03219	3845.7375
3331.26248	1.4375
3333.49143	0.8375
3335.71905	0.3375
