Data from AgNPs_FTO_APTES_UA_50um_CRN_0.1mM_R6G_10uM_NaF_0.1M_Addition_RamanShift__32__15-40-19-264.txt Node

Date: Tue Dec 21 15:40:19 GMT 2021
User: TCL
Spectrometer: QEP01345
Trigger mode: 4
Integration Time (sec): 7.000000E0
Scans to average: 10
Electric dark correction enabled: true
Nonlinearity correction enabled: false
Boxcar width: 0
XAxis mode: Raman Shifts
Number of Pixels in Spectrum: 1044
>>>>>Begin Spectral Data<<<<<
46.04893	-0.3625
50.45542	-1.2625
54.85868	-0.4625
59.25871	-0.0625
63.6555	26.9375
68.04907	34.3375
72.43941	38.6375
76.82654	37.2375
81.21044	43.0375
85.59113	44.9375
89.96862	44.0375
94.34289	47.4375
98.71396	42.6375
103.08183	48.5375
107.4465	52.3375
111.80798	52.2375
116.16626	52.7375
120.52136	55.1375
124.87327	51.9375
129.222	52.6375
133.56755	57.0375
137.90993	59.6375
142.24913	58.9375
146.58517	62.7375
150.91804	72.5375
155.24774	78.6375
159.57429	92.6375
163.89768	117.7375
168.21792	145.6375
172.53501	195.3375
176.84895	260.5375
181.15975	366.8375
185.46741	494.8375
189.77193	687.4375
194.07331	918.1375
198.37157	1172.1375
202.6667	1446.8375
206.9587	1721.9375
211.24758	2006.6375
215.53334	2295.0375
219.81599	2613.2375
224.09553	2996.4375
228.37195	3395.4375
232.64527	3845.8375
236.91549	4287.2375
241.18261	4712.7375
245.44663	5046.2375
249.70755	5320.6375
253.96539	5531.5375
258.22014	5687.5375
262.4718	5803.2375
266.72039	5890.2375
270.96589	5942.7375
275.20832	5884.1375
279.44768	5804.5375
283.68397	5702.2375
287.91719	5649.8375
292.14735	5655.9375
296.37445	5812.3375
300.59849	6090.9375
304.81948	6424.2375
309.03742	6676.6375
313.25231	6706.6375
317.46415	6347.2375
321.67296	5776.1375
325.87872	5264.6375
330.08145	5012.4375
334.28114	4991.0375
338.47781	5065.4375
342.67145	5245.9375
346.86207	5481.0375
351.04966	5902.9375
355.23424	6375.1375
359.4158	6778.5375
363.59435	6980.9375
367.76989	6971.8375
371.94243	6937.3375
376.11196	6872.2375
380.27849	6802.7375
384.44203	6712.9375
388.60257	6563.9375
392.76012	6473.3375
396.91468	6513.2375
401.06626	6697.4375
405.21485	6875.4375
409.36047	6708.7375
413.50311	6277.6375
417.64277	5823.4375
421.77947	5570.1375
425.9132	5428.8375
430.04396	5425.0375
434.17176	5400.3375
438.2966	5481.1375
442.41849	5587.7375
446.53742	5772.1375
450.6534	5900.5375
454.76644	5998.1375
458.87653	6000.4375
462.98368	5938.3375
467.08789	5833.1375
471.18916	5689.6375
475.2875	5565.6375
479.38291	5455.5375
483.4754	5382.8375
487.56496	5326.7375
491.6516	5304.5375
495.73531	5279.3375
499.81612	5289.4375
503.89401	5341.3375
507.96899	5422.2375
512.04106	5525.3375
516.11023	5664.1375
520.1765	5766.2375
524.23987	5767.7375
528.30034	5648.4375
532.35792	5502.7375
536.41261	5323.9375
540.46441	5139.0375
544.51333	5031.3375
548.55936	5048.6375
552.60252	5157.7375
556.64279	5308.9375
560.6802	5411.7375
564.71473	5520.3375
568.7464	5820.5375
572.7752	6019.4375
576.80114	5820.5375
580.82422	5521.5375
584.84444	5383.7375
588.86181	5371.1375
592.87633	5385.1375
596.888	5431.2375
600.89682	5629.5375
604.9028	6386.7375
608.90594	8545.1375
612.90624	11618.1375
616.90371	11558.7375
620.89834	7755.8375
624.89015	5857.0375
628.87913	5549.4375
632.86528	5671.6375
636.84862	5858.9375
640.82913	5777.8375
644.80683	5420.0375
648.78172	5101.7375
652.75379	5017.5375
656.72306	5195.6375
660.68952	5502.3375
664.65319	5443.6375
668.61405	5068.2375
672.57211	4882.4375
676.52738	4863.0375
680.47986	4871.2375
684.42955	4814.0375
688.37646	4782.1375
692.32058	4779.6375
696.26192	4830.0375
700.20048	4877.7375
704.13626	4968.8375
708.06928	4947.5375
711.99952	4915.4375
715.927	4890.1375
719.85171	4896.7375
723.77365	4908.1375
727.69284	4862.2375
731.60928	4803.3375
735.52295	4774.2375
739.43388	4776.9375
743.34206	4793.4375
747.24749	4828.5375
751.15017	4872.2375
755.05012	4962.5375
758.94733	5249.9375
762.8418	5912.5375
766.73354	7136.4375
770.62254	8477.4375
774.50882	9265.1375
778.39237	8983.7375
782.27321	7627.5375
786.15132	6217.8375
790.02671	5372.0375
793.89938	5018.0375
797.76935	4871.6375
801.6366	4815.9375
805.50115	4831.4375
809.36299	4908.6375
813.22213	4914.4375
817.07857	4891.8375
820.93231	4819.6375
824.78336	4755.9375
828.63172	4728.9375
832.47738	4711.0375
836.32036	4683.7375
840.16066	4624.1375
843.99827	4584.6375
847.8332	4561.3375
851.66546	4550.1375
855.49504	4549.3375
859.32195	4528.3375
863.1462	4516.6375
866.96777	4500.3375
870.78668	4518.5375
874.60293	4542.3375
878.41652	4609.5375
882.22745	4701.4375
886.03573	4752.7375
889.84136	4751.0375
893.64433	4709.7375
897.44466	4667.1375
901.24235	4615.4375
905.0374	4531.2375
908.8298	4465.6375
912.61957	4441.0375
916.40671	4438.6375
920.19121	4472.4375
923.97308	4515.6375
927.75233	4574.3375
931.52895	4604.9375
935.30295	4562.4375
939.07433	4415.8375
942.84309	4270.9375
946.60924	4180.2375
950.37278	4132.7375
954.13371	4120.1375
957.89203	4102.7375
961.64774	4082.9375
965.40086	4068.5375
969.15137	4076.6375
972.89929	4035.6375
976.64461	4024.4375
980.38733	4030.9375
984.12747	4026.6375
987.86502	4045.8375
991.59999	4070.6375
995.33237	4099.2375
999.06217	4181.8375
1002.78939	4287.3375
1006.51404	4407.0375
1010.23611	4552.3375
1013.95561	4657.0375
1017.67255	4639.9375
1021.38692	4568.1375
1025.09872	4483.2375
1028.80796	4401.0375
1032.51465	4350.7375
1036.21877	4379.8375
1039.92035	4415.0375
1043.61937	4440.9375
1047.31584	4455.2375
1051.00976	4460.3375
1054.70114	4463.3375
1058.38998	4444.5375
1062.07627	4471.6375
1065.76003	4525.4375
1069.44126	4573.9375
1073.11995	4629.0375
1076.79611	4665.8375
1080.46974	4755.3375
1084.14085	4905.6375
1087.80943	5049.9375
1091.47549	5124.1375
1095.13903	5028.6375
1098.80005	4823.4375
1102.45857	4640.0375
1106.11456	4559.4375
1109.76805	4600.3375
1113.41903	4744.6375
1117.06751	4970.2375
1120.71348	5261.7375
1124.35696	5660.0375
1127.99793	5977.4375
1131.63641	6019.0375
1135.2724	5699.1375
1138.90589	5377.2375
1142.5369	5146.6375
1146.16542	4972.5375
1149.79145	4803.7375
1153.415	4733.6375
1157.03607	4721.5375
1160.65467	4778.7375
1164.27079	4936.3375
1167.88443	5213.9375
1171.49561	5695.8375
1175.10432	6508.8375
1178.71056	7636.1375
1182.31434	8490.8375
1185.91565	8687.5375
1189.51451	8347.6375
1193.11091	7798.2375
1196.70485	7193.7375
1200.29634	6791.6375
1203.88538	6496.4375
1207.47197	6108.8375
1211.05612	5648.2375
1214.63782	5351.7375
1218.21708	5199.4375
1221.79391	5104.5375
1225.36829	5076.6375
1228.94024	5058.8375
1232.50976	5041.5375
1236.07685	5030.2375
1239.6415	5038.7375
1243.20374	5063.6375
1246.76355	5108.3375
1250.32093	5149.9375
1253.8759	5261.6375
1257.42845	5436.3375
1260.97859	5581.4375
1264.52631	5739.5375
1268.07163	5936.7375
1271.61453	6095.7375
1275.15503	6205.8375
1278.69312	6228.3375
1282.22882	6246.5375
1285.76211	6390.5375
1289.29301	6636.0375
1292.82151	6875.9375
1296.34761	7150.3375
1299.87133	7594.7375
1303.39266	8365.9375
1306.9116	9543.8375
1310.42815	10798.8375
1313.94233	11488.3375
1317.45412	11100.9375
1320.96354	10131.8375
1324.47058	9124.2375
1327.97525	8243.0375
1331.47754	7748.3375
1334.97747	7559.5375
1338.47502	7604.6375
1341.97022	7864.7375
1345.46305	8327.4375
1348.95352	9015.5375
1352.44163	9924.0375
1355.92738	11142.7375
1359.41078	12997.2375
1362.89183	14801.0375
1366.37053	14354.5375
1369.84688	12031.5375
1373.32088	9704.8375
1376.79254	8173.6375
1380.26186	7270.2375
1383.72883	6836.9375
1387.19347	6530.0375
1390.65578	6229.1375
1394.11575	6010.6375
1397.57339	5895.2375
1401.0287	5869.9375
1404.48168	5887.5375
1407.93234	5936.5375
1411.38068	5933.2375
1414.82669	5911.5375
1418.27039	5821.3375
1421.71177	5669.4375
1425.15083	5535.0375
1428.58758	5447.3375
1432.02203	5442.7375
1435.45416	5473.5375
1438.88399	5500.0375
1442.31151	5509.0375
1445.73673	5510.2375
1449.15965	5579.3375
1452.58027	5569.8375
1455.9986	5532.2375
1459.41463	5544.3375
1462.82837	5595.6375
1466.23982	5729.7375
1469.64898	5863.8375
1473.05586	5955.5375
1476.46045	5991.8375
1479.86276	6103.4375
1483.26279	6257.1375
1486.66054	6481.9375
1490.05602	6757.2375
1493.44922	7181.8375
1496.84016	7864.5375
1500.22882	8933.9375
1503.61521	10381.1375
1506.99934	12002.6375
1510.38121	13408.5375
1513.76081	13906.6375
1517.13816	12981.0375
1520.51324	11089.6375
1523.88607	9254.2375
1527.25665	8011.2375
1530.62498	7310.5375
1533.99105	6934.2375
1537.35488	6679.5375
1540.71647	6564.1375
1544.07581	6546.5375
1547.4329	6527.9375
1550.78776	6509.6375
1554.14038	6524.5375
1557.49077	6547.7375
1560.83892	6679.9375
1564.18484	6915.0375
1567.52853	7208.7375
1570.86999	7513.1375
1574.20922	7652.0375
1577.54624	7634.8375
1580.88103	7169.2375
1584.2136	6539.4375
1587.54395	6134.6375
1590.87208	6096.5375
1594.19801	6358.1375
1597.52172	6838.6375
1600.84321	7072.8375
1604.16251	6902.4375
1607.47959	6461.3375
1610.79447	6029.7375
1614.10715	5544.9375
1617.41763	5169.7375
1620.7259	4927.2375
1624.03199	4816.4375
1627.33587	4802.2375
1630.63757	4878.1375
1633.93707	5074.9375
1637.23439	5415.7375
1640.52951	5974.3375
1643.82246	6850.1375
1647.11321	7989.1375
1650.40179	8987.3375
1653.68819	9004.4375
1656.97241	7881.2375
1660.25446	6484.1375
1663.53433	5439.6375
1666.81203	4840.2375
1670.08756	4450.5375
1673.36092	4211.9375
1676.63211	4062.2375
1679.90115	3956.6375
1683.16801	3881.6375
1686.43272	3816.1375
1689.69527	3765.8375
1692.95567	3742.0375
1696.2139	3727.7375
1699.46999	3712.2375
1702.72392	3693.9375
1705.97571	3654.5375
1709.22535	3622.0375
1712.47284	3602.8375
1715.71819	3583.3375
1718.96139	3582.4375
1722.20246	3570.6375
1725.44139	3539.0375
1728.67818	3521.1375
1731.91284	3481.8375
1735.14537	3439.1375
1738.37576	3415.6375
1741.60403	3408.7375
1744.83017	3383.7375
1748.05418	3381.2375
1751.27607	3374.2375
1754.49584	3370.2375
1757.71349	3364.3375
1760.92903	3362.4375
1764.14244	3352.7375
1767.35375	3340.1375
1770.56294	3323.0375
1773.77002	3292.2375
1776.97499	3274.5375
1780.17785	3251.7375
1783.37861	3229.2375
1786.57727	3219.6375
1789.77382	3228.2375
1792.96828	3202.8375
1796.16064	3190.1375
1799.3509	3175.3375
1802.53907	3178.7375
1805.72514	3159.6375
1808.90913	3140.3375
1812.09102	3128.1375
1815.27083	3124.7375
1818.44856	3126.7375
1821.6242	3106.0375
1824.79776	3091.4375
1827.96924	3089.6375
1831.13864	3081.1375
1834.30597	3091.8375
1837.47122	3075.3375
1840.6344	3076.0375
1843.7955	3076.1375
1846.95454	3068.1375
1850.11151	3068.3375
1853.26642	3049.2375
1856.41926	3051.2375
1859.57004	3058.9375
1862.71876	3027.3375
1865.86542	3050.9375
1869.01003	3034.9375
1872.15258	3040.7375
1875.29308	3041.8375
1878.43152	3039.2375
1881.56792	3030.7375
1884.70227	3032.9375
1887.83457	3028.2375
1890.96482	3022.7375
1894.09304	3015.6375
1897.21921	3014.7375
1900.34335	3002.4375
1903.46544	3015.9375
1906.58551	3006.7375
1909.70353	2999.4375
1912.81953	3006.5375
1915.93349	3000.5375
1919.04543	2994.9375
1922.15534	2987.0375
1925.26322	2971.0375
1928.36908	2966.1375
1931.47292	2954.1375
1934.57473	2950.6375
1937.67453	2933.8375
1940.77232	2925.7375
1943.86808	2918.2375
1946.96184	2893.3375
1950.05358	2878.7375
1953.14331	2880.4375
1956.23103	2871.1375
1959.31675	2861.5375
1962.40046	2863.5375
1965.48217	2850.7375
1968.56188	2847.0375
1971.63959	2836.4375
1974.7153	2824.2375
1977.78901	2831.3375
1980.86073	2810.1375
1983.93046	2793.5375
1986.99819	2783.0375
1990.06394	2773.0375
1993.1277	2746.3375
1996.18947	2740.9375
1999.24925	2733.3375
2002.30706	2727.2375
2005.36288	2721.8375
2008.41672	2710.1375
2011.46859	2703.5375
2014.51848	2697.1375
2017.56639	2688.0375
2020.61233	2673.8375
2023.6563	2664.4375
2026.6983	2651.2375
2029.73833	2651.4375
2032.7764	2651.3375
2035.8125	2634.1375
2038.84664	2634.6375
2041.87881	2632.3375
2044.90903	2613.5375
2047.93729	2619.6375
2050.96359	2621.4375
2053.98794	2601.7375
2057.01034	2605.3375
2060.03078	2594.9375
2063.04927	2588.5375
2066.06582	2583.8375
2069.08042	2598.3375
2072.09307	2591.7375
2075.10378	2577.8375
2078.11255	2571.0375
2081.11938	2580.2375
2084.12426	2584.6375
2087.12722	2573.7375
2090.12824	2586.8375
2093.12732	2568.9375
2096.12447	2562.6375
2099.11969	2572.6375
2102.11299	2552.9375
2105.10435	2575.3375
2108.09379	2567.2375
2111.08131	2562.0375
2114.0669	2565.7375
2117.05057	2573.4375
2120.03233	2571.3375
2123.01216	2562.1375
2125.99008	2581.9375
2128.96609	2570.4375
2131.94018	2569.2375
2134.91236	2569.4375
2137.88263	2573.8375
2140.851	2572.0375
2143.81746	2568.7375
2146.78201	2566.8375
2149.74466	2567.4375
2152.7054	2560.5375
2155.66425	2548.7375
2158.6212	2562.2375
2161.57625	2551.7375
2164.52941	2547.9375
2167.48067	2543.8375
2170.43004	2539.9375
2173.37752	2538.0375
2176.32311	2533.6375
2179.26681	2529.9375
2182.20863	2545.4375
2185.14856	2543.0375
2188.08661	2548.0375
2191.02278	2532.1375
2193.95707	2532.0375
2196.88948	2515.4375
2199.82001	2528.6375
2202.74867	2516.3375
2205.67545	2519.0375
2208.60037	2501.1375
2211.52341	2502.1375
2214.44458	2500.9375
2217.36388	2480.1375
2220.28132	2488.6375
2223.1969	2474.5375
2226.11061	2465.0375
2229.02246	2475.4375
2231.93245	2457.5375
2234.84058	2458.6375
2237.74686	2454.6375
2240.65128	2444.4375
2243.55385	2447.0375
2246.45456	2449.3375
2249.35343	2429.8375
2252.25044	2434.1375
2255.14561	2430.8375
2258.03893	2434.8375
2260.93041	2446.9375
2263.82004	2440.4375
2266.70783	2432.7375
2269.59378	2405.7375
2272.4779	2408.3375
2275.36017	2397.9375
2278.24061	2401.7375
2281.11922	2381.8375
2283.996	2389.3375
2286.87094	2388.6375
2289.74405	2359.9375
2292.61534	2355.1375
2295.4848	2352.5375
2298.35243	2345.1375
2301.21824	2346.9375
2304.08223	2338.2375
2306.94439	2348.1375
2309.80474	2336.3375
2312.66327	2341.1375
2315.51999	2344.1375
2318.37489	2323.4375
2321.22797	2315.6375
2324.07925	2332.9375
2326.92871	2327.4375
2329.77637	2331.7375
2332.62222	2313.5375
2335.46626	2315.9375
2338.3085	2313.7375
2341.14893	2304.4375
2343.98756	2305.8375
2346.8244	2297.4375
2349.65943	2315.4375
2352.49267	2317.8375
2355.32411	2311.1375
2358.15376	2317.1375
2360.98161	2330.0375
2363.80768	2325.7375
2366.63195	2329.5375
2369.45444	2331.5375
2372.27514	2326.1375
2375.09405	2329.5375
2377.91118	2314.2375
2380.72652	2299.7375
2383.54009	2295.8375
2386.35187	2287.7375
2389.16188	2268.5375
2391.97011	2260.8375
2394.77657	2251.6375
2397.58125	2251.4375
2400.38416	2238.1375
2403.18529	2220.2375
2405.98466	2225.7375
2408.78226	2214.4375
2411.57809	2224.2375
2414.37216	2208.1375
2417.16446	2203.0375
2419.955	2193.7375
2422.74378	2201.3375
2425.5308	2197.3375
2428.31606	2204.3375
2431.09956	2198.8375
2433.88131	2193.0375
2436.6613	2197.9375
2439.43954	2188.4375
2442.21603	2191.5375
2444.99077	2195.2375
2447.76377	2192.3375
2450.53501	2198.9375
2453.30451	2190.2375
2456.07226	2187.7375
2458.83827	2205.6375
2461.60254	2186.9375
2464.36507	2174.8375
2467.12586	2183.9375
2469.88492	2175.1375
2472.64224	2171.0375
2475.39782	2186.3375
2478.15167	2189.0375
2480.90379	2185.1375
2483.65417	2198.1375
2486.40283	2197.0375
2489.14976	2193.2375
2491.89497	2197.9375
2494.63845	2206.8375
2497.3802	2214.2375
2500.12024	2193.1375
2502.85855	2198.3375
2505.59514	2190.1375
2508.33002	2169.6375
2511.06318	2162.9375
2513.79462	2149.4375
2516.52435	2143.7375
2519.25237	2137.5375
2521.97867	2117.9375
2524.70327	2115.3375
2527.42616	2110.7375
2530.14734	2097.1375
2532.86681	2104.4375
2535.58458	2101.5375
2538.30065	2091.0375
2541.01501	2087.7375
2543.72768	2093.6375
2546.43864	2092.7375
2549.14791	2095.3375
2551.85548	2089.5375
2554.56136	2089.2375
2557.26554	2085.5375
2559.96803	2078.1375
2562.66883	2068.4375
2565.36794	2073.9375
2568.06536	2064.2375
2570.7611	2070.2375
2573.45514	2069.8375
2576.14751	2071.1375
2578.83819	2055.7375
2581.52719	2040.2375
2584.21451	2044.4375
2586.90015	2035.3375
2589.58411	2038.1375
2592.2664	2031.1375
2594.94701	2024.6375
2597.62594	2025.7375
2600.30321	2019.5375
2602.9788	2018.4375
2605.65273	2012.1375
2608.32498	2010.7375
2610.99557	2018.3375
2613.66449	2007.7375
2616.33175	2009.9375
2618.99734	2010.9375
2621.66128	2006.4375
2624.32355	2004.2375
2626.98416	2002.0375
2629.64311	2001.5375
2632.30041	1995.6375
2634.95605	1991.1375
2637.61004	1982.8375
2640.26238	1979.8375
2642.91306	1970.4375
2645.56209	1963.9375
2648.20948	1966.0375
2650.85521	1967.0375
2653.4993	1965.5375
2656.14175	1966.4375
2658.78255	1968.1375
2661.42171	1975.2375
2664.05923	1975.1375
2666.6951	1982.2375
2669.32934	1981.7375
2671.96194	1980.9375
2674.59291	1983.4375
2677.22224	1980.8375
2679.84993	1985.2375
2682.476	1973.8375
2685.10043	1974.3375
2687.72324	1984.5375
2690.34441	1966.9375
2692.96396	1974.6375
2695.58188	1980.4375
2698.19818	1977.1375
2700.81285	1981.7375
2703.4259	2004.1375
2706.03733	2052.9375
2708.64714	2010.2375
2711.25533	1995.0375
2713.86191	1996.0375
2716.46687	1995.6375
2719.07021	1991.7375
2721.67194	1993.8375
2724.27206	1979.5375
2726.87057	1994.0375
2729.46747	1977.8375
2732.06276	1990.5375
2734.65644	1973.7375
2737.24852	1981.5375
2739.83899	1962.3375
2742.42786	1953.3375
2745.01513	1965.4375
2747.60079	1958.8375
2750.18486	1951.3375
2752.76733	1952.9375
2755.3482	1940.1375
2757.92747	1946.5375
2760.50515	1933.4375
2763.08123	1937.7375
2765.65573	1931.9375
2768.22863	1933.7375
2770.79994	1925.1375
2773.36967	1940.6375
2775.9378	1927.3375
2778.50435	1921.3375
2781.06932	1918.9375
2783.6327	1933.2375
2786.1945	1919.8375
2788.75471	1921.3375
2791.31335	1923.5375
2793.87041	1926.2375
2796.42589	1912.0375
2798.97979	1912.7375
2801.53212	1912.8375
2804.08288	1914.8375
2806.63206	1909.5375
2809.17967	1914.3375
2811.72571	1908.5375
2814.27018	1912.9375
2816.81308	1918.1375
2819.35442	1922.2375
2821.89419	1914.7375
2824.43239	1913.7375
2826.96904	1929.8375
2829.50412	1919.2375
2832.03763	1928.6375
2834.56959	1939.8375
2837.1	1924.4375
2839.62884	1931.1375
2842.15613	1934.8375
2844.68186	1954.8375
2847.20604	1985.9375
2849.72867	1989.9375
2852.24974	1998.1375
2854.76927	1997.5375
2857.28724	2022.8375
2859.80367	1995.2375
2862.31855	1993.5375
2864.83189	1987.8375
2867.34368	1974.7375
2869.85393	1986.4375
2872.36264	1981.3375
2874.8698	1976.3375
2877.37543	1968.9375
2879.87952	1971.2375
2882.38207	1965.7375
2884.88308	1969.6375
2887.38256	1968.3375
2889.88051	1964.1375
2892.37692	1976.6375
2894.8718	1971.9375
2897.36515	1960.5375
2899.85698	1961.8375
2902.34727	1973.7375
2904.83604	1966.1375
2907.32328	1970.9375
2909.809	1962.9375
2912.29319	1968.3375
2914.77587	1967.4375
2917.25702	1967.2375
2919.73665	1962.1375
2922.21476	1965.9375
2924.69136	1958.2375
2927.16644	1960.9375
2929.64	1960.9375
2932.11205	1944.2375
2934.58258	1943.7375
2937.05161	1944.7375
2939.51912	1943.8375
2941.98513	1917.1375
2944.44962	1914.3375
2946.91261	1915.3375
2949.37409	1892.0375
2951.83407	1893.1375
2954.29254	1879.9375
2956.74951	1883.8375
2959.20498	1882.7375
2961.65895	1870.4375
2964.11142	1863.4375
2966.56239	1857.8375
2969.01186	1855.6375
2971.45984	1842.7375
2973.90632	1852.3375
2976.35131	1824.3375
2978.7948	1826.8375
2981.23681	1829.3375
2983.67732	1808.2375
2986.11635	1813.4375
2988.55388	1809.3375
2990.98993	1802.2375
2993.4245	1791.8375
2995.85758	1795.4375
2998.28917	1798.0375
3000.71928	1799.5375
3003.14791	1795.3375
3005.57506	1796.3375
3008.00073	1785.9375
3010.42493	1796.1375
3012.84764	1792.5375
3015.26888	1791.0375
3017.68865	1787.6375
3020.10694	1771.8375
3022.52376	1794.3375
3024.9391	1788.5375
3027.35298	1779.6375
3029.76539	1782.0375
3032.17632	1776.6375
3034.5858	1763.8375
3036.9938	1767.0375
3039.40034	1779.4375
3041.80542	1775.5375
3044.20903	1765.3375
3046.61118	1756.9375
3049.01187	1766.0375
3051.4111	1764.5375
3053.80888	1752.4375
3056.20519	1762.3375
3058.60005	1761.0375
3060.99345	1756.9375
3063.3854	1750.2375
3065.7759	1756.2375
3068.16494	1742.7375
3070.55254	1734.9375
3072.93868	1739.6375
3075.32338	1735.0375
3077.70662	1746.2375
3080.08842	1742.5375
3082.46878	1732.4375
3084.84769	1736.5375
3087.22515	1735.0375
3089.60118	1735.2375
3091.97576	1732.7375
3094.3489	1731.8375
3096.72061	1731.4375
3099.09087	1730.9375
3101.4597	1740.1375
3103.82709	1750.2375
3106.19305	1749.1375
3108.55757	1751.8375
3110.92066	1746.7375
3113.28232	1742.4375
3115.64255	1734.1375
3118.00134	1737.4375
3120.35871	1739.6375
3122.71466	1728.8375
3125.06917	1745.7375
3127.42226	1742.5375
3129.77393	1746.9375
3132.12417	1751.5375
3134.47299	1744.6375
3136.82039	1753.0375
3139.16636	1764.0375
3141.51092	1762.7375
3143.85406	1774.0375
3146.19579	1789.6375
3148.53609	1773.7375
3150.87499	1789.9375
3153.21246	1786.0375
3155.54853	1802.2375
3157.88318	1805.8375
3160.21642	1816.0375
3162.54826	1817.4375
3164.87868	1809.6375
3167.2077	1817.0375
3169.5353	1821.0375
3171.86151	1823.8375
3174.18631	1827.7375
3176.5097	1826.3375
3178.83169	1825.7375
3181.15228	1830.3375
3183.47147	1837.8375
3185.78926	1836.3375
3188.10565	1834.6375
3190.42065	1828.6375
3192.73424	1847.7375
3195.04645	1848.2375
3197.35725	1849.6375
3199.66667	1856.6375
3201.97469	1859.8375
3204.28132	1867.6375
3206.58656	1876.9375
3208.8904	1877.3375
3211.19287	1874.1375
3213.49394	1880.0375
3215.79363	1884.1375
3218.09193	1886.0375
3220.38884	1896.9375
3222.68438	1919.0375
3224.97853	1896.4375
3227.2713	1891.9375
3229.56269	1891.3375
3231.8527	1893.7375
3234.14133	1891.3375
3236.42858	1894.7375
3238.71446	1883.3375
3240.99896	1877.0375
3243.28209	1884.3375
3245.56384	1885.6375
3247.84423	1889.5375
3250.12324	1876.0375
3252.40088	1884.9375
3254.67715	1884.2375
3256.95205	1886.5375
3259.22558	1880.6375
3261.49775	1877.8375
3263.76855	1872.6375
3266.03799	1866.9375
3268.30606	1866.9375
3270.57277	1863.7375
3272.83812	1864.4375
3275.10211	1878.6375
3277.36474	1855.9375
3279.62601	1853.7375
3281.88593	1856.9375
3284.14448	1862.7375
3286.40168	1855.8375
3288.65753	1859.0375
3290.91202	1869.6375
3293.16516	1855.0375
3295.41695	1844.5375
3297.66738	1841.9375
3299.91647	1829.3375
3302.16421	1824.3375
3304.4106	1808.5375
3306.65564	1815.9375
3308.89933	1790.4375
3311.14169	1785.6375
3313.38269	1789.3375
3315.62236	1778.3375
3317.86068	1743.0375
3320.09766	1728.1375
3322.3333	1711.5375
3324.5676	1725.0375
3326.80056	1704.0375
3329.03219	1685.5375
3331.26248	-0.2625
3333.49143	0.3375
3335.71905	1.5375
