Data from AgNPs_FTO_APTES_UA_100um_CRN_0.1mM_R6G_10uM_NaF_0.1M_Addition_RamanShift__26__16-15-19-304.txt Node

Date: Tue Dec 21 16:15:19 GMT 2021
User: TCL
Spectrometer: QEP01345
Trigger mode: 4
Integration Time (sec): 7.000000E0
Scans to average: 10
Electric dark correction enabled: true
Nonlinearity correction enabled: false
Boxcar width: 0
XAxis mode: Raman Shifts
Number of Pixels in Spectrum: 1044
>>>>>Begin Spectral Data<<<<<
46.04893	0.1875
50.45542	-0.6125
54.85868	-1.1125
59.25871	1.1875
63.6555	32.4875
68.04907	38.3875
72.43941	42.1875
76.82654	40.6875
81.21044	47.2875
85.59113	47.4875
89.96862	48.5875
94.34289	50.1875
98.71396	52.1875
103.08183	54.1875
107.4465	59.8875
111.80798	57.2875
116.16626	57.0875
120.52136	58.6875
124.87327	61.0875
129.222	61.5875
133.56755	63.5875
137.90993	73.0875
142.24913	71.8875
146.58517	80.9875
150.91804	92.7875
155.24774	106.9875
159.57429	126.8875
163.89768	166.3875
168.21792	211.6875
172.53501	276.4875
176.84895	388.3875
181.15975	545.2875
185.46741	752.6875
189.77193	1046.4875
194.07331	1415.8875
198.37157	1819.9875
202.6667	2263.0875
206.9587	2694.5875
211.24758	3122.2875
215.53334	3557.2875
219.81599	4005.1875
224.09553	4488.9875
228.37195	5025.8875
232.64527	5615.8875
236.91549	6252.6875
241.18261	6868.6875
245.44663	7492.2875
249.70755	8023.6875
253.96539	8516.3875
258.22014	8909.8875
262.4718	9215.6875
266.72039	9467.7875
270.96589	9565.1875
275.20832	9558.1875
279.44768	9465.6875
283.68397	9380.2875
287.91719	9252.7875
292.14735	9197.3875
296.37445	9186.0875
300.59849	9233.2875
304.81948	9310.0875
309.03742	9338.3875
313.25231	9226.1875
317.46415	8989.6875
321.67296	8680.3875
325.87872	8448.6875
330.08145	8357.4875
334.28114	8337.8875
338.47781	8398.9875
342.67145	8526.4875
346.86207	8699.6875
351.04966	8915.8875
355.23424	9164.8875
359.4158	9411.2875
363.59435	9549.9875
367.76989	9658.0875
371.94243	9722.6875
376.11196	9778.8875
380.27849	9835.2875
384.44203	9869.8875
388.60257	9891.7875
392.76012	9911.0875
396.91468	9971.7875
401.06626	10110.4875
405.21485	10246.8875
409.36047	10234.7875
413.50311	10008.7875
417.64277	9798.7875
421.77947	9666.8875
425.9132	9632.6875
430.04396	9623.1875
434.17176	9677.8875
438.2966	9761.2875
442.41849	9841.7875
446.53742	10014.0875
450.6534	10207.1875
454.76644	10333.2875
458.87653	10396.4875
462.98368	10399.3875
467.08789	10323.3875
471.18916	10263.7875
475.2875	10186.0875
479.38291	10164.5875
483.4754	10115.8875
487.56496	10054.8875
491.6516	9974.4875
495.73531	9914.3875
499.81612	9849.2875
503.89401	9863.0875
507.96899	9884.9875
512.04106	9884.4875
516.11023	9922.7875
520.1765	9969.6875
524.23987	9967.6875
528.30034	9918.5875
532.35792	9845.4875
536.41261	9758.3875
540.46441	9653.2875
544.51333	9577.0875
548.55936	9599.2875
552.60252	9695.3875
556.64279	9796.1875
560.6802	9865.8875
564.71473	9931.1875
568.7464	10035.1875
572.7752	10125.1875
576.80114	10101.1875
580.82422	9994.1875
584.84444	10004.7875
588.86181	10056.4875
592.87633	10122.4875
596.888	10203.4875
600.89682	10295.9875
604.9028	10697.5875
608.90594	11841.3875
612.90624	13396.7875
616.90371	13199.8875
620.89834	11129.4875
624.89015	10121.1875
628.87913	9975.6875
632.86528	10168.7875
636.84862	10281.0875
640.82913	10205.4875
644.80683	9906.7875
648.78172	9602.8875
652.75379	9460.6875
656.72306	9510.3875
660.68952	9656.0875
664.65319	9628.7875
668.61405	9461.1875
672.57211	9403.9875
676.52738	9402.7875
680.47986	9407.3875
684.42955	9373.4875
688.37646	9314.7875
692.32058	9332.7875
696.26192	9317.1875
700.20048	9369.3875
704.13626	9375.5875
708.06928	9363.8875
711.99952	9288.2875
715.927	9266.9875
719.85171	9275.8875
723.77365	9264.5875
727.69284	9256.2875
731.60928	9203.6875
735.52295	9157.5875
739.43388	9125.3875
743.34206	9128.5875
747.24749	9151.4875
751.15017	9165.5875
755.05012	9243.1875
758.94733	9401.8875
762.8418	9788.7875
766.73354	10486.2875
770.62254	11297.1875
774.50882	11721.1875
778.39237	11418.4875
782.27321	10532.9875
786.15132	9747.5875
790.02671	9284.3875
793.89938	9060.5875
797.76935	8973.9875
801.6366	8974.1875
805.50115	9002.9875
809.36299	9042.8875
813.22213	9045.1875
817.07857	9035.9875
820.93231	8980.6875
824.78336	8872.4875
828.63172	8803.6875
832.47738	8758.4875
836.32036	8714.7875
840.16066	8681.3875
843.99827	8679.6875
847.8332	8657.8875
851.66546	8614.5875
855.49504	8602.2875
859.32195	8580.9875
863.1462	8557.1875
866.96777	8545.5875
870.78668	8562.6875
874.60293	8589.9875
878.41652	8633.7875
882.22745	8660.1875
886.03573	8708.1875
889.84136	8710.1875
893.64433	8662.6875
897.44466	8564.2875
901.24235	8501.4875
905.0374	8425.9875
908.8298	8370.1875
912.61957	8300.3875
916.40671	8319.2875
920.19121	8349.5875
923.97308	8380.2875
927.75233	8377.8875
931.52895	8368.9875
935.30295	8331.8875
939.07433	8241.4875
942.84309	8130.6875
946.60924	8069.7875
950.37278	8011.6875
954.13371	7990.2875
957.89203	7951.9875
961.64774	7959.5875
965.40086	7912.2875
969.15137	7878.6875
972.89929	7832.7875
976.64461	7782.1875
980.38733	7773.7875
984.12747	7789.6875
987.86502	7801.2875
991.59999	7830.0875
995.33237	7852.4875
999.06217	7950.3875
1002.78939	8070.3875
1006.51404	8193.4875
1010.23611	8317.2875
1013.95561	8407.8875
1017.67255	8439.0875
1021.38692	8372.8875
1025.09872	8281.7875
1028.80796	8227.7875
1032.51465	8230.6875
1036.21877	8242.7875
1039.92035	8232.7875
1043.61937	8195.9875
1047.31584	8151.1875
1051.00976	8108.3875
1054.70114	8120.5875
1058.38998	8098.8875
1062.07627	8130.9875
1065.76003	8201.8875
1069.44126	8211.9875
1073.11995	8245.8875
1076.79611	8285.7875
1080.46974	8299.3875
1084.14085	8301.7875
1087.80943	8357.7875
1091.47549	8375.5875
1095.13903	8356.0875
1098.80005	8253.3875
1102.45857	8137.8875
1106.11456	8047.2875
1109.76805	8072.0875
1113.41903	8124.4875
1117.06751	8248.8875
1120.71348	8394.5875
1124.35696	8582.7875
1127.99793	8801.7875
1131.63641	8927.1875
1135.2724	8875.2875
1138.90589	8720.9875
1142.5369	8573.6875
1146.16542	8419.1875
1149.79145	8309.0875
1153.415	8220.7875
1157.03607	8177.9875
1160.65467	8243.5875
1164.27079	8372.0875
1167.88443	8593.4875
1171.49561	8930.9875
1175.10432	9462.3875
1178.71056	10213.7875
1182.31434	10909.7875
1185.91565	11205.9875
1189.51451	11139.9875
1193.11091	10801.0875
1196.70485	10403.3875
1200.29634	10073.0875
1203.88538	9830.6875
1207.47197	9574.6875
1211.05612	9271.4875
1214.63782	8998.3875
1218.21708	8848.2875
1221.79391	8734.3875
1225.36829	8662.1875
1228.94024	8596.7875
1232.50976	8545.9875
1236.07685	8477.3875
1239.6415	8468.2875
1243.20374	8482.5875
1246.76355	8536.4875
1250.32093	8629.4875
1253.8759	8735.7875
1257.42845	8867.5875
1260.97859	9045.5875
1264.52631	9123.2875
1268.07163	9260.0875
1271.61453	9402.8875
1275.15503	9525.2875
1278.69312	9642.6875
1282.22882	9722.4875
1285.76211	9867.1875
1289.29301	10114.8875
1292.82151	10344.2875
1296.34761	10698.2875
1299.87133	11143.0875
1303.39266	11723.4875
1306.9116	12431.7875
1310.42815	13249.4875
1313.94233	13734.6875
1317.45412	13623.5875
1320.96354	13239.7875
1324.47058	12746.7875
1327.97525	12297.5875
1331.47754	11967.2875
1334.97747	11822.1875
1338.47502	11854.9875
1341.97022	12014.3875
1345.46305	12149.4875
1348.95352	12290.2875
1352.44163	12589.5875
1355.92738	13058.0875
1359.41078	14020.6875
1362.89183	14983.1875
1366.37053	14902.4875
1369.84688	13498.3875
1373.32088	11910.5875
1376.79254	10795.8875
1380.26186	10266.7875
1383.72883	10051.3875
1387.19347	9915.9875
1390.65578	9769.8875
1394.11575	9661.8875
1397.57339	9653.4875
1401.0287	9721.1875
1404.48168	9836.1875
1407.93234	9876.1875
1411.38068	9842.9875
1414.82669	9714.2875
1418.27039	9459.4875
1421.71177	9141.6875
1425.15083	8890.6875
1428.58758	8718.0875
1432.02203	8662.6875
1435.45416	8715.9875
1438.88399	8758.2875
1442.31151	8833.1875
1445.73673	8882.8875
1449.15965	8990.4875
1452.58027	9049.5875
1455.9986	9061.4875
1459.41463	9089.4875
1462.82837	9183.3875
1466.23982	9302.3875
1469.64898	9449.6875
1473.05586	9529.0875
1476.46045	9551.2875
1479.86276	9584.1875
1483.26279	9625.6875
1486.66054	9709.2875
1490.05602	9807.7875
1493.44922	9980.8875
1496.84016	10246.1875
1500.22882	10710.6875
1503.61521	11365.9875
1506.99934	12206.8875
1510.38121	12958.0875
1513.76081	13196.9875
1517.13816	12712.4875
1520.51324	11789.6875
1523.88607	10873.4875
1527.25665	10226.6875
1530.62498	9871.3875
1533.99105	9710.2875
1537.35488	9593.7875
1540.71647	9502.6875
1544.07581	9455.3875
1547.4329	9408.7875
1550.78776	9327.7875
1554.14038	9302.9875
1557.49077	9301.2875
1560.83892	9366.7875
1564.18484	9466.1875
1567.52853	9567.2875
1570.86999	9655.3875
1574.20922	9804.7875
1577.54624	9811.7875
1580.88103	9645.1875
1584.2136	9403.3875
1587.54395	9284.5875
1590.87208	9420.7875
1594.19801	9751.4875
1597.52172	10150.7875
1600.84321	10427.8875
1604.16251	10243.1875
1607.47959	9766.7875
1610.79447	9255.6875
1614.10715	8696.1875
1617.41763	8245.6875
1620.7259	7930.3875
1624.03199	7753.7875
1627.33587	7728.9875
1630.63757	7802.3875
1633.93707	8020.5875
1637.23439	8399.9875
1640.52951	8930.3875
1643.82246	9674.8875
1647.11321	10510.4875
1650.40179	11045.5875
1653.68819	10889.5875
1656.97241	9995.2875
1660.25446	8891.1875
1663.53433	8035.2875
1666.81203	7488.1875
1670.08756	7147.2875
1673.36092	6922.2875
1676.63211	6760.0875
1679.90115	6645.6875
1683.16801	6561.5875
1686.43272	6499.6875
1689.69527	6422.9875
1692.95567	6413.7875
1696.2139	6409.6875
1699.46999	6402.4875
1702.72392	6325.7875
1705.97571	6259.6875
1709.22535	6195.4875
1712.47284	6157.7875
1715.71819	6113.6875
1718.96139	6099.5875
1722.20246	6063.8875
1725.44139	6038.6875
1728.67818	5999.0875
1731.91284	5980.5875
1735.14537	5937.3875
1738.37576	5930.5875
1741.60403	5898.0875
1744.83017	5881.0875
1748.05418	5883.2875
1751.27607	5872.5875
1754.49584	5856.5875
1757.71349	5856.0875
1760.92903	5848.4875
1764.14244	5847.9875
1767.35375	5826.4875
1770.56294	5806.0875
1773.77002	5774.5875
1776.97499	5750.9875
1780.17785	5708.6875
1783.37861	5695.7875
1786.57727	5673.8875
1789.77382	5659.1875
1792.96828	5638.0875
1796.16064	5608.3875
1799.3509	5612.4875
1802.53907	5596.1875
1805.72514	5572.9875
1808.90913	5543.3875
1812.09102	5526.0875
1815.27083	5514.1875
1818.44856	5514.8875
1821.6242	5480.3875
1824.79776	5480.0875
1827.96924	5488.6875
1831.13864	5452.5875
1834.30597	5448.3875
1837.47122	5425.1875
1840.6344	5435.7875
1843.7955	5433.3875
1846.95454	5425.0875
1850.11151	5411.7875
1853.26642	5407.0875
1856.41926	5406.7875
1859.57004	5410.5875
1862.71876	5374.0875
1865.86542	5383.4875
1869.01003	5372.1875
1872.15258	5385.4875
1875.29308	5374.1875
1878.43152	5376.5875
1881.56792	5352.2875
1884.70227	5332.2875
1887.83457	5329.4875
1890.96482	5325.1875
1894.09304	5320.4875
1897.21921	5318.5875
1900.34335	5298.0875
1903.46544	5290.2875
1906.58551	5293.7875
1909.70353	5274.2875
1912.81953	5271.3875
1915.93349	5248.6875
1919.04543	5257.8875
1922.15534	5226.3875
1925.26322	5241.2875
1928.36908	5206.1875
1931.47292	5204.2875
1934.57473	5196.0875
1937.67453	5170.6875
1940.77232	5164.0875
1943.86808	5141.4875
1946.96184	5128.3875
1950.05358	5105.0875
1953.14331	5097.7875
1956.23103	5075.5875
1959.31675	5071.1875
1962.40046	5052.0875
1965.48217	5021.0875
1968.56188	5020.7875
1971.63959	5003.0875
1974.7153	4994.2875
1977.78901	4970.3875
1980.86073	4951.5875
1983.93046	4953.1875
1986.99819	4921.6875
1990.06394	4913.2875
1993.1277	4876.5875
1996.18947	4851.1875
1999.24925	4846.5875
2002.30706	4828.7875
2005.36288	4807.4875
2008.41672	4796.0875
2011.46859	4782.3875
2014.51848	4759.6875
2017.56639	4742.9875
2020.61233	4743.0875
2023.6563	4719.5875
2026.6983	4710.3875
2029.73833	4691.8875
2032.7764	4678.8875
2035.8125	4673.5875
2038.84664	4669.3875
2041.87881	4649.4875
2044.90903	4648.4875
2047.93729	4636.7875
2050.96359	4623.5875
2053.98794	4628.3875
2057.01034	4618.0875
2060.03078	4610.1875
2063.04927	4582.3875
2066.06582	4587.4875
2069.08042	4587.8875
2072.09307	4589.2875
2075.10378	4572.5875
2078.11255	4576.0875
2081.11938	4566.5875
2084.12426	4551.6875
2087.12722	4540.5875
2090.12824	4565.2875
2093.12732	4560.8875
2096.12447	4550.0875
2099.11969	4544.3875
2102.11299	4536.9875
2105.10435	4542.3875
2108.09379	4538.5875
2111.08131	4556.4875
2114.0669	4546.5875
2117.05057	4541.2875
2120.03233	4543.9875
2123.01216	4548.0875
2125.99008	4535.5875
2128.96609	4541.1875
2131.94018	4545.8875
2134.91236	4550.3875
2137.88263	4554.3875
2140.851	4542.5875
2143.81746	4535.3875
2146.78201	4557.1875
2149.74466	4551.6875
2152.7054	4561.3875
2155.66425	4550.0875
2158.6212	4527.2875
2161.57625	4519.1875
2164.52941	4524.0875
2167.48067	4524.8875
2170.43004	4514.3875
2173.37752	4519.5875
2176.32311	4512.0875
2179.26681	4512.0875
2182.20863	4514.3875
2185.14856	4505.3875
2188.08661	4499.9875
2191.02278	4498.8875
2193.95707	4507.8875
2196.88948	4480.2875
2199.82001	4494.4875
2202.74867	4484.4875
2205.67545	4473.6875
2208.60037	4472.4875
2211.52341	4458.7875
2214.44458	4447.5875
2217.36388	4439.1875
2220.28132	4440.1875
2223.1969	4438.9875
2226.11061	4418.1875
2229.02246	4412.6875
2231.93245	4393.9875
2234.84058	4377.7875
2237.74686	4374.5875
2240.65128	4361.8875
2243.55385	4354.7875
2246.45456	4362.0875
2249.35343	4338.3875
2252.25044	4350.4875
2255.14561	4344.6875
2258.03893	4337.5875
2260.93041	4327.5875
2263.82004	4319.9875
2266.70783	4297.0875
2269.59378	4286.9875
2272.4779	4275.8875
2275.36017	4275.1875
2278.24061	4248.5875
2281.11922	4233.4875
2283.996	4226.0875
2286.87094	4226.9875
2289.74405	4213.5875
2292.61534	4205.2875
2295.4848	4180.5875
2298.35243	4195.7875
2301.21824	4190.3875
2304.08223	4193.0875
2306.94439	4188.6875
2309.80474	4177.4875
2312.66327	4173.7875
2315.51999	4180.2875
2318.37489	4164.1875
2321.22797	4148.1875
2324.07925	4148.9875
2326.92871	4137.6875
2329.77637	4132.1875
2332.62222	4128.4875
2335.46626	4116.7875
2338.3085	4122.0875
2341.14893	4105.4875
2343.98756	4109.1875
2346.8244	4112.1875
2349.65943	4104.4875
2352.49267	4093.0875
2355.32411	4085.9875
2358.15376	4101.9875
2360.98161	4094.2875
2363.80768	4095.4875
2366.63195	4085.4875
2369.45444	4082.0875
2372.27514	4080.7875
2375.09405	4072.3875
2377.91118	4050.1875
2380.72652	4057.4875
2383.54009	4039.5875
2386.35187	4025.4875
2389.16188	4014.0875
2391.97011	3993.5875
2394.77657	3997.4875
2397.58125	3986.3875
2400.38416	3981.7875
2403.18529	3965.0875
2405.98466	3954.2875
2408.78226	3952.2875
2411.57809	3938.9875
2414.37216	3938.0875
2417.16446	3937.3875
2419.955	3922.0875
2422.74378	3912.3875
2425.5308	3910.0875
2428.31606	3912.4875
2431.09956	3900.1875
2433.88131	3881.8875
2436.6613	3893.7875
2439.43954	3889.7875
2442.21603	3890.6875
2444.99077	3873.6875
2447.76377	3882.0875
2450.53501	3874.4875
2453.30451	3873.7875
2456.07226	3853.3875
2458.83827	3861.4875
2461.60254	3850.1875
2464.36507	3850.9875
2467.12586	3844.9875
2469.88492	3842.7875
2472.64224	3846.8875
2475.39782	3846.2875
2478.15167	3855.3875
2480.90379	3837.9875
2483.65417	3854.2875
2486.40283	3842.5875
2489.14976	3842.6875
2491.89497	3829.3875
2494.63845	3860.3875
2497.3802	3855.3875
2500.12024	3827.8875
2502.85855	3821.3875
2505.59514	3813.8875
2508.33002	3809.9875
2511.06318	3807.0875
2513.79462	3782.7875
2516.52435	3788.3875
2519.25237	3777.8875
2521.97867	3764.9875
2524.70327	3765.5875
2527.42616	3754.5875
2530.14734	3752.2875
2532.86681	3740.4875
2535.58458	3732.3875
2538.30065	3728.5875
2541.01501	3728.2875
2543.72768	3723.4875
2546.43864	3725.3875
2549.14791	3714.7875
2551.85548	3707.2875
2554.56136	3703.3875
2557.26554	3683.9875
2559.96803	3680.7875
2562.66883	3675.0875
2565.36794	3671.8875
2568.06536	3670.2875
2570.7611	3657.2875
2573.45514	3648.5875
2576.14751	3651.5875
2578.83819	3640.6875
2581.52719	3647.2875
2584.21451	3630.3875
2586.90015	3619.7875
2589.58411	3634.1875
2592.2664	3627.0875
2594.94701	3601.5875
2597.62594	3614.3875
2600.30321	3598.9875
2602.9788	3613.1875
2605.65273	3600.2875
2608.32498	3601.4875
2610.99557	3575.9875
2613.66449	3589.6875
2616.33175	3575.0875
2618.99734	3578.6875
2621.66128	3570.3875
2624.32355	3571.4875
2626.98416	3557.4875
2629.64311	3562.6875
2632.30041	3551.2875
2634.95605	3547.5875
2637.61004	3544.9875
2640.26238	3546.7875
2642.91306	3541.0875
2645.56209	3514.7875
2648.20948	3527.7875
2650.85521	3517.5875
2653.4993	3521.9875
2656.14175	3524.5875
2658.78255	3512.0875
2661.42171	3527.9875
2664.05923	3511.8875
2666.6951	3521.2875
2669.32934	3516.9875
2671.96194	3518.2875
2674.59291	3517.5875
2677.22224	3513.9875
2679.84993	3524.6875
2682.476	3504.3875
2685.10043	3516.8875
2687.72324	3509.2875
2690.34441	3527.4875
2692.96396	3508.0875
2695.58188	3513.9875
2698.19818	3501.6875
2700.81285	3501.3875
2703.4259	3531.4875
2706.03733	3563.1875
2708.64714	3535.1875
2711.25533	3513.5875
2713.86191	3509.5875
2716.46687	3511.5875
2719.07021	3513.5875
2721.67194	3491.5875
2724.27206	3494.8875
2726.87057	3493.4875
2729.46747	3508.7875
2732.06276	3505.0875
2734.65644	3492.6875
2737.24852	3493.5875
2739.83899	3490.5875
2742.42786	3496.2875
2745.01513	3477.0875
2747.60079	3478.8875
2750.18486	3469.0875
2752.76733	3464.1875
2755.3482	3462.0875
2757.92747	3479.2875
2760.50515	3459.0875
2763.08123	3465.6875
2765.65573	3445.4875
2768.22863	3455.4875
2770.79994	3445.3875
2773.36967	3433.9875
2775.9378	3442.1875
2778.50435	3430.1875
2781.06932	3421.8875
2783.6327	3433.1875
2786.1945	3417.8875
2788.75471	3409.9875
2791.31335	3402.9875
2793.87041	3393.8875
2796.42589	3395.3875
2798.97979	3404.5875
2801.53212	3392.1875
2804.08288	3380.1875
2806.63206	3365.1875
2809.17967	3371.7875
2811.72571	3341.4875
2814.27018	3362.2875
2816.81308	3345.5875
2819.35442	3349.0875
2821.89419	3338.2875
2824.43239	3332.3875
2826.96904	3332.6875
2829.50412	3342.3875
2832.03763	3319.4875
2834.56959	3332.9875
2837.1	3318.3875
2839.62884	3324.0875
2842.15613	3321.7875
2844.68186	3317.9875
2847.20604	3318.4875
2849.72867	3319.4875
2852.24974	3317.3875
2854.76927	3325.1875
2857.28724	3339.1875
2859.80367	3316.1875
2862.31855	3311.2875
2864.83189	3302.4875
2867.34368	3298.7875
2869.85393	3291.7875
2872.36264	3285.0875
2874.8698	3288.6875
2877.37543	3285.5875
2879.87952	3290.8875
2882.38207	3300.5875
2884.88308	3296.1875
2887.38256	3285.6875
2889.88051	3292.8875
2892.37692	3284.7875
2894.8718	3291.2875
2897.36515	3284.4875
2899.85698	3281.2875
2902.34727	3285.4875
2904.83604	3293.1875
2907.32328	3275.0875
2909.809	3287.5875
2912.29319	3307.3875
2914.77587	3286.8875
2917.25702	3298.3875
2919.73665	3284.4875
2922.21476	3288.8875
2924.69136	3296.1875
2927.16644	3293.9875
2929.64	3279.8875
2932.11205	3278.8875
2934.58258	3261.0875
2937.05161	3265.2875
2939.51912	3265.7875
2941.98513	3270.4875
2944.44962	3255.9875
2946.91261	3253.2875
2949.37409	3256.8875
2951.83407	3252.1875
2954.29254	3258.9875
2956.74951	3264.0875
2959.20498	3244.6875
2961.65895	3236.3875
2964.11142	3224.2875
2966.56239	3221.6875
2969.01186	3218.7875
2971.45984	3210.8875
2973.90632	3208.7875
2976.35131	3210.4875
2978.7948	3191.7875
2981.23681	3189.6875
2983.67732	3173.7875
2986.11635	3171.5875
2988.55388	3162.8875
2990.98993	3162.5875
2993.4245	3153.8875
2995.85758	3157.7875
2998.28917	3161.7875
3000.71928	3144.9875
3003.14791	3135.2875
3005.57506	3154.7875
3008.00073	3139.7875
3010.42493	3119.9875
3012.84764	3120.6875
3015.26888	3121.5875
3017.68865	3121.7875
3020.10694	3112.6875
3022.52376	3102.2875
3024.9391	3093.5875
3027.35298	3113.9875
3029.76539	3091.3875
3032.17632	3092.0875
3034.5858	3069.4875
3036.9938	3088.6875
3039.40034	3079.9875
3041.80542	3077.3875
3044.20903	3077.9875
3046.61118	3083.6875
3049.01187	3064.2875
3051.4111	3058.3875
3053.80888	3046.6875
3056.20519	3060.0875
3058.60005	3054.4875
3060.99345	3056.9875
3063.3854	3041.5875
3065.7759	3047.1875
3068.16494	3041.6875
3070.55254	3029.9875
3072.93868	3025.0875
3075.32338	3007.1875
3077.70662	3015.4875
3080.08842	3015.0875
3082.46878	3001.6875
3084.84769	2999.8875
3087.22515	3013.1875
3089.60118	2995.7875
3091.97576	3000.9875
3094.3489	3014.2875
3096.72061	3013.5875
3099.09087	3011.0875
3101.4597	3020.1875
3103.82709	3016.2875
3106.19305	3018.6875
3108.55757	3013.7875
3110.92066	3004.2875
3113.28232	2998.6875
3115.64255	2992.9875
3118.00134	2999.3875
3120.35871	2999.3875
3122.71466	2992.3875
3125.06917	2994.2875
3127.42226	2991.8875
3129.77393	2985.3875
3132.12417	2993.1875
3134.47299	2986.3875
3136.82039	2992.1875
3139.16636	2988.3875
3141.51092	3010.8875
3143.85406	3009.9875
3146.19579	3019.3875
3148.53609	3018.4875
3150.87499	3016.5875
3153.21246	3022.0875
3155.54853	3043.8875
3157.88318	3028.1875
3160.21642	3034.7875
3162.54826	3046.2875
3164.87868	3039.7875
3167.2077	3043.1875
3169.5353	3052.9875
3171.86151	3055.0875
3174.18631	3053.2875
3176.5097	3037.0875
3178.83169	3049.3875
3181.15228	3044.1875
3183.47147	3038.2875
3185.78926	3034.1875
3188.10565	3036.9875
3190.42065	3043.8875
3192.73424	3052.7875
3195.04645	3053.0875
3197.35725	3061.4875
3199.66667	3066.1875
3201.97469	3063.5875
3204.28132	3076.3875
3206.58656	3070.7875
3208.8904	3072.6875
3211.19287	3076.6875
3213.49394	3080.9875
3215.79363	3083.6875
3218.09193	3089.7875
3220.38884	3102.6875
3222.68438	3103.7875
3224.97853	3094.9875
3227.2713	3094.5875
3229.56269	3084.2875
3231.8527	3084.8875
3234.14133	3078.9875
3236.42858	3080.8875
3238.71446	3076.0875
3240.99896	3072.0875
3243.28209	3069.2875
3245.56384	3073.7875
3247.84423	3072.4875
3250.12324	3068.9875
3252.40088	3067.9875
3254.67715	3063.8875
3256.95205	3066.7875
3259.22558	3066.6875
3261.49775	3056.3875
3263.76855	3057.0875
3266.03799	3041.1875
3268.30606	3034.5875
3270.57277	3029.1875
3272.83812	3016.6875
3275.10211	3025.4875
3277.36474	3025.4875
3279.62601	3018.3875
3281.88593	3012.3875
3284.14448	3017.3875
3286.40168	3014.3875
3288.65753	2996.1875
3290.91202	3009.9875
3293.16516	2988.9875
3295.41695	2989.4875
3297.66738	2970.9875
3299.91647	2968.0875
3302.16421	2937.9875
3304.4106	2929.1875
3306.65564	2918.7875
3308.89933	2899.8875
3311.14169	2895.2875
3313.38269	2873.4875
3315.62236	2851.2875
3317.86068	2835.7875
3320.09766	2804.8875
3322.3333	2796.1875
3324.5676	2787.1875
3326.80056	2754.7875
3329.03219	2737.0875
3331.26248	0.8875
3333.49143	-0.2125
3335.71905	0.2875
