Data from AgNPs_FTO_APTES_UA_20um_CRN_0.1mM_R6G_10uM_NaF_0.1M_Addition_RamanShift__28__14-48-59-206.txt Node

Date: Tue Dec 21 14:48:59 GMT 2021
User: TCL
Spectrometer: QEP01345
Trigger mode: 4
Integration Time (sec): 7.000000E0
Scans to average: 10
Electric dark correction enabled: true
Nonlinearity correction enabled: false
Boxcar width: 0
XAxis mode: Raman Shifts
Number of Pixels in Spectrum: 1044
>>>>>Begin Spectral Data<<<<<
46.04893	1.3375
50.45542	-1.8625
54.85868	-1.2625
59.25871	0.3375
63.6555	35.1375
68.04907	39.6375
72.43941	43.5375
76.82654	43.5375
81.21044	49.2375
85.59113	48.2375
89.96862	51.0375
94.34289	53.2375
98.71396	53.3375
103.08183	54.8375
107.4465	56.6375
111.80798	56.5375
116.16626	57.3375
120.52136	58.3375
124.87327	61.1375
129.222	58.4375
133.56755	63.8375
137.90993	68.9375
142.24913	69.2375
146.58517	76.6375
150.91804	84.8375
155.24774	94.2375
159.57429	117.6375
163.89768	142.9375
168.21792	177.7375
172.53501	236.6375
176.84895	324.7375
181.15975	454.0375
185.46741	624.2375
189.77193	865.6375
194.07331	1156.5375
198.37157	1483.2375
202.6667	1840.2375
206.9587	2173.6375
211.24758	2520.1375
215.53334	2871.2375
219.81599	3245.7375
224.09553	3679.1375
228.37195	4141.8375
232.64527	4648.1375
236.91549	5163.9375
241.18261	5704.1375
245.44663	6171.7375
249.70755	6581.3375
253.96539	6956.0375
258.22014	7213.3375
262.4718	7426.6375
266.72039	7576.9375
270.96589	7654.2375
275.20832	7670.5375
279.44768	7630.8375
283.68397	7579.1375
287.91719	7573.1375
292.14735	7545.6375
296.37445	7611.8375
300.59849	7713.8375
304.81948	7853.8375
309.03742	7976.0375
313.25231	7901.3375
317.46415	7627.3375
321.67296	7223.7375
325.87872	6880.1375
330.08145	6714.2375
334.28114	6710.2375
338.47781	6800.3375
342.67145	6939.3375
346.86207	7169.0375
351.04966	7442.6375
355.23424	7766.2375
359.4158	8030.0375
363.59435	8181.7375
367.76989	8238.0375
371.94243	8211.2375
376.11196	8217.9375
380.27849	8189.6375
384.44203	8163.0375
388.60257	8151.8375
392.76012	8134.5375
396.91468	8252.9375
401.06626	8474.6375
405.21485	8645.8375
409.36047	8610.5375
413.50311	8364.7375
417.64277	8084.7375
421.77947	7931.2375
425.9132	7903.7375
430.04396	7932.8375
434.17176	7968.3375
438.2966	8033.0375
442.41849	8188.7375
446.53742	8368.9375
450.6534	8591.9375
454.76644	8726.8375
458.87653	8762.2375
462.98368	8726.4375
467.08789	8601.8375
471.18916	8461.5375
475.2875	8355.0375
479.38291	8238.0375
483.4754	8152.3375
487.56496	8083.4375
491.6516	8030.4375
495.73531	7953.4375
499.81612	7958.4375
503.89401	7999.6375
507.96899	8032.2375
512.04106	8039.2375
516.11023	8063.7375
520.1765	8084.8375
524.23987	8063.1375
528.30034	7991.7375
532.35792	7900.7375
536.41261	7775.7375
540.46441	7624.7375
544.51333	7574.1375
548.55936	7620.0375
552.60252	7781.2375
556.64279	7946.6375
560.6802	8038.8375
564.71473	8138.2375
568.7464	8381.5375
572.7752	8583.1375
576.80114	8517.2375
580.82422	8454.5375
584.84444	8436.0375
588.86181	8419.5375
592.87633	8442.5375
596.888	8501.7375
600.89682	8661.6375
604.9028	9218.8375
608.90594	10738.9375
612.90624	12776.8375
616.90371	12433.4375
620.89834	9710.7375
624.89015	8393.3375
628.87913	8199.2375
632.86528	8293.7375
636.84862	8368.2375
640.82913	8263.0375
644.80683	7939.6375
648.78172	7688.0375
652.75379	7647.1375
656.72306	7805.2375
660.68952	8052.8375
664.65319	8034.5375
668.61405	7820.3375
672.57211	7683.6375
676.52738	7708.0375
680.47986	7708.8375
684.42955	7675.6375
688.37646	7643.3375
692.32058	7645.7375
696.26192	7687.4375
700.20048	7782.7375
704.13626	7868.3375
708.06928	7897.4375
711.99952	7801.8375
715.927	7741.9375
719.85171	7711.2375
723.77365	7693.3375
727.69284	7644.9375
731.60928	7546.5375
735.52295	7533.6375
739.43388	7525.3375
743.34206	7591.0375
747.24749	7635.1375
751.15017	7730.2375
755.05012	7847.6375
758.94733	8163.5375
762.8418	8725.7375
766.73354	9696.8375
770.62254	10689.5375
774.50882	11114.6375
778.39237	10745.9375
782.27321	9663.5375
786.15132	8620.4375
790.02671	7987.9375
793.89938	7718.7375
797.76935	7600.8375
801.6366	7572.1375
805.50115	7598.3375
809.36299	7624.5375
813.22213	7629.9375
817.07857	7610.1375
820.93231	7543.8375
824.78336	7494.6375
828.63172	7480.0375
832.47738	7470.1375
836.32036	7443.7375
840.16066	7433.0375
843.99827	7402.5375
847.8332	7363.2375
851.66546	7349.4375
855.49504	7339.6375
859.32195	7330.0375
863.1462	7299.2375
866.96777	7284.6375
870.78668	7288.1375
874.60293	7314.6375
878.41652	7356.4375
882.22745	7394.0375
886.03573	7464.6375
889.84136	7492.1375
893.64433	7417.8375
897.44466	7361.7375
901.24235	7300.6375
905.0374	7256.1375
908.8298	7220.4375
912.61957	7211.9375
916.40671	7237.1375
920.19121	7312.3375
923.97308	7376.9375
927.75233	7402.5375
931.52895	7419.3375
935.30295	7321.5375
939.07433	7146.2375
942.84309	7005.4375
946.60924	6968.2375
950.37278	6919.2375
954.13371	6900.0375
957.89203	6876.2375
961.64774	6852.5375
965.40086	6827.8375
969.15137	6811.4375
972.89929	6781.9375
976.64461	6767.9375
980.38733	6782.7375
984.12747	6758.3375
987.86502	6799.8375
991.59999	6834.4375
995.33237	6914.9375
999.06217	7029.0375
1002.78939	7214.6375
1006.51404	7391.4375
1010.23611	7539.8375
1013.95561	7674.8375
1017.67255	7675.8375
1021.38692	7588.1375
1025.09872	7435.7375
1028.80796	7375.3375
1032.51465	7402.0375
1036.21877	7443.0375
1039.92035	7502.8375
1043.61937	7532.6375
1047.31584	7503.8375
1051.00976	7492.0375
1054.70114	7451.1375
1058.38998	7497.4375
1062.07627	7554.6375
1065.76003	7636.2375
1069.44126	7706.5375
1073.11995	7777.8375
1076.79611	7819.2375
1080.46974	7839.4375
1084.14085	7938.0375
1087.80943	8032.8375
1091.47549	8060.9375
1095.13903	7990.1375
1098.80005	7810.1375
1102.45857	7591.8375
1106.11456	7490.3375
1109.76805	7447.5375
1113.41903	7539.2375
1117.06751	7694.8375
1120.71348	7935.3375
1124.35696	8209.6375
1127.99793	8447.2375
1131.63641	8464.2375
1135.2724	8285.4375
1138.90589	8086.9375
1142.5369	7927.6375
1146.16542	7782.1375
1149.79145	7715.6375
1153.415	7675.5375
1157.03607	7726.1375
1160.65467	7811.7375
1164.27079	8006.2375
1167.88443	8308.0375
1171.49561	8780.0375
1175.10432	9545.1375
1178.71056	10530.8375
1182.31434	11324.3375
1185.91565	11564.8375
1189.51451	11456.2375
1193.11091	11100.9375
1196.70485	10656.9375
1200.29634	10222.5375
1203.88538	9855.2375
1207.47197	9403.8375
1211.05612	8986.6375
1214.63782	8758.6375
1218.21708	8604.9375
1221.79391	8576.1375
1225.36829	8601.9375
1228.94024	8600.5375
1232.50976	8608.3375
1236.07685	8611.1375
1239.6415	8600.7375
1243.20374	8607.9375
1246.76355	8661.3375
1250.32093	8746.3375
1253.8759	8851.7375
1257.42845	9086.2375
1260.97859	9298.9375
1264.52631	9444.4375
1268.07163	9622.6375
1271.61453	9777.3375
1275.15503	9925.2375
1278.69312	10058.3375
1282.22882	10207.2375
1285.76211	10409.2375
1289.29301	10683.5375
1292.82151	11002.6375
1296.34761	11340.0375
1299.87133	11808.8375
1303.39266	12519.9375
1306.9116	13509.1375
1310.42815	14554.2375
1313.94233	15137.1375
1317.45412	14993.0375
1320.96354	14422.1375
1324.47058	13759.2375
1327.97525	13271.4375
1331.47754	12968.5375
1334.97747	12882.0375
1338.47502	13043.1375
1341.97022	13296.2375
1345.46305	13547.6375
1348.95352	13794.9375
1352.44163	14142.9375
1355.92738	14783.5375
1359.41078	15929.8375
1362.89183	16940.2375
1366.37053	16469.4375
1369.84688	14861.0375
1373.32088	13140.8375
1376.79254	11929.4375
1380.26186	11220.4375
1383.72883	10829.3375
1387.19347	10607.4375
1390.65578	10389.8375
1394.11575	10247.8375
1397.57339	10220.3375
1401.0287	10304.9375
1404.48168	10481.9375
1407.93234	10652.5375
1411.38068	10709.5375
1414.82669	10617.2375
1418.27039	10345.8375
1421.71177	10043.3375
1425.15083	9735.4375
1428.58758	9577.3375
1432.02203	9567.7375
1435.45416	9599.3375
1438.88399	9613.6375
1442.31151	9604.1375
1445.73673	9647.2375
1449.15965	9710.3375
1452.58027	9732.8375
1455.9986	9726.7375
1459.41463	9754.1375
1462.82837	9855.6375
1466.23982	10025.2375
1469.64898	10171.6375
1473.05586	10301.1375
1476.46045	10361.5375
1479.86276	10474.7375
1483.26279	10623.0375
1486.66054	10817.3375
1490.05602	11097.7375
1493.44922	11456.4375
1496.84016	11957.3375
1500.22882	12720.9375
1503.61521	13689.9375
1506.99934	14687.8375
1510.38121	15501.3375
1513.76081	15719.3375
1517.13816	14981.8375
1520.51324	13706.2375
1523.88607	12524.8375
1527.25665	11724.1375
1530.62498	11301.2375
1533.99105	11044.4375
1537.35488	10901.2375
1540.71647	10826.7375
1544.07581	10775.0375
1547.4329	10680.4375
1550.78776	10590.4375
1554.14038	10453.7375
1557.49077	10472.7375
1560.83892	10516.9375
1564.18484	10722.2375
1567.52853	10899.5375
1570.86999	11024.6375
1574.20922	11093.7375
1577.54624	11029.1375
1580.88103	10704.0375
1584.2136	10324.9375
1587.54395	10133.5375
1590.87208	10325.3375
1594.19801	10846.5375
1597.52172	11489.1375
1600.84321	11831.7375
1604.16251	11604.4375
1607.47959	10966.0375
1610.79447	10233.7375
1614.10715	9514.6375
1617.41763	8933.5375
1620.7259	8553.1375
1624.03199	8334.2375
1627.33587	8293.1375
1630.63757	8413.5375
1633.93707	8708.0375
1637.23439	9208.7375
1640.52951	9929.4375
1643.82246	10845.9375
1647.11321	11765.9375
1650.40179	12326.6375
1653.68819	12030.1375
1656.97241	10872.5375
1660.25446	9543.6375
1663.53433	8513.1375
1666.81203	7854.8375
1670.08756	7461.3375
1673.36092	7201.0375
1676.63211	7040.9375
1679.90115	6908.3375
1683.16801	6812.4375
1686.43272	6705.5375
1689.69527	6650.5375
1692.95567	6608.0375
1696.2139	6591.8375
1699.46999	6541.0375
1702.72392	6501.5375
1705.97571	6485.2375
1709.22535	6464.0375
1712.47284	6454.5375
1715.71819	6438.4375
1718.96139	6423.8375
1722.20246	6404.4375
1725.44139	6404.7375
1728.67818	6373.5375
1731.91284	6329.8375
1735.14537	6288.6375
1738.37576	6248.5375
1741.60403	6222.2375
1744.83017	6207.1375
1748.05418	6210.7375
1751.27607	6188.9375
1754.49584	6179.9375
1757.71349	6188.2375
1760.92903	6167.7375
1764.14244	6141.9375
1767.35375	6136.4375
1770.56294	6119.8375
1773.77002	6090.2375
1776.97499	6084.0375
1780.17785	6053.7375
1783.37861	6041.7375
1786.57727	6034.7375
1789.77382	6014.0375
1792.96828	6001.2375
1796.16064	5980.4375
1799.3509	5957.9375
1802.53907	5954.3375
1805.72514	5944.0375
1808.90913	5934.5375
1812.09102	5919.5375
1815.27083	5892.5375
1818.44856	5909.3375
1821.6242	5894.0375
1824.79776	5896.3375
1827.96924	5854.7375
1831.13864	5848.3375
1834.30597	5850.8375
1837.47122	5841.8375
1840.6344	5833.6375
1843.7955	5841.3375
1846.95454	5833.5375
1850.11151	5830.5375
1853.26642	5826.6375
1856.41926	5833.6375
1859.57004	5822.1375
1862.71876	5815.0375
1865.86542	5828.2375
1869.01003	5804.4375
1872.15258	5798.1375
1875.29308	5809.4375
1878.43152	5806.4375
1881.56792	5791.7375
1884.70227	5799.1375
1887.83457	5795.5375
1890.96482	5780.4375
1894.09304	5789.0375
1897.21921	5777.6375
1900.34335	5771.7375
1903.46544	5793.6375
1906.58551	5783.3375
1909.70353	5790.3375
1912.81953	5764.6375
1915.93349	5746.4375
1919.04543	5762.2375
1922.15534	5744.2375
1925.26322	5746.8375
1928.36908	5724.7375
1931.47292	5702.7375
1934.57473	5687.1375
1937.67453	5659.3375
1940.77232	5657.7375
1943.86808	5623.4375
1946.96184	5611.6375
1950.05358	5584.1375
1953.14331	5565.4375
1956.23103	5564.8375
1959.31675	5528.4375
1962.40046	5520.9375
1965.48217	5505.6375
1968.56188	5479.3375
1971.63959	5454.4375
1974.7153	5462.4375
1977.78901	5438.5375
1980.86073	5422.3375
1983.93046	5412.9375
1986.99819	5371.9375
1990.06394	5361.1375
1993.1277	5354.8375
1996.18947	5318.8375
1999.24925	5308.4375
2002.30706	5290.3375
2005.36288	5277.7375
2008.41672	5267.2375
2011.46859	5248.6375
2014.51848	5252.1375
2017.56639	5246.8375
2020.61233	5189.7375
2023.6563	5202.4375
2026.6983	5183.3375
2029.73833	5156.6375
2032.7764	5149.9375
2035.8125	5122.8375
2038.84664	5134.8375
2041.87881	5128.2375
2044.90903	5115.6375
2047.93729	5096.4375
2050.96359	5103.0375
2053.98794	5092.3375
2057.01034	5092.8375
2060.03078	5072.7375
2063.04927	5061.6375
2066.06582	5047.4375
2069.08042	5049.5375
2072.09307	5068.5375
2075.10378	5045.8375
2078.11255	5043.1375
2081.11938	5041.9375
2084.12426	5031.7375
2087.12722	5036.4375
2090.12824	5034.4375
2093.12732	5016.8375
2096.12447	5033.1375
2099.11969	5017.0375
2102.11299	5026.7375
2105.10435	5015.3375
2108.09379	5027.0375
2111.08131	5018.7375
2114.0669	5026.1375
2117.05057	5029.6375
2120.03233	5032.7375
2123.01216	5026.8375
2125.99008	5038.3375
2128.96609	5037.9375
2131.94018	5027.6375
2134.91236	5032.3375
2137.88263	5033.1375
2140.851	5045.1375
2143.81746	5043.2375
2146.78201	5056.6375
2149.74466	5047.1375
2152.7054	5040.5375
2155.66425	5021.8375
2158.6212	5020.6375
2161.57625	5022.1375
2164.52941	5024.7375
2167.48067	5010.6375
2170.43004	5006.3375
2173.37752	5015.6375
2176.32311	5010.3375
2179.26681	5010.8375
2182.20863	5002.1375
2185.14856	5005.0375
2188.08661	5013.6375
2191.02278	4993.0375
2193.95707	4984.8375
2196.88948	4994.9375
2199.82001	4976.6375
2202.74867	4976.9375
2205.67545	4957.7375
2208.60037	4953.3375
2211.52341	4971.3375
2214.44458	4964.0375
2217.36388	4937.6375
2220.28132	4919.7375
2223.1969	4895.1375
2226.11061	4915.9375
2229.02246	4881.0375
2231.93245	4893.4375
2234.84058	4881.4375
2237.74686	4873.9375
2240.65128	4856.6375
2243.55385	4851.7375
2246.45456	4861.2375
2249.35343	4831.2375
2252.25044	4843.2375
2255.14561	4824.2375
2258.03893	4825.6375
2260.93041	4842.1375
2263.82004	4822.2375
2266.70783	4804.2375
2269.59378	4806.2375
2272.4779	4782.5375
2275.36017	4777.1375
2278.24061	4761.2375
2281.11922	4747.6375
2283.996	4741.3375
2286.87094	4714.3375
2289.74405	4707.4375
2292.61534	4695.5375
2295.4848	4681.1375
2298.35243	4688.0375
2301.21824	4690.3375
2304.08223	4689.3375
2306.94439	4695.1375
2309.80474	4665.3375
2312.66327	4676.0375
2315.51999	4683.7375
2318.37489	4680.2375
2321.22797	4655.6375
2324.07925	4649.1375
2326.92871	4648.8375
2329.77637	4638.4375
2332.62222	4642.3375
2335.46626	4622.4375
2338.3085	4607.1375
2341.14893	4619.1375
2343.98756	4619.0375
2346.8244	4615.2375
2349.65943	4625.6375
2352.49267	4605.0375
2355.32411	4612.7375
2358.15376	4605.0375
2360.98161	4629.0375
2363.80768	4612.7375
2366.63195	4621.4375
2369.45444	4612.5375
2372.27514	4602.7375
2375.09405	4591.3375
2377.91118	4570.8375
2380.72652	4556.9375
2383.54009	4546.9375
2386.35187	4543.1375
2389.16188	4522.3375
2391.97011	4513.6375
2394.77657	4508.8375
2397.58125	4484.9375
2400.38416	4469.9375
2403.18529	4469.4375
2405.98466	4462.8375
2408.78226	4468.7375
2411.57809	4437.4375
2414.37216	4440.2375
2417.16446	4431.9375
2419.955	4431.2375
2422.74378	4432.1375
2425.5308	4420.7375
2428.31606	4420.9375
2431.09956	4412.0375
2433.88131	4390.5375
2436.6613	4404.7375
2439.43954	4398.1375
2442.21603	4388.8375
2444.99077	4388.5375
2447.76377	4387.9375
2450.53501	4378.8375
2453.30451	4383.7375
2456.07226	4376.4375
2458.83827	4380.7375
2461.60254	4366.1375
2464.36507	4352.1375
2467.12586	4359.4375
2469.88492	4362.3375
2472.64224	4354.6375
2475.39782	4362.5375
2478.15167	4366.1375
2480.90379	4350.2375
2483.65417	4357.1375
2486.40283	4359.1375
2489.14976	4367.4375
2491.89497	4365.4375
2494.63845	4358.2375
2497.3802	4370.5375
2500.12024	4347.7375
2502.85855	4358.2375
2505.59514	4347.8375
2508.33002	4331.8375
2511.06318	4323.7375
2513.79462	4320.8375
2516.52435	4305.0375
2519.25237	4291.9375
2521.97867	4285.5375
2524.70327	4281.2375
2527.42616	4285.0375
2530.14734	4263.3375
2532.86681	4262.9375
2535.58458	4255.7375
2538.30065	4241.6375
2541.01501	4244.2375
2543.72768	4239.9375
2546.43864	4230.9375
2549.14791	4226.6375
2551.85548	4216.2375
2554.56136	4209.4375
2557.26554	4209.3375
2559.96803	4198.3375
2562.66883	4191.3375
2565.36794	4190.1375
2568.06536	4179.8375
2570.7611	4174.9375
2573.45514	4180.0375
2576.14751	4165.2375
2578.83819	4152.2375
2581.52719	4153.6375
2584.21451	4154.4375
2586.90015	4144.8375
2589.58411	4152.2375
2592.2664	4133.8375
2594.94701	4124.2375
2597.62594	4109.5375
2600.30321	4111.8375
2602.9788	4106.7375
2605.65273	4111.5375
2608.32498	4105.2375
2610.99557	4111.6375
2613.66449	4095.7375
2616.33175	4093.5375
2618.99734	4098.0375
2621.66128	4087.8375
2624.32355	4089.4375
2626.98416	4078.4375
2629.64311	4069.4375
2632.30041	4074.4375
2634.95605	4073.1375
2637.61004	4066.9375
2640.26238	4050.5375
2642.91306	4067.6375
2645.56209	4037.3375
2648.20948	4039.0375
2650.85521	4041.5375
2653.4993	4031.7375
2656.14175	4037.4375
2658.78255	4035.4375
2661.42171	4052.0375
2664.05923	4056.2375
2666.6951	4046.0375
2669.32934	4039.5375
2671.96194	4055.0375
2674.59291	4059.1375
2677.22224	4057.0375
2679.84993	4046.1375
2682.476	4033.7375
2685.10043	4059.8375
2687.72324	4039.8375
2690.34441	4051.9375
2692.96396	4046.1375
2695.58188	4056.3375
2698.19818	4049.1375
2700.81285	4055.3375
2703.4259	4076.6375
2706.03733	4111.3375
2708.64714	4078.9375
2711.25533	4062.3375
2713.86191	4053.7375
2716.46687	4063.0375
2719.07021	4069.2375
2721.67194	4069.0375
2724.27206	4054.4375
2726.87057	4061.4375
2729.46747	4062.3375
2732.06276	4053.6375
2734.65644	4054.8375
2737.24852	4043.1375
2739.83899	4036.0375
2742.42786	4034.6375
2745.01513	4022.9375
2747.60079	4033.7375
2750.18486	4029.0375
2752.76733	4028.7375
2755.3482	4030.8375
2757.92747	4015.5375
2760.50515	4006.3375
2763.08123	4006.7375
2765.65573	3998.2375
2768.22863	4010.0375
2770.79994	3986.8375
2773.36967	4019.8375
2775.9378	3995.2375
2778.50435	3984.1375
2781.06932	3981.9375
2783.6327	4005.4375
2786.1945	3987.1375
2788.75471	3984.1375
2791.31335	3976.0375
2793.87041	3974.0375
2796.42589	3955.5375
2798.97979	3962.1375
2801.53212	3945.8375
2804.08288	3959.7375
2806.63206	3944.9375
2809.17967	3928.9375
2811.72571	3927.8375
2814.27018	3943.4375
2816.81308	3946.6375
2819.35442	3933.8375
2821.89419	3936.5375
2824.43239	3931.0375
2826.96904	3935.8375
2829.50412	3929.4375
2832.03763	3924.6375
2834.56959	3949.8375
2837.1	3934.4375
2839.62884	3945.9375
2842.15613	3944.4375
2844.68186	3998.0375
2847.20604	4011.8375
2849.72867	4038.6375
2852.24974	4040.6375
2854.76927	4057.7375
2857.28724	4048.7375
2859.80367	4031.8375
2862.31855	4017.5375
2864.83189	3996.0375
2867.34368	3985.3375
2869.85393	3988.1375
2872.36264	3967.5375
2874.8698	3980.7375
2877.37543	3967.2375
2879.87952	3979.5375
2882.38207	3978.4375
2884.88308	3957.5375
2887.38256	3979.6375
2889.88051	3965.6375
2892.37692	3967.8375
2894.8718	3965.2375
2897.36515	3978.5375
2899.85698	3971.1375
2902.34727	3984.2375
2904.83604	3967.9375
2907.32328	3980.0375
2909.809	3971.9375
2912.29319	3977.4375
2914.77587	3976.3375
2917.25702	3974.7375
2919.73665	3972.0375
2922.21476	3971.3375
2924.69136	3973.2375
2927.16644	3945.6375
2929.64	3940.3375
2932.11205	3943.6375
2934.58258	3929.6375
2937.05161	3944.9375
2939.51912	3926.8375
2941.98513	3909.8375
2944.44962	3885.2375
2946.91261	3863.5375
2949.37409	3872.9375
2951.83407	3858.4375
2954.29254	3848.6375
2956.74951	3841.3375
2959.20498	3834.4375
2961.65895	3808.4375
2964.11142	3795.0375
2966.56239	3787.9375
2969.01186	3778.9375
2971.45984	3758.4375
2973.90632	3759.5375
2976.35131	3737.1375
2978.7948	3743.1375
2981.23681	3725.0375
2983.67732	3704.9375
2986.11635	3720.3375
2988.55388	3702.9375
2990.98993	3679.4375
2993.4245	3684.4375
2995.85758	3668.4375
2998.28917	3671.6375
3000.71928	3652.7375
3003.14791	3649.6375
3005.57506	3644.1375
3008.00073	3640.2375
3010.42493	3640.1375
3012.84764	3615.1375
3015.26888	3628.4375
3017.68865	3620.6375
3020.10694	3619.9375
3022.52376	3606.2375
3024.9391	3589.8375
3027.35298	3598.1375
3029.76539	3588.7375
3032.17632	3582.4375
3034.5858	3583.5375
3036.9938	3576.5375
3039.40034	3562.2375
3041.80542	3566.7375
3044.20903	3546.1375
3046.61118	3560.1375
3049.01187	3554.3375
3051.4111	3547.8375
3053.80888	3527.6375
3056.20519	3540.8375
3058.60005	3524.3375
3060.99345	3531.1375
3063.3854	3519.9375
3065.7759	3514.1375
3068.16494	3508.5375
3070.55254	3484.4375
3072.93868	3478.7375
3075.32338	3471.2375
3077.70662	3468.8375
3080.08842	3458.1375
3082.46878	3464.9375
3084.84769	3454.0375
3087.22515	3442.5375
3089.60118	3445.7375
3091.97576	3456.1375
3094.3489	3441.4375
3096.72061	3454.9375
3099.09087	3464.1375
3101.4597	3443.3375
3103.82709	3444.8375
3106.19305	3433.0375
3108.55757	3433.5375
3110.92066	3426.5375
3113.28232	3440.1375
3115.64255	3414.5375
3118.00134	3415.2375
3120.35871	3417.9375
3122.71466	3411.3375
3125.06917	3415.6375
3127.42226	3398.8375
3129.77393	3407.1375
3132.12417	3405.2375
3134.47299	3408.4375
3136.82039	3412.2375
3139.16636	3409.3375
3141.51092	3432.0375
3143.85406	3421.6375
3146.19579	3420.4375
3148.53609	3433.0375
3150.87499	3429.2375
3153.21246	3435.3375
3155.54853	3434.1375
3157.88318	3446.6375
3160.21642	3442.3375
3162.54826	3452.0375
3164.87868	3452.9375
3167.2077	3449.6375
3169.5353	3444.8375
3171.86151	3462.9375
3174.18631	3476.4375
3176.5097	3452.5375
3178.83169	3442.7375
3181.15228	3445.5375
3183.47147	3438.8375
3185.78926	3439.0375
3188.10565	3439.4375
3190.42065	3447.3375
3192.73424	3446.7375
3195.04645	3448.2375
3197.35725	3467.3375
3199.66667	3450.4375
3201.97469	3465.8375
3204.28132	3471.4375
3206.58656	3491.5375
3208.8904	3481.1375
3211.19287	3476.1375
3213.49394	3457.0375
3215.79363	3471.8375
3218.09193	3487.2375
3220.38884	3490.6375
3222.68438	3480.6375
3224.97853	3459.6375
3227.2713	3477.7375
3229.56269	3470.4375
3231.8527	3476.5375
3234.14133	3455.3375
3236.42858	3460.5375
3238.71446	3463.6375
3240.99896	3448.9375
3243.28209	3455.5375
3245.56384	3433.9375
3247.84423	3444.4375
3250.12324	3442.3375
3252.40088	3448.4375
3254.67715	3442.4375
3256.95205	3430.0375
3259.22558	3432.7375
3261.49775	3411.6375
3263.76855	3419.0375
3266.03799	3411.5375
3268.30606	3406.3375
3270.57277	3391.8375
3272.83812	3402.5375
3275.10211	3397.6375
3277.36474	3374.6375
3279.62601	3383.3375
3281.88593	3371.8375
3284.14448	3386.6375
3286.40168	3375.5375
3288.65753	3367.7375
3290.91202	3370.3375
3293.16516	3362.0375
3295.41695	3352.8375
3297.66738	3336.3375
3299.91647	3306.9375
3302.16421	3300.2375
3304.4106	3286.0375
3306.65564	3278.6375
3308.89933	3253.1375
3311.14169	3250.5375
3313.38269	3213.4375
3315.62236	3186.8375
3317.86068	3175.9375
3320.09766	3136.4375
3322.3333	3123.9375
3324.5676	3123.1375
3326.80056	3076.6375
3329.03219	3053.1375
3331.26248	0.8375
3333.49143	-0.1625
3335.71905	0.3375
