Data from AgNPs_FTO_APTES_UA_5um_CRN_0.1mM_R6G_10uM_NaF_0.1M_Addition_RamanShift__24__13-24-59-109.txt Node

Date: Tue Dec 21 13:24:59 GMT 2021
User: TCL
Spectrometer: QEP01345
Trigger mode: 4
Integration Time (sec): 7.000000E0
Scans to average: 10
Electric dark correction enabled: true
Nonlinearity correction enabled: false
Boxcar width: 0
XAxis mode: Raman Shifts
Number of Pixels in Spectrum: 1044
>>>>>Begin Spectral Data<<<<<
46.04893	1
50.45542	-0.4
54.85868	-1
59.25871	1.1
63.6555	46.3
68.04907	56.9
72.43941	60.7
76.82654	60.7
81.21044	65.7
85.59113	68.1
89.96862	68.7
94.34289	67.7
98.71396	66.7
103.08183	76.2
107.4465	79.6
111.80798	81.5
116.16626	82.6
120.52136	85.3
124.87327	87.7
129.222	90.7
133.56755	100.3
137.90993	106.8
142.24913	115.3
146.58517	129.6
150.91804	147.1
155.24774	176.8
159.57429	221.6
163.89768	286.7
168.21792	376.8
172.53501	509.5
176.84895	711.7
181.15975	994.8
185.46741	1392.5
189.77193	1914.3
194.07331	2567.2
198.37157	3344.6
202.6667	4119.2
206.9587	4934.1
211.24758	5708
215.53334	6530.1
219.81599	7390.5
224.09553	8345
228.37195	9428.7
232.64527	10582.9
236.91549	11833.4
241.18261	13021
245.44663	14115.3
249.70755	15043.8
253.96539	15793.9
258.22014	16476.8
262.4718	17009.4
266.72039	17357.3
270.96589	17539.7
275.20832	17538.9
279.44768	17431.3
283.68397	17247.2
287.91719	17108.6
292.14735	17085.5
296.37445	17238
300.59849	17499.3
304.81948	17810.9
309.03742	17950.2
313.25231	17790.3
317.46415	17153.2
321.67296	16243.7
325.87872	15506.7
330.08145	15153.7
334.28114	15122.9
338.47781	15338.9
342.67145	15671.3
346.86207	16097.7
351.04966	16729.1
355.23424	17432.2
359.4158	18007.1
363.59435	18351.6
367.76989	18484.5
371.94243	18533.6
376.11196	18588.9
380.27849	18552.8
384.44203	18578.3
388.60257	18574.6
392.76012	18563.9
396.91468	18783.4
401.06626	19115.4
405.21485	19482.5
409.36047	19289.9
413.50311	18776.4
417.64277	18192.6
421.77947	17854.8
425.9132	17779.3
430.04396	17836.3
434.17176	17965
438.2966	18234.5
442.41849	18614.3
446.53742	19225.1
450.6534	19875.9
454.76644	20383.7
458.87653	20527.6
462.98368	20372.9
467.08789	20084.3
471.18916	19748.3
475.2875	19474
479.38291	19331.6
483.4754	19134.8
487.56496	18829.9
491.6516	18475.8
495.73531	18195.4
499.81612	18106
503.89401	18197.7
507.96899	18247.6
512.04106	18283.9
516.11023	18317.6
520.1765	18291.8
524.23987	18215.6
528.30034	18103.6
532.35792	17968.9
536.41261	17750.2
540.46441	17428.7
544.51333	17210.5
548.55936	17241.9
552.60252	17472.1
556.64279	17891.9
560.6802	18216.8
564.71473	18512
568.7464	19054.8
572.7752	19564.4
576.80114	19463.2
580.82422	19190.8
584.84444	19147.5
588.86181	19313.3
592.87633	19690
596.888	20022.5
600.89682	20279.1
604.9028	21372.8
608.90594	24774.2
612.90624	29036.5
616.90371	27768.9
620.89834	21380.7
624.89015	18216.3
628.87913	17753.4
632.86528	17900.3
636.84862	18016.9
640.82913	17739.1
644.80683	17103.5
648.78172	16571.8
652.75379	16454.3
656.72306	16755.4
660.68952	17292.9
664.65319	17329.2
668.61405	16945.6
672.57211	16868.6
676.52738	16919.4
680.47986	16899.3
684.42955	16726.3
688.37646	16517.1
692.32058	16413
696.26192	16526.8
700.20048	16680.1
704.13626	16818.7
708.06928	16765.2
711.99952	16589
715.927	16476
719.85171	16500.1
723.77365	16514.4
727.69284	16436
731.60928	16370.5
735.52295	16371.6
739.43388	16394.8
743.34206	16471.1
747.24749	16532.2
751.15017	16572.8
755.05012	16821.7
758.94733	17392.4
762.8418	18669.3
766.73354	20812.1
770.62254	23212.4
774.50882	24386.4
778.39237	23484.7
782.27321	20996.9
786.15132	18607.3
790.02671	17073.2
793.89938	16360.1
797.76935	16064.2
801.6366	15971.2
805.50115	15955.2
809.36299	15885.1
813.22213	15800.3
817.07857	15762.9
820.93231	15717.7
824.78336	15674.5
828.63172	15642.7
832.47738	15644.7
836.32036	15632.2
840.16066	15599.1
843.99827	15546.6
847.8332	15518
851.66546	15426.8
855.49504	15421.2
859.32195	15457.3
863.1462	15457.8
866.96777	15466.3
870.78668	15412.1
874.60293	15409
878.41652	15390
882.22745	15442.4
886.03573	15496.5
889.84136	15497.1
893.64433	15420.9
897.44466	15295.6
901.24235	15183.5
905.0374	15088.5
908.8298	14986.5
912.61957	14977.3
916.40671	15054.1
920.19121	15207
923.97308	15424
927.75233	15545.8
931.52895	15580.2
935.30295	15423.8
939.07433	15103.9
942.84309	14775.9
946.60924	14621
950.37278	14537.6
954.13371	14446.1
957.89203	14361.3
961.64774	14289.9
965.40086	14224.4
969.15137	14124.5
972.89929	14029.9
976.64461	13987.4
980.38733	13981.2
984.12747	13998.9
987.86502	14103.3
991.59999	14248.7
995.33237	14475.7
999.06217	14957.6
1002.78939	15524
1006.51404	15989.8
1010.23611	16321
1013.95561	16520.9
1017.67255	16511.1
1021.38692	16260.5
1025.09872	15966.4
1028.80796	15891
1032.51465	16118.2
1036.21877	16434.6
1039.92035	16543.2
1043.61937	16469.6
1047.31584	16201.9
1051.00976	15856.7
1054.70114	15619
1058.38998	15547.1
1062.07627	15566.3
1065.76003	15648.3
1069.44126	15721.5
1073.11995	15882.4
1076.79611	16042
1080.46974	16161.1
1084.14085	16370.1
1087.80943	16618.9
1091.47549	16752.9
1095.13903	16688.6
1098.80005	16342.3
1102.45857	15982
1106.11456	15740.4
1109.76805	15697.4
1113.41903	15880.9
1117.06751	16211.9
1120.71348	16685
1124.35696	17187
1127.99793	17695.5
1131.63641	17827.6
1135.2724	17446.8
1138.90589	16971.6
1142.5369	16582.3
1146.16542	16385.7
1149.79145	16222.1
1153.415	16239.4
1157.03607	16335
1160.65467	16655.5
1164.27079	17273.2
1167.88443	18146.5
1171.49561	19443.7
1175.10432	21330.1
1178.71056	23845.4
1182.31434	26117.3
1185.91565	27154.9
1189.51451	26872.9
1193.11091	25788.8
1196.70485	24367.9
1200.29634	22970.1
1203.88538	21892.4
1207.47197	20866.8
1211.05612	20039.9
1214.63782	19533.7
1218.21708	19320.1
1221.79391	19320
1225.36829	19257.5
1228.94024	19057.8
1232.50976	18795.1
1236.07685	18492.4
1239.6415	18386.7
1243.20374	18402.9
1246.76355	18524.3
1250.32093	18778.1
1253.8759	19239.5
1257.42845	19902.9
1260.97859	20505
1264.52631	21060
1268.07163	21642.9
1271.61453	22228.6
1275.15503	22834.6
1278.69312	23381.4
1282.22882	23867.5
1285.76211	24433.9
1289.29301	25241.8
1292.82151	26230.8
1296.34761	27385.5
1299.87133	28996.5
1303.39266	31047.3
1306.9116	33705
1310.42815	36512.3
1313.94233	38148.2
1317.45412	37847.5
1320.96354	36345.4
1324.47058	34657.1
1327.97525	33173.6
1331.47754	32104.2
1334.97747	31693.5
1338.47502	31866
1341.97022	32214.9
1345.46305	32457
1348.95352	32625.6
1352.44163	33301.7
1355.92738	34924.3
1359.41078	37550
1362.89183	40078.4
1366.37053	39135.2
1369.84688	34780.3
1373.32088	30071.7
1376.79254	26869.7
1380.26186	25257.4
1383.72883	24604.4
1387.19347	24261.2
1390.65578	23929.8
1394.11575	23890
1397.57339	24304.2
1401.0287	25005.8
1404.48168	25695.2
1407.93234	26225.9
1411.38068	26308
1414.82669	25790.9
1418.27039	24829.7
1421.71177	23611.3
1425.15083	22593
1428.58758	21963.3
1432.02203	21846.2
1435.45416	22035.8
1438.88399	22283.4
1442.31151	22603.9
1445.73673	22936.9
1449.15965	23405.5
1452.58027	23663.3
1455.9986	23803.7
1459.41463	24031.1
1462.82837	24470.3
1466.23982	25069
1469.64898	25575.6
1473.05586	25809.1
1476.46045	25748.2
1479.86276	25714.1
1483.26279	25731.5
1486.66054	25802
1490.05602	26091.3
1493.44922	26425.5
1496.84016	26938.8
1500.22882	27842
1503.61521	29367.2
1506.99934	31371.1
1510.38121	33248.3
1513.76081	33898.2
1517.13816	32582.5
1520.51324	29922.8
1523.88607	27372.2
1527.25665	25712.6
1530.62498	24752.2
1533.99105	24318.7
1537.35488	24098.6
1540.71647	23878.8
1544.07581	23716.6
1547.4329	23439.1
1550.78776	23177.2
1554.14038	22987.7
1557.49077	22977.3
1560.83892	23087.4
1564.18484	23373.4
1567.52853	23614.4
1570.86999	23818.7
1574.20922	24007.5
1577.54624	24006.2
1580.88103	23546.7
1584.2136	22990.1
1587.54395	23081.9
1590.87208	24042.4
1594.19801	25731.7
1597.52172	27678.4
1600.84321	28652.4
1604.16251	27786.2
1607.47959	25676.6
1610.79447	23151.4
1614.10715	20901.1
1617.41763	19134.4
1620.7259	17978
1624.03199	17406.8
1627.33587	17346.8
1630.63757	17827
1633.93707	18797.2
1637.23439	20368.7
1640.52951	22656.5
1643.82246	25480.6
1647.11321	28193.3
1650.40179	29555.6
1653.68819	28275.4
1656.97241	24836.6
1660.25446	20962.9
1663.53433	18103.7
1666.81203	16282.5
1670.08756	15170.6
1673.36092	14459.5
1676.63211	14017.7
1679.90115	13679.5
1683.16801	13434
1686.43272	13254.5
1689.69527	13121.7
1692.95567	12992.3
1696.2139	12953.5
1699.46999	12925.6
1702.72392	12843.8
1705.97571	12826.3
1709.22535	12761
1712.47284	12725
1715.71819	12711.5
1718.96139	12691
1722.20246	12639
1725.44139	12594.6
1728.67818	12487.9
1731.91284	12456
1735.14537	12368.4
1738.37576	12310.8
1741.60403	12281.9
1744.83017	12221.2
1748.05418	12239.3
1751.27607	12221.2
1754.49584	12198.5
1757.71349	12182.6
1760.92903	12151.9
1764.14244	12094.9
1767.35375	12089.8
1770.56294	12031
1773.77002	11997.4
1776.97499	11966.5
1780.17785	11914.4
1783.37861	11898.5
1786.57727	11866.6
1789.77382	11827.5
1792.96828	11811.6
1796.16064	11780.2
1799.3509	11776.2
1802.53907	11744.6
1805.72514	11700.4
1808.90913	11705.4
1812.09102	11681.1
1815.27083	11629.2
1818.44856	11618.5
1821.6242	11593.7
1824.79776	11571.8
1827.96924	11557.6
1831.13864	11547.4
1834.30597	11520
1837.47122	11507.4
1840.6344	11499.5
1843.7955	11502.7
1846.95454	11475.6
1850.11151	11472.8
1853.26642	11471.7
1856.41926	11473
1859.57004	11511.5
1862.71876	11458
1865.86542	11481.7
1869.01003	11481.1
1872.15258	11482.3
1875.29308	11481.6
1878.43152	11465.3
1881.56792	11474.7
1884.70227	11433.2
1887.83457	11453.5
1890.96482	11446.4
1894.09304	11453
1897.21921	11466.1
1900.34335	11432.4
1903.46544	11443.2
1906.58551	11425.9
1909.70353	11423.2
1912.81953	11393.3
1915.93349	11367.5
1919.04543	11361.9
1922.15534	11333.3
1925.26322	11322.4
1928.36908	11265
1931.47292	11244
1934.57473	11215.1
1937.67453	11173.2
1940.77232	11102.7
1943.86808	11105.5
1946.96184	11055.5
1950.05358	11004
1953.14331	10964.5
1956.23103	10922.4
1959.31675	10896.8
1962.40046	10847.3
1965.48217	10850.7
1968.56188	10814.4
1971.63959	10766.3
1974.7153	10750.2
1977.78901	10688
1980.86073	10631.2
1983.93046	10625.6
1986.99819	10560.3
1990.06394	10536.6
1993.1277	10489.4
1996.18947	10450.3
1999.24925	10445.5
2002.30706	10397.4
2005.36288	10376.7
2008.41672	10339.2
2011.46859	10299.2
2014.51848	10291
2017.56639	10235.6
2020.61233	10198.7
2023.6563	10202.6
2026.6983	10186.3
2029.73833	10160.4
2032.7764	10147.8
2035.8125	10127.1
2038.84664	10106.3
2041.87881	10099.6
2044.90903	10070.1
2047.93729	10058.4
2050.96359	10059.3
2053.98794	10040.1
2057.01034	9997.9
2060.03078	9976
2063.04927	9968.1
2066.06582	9958.9
2069.08042	9944.5
2072.09307	9931.6
2075.10378	9931.9
2078.11255	9901.1
2081.11938	9904
2084.12426	9885.5
2087.12722	9891.6
2090.12824	9835.6
2093.12732	9887.5
2096.12447	9888.7
2099.11969	9854.2
2102.11299	9844.6
2105.10435	9862.6
2108.09379	9869.6
2111.08131	9846.6
2114.0669	9861.4
2117.05057	9868.2
2120.03233	9876.7
2123.01216	9883.5
2125.99008	9876.5
2128.96609	9898.9
2131.94018	9891.2
2134.91236	9907.3
2137.88263	9891.5
2140.851	9876.5
2143.81746	9904.4
2146.78201	9871.4
2149.74466	9875.6
2152.7054	9888.4
2155.66425	9849.1
2158.6212	9865.1
2161.57625	9847.5
2164.52941	9892.8
2167.48067	9825.4
2170.43004	9832.2
2173.37752	9801.1
2176.32311	9821
2179.26681	9812.2
2182.20863	9819.5
2185.14856	9812.8
2188.08661	9823.6
2191.02278	9789.1
2193.95707	9806.6
2196.88948	9796.1
2199.82001	9809.5
2202.74867	9757.8
2205.67545	9777.7
2208.60037	9771.1
2211.52341	9762.2
2214.44458	9764.1
2217.36388	9721
2220.28132	9698.3
2223.1969	9694.8
2226.11061	9667.1
2229.02246	9655.9
2231.93245	9660.8
2234.84058	9598.4
2237.74686	9595.7
2240.65128	9557.6
2243.55385	9558.1
2246.45456	9562.1
2249.35343	9529.8
2252.25044	9548.5
2255.14561	9505.4
2258.03893	9508.6
2260.93041	9496.7
2263.82004	9469.3
2266.70783	9442.6
2269.59378	9406.2
2272.4779	9376.6
2275.36017	9353.6
2278.24061	9342.1
2281.11922	9303.4
2283.996	9280.8
2286.87094	9278.7
2289.74405	9269.9
2292.61534	9249.1
2295.4848	9243.7
2298.35243	9234.8
2301.21824	9216.8
2304.08223	9246.2
2306.94439	9210.8
2309.80474	9225.1
2312.66327	9222.1
2315.51999	9200.8
2318.37489	9209.4
2321.22797	9194.1
2324.07925	9191.4
2326.92871	9182.5
2329.77637	9191.3
2332.62222	9161.8
2335.46626	9181.2
2338.3085	9156.2
2341.14893	9151.3
2343.98756	9141
2346.8244	9153.7
2349.65943	9132.6
2352.49267	9145.4
2355.32411	9168.6
2358.15376	9152.9
2360.98161	9164.5
2363.80768	9144.8
2366.63195	9124.9
2369.45444	9128.6
2372.27514	9102.6
2375.09405	9060.2
2377.91118	9043.9
2380.72652	9029.8
2383.54009	9011.6
2386.35187	8995
2389.16188	8923.6
2391.97011	8927.6
2394.77657	8912.3
2397.58125	8926.2
2400.38416	8892.3
2403.18529	8847.9
2405.98466	8847.5
2408.78226	8799.1
2411.57809	8811.1
2414.37216	8787.6
2417.16446	8782.8
2419.955	8774.6
2422.74378	8763.6
2425.5308	8752.2
2428.31606	8727.7
2431.09956	8735.8
2433.88131	8726.9
2436.6613	8710
2439.43954	8696.8
2442.21603	8684.3
2444.99077	8680.2
2447.76377	8711.1
2450.53501	8690.2
2453.30451	8692.8
2456.07226	8686.8
2458.83827	8693.5
2461.60254	8670.5
2464.36507	8676.6
2467.12586	8678.8
2469.88492	8675.4
2472.64224	8664.8
2475.39782	8675.4
2478.15167	8686
2480.90379	8684.2
2483.65417	8713.9
2486.40283	8706.6
2489.14976	8699.7
2491.89497	8691.9
2494.63845	8718.9
2497.3802	8720.9
2500.12024	8720.3
2502.85855	8675.4
2505.59514	8698.1
2508.33002	8647.9
2511.06318	8653
2513.79462	8645
2516.52435	8597
2519.25237	8610.7
2521.97867	8576.4
2524.70327	8566.6
2527.42616	8557.9
2530.14734	8547.7
2532.86681	8547.1
2535.58458	8547.5
2538.30065	8513.9
2541.01501	8521.8
2543.72768	8517.4
2546.43864	8499.9
2549.14791	8497.6
2551.85548	8482.2
2554.56136	8483.6
2557.26554	8475
2559.96803	8474.5
2562.66883	8463.6
2565.36794	8475.3
2568.06536	8465.2
2570.7611	8425.9
2573.45514	8425.8
2576.14751	8418.8
2578.83819	8416.3
2581.52719	8430.3
2584.21451	8398.3
2586.90015	8383.7
2589.58411	8384.7
2592.2664	8377.9
2594.94701	8379.8
2597.62594	8372.3
2600.30321	8390.6
2602.9788	8351.7
2605.65273	8349.1
2608.32498	8341
2610.99557	8353.6
2613.66449	8335
2616.33175	8324.9
2618.99734	8340.6
2621.66128	8348.9
2624.32355	8351.8
2626.98416	8339.9
2629.64311	8332.6
2632.30041	8356.2
2634.95605	8331.5
2637.61004	8318.7
2640.26238	8301.2
2642.91306	8293.7
2645.56209	8287.4
2648.20948	8279.7
2650.85521	8267.2
2653.4993	8264.4
2656.14175	8250.6
2658.78255	8270.6
2661.42171	8268.6
2664.05923	8287
2666.6951	8291
2669.32934	8282
2671.96194	8288.8
2674.59291	8277.4
2677.22224	8295.5
2679.84993	8280.2
2682.476	8283
2685.10043	8281.5
2687.72324	8258.5
2690.34441	8246
2692.96396	8264.1
2695.58188	8277.8
2698.19818	8248
2700.81285	8251.1
2703.4259	8265.8
2706.03733	8323.3
2708.64714	8276.9
2711.25533	8280.6
2713.86191	8264
2716.46687	8297.7
2719.07021	8289.5
2721.67194	8278.4
2724.27206	8268.3
2726.87057	8286.9
2729.46747	8288.4
2732.06276	8289.2
2734.65644	8272.8
2737.24852	8265.4
2739.83899	8269.8
2742.42786	8250
2745.01513	8259.5
2747.60079	8254.1
2750.18486	8223.7
2752.76733	8238.4
2755.3482	8235.8
2757.92747	8223.8
2760.50515	8207.5
2763.08123	8224.9
2765.65573	8235
2768.22863	8229.4
2770.79994	8224.9
2773.36967	8228.7
2775.9378	8214.1
2778.50435	8224.1
2781.06932	8206.5
2783.6327	8200.2
2786.1945	8219.6
2788.75471	8191.6
2791.31335	8176.8
2793.87041	8177.7
2796.42589	8153.6
2798.97979	8146
2801.53212	8128.1
2804.08288	8136.6
2806.63206	8102
2809.17967	8107.2
2811.72571	8078.7
2814.27018	8084.6
2816.81308	8074.2
2819.35442	8067.4
2821.89419	8073.2
2824.43239	8080.6
2826.96904	8077.1
2829.50412	8075.2
2832.03763	8065.7
2834.56959	8063.9
2837.1	8053
2839.62884	8055.8
2842.15613	8032.1
2844.68186	8060.4
2847.20604	8074.9
2849.72867	8074.6
2852.24974	8065.3
2854.76927	8069.6
2857.28724	8067.9
2859.80367	8051.3
2862.31855	8037.9
2864.83189	8046.5
2867.34368	8006
2869.85393	8031.1
2872.36264	8014.4
2874.8698	8019.9
2877.37543	8003.3
2879.87952	8033.6
2882.38207	8019.8
2884.88308	8027.8
2887.38256	8047.9
2889.88051	8013.5
2892.37692	8006.9
2894.8718	8025.4
2897.36515	8037.5
2899.85698	8023.8
2902.34727	8047.2
2904.83604	8041.9
2907.32328	8093
2909.809	8059.9
2912.29319	8100
2914.77587	8079.8
2917.25702	8075.6
2919.73665	8057
2922.21476	8063.6
2924.69136	8054.6
2927.16644	8072.7
2929.64	8040.5
2932.11205	8031.5
2934.58258	7981.2
2937.05161	7997.9
2939.51912	8004.5
2941.98513	7980.1
2944.44962	7975.8
2946.91261	7929.7
2949.37409	7938.5
2951.83407	7917
2954.29254	7895.9
2956.74951	7871.1
2959.20498	7857.7
2961.65895	7854.8
2964.11142	7825.6
2966.56239	7779.7
2969.01186	7780.9
2971.45984	7741.3
2973.90632	7731.2
2976.35131	7695.4
2978.7948	7686.7
2981.23681	7667.9
2983.67732	7638.9
2986.11635	7620.3
2988.55388	7602.1
2990.98993	7587.9
2993.4245	7578.1
2995.85758	7556.3
2998.28917	7525.9
3000.71928	7530.6
3003.14791	7523.2
3005.57506	7516.1
3008.00073	7491.6
3010.42493	7490.7
3012.84764	7475
3015.26888	7462.8
3017.68865	7446.7
3020.10694	7435.7
3022.52376	7403.3
3024.9391	7381.4
3027.35298	7383.8
3029.76539	7357
3032.17632	7349.8
3034.5858	7329.9
3036.9938	7319.8
3039.40034	7304.2
3041.80542	7312
3044.20903	7270.4
3046.61118	7281.6
3049.01187	7239.8
3051.4111	7255.8
3053.80888	7235.3
3056.20519	7211.9
3058.60005	7197.6
3060.99345	7186.2
3063.3854	7160
3065.7759	7147
3068.16494	7109.1
3070.55254	7077.3
3072.93868	7075.6
3075.32338	7044.1
3077.70662	7029.9
3080.08842	7020.4
3082.46878	6998.2
3084.84769	6977.3
3087.22515	6984.9
3089.60118	6990.3
3091.97576	6971.6
3094.3489	6967.3
3096.72061	6986
3099.09087	6966.2
3101.4597	6966.3
3103.82709	6969.4
3106.19305	6923.9
3108.55757	6932.7
3110.92066	6902.6
3113.28232	6886.7
3115.64255	6870.4
3118.00134	6845.1
3120.35871	6848.4
3122.71466	6835.2
3125.06917	6826.1
3127.42226	6822.8
3129.77393	6812.1
3132.12417	6808.7
3134.47299	6815.5
3136.82039	6811.6
3139.16636	6789.2
3141.51092	6803.9
3143.85406	6796.9
3146.19579	6795.5
3148.53609	6786.7
3150.87499	6794.8
3153.21246	6785.8
3155.54853	6794
3157.88318	6788.1
3160.21642	6784.6
3162.54826	6787.1
3164.87868	6769.1
3167.2077	6762.6
3169.5353	6784.6
3171.86151	6750
3174.18631	6746.5
3176.5097	6747.7
3178.83169	6732.6
3181.15228	6729.6
3183.47147	6737.5
3185.78926	6724.8
3188.10565	6707.6
3190.42065	6724.8
3192.73424	6725.2
3195.04645	6717.4
3197.35725	6732.8
3199.66667	6730.5
3201.97469	6731.9
3204.28132	6734.6
3206.58656	6744.9
3208.8904	6728.8
3211.19287	6722.9
3213.49394	6741.9
3215.79363	6724.6
3218.09193	6726.3
3220.38884	6737.1
3222.68438	6730.6
3224.97853	6722.6
3227.2713	6705.9
3229.56269	6680.4
3231.8527	6708.2
3234.14133	6664.5
3236.42858	6664.5
3238.71446	6668.5
3240.99896	6653.4
3243.28209	6650.1
3245.56384	6658.8
3247.84423	6650.6
3250.12324	6655.8
3252.40088	6658.4
3254.67715	6622.9
3256.95205	6604.4
3259.22558	6597.3
3261.49775	6567
3263.76855	6564.9
3266.03799	6543
3268.30606	6544
3270.57277	6545.3
3272.83812	6516.6
3275.10211	6516.1
3277.36474	6499.9
3279.62601	6512.2
3281.88593	6483.6
3284.14448	6493
3286.40168	6492
3288.65753	6486.5
3290.91202	6476.9
3293.16516	6447.2
3295.41695	6448.5
3297.66738	6421.3
3299.91647	6392.1
3302.16421	6335.2
3304.4106	6316.4
3306.65564	6287.9
3308.89933	6239.2
3311.14169	6227.4
3313.38269	6172.8
3315.62236	6156.9
3317.86068	6086.7
3320.09766	6028.5
3322.3333	5965
3324.5676	5986.8
3326.80056	5887.3
3329.03219	5859.3
3331.26248	1.1
3333.49143	-1
3335.71905	-0.3
