Data from AgNPs_FTO_APTES_UA_100um_CRN_0.1mM_R6G_10uM_NaF_0.1M_Addition_RamanShift__13__16-00-09-287.txt Node

Date: Tue Dec 21 16:00:09 GMT 2021
User: TCL
Spectrometer: QEP01345
Trigger mode: 4
Integration Time (sec): 7.000000E0
Scans to average: 10
Electric dark correction enabled: true
Nonlinearity correction enabled: false
Boxcar width: 0
XAxis mode: Raman Shifts
Number of Pixels in Spectrum: 1044
>>>>>Begin Spectral Data<<<<<
46.04893	0.4
50.45542	-0.7
54.85868	-0.6
59.25871	1.6
63.6555	28.4
68.04907	34.7
72.43941	36.5
76.82654	35.8
81.21044	42.6
85.59113	43.2
89.96862	45.6
94.34289	43.9
98.71396	41.6
103.08183	49.1
107.4465	49.3
111.80798	50.9
116.16626	50.6
120.52136	50
124.87327	52.4
129.222	48.7
133.56755	55.4
137.90993	57.6
142.24913	59.3
146.58517	67.4
150.91804	75.4
155.24774	87.6
159.57429	101.6
163.89768	132.9
168.21792	167.2
172.53501	227
176.84895	306.2
181.15975	432.5
185.46741	606.6
189.77193	831
194.07331	1118.6
198.37157	1450.4
202.6667	1796.3
206.9587	2150
211.24758	2488.2
215.53334	2839
219.81599	3176.2
224.09553	3575.9
228.37195	3999.5
232.64527	4480.3
236.91549	5009
241.18261	5548.6
245.44663	6028.4
249.70755	6471.3
253.96539	6847.9
258.22014	7137.3
262.4718	7358.5
266.72039	7489.6
270.96589	7547.3
275.20832	7478.9
279.44768	7408.8
283.68397	7276.2
287.91719	7166.3
292.14735	7062.1
296.37445	6991.4
300.59849	6975
304.81948	7000.5
309.03742	6979.4
313.25231	6916.5
317.46415	6800.1
321.67296	6644.2
325.87872	6510.7
330.08145	6451
334.28114	6452.1
338.47781	6493.7
342.67145	6544.2
346.86207	6677.8
351.04966	6760.9
355.23424	6897.4
359.4158	6991.7
363.59435	7095.6
367.76989	7144.9
371.94243	7195.6
376.11196	7272.9
380.27849	7290
384.44203	7340.1
388.60257	7385.1
392.76012	7453.3
396.91468	7531.6
401.06626	7658.3
405.21485	7747.3
409.36047	7727.8
413.50311	7673.8
417.64277	7538.5
421.77947	7454
425.9132	7401.5
430.04396	7406.2
434.17176	7402.5
438.2966	7474.6
442.41849	7488.7
446.53742	7534
450.6534	7630.1
454.76644	7716.3
458.87653	7754.2
462.98368	7781
467.08789	7791.5
471.18916	7746.6
475.2875	7732.3
479.38291	7704.4
483.4754	7654.8
487.56496	7646.3
491.6516	7627.5
495.73531	7595.8
499.81612	7576.3
503.89401	7637.2
507.96899	7645
512.04106	7661.5
516.11023	7681.5
520.1765	7663.1
524.23987	7633.5
528.30034	7544.6
532.35792	7505.6
536.41261	7460.4
540.46441	7395.3
544.51333	7387.1
548.55936	7426.5
552.60252	7500
556.64279	7582.4
560.6802	7653.2
564.71473	7647.3
568.7464	7696.1
572.7752	7722.7
576.80114	7762.6
580.82422	7825.3
584.84444	7861.4
588.86181	7855.2
592.87633	7839.9
596.888	7820.8
600.89682	7880
604.9028	8148.6
608.90594	8806.1
612.90624	9605.3
616.90371	9439.3
620.89834	8294.1
624.89015	7681.8
628.87913	7546.2
632.86528	7612.2
636.84862	7666.4
640.82913	7648.8
644.80683	7555.5
648.78172	7453.1
652.75379	7415.3
656.72306	7480.5
660.68952	7592.8
664.65319	7610
668.61405	7571.7
672.57211	7562.4
676.52738	7619.2
680.47986	7600.3
684.42955	7590.2
688.37646	7565.3
692.32058	7584.2
696.26192	7580.4
700.20048	7615.1
704.13626	7618.9
708.06928	7571.8
711.99952	7511.3
715.927	7447.4
719.85171	7414.5
723.77365	7387.6
727.69284	7346.5
731.60928	7303.9
735.52295	7272.6
739.43388	7277.2
743.34206	7290.8
747.24749	7331.1
751.15017	7345.4
755.05012	7367.5
758.94733	7504.4
762.8418	7708.1
766.73354	8103.6
770.62254	8579.5
774.50882	8836.1
778.39237	8629.3
782.27321	8150.5
786.15132	7711.4
790.02671	7431.3
793.89938	7271.2
797.76935	7202.7
801.6366	7175.2
805.50115	7131.8
809.36299	7143.9
813.22213	7110.4
817.07857	7086
820.93231	7079.4
824.78336	7039.9
828.63172	7025.5
832.47738	7032.1
836.32036	7010.2
840.16066	6995.4
843.99827	6970.8
847.8332	6980.4
851.66546	6954.3
855.49504	6944.9
859.32195	6929.3
863.1462	6948.9
866.96777	6903.8
870.78668	6920.7
874.60293	6939.2
878.41652	6920.4
882.22745	6926.4
886.03573	6946
889.84136	6962.5
893.64433	6955.6
897.44466	6940.9
901.24235	6935.9
905.0374	6901.7
908.8298	6894.3
912.61957	6864.6
916.40671	6896.3
920.19121	6907.6
923.97308	6894.2
927.75233	6905
931.52895	6884.7
935.30295	6853.3
939.07433	6782.2
942.84309	6723.5
946.60924	6659.9
950.37278	6640.5
954.13371	6595
957.89203	6601.4
961.64774	6591.7
965.40086	6565.6
969.15137	6559.9
972.89929	6534
976.64461	6504.3
980.38733	6515.7
984.12747	6498.1
987.86502	6496.3
991.59999	6507.1
995.33237	6500.1
999.06217	6543.5
1002.78939	6558
1006.51404	6585.1
1010.23611	6632.4
1013.95561	6685.3
1017.67255	6686.6
1021.38692	6682.3
1025.09872	6657.6
1028.80796	6606.4
1032.51465	6581.3
1036.21877	6574.5
1039.92035	6609.2
1043.61937	6626.3
1047.31584	6648.1
1051.00976	6692.7
1054.70114	6682.2
1058.38998	6701.9
1062.07627	6731.2
1065.76003	6790.3
1069.44126	6816.7
1073.11995	6854.7
1076.79611	6893
1080.46974	6896
1084.14085	6929
1087.80943	6920.5
1091.47549	6959.3
1095.13903	6967.4
1098.80005	6947.7
1102.45857	6862.9
1106.11456	6792.6
1109.76805	6734.5
1113.41903	6775.7
1117.06751	6795.7
1120.71348	6873.9
1124.35696	6922.4
1127.99793	7019.2
1131.63641	7074.1
1135.2724	7027
1138.90589	6925.4
1142.5369	6856.7
1146.16542	6800.2
1149.79145	6805.3
1153.415	6759.3
1157.03607	6771
1160.65467	6832.8
1164.27079	6888.9
1167.88443	7028.5
1171.49561	7237.4
1175.10432	7511.7
1178.71056	7897.7
1182.31434	8243.3
1185.91565	8457.3
1189.51451	8448.9
1193.11091	8334.6
1196.70485	8136.5
1200.29634	7924.6
1203.88538	7699.4
1207.47197	7510.2
1211.05612	7333.3
1214.63782	7190.8
1218.21708	7114.6
1221.79391	7041.2
1225.36829	6995.2
1228.94024	6978.8
1232.50976	6971.9
1236.07685	6952.1
1239.6415	6947.9
1243.20374	6970.7
1246.76355	6993.8
1250.32093	7022.9
1253.8759	7073.3
1257.42845	7171.7
1260.97859	7279.1
1264.52631	7366.1
1268.07163	7450.5
1271.61453	7532
1275.15503	7581.3
1278.69312	7635.7
1282.22882	7660.1
1285.76211	7721
1289.29301	7800.7
1292.82151	7934.9
1296.34761	8064.9
1299.87133	8259.6
1303.39266	8514.3
1306.9116	8853.9
1310.42815	9163.5
1313.94233	9354.1
1317.45412	9340.5
1320.96354	9176.6
1324.47058	9012.9
1327.97525	8832.9
1331.47754	8691.2
1334.97747	8625.6
1338.47502	8648.2
1341.97022	8761.8
1345.46305	8924
1348.95352	9151.2
1352.44163	9350.8
1355.92738	9627.4
1359.41078	9992.4
1362.89183	10449.1
1366.37053	10398.4
1369.84688	9682.3
1373.32088	8840.6
1376.79254	8207.9
1380.26186	7872.7
1383.72883	7683.7
1387.19347	7574.2
1390.65578	7432
1394.11575	7310.9
1397.57339	7195.6
1401.0287	7122.6
1404.48168	7069.7
1407.93234	7020.7
1411.38068	6975.1
1414.82669	6916.8
1418.27039	6849.4
1421.71177	6739.9
1425.15083	6646.5
1428.58758	6540.3
1432.02203	6523
1435.45416	6525.8
1438.88399	6547
1442.31151	6533.6
1445.73673	6559.2
1449.15965	6606.5
1452.58027	6614.2
1455.9986	6630.2
1459.41463	6663.8
1462.82837	6721.9
1466.23982	6801.1
1469.64898	6899
1473.05586	7011.1
1476.46045	7051.3
1479.86276	7106.4
1483.26279	7176
1486.66054	7229
1490.05602	7327.5
1493.44922	7482.4
1496.84016	7764.8
1500.22882	8159.8
1503.61521	8688
1506.99934	9238
1510.38121	9648.6
1513.76081	9691
1517.13816	9367.6
1520.51324	8826.1
1523.88607	8307.5
1527.25665	7922.1
1530.62498	7724.8
1533.99105	7563.7
1537.35488	7456
1540.71647	7340.6
1544.07581	7258.1
1547.4329	7197.6
1550.78776	7156.5
1554.14038	7133.6
1557.49077	7155.8
1560.83892	7221.5
1564.18484	7294.3
1567.52853	7390.8
1570.86999	7500.2
1574.20922	7554.5
1577.54624	7553.6
1580.88103	7439.7
1584.2136	7245.4
1587.54395	7090.7
1590.87208	7055.6
1594.19801	7152.6
1597.52172	7281.9
1600.84321	7359.6
1604.16251	7298.9
1607.47959	7121.5
1610.79447	6925.9
1614.10715	6709.9
1617.41763	6491.5
1620.7259	6312.3
1624.03199	6194.5
1627.33587	6161.6
1630.63757	6155.2
1633.93707	6218.4
1637.23439	6359.3
1640.52951	6621.1
1643.82246	7016.4
1647.11321	7478.3
1650.40179	7866.9
1653.68819	7957.5
1656.97241	7552.5
1660.25446	7003.5
1663.53433	6509.7
1666.81203	6137.8
1670.08756	5890.1
1673.36092	5712.2
1676.63211	5603.9
1679.90115	5514.9
1683.16801	5450.5
1686.43272	5377.9
1689.69527	5329
1692.95567	5306
1696.2139	5304.8
1699.46999	5308.1
1702.72392	5269.6
1705.97571	5232.2
1709.22535	5179.3
1712.47284	5170.5
1715.71819	5152.4
1718.96139	5130.9
1722.20246	5118.6
1725.44139	5068.9
1728.67818	5045.7
1731.91284	5007.9
1735.14537	4979.3
1738.37576	4973.3
1741.60403	4938.9
1744.83017	4935
1748.05418	4919.1
1751.27607	4900
1754.49584	4916.6
1757.71349	4909
1760.92903	4910.6
1764.14244	4906
1767.35375	4886.4
1770.56294	4853
1773.77002	4832.1
1776.97499	4791.2
1780.17785	4766
1783.37861	4735.4
1786.57727	4711
1789.77382	4683.6
1792.96828	4677.2
1796.16064	4639.1
1799.3509	4631.9
1802.53907	4627.6
1805.72514	4589
1808.90913	4565.1
1812.09102	4550.2
1815.27083	4530.6
1818.44856	4509.4
1821.6242	4513.6
1824.79776	4486.4
1827.96924	4493.1
1831.13864	4486.7
1834.30597	4476.5
1837.47122	4452
1840.6344	4437.1
1843.7955	4443
1846.95454	4450.5
1850.11151	4434.3
1853.26642	4422.3
1856.41926	4410.1
1859.57004	4413.4
1862.71876	4401.8
1865.86542	4376.3
1869.01003	4366.8
1872.15258	4378.9
1875.29308	4363.9
1878.43152	4365.4
1881.56792	4339.1
1884.70227	4330.2
1887.83457	4312.8
1890.96482	4314.1
1894.09304	4297.5
1897.21921	4300.8
1900.34335	4281.3
1903.46544	4283.2
1906.58551	4270.9
1909.70353	4250.7
1912.81953	4242.5
1915.93349	4234.9
1919.04543	4233.4
1922.15534	4205.1
1925.26322	4203.8
1928.36908	4201.4
1931.47292	4200.1
1934.57473	4176.4
1937.67453	4159.7
1940.77232	4144.2
1943.86808	4127.1
1946.96184	4116.9
1950.05358	4106.4
1953.14331	4088.1
1956.23103	4083.1
1959.31675	4067.9
1962.40046	4047.9
1965.48217	4029.1
1968.56188	4021.4
1971.63959	4002.1
1974.7153	3980.1
1977.78901	3965.7
1980.86073	3951.5
1983.93046	3922
1986.99819	3916.6
1990.06394	3908.1
1993.1277	3890.7
1996.18947	3871.5
1999.24925	3859.4
2002.30706	3851.3
2005.36288	3825.2
2008.41672	3823
2011.46859	3801.3
2014.51848	3781.6
2017.56639	3773.1
2020.61233	3765.5
2023.6563	3764.3
2026.6983	3731.1
2029.73833	3734.2
2032.7764	3710.8
2035.8125	3717.2
2038.84664	3693.6
2041.87881	3677.8
2044.90903	3670.9
2047.93729	3643
2050.96359	3655.3
2053.98794	3648.4
2057.01034	3641.7
2060.03078	3639.4
2063.04927	3622.1
2066.06582	3601.3
2069.08042	3604.5
2072.09307	3595.8
2075.10378	3592.8
2078.11255	3583.6
2081.11938	3579.3
2084.12426	3587.1
2087.12722	3576.7
2090.12824	3572.8
2093.12732	3585.2
2096.12447	3581.4
2099.11969	3567.8
2102.11299	3562.6
2105.10435	3559
2108.09379	3567.6
2111.08131	3558.7
2114.0669	3554.5
2117.05057	3568.7
2120.03233	3558.6
2123.01216	3568.2
2125.99008	3561.1
2128.96609	3548.4
2131.94018	3562.5
2134.91236	3575.3
2137.88263	3559
2140.851	3558.9
2143.81746	3556.4
2146.78201	3561.5
2149.74466	3550.9
2152.7054	3551.9
2155.66425	3550.2
2158.6212	3531.8
2161.57625	3526
2164.52941	3525.7
2167.48067	3528.3
2170.43004	3543.8
2173.37752	3510.1
2176.32311	3511.4
2179.26681	3508
2182.20863	3506.4
2185.14856	3503
2188.08661	3492.5
2191.02278	3489.7
2193.95707	3482.1
2196.88948	3473.2
2199.82001	3478.8
2202.74867	3457.1
2205.67545	3455.4
2208.60037	3449.4
2211.52341	3433
2214.44458	3434.3
2217.36388	3432.5
2220.28132	3419.9
2223.1969	3404.6
2226.11061	3405.9
2229.02246	3384.6
2231.93245	3382
2234.84058	3363.8
2237.74686	3365.1
2240.65128	3348.6
2243.55385	3366.5
2246.45456	3354.9
2249.35343	3339.4
2252.25044	3326.1
2255.14561	3330
2258.03893	3318.5
2260.93041	3321.8
2263.82004	3313.1
2266.70783	3293
2269.59378	3273.7
2272.4779	3265.8
2275.36017	3262.2
2278.24061	3249
2281.11922	3246.8
2283.996	3241.1
2286.87094	3221.8
2289.74405	3213
2292.61534	3203.6
2295.4848	3194.5
2298.35243	3193.8
2301.21824	3192.8
2304.08223	3173.4
2306.94439	3171.8
2309.80474	3164.8
2312.66327	3163
2315.51999	3164.7
2318.37489	3158.6
2321.22797	3143
2324.07925	3140.7
2326.92871	3152.8
2329.77637	3145.2
2332.62222	3124.7
2335.46626	3099.2
2338.3085	3101.6
2341.14893	3100.5
2343.98756	3095.6
2346.8244	3082.2
2349.65943	3076.2
2352.49267	3082
2355.32411	3067.3
2358.15376	3067.9
2360.98161	3071.2
2363.80768	3074.9
2366.63195	3061.4
2369.45444	3064.7
2372.27514	3054.9
2375.09405	3051.5
2377.91118	3045
2380.72652	3030.8
2383.54009	3014.8
2386.35187	3031.3
2389.16188	3000.2
2391.97011	2980.9
2394.77657	2987.9
2397.58125	2981.9
2400.38416	2972.4
2403.18529	2950
2405.98466	2959.3
2408.78226	2943.9
2411.57809	2937.5
2414.37216	2934.5
2417.16446	2921.8
2419.955	2927.9
2422.74378	2920.6
2425.5308	2917.8
2428.31606	2920.4
2431.09956	2905.5
2433.88131	2901.6
2436.6613	2896.4
2439.43954	2894.2
2442.21603	2877
2444.99077	2871.3
2447.76377	2880.4
2450.53501	2871.8
2453.30451	2865.3
2456.07226	2869.4
2458.83827	2857
2461.60254	2859.4
2464.36507	2845.8
2467.12586	2852.3
2469.88492	2842.2
2472.64224	2835.9
2475.39782	2846.9
2478.15167	2832.9
2480.90379	2826
2483.65417	2830
2486.40283	2811.7
2489.14976	2817.7
2491.89497	2818.1
2494.63845	2829.7
2497.3802	2815
2500.12024	2810.1
2502.85855	2800.1
2505.59514	2800.7
2508.33002	2784.8
2511.06318	2782.3
2513.79462	2765.1
2516.52435	2768
2519.25237	2758.7
2521.97867	2752.7
2524.70327	2741
2527.42616	2743
2530.14734	2729.4
2532.86681	2725.5
2535.58458	2728.8
2538.30065	2707.1
2541.01501	2707.7
2543.72768	2701
2546.43864	2693
2549.14791	2691.4
2551.85548	2693.1
2554.56136	2683.5
2557.26554	2668.1
2559.96803	2671.3
2562.66883	2660
2565.36794	2657.2
2568.06536	2646.1
2570.7611	2636.9
2573.45514	2643.8
2576.14751	2634.6
2578.83819	2625.9
2581.52719	2617.6
2584.21451	2616.9
2586.90015	2606.1
2589.58411	2602.5
2592.2664	2596.8
2594.94701	2574.9
2597.62594	2587.8
2600.30321	2574.2
2602.9788	2564.4
2605.65273	2558.3
2608.32498	2562.4
2610.99557	2550.1
2613.66449	2541
2616.33175	2533.2
2618.99734	2530.5
2621.66128	2529.8
2624.32355	2529.1
2626.98416	2511.2
2629.64311	2518.4
2632.30041	2500
2634.95605	2490.9
2637.61004	2500.7
2640.26238	2498.1
2642.91306	2492
2645.56209	2479.4
2648.20948	2493.7
2650.85521	2474.8
2653.4993	2465
2656.14175	2489.1
2658.78255	2461.1
2661.42171	2474
2664.05923	2459.9
2666.6951	2464
2669.32934	2462.7
2671.96194	2470.9
2674.59291	2451.4
2677.22224	2459.9
2679.84993	2463.3
2682.476	2445.6
2685.10043	2457.2
2687.72324	2455.9
2690.34441	2451.4
2692.96396	2445.4
2695.58188	2464
2698.19818	2444.8
2700.81285	2450.3
2703.4259	2475.6
2706.03733	2521.9
2708.64714	2469.9
2711.25533	2453.9
2713.86191	2447.2
2716.46687	2439.2
2719.07021	2441
2721.67194	2425
2724.27206	2425.9
2726.87057	2421.3
2729.46747	2431.5
2732.06276	2431.6
2734.65644	2428.4
2737.24852	2412.2
2739.83899	2407.5
2742.42786	2407.4
2745.01513	2411.2
2747.60079	2397.2
2750.18486	2386
2752.76733	2375.7
2755.3482	2388.2
2757.92747	2383.3
2760.50515	2376.2
2763.08123	2386.7
2765.65573	2366.2
2768.22863	2366
2770.79994	2365.8
2773.36967	2363.6
2775.9378	2361.7
2778.50435	2345.5
2781.06932	2341.6
2783.6327	2345.4
2786.1945	2331.9
2788.75471	2329.4
2791.31335	2326.8
2793.87041	2317.7
2796.42589	2309.5
2798.97979	2303
2801.53212	2299.4
2804.08288	2303.3
2806.63206	2293.8
2809.17967	2280.3
2811.72571	2282.5
2814.27018	2282.7
2816.81308	2268.6
2819.35442	2265.9
2821.89419	2256.8
2824.43239	2260
2826.96904	2271.4
2829.50412	2256.3
2832.03763	2235.1
2834.56959	2243
2837.1	2248.9
2839.62884	2243.7
2842.15613	2238.3
2844.68186	2233.2
2847.20604	2248.4
2849.72867	2249.3
2852.24974	2240.6
2854.76927	2248.1
2857.28724	2264.1
2859.80367	2239.7
2862.31855	2239.8
2864.83189	2217.6
2867.34368	2218.6
2869.85393	2212.1
2872.36264	2207.5
2874.8698	2217
2877.37543	2213.1
2879.87952	2217.1
2882.38207	2212.3
2884.88308	2209.4
2887.38256	2212.9
2889.88051	2207.6
2892.37692	2221.1
2894.8718	2186.8
2897.36515	2208.4
2899.85698	2201.8
2902.34727	2200.7
2904.83604	2199.3
2907.32328	2203.3
2909.809	2196.1
2912.29319	2207.3
2914.77587	2199.4
2917.25702	2205.1
2919.73665	2211.4
2922.21476	2204.6
2924.69136	2190.8
2927.16644	2202.8
2929.64	2196.9
2932.11205	2186.3
2934.58258	2182.9
2937.05161	2197.4
2939.51912	2197.3
2941.98513	2202
2944.44962	2181.3
2946.91261	2182.3
2949.37409	2180.9
2951.83407	2173.4
2954.29254	2182.1
2956.74951	2168.3
2959.20498	2159.8
2961.65895	2159.1
2964.11142	2152.8
2966.56239	2136.1
2969.01186	2144.2
2971.45984	2136.4
2973.90632	2129.1
2976.35131	2124.9
2978.7948	2122.5
2981.23681	2117.4
2983.67732	2111.3
2986.11635	2108
2988.55388	2096.5
2990.98993	2095.7
2993.4245	2099.4
2995.85758	2097.3
2998.28917	2080.1
3000.71928	2075.2
3003.14791	2074.4
3005.57506	2074.4
3008.00073	2067
3010.42493	2067.5
3012.84764	2070.4
3015.26888	2063.5
3017.68865	2057
3020.10694	2047.2
3022.52376	2054.6
3024.9391	2053.2
3027.35298	2051.3
3029.76539	2045.8
3032.17632	2047.1
3034.5858	2037.6
3036.9938	2039.9
3039.40034	2026.5
3041.80542	2020.1
3044.20903	2020.5
3046.61118	2020
3049.01187	2018.3
3051.4111	2012.8
3053.80888	2011.5
3056.20519	2012.4
3058.60005	2008.6
3060.99345	2002.3
3063.3854	1995.6
3065.7759	2001
3068.16494	1999
3070.55254	1999.7
3072.93868	2000.2
3075.32338	1995.5
3077.70662	1987.5
3080.08842	1981.6
3082.46878	1988.9
3084.84769	1984.3
3087.22515	1989.9
3089.60118	1991.1
3091.97576	2000.7
3094.3489	1989.7
3096.72061	1998.5
3099.09087	1994.9
3101.4597	1990.8
3103.82709	2003
3106.19305	1994.2
3108.55757	1990.4
3110.92066	1997
3113.28232	1983.9
3115.64255	1979.5
3118.00134	1994.3
3120.35871	1984
3122.71466	1978.9
3125.06917	1992.8
3127.42226	1983.1
3129.77393	1983.6
3132.12417	1988.5
3134.47299	1996.7
3136.82039	1993.7
3139.16636	2000.8
3141.51092	1995.6
3143.85406	2009.1
3146.19579	2009.3
3148.53609	2007.5
3150.87499	2024.2
3153.21246	2017.2
3155.54853	2025.5
3157.88318	2025.6
3160.21642	2031
3162.54826	2034.5
3164.87868	2028.3
3167.2077	2036.7
3169.5353	2029.9
3171.86151	2038.5
3174.18631	2047.9
3176.5097	2041.7
3178.83169	2032.9
3181.15228	2047.3
3183.47147	2034.8
3185.78926	2033.4
3188.10565	2042
3190.42065	2032.1
3192.73424	2048
3195.04645	2040.5
3197.35725	2051.7
3199.66667	2036.4
3201.97469	2058.1
3204.28132	2056.4
3206.58656	2058.3
3208.8904	2063.9
3211.19287	2074.4
3213.49394	2054.4
3215.79363	2068
3218.09193	2073.3
3220.38884	2082.7
3222.68438	2096.3
3224.97853	2078.3
3227.2713	2067.9
3229.56269	2079.7
3231.8527	2071.9
3234.14133	2060.6
3236.42858	2057.4
3238.71446	2067.6
3240.99896	2065.1
3243.28209	2056.3
3245.56384	2045.2
3247.84423	2055.2
3250.12324	2058.8
3252.40088	2062.9
3254.67715	2045.7
3256.95205	2055.3
3259.22558	2054
3261.49775	2047.1
3263.76855	2043.2
3266.03799	2040.4
3268.30606	2034.2
3270.57277	2034
3272.83812	2023.6
3275.10211	2017.6
3277.36474	2021.8
3279.62601	2025.5
3281.88593	2016.7
3284.14448	2022.5
3286.40168	2009.5
3288.65753	2012.5
3290.91202	2006.4
3293.16516	2001.6
3295.41695	1996
3297.66738	1982.9
3299.91647	1969.8
3302.16421	1962.6
3304.4106	1954.2
3306.65564	1949.4
3308.89933	1937.7
3311.14169	1929.4
3313.38269	1927.2
3315.62236	1911
3317.86068	1895.1
3320.09766	1873.4
3322.3333	1872.5
3324.5676	1864.5
3326.80056	1845.3
3329.03219	1829.2
3331.26248	-0.1
3333.49143	-1
3335.71905	0.1
