Data from AgNPs_FTO_APTES_UA_0um_CRN_0.1mM_R6G_10uM_NaF_0.1M_Addition_RamanShift__37__10-54-28-937.txt Node

Date: Tue Dec 21 10:54:28 GMT 2021
User: TCL
Spectrometer: QEP01345
Trigger mode: 4
Integration Time (sec): 7.000000E0
Scans to average: 10
Electric dark correction enabled: true
Nonlinearity correction enabled: false
Boxcar width: 0
XAxis mode: Raman Shifts
Number of Pixels in Spectrum: 1044
>>>>>Begin Spectral Data<<<<<
46.04893	0.3
50.45542	-1.6
54.85868	-2
59.25871	1.2
63.6555	41.3
68.04907	48.2
72.43941	49.1
76.82654	50.8
81.21044	56.3
85.59113	57
89.96862	58.7
94.34289	60.4
98.71396	61.6
103.08183	65.9
107.4465	63.7
111.80798	63.7
116.16626	67.7
120.52136	69.5
124.87327	72.3
129.222	72.9
133.56755	78.2
137.90993	86.4
142.24913	88.8
146.58517	105.5
150.91804	122
155.24774	141.1
159.57429	176.8
163.89768	225.8
168.21792	291.9
172.53501	397.6
176.84895	554.6
181.15975	782
185.46741	1081.9
189.77193	1487.6
194.07331	1977.6
198.37157	2535.9
202.6667	3130
206.9587	3721.3
211.24758	4299.4
215.53334	4896.1
219.81599	5521.1
224.09553	6230.7
228.37195	7008.2
232.64527	7856
236.91549	8724.5
241.18261	9567.1
245.44663	10285.5
249.70755	10916.1
253.96539	11412.2
258.22014	11861.4
262.4718	12194.9
266.72039	12448.4
270.96589	12500.2
275.20832	12451.9
279.44768	12308
283.68397	12166.8
287.91719	12017.3
292.14735	11937.5
296.37445	11965.2
300.59849	12054.3
304.81948	12200.6
309.03742	12327.6
313.25231	12441.7
317.46415	12413.6
321.67296	12294.9
325.87872	12213.3
330.08145	12138.9
334.28114	12071.3
338.47781	12089.1
342.67145	12192.3
346.86207	12361.3
351.04966	12600.5
355.23424	12796.4
359.4158	12929.6
363.59435	13004.8
367.76989	13028.1
371.94243	13039
376.11196	13028.1
380.27849	13093.1
384.44203	13234
388.60257	13337.7
392.76012	13441.9
396.91468	13515.2
401.06626	13724.8
405.21485	13862.2
409.36047	13877.2
413.50311	13841.9
417.64277	13919.3
421.77947	14107.1
425.9132	14244.8
430.04396	14368.2
434.17176	14492.3
438.2966	14729.8
442.41849	15218.4
446.53742	16110.6
450.6534	16989.1
454.76644	17392.9
458.87653	17125.9
462.98368	16488
467.08789	15809.1
471.18916	15118.8
475.2875	14451.5
479.38291	14005.8
483.4754	13757.4
487.56496	13644.6
491.6516	13502
495.73531	13368.3
499.81612	13336.8
503.89401	13456.7
507.96899	13475.3
512.04106	13339.8
516.11023	13078.3
520.1765	12889.8
524.23987	12816.6
528.30034	12910.8
532.35792	12901.3
536.41261	12685.3
540.46441	12320.2
544.51333	12116.1
548.55936	12260.9
552.60252	12708.5
556.64279	13427.4
560.6802	13985
564.71473	14078.4
568.7464	14056.7
572.7752	14449.1
576.80114	15047.5
580.82422	15897.4
584.84444	17373.5
588.86181	19630.2
592.87633	22257.3
596.888	23019.4
600.89682	20667.1
604.9028	18173.1
608.90594	17869.7
612.90624	18525.3
616.90371	17300.7
620.89834	14394.7
624.89015	12917.3
628.87913	12739.7
632.86528	12783.4
636.84862	12579.9
640.82913	12202.7
644.80683	11825.4
648.78172	11681.6
652.75379	11731.3
656.72306	11927.4
660.68952	12077.2
664.65319	11928.7
668.61405	11655
672.57211	11638.3
676.52738	11756.8
680.47986	11766.6
684.42955	11591.7
688.37646	11483.7
692.32058	11557.3
696.26192	11821.6
700.20048	12132.5
704.13626	12317.2
708.06928	12327.5
711.99952	12293.3
715.927	12330.3
719.85171	12480.7
723.77365	12433.3
727.69284	12158.3
731.60928	11905.5
735.52295	11881.2
739.43388	11962.3
743.34206	12042.1
747.24749	12188.6
751.15017	12331.1
755.05012	12600.4
758.94733	13011.4
762.8418	13753.2
766.73354	14913.7
770.62254	15958.8
774.50882	16047.6
778.39237	15139.5
782.27321	13986.5
786.15132	13006.9
790.02671	12366.6
793.89938	12071.1
797.76935	12001.6
801.6366	11961.9
805.50115	11930.1
809.36299	11841.8
813.22213	11678.7
817.07857	11556.2
820.93231	11410.8
824.78336	11292.2
828.63172	11264.3
832.47738	11225.7
836.32036	11279.5
840.16066	11367.8
843.99827	11432.3
847.8332	11394.7
851.66546	11343.3
855.49504	11322.9
859.32195	11334.2
863.1462	11245.8
866.96777	11174.4
870.78668	11106.5
874.60293	11114.3
878.41652	11124.5
882.22745	11214.9
886.03573	11242.4
889.84136	11215.9
893.64433	11148
897.44466	11079.3
901.24235	11077.1
905.0374	11004.3
908.8298	10939.8
912.61957	10952.7
916.40671	11036.6
920.19121	11286.1
923.97308	11527.9
927.75233	11703.5
931.52895	11591
935.30295	11275.9
939.07433	10921.8
942.84309	10719.8
946.60924	10638
950.37278	10589.5
954.13371	10598
957.89203	10549.6
961.64774	10507
965.40086	10513.3
969.15137	10497.2
972.89929	10393.8
976.64461	10371.5
980.38733	10348.4
984.12747	10398.1
987.86502	10454.9
991.59999	10594
995.33237	10853.1
999.06217	11276.3
1002.78939	11798.3
1006.51404	12198.8
1010.23611	12484.1
1013.95561	12778.8
1017.67255	12948.5
1021.38692	12742.5
1025.09872	12260.8
1028.80796	12019.8
1032.51465	12187.2
1036.21877	12469.2
1039.92035	12596.9
1043.61937	12506
1047.31584	12264.8
1051.00976	11935
1054.70114	11699.4
1058.38998	11610.1
1062.07627	11586.1
1065.76003	11628.4
1069.44126	11760.6
1073.11995	12031.5
1076.79611	12282.6
1080.46974	12436.1
1084.14085	12580.6
1087.80943	12822.4
1091.47549	12999.8
1095.13903	13036.3
1098.80005	12673.7
1102.45857	12264.7
1106.11456	11992.7
1109.76805	11926.1
1113.41903	11985.7
1117.06751	12118.4
1120.71348	12308.4
1124.35696	12451.1
1127.99793	12647.5
1131.63641	12761.2
1135.2724	12721.7
1138.90589	12714.5
1142.5369	12832.1
1146.16542	13012.4
1149.79145	13217.6
1153.415	13376.3
1157.03607	13642.6
1160.65467	14236.7
1164.27079	15321.4
1167.88443	16709.3
1171.49561	18102.7
1175.10432	19944.9
1178.71056	22343.5
1182.31434	24452
1185.91565	24969.7
1189.51451	23746.9
1193.11091	22109.7
1196.70485	20841.3
1200.29634	19786.3
1203.88538	19036.9
1207.47197	18664.3
1211.05612	18345.7
1214.63782	17950.1
1218.21708	17539.3
1221.79391	17472
1225.36829	17637.4
1228.94024	17575.2
1232.50976	16965.1
1236.07685	16054.9
1239.6415	15414.7
1243.20374	15200
1246.76355	15251.1
1250.32093	15564.3
1253.8759	16014.8
1257.42845	16661.7
1260.97859	17284.3
1264.52631	17967.9
1268.07163	18625.6
1271.61453	19280.8
1275.15503	20007.9
1278.69312	20915
1282.22882	22112.5
1285.76211	23621.1
1289.29301	25354.2
1292.82151	27282.2
1296.34761	29517.5
1299.87133	32188
1303.39266	34955.2
1306.9116	37466
1310.42815	39599.4
1313.94233	40940.5
1317.45412	40469.1
1320.96354	38338.2
1324.47058	35958.2
1327.97525	33971.3
1331.47754	32620.9
1334.97747	31597.8
1338.47502	30578.9
1341.97022	29291.7
1345.46305	28037.6
1348.95352	27638.8
1352.44163	28722.5
1355.92738	31437.1
1359.41078	34964.7
1362.89183	37591.5
1366.37053	37963.1
1369.84688	34911
1373.32088	29381.4
1376.79254	25227.2
1380.26186	23895.7
1383.72883	23941.7
1387.19347	23835.8
1390.65578	23245.3
1394.11575	23211.3
1397.57339	23900
1401.0287	24889.5
1404.48168	25544.7
1407.93234	25547.7
1411.38068	25000
1414.82669	24113.2
1418.27039	23010.5
1421.71177	21809.8
1425.15083	20624.7
1428.58758	20054.3
1432.02203	20470.3
1435.45416	21436.1
1438.88399	22378.4
1442.31151	22955.6
1445.73673	23195
1449.15965	23250.3
1452.58027	22884.2
1455.9986	22252
1459.41463	21787
1462.82837	21992.7
1466.23982	22761.1
1469.64898	23671.5
1473.05586	24314.3
1476.46045	24665.7
1479.86276	24740.3
1483.26279	24503.8
1486.66054	24310.7
1490.05602	24315.8
1493.44922	24391.1
1496.84016	24174.7
1500.22882	23734.5
1503.61521	23522.7
1506.99934	23597.2
1510.38121	23696.1
1513.76081	23743.1
1517.13816	23496.7
1520.51324	23047.1
1523.88607	22900.7
1527.25665	23252.3
1530.62498	23762.2
1533.99105	23949.3
1537.35488	23660.4
1540.71647	22946.3
1544.07581	21997.9
1547.4329	20975.2
1550.78776	20012.8
1554.14038	19203.5
1557.49077	18598.3
1560.83892	18201.7
1564.18484	18023.1
1567.52853	18096
1570.86999	18388.8
1574.20922	18865.3
1577.54624	19409.9
1580.88103	19655
1584.2136	20080.9
1587.54395	21310.4
1590.87208	23475.3
1594.19801	26309.7
1597.52172	29246.7
1600.84321	30703.1
1604.16251	29372
1607.47959	25773.4
1610.79447	21647
1614.10715	18263.2
1617.41763	16055.2
1620.7259	14882.8
1624.03199	14423.5
1627.33587	14553.8
1630.63757	15255
1633.93707	16701
1637.23439	19311.5
1640.52951	23545.7
1643.82246	29207.7
1647.11321	34156
1650.40179	34992.7
1653.68819	30874.5
1656.97241	24568.3
1660.25446	19236.8
1663.53433	15685.1
1666.81203	13633.3
1670.08756	12448.8
1673.36092	11746.8
1676.63211	11295.2
1679.90115	10980.9
1683.16801	10712.2
1686.43272	10570.1
1689.69527	10446.1
1692.95567	10340.6
1696.2139	10292.4
1699.46999	10267.8
1702.72392	10196.7
1705.97571	10148.2
1709.22535	10094.3
1712.47284	10060.7
1715.71819	10049.5
1718.96139	10014.9
1722.20246	9986
1725.44139	9929.6
1728.67818	9839.8
1731.91284	9787.8
1735.14537	9698.8
1738.37576	9669.3
1741.60403	9603.2
1744.83017	9591.3
1748.05418	9539
1751.27607	9549.7
1754.49584	9529.1
1757.71349	9565.5
1760.92903	9544
1764.14244	9513
1767.35375	9480.6
1770.56294	9457
1773.77002	9429
1776.97499	9388.6
1780.17785	9339.5
1783.37861	9353.1
1786.57727	9325.5
1789.77382	9286.6
1792.96828	9258.4
1796.16064	9215.2
1799.3509	9204.4
1802.53907	9202.3
1805.72514	9164.8
1808.90913	9120.2
1812.09102	9108
1815.27083	9068.3
1818.44856	9061.5
1821.6242	9063.6
1824.79776	9060.3
1827.96924	9051.5
1831.13864	9025.6
1834.30597	9022.8
1837.47122	9025
1840.6344	9026.4
1843.7955	9010.4
1846.95454	9031.9
1850.11151	9008.5
1853.26642	9011.9
1856.41926	9019.4
1859.57004	9027.8
1862.71876	9002.8
1865.86542	8993.1
1869.01003	8980.8
1872.15258	9002.3
1875.29308	8994
1878.43152	8984.7
1881.56792	8964.8
1884.70227	8973
1887.83457	8984.1
1890.96482	8987.3
1894.09304	8955.3
1897.21921	8938
1900.34335	8958
1903.46544	8944.5
1906.58551	8949.2
1909.70353	8934.5
1912.81953	8909.6
1915.93349	8896.9
1919.04543	8878.8
1922.15534	8817.8
1925.26322	8829.3
1928.36908	8797
1931.47292	8757.3
1934.57473	8736.7
1937.67453	8718.2
1940.77232	8670.3
1943.86808	8676.1
1946.96184	8646.9
1950.05358	8633.2
1953.14331	8593.7
1956.23103	8599
1959.31675	8570.1
1962.40046	8541.4
1965.48217	8494.6
1968.56188	8496.8
1971.63959	8446.5
1974.7153	8424.9
1977.78901	8384.7
1980.86073	8373.1
1983.93046	8348.5
1986.99819	8336.2
1990.06394	8304.2
1993.1277	8301.8
1996.18947	8244.5
1999.24925	8238.1
2002.30706	8216.2
2005.36288	8180
2008.41672	8171.5
2011.46859	8148.8
2014.51848	8134.5
2017.56639	8125.7
2020.61233	8086.5
2023.6563	8091.7
2026.6983	8089.8
2029.73833	8060.7
2032.7764	8042.7
2035.8125	8019.9
2038.84664	8039.2
2041.87881	8010.5
2044.90903	7997.2
2047.93729	7997.5
2050.96359	7991.3
2053.98794	7986.4
2057.01034	7973.3
2060.03078	7958.9
2063.04927	7962.9
2066.06582	7944.9
2069.08042	7938.5
2072.09307	7941.3
2075.10378	7926.4
2078.11255	7928.8
2081.11938	7924.6
2084.12426	7915.4
2087.12722	7909.4
2090.12824	7912
2093.12732	7933.7
2096.12447	7921.3
2099.11969	7934.5
2102.11299	7916.1
2105.10435	7930.7
2108.09379	7927
2111.08131	7912.3
2114.0669	7931.5
2117.05057	7929
2120.03233	7947.7
2123.01216	7923.2
2125.99008	7945.1
2128.96609	7933.4
2131.94018	7935.5
2134.91236	7959.1
2137.88263	7951
2140.851	7953.5
2143.81746	7964.2
2146.78201	7952.8
2149.74466	7965.7
2152.7054	7942.2
2155.66425	7933.5
2158.6212	7933.2
2161.57625	7941
2164.52941	7959.6
2167.48067	7955.5
2170.43004	7953.1
2173.37752	7941.7
2176.32311	7943.2
2179.26681	7946.9
2182.20863	7939.5
2185.14856	7948
2188.08661	7952.4
2191.02278	7969
2193.95707	7950.8
2196.88948	7966.9
2199.82001	7962.8
2202.74867	7945
2205.67545	7949.9
2208.60037	7918.4
2211.52341	7911.7
2214.44458	7916.2
2217.36388	7900.9
2220.28132	7879.9
2223.1969	7864.3
2226.11061	7887.7
2229.02246	7869.1
2231.93245	7865.5
2234.84058	7863.4
2237.74686	7876.9
2240.65128	7840.7
2243.55385	7837.8
2246.45456	7819.5
2249.35343	7797.5
2252.25044	7779.6
2255.14561	7746.4
2258.03893	7758.2
2260.93041	7730.3
2263.82004	7721
2266.70783	7700.5
2269.59378	7656.2
2272.4779	7663.5
2275.36017	7621.4
2278.24061	7610.9
2281.11922	7617.5
2283.996	7597.4
2286.87094	7604.1
2289.74405	7593.3
2292.61534	7595
2295.4848	7597.2
2298.35243	7602
2301.21824	7592.5
2304.08223	7612.5
2306.94439	7596.9
2309.80474	7605
2312.66327	7615.1
2315.51999	7612.4
2318.37489	7602.7
2321.22797	7591.2
2324.07925	7582.2
2326.92871	7577.5
2329.77637	7571.5
2332.62222	7574.1
2335.46626	7573.3
2338.3085	7535.3
2341.14893	7585.9
2343.98756	7572.9
2346.8244	7572.8
2349.65943	7571.7
2352.49267	7553.9
2355.32411	7547.7
2358.15376	7538.8
2360.98161	7575.5
2363.80768	7541.3
2366.63195	7549.7
2369.45444	7513.7
2372.27514	7517.9
2375.09405	7495.1
2377.91118	7501
2380.72652	7461.4
2383.54009	7481.7
2386.35187	7455.6
2389.16188	7434.7
2391.97011	7441.3
2394.77657	7410.3
2397.58125	7412.4
2400.38416	7407.4
2403.18529	7410.9
2405.98466	7398.5
2408.78226	7368.5
2411.57809	7340.3
2414.37216	7343.1
2417.16446	7349.4
2419.955	7337.3
2422.74378	7329.4
2425.5308	7315.7
2428.31606	7312.3
2431.09956	7329.5
2433.88131	7307.2
2436.6613	7320.2
2439.43954	7291.7
2442.21603	7319.5
2444.99077	7325.5
2447.76377	7315.3
2450.53501	7322.4
2453.30451	7310.5
2456.07226	7328.9
2458.83827	7317.5
2461.60254	7319.4
2464.36507	7325.1
2467.12586	7329.4
2469.88492	7331
2472.64224	7336.1
2475.39782	7343.3
2478.15167	7359.6
2480.90379	7355.7
2483.65417	7348.8
2486.40283	7355.5
2489.14976	7372.4
2491.89497	7353.2
2494.63845	7380.3
2497.3802	7373.9
2500.12024	7367.8
2502.85855	7359.9
2505.59514	7356
2508.33002	7347.3
2511.06318	7343.7
2513.79462	7332.8
2516.52435	7336.2
2519.25237	7331.8
2521.97867	7299.8
2524.70327	7311.2
2527.42616	7315.6
2530.14734	7315.8
2532.86681	7309.8
2535.58458	7311.2
2538.30065	7293.6
2541.01501	7293.8
2543.72768	7283.1
2546.43864	7280.1
2549.14791	7280.2
2551.85548	7270.3
2554.56136	7287.8
2557.26554	7283.6
2559.96803	7301.8
2562.66883	7279
2565.36794	7316.5
2568.06536	7315.3
2570.7611	7288.3
2573.45514	7327.6
2576.14751	7314.3
2578.83819	7305.4
2581.52719	7300.9
2584.21451	7301.3
2586.90015	7307.2
2589.58411	7294.7
2592.2664	7299.2
2594.94701	7294
2597.62594	7289.9
2600.30321	7286.6
2602.9788	7279.1
2605.65273	7287.9
2608.32498	7280.5
2610.99557	7286.6
2613.66449	7300.3
2616.33175	7292.5
2618.99734	7282.8
2621.66128	7281.2
2624.32355	7276.9
2626.98416	7289
2629.64311	7290.8
2632.30041	7282
2634.95605	7269.2
2637.61004	7279.2
2640.26238	7265.9
2642.91306	7265.3
2645.56209	7258.3
2648.20948	7255.7
2650.85521	7258.8
2653.4993	7271.7
2656.14175	7261.4
2658.78255	7266.7
2661.42171	7278.2
2664.05923	7302.2
2666.6951	7310
2669.32934	7317.2
2671.96194	7313.7
2674.59291	7319.6
2677.22224	7312.5
2679.84993	7316.5
2682.476	7297.5
2685.10043	7281.9
2687.72324	7286.4
2690.34441	7267.3
2692.96396	7284.2
2695.58188	7290.5
2698.19818	7277.7
2700.81285	7294.9
2703.4259	7318.2
2706.03733	7374.8
2708.64714	7347.1
2711.25533	7350.8
2713.86191	7353.1
2716.46687	7363.9
2719.07021	7366.5
2721.67194	7375.6
2724.27206	7354.3
2726.87057	7347.6
2729.46747	7386.3
2732.06276	7376.5
2734.65644	7369.4
2737.24852	7386.9
2739.83899	7360.8
2742.42786	7394.2
2745.01513	7381.1
2747.60079	7358.7
2750.18486	7356.9
2752.76733	7376.3
2755.3482	7370.5
2757.92747	7391.2
2760.50515	7390.5
2763.08123	7375.3
2765.65573	7372.3
2768.22863	7382.8
2770.79994	7385.8
2773.36967	7410
2775.9378	7395.2
2778.50435	7397.9
2781.06932	7392.7
2783.6327	7412.5
2786.1945	7397.7
2788.75471	7409.9
2791.31335	7390.4
2793.87041	7382.6
2796.42589	7366.4
2798.97979	7371.6
2801.53212	7330.9
2804.08288	7368.7
2806.63206	7341
2809.17967	7321.2
2811.72571	7332.7
2814.27018	7343.2
2816.81308	7323.4
2819.35442	7299.6
2821.89419	7320.8
2824.43239	7296.2
2826.96904	7319.3
2829.50412	7340.7
2832.03763	7320.1
2834.56959	7312.7
2837.1	7306.9
2839.62884	7315.1
2842.15613	7317.1
2844.68186	7367.6
2847.20604	7376.8
2849.72867	7405.9
2852.24974	7386.5
2854.76927	7393.9
2857.28724	7410.4
2859.80367	7368.4
2862.31855	7357.8
2864.83189	7359.3
2867.34368	7350.3
2869.85393	7360.2
2872.36264	7327.5
2874.8698	7353.7
2877.37543	7340.1
2879.87952	7345.1
2882.38207	7348.4
2884.88308	7368.2
2887.38256	7382.9
2889.88051	7379.7
2892.37692	7379.6
2894.8718	7387.7
2897.36515	7435.8
2899.85698	7411.1
2902.34727	7442.7
2904.83604	7423.7
2907.32328	7443.5
2909.809	7451.8
2912.29319	7462.6
2914.77587	7462.6
2917.25702	7481.3
2919.73665	7455.3
2922.21476	7463
2924.69136	7479.5
2927.16644	7464.7
2929.64	7461.7
2932.11205	7453.7
2934.58258	7444.6
2937.05161	7444.4
2939.51912	7434.9
2941.98513	7445.4
2944.44962	7402.4
2946.91261	7370.4
2949.37409	7386.1
2951.83407	7383.5
2954.29254	7379
2956.74951	7366.6
2959.20498	7357.5
2961.65895	7318.1
2964.11142	7324.3
2966.56239	7276.5
2969.01186	7271
2971.45984	7259.3
2973.90632	7247.1
2976.35131	7199.3
2978.7948	7176.7
2981.23681	7165.5
2983.67732	7140.9
2986.11635	7108.7
2988.55388	7124.3
2990.98993	7090.4
2993.4245	7064.7
2995.85758	7064.7
2998.28917	7048
3000.71928	7049.6
3003.14791	7047.5
3005.57506	7030.7
3008.00073	7023.6
3010.42493	7015.6
3012.84764	6998.8
3015.26888	6989
3017.68865	6979.1
3020.10694	6967.3
3022.52376	6944.2
3024.9391	6959.4
3027.35298	6920.8
3029.76539	6922
3032.17632	6933.4
3034.5858	6894.2
3036.9938	6903.3
3039.40034	6882
3041.80542	6905.7
3044.20903	6903.2
3046.61118	6883.6
3049.01187	6878.8
3051.4111	6870.2
3053.80888	6863.5
3056.20519	6861.1
3058.60005	6837
3060.99345	6823.6
3063.3854	6831.1
3065.7759	6816.2
3068.16494	6807.7
3070.55254	6757.2
3072.93868	6760.4
3075.32338	6743.8
3077.70662	6716
3080.08842	6715.4
3082.46878	6709.2
3084.84769	6697
3087.22515	6699.5
3089.60118	6693.7
3091.97576	6699.6
3094.3489	6692.7
3096.72061	6698.1
3099.09087	6693.1
3101.4597	6674.8
3103.82709	6659.5
3106.19305	6636
3108.55757	6647
3110.92066	6624.5
3113.28232	6630.6
3115.64255	6612.4
3118.00134	6591
3120.35871	6584.8
3122.71466	6589.6
3125.06917	6574.2
3127.42226	6581.1
3129.77393	6583.7
3132.12417	6561.9
3134.47299	6580
3136.82039	6580.7
3139.16636	6587.3
3141.51092	6575
3143.85406	6576.4
3146.19579	6575.8
3148.53609	6563.9
3150.87499	6577
3153.21246	6575.9
3155.54853	6590.5
3157.88318	6569
3160.21642	6580.7
3162.54826	6576.5
3164.87868	6574
3167.2077	6568.2
3169.5353	6573.2
3171.86151	6580.5
3174.18631	6570.9
3176.5097	6556
3178.83169	6573.1
3181.15228	6568.3
3183.47147	6540.7
3185.78926	6564.9
3188.10565	6534.7
3190.42065	6551.5
3192.73424	6540.9
3195.04645	6557.9
3197.35725	6547.1
3199.66667	6552.4
3201.97469	6552.7
3204.28132	6549.8
3206.58656	6552.8
3208.8904	6552.8
3211.19287	6526.8
3213.49394	6531.9
3215.79363	6532.1
3218.09193	6534.6
3220.38884	6534.9
3222.68438	6551
3224.97853	6546.6
3227.2713	6528.5
3229.56269	6543.4
3231.8527	6550.2
3234.14133	6539.8
3236.42858	6523.3
3238.71446	6518.5
3240.99896	6510.5
3243.28209	6514.7
3245.56384	6514.3
3247.84423	6502.4
3250.12324	6508.8
3252.40088	6495.6
3254.67715	6482
3256.95205	6483.1
3259.22558	6467
3261.49775	6440.9
3263.76855	6435.7
3266.03799	6414.3
3268.30606	6407.7
3270.57277	6388.5
3272.83812	6403.8
3275.10211	6394.8
3277.36474	6398.7
3279.62601	6409
3281.88593	6396.5
3284.14448	6432
3286.40168	6415.9
3288.65753	6412.1
3290.91202	6417.4
3293.16516	6397.3
3295.41695	6369.9
3297.66738	6336.3
3299.91647	6303.4
3302.16421	6264.2
3304.4106	6235.5
3306.65564	6209.2
3308.89933	6165.2
3311.14169	6143.3
3313.38269	6106.8
3315.62236	6056.3
3317.86068	6006.2
3320.09766	5957.4
3322.3333	5903.7
3324.5676	5927.7
3326.80056	5824.1
3329.03219	5810.8
3331.26248	2.3
3333.49143	-0.4
3335.71905	0.6
