Data from AgNPs_FTO_APTES_UA_20um_CRN_0.1mM_R6G_10uM_NaF_0.1M_Addition_RamanShift__6__14-23-19-176.txt Node

Date: Tue Dec 21 14:23:19 GMT 2021
User: TCL
Spectrometer: QEP01345
Trigger mode: 4
Integration Time (sec): 7.000000E0
Scans to average: 10
Electric dark correction enabled: true
Nonlinearity correction enabled: false
Boxcar width: 0
XAxis mode: Raman Shifts
Number of Pixels in Spectrum: 1044
>>>>>Begin Spectral Data<<<<<
46.04893	-0.4
50.45542	-0.3
54.85868	-1.3
59.25871	-0.3
63.6555	41.2
68.04907	48
72.43941	53.7
76.82654	54.2
81.21044	58
85.59113	56.9
89.96862	60.5
94.34289	60.1
98.71396	61
103.08183	65.9
107.4465	72.4
111.80798	72.3
116.16626	72
120.52136	73.9
124.87327	75.1
129.222	76.5
133.56755	81.9
137.90993	91.4
142.24913	95.5
146.58517	106.3
150.91804	121
155.24774	140.6
159.57429	176.9
163.89768	223.7
168.21792	290
172.53501	389.3
176.84895	540.1
181.15975	754
185.46741	1055.7
189.77193	1459.3
194.07331	1944.4
198.37157	2507.1
202.6667	3110.2
206.9587	3728.6
211.24758	4310.9
215.53334	4937
219.81599	5562.3
224.09553	6247.2
228.37195	7031.1
232.64527	7876.4
236.91549	8727.9
241.18261	9618.6
245.44663	10422
249.70755	11124.1
253.96539	11721.7
258.22014	12211.9
262.4718	12627.6
266.72039	12922.4
270.96589	13085.8
275.20832	13066.9
279.44768	12947.7
283.68397	12822.9
287.91719	12711.4
292.14735	12643.1
296.37445	12604.4
300.59849	12666.1
304.81948	12756.9
309.03742	12771.9
313.25231	12717.6
317.46415	12468.5
321.67296	12141.9
325.87872	11839.9
330.08145	11654.3
334.28114	11653
338.47781	11652.4
342.67145	11792.7
346.86207	11962.8
351.04966	12208.9
355.23424	12425.5
359.4158	12626.2
363.59435	12743.1
367.76989	12856.1
371.94243	12888
376.11196	12927
380.27849	12975.4
384.44203	13034.4
388.60257	13165.5
392.76012	13324
396.91468	13512.1
401.06626	13730.3
405.21485	13877.9
409.36047	13820.6
413.50311	13598.6
417.64277	13376.6
421.77947	13335
425.9132	13355
430.04396	13446.9
434.17176	13470.3
438.2966	13553.9
442.41849	13713.5
446.53742	14049.4
450.6534	14408.6
454.76644	14657.4
458.87653	14719.8
462.98368	14678.5
467.08789	14575.8
471.18916	14401.2
475.2875	14298.7
479.38291	14238.6
483.4754	14158.1
487.56496	13992.6
491.6516	13785.9
495.73531	13549.9
499.81612	13444.8
503.89401	13451.6
507.96899	13480.3
512.04106	13482.8
516.11023	13349.9
520.1765	13245.2
524.23987	13137.2
528.30034	13036.3
532.35792	12919.2
536.41261	12801.8
540.46441	12677.6
544.51333	12640.2
548.55936	12763.5
552.60252	13020.6
556.64279	13357
560.6802	13610.4
564.71473	13721
568.7464	13929.6
572.7752	14320.5
576.80114	14718.6
580.82422	15121.9
584.84444	15553.5
588.86181	16108.4
592.87633	16617.3
596.888	16595
600.89682	15989
604.9028	15722.7
608.90594	16693.1
612.90624	17988.3
616.90371	17049.6
620.89834	14290.1
624.89015	12922.9
628.87913	12783.7
632.86528	12923
636.84862	13004
640.82913	12839.7
644.80683	12550.4
648.78172	12323.3
652.75379	12251.1
656.72306	12357.4
660.68952	12526
664.65319	12496.5
668.61405	12253.3
672.57211	12188.5
676.52738	12275.2
680.47986	12331.9
684.42955	12263.6
688.37646	12165.2
692.32058	12178.5
696.26192	12234.9
700.20048	12395.7
704.13626	12515.9
708.06928	12540.5
711.99952	12496.8
715.927	12440.3
719.85171	12461
723.77365	12423.1
727.69284	12275
731.60928	12145.4
735.52295	12064.8
739.43388	12065.6
743.34206	12093.7
747.24749	12170.6
751.15017	12282.1
755.05012	12467
758.94733	12812.4
762.8418	13438.9
766.73354	14478.2
770.62254	15475.9
774.50882	15768.1
778.39237	15140.8
782.27321	14032.4
786.15132	13040.1
790.02671	12441.4
793.89938	12132.3
797.76935	11995.6
801.6366	11920.2
805.50115	11882.3
809.36299	11819.3
813.22213	11757.4
817.07857	11687.4
820.93231	11629.9
824.78336	11552.1
828.63172	11498.2
832.47738	11453.4
836.32036	11436.9
840.16066	11421
843.99827	11413.3
847.8332	11371.9
851.66546	11371.3
855.49504	11350.1
859.32195	11309.1
863.1462	11311.1
866.96777	11302.6
870.78668	11313.3
874.60293	11282.8
878.41652	11315.2
882.22745	11351.7
886.03573	11380.7
889.84136	11411.6
893.64433	11369
897.44466	11310.9
901.24235	11262.3
905.0374	11186.8
908.8298	11138.1
912.61957	11118.1
916.40671	11219.3
920.19121	11349.2
923.97308	11477.6
927.75233	11482.8
931.52895	11388.8
935.30295	11230.1
939.07433	10992.9
942.84309	10798.7
946.60924	10726.8
950.37278	10683.8
954.13371	10670.4
957.89203	10657
961.64774	10660.3
965.40086	10645.9
969.15137	10630.9
972.89929	10561.9
976.64461	10477.2
980.38733	10443.8
984.12747	10452.6
987.86502	10491.9
991.59999	10532.4
995.33237	10625.2
999.06217	10739.4
1002.78939	10956.3
1006.51404	11138.3
1010.23611	11373
1013.95561	11538.3
1017.67255	11582.5
1021.38692	11489.4
1025.09872	11316.4
1028.80796	11117.7
1032.51465	11056.6
1036.21877	11083.7
1039.92035	11142.9
1043.61937	11206.4
1047.31584	11227
1051.00976	11243.6
1054.70114	11252.7
1058.38998	11314.3
1062.07627	11413.2
1065.76003	11560.2
1069.44126	11707.8
1073.11995	11920
1076.79611	12087.4
1080.46974	12104.2
1084.14085	12193.4
1087.80943	12305.4
1091.47549	12414.7
1095.13903	12474.8
1098.80005	12338.5
1102.45857	12043.6
1106.11456	11742.4
1109.76805	11593.1
1113.41903	11558.6
1117.06751	11643.2
1120.71348	11811.5
1124.35696	11995.6
1127.99793	12222.9
1131.63641	12373.2
1135.2724	12342.6
1138.90589	12243.9
1142.5369	12209.1
1146.16542	12251.1
1149.79145	12364.3
1153.415	12441.1
1157.03607	12593.8
1160.65467	12904.2
1164.27079	13423.8
1167.88443	14147.4
1171.49561	14977
1175.10432	16048
1178.71056	17416.9
1182.31434	18601.4
1185.91565	19188.5
1189.51451	19056.3
1193.11091	18490.4
1196.70485	17754.4
1200.29634	17006.9
1203.88538	16439.2
1207.47197	16061
1211.05612	15765.1
1214.63782	15420.4
1218.21708	15038.8
1221.79391	14634
1225.36829	14415
1228.94024	14246.7
1232.50976	14135.4
1236.07685	13927.9
1239.6415	13781.4
1243.20374	13735.6
1246.76355	13816.9
1250.32093	13953
1253.8759	14224.1
1257.42845	14630.3
1260.97859	15059.2
1264.52631	15483.6
1268.07163	15944.5
1271.61453	16324.3
1275.15503	16729.1
1278.69312	17194.4
1282.22882	17726.3
1285.76211	18414.3
1289.29301	19200.4
1292.82151	20128.3
1296.34761	21213.5
1299.87133	22352.4
1303.39266	23531.8
1306.9116	24665.9
1310.42815	25605.9
1313.94233	26148
1317.45412	26045.7
1320.96354	25519.9
1324.47058	24993.8
1327.97525	24560.5
1331.47754	24232.4
1334.97747	23962.8
1338.47502	23692.1
1341.97022	23404.1
1345.46305	23145
1348.95352	23104.2
1352.44163	23273.2
1355.92738	23861.3
1359.41078	24944
1362.89183	26013.9
1366.37053	25891
1369.84688	24023
1373.32088	21314.6
1376.79254	19364
1380.26186	18531.8
1383.72883	18385.1
1387.19347	18263.4
1390.65578	18045.2
1394.11575	17902.5
1397.57339	18004
1401.0287	18196.2
1404.48168	18296.1
1407.93234	18175.5
1411.38068	17756.1
1414.82669	17183.1
1418.27039	16503
1421.71177	15826
1425.15083	15296.7
1428.58758	15003.9
1432.02203	15097.5
1435.45416	15426.7
1438.88399	15834.1
1442.31151	16097.2
1445.73673	16298
1449.15965	16511.2
1452.58027	16637.8
1455.9986	16661.1
1459.41463	16736.7
1462.82837	17006.7
1466.23982	17288.9
1469.64898	17557.3
1473.05586	17754.1
1476.46045	17791
1479.86276	17736.8
1483.26279	17685.8
1486.66054	17725.3
1490.05602	17874.9
1493.44922	18228.4
1496.84016	18649.1
1500.22882	19236.2
1503.61521	19959.6
1506.99934	20814
1510.38121	21452.9
1513.76081	21608.7
1517.13816	21120.2
1520.51324	20189
1523.88607	19427.4
1527.25665	19014.9
1530.62498	18797.4
1533.99105	18596.5
1537.35488	18286.7
1540.71647	17799.1
1544.07581	17215.4
1547.4329	16644.9
1550.78776	16240.6
1554.14038	15898.6
1557.49077	15764.1
1560.83892	15749.1
1564.18484	15860.3
1567.52853	16022.1
1570.86999	16209.4
1574.20922	16566.6
1577.54624	16855.3
1580.88103	16884.9
1584.2136	16852.5
1587.54395	17032.4
1590.87208	17650.6
1594.19801	18520.7
1597.52172	19471.7
1600.84321	19722
1604.16251	18996.3
1607.47959	17584
1610.79447	16053.5
1614.10715	14669
1617.41763	13554.6
1620.7259	12776.5
1624.03199	12383.2
1627.33587	12335.6
1630.63757	12648.6
1633.93707	13401.2
1637.23439	14742
1640.52951	16787.2
1643.82246	19349.6
1647.11321	21578.1
1650.40179	22409.7
1653.68819	21101
1656.97241	18389.4
1660.25446	15547.2
1663.53433	13375.8
1666.81203	11973.8
1670.08756	11099.5
1673.36092	10536.6
1676.63211	10184.9
1679.90115	9957
1683.16801	9743.8
1686.43272	9583
1689.69527	9480.1
1692.95567	9395.3
1696.2139	9340.7
1699.46999	9280.5
1702.72392	9225.5
1705.97571	9151.1
1709.22535	9132.4
1712.47284	9088.2
1715.71819	9089.1
1718.96139	9037.7
1722.20246	9004.9
1725.44139	8965.7
1728.67818	8918.5
1731.91284	8849.6
1735.14537	8783
1738.37576	8739.5
1741.60403	8711.2
1744.83017	8679
1748.05418	8654.8
1751.27607	8655.4
1754.49584	8654
1757.71349	8654.8
1760.92903	8647.4
1764.14244	8618.3
1767.35375	8624.8
1770.56294	8555.3
1773.77002	8531.1
1776.97499	8498.7
1780.17785	8471.8
1783.37861	8439
1786.57727	8410.8
1789.77382	8378.9
1792.96828	8363.9
1796.16064	8347.7
1799.3509	8282.5
1802.53907	8274.7
1805.72514	8250.5
1808.90913	8221.1
1812.09102	8223.4
1815.27083	8182.9
1818.44856	8160.9
1821.6242	8172.6
1824.79776	8143.3
1827.96924	8154.2
1831.13864	8122.7
1834.30597	8134.9
1837.47122	8131
1840.6344	8118.8
1843.7955	8074.7
1846.95454	8094.6
1850.11151	8076.2
1853.26642	8082.6
1856.41926	8072.6
1859.57004	8050.9
1862.71876	8039.6
1865.86542	8028.6
1869.01003	8014.6
1872.15258	7984.5
1875.29308	8005.7
1878.43152	7991.5
1881.56792	7954.9
1884.70227	7960.1
1887.83457	7955.9
1890.96482	7923.6
1894.09304	7924.3
1897.21921	7907.2
1900.34335	7888.1
1903.46544	7879.4
1906.58551	7864.1
1909.70353	7842.3
1912.81953	7822.8
1915.93349	7815.6
1919.04543	7812.7
1922.15534	7770.7
1925.26322	7754.8
1928.36908	7752
1931.47292	7702.1
1934.57473	7686
1937.67453	7662.7
1940.77232	7631.1
1943.86808	7622.7
1946.96184	7586.2
1950.05358	7560.1
1953.14331	7543.4
1956.23103	7524.4
1959.31675	7507.1
1962.40046	7501.5
1965.48217	7458.2
1968.56188	7462
1971.63959	7408.3
1974.7153	7394.5
1977.78901	7373
1980.86073	7344.8
1983.93046	7322.7
1986.99819	7290.3
1990.06394	7259.7
1993.1277	7253.5
1996.18947	7208.6
1999.24925	7197.5
2002.30706	7174.7
2005.36288	7135.3
2008.41672	7136.6
2011.46859	7103.9
2014.51848	7076
2017.56639	7064.7
2020.61233	7038
2023.6563	7018.6
2026.6983	7004.1
2029.73833	6983.6
2032.7764	6970.4
2035.8125	6965.2
2038.84664	6916.9
2041.87881	6922.8
2044.90903	6900.9
2047.93729	6897.7
2050.96359	6889.2
2053.98794	6880.5
2057.01034	6876.4
2060.03078	6872.7
2063.04927	6830
2066.06582	6830.5
2069.08042	6823.2
2072.09307	6817
2075.10378	6821.9
2078.11255	6798.3
2081.11938	6821.1
2084.12426	6822.5
2087.12722	6790.9
2090.12824	6791.1
2093.12732	6779
2096.12447	6796.4
2099.11969	6794.5
2102.11299	6775.3
2105.10435	6786.9
2108.09379	6791.3
2111.08131	6791.1
2114.0669	6793
2117.05057	6785.4
2120.03233	6807.4
2123.01216	6796.2
2125.99008	6809.5
2128.96609	6795.4
2131.94018	6780.1
2134.91236	6807.6
2137.88263	6794.9
2140.851	6802.4
2143.81746	6799.1
2146.78201	6781.9
2149.74466	6776.6
2152.7054	6785.4
2155.66425	6763.3
2158.6212	6775.4
2161.57625	6764.4
2164.52941	6779.4
2167.48067	6738.8
2170.43004	6762.1
2173.37752	6761.4
2176.32311	6736.7
2179.26681	6737
2182.20863	6743.4
2185.14856	6745
2188.08661	6734.7
2191.02278	6736.8
2193.95707	6734.5
2196.88948	6714.1
2199.82001	6720.3
2202.74867	6703.5
2205.67545	6692.6
2208.60037	6664.6
2211.52341	6681.1
2214.44458	6666.7
2217.36388	6642.2
2220.28132	6616.7
2223.1969	6588.2
2226.11061	6594
2229.02246	6580.3
2231.93245	6589.1
2234.84058	6556.2
2237.74686	6565.8
2240.65128	6543
2243.55385	6542
2246.45456	6526
2249.35343	6495.1
2252.25044	6506.8
2255.14561	6473
2258.03893	6466.9
2260.93041	6467.5
2263.82004	6423.5
2266.70783	6429.5
2269.59378	6406.9
2272.4779	6392.9
2275.36017	6364.7
2278.24061	6365.2
2281.11922	6349.5
2283.996	6338
2286.87094	6333
2289.74405	6294.8
2292.61534	6303.3
2295.4848	6312.6
2298.35243	6305
2301.21824	6291
2304.08223	6267.3
2306.94439	6266.4
2309.80474	6263.6
2312.66327	6264.1
2315.51999	6269.5
2318.37489	6247.1
2321.22797	6243.9
2324.07925	6238
2326.92871	6217.4
2329.77637	6215.5
2332.62222	6206.9
2335.46626	6188.9
2338.3085	6185.1
2341.14893	6161.5
2343.98756	6172.1
2346.8244	6180.8
2349.65943	6183.6
2352.49267	6157.5
2355.32411	6184.2
2358.15376	6177.7
2360.98161	6163
2363.80768	6144.5
2366.63195	6149.4
2369.45444	6157.7
2372.27514	6137.3
2375.09405	6127.8
2377.91118	6113.4
2380.72652	6083
2383.54009	6061.8
2386.35187	6061.7
2389.16188	6041.8
2391.97011	6036.3
2394.77657	6009.3
2397.58125	6022.9
2400.38416	6005.4
2403.18529	5986.2
2405.98466	5980.3
2408.78226	5992.7
2411.57809	5972.6
2414.37216	5943.4
2417.16446	5953.7
2419.955	5924.2
2422.74378	5943.5
2425.5308	5947.8
2428.31606	5931.4
2431.09956	5925.8
2433.88131	5924.2
2436.6613	5901.9
2439.43954	5923.6
2442.21603	5899.1
2444.99077	5899
2447.76377	5901
2450.53501	5908.3
2453.30451	5895.7
2456.07226	5883.1
2458.83827	5890
2461.60254	5879.8
2464.36507	5870.5
2467.12586	5886.8
2469.88492	5869.9
2472.64224	5884.1
2475.39782	5888.3
2478.15167	5874.5
2480.90379	5863.7
2483.65417	5869.2
2486.40283	5849.1
2489.14976	5859.3
2491.89497	5845.4
2494.63845	5869
2497.3802	5846.9
2500.12024	5842.3
2502.85855	5832.2
2505.59514	5842.6
2508.33002	5825.9
2511.06318	5821.3
2513.79462	5810.8
2516.52435	5813.3
2519.25237	5790.2
2521.97867	5787.7
2524.70327	5779.8
2527.42616	5772.3
2530.14734	5766.2
2532.86681	5764.1
2535.58458	5768.3
2538.30065	5739.8
2541.01501	5732.8
2543.72768	5739.6
2546.43864	5739.2
2549.14791	5703.6
2551.85548	5711.5
2554.56136	5692.1
2557.26554	5678.5
2559.96803	5682.2
2562.66883	5683.1
2565.36794	5659.9
2568.06536	5664.6
2570.7611	5669.4
2573.45514	5658.9
2576.14751	5654.4
2578.83819	5649.6
2581.52719	5648.5
2584.21451	5622.6
2586.90015	5621.9
2589.58411	5615.2
2592.2664	5598.1
2594.94701	5599.5
2597.62594	5581
2600.30321	5561.7
2602.9788	5566.1
2605.65273	5557.5
2608.32498	5567.2
2610.99557	5551.8
2613.66449	5569.3
2616.33175	5560.1
2618.99734	5563.2
2621.66128	5550.7
2624.32355	5542.8
2626.98416	5544.2
2629.64311	5528.8
2632.30041	5510.4
2634.95605	5537.2
2637.61004	5501.2
2640.26238	5494
2642.91306	5504.8
2645.56209	5500.9
2648.20948	5495.7
2650.85521	5503.3
2653.4993	5499.9
2656.14175	5500.2
2658.78255	5515.9
2661.42171	5501.8
2664.05923	5502
2666.6951	5489.4
2669.32934	5512.5
2671.96194	5494.3
2674.59291	5507.5
2677.22224	5492.5
2679.84993	5506.3
2682.476	5509.3
2685.10043	5485.1
2687.72324	5468.8
2690.34441	5499.2
2692.96396	5492.3
2695.58188	5488.3
2698.19818	5486.6
2700.81285	5500.1
2703.4259	5512.2
2706.03733	5567.3
2708.64714	5502.8
2711.25533	5513.8
2713.86191	5492.8
2716.46687	5515.2
2719.07021	5512.9
2721.67194	5505.6
2724.27206	5489.3
2726.87057	5514.6
2729.46747	5498.5
2732.06276	5507.4
2734.65644	5496.2
2737.24852	5498
2739.83899	5484.4
2742.42786	5491
2745.01513	5476.9
2747.60079	5472.3
2750.18486	5471.3
2752.76733	5471.9
2755.3482	5445.4
2757.92747	5459.5
2760.50515	5441.4
2763.08123	5447
2765.65573	5459.3
2768.22863	5454
2770.79994	5431.1
2773.36967	5421.4
2775.9378	5431.5
2778.50435	5427.1
2781.06932	5418.9
2783.6327	5427.7
2786.1945	5409.9
2788.75471	5413.6
2791.31335	5380.5
2793.87041	5389.3
2796.42589	5384.6
2798.97979	5356.9
2801.53212	5367.8
2804.08288	5361.2
2806.63206	5335.1
2809.17967	5338.4
2811.72571	5321.5
2814.27018	5304.9
2816.81308	5309.7
2819.35442	5308.4
2821.89419	5294.2
2824.43239	5292.9
2826.96904	5286.2
2829.50412	5301.9
2832.03763	5283
2834.56959	5275.2
2837.1	5285.7
2839.62884	5289.9
2842.15613	5285.8
2844.68186	5298.1
2847.20604	5317.3
2849.72867	5311.2
2852.24974	5321.8
2854.76927	5310.7
2857.28724	5305.6
2859.80367	5287.6
2862.31855	5283.4
2864.83189	5285.1
2867.34368	5267.4
2869.85393	5262
2872.36264	5245.7
2874.8698	5248.9
2877.37543	5248.6
2879.87952	5263.6
2882.38207	5262.4
2884.88308	5255.4
2887.38256	5232.7
2889.88051	5236.1
2892.37692	5254.8
2894.8718	5259.7
2897.36515	5272.6
2899.85698	5257.5
2902.34727	5274.5
2904.83604	5260.9
2907.32328	5261.9
2909.809	5262
2912.29319	5265.5
2914.77587	5269.3
2917.25702	5258
2919.73665	5274
2922.21476	5298.9
2924.69136	5278.7
2927.16644	5270
2929.64	5276.2
2932.11205	5265.2
2934.58258	5264.6
2937.05161	5264.9
2939.51912	5253.9
2941.98513	5246.6
2944.44962	5232.4
2946.91261	5214.3
2949.37409	5211.7
2951.83407	5242.2
2954.29254	5205.3
2956.74951	5215.2
2959.20498	5180.7
2961.65895	5166.5
2964.11142	5157.8
2966.56239	5138.8
2969.01186	5128.9
2971.45984	5119.1
2973.90632	5108.6
2976.35131	5093
2978.7948	5077.2
2981.23681	5065.3
2983.67732	5047
2986.11635	5032.9
2988.55388	5020.4
2990.98993	4996.3
2993.4245	5016.9
2995.85758	4977.5
2998.28917	4973.7
3000.71928	4975.7
3003.14791	4966.7
3005.57506	4967.4
3008.00073	4952.4
3010.42493	4930.2
3012.84764	4931.9
3015.26888	4940.8
3017.68865	4914.6
3020.10694	4905.7
3022.52376	4894
3024.9391	4885.6
3027.35298	4876.9
3029.76539	4887.7
3032.17632	4853.5
3034.5858	4859.2
3036.9938	4851.5
3039.40034	4848.9
3041.80542	4818.8
3044.20903	4825.5
3046.61118	4822.4
3049.01187	4814.3
3051.4111	4800.8
3053.80888	4796.4
3056.20519	4786.4
3058.60005	4775.7
3060.99345	4778.4
3063.3854	4755.8
3065.7759	4747.8
3068.16494	4738.8
3070.55254	4725.9
3072.93868	4722.2
3075.32338	4702.8
3077.70662	4692.9
3080.08842	4687.3
3082.46878	4682.4
3084.84769	4686.7
3087.22515	4673.6
3089.60118	4677.5
3091.97576	4682.9
3094.3489	4669.3
3096.72061	4669.9
3099.09087	4659.4
3101.4597	4668.5
3103.82709	4669.9
3106.19305	4643.2
3108.55757	4660.7
3110.92066	4635.1
3113.28232	4638.9
3115.64255	4619.4
3118.00134	4609.3
3120.35871	4601.2
3122.71466	4596.5
3125.06917	4592.4
3127.42226	4567.1
3129.77393	4592.6
3132.12417	4585.4
3134.47299	4574.7
3136.82039	4588.5
3139.16636	4588.2
3141.51092	4599
3143.85406	4591.1
3146.19579	4586.7
3148.53609	4588.5
3150.87499	4578.9
3153.21246	4598.9
3155.54853	4600.8
3157.88318	4599.7
3160.21642	4596.7
3162.54826	4602
3164.87868	4610.1
3167.2077	4603.9
3169.5353	4599.4
3171.86151	4601
3174.18631	4590.4
3176.5097	4592.7
3178.83169	4589.6
3181.15228	4580.1
3183.47147	4584.9
3185.78926	4568.1
3188.10565	4560.9
3190.42065	4557.1
3192.73424	4570.5
3195.04645	4577.6
3197.35725	4577
3199.66667	4560.1
3201.97469	4575.9
3204.28132	4569.2
3206.58656	4567.2
3208.8904	4571.5
3211.19287	4573.5
3213.49394	4565.6
3215.79363	4589.4
3218.09193	4579.4
3220.38884	4579.3
3222.68438	4567.9
3224.97853	4566.9
3227.2713	4553.6
3229.56269	4558
3231.8527	4556.6
3234.14133	4549.4
3236.42858	4529.9
3238.71446	4542.5
3240.99896	4514.5
3243.28209	4523
3245.56384	4524.4
3247.84423	4526.1
3250.12324	4517.9
3252.40088	4532.1
3254.67715	4514.9
3256.95205	4502.1
3259.22558	4506.7
3261.49775	4481.8
3263.76855	4478.2
3266.03799	4460
3268.30606	4469.1
3270.57277	4450.2
3272.83812	4447.9
3275.10211	4424.4
3277.36474	4415.7
3279.62601	4441.5
3281.88593	4429.2
3284.14448	4449.9
3286.40168	4428.9
3288.65753	4415.7
3290.91202	4423
3293.16516	4416.7
3295.41695	4399.7
3297.66738	4354.9
3299.91647	4358.2
3302.16421	4326.8
3304.4106	4309.4
3306.65564	4276.8
3308.89933	4255.6
3311.14169	4235.4
3313.38269	4211.2
3315.62236	4166.2
3317.86068	4155.1
3320.09766	4104.6
3322.3333	4076.9
3324.5676	4071.6
3326.80056	4009
3329.03219	3997.4
3331.26248	1.1
3333.49143	0.2
3335.71905	0.9
