Data from AgNPs_FTO_APTES_UA_2um_CRN_0.1mM_R6G_10uM_NaF_0.1M_Addition_RamanShift__25__12-44-09-063.txt Node

Date: Tue Dec 21 12:44:09 GMT 2021
User: TCL
Spectrometer: QEP01345
Trigger mode: 4
Integration Time (sec): 7.000000E0
Scans to average: 10
Electric dark correction enabled: true
Nonlinearity correction enabled: false
Boxcar width: 0
XAxis mode: Raman Shifts
Number of Pixels in Spectrum: 1044
>>>>>Begin Spectral Data<<<<<
46.04893	0.3875
50.45542	-0.9125
54.85868	-1.0125
59.25871	0.5875
63.6555	52.8875
68.04907	59.3875
72.43941	61.8875
76.82654	63.1875
81.21044	67.4875
85.59113	68.4875
89.96862	71.9875
94.34289	73.0875
98.71396	75.6875
103.08183	79.3875
107.4465	81.9875
111.80798	84.0875
116.16626	85.0875
120.52136	88.1875
124.87327	93.1875
129.222	91.8875
133.56755	102.0875
137.90993	114.3875
142.24913	120.4875
146.58517	134.9875
150.91804	156.6875
155.24774	185.9875
159.57429	231.5875
163.89768	298.2875
168.21792	390.5875
172.53501	524.5875
176.84895	728.8875
181.15975	1028.4875
185.46741	1429.5875
189.77193	1978.0875
194.07331	2656.1875
198.37157	3433.2875
202.6667	4274.5875
206.9587	5093.5875
211.24758	5906.6875
215.53334	6761.7875
219.81599	7692.0875
224.09553	8708.6875
228.37195	9871.6875
232.64527	11108.2875
236.91549	12398.1875
241.18261	13604.2875
245.44663	14664.5875
249.70755	15581.3875
253.96539	16342.3875
258.22014	16995.1875
262.4718	17503.4875
266.72039	17885.6875
270.96589	18059.5875
275.20832	18033.4875
279.44768	17907.2875
283.68397	17722.6875
287.91719	17653.7875
292.14735	17631.3875
296.37445	17810.8875
300.59849	18212.3875
304.81948	18695.1875
309.03742	18987.1875
313.25231	18926.1875
317.46415	18172.2875
321.67296	17064.4875
325.87872	16140.6875
330.08145	15689.7875
334.28114	15672.5875
338.47781	15886.6875
342.67145	16265.5875
346.86207	16806.2875
351.04966	17530.4875
355.23424	18440.0875
359.4158	19123.6875
363.59435	19470.2875
367.76989	19579.6875
371.94243	19590.8875
376.11196	19477.6875
380.27849	19429.5875
384.44203	19352.7875
388.60257	19243.4875
392.76012	19192.7875
396.91468	19378.1875
401.06626	19829.3875
405.21485	20242.5875
409.36047	20014.6875
413.50311	19308.5875
417.64277	18598.4875
421.77947	18305.9875
425.9132	18261.3875
430.04396	18397.4875
434.17176	18542.1875
438.2966	18874.2875
442.41849	19401.8875
446.53742	20230.8875
450.6534	21037.9875
454.76644	21574.9875
458.87653	21610.3875
462.98368	21308.5875
467.08789	20818.7875
471.18916	20347.7875
475.2875	19955.7875
479.38291	19721.1875
483.4754	19463.9875
487.56496	19143.9875
491.6516	18759.3875
495.73531	18476.4875
499.81612	18369.9875
503.89401	18478.3875
507.96899	18590.4875
512.04106	18611.1875
516.11023	18589.0875
520.1765	18522.8875
524.23987	18402.3875
528.30034	18222.2875
532.35792	17989.9875
536.41261	17661.1875
540.46441	17296.3875
544.51333	17077.1875
548.55936	17144.4875
552.60252	17532.4875
556.64279	18107.3875
560.6802	18603.0875
564.71473	19032.0875
568.7464	19853.3875
572.7752	20553.4875
576.80114	20438.3875
580.82422	20028.8875
584.84444	19916.5875
588.86181	20159.0875
592.87633	20760.1875
596.888	21319.9875
600.89682	21409.7875
604.9028	22520.7875
608.90594	26440.3875
612.90624	31684.6875
616.90371	30152.7875
620.89834	22281.2875
624.89015	18427.1875
628.87913	17818.4875
632.86528	17900.5875
636.84862	17974.9875
640.82913	17641.9875
644.80683	16879.5875
648.78172	16314.9875
652.75379	16204.6875
656.72306	16657.4875
660.68952	17297.9875
664.65319	17263.5875
668.61405	16712.9875
672.57211	16496.2875
676.52738	16499.9875
680.47986	16471.8875
684.42955	16300.8875
688.37646	16137.0875
692.32058	16127.9875
696.26192	16268.3875
700.20048	16491.4875
704.13626	16668.7875
708.06928	16645.1875
711.99952	16457.6875
715.927	16332.5875
719.85171	16365.6875
723.77365	16328.7875
727.69284	16195.3875
731.60928	16067.2875
735.52295	16111.2875
739.43388	16152.1875
743.34206	16254.8875
747.24749	16360.6875
751.15017	16479.6875
755.05012	16809.1875
758.94733	17576.9875
762.8418	19188.2875
766.73354	21905.5875
770.62254	24652.8875
774.50882	25832.4875
778.39237	24640.5875
782.27321	21701.6875
786.15132	18810.2875
790.02671	17069.5875
793.89938	16257.6875
797.76935	15942.5875
801.6366	15832.8875
805.50115	15756.0875
809.36299	15687.5875
813.22213	15593.8875
817.07857	15494.3875
820.93231	15467.5875
824.78336	15464.7875
828.63172	15500.7875
832.47738	15516.7875
836.32036	15500.5875
840.16066	15446.7875
843.99827	15408.1875
847.8332	15330.8875
851.66546	15264.2875
855.49504	15240.0875
859.32195	15242.7875
863.1462	15194.9875
866.96777	15152.7875
870.78668	15094.4875
874.60293	15110.1875
878.41652	15168.5875
882.22745	15199.2875
886.03573	15279.0875
889.84136	15237.3875
893.64433	15168.0875
897.44466	15052.3875
901.24235	15007.5875
905.0374	14871.2875
908.8298	14786.1875
912.61957	14720.3875
916.40671	14859.7875
920.19121	15107.7875
923.97308	15333.4875
927.75233	15493.7875
931.52895	15537.4875
935.30295	15353.0875
939.07433	14887.7875
942.84309	14497.8875
946.60924	14299.7875
950.37278	14198.5875
954.13371	14107.5875
957.89203	14082.3875
961.64774	13994.2875
965.40086	13940.8875
969.15137	13879.3875
972.89929	13782.5875
976.64461	13704.7875
980.38733	13718.3875
984.12747	13742.8875
987.86502	13864.8875
991.59999	14036.7875
995.33237	14366.8875
999.06217	14886.9875
1002.78939	15637.3875
1006.51404	16183.8875
1010.23611	16572.1875
1013.95561	16777.9875
1017.67255	16660.6875
1021.38692	16324.8875
1025.09872	15919.2875
1028.80796	15769.1875
1032.51465	16007.5875
1036.21877	16379.6875
1039.92035	16499.1875
1043.61937	16374.7875
1047.31584	16083.8875
1051.00976	15712.3875
1054.70114	15479.2875
1058.38998	15406.0875
1062.07627	15450.7875
1065.76003	15543.1875
1069.44126	15643.1875
1073.11995	15863.8875
1076.79611	16079.2875
1080.46974	16258.1875
1084.14085	16599.2875
1087.80943	16976.0875
1091.47549	17210.5875
1095.13903	17066.1875
1098.80005	16610.0875
1102.45857	16084.7875
1106.11456	15765.9875
1109.76805	15782.0875
1113.41903	16027.9875
1117.06751	16452.9875
1120.71348	17018.3875
1124.35696	17674.5875
1127.99793	18189.9875
1131.63641	18206.3875
1135.2724	17642.5875
1138.90589	17044.7875
1142.5369	16675.9875
1146.16542	16501.7875
1149.79145	16460.4875
1153.415	16502.3875
1157.03607	16649.4875
1160.65467	17095.0875
1164.27079	17846.1875
1167.88443	19018.6875
1171.49561	20694.0875
1175.10432	23289.2875
1178.71056	26537.2875
1182.31434	29299.8875
1185.91565	30392.3875
1189.51451	29910.4875
1193.11091	28401.6875
1196.70485	26571.1875
1200.29634	24952.9875
1203.88538	23562.0875
1207.47197	22264.0875
1211.05612	21245.3875
1214.63782	20670.2875
1218.21708	20555.9875
1221.79391	20692.1875
1225.36829	20649.0875
1228.94024	20350.5875
1232.50976	19900.6875
1236.07685	19472.7875
1239.6415	19261.2875
1243.20374	19226.5875
1246.76355	19323.7875
1250.32093	19596.2875
1253.8759	20134.0875
1257.42845	20886.0875
1260.97859	21647.0875
1264.52631	22350.9875
1268.07163	23065.6875
1271.61453	23803.6875
1275.15503	24564.8875
1278.69312	25194.8875
1282.22882	25745.0875
1285.76211	26516.3875
1289.29301	27483.0875
1292.82151	28683.9875
1296.34761	30179.3875
1299.87133	32160.0875
1303.39266	34806.4875
1306.9116	38406.3875
1310.42815	42237.4875
1313.94233	44632.5875
1317.45412	44463.2875
1320.96354	42507.4875
1324.47058	40279.6875
1327.97525	38257.7875
1331.47754	36771.6875
1334.97747	36169.6875
1338.47502	36257.5875
1341.97022	36610.3875
1345.46305	36753.4875
1348.95352	36904.0875
1352.44163	37571.1875
1355.92738	39448.8875
1359.41078	43013.9875
1362.89183	46373.1875
1366.37053	45377.1875
1369.84688	39881.1875
1373.32088	34017.8875
1376.79254	30020.0875
1380.26186	28099.0875
1383.72883	27318.0875
1387.19347	26863.1875
1390.65578	26483.0875
1394.11575	26516.2875
1397.57339	27140.6875
1401.0287	28161.6875
1404.48168	29217.5875
1407.93234	29879.0875
1411.38068	29959.7875
1414.82669	29273.9875
1418.27039	27965.4875
1421.71177	26396.0875
1425.15083	24959.3875
1428.58758	24176.2875
1432.02203	24025.6875
1435.45416	24338.1875
1438.88399	24730.4875
1442.31151	25109.6875
1445.73673	25604.4875
1449.15965	26124.8875
1452.58027	26431.9875
1455.9986	26478.4875
1459.41463	26644.3875
1462.82837	27177.8875
1466.23982	27976.4875
1469.64898	28724.0875
1473.05586	29061.1875
1476.46045	29104.5875
1479.86276	29004.0875
1483.26279	28978.0875
1486.66054	28995.7875
1490.05602	29287.6875
1493.44922	29706.6875
1496.84016	30145.9875
1500.22882	31043.7875
1503.61521	32772.2875
1506.99934	35244.5875
1510.38121	37630.2875
1513.76081	38583.7875
1517.13816	37043.6875
1520.51324	33759.1875
1523.88607	30513.7875
1527.25665	28421.2875
1530.62498	27367.5875
1533.99105	26871.5875
1537.35488	26631.9875
1540.71647	26454.5875
1544.07581	26240.4875
1547.4329	25865.0875
1550.78776	25495.2875
1554.14038	25138.7875
1557.49077	25047.6875
1560.83892	25123.8875
1564.18484	25417.6875
1567.52853	25696.5875
1570.86999	25935.2875
1574.20922	26187.8875
1577.54624	26181.8875
1580.88103	25556.3875
1584.2136	24839.7875
1587.54395	25015.5875
1590.87208	26350.1875
1594.19801	28625.7875
1597.52172	31348.7875
1600.84321	32848.1875
1604.16251	31980.1875
1607.47959	29238.4875
1610.79447	25914.0875
1614.10715	22818.6875
1617.41763	20506.1875
1620.7259	19013.1875
1624.03199	18264.8875
1627.33587	18215.3875
1630.63757	18756.5875
1633.93707	20031.8875
1637.23439	22135.4875
1640.52951	25209.9875
1643.82246	29114.2875
1647.11321	32878.8875
1650.40179	34694.1875
1653.68819	32884.2875
1656.97241	28195.2875
1660.25446	23120.5875
1663.53433	19377.2875
1666.81203	17017.0875
1670.08756	15595.1875
1673.36092	14760.3875
1676.63211	14232.5875
1679.90115	13817.5875
1683.16801	13533.3875
1686.43272	13354.9875
1689.69527	13213.6875
1692.95567	13054.0875
1696.2139	13024.8875
1699.46999	12986.6875
1702.72392	12928.0875
1705.97571	12896.3875
1709.22535	12826.5875
1712.47284	12804.4875
1715.71819	12777.4875
1718.96139	12757.4875
1722.20246	12690.0875
1725.44139	12614.3875
1728.67818	12529.6875
1731.91284	12483.8875
1735.14537	12397.2875
1738.37576	12310.4875
1741.60403	12237.6875
1744.83017	12198.8875
1748.05418	12219.3875
1751.27607	12178.4875
1754.49584	12176.1875
1757.71349	12159.8875
1760.92903	12126.5875
1764.14244	12112.0875
1767.35375	12080.4875
1770.56294	12039.1875
1773.77002	11984.5875
1776.97499	11934.3875
1780.17785	11875.1875
1783.37861	11867.7875
1786.57727	11823.7875
1789.77382	11805.4875
1792.96828	11786.1875
1796.16064	11785.5875
1799.3509	11742.1875
1802.53907	11704.5875
1805.72514	11674.1875
1808.90913	11653.4875
1812.09102	11606.9875
1815.27083	11564.2875
1818.44856	11549.1875
1821.6242	11529.5875
1824.79776	11536.3875
1827.96924	11498.3875
1831.13864	11468.7875
1834.30597	11470.1875
1837.47122	11469.4875
1840.6344	11424.9875
1843.7955	11453.9875
1846.95454	11456.6875
1850.11151	11441.3875
1853.26642	11432.6875
1856.41926	11445.3875
1859.57004	11429.9875
1862.71876	11439.1875
1865.86542	11429.8875
1869.01003	11433.9875
1872.15258	11456.6875
1875.29308	11463.7875
1878.43152	11436.7875
1881.56792	11450.3875
1884.70227	11419.9875
1887.83457	11455.8875
1890.96482	11453.8875
1894.09304	11429.3875
1897.21921	11494.8875
1900.34335	11469.7875
1903.46544	11502.7875
1906.58551	11484.9875
1909.70353	11462.7875
1912.81953	11453.2875
1915.93349	11439.5875
1919.04543	11422.0875
1922.15534	11388.6875
1925.26322	11360.3875
1928.36908	11329.8875
1931.47292	11301.0875
1934.57473	11253.1875
1937.67453	11205.0875
1940.77232	11130.4875
1943.86808	11117.4875
1946.96184	11054.1875
1950.05358	10998.6875
1953.14331	10936.5875
1956.23103	10902.8875
1959.31675	10849.0875
1962.40046	10839.3875
1965.48217	10812.1875
1968.56188	10759.1875
1971.63959	10746.6875
1974.7153	10716.1875
1977.78901	10637.6875
1980.86073	10616.6875
1983.93046	10578.8875
1986.99819	10556.6875
1990.06394	10486.5875
1993.1277	10476.0875
1996.18947	10413.4875
1999.24925	10418.5875
2002.30706	10375.8875
2005.36288	10313.7875
2008.41672	10309.6875
2011.46859	10255.1875
2014.51848	10246.4875
2017.56639	10187.7875
2020.61233	10180.6875
2023.6563	10169.1875
2026.6983	10169.6875
2029.73833	10104.6875
2032.7764	10089.0875
2035.8125	10089.0875
2038.84664	10064.6875
2041.87881	10061.5875
2044.90903	10047.3875
2047.93729	10030.2875
2050.96359	9995.0875
2053.98794	10003.9875
2057.01034	9987.8875
2060.03078	9955.6875
2063.04927	9945.6875
2066.06582	9936.8875
2069.08042	9909.7875
2072.09307	9885.5875
2075.10378	9893.5875
2078.11255	9875.7875
2081.11938	9869.6875
2084.12426	9854.8875
2087.12722	9850.8875
2090.12824	9838.7875
2093.12732	9851.7875
2096.12447	9845.9875
2099.11969	9814.9875
2102.11299	9842.7875
2105.10435	9809.9875
2108.09379	9817.2875
2111.08131	9841.9875
2114.0669	9846.1875
2117.05057	9828.6875
2120.03233	9848.3875
2123.01216	9824.1875
2125.99008	9855.7875
2128.96609	9849.0875
2131.94018	9846.7875
2134.91236	9847.7875
2137.88263	9851.5875
2140.851	9838.9875
2143.81746	9878.5875
2146.78201	9854.0875
2149.74466	9824.3875
2152.7054	9837.7875
2155.66425	9827.0875
2158.6212	9804.7875
2161.57625	9806.5875
2164.52941	9794.7875
2167.48067	9792.6875
2170.43004	9791.1875
2173.37752	9793.3875
2176.32311	9763.2875
2179.26681	9779.6875
2182.20863	9778.5875
2185.14856	9794.1875
2188.08661	9778.9875
2191.02278	9774.1875
2193.95707	9765.2875
2196.88948	9778.8875
2199.82001	9751.4875
2202.74867	9739.2875
2205.67545	9750.9875
2208.60037	9726.7875
2211.52341	9712.9875
2214.44458	9692.4875
2217.36388	9680.9875
2220.28132	9667.1875
2223.1969	9647.7875
2226.11061	9648.5875
2229.02246	9624.0875
2231.93245	9591.1875
2234.84058	9566.6875
2237.74686	9577.6875
2240.65128	9544.8875
2243.55385	9525.2875
2246.45456	9528.2875
2249.35343	9498.4875
2252.25044	9494.3875
2255.14561	9477.1875
2258.03893	9487.6875
2260.93041	9471.2875
2263.82004	9442.0875
2266.70783	9423.5875
2269.59378	9349.9875
2272.4779	9369.7875
2275.36017	9324.4875
2278.24061	9297.6875
2281.11922	9275.2875
2283.996	9245.2875
2286.87094	9258.8875
2289.74405	9210.0875
2292.61534	9223.4875
2295.4848	9189.9875
2298.35243	9192.0875
2301.21824	9185.3875
2304.08223	9182.1875
2306.94439	9193.3875
2309.80474	9202.7875
2312.66327	9190.2875
2315.51999	9183.5875
2318.37489	9178.4875
2321.22797	9177.8875
2324.07925	9162.5875
2326.92871	9140.7875
2329.77637	9164.9875
2332.62222	9153.2875
2335.46626	9155.1875
2338.3085	9143.5875
2341.14893	9151.1875
2343.98756	9125.1875
2346.8244	9145.2875
2349.65943	9148.8875
2352.49267	9173.0875
2355.32411	9166.8875
2358.15376	9166.3875
2360.98161	9171.4875
2363.80768	9161.8875
2366.63195	9153.9875
2369.45444	9133.1875
2372.27514	9137.2875
2375.09405	9105.9875
2377.91118	9069.0875
2380.72652	9042.9875
2383.54009	9019.9875
2386.35187	8969.1875
2389.16188	8931.9875
2391.97011	8933.9875
2394.77657	8938.0875
2397.58125	8914.9875
2400.38416	8915.5875
2403.18529	8873.0875
2405.98466	8841.0875
2408.78226	8821.9875
2411.57809	8805.6875
2414.37216	8791.9875
2417.16446	8790.3875
2419.955	8755.7875
2422.74378	8766.3875
2425.5308	8735.5875
2428.31606	8740.9875
2431.09956	8739.7875
2433.88131	8716.4875
2436.6613	8711.2875
2439.43954	8686.6875
2442.21603	8712.2875
2444.99077	8724.2875
2447.76377	8714.6875
2450.53501	8713.7875
2453.30451	8721.9875
2456.07226	8724.1875
2458.83827	8689.1875
2461.60254	8699.1875
2464.36507	8708.6875
2467.12586	8708.4875
2469.88492	8707.7875
2472.64224	8724.9875
2475.39782	8695.9875
2478.15167	8739.8875
2480.90379	8734.1875
2483.65417	8737.5875
2486.40283	8762.6875
2489.14976	8763.7875
2491.89497	8760.3875
2494.63845	8785.9875
2497.3802	8790.0875
2500.12024	8793.9875
2502.85855	8772.6875
2505.59514	8759.9875
2508.33002	8725.2875
2511.06318	8712.7875
2513.79462	8690.8875
2516.52435	8679.5875
2519.25237	8648.5875
2521.97867	8620.8875
2524.70327	8623.9875
2527.42616	8613.7875
2530.14734	8609.9875
2532.86681	8611.6875
2535.58458	8604.9875
2538.30065	8582.1875
2541.01501	8588.8875
2543.72768	8568.6875
2546.43864	8583.9875
2549.14791	8566.0875
2551.85548	8551.5875
2554.56136	8557.5875
2557.26554	8551.3875
2559.96803	8554.9875
2562.66883	8540.7875
2565.36794	8526.0875
2568.06536	8529.7875
2570.7611	8524.7875
2573.45514	8530.5875
2576.14751	8498.0875
2578.83819	8499.6875
2581.52719	8526.0875
2584.21451	8501.7875
2586.90015	8507.8875
2589.58411	8501.0875
2592.2664	8499.0875
2594.94701	8471.1875
2597.62594	8469.7875
2600.30321	8458.9875
2602.9788	8464.6875
2605.65273	8458.3875
2608.32498	8478.3875
2610.99557	8475.8875
2613.66449	8475.7875
2616.33175	8461.3875
2618.99734	8461.6875
2621.66128	8462.4875
2624.32355	8469.2875
2626.98416	8476.0875
2629.64311	8470.2875
2632.30041	8475.6875
2634.95605	8483.6875
2637.61004	8454.8875
2640.26238	8442.5875
2642.91306	8412.0875
2645.56209	8412.7875
2648.20948	8406.6875
2650.85521	8406.1875
2653.4993	8411.6875
2656.14175	8406.6875
2658.78255	8406.3875
2661.42171	8423.8875
2664.05923	8426.2875
2666.6951	8421.1875
2669.32934	8433.0875
2671.96194	8453.9875
2674.59291	8457.0875
2677.22224	8447.5875
2679.84993	8453.9875
2682.476	8422.0875
2685.10043	8441.3875
2687.72324	8419.1875
2690.34441	8432.1875
2692.96396	8420.3875
2695.58188	8424.5875
2698.19818	8391.1875
2700.81285	8400.2875
2703.4259	8434.4875
2706.03733	8497.7875
2708.64714	8477.5875
2711.25533	8453.6875
2713.86191	8432.7875
2716.46687	8426.3875
2719.07021	8434.0875
2721.67194	8442.0875
2724.27206	8456.8875
2726.87057	8447.8875
2729.46747	8470.3875
2732.06276	8467.0875
2734.65644	8455.5875
2737.24852	8429.5875
2739.83899	8431.1875
2742.42786	8450.4875
2745.01513	8438.1875
2747.60079	8434.1875
2750.18486	8411.6875
2752.76733	8415.3875
2755.3482	8387.7875
2757.92747	8411.0875
2760.50515	8377.6875
2763.08123	8402.0875
2765.65573	8404.1875
2768.22863	8427.1875
2770.79994	8387.0875
2773.36967	8395.0875
2775.9378	8407.7875
2778.50435	8406.8875
2781.06932	8397.6875
2783.6327	8397.2875
2786.1945	8403.8875
2788.75471	8414.3875
2791.31335	8377.0875
2793.87041	8399.7875
2796.42589	8340.3875
2798.97979	8342.6875
2801.53212	8329.0875
2804.08288	8363.2875
2806.63206	8344.7875
2809.17967	8314.4875
2811.72571	8314.7875
2814.27018	8313.1875
2816.81308	8288.8875
2819.35442	8285.5875
2821.89419	8293.5875
2824.43239	8297.7875
2826.96904	8312.7875
2829.50412	8307.8875
2832.03763	8286.9875
2834.56959	8294.1875
2837.1	8281.9875
2839.62884	8270.4875
2842.15613	8263.9875
2844.68186	8291.0875
2847.20604	8322.8875
2849.72867	8334.6875
2852.24974	8307.8875
2854.76927	8305.8875
2857.28724	8325.3875
2859.80367	8318.6875
2862.31855	8291.6875
2864.83189	8283.1875
2867.34368	8275.4875
2869.85393	8270.6875
2872.36264	8262.8875
2874.8698	8250.3875
2877.37543	8253.4875
2879.87952	8257.9875
2882.38207	8253.4875
2884.88308	8255.7875
2887.38256	8267.9875
2889.88051	8247.9875
2892.37692	8261.6875
2894.8718	8267.4875
2897.36515	8280.2875
2899.85698	8274.6875
2902.34727	8282.2875
2904.83604	8275.9875
2907.32328	8304.3875
2909.809	8307.0875
2912.29319	8309.0875
2914.77587	8306.0875
2917.25702	8311.1875
2919.73665	8282.9875
2922.21476	8271.7875
2924.69136	8281.0875
2927.16644	8284.8875
2929.64	8268.4875
2932.11205	8255.6875
2934.58258	8209.5875
2937.05161	8230.3875
2939.51912	8229.4875
2941.98513	8198.1875
2944.44962	8156.0875
2946.91261	8157.1875
2949.37409	8142.1875
2951.83407	8105.1875
2954.29254	8099.0875
2956.74951	8096.4875
2959.20498	8068.9875
2961.65895	8039.8875
2964.11142	8005.5875
2966.56239	7981.7875
2969.01186	7966.7875
2971.45984	7956.7875
2973.90632	7914.4875
2976.35131	7894.8875
2978.7948	7868.0875
2981.23681	7861.8875
2983.67732	7830.2875
2986.11635	7806.7875
2988.55388	7776.9875
2990.98993	7776.1875
2993.4245	7768.0875
2995.85758	7748.5875
2998.28917	7705.3875
3000.71928	7709.5875
3003.14791	7689.0875
3005.57506	7686.0875
3008.00073	7661.7875
3010.42493	7659.8875
3012.84764	7631.2875
3015.26888	7640.4875
3017.68865	7592.8875
3020.10694	7604.6875
3022.52376	7566.5875
3024.9391	7545.8875
3027.35298	7539.9875
3029.76539	7520.1875
3032.17632	7516.0875
3034.5858	7497.0875
3036.9938	7479.2875
3039.40034	7477.0875
3041.80542	7484.0875
3044.20903	7436.2875
3046.61118	7443.0875
3049.01187	7404.8875
3051.4111	7424.1875
3053.80888	7388.0875
3056.20519	7371.0875
3058.60005	7344.7875
3060.99345	7350.9875
3063.3854	7322.5875
3065.7759	7286.6875
3068.16494	7268.6875
3070.55254	7239.2875
3072.93868	7214.6875
3075.32338	7197.4875
3077.70662	7187.0875
3080.08842	7152.5875
3082.46878	7128.2875
3084.84769	7123.8875
3087.22515	7113.4875
3089.60118	7115.0875
3091.97576	7125.4875
3094.3489	7113.6875
3096.72061	7078.0875
3099.09087	7095.9875
3101.4597	7067.2875
3103.82709	7078.6875
3106.19305	7032.9875
3108.55757	7046.7875
3110.92066	7022.4875
3113.28232	7009.1875
3115.64255	6954.3875
3118.00134	6942.3875
3120.35871	6961.0875
3122.71466	6950.3875
3125.06917	6939.5875
3127.42226	6925.1875
3129.77393	6910.9875
3132.12417	6925.1875
3134.47299	6928.3875
3136.82039	6912.4875
3139.16636	6901.9875
3141.51092	6898.9875
3143.85406	6881.4875
3146.19579	6898.6875
3148.53609	6890.8875
3150.87499	6888.1875
3153.21246	6872.7875
3155.54853	6885.1875
3157.88318	6882.2875
3160.21642	6892.9875
3162.54826	6884.6875
3164.87868	6867.5875
3167.2077	6850.7875
3169.5353	6861.3875
3171.86151	6845.6875
3174.18631	6840.4875
3176.5097	6829.0875
3178.83169	6840.2875
3181.15228	6800.1875
3183.47147	6804.6875
3185.78926	6816.6875
3188.10565	6823.8875
3190.42065	6819.8875
3192.73424	6820.7875
3195.04645	6819.7875
3197.35725	6798.8875
3199.66667	6813.7875
3201.97469	6827.1875
3204.28132	6826.9875
3206.58656	6820.1875
3208.8904	6809.8875
3211.19287	6820.8875
3213.49394	6806.7875
3215.79363	6810.1875
3218.09193	6821.8875
3220.38884	6827.3875
3222.68438	6853.9875
3224.97853	6816.1875
3227.2713	6816.0875
3229.56269	6787.0875
3231.8527	6795.6875
3234.14133	6774.8875
3236.42858	6781.1875
3238.71446	6755.9875
3240.99896	6749.7875
3243.28209	6733.2875
3245.56384	6740.8875
3247.84423	6725.6875
3250.12324	6735.1875
3252.40088	6725.7875
3254.67715	6716.2875
3256.95205	6705.9875
3259.22558	6679.2875
3261.49775	6646.8875
3263.76855	6640.8875
3266.03799	6651.5875
3268.30606	6638.9875
3270.57277	6633.2875
3272.83812	6605.1875
3275.10211	6611.1875
3277.36474	6582.1875
3279.62601	6604.3875
3281.88593	6586.3875
3284.14448	6594.3875
3286.40168	6570.2875
3288.65753	6605.4875
3290.91202	6576.8875
3293.16516	6544.5875
3295.41695	6533.0875
3297.66738	6486.8875
3299.91647	6483.7875
3302.16421	6435.1875
3304.4106	6392.2875
3306.65564	6382.2875
3308.89933	6343.4875
3311.14169	6276.0875
3313.38269	6261.3875
3315.62236	6204.3875
3317.86068	6157.0875
3320.09766	6086.7875
3322.3333	6049.6875
3324.5676	6048.1875
3326.80056	5953.5875
3329.03219	5906.9875
3331.26248	1.5875
3333.49143	-1.3125
3335.71905	-0.2125
