Data from AgNPs_FTO_APTES_UA_0um_CRN_0.1mM_R6G_10uM_NaF_0.1M_Addition_RamanShift__3__10-14-48-891.txt Node

Date: Tue Dec 21 10:14:48 GMT 2021
User: TCL
Spectrometer: QEP01345
Trigger mode: 4
Integration Time (sec): 7.000000E0
Scans to average: 10
Electric dark correction enabled: true
Nonlinearity correction enabled: false
Boxcar width: 0
XAxis mode: Raman Shifts
Number of Pixels in Spectrum: 1044
>>>>>Begin Spectral Data<<<<<
46.04893	-1
50.45542	-0.9
54.85868	-1.1
59.25871	1.5
63.6555	18.8
68.04907	21.2
72.43941	23.9
76.82654	22.5
81.21044	28.1
85.59113	28.5
89.96862	28.7
94.34289	27.6
98.71396	31
103.08183	31.4
107.4465	35.4
111.80798	32.6
116.16626	30.4
120.52136	31.4
124.87327	32.9
129.222	26.9
133.56755	33.3
137.90993	35.7
142.24913	33.7
146.58517	34.7
150.91804	37
155.24774	40.9
159.57429	44
163.89768	52.5
168.21792	64.5
172.53501	80.9
176.84895	100.7
181.15975	143
185.46741	189.3
189.77193	262.4
194.07331	352.4
198.37157	464.5
202.6667	584.6
206.9587	717.4
211.24758	853
215.53334	988.7
219.81599	1129.1
224.09553	1271.4
228.37195	1421.2
232.64527	1552.6
236.91549	1679.6
241.18261	1792.6
245.44663	1879.9
249.70755	1966.9
253.96539	2039.5
258.22014	2071.4
262.4718	2082.1
266.72039	2079.6
270.96589	2050.1
275.20832	2002.3
279.44768	1936.6
283.68397	1874.6
287.91719	1823.2
292.14735	1763.3
296.37445	1716.1
300.59849	1670.4
304.81948	1651.5
309.03742	1611.5
313.25231	1592
317.46415	1559.6
321.67296	1523.1
325.87872	1500.9
330.08145	1469.7
334.28114	1466.2
338.47781	1462.4
342.67145	1467.1
346.86207	1472.7
351.04966	1473.1
355.23424	1479.1
359.4158	1478.5
363.59435	1483.8
367.76989	1484
371.94243	1477.5
376.11196	1472.7
380.27849	1469.5
384.44203	1474.5
388.60257	1475.2
392.76012	1466.5
396.91468	1470.4
401.06626	1473.4
405.21485	1485.8
409.36047	1483.8
413.50311	1500.7
417.64277	1535
421.77947	1565.3
425.9132	1513.1
430.04396	1495.3
434.17176	1511.9
438.2966	1525.6
442.41849	1540.1
446.53742	1559
450.6534	1566.6
454.76644	1587.5
458.87653	1605.3
462.98368	1601.8
467.08789	1611.3
471.18916	1606.3
475.2875	1598.5
479.38291	1598.2
483.4754	1591.4
487.56496	1603.1
491.6516	1605.4
495.73531	1598.3
499.81612	1599.8
503.89401	1597.6
507.96899	1605.2
512.04106	1596.5
516.11023	1586.9
520.1765	1572.6
524.23987	1564.4
528.30034	1554
532.35792	1552.5
536.41261	1545.5
540.46441	1536.7
544.51333	1534.9
548.55936	1533.6
552.60252	1535.3
556.64279	1543.3
560.6802	1547.8
564.71473	1550.9
568.7464	1547.3
572.7752	1567
576.80114	1563.6
580.82422	1553.7
584.84444	1542.9
588.86181	1536.6
592.87633	1531
596.888	1536.3
600.89682	1540.2
604.9028	1566.5
608.90594	1623.6
612.90624	1739.7
616.90371	1761.1
620.89834	1665.4
624.89015	1612.7
628.87913	1610.7
632.86528	1625.8
636.84862	1651.6
640.82913	1677.7
644.80683	1720.3
648.78172	1739.8
652.75379	1747.1
656.72306	1730.4
660.68952	1696.9
664.65319	1681.5
668.61405	1695.2
672.57211	1744
676.52738	1832.1
680.47986	1961.2
684.42955	2007.9
688.37646	1996.6
692.32058	1926.2
696.26192	1853
700.20048	1813.7
704.13626	1785.7
708.06928	1773.7
711.99952	1739.9
715.927	1725.6
719.85171	1713.7
723.77365	1727.1
727.69284	1731.7
731.60928	1753.7
735.52295	1741.1
739.43388	1728.5
743.34206	1700.7
747.24749	1694
751.15017	1697.6
755.05012	1694.6
758.94733	1697
762.8418	1724.4
766.73354	1739.5
770.62254	1768.1
774.50882	1778.1
778.39237	1764.9
782.27321	1714.3
786.15132	1674.5
790.02671	1652.2
793.89938	1660.5
797.76935	1660
801.6366	1663.8
805.50115	1663.7
809.36299	1677
813.22213	1662.1
817.07857	1667
820.93231	1647.5
824.78336	1629.8
828.63172	1628.4
832.47738	1628.5
836.32036	1623.3
840.16066	1613.4
843.99827	1610.2
847.8332	1601.5
851.66546	1608.2
855.49504	1589.9
859.32195	1593.1
863.1462	1598.8
866.96777	1616
870.78668	1632.4
874.60293	1639.2
878.41652	1628.2
882.22745	1633.4
886.03573	1642.1
889.84136	1649.5
893.64433	1654.8
897.44466	1655.5
901.24235	1671.6
905.0374	1654.9
908.8298	1687.4
912.61957	1704.9
916.40671	1757.9
920.19121	1825.8
923.97308	1886.9
927.75233	1951.7
931.52895	1962.8
935.30295	1970.2
939.07433	1945.3
942.84309	1894.1
946.60924	1854
950.37278	1821.8
954.13371	1793.8
957.89203	1767.1
961.64774	1749.2
965.40086	1731.3
969.15137	1707.4
972.89929	1692.9
976.64461	1668.8
980.38733	1648.5
984.12747	1638.4
987.86502	1629.3
991.59999	1618.4
995.33237	1616
999.06217	1619.1
1002.78939	1625.2
1006.51404	1625.3
1010.23611	1642
1013.95561	1648.7
1017.67255	1659.8
1021.38692	1662.9
1025.09872	1667.1
1028.80796	1665.5
1032.51465	1679.2
1036.21877	1688.9
1039.92035	1699.4
1043.61937	1678.6
1047.31584	1683.2
1051.00976	1680.7
1054.70114	1680.2
1058.38998	1675.5
1062.07627	1649.9
1065.76003	1625.9
1069.44126	1600.2
1073.11995	1579.9
1076.79611	1556.3
1080.46974	1554.5
1084.14085	1540.4
1087.80943	1528.7
1091.47549	1505.4
1095.13903	1502.5
1098.80005	1492.3
1102.45857	1480.8
1106.11456	1479
1109.76805	1478
1113.41903	1486.3
1117.06751	1497.3
1120.71348	1508.4
1124.35696	1529.8
1127.99793	1546.9
1131.63641	1574.4
1135.2724	1584.5
1138.90589	1573.4
1142.5369	1565.3
1146.16542	1564.9
1149.79145	1561.2
1153.415	1553.7
1157.03607	1542.2
1160.65467	1539.3
1164.27079	1538.7
1167.88443	1538.5
1171.49561	1567.2
1175.10432	1592.1
1178.71056	1618.4
1182.31434	1651.5
1185.91565	1675
1189.51451	1666
1193.11091	1651.4
1196.70485	1622.2
1200.29634	1599.9
1203.88538	1590.6
1207.47197	1583.4
1211.05612	1571.2
1214.63782	1560.6
1218.21708	1568.1
1221.79391	1572.4
1225.36829	1584.1
1228.94024	1596.1
1232.50976	1606.6
1236.07685	1613.2
1239.6415	1631.8
1243.20374	1641.9
1246.76355	1645.3
1250.32093	1654.6
1253.8759	1681.4
1257.42845	1705.8
1260.97859	1709.4
1264.52631	1728.1
1268.07163	1746.5
1271.61453	1750.3
1275.15503	1779.3
1278.69312	1795.4
1282.22882	1822.6
1285.76211	1837.1
1289.29301	1880.7
1292.82151	1910.1
1296.34761	1959.1
1299.87133	1983.6
1303.39266	2021.5
1306.9116	2068.3
1310.42815	2110.7
1313.94233	2127.9
1317.45412	2128.1
1320.96354	2091.1
1324.47058	2055.5
1327.97525	2027.9
1331.47754	2019.5
1334.97747	2024.1
1338.47502	2043.5
1341.97022	2078.8
1345.46305	2125.7
1348.95352	2187.5
1352.44163	2254.8
1355.92738	2338
1359.41078	2428.3
1362.89183	2523.8
1366.37053	2554.4
1369.84688	2495.4
1373.32088	2376.6
1376.79254	2307.9
1380.26186	2273.4
1383.72883	2240
1387.19347	2214.6
1390.65578	2197.9
1394.11575	2178.9
1397.57339	2170.1
1401.0287	2164.8
1404.48168	2158.2
1407.93234	2172.2
1411.38068	2196.3
1414.82669	2227.1
1418.27039	2273
1421.71177	2305.6
1425.15083	2286.7
1428.58758	2248
1432.02203	2185.9
1435.45416	2137.8
1438.88399	2120
1442.31151	2088.6
1445.73673	2081.6
1449.15965	2084.1
1452.58027	2069.3
1455.9986	2067.4
1459.41463	2070.3
1462.82837	2061.5
1466.23982	2071.3
1469.64898	2070.9
1473.05586	2068.8
1476.46045	2042.5
1479.86276	2043.3
1483.26279	2022.5
1486.66054	2020.5
1490.05602	2022.6
1493.44922	2002.2
1496.84016	1992.6
1500.22882	2002.5
1503.61521	2027.7
1506.99934	2067.3
1510.38121	2103.5
1513.76081	2126.9
1517.13816	2079.1
1520.51324	2021.4
1523.88607	1940.4
1527.25665	1899.2
1530.62498	1867.8
1533.99105	1858.2
1537.35488	1848.7
1540.71647	1840.2
1544.07581	1844.1
1547.4329	1838.3
1550.78776	1844.4
1554.14038	1852.2
1557.49077	1848.8
1560.83892	1846.4
1564.18484	1839.5
1567.52853	1828
1570.86999	1819.7
1574.20922	1803.7
1577.54624	1782
1580.88103	1750.7
1584.2136	1712.5
1587.54395	1682
1590.87208	1660.9
1594.19801	1639.2
1597.52172	1639.4
1600.84321	1628.1
1604.16251	1620
1607.47959	1611.2
1610.79447	1588.8
1614.10715	1577.4
1617.41763	1566.1
1620.7259	1563.6
1624.03199	1569.5
1627.33587	1564.1
1630.63757	1547.3
1633.93707	1555.5
1637.23439	1548.2
1640.52951	1551
1643.82246	1561.3
1647.11321	1579.5
1650.40179	1587.6
1653.68819	1585.8
1656.97241	1527.2
1660.25446	1453.7
1663.53433	1403.2
1666.81203	1360.9
1670.08756	1325
1673.36092	1296.9
1676.63211	1270.7
1679.90115	1239.1
1683.16801	1215.7
1686.43272	1195.8
1689.69527	1176.5
1692.95567	1151.9
1696.2139	1140.5
1699.46999	1123.6
1702.72392	1106.7
1705.97571	1093.4
1709.22535	1086.3
1712.47284	1080.6
1715.71819	1069.8
1718.96139	1067.5
1722.20246	1060.5
1725.44139	1058.3
1728.67818	1069.8
1731.91284	1061.1
1735.14537	1058.6
1738.37576	1060.1
1741.60403	1057.9
1744.83017	1070.3
1748.05418	1084.4
1751.27607	1097.1
1754.49584	1119.4
1757.71349	1125.6
1760.92903	1112.1
1764.14244	1086.9
1767.35375	1059.9
1770.56294	1024.8
1773.77002	996.2
1776.97499	982.8
1780.17785	974.1
1783.37861	964.2
1786.57727	954.7
1789.77382	951
1792.96828	936.2
1796.16064	929.1
1799.3509	919.6
1802.53907	915.9
1805.72514	901.3
1808.90913	909.4
1812.09102	901.6
1815.27083	891.1
1818.44856	891.5
1821.6242	890.7
1824.79776	884.7
1827.96924	879.1
1831.13864	878.5
1834.30597	882.1
1837.47122	877.8
1840.6344	871.8
1843.7955	874.3
1846.95454	868
1850.11151	861.1
1853.26642	869.6
1856.41926	866.6
1859.57004	868
1862.71876	862.8
1865.86542	859.3
1869.01003	857.3
1872.15258	863.8
1875.29308	856.8
1878.43152	849.7
1881.56792	852.7
1884.70227	847.1
1887.83457	845.8
1890.96482	843.8
1894.09304	843.6
1897.21921	846.2
1900.34335	841.3
1903.46544	846.2
1906.58551	836
1909.70353	845
1912.81953	835.6
1915.93349	837.6
1919.04543	839.6
1922.15534	834.4
1925.26322	833.3
1928.36908	830.7
1931.47292	829.3
1934.57473	823.7
1937.67453	823.9
1940.77232	816.4
1943.86808	818.9
1946.96184	819.3
1950.05358	814.3
1953.14331	811.1
1956.23103	797.7
1959.31675	801.3
1962.40046	801
1965.48217	790.7
1968.56188	792.5
1971.63959	783.7
1974.7153	788.5
1977.78901	787.8
1980.86073	779.3
1983.93046	780.2
1986.99819	775.6
1990.06394	778
1993.1277	774.3
1996.18947	767.6
1999.24925	765.6
2002.30706	769.1
2005.36288	766.8
2008.41672	760.1
2011.46859	760.4
2014.51848	754.1
2017.56639	753.7
2020.61233	751.3
2023.6563	750.3
2026.6983	751.2
2029.73833	749.1
2032.7764	743.3
2035.8125	738
2038.84664	744.2
2041.87881	736.7
2044.90903	738.6
2047.93729	736
2050.96359	738.2
2053.98794	743.8
2057.01034	741.6
2060.03078	734.1
2063.04927	741.5
2066.06582	739.1
2069.08042	742.2
2072.09307	743.6
2075.10378	743.1
2078.11255	744.3
2081.11938	749
2084.12426	759.7
2087.12722	760.8
2090.12824	762.2
2093.12732	767.8
2096.12447	782.7
2099.11969	778.5
2102.11299	780.6
2105.10435	788
2108.09379	789.8
2111.08131	791
2114.0669	782.1
2117.05057	774.1
2120.03233	777.5
2123.01216	764.1
2125.99008	753.1
2128.96609	754.1
2131.94018	750.5
2134.91236	741.5
2137.88263	747
2140.851	745.5
2143.81746	738.1
2146.78201	728
2149.74466	731.2
2152.7054	733.3
2155.66425	725.7
2158.6212	723
2161.57625	722.9
2164.52941	717.7
2167.48067	714.5
2170.43004	709.4
2173.37752	718.1
2176.32311	714.9
2179.26681	708.1
2182.20863	711.1
2185.14856	708.5
2188.08661	707.4
2191.02278	710.4
2193.95707	706.3
2196.88948	704.7
2199.82001	710.6
2202.74867	703.3
2205.67545	701.2
2208.60037	701.8
2211.52341	701.4
2214.44458	698.3
2217.36388	690
2220.28132	692
2223.1969	694.1
2226.11061	689.8
2229.02246	678.8
2231.93245	674
2234.84058	684
2237.74686	683.5
2240.65128	675.6
2243.55385	680.4
2246.45456	682.7
2249.35343	670.5
2252.25044	670.6
2255.14561	670.6
2258.03893	670.3
2260.93041	671.6
2263.82004	665.7
2266.70783	660.9
2269.59378	664.5
2272.4779	662.3
2275.36017	661
2278.24061	654.3
2281.11922	659.9
2283.996	650.4
2286.87094	652.9
2289.74405	649.8
2292.61534	653.7
2295.4848	650.9
2298.35243	653.5
2301.21824	646
2304.08223	652.3
2306.94439	646
2309.80474	641.9
2312.66327	643.4
2315.51999	643.2
2318.37489	638
2321.22797	638.6
2324.07925	639.7
2326.92871	638.3
2329.77637	639.9
2332.62222	635.8
2335.46626	633.1
2338.3085	629
2341.14893	629.1
2343.98756	623.2
2346.8244	627.1
2349.65943	625.3
2352.49267	627.4
2355.32411	621.9
2358.15376	625
2360.98161	623.3
2363.80768	621.7
2366.63195	621.3
2369.45444	621.3
2372.27514	621
2375.09405	625.4
2377.91118	618.1
2380.72652	614.4
2383.54009	614.8
2386.35187	620.4
2389.16188	611
2391.97011	606.2
2394.77657	609.1
2397.58125	598.4
2400.38416	605.4
2403.18529	608
2405.98466	602.2
2408.78226	604.7
2411.57809	600.9
2414.37216	602.7
2417.16446	601.1
2419.955	600.5
2422.74378	600.3
2425.5308	597.1
2428.31606	596.7
2431.09956	589.1
2433.88131	601.8
2436.6613	592.8
2439.43954	595.2
2442.21603	589.8
2444.99077	587.5
2447.76377	595.3
2450.53501	586.3
2453.30451	589.6
2456.07226	588.3
2458.83827	582.2
2461.60254	581.1
2464.36507	578.8
2467.12586	572.5
2469.88492	579.6
2472.64224	581.4
2475.39782	586.3
2478.15167	576.1
2480.90379	573.7
2483.65417	576
2486.40283	578.4
2489.14976	569.9
2491.89497	572.5
2494.63845	577.8
2497.3802	574.6
2500.12024	572.2
2502.85855	575.1
2505.59514	574
2508.33002	567.4
2511.06318	566
2513.79462	567.9
2516.52435	569.4
2519.25237	573
2521.97867	566.5
2524.70327	559.7
2527.42616	569.8
2530.14734	563.2
2532.86681	560.6
2535.58458	558.6
2538.30065	557.3
2541.01501	554.3
2543.72768	558.4
2546.43864	559.5
2549.14791	548.3
2551.85548	548.7
2554.56136	555.4
2557.26554	546.5
2559.96803	551.4
2562.66883	554.3
2565.36794	546.9
2568.06536	544.1
2570.7611	546.5
2573.45514	543.4
2576.14751	547.7
2578.83819	536.6
2581.52719	543.8
2584.21451	537.9
2586.90015	541.7
2589.58411	541
2592.2664	540.9
2594.94701	534.7
2597.62594	535.4
2600.30321	528.4
2602.9788	530.2
2605.65273	525.1
2608.32498	537.9
2610.99557	530
2613.66449	525.9
2616.33175	527.5
2618.99734	528.1
2621.66128	526.5
2624.32355	526.3
2626.98416	525.1
2629.64311	523.1
2632.30041	526.4
2634.95605	523.5
2637.61004	522.6
2640.26238	527.8
2642.91306	521.3
2645.56209	520.2
2648.20948	524
2650.85521	518.8
2653.4993	521.9
2656.14175	520.7
2658.78255	521.1
2661.42171	524.3
2664.05923	529
2666.6951	524.1
2669.32934	520.5
2671.96194	527.2
2674.59291	523.6
2677.22224	531.3
2679.84993	526.5
2682.476	526.9
2685.10043	523.1
2687.72324	522.5
2690.34441	525.9
2692.96396	527.1
2695.58188	526.5
2698.19818	526
2700.81285	535.1
2703.4259	528
2706.03733	529.3
2708.64714	525.1
2711.25533	528.9
2713.86191	525.2
2716.46687	531.1
2719.07021	530.6
2721.67194	535.1
2724.27206	530.5
2726.87057	529.1
2729.46747	530.5
2732.06276	531.9
2734.65644	528.8
2737.24852	521.5
2739.83899	524.1
2742.42786	530
2745.01513	527.7
2747.60079	522.7
2750.18486	524.8
2752.76733	524.9
2755.3482	520.9
2757.92747	525
2760.50515	519.4
2763.08123	521.4
2765.65573	517.7
2768.22863	521.8
2770.79994	520.3
2773.36967	527.1
2775.9378	521.7
2778.50435	524.9
2781.06932	518.3
2783.6327	519.4
2786.1945	521.7
2788.75471	517.3
2791.31335	519.7
2793.87041	516.7
2796.42589	521.2
2798.97979	521.8
2801.53212	530.9
2804.08288	527.5
2806.63206	529.2
2809.17967	525.7
2811.72571	527.5
2814.27018	534.1
2816.81308	530.8
2819.35442	531.8
2821.89419	533.1
2824.43239	535.1
2826.96904	534.2
2829.50412	536.4
2832.03763	532.4
2834.56959	534.3
2837.1	535.4
2839.62884	536.3
2842.15613	536.3
2844.68186	538.3
2847.20604	539.9
2849.72867	544.4
2852.24974	545.4
2854.76927	542.7
2857.28724	546.8
2859.80367	540.2
2862.31855	550.5
2864.83189	545.8
2867.34368	551.4
2869.85393	555
2872.36264	558.8
2874.8698	557.4
2877.37543	566.5
2879.87952	582.5
2882.38207	579.1
2884.88308	585.3
2887.38256	587.6
2889.88051	599.8
2892.37692	604.6
2894.8718	606.1
2897.36515	613.3
2899.85698	624.6
2902.34727	635.1
2904.83604	648.5
2907.32328	657.9
2909.809	664.2
2912.29319	681
2914.77587	694.3
2917.25702	702.5
2919.73665	708.1
2922.21476	721.3
2924.69136	730.8
2927.16644	739.7
2929.64	753.6
2932.11205	756.4
2934.58258	756.3
2937.05161	768.5
2939.51912	778
2941.98513	773
2944.44962	773.8
2946.91261	764.6
2949.37409	755.8
2951.83407	750.3
2954.29254	736.3
2956.74951	725.8
2959.20498	715.6
2961.65895	692.3
2964.11142	688.6
2966.56239	670.1
2969.01186	662.2
2971.45984	642.6
2973.90632	628.6
2976.35131	625.3
2978.7948	612.8
2981.23681	606.2
2983.67732	595.1
2986.11635	602.5
2988.55388	598.4
2990.98993	592.5
2993.4245	594.1
2995.85758	585.9
2998.28917	586.6
3000.71928	590
3003.14791	582.4
3005.57506	585.7
3008.00073	580
3010.42493	584.3
3012.84764	575.5
3015.26888	577.7
3017.68865	577.9
3020.10694	572.8
3022.52376	572.3
3024.9391	571.1
3027.35298	568.5
3029.76539	551.2
3032.17632	560.6
3034.5858	548.9
3036.9938	551.1
3039.40034	551.1
3041.80542	543.1
3044.20903	539.2
3046.61118	544.2
3049.01187	539.2
3051.4111	541.2
3053.80888	531.7
3056.20519	534.7
3058.60005	535.1
3060.99345	535.6
3063.3854	532.5
3065.7759	541.6
3068.16494	530.9
3070.55254	537.5
3072.93868	534.3
3075.32338	538.5
3077.70662	539
3080.08842	544.1
3082.46878	544.1
3084.84769	542.4
3087.22515	547.9
3089.60118	551.2
3091.97576	559.2
3094.3489	551.3
3096.72061	562
3099.09087	564.2
3101.4597	558.7
3103.82709	567.5
3106.19305	569.9
3108.55757	574.3
3110.92066	576.9
3113.28232	579.2
3115.64255	579.5
3118.00134	585.4
3120.35871	587.2
3122.71466	586.9
3125.06917	597
3127.42226	596.2
3129.77393	597.2
3132.12417	597.9
3134.47299	603.1
3136.82039	612.6
3139.16636	610.2
3141.51092	620
3143.85406	622.7
3146.19579	633.4
3148.53609	625.5
3150.87499	638.6
3153.21246	641.7
3155.54853	646.3
3157.88318	650.2
3160.21642	652.1
3162.54826	662.5
3164.87868	664.7
3167.2077	670.5
3169.5353	670.4
3171.86151	670.1
3174.18631	684.9
3176.5097	682.7
3178.83169	679.8
3181.15228	688.5
3183.47147	688.9
3185.78926	691.3
3188.10565	694.6
3190.42065	701.5
3192.73424	703.7
3195.04645	705.7
3197.35725	712.4
3199.66667	720.6
3201.97469	715.2
3204.28132	721.7
3206.58656	723.7
3208.8904	724.3
3211.19287	732.4
3213.49394	727.9
3215.79363	733.2
3218.09193	736.7
3220.38884	739.8
3222.68438	734.9
3224.97853	739.6
3227.2713	739.7
3229.56269	741.8
3231.8527	746.9
3234.14133	751.4
3236.42858	744.5
3238.71446	745.4
3240.99896	747.9
3243.28209	748.8
3245.56384	751.8
3247.84423	752.3
3250.12324	754.8
3252.40088	756.4
3254.67715	755.5
3256.95205	757.3
3259.22558	759
3261.49775	758.8
3263.76855	754
3266.03799	759.7
3268.30606	755.5
3270.57277	750.8
3272.83812	759.9
3275.10211	758.8
3277.36474	753.2
3279.62601	751.6
3281.88593	753.2
3284.14448	761.1
3286.40168	756.3
3288.65753	756.1
3290.91202	756.3
3293.16516	752.1
3295.41695	750.5
3297.66738	749
3299.91647	748.3
3302.16421	744.6
3304.4106	737.2
3306.65564	731.7
3308.89933	734.3
3311.14169	737.8
3313.38269	729.2
3315.62236	723.6
3317.86068	724.5
3320.09766	715.1
3322.3333	719
3324.5676	709.3
3326.80056	695.1
3329.03219	701
3331.26248	0.9
3333.49143	-0.7
3335.71905	0.7
