Data from AgNPs_FTO_APTES_UA_10um_CRN_0.1mM_R6G_10uM_NaF_0.1M_Addition_RamanShift__23__14-02-19-152.txt Node

Date: Tue Dec 21 14:02:19 GMT 2021
User: TCL
Spectrometer: QEP01345
Trigger mode: 4
Integration Time (sec): 7.000000E0
Scans to average: 10
Electric dark correction enabled: true
Nonlinearity correction enabled: false
Boxcar width: 0
XAxis mode: Raman Shifts
Number of Pixels in Spectrum: 1044
>>>>>Begin Spectral Data<<<<<
46.04893	-0.7125
50.45542	-1.0125
54.85868	-1.8125
59.25871	0.7875
63.6555	49.9875
68.04907	54.6875
72.43941	57.4875
76.82654	57.4875
81.21044	62.3875
85.59113	62.6875
89.96862	65.1875
94.34289	66.8875
98.71396	65.5875
103.08183	67.6875
107.4465	72.9875
111.80798	76.9875
116.16626	76.4875
120.52136	79.7875
124.87327	82.3875
129.222	86.7875
133.56755	91.9875
137.90993	103.1875
142.24913	110.7875
146.58517	121.7875
150.91804	143.4875
155.24774	166.7875
159.57429	212.4875
163.89768	271.9875
168.21792	353.1875
172.53501	479.1875
176.84895	666.5875
181.15975	946.5875
185.46741	1306.4875
189.77193	1816.9875
194.07331	2430.1875
198.37157	3145.5875
202.6667	3903.2875
206.9587	4657.5875
211.24758	5401.7875
215.53334	6160.7875
219.81599	6953.8875
224.09553	7846.1875
228.37195	8789.5875
232.64527	9824.9875
236.91549	10966.8875
241.18261	12074.8875
245.44663	13125.9875
249.70755	14019.2875
253.96539	14845.4875
258.22014	15488.4875
262.4718	16004.9875
266.72039	16380.4875
270.96589	16616.5875
275.20832	16610.5875
279.44768	16544.1875
283.68397	16444.9875
287.91719	16350.6875
292.14735	16273.5875
296.37445	16298.3875
300.59849	16378.4875
304.81948	16362.2875
309.03742	16294.4875
313.25231	16015.4875
317.46415	15615.4875
321.67296	15119.0875
325.87872	14749.7875
330.08145	14515.0875
334.28114	14514.5875
338.47781	14603.1875
342.67145	14813.6875
346.86207	15057.1875
351.04966	15338.0875
355.23424	15687.9875
359.4158	16016.7875
363.59435	16216.8875
367.76989	16387.3875
371.94243	16476.9875
376.11196	16574.1875
380.27849	16681.7875
384.44203	16821.4875
388.60257	16936.6875
392.76012	17088.5875
396.91468	17288.7875
401.06626	17539.2875
405.21485	17773.6875
409.36047	17760.4875
413.50311	17510.9875
417.64277	17276.3875
421.77947	17189.1875
425.9132	17200.1875
430.04396	17306.0875
434.17176	17464.7875
438.2966	17652.7875
442.41849	18015.8875
446.53742	18532.9875
450.6534	19203.9875
454.76644	19661.7875
458.87653	19850.1875
462.98368	19708.7875
467.08789	19451.8875
471.18916	19297.1875
475.2875	19145.3875
479.38291	19126.9875
483.4754	19055.4875
487.56496	18835.3875
491.6516	18449.6875
495.73531	18109.0875
499.81612	17921.0875
503.89401	17880.8875
507.96899	17896.6875
512.04106	17789.5875
516.11023	17639.3875
520.1765	17493.1875
524.23987	17361.8875
528.30034	17287.7875
532.35792	17242.7875
536.41261	17117.6875
540.46441	16949.6875
544.51333	16897.7875
548.55936	16960.8875
552.60252	17222.6875
556.64279	17603.5875
560.6802	17917.4875
564.71473	18143.4875
568.7464	18409.5875
572.7752	18837.2875
576.80114	19028.7875
580.82422	19133.6875
584.84444	19268.3875
588.86181	19552.3875
592.87633	19996.6875
596.888	20326.6875
600.89682	20388.5875
604.9028	20759.2875
608.90594	22344.6875
612.90624	23928.1875
616.90371	22549.9875
620.89834	18963.2875
624.89015	17328.4875
628.87913	17176.3875
632.86528	17365.3875
636.84862	17450.5875
640.82913	17251.0875
644.80683	16796.8875
648.78172	16360.5875
652.75379	16183.2875
656.72306	16272.2875
660.68952	16541.4875
664.65319	16530.8875
668.61405	16416.0875
672.57211	16454.5875
676.52738	16591.0875
680.47986	16605.4875
684.42955	16523.3875
688.37646	16376.1875
692.32058	16283.6875
696.26192	16373.1875
700.20048	16460.9875
704.13626	16565.3875
708.06928	16515.7875
711.99952	16402.4875
715.927	16301.1875
719.85171	16306.0875
723.77365	16259.3875
727.69284	16190.7875
731.60928	16106.1875
735.52295	16128.7875
739.43388	16146.3875
743.34206	16197.4875
747.24749	16209.7875
751.15017	16312.7875
755.05012	16514.3875
758.94733	16926.4875
762.8418	17742.2875
766.73354	19103.0875
770.62254	20517.0875
774.50882	20979.7875
778.39237	20182.7875
782.27321	18570.0875
786.15132	17209.0875
790.02671	16320.2875
793.89938	15892.0875
797.76935	15708.6875
801.6366	15689.6875
805.50115	15696.4875
809.36299	15619.3875
813.22213	15533.6875
817.07857	15498.6875
820.93231	15449.2875
824.78336	15324.8875
828.63172	15283.7875
832.47738	15245.3875
836.32036	15214.0875
840.16066	15224.4875
843.99827	15214.0875
847.8332	15166.8875
851.66546	15145.1875
855.49504	15110.4875
859.32195	15170.6875
863.1462	15162.1875
866.96777	15189.1875
870.78668	15117.8875
874.60293	15139.8875
878.41652	15092.2875
882.22745	15170.9875
886.03573	15172.8875
889.84136	15193.7875
893.64433	15128.1875
897.44466	15003.3875
901.24235	14907.4875
905.0374	14802.5875
908.8298	14703.9875
912.61957	14738.2875
916.40671	14819.0875
920.19121	15002.8875
923.97308	15162.2875
927.75233	15210.4875
931.52895	15163.3875
935.30295	15008.8875
939.07433	14748.6875
942.84309	14516.3875
946.60924	14429.3875
950.37278	14319.4875
954.13371	14297.4875
957.89203	14228.5875
961.64774	14190.9875
965.40086	14136.5875
969.15137	14012.9875
972.89929	13938.4875
976.64461	13869.8875
980.38733	13833.4875
984.12747	13858.2875
987.86502	13979.8875
991.59999	14101.2875
995.33237	14340.2875
999.06217	14734.0875
1002.78939	15201.7875
1006.51404	15601.6875
1010.23611	15829.5875
1013.95561	16024.2875
1017.67255	16021.7875
1021.38692	15805.8875
1025.09872	15550.1875
1028.80796	15484.7875
1032.51465	15666.3875
1036.21877	15942.7875
1039.92035	16024.0875
1043.61937	15948.8875
1047.31584	15735.6875
1051.00976	15479.4875
1054.70114	15342.3875
1058.38998	15282.8875
1062.07627	15390.4875
1065.76003	15447.0875
1069.44126	15594.0875
1073.11995	15744.6875
1076.79611	15839.0875
1080.46974	15834.4875
1084.14085	15947.5875
1087.80943	16080.7875
1091.47549	16235.2875
1095.13903	16317.1875
1098.80005	16153.8875
1102.45857	15853.2875
1106.11456	15595.9875
1109.76805	15491.1875
1113.41903	15537.6875
1117.06751	15675.9875
1120.71348	15878.0875
1124.35696	16121.2875
1127.99793	16396.9875
1131.63641	16607.6875
1135.2724	16555.5875
1138.90589	16416.2875
1142.5369	16297.6875
1146.16542	16210.4875
1149.79145	16217.3875
1153.415	16296.4875
1157.03607	16468.2875
1160.65467	16849.8875
1164.27079	17458.8875
1167.88443	18361.3875
1171.49561	19485.4875
1175.10432	20958.1875
1178.71056	22794.7875
1182.31434	24511.4875
1185.91565	25452.7875
1189.51451	25402.7875
1193.11091	24857.0875
1196.70485	23849.6875
1200.29634	22822.5875
1203.88538	21975.3875
1207.47197	21263.6875
1211.05612	20717.5875
1214.63782	20287.0875
1218.21708	20003.5875
1221.79391	19855.0875
1225.36829	19694.3875
1228.94024	19451.5875
1232.50976	19067.1875
1236.07685	18716.1875
1239.6415	18571.7875
1243.20374	18544.8875
1246.76355	18680.1875
1250.32093	18904.6875
1253.8759	19320.0875
1257.42845	19895.7875
1260.97859	20407.5875
1264.52631	20898.0875
1268.07163	21420.8875
1271.61453	22005.7875
1275.15503	22643.4875
1278.69312	23328.0875
1282.22882	23936.2875
1285.76211	24603.5875
1289.29301	25456.9875
1292.82151	26485.9875
1296.34761	27730.7875
1299.87133	29307.4875
1303.39266	30978.0875
1306.9116	32765.7875
1310.42815	34548.7875
1313.94233	35798.8875
1317.45412	36043.0875
1320.96354	35599.3875
1324.47058	34928.6875
1327.97525	34244.7875
1331.47754	33724.5875
1334.97747	33519.8875
1338.47502	33548.3875
1341.97022	33465.3875
1345.46305	33069.1875
1348.95352	32538.2875
1352.44163	32233.8875
1355.92738	32494.0875
1359.41078	33472.7875
1362.89183	34387.7875
1366.37053	33898.1875
1369.84688	31404.7875
1373.32088	28254.6875
1376.79254	25998.4875
1380.26186	24917.6875
1383.72883	24757.5875
1387.19347	24745.3875
1390.65578	24709.1875
1394.11575	24893.4875
1397.57339	25455.5875
1401.0287	26228.5875
1404.48168	26986.8875
1407.93234	27391.8875
1411.38068	27197.0875
1414.82669	26408.1875
1418.27039	25201.3875
1421.71177	23866.5875
1425.15083	22721.8875
1428.58758	22034.2875
1432.02203	21869.4875
1435.45416	22166.8875
1438.88399	22671.6875
1442.31151	23177.8875
1445.73673	23715.3875
1449.15965	24199.3875
1452.58027	24644.7875
1455.9986	24925.8875
1459.41463	25195.7875
1462.82837	25633.7875
1466.23982	26169.2875
1469.64898	26605.5875
1473.05586	26820.0875
1476.46045	26740.7875
1479.86276	26560.0875
1483.26279	26203.2875
1486.66054	25963.4875
1490.05602	25839.8875
1493.44922	25827.1875
1496.84016	25747.3875
1500.22882	25799.4875
1503.61521	26121.6875
1506.99934	26785.1875
1510.38121	27427.3875
1513.76081	27625.1875
1517.13816	27129.9875
1520.51324	26065.5875
1523.88607	25088.8875
1527.25665	24538.7875
1530.62498	24303.1875
1533.99105	24262.8875
1537.35488	24226.4875
1540.71647	24098.8875
1544.07581	23722.1875
1547.4329	23291.3875
1550.78776	22832.2875
1554.14038	22575.8875
1557.49077	22461.7875
1560.83892	22492.8875
1564.18484	22551.9875
1567.52853	22580.5875
1570.86999	22655.1875
1574.20922	22828.7875
1577.54624	23044.3875
1580.88103	23069.3875
1584.2136	23203.1875
1587.54395	23763.1875
1590.87208	24883.7875
1594.19801	26432.7875
1597.52172	28124.4875
1600.84321	28874.3875
1604.16251	27986.5875
1607.47959	25935.3875
1610.79447	23513.3875
1614.10715	21251.2875
1617.41763	19457.1875
1620.7259	18226.7875
1624.03199	17632.7875
1627.33587	17500.9875
1630.63757	17917.8875
1633.93707	18960.2875
1637.23439	20660.6875
1640.52951	23053.8875
1643.82246	25905.7875
1647.11321	28330.3875
1650.40179	29086.6875
1653.68819	27539.9875
1656.97241	24352.7875
1660.25446	20885.9875
1663.53433	18194.1875
1666.81203	16366.4875
1670.08756	15240.7875
1673.36092	14504.4875
1676.63211	14025.6875
1679.90115	13655.6875
1683.16801	13402.2875
1686.43272	13199.3875
1689.69527	13070.7875
1692.95567	12966.7875
1696.2139	12877.1875
1699.46999	12837.6875
1702.72392	12785.5875
1705.97571	12703.5875
1709.22535	12647.1875
1712.47284	12621.8875
1715.71819	12570.0875
1718.96139	12496.3875
1722.20246	12463.0875
1725.44139	12392.9875
1728.67818	12354.6875
1731.91284	12282.8875
1735.14537	12241.9875
1738.37576	12170.7875
1741.60403	12134.1875
1744.83017	12113.1875
1748.05418	12083.3875
1751.27607	12087.6875
1754.49584	12073.1875
1757.71349	12074.4875
1760.92903	12069.2875
1764.14244	11982.3875
1767.35375	11996.0875
1770.56294	11963.4875
1773.77002	11872.0875
1776.97499	11865.7875
1780.17785	11801.1875
1783.37861	11778.3875
1786.57727	11763.1875
1789.77382	11686.7875
1792.96828	11684.6875
1796.16064	11665.8875
1799.3509	11614.2875
1802.53907	11597.6875
1805.72514	11575.9875
1808.90913	11524.6875
1812.09102	11511.5875
1815.27083	11510.8875
1818.44856	11471.0875
1821.6242	11462.3875
1824.79776	11438.1875
1827.96924	11430.9875
1831.13864	11409.2875
1834.30597	11373.5875
1837.47122	11384.6875
1840.6344	11363.7875
1843.7955	11384.6875
1846.95454	11372.5875
1850.11151	11373.0875
1853.26642	11368.0875
1856.41926	11354.0875
1859.57004	11348.4875
1862.71876	11373.6875
1865.86542	11356.1875
1869.01003	11338.2875
1872.15258	11336.6875
1875.29308	11352.4875
1878.43152	11335.7875
1881.56792	11332.8875
1884.70227	11301.5875
1887.83457	11307.7875
1890.96482	11277.5875
1894.09304	11285.4875
1897.21921	11269.1875
1900.34335	11286.2875
1903.46544	11283.1875
1906.58551	11258.5875
1909.70353	11231.7875
1912.81953	11225.8875
1915.93349	11194.4875
1919.04543	11167.5875
1922.15534	11157.5875
1925.26322	11103.4875
1928.36908	11079.4875
1931.47292	11090.9875
1934.57473	11012.8875
1937.67453	10995.0875
1940.77232	10965.2875
1943.86808	10925.0875
1946.96184	10910.0875
1950.05358	10870.5875
1953.14331	10799.4875
1956.23103	10785.7875
1959.31675	10745.8875
1962.40046	10719.7875
1965.48217	10692.9875
1968.56188	10659.7875
1971.63959	10586.9875
1974.7153	10580.4875
1977.78901	10518.5875
1980.86073	10482.8875
1983.93046	10495.3875
1986.99819	10448.5875
1990.06394	10413.9875
1993.1277	10362.3875
1996.18947	10332.9875
1999.24925	10332.0875
2002.30706	10291.9875
2005.36288	10247.4875
2008.41672	10231.5875
2011.46859	10187.9875
2014.51848	10147.8875
2017.56639	10125.1875
2020.61233	10094.2875
2023.6563	10088.4875
2026.6983	10069.0875
2029.73833	10066.9875
2032.7764	10041.1875
2035.8125	9991.4875
2038.84664	9976.3875
2041.87881	9972.6875
2044.90903	9958.1875
2047.93729	9933.5875
2050.96359	9917.8875
2053.98794	9930.5875
2057.01034	9894.5875
2060.03078	9905.8875
2063.04927	9867.8875
2066.06582	9877.1875
2069.08042	9839.5875
2072.09307	9826.7875
2075.10378	9829.8875
2078.11255	9836.3875
2081.11938	9828.3875
2084.12426	9809.3875
2087.12722	9802.5875
2090.12824	9775.0875
2093.12732	9787.0875
2096.12447	9784.4875
2099.11969	9768.1875
2102.11299	9764.1875
2105.10435	9787.4875
2108.09379	9762.6875
2111.08131	9768.5875
2114.0669	9781.5875
2117.05057	9766.7875
2120.03233	9781.1875
2123.01216	9784.9875
2125.99008	9799.0875
2128.96609	9796.2875
2131.94018	9795.4875
2134.91236	9799.0875
2137.88263	9800.3875
2140.851	9806.0875
2143.81746	9783.2875
2146.78201	9803.3875
2149.74466	9798.2875
2152.7054	9782.0875
2155.66425	9775.6875
2158.6212	9775.3875
2161.57625	9797.2875
2164.52941	9767.0875
2167.48067	9751.3875
2170.43004	9758.2875
2173.37752	9728.1875
2176.32311	9748.3875
2179.26681	9724.7875
2182.20863	9699.7875
2185.14856	9726.5875
2188.08661	9724.0875
2191.02278	9704.1875
2193.95707	9718.2875
2196.88948	9728.6875
2199.82001	9717.9875
2202.74867	9724.0875
2205.67545	9680.8875
2208.60037	9680.2875
2211.52341	9670.4875
2214.44458	9674.0875
2217.36388	9630.8875
2220.28132	9641.3875
2223.1969	9617.8875
2226.11061	9591.4875
2229.02246	9566.3875
2231.93245	9585.3875
2234.84058	9549.3875
2237.74686	9532.8875
2240.65128	9508.3875
2243.55385	9493.4875
2246.45456	9475.5875
2249.35343	9449.7875
2252.25044	9447.7875
2255.14561	9440.5875
2258.03893	9425.6875
2260.93041	9422.9875
2263.82004	9353.8875
2266.70783	9349.0875
2269.59378	9313.3875
2272.4779	9292.7875
2275.36017	9261.9875
2278.24061	9261.3875
2281.11922	9207.5875
2283.996	9219.7875
2286.87094	9197.3875
2289.74405	9180.1875
2292.61534	9173.6875
2295.4848	9157.4875
2298.35243	9158.7875
2301.21824	9137.5875
2304.08223	9136.0875
2306.94439	9131.2875
2309.80474	9132.3875
2312.66327	9131.1875
2315.51999	9118.0875
2318.37489	9099.6875
2321.22797	9087.4875
2324.07925	9091.9875
2326.92871	9070.4875
2329.77637	9112.4875
2332.62222	9077.2875
2335.46626	9069.5875
2338.3085	9074.2875
2341.14893	9091.3875
2343.98756	9077.0875
2346.8244	9068.2875
2349.65943	9057.1875
2352.49267	9058.0875
2355.32411	9044.1875
2358.15376	9038.9875
2360.98161	9035.0875
2363.80768	9032.8875
2366.63195	8993.5875
2369.45444	8994.6875
2372.27514	8983.9875
2375.09405	8967.1875
2377.91118	8926.5875
2380.72652	8920.2875
2383.54009	8890.0875
2386.35187	8880.7875
2389.16188	8831.5875
2391.97011	8823.2875
2394.77657	8821.5875
2397.58125	8819.1875
2400.38416	8817.5875
2403.18529	8784.2875
2405.98466	8776.2875
2408.78226	8776.4875
2411.57809	8745.7875
2414.37216	8711.3875
2417.16446	8714.0875
2419.955	8688.4875
2422.74378	8682.2875
2425.5308	8659.5875
2428.31606	8650.3875
2431.09956	8660.0875
2433.88131	8655.0875
2436.6613	8646.2875
2439.43954	8618.5875
2442.21603	8633.0875
2444.99077	8634.8875
2447.76377	8622.9875
2450.53501	8615.2875
2453.30451	8609.2875
2456.07226	8595.8875
2458.83827	8618.9875
2461.60254	8604.6875
2464.36507	8590.6875
2467.12586	8613.2875
2469.88492	8592.9875
2472.64224	8589.2875
2475.39782	8583.7875
2478.15167	8621.1875
2480.90379	8603.6875
2483.65417	8603.8875
2486.40283	8614.0875
2489.14976	8603.0875
2491.89497	8605.7875
2494.63845	8625.9875
2497.3802	8632.9875
2500.12024	8602.5875
2502.85855	8577.4875
2505.59514	8592.8875
2508.33002	8579.5875
2511.06318	8589.3875
2513.79462	8560.7875
2516.52435	8551.8875
2519.25237	8535.2875
2521.97867	8531.4875
2524.70327	8536.5875
2527.42616	8504.1875
2530.14734	8509.0875
2532.86681	8475.3875
2535.58458	8489.1875
2538.30065	8457.6875
2541.01501	8456.5875
2543.72768	8461.0875
2546.43864	8451.1875
2549.14791	8455.1875
2551.85548	8445.6875
2554.56136	8426.0875
2557.26554	8428.9875
2559.96803	8390.3875
2562.66883	8399.8875
2565.36794	8399.9875
2568.06536	8397.5875
2570.7611	8333.2875
2573.45514	8359.7875
2576.14751	8369.0875
2578.83819	8366.2875
2581.52719	8381.7875
2584.21451	8374.9875
2586.90015	8335.9875
2589.58411	8336.3875
2592.2664	8346.1875
2594.94701	8326.9875
2597.62594	8332.7875
2600.30321	8294.2875
2602.9788	8312.2875
2605.65273	8289.0875
2608.32498	8300.2875
2610.99557	8296.3875
2613.66449	8306.3875
2616.33175	8296.6875
2618.99734	8304.5875
2621.66128	8286.0875
2624.32355	8303.5875
2626.98416	8292.7875
2629.64311	8276.6875
2632.30041	8284.6875
2634.95605	8304.9875
2637.61004	8282.1875
2640.26238	8258.0875
2642.91306	8265.8875
2645.56209	8267.8875
2648.20948	8273.6875
2650.85521	8259.5875
2653.4993	8234.0875
2656.14175	8229.1875
2658.78255	8224.7875
2661.42171	8262.6875
2664.05923	8238.1875
2666.6951	8251.7875
2669.32934	8262.1875
2671.96194	8278.6875
2674.59291	8260.2875
2677.22224	8263.3875
2679.84993	8250.7875
2682.476	8255.1875
2685.10043	8247.2875
2687.72324	8219.5875
2690.34441	8214.1875
2692.96396	8214.9875
2695.58188	8216.3875
2698.19818	8234.5875
2700.81285	8213.7875
2703.4259	8233.7875
2706.03733	8300.5875
2708.64714	8266.2875
2711.25533	8266.4875
2713.86191	8236.0875
2716.46687	8237.2875
2719.07021	8236.6875
2721.67194	8244.3875
2724.27206	8232.6875
2726.87057	8247.8875
2729.46747	8248.3875
2732.06276	8256.8875
2734.65644	8250.7875
2737.24852	8249.9875
2739.83899	8217.5875
2742.42786	8228.5875
2745.01513	8233.7875
2747.60079	8235.3875
2750.18486	8223.9875
2752.76733	8226.4875
2755.3482	8211.4875
2757.92747	8238.5875
2760.50515	8223.4875
2763.08123	8209.8875
2765.65573	8195.8875
2768.22863	8225.6875
2770.79994	8195.8875
2773.36967	8208.3875
2775.9378	8197.3875
2778.50435	8223.3875
2781.06932	8205.6875
2783.6327	8195.5875
2786.1945	8188.5875
2788.75471	8207.6875
2791.31335	8163.0875
2793.87041	8172.5875
2796.42589	8144.1875
2798.97979	8130.8875
2801.53212	8138.6875
2804.08288	8119.2875
2806.63206	8106.5875
2809.17967	8097.3875
2811.72571	8077.6875
2814.27018	8062.1875
2816.81308	8053.3875
2819.35442	8060.5875
2821.89419	8060.9875
2824.43239	8038.1875
2826.96904	8043.5875
2829.50412	8036.5875
2832.03763	8024.5875
2834.56959	8021.2875
2837.1	8014.4875
2839.62884	7995.1875
2842.15613	8006.8875
2844.68186	8013.8875
2847.20604	7997.5875
2849.72867	7990.5875
2852.24974	7995.6875
2854.76927	8009.3875
2857.28724	7994.0875
2859.80367	7977.1875
2862.31855	7954.5875
2864.83189	7950.4875
2867.34368	7938.3875
2869.85393	7940.4875
2872.36264	7942.4875
2874.8698	7905.0875
2877.37543	7943.9875
2879.87952	7937.1875
2882.38207	7944.3875
2884.88308	7952.3875
2887.38256	7971.7875
2889.88051	7952.7875
2892.37692	7971.9875
2894.8718	7964.5875
2897.36515	7969.3875
2899.85698	7987.4875
2902.34727	7998.2875
2904.83604	7974.8875
2907.32328	8020.4875
2909.809	8008.6875
2912.29319	8025.8875
2914.77587	8042.5875
2917.25702	8029.4875
2919.73665	8010.7875
2922.21476	8040.9875
2924.69136	8038.6875
2927.16644	8024.7875
2929.64	8025.1875
2932.11205	8012.6875
2934.58258	7971.0875
2937.05161	8024.6875
2939.51912	8012.3875
2941.98513	7999.8875
2944.44962	7971.2875
2946.91261	7933.3875
2949.37409	7961.9875
2951.83407	7924.0875
2954.29254	7920.7875
2956.74951	7896.6875
2959.20498	7875.0875
2961.65895	7855.3875
2964.11142	7841.6875
2966.56239	7804.0875
2969.01186	7809.1875
2971.45984	7763.4875
2973.90632	7755.2875
2976.35131	7704.8875
2978.7948	7712.3875
2981.23681	7688.9875
2983.67732	7666.0875
2986.11635	7639.8875
2988.55388	7629.4875
2990.98993	7619.9875
2993.4245	7588.9875
2995.85758	7570.8875
2998.28917	7575.0875
3000.71928	7538.7875
3003.14791	7542.5875
3005.57506	7540.8875
3008.00073	7485.9875
3010.42493	7493.6875
3012.84764	7496.3875
3015.26888	7480.7875
3017.68865	7464.9875
3020.10694	7430.6875
3022.52376	7432.2875
3024.9391	7399.5875
3027.35298	7377.8875
3029.76539	7381.0875
3032.17632	7374.2875
3034.5858	7345.9875
3036.9938	7346.1875
3039.40034	7340.1875
3041.80542	7326.4875
3044.20903	7315.6875
3046.61118	7322.6875
3049.01187	7288.3875
3051.4111	7295.7875
3053.80888	7266.8875
3056.20519	7247.0875
3058.60005	7229.6875
3060.99345	7214.2875
3063.3854	7202.1875
3065.7759	7169.2875
3068.16494	7147.5875
3070.55254	7125.4875
3072.93868	7106.6875
3075.32338	7102.5875
3077.70662	7072.9875
3080.08842	7055.8875
3082.46878	7066.2875
3084.84769	7045.2875
3087.22515	7022.4875
3089.60118	7026.8875
3091.97576	7027.4875
3094.3489	7024.1875
3096.72061	7045.7875
3099.09087	7018.6875
3101.4597	7014.9875
3103.82709	7022.4875
3106.19305	7002.9875
3108.55757	6998.4875
3110.92066	6967.9875
3113.28232	6928.3875
3115.64255	6909.1875
3118.00134	6913.8875
3120.35871	6911.2875
3122.71466	6888.6875
3125.06917	6873.4875
3127.42226	6862.8875
3129.77393	6886.2875
3132.12417	6863.3875
3134.47299	6872.7875
3136.82039	6842.4875
3139.16636	6848.6875
3141.51092	6865.5875
3143.85406	6840.1875
3146.19579	6867.0875
3148.53609	6849.1875
3150.87499	6850.6875
3153.21246	6837.3875
3155.54853	6850.4875
3157.88318	6848.2875
3160.21642	6851.6875
3162.54826	6848.0875
3164.87868	6830.2875
3167.2077	6825.1875
3169.5353	6848.3875
3171.86151	6825.6875
3174.18631	6817.2875
3176.5097	6814.5875
3178.83169	6792.8875
3181.15228	6803.6875
3183.47147	6794.3875
3185.78926	6783.1875
3188.10565	6795.5875
3190.42065	6789.4875
3192.73424	6801.3875
3195.04645	6790.2875
3197.35725	6806.0875
3199.66667	6806.7875
3201.97469	6802.9875
3204.28132	6780.2875
3206.58656	6797.0875
3208.8904	6792.1875
3211.19287	6798.1875
3213.49394	6791.7875
3215.79363	6774.6875
3218.09193	6781.7875
3220.38884	6800.1875
3222.68438	6803.1875
3224.97853	6788.2875
3227.2713	6765.0875
3229.56269	6772.5875
3231.8527	6782.2875
3234.14133	6745.8875
3236.42858	6736.8875
3238.71446	6745.6875
3240.99896	6722.5875
3243.28209	6712.6875
3245.56384	6697.6875
3247.84423	6716.7875
3250.12324	6699.4875
3252.40088	6708.2875
3254.67715	6685.7875
3256.95205	6675.7875
3259.22558	6650.5875
3261.49775	6638.0875
3263.76855	6623.5875
3266.03799	6618.8875
3268.30606	6601.9875
3270.57277	6598.0875
3272.83812	6582.9875
3275.10211	6581.4875
3277.36474	6556.6875
3279.62601	6571.7875
3281.88593	6567.3875
3284.14448	6564.9875
3286.40168	6555.7875
3288.65753	6557.3875
3290.91202	6548.8875
3293.16516	6506.5875
3295.41695	6496.7875
3297.66738	6476.8875
3299.91647	6434.5875
3302.16421	6410.2875
3304.4106	6372.7875
3306.65564	6329.0875
3308.89933	6291.5875
3311.14169	6263.5875
3313.38269	6233.3875
3315.62236	6210.6875
3317.86068	6140.3875
3320.09766	6071.1875
3322.3333	6034.1875
3324.5676	6035.8875
3326.80056	5925.7875
3329.03219	5906.0875
3331.26248	2.6875
3333.49143	-0.1125
3335.71905	0.3875
