Data from AgNPs_FTO_APTES_UA_1um_CRN_0.1mM_R6G_10uM_NaF_0.1M_Addition_RamanShift__22__11-59-49-012.txt Node

Date: Tue Dec 21 11:59:49 GMT 2021
User: TCL
Spectrometer: QEP01345
Trigger mode: 4
Integration Time (sec): 7.000000E0
Scans to average: 10
Electric dark correction enabled: true
Nonlinearity correction enabled: false
Boxcar width: 0
XAxis mode: Raman Shifts
Number of Pixels in Spectrum: 1044
>>>>>Begin Spectral Data<<<<<
46.04893	0.4625
50.45542	-1.5375
54.85868	-1.6375
59.25871	0.1625
63.6555	44.1625
68.04907	50.2625
72.43941	51.2625
76.82654	54.0625
81.21044	61.9625
85.59113	60.0625
89.96862	60.9625
94.34289	60.3625
98.71396	64.2625
103.08183	67.1625
107.4465	67.8625
111.80798	71.0625
116.16626	71.0625
120.52136	74.7625
124.87327	76.4625
129.222	77.1625
133.56755	80.1625
137.90993	92.5625
142.24913	96.7625
146.58517	106.2625
150.91804	127.1625
155.24774	147.9625
159.57429	183.6625
163.89768	231.0625
168.21792	303.9625
172.53501	404.8625
176.84895	561.1625
181.15975	795.5625
185.46741	1098.8625
189.77193	1509.0625
194.07331	2025.3625
198.37157	2595.9625
202.6667	3228.5625
206.9587	3850.5625
211.24758	4458.2625
215.53334	5072.4625
219.81599	5738.6625
224.09553	6461.8625
228.37195	7280.6625
232.64527	8142.4625
236.91549	9039.7625
241.18261	9943.7625
245.44663	10743.4625
249.70755	11509.0625
253.96539	12091.1625
258.22014	12615.6625
262.4718	13034.4625
266.72039	13283.3625
270.96589	13369.3625
275.20832	13346.6625
279.44768	13206.3625
283.68397	13104.4625
287.91719	12982.4625
292.14735	12924.2625
296.37445	12912.8625
300.59849	12892.1625
304.81948	12915.5625
309.03742	12891.1625
313.25231	12759.2625
317.46415	12493.2625
321.67296	12141.0625
325.87872	11836.5625
330.08145	11693.3625
334.28114	11682.2625
338.47781	11761.8625
342.67145	11893.4625
346.86207	12114.0625
351.04966	12332.3625
355.23424	12585.6625
359.4158	12832.1625
363.59435	12991.3625
367.76989	13072.3625
371.94243	13127.3625
376.11196	13175.0625
380.27849	13231.5625
384.44203	13362.1625
388.60257	13416.8625
392.76012	13552.2625
396.91468	13736.3625
401.06626	13996.4625
405.21485	14189.2625
409.36047	14136.9625
413.50311	13950.1625
417.64277	13771.1625
421.77947	13763.7625
425.9132	13879.9625
430.04396	14029.9625
434.17176	14181.0625
438.2966	14400.9625
442.41849	14793.8625
446.53742	15476.7625
450.6534	16168.1625
454.76644	16594.7625
458.87653	16568.8625
462.98368	16193.2625
467.08789	15770.0625
471.18916	15393.5625
475.2875	15143.5625
479.38291	15022.0625
483.4754	14938.7625
487.56496	14754.4625
491.6516	14495.4625
495.73531	14219.6625
499.81612	14094.2625
503.89401	14136.3625
507.96899	14153.1625
512.04106	13995.4625
516.11023	13783.3625
520.1765	13612.8625
524.23987	13493.5625
528.30034	13467.7625
532.35792	13428.5625
536.41261	13261.2625
540.46441	13013.1625
544.51333	12868.4625
548.55936	12892.7625
552.60252	13158.7625
556.64279	13631.6625
560.6802	14017.1625
564.71473	14261.5625
568.7464	14620.6625
572.7752	15097.9625
576.80114	15420.0625
580.82422	15680.3625
584.84444	15991.3625
588.86181	16635.6625
592.87633	17648.9625
596.888	18317.3625
600.89682	18135.2625
604.9028	17897.8625
608.90594	18606.2625
612.90624	19567.8625
616.90371	18032.7625
620.89834	14771.1625
624.89015	13286.8625
628.87913	13177.9625
632.86528	13355.4625
636.84862	13431.0625
640.82913	13227.0625
644.80683	12804.1625
648.78172	12445.3625
652.75379	12323.3625
656.72306	12378.9625
660.68952	12580.7625
664.65319	12558.0625
668.61405	12412.4625
672.57211	12412.8625
676.52738	12529.4625
680.47986	12538.5625
684.42955	12408.9625
688.37646	12205.1625
692.32058	12170.5625
696.26192	12223.0625
700.20048	12360.4625
704.13626	12500.0625
708.06928	12480.1625
711.99952	12362.7625
715.927	12232.1625
719.85171	12244.9625
723.77365	12237.0625
727.69284	12136.6625
731.60928	12083.5625
735.52295	12071.0625
739.43388	12100.7625
743.34206	12159.5625
747.24749	12208.3625
751.15017	12352.1625
755.05012	12531.5625
758.94733	12950.4625
762.8418	13739.1625
766.73354	14974.8625
770.62254	16192.7625
774.50882	16480.0625
778.39237	15622.7625
782.27321	14245.9625
786.15132	13053.7625
790.02671	12301.5625
793.89938	11887.9625
797.76935	11764.6625
801.6366	11735.6625
805.50115	11734.6625
809.36299	11680.1625
813.22213	11534.9625
817.07857	11438.3625
820.93231	11393.9625
824.78336	11319.6625
828.63172	11292.8625
832.47738	11261.6625
836.32036	11290.5625
840.16066	11278.4625
843.99827	11254.9625
847.8332	11218.6625
851.66546	11157.8625
855.49504	11145.0625
859.32195	11223.0625
863.1462	11200.5625
866.96777	11196.0625
870.78668	11150.3625
874.60293	11134.3625
878.41652	11126.0625
882.22745	11177.6625
886.03573	11175.9625
889.84136	11177.0625
893.64433	11107.8625
897.44466	11071.7625
901.24235	10991.5625
905.0374	10877.0625
908.8298	10817.5625
912.61957	10787.6625
916.40671	10873.0625
920.19121	11039.6625
923.97308	11250.4625
927.75233	11383.7625
931.52895	11330.3625
935.30295	11150.3625
939.07433	10867.5625
942.84309	10639.1625
946.60924	10506.7625
950.37278	10429.1625
954.13371	10393.1625
957.89203	10382.1625
961.64774	10342.0625
965.40086	10320.9625
969.15137	10243.4625
972.89929	10167.7625
976.64461	10120.8625
980.38733	10086.6625
984.12747	10085.6625
987.86502	10169.5625
991.59999	10285.3625
995.33237	10518.8625
999.06217	10923.4625
1002.78939	11437.4625
1006.51404	11878.8625
1010.23611	12149.9625
1013.95561	12320.6625
1017.67255	12283.7625
1021.38692	12009.2625
1025.09872	11583.1625
1028.80796	11411.7625
1032.51465	11444.6625
1036.21877	11627.5625
1039.92035	11689.8625
1043.61937	11677.3625
1047.31584	11522.0625
1051.00976	11361.9625
1054.70114	11261.0625
1058.38998	11225.8625
1062.07627	11259.4625
1065.76003	11340.3625
1069.44126	11450.3625
1073.11995	11627.2625
1076.79611	11796.9625
1080.46974	11862.3625
1084.14085	11925.2625
1087.80943	12125.6625
1091.47549	12268.0625
1095.13903	12338.8625
1098.80005	12112.3625
1102.45857	11752.2625
1106.11456	11477.1625
1109.76805	11372.7625
1113.41903	11479.5625
1117.06751	11594.1625
1120.71348	11791.9625
1124.35696	11984.5625
1127.99793	12223.7625
1131.63641	12381.7625
1135.2724	12334.7625
1138.90589	12228.1625
1142.5369	12161.9625
1146.16542	12157.6625
1149.79145	12231.4625
1153.415	12333.9625
1157.03607	12522.0625
1160.65467	12887.7625
1164.27079	13580.8625
1167.88443	14581.4625
1171.49561	15873.8625
1175.10432	17582.2625
1178.71056	19736.9625
1182.31434	21641.5625
1185.91565	22498.0625
1189.51451	22145.1625
1193.11091	21180.7625
1196.70485	20002.6625
1200.29634	18761.0625
1203.88538	17674.1625
1207.47197	16881.2625
1211.05612	16327.3625
1214.63782	15978.1625
1218.21708	15919.2625
1221.79391	16031.3625
1225.36829	16195.2625
1228.94024	16032.5625
1232.50976	15503.8625
1236.07685	14985.3625
1239.6415	14609.2625
1243.20374	14453.6625
1246.76355	14452.5625
1250.32093	14630.4625
1253.8759	14960.9625
1257.42845	15479.9625
1260.97859	16036.2625
1264.52631	16578.2625
1268.07163	17121.8625
1271.61453	17689.7625
1275.15503	18323.2625
1278.69312	19000.1625
1282.22882	19655.5625
1285.76211	20415.9625
1289.29301	21317.1625
1292.82151	22371.4625
1296.34761	23649.7625
1299.87133	25307.8625
1303.39266	27187.2625
1306.9116	29273.5625
1310.42815	31535.8625
1313.94233	33247.8625
1317.45412	33747.5625
1320.96354	33153.5625
1324.47058	32106.0625
1327.97525	30975.6625
1331.47754	30003.9625
1334.97747	29447.4625
1338.47502	29128.2625
1341.97022	28762.6625
1345.46305	28101.6625
1348.95352	27448.8625
1352.44163	27302.9625
1355.92738	28058.2625
1359.41078	29482.9625
1362.89183	30895.6625
1366.37053	30901.5625
1369.84688	28770.1625
1373.32088	25396.0625
1376.79254	22668.0625
1380.26186	21344.3625
1383.72883	20969.9625
1387.19347	20795.6625
1390.65578	20672.2625
1394.11575	20913.4625
1397.57339	21691.0625
1401.0287	22857.7625
1404.48168	23922.7625
1407.93234	24442.3625
1411.38068	24344.6625
1414.82669	23617.0625
1418.27039	22333.0625
1421.71177	20847.3625
1425.15083	19548.0625
1428.58758	18780.0625
1432.02203	18691.0625
1435.45416	19083.9625
1438.88399	19661.6625
1442.31151	20216.6625
1445.73673	20709.2625
1449.15965	21243.2625
1452.58027	21486.6625
1455.9986	21488.2625
1459.41463	21566.7625
1462.82837	22028.2625
1466.23982	22757.8625
1469.64898	23494.4625
1473.05586	23855.6625
1476.46045	23882.7625
1479.86276	23728.5625
1483.26279	23473.8625
1486.66054	23147.9625
1490.05602	23058.6625
1493.44922	23001.3625
1496.84016	22600.6625
1500.22882	22264.4625
1503.61521	22233.4625
1506.99934	22564.8625
1510.38121	23023.3625
1513.76081	23003.0625
1517.13816	22366.8625
1520.51324	21375.0625
1523.88607	20459.8625
1527.25665	20013.7625
1530.62498	19955.9625
1533.99105	20007.9625
1537.35488	20033.2625
1540.71647	19947.6625
1544.07581	19668.6625
1547.4329	19228.5625
1550.78776	18736.1625
1554.14038	18310.8625
1557.49077	18057.8625
1560.83892	17941.3625
1564.18484	17892.9625
1567.52853	17878.6625
1570.86999	17953.9625
1574.20922	18147.5625
1577.54624	18298.6625
1580.88103	18221.3625
1584.2136	18307.0625
1587.54395	18877.0625
1590.87208	20190.2625
1594.19801	22241.2625
1597.52172	24475.4625
1600.84321	25829.1625
1604.16251	25201.3625
1607.47959	22943.6625
1610.79447	20043.0625
1614.10715	17400.1625
1617.41763	15437.5625
1620.7259	14136.6625
1624.03199	13501.6625
1627.33587	13397.5625
1630.63757	13816.8625
1633.93707	14902.6625
1637.23439	16811.5625
1640.52951	19740.5625
1643.82246	23448.1625
1647.11321	26719.3625
1650.40179	27720.3625
1653.68819	25645.9625
1656.97241	21694.7625
1660.25446	17684.8625
1663.53433	14704.9625
1666.81203	12766.4625
1670.08756	11617.1625
1673.36092	10868.3625
1676.63211	10443.7625
1679.90115	10101.4625
1683.16801	9861.7625
1686.43272	9696.3625
1689.69527	9556.9625
1692.95567	9451.2625
1696.2139	9403.7625
1699.46999	9360.6625
1702.72392	9312.3625
1705.97571	9254.1625
1709.22535	9180.9625
1712.47284	9144.6625
1715.71819	9142.5625
1718.96139	9094.3625
1722.20246	9041.9625
1725.44139	8992.2625
1728.67818	8953.3625
1731.91284	8889.3625
1735.14537	8834.4625
1738.37576	8795.0625
1741.60403	8776.8625
1744.83017	8753.2625
1748.05418	8768.4625
1751.27607	8746.0625
1754.49584	8757.0625
1757.71349	8736.7625
1760.92903	8713.3625
1764.14244	8650.7625
1767.35375	8626.4625
1770.56294	8588.5625
1773.77002	8548.2625
1776.97499	8487.0625
1780.17785	8459.7625
1783.37861	8437.5625
1786.57727	8403.3625
1789.77382	8372.0625
1792.96828	8377.1625
1796.16064	8331.8625
1799.3509	8297.8625
1802.53907	8258.5625
1805.72514	8237.9625
1808.90913	8231.2625
1812.09102	8195.4625
1815.27083	8173.1625
1818.44856	8156.4625
1821.6242	8139.7625
1824.79776	8135.0625
1827.96924	8121.9625
1831.13864	8098.3625
1834.30597	8122.6625
1837.47122	8110.3625
1840.6344	8113.6625
1843.7955	8078.6625
1846.95454	8117.0625
1850.11151	8118.1625
1853.26642	8091.4625
1856.41926	8102.5625
1859.57004	8085.6625
1862.71876	8097.8625
1865.86542	8101.9625
1869.01003	8087.5625
1872.15258	8090.9625
1875.29308	8081.9625
1878.43152	8089.6625
1881.56792	8075.7625
1884.70227	8085.3625
1887.83457	8081.5625
1890.96482	8089.1625
1894.09304	8096.6625
1897.21921	8091.3625
1900.34335	8090.6625
1903.46544	8085.5625
1906.58551	8093.7625
1909.70353	8068.3625
1912.81953	8047.5625
1915.93349	8007.2625
1919.04543	7996.8625
1922.15534	7975.4625
1925.26322	7941.4625
1928.36908	7900.5625
1931.47292	7876.4625
1934.57473	7844.5625
1937.67453	7789.0625
1940.77232	7794.9625
1943.86808	7759.4625
1946.96184	7732.3625
1950.05358	7692.6625
1953.14331	7672.0625
1956.23103	7624.3625
1959.31675	7606.9625
1962.40046	7586.8625
1965.48217	7561.7625
1968.56188	7534.6625
1971.63959	7507.9625
1974.7153	7475.4625
1977.78901	7455.7625
1980.86073	7421.1625
1983.93046	7380.8625
1986.99819	7379.0625
1990.06394	7359.6625
1993.1277	7327.3625
1996.18947	7294.9625
1999.24925	7270.5625
2002.30706	7256.1625
2005.36288	7248.9625
2008.41672	7241.9625
2011.46859	7209.2625
2014.51848	7187.8625
2017.56639	7158.6625
2020.61233	7131.2625
2023.6563	7115.4625
2026.6983	7097.1625
2029.73833	7092.5625
2032.7764	7080.3625
2035.8125	7057.4625
2038.84664	7048.1625
2041.87881	7046.1625
2044.90903	7017.8625
2047.93729	7020.4625
2050.96359	7013.9625
2053.98794	6996.4625
2057.01034	6998.1625
2060.03078	6976.9625
2063.04927	6974.2625
2066.06582	6959.3625
2069.08042	6966.7625
2072.09307	6947.2625
2075.10378	6928.0625
2078.11255	6935.0625
2081.11938	6948.0625
2084.12426	6928.1625
2087.12722	6906.8625
2090.12824	6895.2625
2093.12732	6880.9625
2096.12447	6912.4625
2099.11969	6885.6625
2102.11299	6895.3625
2105.10435	6883.6625
2108.09379	6903.2625
2111.08131	6897.9625
2114.0669	6875.3625
2117.05057	6886.6625
2120.03233	6886.2625
2123.01216	6864.7625
2125.99008	6884.0625
2128.96609	6881.5625
2131.94018	6875.8625
2134.91236	6906.7625
2137.88263	6876.2625
2140.851	6884.2625
2143.81746	6876.9625
2146.78201	6882.3625
2149.74466	6883.1625
2152.7054	6877.1625
2155.66425	6862.4625
2158.6212	6862.9625
2161.57625	6849.5625
2164.52941	6848.5625
2167.48067	6860.7625
2170.43004	6835.5625
2173.37752	6844.6625
2176.32311	6840.5625
2179.26681	6842.5625
2182.20863	6829.8625
2185.14856	6841.6625
2188.08661	6809.7625
2191.02278	6820.7625
2193.95707	6832.3625
2196.88948	6818.1625
2199.82001	6829.6625
2202.74867	6828.9625
2205.67545	6818.1625
2208.60037	6797.8625
2211.52341	6787.4625
2214.44458	6764.2625
2217.36388	6753.2625
2220.28132	6729.8625
2223.1969	6729.6625
2226.11061	6733.4625
2229.02246	6712.4625
2231.93245	6697.7625
2234.84058	6694.3625
2237.74686	6700.6625
2240.65128	6689.9625
2243.55385	6685.0625
2246.45456	6673.8625
2249.35343	6636.5625
2252.25044	6640.5625
2255.14561	6613.8625
2258.03893	6612.0625
2260.93041	6591.7625
2263.82004	6550.2625
2266.70783	6532.7625
2269.59378	6521.7625
2272.4779	6508.9625
2275.36017	6479.1625
2278.24061	6465.6625
2281.11922	6427.8625
2283.996	6425.5625
2286.87094	6412.6625
2289.74405	6412.2625
2292.61534	6411.9625
2295.4848	6409.1625
2298.35243	6402.7625
2301.21824	6384.7625
2304.08223	6407.0625
2306.94439	6393.5625
2309.80474	6392.6625
2312.66327	6387.7625
2315.51999	6380.9625
2318.37489	6373.2625
2321.22797	6383.4625
2324.07925	6364.7625
2326.92871	6361.6625
2329.77637	6357.4625
2332.62222	6352.0625
2335.46626	6332.4625
2338.3085	6352.4625
2341.14893	6362.7625
2343.98756	6355.6625
2346.8244	6366.1625
2349.65943	6351.6625
2352.49267	6343.2625
2355.32411	6351.6625
2358.15376	6350.0625
2360.98161	6344.7625
2363.80768	6340.9625
2366.63195	6312.6625
2369.45444	6316.4625
2372.27514	6303.3625
2375.09405	6290.0625
2377.91118	6278.9625
2380.72652	6258.6625
2383.54009	6252.8625
2386.35187	6235.9625
2389.16188	6209.3625
2391.97011	6192.3625
2394.77657	6202.5625
2397.58125	6197.4625
2400.38416	6183.0625
2403.18529	6164.5625
2405.98466	6152.2625
2408.78226	6148.0625
2411.57809	6123.5625
2414.37216	6117.7625
2417.16446	6087.8625
2419.955	6095.8625
2422.74378	6104.6625
2425.5308	6067.2625
2428.31606	6079.5625
2431.09956	6084.3625
2433.88131	6077.9625
2436.6613	6082.1625
2439.43954	6053.6625
2442.21603	6047.0625
2444.99077	6047.5625
2447.76377	6063.6625
2450.53501	6041.5625
2453.30451	6075.6625
2456.07226	6064.7625
2458.83827	6060.4625
2461.60254	6046.0625
2464.36507	6066.8625
2467.12586	6056.2625
2469.88492	6036.5625
2472.64224	6048.0625
2475.39782	6097.3625
2478.15167	6096.0625
2480.90379	6090.1625
2483.65417	6087.4625
2486.40283	6079.4625
2489.14976	6078.0625
2491.89497	6070.1625
2494.63845	6105.4625
2497.3802	6095.0625
2500.12024	6099.5625
2502.85855	6061.4625
2505.59514	6063.0625
2508.33002	6060.8625
2511.06318	6060.8625
2513.79462	6040.3625
2516.52435	6023.0625
2519.25237	6036.1625
2521.97867	6024.5625
2524.70327	6025.6625
2527.42616	6022.0625
2530.14734	6016.6625
2532.86681	5994.6625
2535.58458	5997.0625
2538.30065	6002.1625
2541.01501	5978.8625
2543.72768	5978.3625
2546.43864	5971.8625
2549.14791	5960.7625
2551.85548	5962.5625
2554.56136	5979.0625
2557.26554	5962.1625
2559.96803	5955.8625
2562.66883	5947.5625
2565.36794	5964.9625
2568.06536	5933.3625
2570.7611	5953.1625
2573.45514	5953.6625
2576.14751	5944.6625
2578.83819	5937.7625
2581.52719	5953.9625
2584.21451	5951.0625
2586.90015	5940.0625
2589.58411	5945.2625
2592.2664	5941.6625
2594.94701	5940.2625
2597.62594	5935.7625
2600.30321	5921.7625
2602.9788	5915.7625
2605.65273	5909.2625
2608.32498	5909.6625
2610.99557	5908.4625
2613.66449	5912.4625
2616.33175	5924.0625
2618.99734	5933.8625
2621.66128	5905.9625
2624.32355	5931.6625
2626.98416	5941.9625
2629.64311	5926.5625
2632.30041	5938.7625
2634.95605	5932.5625
2637.61004	5929.5625
2640.26238	5908.8625
2642.91306	5934.2625
2645.56209	5909.2625
2648.20948	5907.4625
2650.85521	5919.5625
2653.4993	5899.9625
2656.14175	5911.5625
2658.78255	5922.4625
2661.42171	5927.6625
2664.05923	5935.5625
2666.6951	5946.6625
2669.32934	5960.4625
2671.96194	5948.2625
2674.59291	5947.4625
2677.22224	5939.4625
2679.84993	5933.8625
2682.476	5933.8625
2685.10043	5925.6625
2687.72324	5928.2625
2690.34441	5902.9625
2692.96396	5900.7625
2695.58188	5918.6625
2698.19818	5910.7625
2700.81285	5909.1625
2703.4259	5930.9625
2706.03733	5963.0625
2708.64714	5958.3625
2711.25533	5946.4625
2713.86191	5930.4625
2716.46687	5944.2625
2719.07021	5939.5625
2721.67194	5953.0625
2724.27206	5935.9625
2726.87057	5941.5625
2729.46747	5944.0625
2732.06276	5946.4625
2734.65644	5942.6625
2737.24852	5937.6625
2739.83899	5940.0625
2742.42786	5951.7625
2745.01513	5941.6625
2747.60079	5939.9625
2750.18486	5929.9625
2752.76733	5942.3625
2755.3482	5951.0625
2757.92747	5952.7625
2760.50515	5932.6625
2763.08123	5954.7625
2765.65573	5957.0625
2768.22863	5945.7625
2770.79994	5949.0625
2773.36967	5960.9625
2775.9378	5971.6625
2778.50435	5982.8625
2781.06932	5961.5625
2783.6327	5983.0625
2786.1945	5965.4625
2788.75471	5968.8625
2791.31335	5960.1625
2793.87041	5960.7625
2796.42589	5926.3625
2798.97979	5947.9625
2801.53212	5926.1625
2804.08288	5935.8625
2806.63206	5920.5625
2809.17967	5916.4625
2811.72571	5910.2625
2814.27018	5911.0625
2816.81308	5895.4625
2819.35442	5897.4625
2821.89419	5879.5625
2824.43239	5907.4625
2826.96904	5883.5625
2829.50412	5899.4625
2832.03763	5850.8625
2834.56959	5870.2625
2837.1	5865.2625
2839.62884	5855.1625
2842.15613	5847.4625
2844.68186	5849.4625
2847.20604	5882.5625
2849.72867	5860.8625
2852.24974	5854.3625
2854.76927	5866.3625
2857.28724	5878.3625
2859.80367	5830.8625
2862.31855	5857.7625
2864.83189	5833.3625
2867.34368	5843.0625
2869.85393	5832.7625
2872.36264	5821.5625
2874.8698	5831.4625
2877.37543	5836.3625
2879.87952	5846.5625
2882.38207	5832.5625
2884.88308	5851.2625
2887.38256	5853.9625
2889.88051	5867.0625
2892.37692	5886.5625
2894.8718	5858.5625
2897.36515	5909.8625
2899.85698	5905.8625
2902.34727	5932.3625
2904.83604	5919.4625
2907.32328	5938.1625
2909.809	5929.2625
2912.29319	5963.6625
2914.77587	5972.1625
2917.25702	5981.2625
2919.73665	5951.6625
2922.21476	5972.1625
2924.69136	5984.3625
2927.16644	5968.5625
2929.64	5972.6625
2932.11205	5954.1625
2934.58258	5928.8625
2937.05161	5968.9625
2939.51912	5946.2625
2941.98513	5939.0625
2944.44962	5931.1625
2946.91261	5914.6625
2949.37409	5921.0625
2951.83407	5909.2625
2954.29254	5888.6625
2956.74951	5872.0625
2959.20498	5866.5625
2961.65895	5848.3625
2964.11142	5821.8625
2966.56239	5759.3625
2969.01186	5775.7625
2971.45984	5760.8625
2973.90632	5738.8625
2976.35131	5699.9625
2978.7948	5698.2625
2981.23681	5656.4625
2983.67732	5634.7625
2986.11635	5627.0625
2988.55388	5599.5625
2990.98993	5595.6625
2993.4245	5583.3625
2995.85758	5552.5625
2998.28917	5554.5625
3000.71928	5565.8625
3003.14791	5544.0625
3005.57506	5537.8625
3008.00073	5535.8625
3010.42493	5516.3625
3012.84764	5506.6625
3015.26888	5493.5625
3017.68865	5483.6625
3020.10694	5455.9625
3022.52376	5440.4625
3024.9391	5435.5625
3027.35298	5416.7625
3029.76539	5413.8625
3032.17632	5392.2625
3034.5858	5373.4625
3036.9938	5375.7625
3039.40034	5384.8625
3041.80542	5376.3625
3044.20903	5363.6625
3046.61118	5353.8625
3049.01187	5358.3625
3051.4111	5341.0625
3053.80888	5322.5625
3056.20519	5317.3625
3058.60005	5290.0625
3060.99345	5299.0625
3063.3854	5272.8625
3065.7759	5259.8625
3068.16494	5240.5625
3070.55254	5221.8625
3072.93868	5198.9625
3075.32338	5212.6625
3077.70662	5180.4625
3080.08842	5159.1625
3082.46878	5141.9625
3084.84769	5145.8625
3087.22515	5156.4625
3089.60118	5146.4625
3091.97576	5154.6625
3094.3489	5156.0625
3096.72061	5152.4625
3099.09087	5150.6625
3101.4597	5132.1625
3103.82709	5145.3625
3106.19305	5121.0625
3108.55757	5111.6625
3110.92066	5101.8625
3113.28232	5101.1625
3115.64255	5072.8625
3118.00134	5049.6625
3120.35871	5057.3625
3122.71466	5040.2625
3125.06917	5038.8625
3127.42226	5044.5625
3129.77393	5038.7625
3132.12417	5043.3625
3134.47299	5041.0625
3136.82039	5030.9625
3139.16636	5028.3625
3141.51092	5030.1625
3143.85406	5037.1625
3146.19579	5030.4625
3148.53609	5032.6625
3150.87499	5011.7625
3153.21246	5020.7625
3155.54853	5006.6625
3157.88318	5014.2625
3160.21642	5018.7625
3162.54826	5024.4625
3164.87868	5001.3625
3167.2077	5003.0625
3169.5353	5028.0625
3171.86151	5000.5625
3174.18631	5018.0625
3176.5097	5011.9625
3178.83169	5000.8625
3181.15228	5008.4625
3183.47147	5002.3625
3185.78926	5009.0625
3188.10565	4993.3625
3190.42065	5022.5625
3192.73424	5026.3625
3195.04645	5006.9625
3197.35725	4993.9625
3199.66667	5025.6625
3201.97469	5007.2625
3204.28132	5018.3625
3206.58656	5034.9625
3208.8904	5026.5625
3211.19287	5008.5625
3213.49394	5013.6625
3215.79363	5003.5625
3218.09193	4998.8625
3220.38884	5016.2625
3222.68438	5022.7625
3224.97853	5006.0625
3227.2713	5013.8625
3229.56269	5007.4625
3231.8527	5005.8625
3234.14133	5004.5625
3236.42858	4994.3625
3238.71446	4994.7625
3240.99896	4983.6625
3243.28209	4989.7625
3245.56384	4988.5625
3247.84423	4989.0625
3250.12324	4968.4625
3252.40088	4970.8625
3254.67715	4964.3625
3256.95205	4945.6625
3259.22558	4939.6625
3261.49775	4919.5625
3263.76855	4912.7625
3266.03799	4904.5625
3268.30606	4893.1625
3270.57277	4884.8625
3272.83812	4869.8625
3275.10211	4849.1625
3277.36474	4851.1625
3279.62601	4874.7625
3281.88593	4856.2625
3284.14448	4882.5625
3286.40168	4880.8625
3288.65753	4862.1625
3290.91202	4863.7625
3293.16516	4845.8625
3295.41695	4852.3625
3297.66738	4810.8625
3299.91647	4789.2625
3302.16421	4768.1625
3304.4106	4739.1625
3306.65564	4724.3625
3308.89933	4682.8625
3311.14169	4670.2625
3313.38269	4613.7625
3315.62236	4604.1625
3317.86068	4565.3625
3320.09766	4516.6625
3322.3333	4472.5625
3324.5676	4481.7625
3326.80056	4401.3625
3329.03219	4376.7625
3331.26248	1.3625
3333.49143	0.4625
3335.71905	1.5625
