Data from AgNPs_FTO_APTES_UA_2um_CRN_0.1mM_R6G_10uM_NaF_0.1M_Addition_RamanShift__10__12-26-39-043.txt Node

Date: Tue Dec 21 12:26:39 GMT 2021
User: TCL
Spectrometer: QEP01345
Trigger mode: 4
Integration Time (sec): 7.000000E0
Scans to average: 10
Electric dark correction enabled: true
Nonlinearity correction enabled: false
Boxcar width: 0
XAxis mode: Raman Shifts
Number of Pixels in Spectrum: 1044
>>>>>Begin Spectral Data<<<<<
46.04893	0.1375
50.45542	-0.9625
54.85868	-0.3625
59.25871	0.8375
63.6555	43.0375
68.04907	45.9375
72.43941	52.0375
76.82654	50.7375
81.21044	56.2375
85.59113	58.3375
89.96862	59.9375
94.34289	62.1375
98.71396	60.7375
103.08183	65.3375
107.4465	68.4375
111.80798	74.3375
116.16626	70.5375
120.52136	72.6375
124.87327	77.9375
129.222	77.1375
133.56755	85.0375
137.90993	90.2375
142.24913	98.4375
146.58517	113.1375
150.91804	126.4375
155.24774	151.5375
159.57429	183.3375
163.89768	239.4375
168.21792	306.6375
172.53501	416.3375
176.84895	586.2375
181.15975	811.1375
185.46741	1134.4375
189.77193	1567.4375
194.07331	2090.8375
198.37157	2713.1375
202.6667	3351.7375
206.9587	4006.2375
211.24758	4652.2375
215.53334	5298.0375
219.81599	5974.0375
224.09553	6707.9375
228.37195	7553.7375
232.64527	8449.8375
236.91549	9390.8375
241.18261	10325.6375
245.44663	11174.1375
249.70755	11921.1375
253.96539	12528.8375
258.22014	13009.0375
262.4718	13385.2375
266.72039	13665.8375
270.96589	13739.9375
275.20832	13705.2375
279.44768	13575.9375
283.68397	13446.1375
287.91719	13312.1375
292.14735	13279.7375
296.37445	13251.5375
300.59849	13249.1375
304.81948	13362.1375
309.03742	13448.7375
313.25231	13450.2375
317.46415	13309.3375
321.67296	13029.6375
325.87872	12747.5375
330.08145	12545.3375
334.28114	12439.2375
338.47781	12462.8375
342.67145	12567.9375
346.86207	12784.4375
351.04966	13000.1375
355.23424	13200.1375
359.4158	13372.4375
363.59435	13469.6375
367.76989	13473.2375
371.94243	13470.3375
376.11196	13426.9375
380.27849	13429.8375
384.44203	13437.9375
388.60257	13561.2375
392.76012	13746.7375
396.91468	13972.3375
401.06626	14263.9375
405.21485	14440.0375
409.36047	14334.8375
413.50311	14107.2375
417.64277	14007.3375
421.77947	14103.0375
425.9132	14254.8375
430.04396	14401.3375
434.17176	14446.1375
438.2966	14539.6375
442.41849	14741.2375
446.53742	15124.8375
450.6534	15550.7375
454.76644	15792.3375
458.87653	15785.8375
462.98368	15607.3375
467.08789	15346.2375
471.18916	15083.0375
475.2875	14781.7375
479.38291	14586.7375
483.4754	14478.5375
487.56496	14337.1375
491.6516	14181.2375
495.73531	13973.0375
499.81612	13869.0375
503.89401	13926.4375
507.96899	14006.5375
512.04106	13938.7375
516.11023	13763.5375
520.1765	13524.0375
524.23987	13357.9375
528.30034	13231.3375
532.35792	13112.3375
536.41261	12904.1375
540.46441	12713.9375
544.51333	12668.0375
548.55936	12813.2375
552.60252	13159.9375
556.64279	13586.3375
560.6802	13941.9375
564.71473	14081.4375
568.7464	14315.8375
572.7752	14893.4375
576.80114	15699.7375
580.82422	16572.6375
584.84444	17573.5375
588.86181	18918.2375
592.87633	20325.1375
596.888	20664.8375
600.89682	19260.5375
604.9028	17858.6375
608.90594	18025.5375
612.90624	18767.2375
616.90371	17343.6375
620.89834	14326.9375
624.89015	12985.6375
628.87913	12897.1375
632.86528	13152.0375
636.84862	13201.4375
640.82913	12876.9375
644.80683	12455.0375
648.78172	12198.5375
652.75379	12137.2375
656.72306	12278.3375
660.68952	12437.8375
664.65319	12357.6375
668.61405	12122.1375
672.57211	12082.1375
676.52738	12162.9375
680.47986	12216.6375
684.42955	12081.1375
688.37646	11963.4375
692.32058	11985.9375
696.26192	12109.1375
700.20048	12317.9375
704.13626	12483.6375
708.06928	12606.5375
711.99952	12643.4375
715.927	12595.5375
719.85171	12584.5375
723.77365	12433.8375
727.69284	12144.6375
731.60928	11925.3375
735.52295	11865.6375
739.43388	11869.8375
743.34206	11958.0375
747.24749	12060.3375
751.15017	12277.9375
755.05012	12577.9375
758.94733	13113.8375
762.8418	13938.3375
766.73354	15213.4375
770.62254	16381.4375
774.50882	16386.1375
778.39237	15343.0375
782.27321	14042.1375
786.15132	13030.1375
790.02671	12328.0375
793.89938	11990.6375
797.76935	11828.5375
801.6366	11765.6375
805.50115	11712.2375
809.36299	11597.6375
813.22213	11471.2375
817.07857	11388.1375
820.93231	11291.0375
824.78336	11191.8375
828.63172	11124.7375
832.47738	11053.2375
836.32036	11024.1375
840.16066	11004.7375
843.99827	11004.1375
847.8332	10978.4375
851.66546	10994.4375
855.49504	11003.8375
859.32195	11007.0375
863.1462	10965.8375
866.96777	10888.9375
870.78668	10877.7375
874.60293	10889.2375
878.41652	10884.0375
882.22745	10928.1375
886.03573	10968.4375
889.84136	10988.8375
893.64433	10963.8375
897.44466	10924.6375
901.24235	10905.6375
905.0374	10870.7375
908.8298	10823.5375
912.61957	10804.5375
916.40671	10955.9375
920.19121	11146.9375
923.97308	11389.5375
927.75233	11524.0375
931.52895	11341.2375
935.30295	11002.8375
939.07433	10649.0375
942.84309	10394.8375
946.60924	10254.0375
950.37278	10161.5375
954.13371	10177.0375
957.89203	10181.4375
961.64774	10181.5375
965.40086	10185.4375
969.15137	10140.5375
972.89929	10067.3375
976.64461	9961.9375
980.38733	9936.8375
984.12747	9907.6375
987.86502	9904.4375
991.59999	9973.6375
995.33237	10035.3375
999.06217	10227.9375
1002.78939	10478.9375
1006.51404	10798.0375
1010.23611	11081.1375
1013.95561	11347.7375
1017.67255	11456.8375
1021.38692	11357.6375
1025.09872	11069.8375
1028.80796	10765.2375
1032.51465	10580.7375
1036.21877	10577.3375
1039.92035	10671.8375
1043.61937	10735.6375
1047.31584	10837.9375
1051.00976	10877.4375
1054.70114	10956.7375
1058.38998	11015.3375
1062.07627	11132.5375
1065.76003	11287.7375
1069.44126	11521.8375
1073.11995	11831.0375
1076.79611	12069.0375
1080.46974	12180.8375
1084.14085	12300.4375
1087.80943	12471.8375
1091.47549	12670.1375
1095.13903	12775.6375
1098.80005	12463.0375
1102.45857	12020.1375
1106.11456	11573.9375
1109.76805	11347.8375
1113.41903	11312.2375
1117.06751	11411.9375
1120.71348	11590.0375
1124.35696	11848.4375
1127.99793	12057.8375
1131.63641	12226.4375
1135.2724	12169.4375
1138.90589	12156.0375
1142.5369	12211.3375
1146.16542	12332.0375
1149.79145	12563.9375
1153.415	12735.7375
1157.03607	12942.1375
1160.65467	13441.9375
1164.27079	14268.2375
1167.88443	15321.7375
1171.49561	16526.5375
1175.10432	17929.0375
1178.71056	19615.8375
1182.31434	21163.8375
1185.91565	21913.2375
1189.51451	21752.0375
1193.11091	21094.1375
1196.70485	20089.6375
1200.29634	18996.0375
1203.88538	18186.4375
1207.47197	17735.9375
1211.05612	17401.4375
1214.63782	16998.8375
1218.21708	16466.3375
1221.79391	15918.8375
1225.36829	15628.0375
1228.94024	15503.7375
1232.50976	15344.0375
1236.07685	14997.5375
1239.6415	14653.7375
1243.20374	14491.4375
1246.76355	14501.3375
1250.32093	14675.4375
1253.8759	15015.1375
1257.42845	15553.5375
1260.97859	16192.8375
1264.52631	16813.4375
1268.07163	17442.7375
1271.61453	18042.2375
1275.15503	18665.7375
1278.69312	19442.2375
1282.22882	20321.3375
1285.76211	21454.4375
1289.29301	22681.8375
1292.82151	23972.5375
1296.34761	25490.7375
1299.87133	27188.9375
1303.39266	28941.7375
1306.9116	30416.7375
1310.42815	31630.0375
1313.94233	32270.5375
1317.45412	32006.2375
1320.96354	31107.8375
1324.47058	30282.1375
1327.97525	29790.1375
1331.47754	29432.1375
1334.97747	29160.7375
1338.47502	28737.3375
1341.97022	28215.8375
1345.46305	27742.0375
1348.95352	27516.3375
1352.44163	27613.2375
1355.92738	28335.3375
1359.41078	29878.1375
1362.89183	31257.6375
1366.37053	31390.7375
1369.84688	29343.9375
1373.32088	25783.1375
1376.79254	22831.4375
1380.26186	21558.8375
1383.72883	21314.6375
1387.19347	21093.5375
1390.65578	20715.9375
1394.11575	20590.4375
1397.57339	20867.6375
1401.0287	21321.7375
1404.48168	21649.2375
1407.93234	21565.7375
1411.38068	21014.2375
1414.82669	20142.2375
1418.27039	19133.9375
1421.71177	18210.7375
1425.15083	17404.7375
1428.58758	16985.4375
1432.02203	17141.0375
1435.45416	17631.3375
1438.88399	18190.3375
1442.31151	18543.5375
1445.73673	18806.2375
1449.15965	19040.6375
1452.58027	19169.8375
1455.9986	19148.6375
1459.41463	19277.8375
1462.82837	19617.7375
1466.23982	20111.3375
1469.64898	20628.3375
1473.05586	20906.2375
1476.46045	21093.0375
1479.86276	21110.9375
1483.26279	21110.9375
1486.66054	21217.1375
1490.05602	21561.3375
1493.44922	22093.5375
1496.84016	22672.1375
1500.22882	23286.5375
1503.61521	23876.3375
1506.99934	24471.6375
1510.38121	24825.2375
1513.76081	24731.4375
1517.13816	24193.5375
1520.51324	23503.5375
1523.88607	23027.5375
1527.25665	22932.0375
1530.62498	22847.5375
1533.99105	22628.5375
1537.35488	22111.1375
1540.71647	21300.4375
1544.07581	20371.1375
1547.4329	19385.6375
1550.78776	18626.4375
1554.14038	18047.1375
1557.49077	17759.3375
1560.83892	17706.5375
1564.18484	17774.3375
1567.52853	17925.4375
1570.86999	18195.3375
1574.20922	18558.2375
1577.54624	18878.6375
1580.88103	18851.5375
1584.2136	18855.0375
1587.54395	19252.1375
1590.87208	20320.2375
1594.19801	21864.9375
1597.52172	23472.7375
1600.84321	24108.3375
1604.16251	23036.9375
1607.47959	20946.4375
1610.79447	18678.9375
1614.10715	16627.3375
1617.41763	14983.3375
1620.7259	13856.5375
1624.03199	13252.8375
1627.33587	13134.6375
1630.63757	13554.5375
1633.93707	14643.2375
1637.23439	16618.0375
1640.52951	19722.5375
1643.82246	23821.6375
1647.11321	27646.9375
1650.40179	29157.2375
1653.68819	27386.2375
1656.97241	23313.4375
1660.25446	18926.2375
1663.53433	15528.7375
1666.81203	13245.4375
1670.08756	11813.2375
1673.36092	10975.6375
1676.63211	10414.9375
1679.90115	10039.3375
1683.16801	9781.8375
1686.43272	9593.9375
1689.69527	9410.4375
1692.95567	9315.6375
1696.2139	9241.3375
1699.46999	9195.1375
1702.72392	9123.4375
1705.97571	9099.0375
1709.22535	9010.2375
1712.47284	8960.8375
1715.71819	8910.3375
1718.96139	8883.6375
1722.20246	8811.7375
1725.44139	8752.4375
1728.67818	8688.2375
1731.91284	8632.7375
1735.14537	8550.5375
1738.37576	8494.2375
1741.60403	8446.4375
1744.83017	8388.3375
1748.05418	8388.3375
1751.27607	8367.2375
1754.49584	8403.1375
1757.71349	8419.1375
1760.92903	8408.9375
1764.14244	8373.4375
1767.35375	8355.7375
1770.56294	8322.2375
1773.77002	8247.8375
1776.97499	8198.3375
1780.17785	8148.2375
1783.37861	8097.5375
1786.57727	8083.2375
1789.77382	8040.9375
1792.96828	8017.8375
1796.16064	7975.6375
1799.3509	7949.8375
1802.53907	7942.0375
1805.72514	7902.3375
1808.90913	7868.6375
1812.09102	7862.7375
1815.27083	7818.9375
1818.44856	7837.2375
1821.6242	7797.3375
1824.79776	7805.0375
1827.96924	7793.8375
1831.13864	7773.7375
1834.30597	7764.9375
1837.47122	7758.3375
1840.6344	7772.0375
1843.7955	7781.5375
1846.95454	7789.7375
1850.11151	7764.4375
1853.26642	7763.9375
1856.41926	7736.6375
1859.57004	7746.0375
1862.71876	7720.1375
1865.86542	7705.8375
1869.01003	7678.9375
1872.15258	7676.6375
1875.29308	7630.7375
1878.43152	7647.8375
1881.56792	7617.3375
1884.70227	7596.9375
1887.83457	7609.9375
1890.96482	7584.3375
1894.09304	7554.3375
1897.21921	7566.3375
1900.34335	7550.7375
1903.46544	7529.6375
1906.58551	7509.0375
1909.70353	7498.0375
1912.81953	7476.9375
1915.93349	7447.5375
1919.04543	7422.3375
1922.15534	7419.0375
1925.26322	7362.0375
1928.36908	7357.5375
1931.47292	7324.2375
1934.57473	7308.6375
1937.67453	7289.5375
1940.77232	7240.0375
1943.86808	7247.6375
1946.96184	7217.1375
1950.05358	7204.3375
1953.14331	7168.0375
1956.23103	7141.7375
1959.31675	7116.7375
1962.40046	7104.3375
1965.48217	7067.9375
1968.56188	7049.5375
1971.63959	7008.8375
1974.7153	7001.5375
1977.78901	6939.8375
1980.86073	6927.5375
1983.93046	6918.0375
1986.99819	6873.7375
1990.06394	6840.5375
1993.1277	6844.7375
1996.18947	6805.1375
1999.24925	6799.2375
2002.30706	6768.9375
2005.36288	6745.6375
2008.41672	6718.5375
2011.46859	6673.1375
2014.51848	6662.0375
2017.56639	6646.0375
2020.61233	6610.2375
2023.6563	6612.1375
2026.6983	6595.2375
2029.73833	6595.3375
2032.7764	6563.0375
2035.8125	6538.1375
2038.84664	6511.6375
2041.87881	6533.2375
2044.90903	6500.1375
2047.93729	6496.9375
2050.96359	6479.6375
2053.98794	6479.4375
2057.01034	6456.3375
2060.03078	6457.7375
2063.04927	6433.4375
2066.06582	6425.8375
2069.08042	6430.7375
2072.09307	6418.1375
2075.10378	6406.2375
2078.11255	6390.4375
2081.11938	6424.2375
2084.12426	6396.2375
2087.12722	6404.6375
2090.12824	6375.2375
2093.12732	6376.1375
2096.12447	6386.1375
2099.11969	6384.9375
2102.11299	6381.5375
2105.10435	6378.0375
2108.09379	6374.1375
2111.08131	6387.2375
2114.0669	6380.3375
2117.05057	6376.4375
2120.03233	6396.7375
2123.01216	6369.1375
2125.99008	6377.0375
2128.96609	6392.1375
2131.94018	6392.0375
2134.91236	6384.6375
2137.88263	6362.8375
2140.851	6349.0375
2143.81746	6343.1375
2146.78201	6343.2375
2149.74466	6361.8375
2152.7054	6341.4375
2155.66425	6333.6375
2158.6212	6334.7375
2161.57625	6314.8375
2164.52941	6324.6375
2167.48067	6303.9375
2170.43004	6301.6375
2173.37752	6303.8375
2176.32311	6290.6375
2179.26681	6284.6375
2182.20863	6292.0375
2185.14856	6293.5375
2188.08661	6292.9375
2191.02278	6274.9375
2193.95707	6261.5375
2196.88948	6268.1375
2199.82001	6243.1375
2202.74867	6226.3375
2205.67545	6205.5375
2208.60037	6215.5375
2211.52341	6189.8375
2214.44458	6187.4375
2217.36388	6170.2375
2220.28132	6159.4375
2223.1969	6136.4375
2226.11061	6136.8375
2229.02246	6144.7375
2231.93245	6142.3375
2234.84058	6129.4375
2237.74686	6116.3375
2240.65128	6106.7375
2243.55385	6104.7375
2246.45456	6098.9375
2249.35343	6064.8375
2252.25044	6058.4375
2255.14561	6041.3375
2258.03893	6008.8375
2260.93041	6005.6375
2263.82004	5975.9375
2266.70783	5969.7375
2269.59378	5934.8375
2272.4779	5923.1375
2275.36017	5881.2375
2278.24061	5887.2375
2281.11922	5880.2375
2283.996	5854.8375
2286.87094	5871.0375
2289.74405	5823.2375
2292.61534	5822.3375
2295.4848	5803.2375
2298.35243	5810.3375
2301.21824	5796.4375
2304.08223	5769.5375
2306.94439	5799.8375
2309.80474	5783.9375
2312.66327	5767.4375
2315.51999	5764.2375
2318.37489	5756.2375
2321.22797	5747.3375
2324.07925	5728.2375
2326.92871	5734.6375
2329.77637	5728.4375
2332.62222	5724.8375
2335.46626	5721.2375
2338.3085	5702.8375
2341.14893	5696.3375
2343.98756	5691.8375
2346.8244	5695.3375
2349.65943	5691.8375
2352.49267	5696.1375
2355.32411	5690.3375
2358.15376	5702.3375
2360.98161	5703.9375
2363.80768	5711.2375
2366.63195	5709.0375
2369.45444	5691.2375
2372.27514	5693.2375
2375.09405	5668.5375
2377.91118	5664.7375
2380.72652	5641.9375
2383.54009	5631.9375
2386.35187	5625.5375
2389.16188	5577.7375
2391.97011	5559.1375
2394.77657	5570.9375
2397.58125	5541.4375
2400.38416	5533.2375
2403.18529	5539.1375
2405.98466	5523.2375
2408.78226	5521.0375
2411.57809	5509.3375
2414.37216	5505.4375
2417.16446	5493.5375
2419.955	5498.2375
2422.74378	5485.2375
2425.5308	5467.9375
2428.31606	5472.5375
2431.09956	5469.8375
2433.88131	5460.5375
2436.6613	5439.7375
2439.43954	5453.4375
2442.21603	5448.1375
2444.99077	5444.8375
2447.76377	5438.2375
2450.53501	5459.3375
2453.30451	5451.2375
2456.07226	5447.7375
2458.83827	5449.5375
2461.60254	5449.6375
2464.36507	5421.3375
2467.12586	5444.9375
2469.88492	5427.7375
2472.64224	5441.7375
2475.39782	5437.3375
2478.15167	5438.5375
2480.90379	5434.0375
2483.65417	5432.6375
2486.40283	5422.8375
2489.14976	5420.5375
2491.89497	5403.0375
2494.63845	5426.2375
2497.3802	5423.6375
2500.12024	5423.2375
2502.85855	5395.3375
2505.59514	5396.6375
2508.33002	5395.8375
2511.06318	5386.5375
2513.79462	5366.2375
2516.52435	5371.4375
2519.25237	5370.2375
2521.97867	5351.9375
2524.70327	5346.0375
2527.42616	5344.6375
2530.14734	5345.7375
2532.86681	5314.8375
2535.58458	5327.5375
2538.30065	5304.4375
2541.01501	5316.5375
2543.72768	5306.2375
2546.43864	5309.8375
2549.14791	5292.4375
2551.85548	5283.2375
2554.56136	5290.9375
2557.26554	5267.3375
2559.96803	5272.2375
2562.66883	5272.8375
2565.36794	5265.9375
2568.06536	5262.4375
2570.7611	5252.0375
2573.45514	5252.9375
2576.14751	5251.9375
2578.83819	5243.5375
2581.52719	5259.7375
2584.21451	5231.3375
2586.90015	5235.6375
2589.58411	5229.4375
2592.2664	5217.6375
2594.94701	5217.9375
2597.62594	5211.7375
2600.30321	5196.5375
2602.9788	5190.1375
2605.65273	5194.9375
2608.32498	5192.3375
2610.99557	5176.7375
2613.66449	5199.1375
2616.33175	5186.5375
2618.99734	5189.1375
2621.66128	5162.4375
2624.32355	5180.4375
2626.98416	5174.2375
2629.64311	5150.3375
2632.30041	5160.2375
2634.95605	5175.2375
2637.61004	5140.0375
2640.26238	5142.6375
2642.91306	5148.7375
2645.56209	5143.4375
2648.20948	5152.4375
2650.85521	5143.9375
2653.4993	5163.8375
2656.14175	5136.9375
2658.78255	5146.9375
2661.42171	5156.6375
2664.05923	5170.0375
2666.6951	5158.4375
2669.32934	5166.8375
2671.96194	5165.8375
2674.59291	5162.5375
2677.22224	5156.9375
2679.84993	5160.0375
2682.476	5150.9375
2685.10043	5146.5375
2687.72324	5146.2375
2690.34441	5149.3375
2692.96396	5157.2375
2695.58188	5143.2375
2698.19818	5151.6375
2700.81285	5153.3375
2703.4259	5173.1375
2706.03733	5231.9375
2708.64714	5198.6375
2711.25533	5182.5375
2713.86191	5162.9375
2716.46687	5157.8375
2719.07021	5172.2375
2721.67194	5176.7375
2724.27206	5167.9375
2726.87057	5177.0375
2729.46747	5184.3375
2732.06276	5190.6375
2734.65644	5179.8375
2737.24852	5176.3375
2739.83899	5169.1375
2742.42786	5161.9375
2745.01513	5164.9375
2747.60079	5162.2375
2750.18486	5145.1375
2752.76733	5140.9375
2755.3482	5138.5375
2757.92747	5151.4375
2760.50515	5127.6375
2763.08123	5133.6375
2765.65573	5134.7375
2768.22863	5129.5375
2770.79994	5127.5375
2773.36967	5134.5375
2775.9378	5128.0375
2778.50435	5149.2375
2781.06932	5112.9375
2783.6327	5120.7375
2786.1945	5119.4375
2788.75471	5117.1375
2791.31335	5110.4375
2793.87041	5096.7375
2796.42589	5073.9375
2798.97979	5071.8375
2801.53212	5062.7375
2804.08288	5080.6375
2806.63206	5075.5375
2809.17967	5061.2375
2811.72571	5044.6375
2814.27018	5057.5375
2816.81308	5038.7375
2819.35442	5052.1375
2821.89419	5033.8375
2824.43239	5027.9375
2826.96904	5026.6375
2829.50412	5031.8375
2832.03763	5018.2375
2834.56959	5023.9375
2837.1	5007.0375
2839.62884	5032.1375
2842.15613	5026.0375
2844.68186	5046.1375
2847.20604	5048.1375
2849.72867	5078.7375
2852.24974	5062.4375
2854.76927	5065.8375
2857.28724	5077.0375
2859.80367	5047.3375
2862.31855	5043.4375
2864.83189	5025.4375
2867.34368	5031.9375
2869.85393	5019.6375
2872.36264	5009.3375
2874.8698	4988.4375
2877.37543	4998.8375
2879.87952	5001.3375
2882.38207	4991.9375
2884.88308	5001.9375
2887.38256	4996.0375
2889.88051	5005.6375
2892.37692	4990.5375
2894.8718	4978.6375
2897.36515	5007.6375
2899.85698	5016.9375
2902.34727	5001.9375
2904.83604	5022.9375
2907.32328	5027.8375
2909.809	5009.7375
2912.29319	5024.9375
2914.77587	5043.1375
2917.25702	5037.9375
2919.73665	5021.7375
2922.21476	5034.9375
2924.69136	5011.8375
2927.16644	5018.0375
2929.64	5047.2375
2932.11205	5014.1375
2934.58258	4997.8375
2937.05161	5014.8375
2939.51912	5023.3375
2941.98513	5005.1375
2944.44962	4983.5375
2946.91261	4985.8375
2949.37409	4986.8375
2951.83407	4958.5375
2954.29254	4940.8375
2956.74951	4951.4375
2959.20498	4931.1375
2961.65895	4927.1375
2964.11142	4892.7375
2966.56239	4883.8375
2969.01186	4872.4375
2971.45984	4853.8375
2973.90632	4831.3375
2976.35131	4806.4375
2978.7948	4803.7375
2981.23681	4802.2375
2983.67732	4772.0375
2986.11635	4766.0375
2988.55388	4748.0375
2990.98993	4719.3375
2993.4245	4702.1375
2995.85758	4709.7375
2998.28917	4683.3375
3000.71928	4681.1375
3003.14791	4677.6375
3005.57506	4667.7375
3008.00073	4660.5375
3010.42493	4652.8375
3012.84764	4638.4375
3015.26888	4635.4375
3017.68865	4623.8375
3020.10694	4594.9375
3022.52376	4585.3375
3024.9391	4592.6375
3027.35298	4570.8375
3029.76539	4559.3375
3032.17632	4564.8375
3034.5858	4541.7375
3036.9938	4550.4375
3039.40034	4547.2375
3041.80542	4553.9375
3044.20903	4506.4375
3046.61118	4518.0375
3049.01187	4508.2375
3051.4111	4501.8375
3053.80888	4478.0375
3056.20519	4476.8375
3058.60005	4473.3375
3060.99345	4457.1375
3063.3854	4444.5375
3065.7759	4434.2375
3068.16494	4422.0375
3070.55254	4408.7375
3072.93868	4393.3375
3075.32338	4381.2375
3077.70662	4370.7375
3080.08842	4362.8375
3082.46878	4352.6375
3084.84769	4337.6375
3087.22515	4338.5375
3089.60118	4329.8375
3091.97576	4327.2375
3094.3489	4328.5375
3096.72061	4331.6375
3099.09087	4314.7375
3101.4597	4308.4375
3103.82709	4320.6375
3106.19305	4306.0375
3108.55757	4278.3375
3110.92066	4279.2375
3113.28232	4276.8375
3115.64255	4252.4375
3118.00134	4265.6375
3120.35871	4253.6375
3122.71466	4248.0375
3125.06917	4226.2375
3127.42226	4231.8375
3129.77393	4241.3375
3132.12417	4225.6375
3134.47299	4224.3375
3136.82039	4227.1375
3139.16636	4223.0375
3141.51092	4225.7375
3143.85406	4218.6375
3146.19579	4219.6375
3148.53609	4229.6375
3150.87499	4217.0375
3153.21246	4206.8375
3155.54853	4229.2375
3157.88318	4225.1375
3160.21642	4216.0375
3162.54826	4218.7375
3164.87868	4203.5375
3167.2077	4209.7375
3169.5353	4221.0375
3171.86151	4203.2375
3174.18631	4205.6375
3176.5097	4201.0375
3178.83169	4183.1375
3181.15228	4195.8375
3183.47147	4191.9375
3185.78926	4190.0375
3188.10565	4174.4375
3190.42065	4178.6375
3192.73424	4180.9375
3195.04645	4158.3375
3197.35725	4173.3375
3199.66667	4178.5375
3201.97469	4167.7375
3204.28132	4177.3375
3206.58656	4163.4375
3208.8904	4163.5375
3211.19287	4166.3375
3213.49394	4150.7375
3215.79363	4146.5375
3218.09193	4153.1375
3220.38884	4169.0375
3222.68438	4175.9375
3224.97853	4155.2375
3227.2713	4140.4375
3229.56269	4135.4375
3231.8527	4147.9375
3234.14133	4136.2375
3236.42858	4127.9375
3238.71446	4141.6375
3240.99896	4118.1375
3243.28209	4111.3375
3245.56384	4102.8375
3247.84423	4112.1375
3250.12324	4091.2375
3252.40088	4108.8375
3254.67715	4095.8375
3256.95205	4074.9375
3259.22558	4078.1375
3261.49775	4049.7375
3263.76855	4036.5375
3266.03799	4026.5375
3268.30606	4028.5375
3270.57277	4024.0375
3272.83812	4008.0375
3275.10211	4002.4375
3277.36474	4001.6375
3279.62601	4014.7375
3281.88593	3994.2375
3284.14448	4010.7375
3286.40168	3994.6375
3288.65753	3998.2375
3290.91202	4007.0375
3293.16516	3978.0375
3295.41695	3990.6375
3297.66738	3960.5375
3299.91647	3936.2375
3302.16421	3922.1375
3304.4106	3882.8375
3306.65564	3859.0375
3308.89933	3836.0375
3311.14169	3816.3375
3313.38269	3800.3375
3315.62236	3767.8375
3317.86068	3716.4375
3320.09766	3705.2375
3322.3333	3670.9375
3324.5676	3660.7375
3326.80056	3608.1375
3329.03219	3593.5375
3331.26248	1.1375
3333.49143	-0.4625
3335.71905	0.0375
