Data from AgNPs_FTO_APTES_UA_10um_CRN_0.1mM_R6G_10uM_NaF_0.1M_Addition_RamanShift__5__13-41-19-128.txt Node

Date: Tue Dec 21 13:41:19 GMT 2021
User: TCL
Spectrometer: QEP01345
Trigger mode: 4
Integration Time (sec): 7.000000E0
Scans to average: 10
Electric dark correction enabled: true
Nonlinearity correction enabled: false
Boxcar width: 0
XAxis mode: Raman Shifts
Number of Pixels in Spectrum: 1044
>>>>>Begin Spectral Data<<<<<
46.04893	-1.1625
50.45542	-1.1625
54.85868	-0.5625
59.25871	-0.3625
63.6555	44.7375
68.04907	51.2375
72.43941	52.3375
76.82654	52.2375
81.21044	60.4375
85.59113	60.7375
89.96862	61.4375
94.34289	62.7375
98.71396	63.8375
103.08183	68.3375
107.4465	71.0375
111.80798	72.4375
116.16626	73.8375
120.52136	75.2375
124.87327	77.0375
129.222	79.8375
133.56755	87.3375
137.90993	96.3375
142.24913	103.7375
146.58517	118.3375
150.91804	132.8375
155.24774	159.3375
159.57429	197.4375
163.89768	256.1375
168.21792	335.0375
172.53501	453.6375
176.84895	626.7375
181.15975	886.5375
185.46741	1234.9375
189.77193	1717.7375
194.07331	2299.0375
198.37157	2956.8375
202.6667	3662.2375
206.9587	4360.3375
211.24758	5080.3375
215.53334	5782.0375
219.81599	6525.7375
224.09553	7350.1375
228.37195	8243.5375
232.64527	9220.7375
236.91549	10281.5375
241.18261	11274.1375
245.44663	12236.3375
249.70755	13077.9375
253.96539	13771.2375
258.22014	14335.8375
262.4718	14802.4375
266.72039	15152.6375
270.96589	15282.0375
275.20832	15269.6375
279.44768	15102.7375
283.68397	14968.8375
287.91719	14830.9375
292.14735	14761.2375
296.37445	14754.7375
300.59849	14812.7375
304.81948	14941.7375
309.03742	14977.6375
313.25231	14865.6375
317.46415	14609.8375
321.67296	14217.1375
325.87872	13872.0375
330.08145	13649.6375
334.28114	13557.0375
338.47781	13604.5375
342.67145	13802.1375
346.86207	13978.4375
351.04966	14221.8375
355.23424	14521.1375
359.4158	14788.3375
363.59435	14950.1375
367.76989	15093.8375
371.94243	15122.3375
376.11196	15156.7375
380.27849	15233.9375
384.44203	15364.8375
388.60257	15512.9375
392.76012	15684.6375
396.91468	15939.2375
401.06626	16213.4375
405.21485	16368.9375
409.36047	16329.8375
413.50311	16076.6375
417.64277	15870.2375
421.77947	15831.6375
425.9132	15858.9375
430.04396	15895.5375
434.17176	15937.6375
438.2966	16035.0375
442.41849	16290.9375
446.53742	16764.0375
450.6534	17297.1375
454.76644	17644.1375
458.87653	17749.9375
462.98368	17614.2375
467.08789	17398.2375
471.18916	17151.2375
475.2875	16982.0375
479.38291	16837.7375
483.4754	16808.9375
487.56496	16655.7375
491.6516	16373.5375
495.73531	16098.2375
499.81612	15944.6375
503.89401	15991.6375
507.96899	15978.2375
512.04106	15903.8375
516.11023	15778.2375
520.1765	15614.2375
524.23987	15496.3375
528.30034	15361.6375
532.35792	15268.0375
536.41261	15102.6375
540.46441	14906.1375
544.51333	14848.1375
548.55936	14983.0375
552.60252	15262.5375
556.64279	15666.4375
560.6802	15970.7375
564.71473	16137.9375
568.7464	16419.6375
572.7752	16872.5375
576.80114	17345.1375
580.82422	17839.4375
584.84444	18459.4375
588.86181	19260.8375
592.87633	19890.8375
596.888	19856.7375
600.89682	19089.4375
604.9028	18918.1375
608.90594	20151.4375
612.90624	21637.8375
616.90371	20356.1375
620.89834	16925.5375
624.89015	15301.8375
628.87913	15143.1375
632.86528	15257.4375
636.84862	15322.9375
640.82913	15096.7375
644.80683	14686.6375
648.78172	14356.6375
652.75379	14288.7375
656.72306	14457.7375
660.68952	14612.4375
664.65319	14536.7375
668.61405	14305.5375
672.57211	14253.7375
676.52738	14405.4375
680.47986	14423.7375
684.42955	14330.8375
688.37646	14229.9375
692.32058	14264.5375
696.26192	14414.2375
700.20048	14592.1375
704.13626	14735.5375
708.06928	14688.7375
711.99952	14652.6375
715.927	14606.5375
719.85171	14675.0375
723.77365	14635.8375
727.69284	14425.9375
731.60928	14231.3375
735.52295	14177.0375
739.43388	14155.4375
743.34206	14207.8375
747.24749	14288.6375
751.15017	14386.9375
755.05012	14614.6375
758.94733	15052.2375
762.8418	15840.1375
766.73354	17034.9375
770.62254	18276.8375
774.50882	18644.5375
778.39237	17898.1375
782.27321	16562.0375
786.15132	15343.7375
790.02671	14582.7375
793.89938	14206.6375
797.76935	14058.9375
801.6366	14033.8375
805.50115	14005.6375
809.36299	13889.3375
813.22213	13790.7375
817.07857	13697.5375
820.93231	13604.5375
824.78336	13495.3375
828.63172	13412.5375
832.47738	13397.0375
836.32036	13385.7375
840.16066	13442.5375
843.99827	13437.9375
847.8332	13384.8375
851.66546	13304.0375
855.49504	13300.9375
859.32195	13287.7375
863.1462	13243.7375
866.96777	13235.9375
870.78668	13200.9375
874.60293	13218.9375
878.41652	13238.8375
882.22745	13275.2375
886.03573	13366.1375
889.84136	13402.5375
893.64433	13316.0375
897.44466	13226.6375
901.24235	13148.5375
905.0374	13059.4375
908.8298	12986.9375
912.61957	12971.6375
916.40671	13101.9375
920.19121	13271.4375
923.97308	13454.9375
927.75233	13526.5375
931.52895	13443.2375
935.30295	13212.7375
939.07433	12942.1375
942.84309	12714.0375
946.60924	12586.6375
950.37278	12549.5375
954.13371	12529.7375
957.89203	12485.8375
961.64774	12486.2375
965.40086	12475.4375
969.15137	12450.4375
972.89929	12355.3375
976.64461	12283.5375
980.38733	12294.9375
984.12747	12291.7375
987.86502	12367.3375
991.59999	12471.9375
995.33237	12684.6375
999.06217	13015.0375
1002.78939	13410.5375
1006.51404	13721.6375
1010.23611	13971.6375
1013.95561	14132.3375
1017.67255	14204.0375
1021.38692	14050.7375
1025.09872	13803.9375
1028.80796	13642.5375
1032.51465	13807.2375
1036.21877	14101.0375
1039.92035	14241.8375
1043.61937	14235.5375
1047.31584	14062.3375
1051.00976	13815.9375
1054.70114	13688.9375
1058.38998	13626.7375
1062.07627	13694.7375
1065.76003	13825.6375
1069.44126	13976.6375
1073.11995	14243.9375
1076.79611	14472.4375
1080.46974	14593.1375
1084.14085	14646.7375
1087.80943	14810.7375
1091.47549	14955.2375
1095.13903	15041.1375
1098.80005	14854.9375
1102.45857	14413.3375
1106.11456	14095.8375
1109.76805	13902.7375
1113.41903	13920.6375
1117.06751	13999.6375
1120.71348	14167.9375
1124.35696	14381.1375
1127.99793	14646.0375
1131.63641	14795.7375
1135.2724	14762.0375
1138.90589	14664.2375
1142.5369	14635.5375
1146.16542	14734.1375
1149.79145	14821.6375
1153.415	14970.7375
1157.03607	15170.9375
1160.65467	15609.4375
1164.27079	16374.6375
1167.88443	17331.6375
1171.49561	18503.2375
1175.10432	19916.6375
1178.71056	21688.8375
1182.31434	23380.3375
1185.91565	24215.0375
1189.51451	24008.9375
1193.11091	23202.3375
1196.70485	22131.4375
1200.29634	21122.2375
1203.88538	20386.2375
1207.47197	19938.3375
1211.05612	19556.0375
1214.63782	19111.2375
1218.21708	18648.6375
1221.79391	18229.0375
1225.36829	18002.3375
1228.94024	17767.4375
1232.50976	17465.2375
1236.07685	17135.8375
1239.6415	16911.4375
1243.20374	16850.7375
1246.76355	16992.6375
1250.32093	17274.4375
1253.8759	17665.7375
1257.42845	18258.6375
1260.97859	18881.1375
1264.52631	19512.5375
1268.07163	20164.1375
1271.61453	20821.3375
1275.15503	21481.3375
1278.69312	22207.1375
1282.22882	22915.7375
1285.76211	23776.2375
1289.29301	24867.7375
1292.82151	26046.0375
1296.34761	27505.4375
1299.87133	29160.5375
1303.39266	30918.7375
1306.9116	32574.2375
1310.42815	33953.3375
1313.94233	34694.2375
1317.45412	34434.1375
1320.96354	33559.7375
1324.47058	32639.6375
1327.97525	31905.6375
1331.47754	31454.0375
1334.97747	31062.5375
1338.47502	30614.9375
1341.97022	30079.3375
1345.46305	29573.7375
1348.95352	29220.2375
1352.44163	29450.0375
1355.92738	30400.4375
1359.41078	31985.8375
1362.89183	33388.5375
1366.37053	33185.7375
1369.84688	30766.0375
1373.32088	27292.5375
1376.79254	24705.9375
1380.26186	23605.2375
1383.72883	23388.6375
1387.19347	23249.5375
1390.65578	22945.6375
1394.11575	22822.7375
1397.57339	23081.4375
1401.0287	23473.2375
1404.48168	23797.9375
1407.93234	23789.7375
1411.38068	23266.3375
1414.82669	22486.8375
1418.27039	21511.5375
1421.71177	20593.3375
1425.15083	19729.9375
1428.58758	19355.2375
1432.02203	19547.5375
1435.45416	20038.1375
1438.88399	20650.5375
1442.31151	21138.3375
1445.73673	21414.4375
1449.15965	21705.7375
1452.58027	21813.1375
1455.9986	21771.3375
1459.41463	21893.8375
1462.82837	22188.8375
1466.23982	22653.7375
1469.64898	23134.8375
1473.05586	23402.9375
1476.46045	23477.9375
1479.86276	23403.2375
1483.26279	23216.5375
1486.66054	23139.2375
1490.05602	23354.8375
1493.44922	23643.9375
1496.84016	23968.8375
1500.22882	24380.0375
1503.61521	25048.3375
1506.99934	25888.4375
1510.38121	26488.2375
1513.76081	26595.3375
1517.13816	26028.6375
1520.51324	24962.5375
1523.88607	24082.8375
1527.25665	23671.6375
1530.62498	23513.3375
1533.99105	23356.3375
1537.35488	23058.9375
1540.71647	22523.9375
1544.07581	21820.0375
1547.4329	21090.3375
1550.78776	20518.8375
1554.14038	20088.6375
1557.49077	19886.9375
1560.83892	19806.0375
1564.18484	19905.6375
1567.52853	20050.7375
1570.86999	20315.7375
1574.20922	20675.2375
1577.54624	21066.4375
1580.88103	21174.2375
1584.2136	21320.8375
1587.54395	21913.8375
1590.87208	23072.5375
1594.19801	24596.9375
1597.52172	26084.4375
1600.84321	26488.4375
1604.16251	25328.4375
1607.47959	23110.9375
1610.79447	20751.7375
1614.10715	18641.3375
1617.41763	17068.4375
1620.7259	15998.8375
1624.03199	15506.2375
1627.33587	15543.9375
1630.63757	16011.5375
1633.93707	17150.2375
1637.23439	19027.7375
1640.52951	21849.4375
1643.82246	25330.7375
1647.11321	28348.3375
1650.40179	29170.6375
1653.68819	27170.9375
1656.97241	23355.5375
1660.25446	19510.8375
1663.53433	16656.8375
1666.81203	14805.2375
1670.08756	13659.2375
1673.36092	12929.4375
1676.63211	12484.6375
1679.90115	12146.9375
1683.16801	11906.5375
1686.43272	11702.4375
1689.69527	11581.8375
1692.95567	11459.0375
1696.2139	11434.4375
1699.46999	11361.7375
1702.72392	11328.1375
1705.97571	11289.9375
1709.22535	11216.2375
1712.47284	11148.0375
1715.71819	11145.5375
1718.96139	11083.3375
1722.20246	11019.9375
1725.44139	10983.8375
1728.67818	10887.4375
1731.91284	10844.8375
1735.14537	10782.5375
1738.37576	10756.3375
1741.60403	10688.0375
1744.83017	10642.6375
1748.05418	10651.2375
1751.27607	10629.4375
1754.49584	10646.7375
1757.71349	10659.6375
1760.92903	10637.2375
1764.14244	10609.3375
1767.35375	10570.6375
1770.56294	10513.8375
1773.77002	10485.8375
1776.97499	10462.1375
1780.17785	10410.9375
1783.37861	10367.1375
1786.57727	10315.1375
1789.77382	10301.6375
1792.96828	10278.4375
1796.16064	10238.8375
1799.3509	10231.3375
1802.53907	10206.6375
1805.72514	10160.4375
1808.90913	10123.8375
1812.09102	10105.2375
1815.27083	10087.2375
1818.44856	10058.6375
1821.6242	10045.1375
1824.79776	10039.8375
1827.96924	10050.0375
1831.13864	10019.0375
1834.30597	10029.1375
1837.47122	10023.5375
1840.6344	10025.6375
1843.7955	10012.6375
1846.95454	10000.7375
1850.11151	9985.7375
1853.26642	9998.3375
1856.41926	9957.1375
1859.57004	9962.5375
1862.71876	9942.0375
1865.86542	9938.4375
1869.01003	9934.2375
1872.15258	9908.6375
1875.29308	9928.0375
1878.43152	9890.0375
1881.56792	9890.4375
1884.70227	9877.1375
1887.83457	9878.1375
1890.96482	9823.8375
1894.09304	9818.0375
1897.21921	9835.6375
1900.34335	9821.4375
1903.46544	9805.1375
1906.58551	9798.7375
1909.70353	9778.7375
1912.81953	9752.1375
1915.93349	9724.3375
1919.04543	9698.5375
1922.15534	9677.1375
1925.26322	9663.5375
1928.36908	9628.2375
1931.47292	9595.9375
1934.57473	9570.8375
1937.67453	9549.4375
1940.77232	9525.2375
1943.86808	9506.4375
1946.96184	9467.1375
1950.05358	9451.1375
1953.14331	9430.3375
1956.23103	9373.2375
1959.31675	9354.0375
1962.40046	9310.4375
1965.48217	9300.5375
1968.56188	9270.5375
1971.63959	9246.9375
1974.7153	9218.0375
1977.78901	9186.4375
1980.86073	9158.2375
1983.93046	9132.4375
1986.99819	9106.8375
1990.06394	9063.5375
1993.1277	9034.1375
1996.18947	9001.9375
1999.24925	8992.3375
2002.30706	8934.4375
2005.36288	8919.0375
2008.41672	8914.9375
2011.46859	8874.2375
2014.51848	8842.9375
2017.56639	8839.2375
2020.61233	8810.8375
2023.6563	8801.8375
2026.6983	8774.6375
2029.73833	8768.8375
2032.7764	8740.3375
2035.8125	8722.3375
2038.84664	8697.1375
2041.87881	8689.4375
2044.90903	8667.6375
2047.93729	8666.8375
2050.96359	8666.3375
2053.98794	8630.9375
2057.01034	8628.7375
2060.03078	8598.1375
2063.04927	8607.6375
2066.06582	8595.6375
2069.08042	8607.0375
2072.09307	8577.6375
2075.10378	8570.2375
2078.11255	8573.8375
2081.11938	8576.4375
2084.12426	8578.2375
2087.12722	8551.8375
2090.12824	8549.2375
2093.12732	8556.4375
2096.12447	8544.7375
2099.11969	8542.1375
2102.11299	8563.7375
2105.10435	8554.7375
2108.09379	8559.1375
2111.08131	8563.0375
2114.0669	8535.8375
2117.05057	8538.0375
2120.03233	8574.1375
2123.01216	8560.2375
2125.99008	8565.2375
2128.96609	8567.1375
2131.94018	8577.6375
2134.91236	8588.3375
2137.88263	8566.0375
2140.851	8575.1375
2143.81746	8590.2375
2146.78201	8579.4375
2149.74466	8571.8375
2152.7054	8580.3375
2155.66425	8571.7375
2158.6212	8554.6375
2161.57625	8552.8375
2164.52941	8545.6375
2167.48067	8561.2375
2170.43004	8545.1375
2173.37752	8545.3375
2176.32311	8538.3375
2179.26681	8514.1375
2182.20863	8541.1375
2185.14856	8510.7375
2188.08661	8533.6375
2191.02278	8504.7375
2193.95707	8514.2375
2196.88948	8508.1375
2199.82001	8511.8375
2202.74867	8498.9375
2205.67545	8481.4375
2208.60037	8474.0375
2211.52341	8466.3375
2214.44458	8440.4375
2217.36388	8434.6375
2220.28132	8416.9375
2223.1969	8397.8375
2226.11061	8398.9375
2229.02246	8373.3375
2231.93245	8381.3375
2234.84058	8352.2375
2237.74686	8358.2375
2240.65128	8332.8375
2243.55385	8351.9375
2246.45456	8330.3375
2249.35343	8290.6375
2252.25044	8276.5375
2255.14561	8274.1375
2258.03893	8276.6375
2260.93041	8256.5375
2263.82004	8230.6375
2266.70783	8215.1375
2269.59378	8162.0375
2272.4779	8151.9375
2275.36017	8136.9375
2278.24061	8131.8375
2281.11922	8103.2375
2283.996	8081.9375
2286.87094	8077.4375
2289.74405	8061.2375
2292.61534	8045.9375
2295.4848	8044.7375
2298.35243	8031.7375
2301.21824	8060.8375
2304.08223	8041.6375
2306.94439	8048.0375
2309.80474	8028.0375
2312.66327	8025.6375
2315.51999	8005.5375
2318.37489	8027.2375
2321.22797	8007.6375
2324.07925	7997.9375
2326.92871	7973.0375
2329.77637	8010.8375
2332.62222	7978.6375
2335.46626	7967.8375
2338.3085	7964.0375
2341.14893	8001.8375
2343.98756	7967.1375
2346.8244	7995.5375
2349.65943	7951.2375
2352.49267	7956.9375
2355.32411	7947.0375
2358.15376	7969.7375
2360.98161	7968.8375
2363.80768	7943.1375
2366.63195	7936.8375
2369.45444	7911.0375
2372.27514	7923.5375
2375.09405	7901.3375
2377.91118	7880.4375
2380.72652	7871.3375
2383.54009	7859.9375
2386.35187	7829.3375
2389.16188	7805.3375
2391.97011	7807.2375
2394.77657	7787.4375
2397.58125	7777.9375
2400.38416	7766.2375
2403.18529	7739.6375
2405.98466	7735.9375
2408.78226	7728.3375
2411.57809	7704.3375
2414.37216	7727.1375
2417.16446	7695.8375
2419.955	7700.0375
2422.74378	7675.0375
2425.5308	7678.9375
2428.31606	7665.7375
2431.09956	7660.7375
2433.88131	7659.2375
2436.6613	7666.1375
2439.43954	7645.0375
2442.21603	7632.4375
2444.99077	7632.5375
2447.76377	7635.9375
2450.53501	7636.4375
2453.30451	7649.3375
2456.07226	7641.2375
2458.83827	7626.7375
2461.60254	7631.0375
2464.36507	7632.0375
2467.12586	7631.6375
2469.88492	7633.3375
2472.64224	7618.8375
2475.39782	7651.6375
2478.15167	7657.5375
2480.90379	7654.6375
2483.65417	7642.5375
2486.40283	7627.8375
2489.14976	7643.8375
2491.89497	7652.3375
2494.63845	7656.1375
2497.3802	7659.7375
2500.12024	7661.0375
2502.85855	7633.2375
2505.59514	7615.7375
2508.33002	7603.2375
2511.06318	7605.9375
2513.79462	7572.5375
2516.52435	7599.4375
2519.25237	7589.7375
2521.97867	7566.2375
2524.70327	7550.3375
2527.42616	7557.3375
2530.14734	7530.8375
2532.86681	7529.9375
2535.58458	7557.8375
2538.30065	7514.5375
2541.01501	7521.1375
2543.72768	7500.9375
2546.43864	7506.3375
2549.14791	7515.2375
2551.85548	7526.3375
2554.56136	7499.0375
2557.26554	7482.3375
2559.96803	7479.9375
2562.66883	7529.0375
2565.36794	7488.5375
2568.06536	7490.1375
2570.7611	7473.2375
2573.45514	7478.9375
2576.14751	7461.4375
2578.83819	7468.2375
2581.52719	7480.4375
2584.21451	7463.8375
2586.90015	7447.4375
2589.58411	7429.3375
2592.2664	7433.8375
2594.94701	7434.0375
2597.62594	7423.3375
2600.30321	7389.6375
2602.9788	7391.6375
2605.65273	7382.4375
2608.32498	7397.7375
2610.99557	7384.9375
2613.66449	7392.7375
2616.33175	7399.5375
2618.99734	7400.3375
2621.66128	7374.5375
2624.32355	7389.5375
2626.98416	7380.5375
2629.64311	7376.2375
2632.30041	7369.3375
2634.95605	7384.9375
2637.61004	7365.1375
2640.26238	7347.9375
2642.91306	7344.3375
2645.56209	7342.0375
2648.20948	7359.6375
2650.85521	7319.0375
2653.4993	7350.9375
2656.14175	7314.7375
2658.78255	7317.1375
2661.42171	7342.9375
2664.05923	7345.5375
2666.6951	7358.5375
2669.32934	7369.7375
2671.96194	7343.8375
2674.59291	7358.9375
2677.22224	7357.0375
2679.84993	7341.1375
2682.476	7334.2375
2685.10043	7323.5375
2687.72324	7334.6375
2690.34441	7321.8375
2692.96396	7339.4375
2695.58188	7333.3375
2698.19818	7306.5375
2700.81285	7336.5375
2703.4259	7356.7375
2706.03733	7427.3375
2708.64714	7373.4375
2711.25533	7357.3375
2713.86191	7366.0375
2716.46687	7365.3375
2719.07021	7380.5375
2721.67194	7371.1375
2724.27206	7353.6375
2726.87057	7368.9375
2729.46747	7391.7375
2732.06276	7394.7375
2734.65644	7374.8375
2737.24852	7388.0375
2739.83899	7350.5375
2742.42786	7371.2375
2745.01513	7352.4375
2747.60079	7366.4375
2750.18486	7345.7375
2752.76733	7334.5375
2755.3482	7338.4375
2757.92747	7349.8375
2760.50515	7316.8375
2763.08123	7327.5375
2765.65573	7347.3375
2768.22863	7332.5375
2770.79994	7326.7375
2773.36967	7325.9375
2775.9378	7328.2375
2778.50435	7330.0375
2781.06932	7320.4375
2783.6327	7315.8375
2786.1945	7316.0375
2788.75471	7301.5375
2791.31335	7281.9375
2793.87041	7298.6375
2796.42589	7266.7375
2798.97979	7261.8375
2801.53212	7259.4375
2804.08288	7247.2375
2806.63206	7244.9375
2809.17967	7212.5375
2811.72571	7211.1375
2814.27018	7203.2375
2816.81308	7199.7375
2819.35442	7190.0375
2821.89419	7195.9375
2824.43239	7197.0375
2826.96904	7176.9375
2829.50412	7182.3375
2832.03763	7160.6375
2834.56959	7177.6375
2837.1	7161.6375
2839.62884	7165.3375
2842.15613	7161.5375
2844.68186	7176.4375
2847.20604	7189.7375
2849.72867	7192.9375
2852.24974	7195.8375
2854.76927	7181.9375
2857.28724	7201.3375
2859.80367	7167.4375
2862.31855	7152.6375
2864.83189	7146.3375
2867.34368	7143.8375
2869.85393	7158.9375
2872.36264	7140.2375
2874.8698	7134.5375
2877.37543	7139.9375
2879.87952	7142.3375
2882.38207	7151.8375
2884.88308	7146.2375
2887.38256	7137.0375
2889.88051	7135.5375
2892.37692	7138.1375
2894.8718	7143.8375
2897.36515	7152.2375
2899.85698	7153.3375
2902.34727	7178.3375
2904.83604	7150.9375
2907.32328	7177.8375
2909.809	7184.1375
2912.29319	7183.2375
2914.77587	7184.0375
2917.25702	7217.0375
2919.73665	7181.5375
2922.21476	7199.7375
2924.69136	7192.9375
2927.16644	7210.8375
2929.64	7178.0375
2932.11205	7176.4375
2934.58258	7145.3375
2937.05161	7169.6375
2939.51912	7160.8375
2941.98513	7177.7375
2944.44962	7142.6375
2946.91261	7125.1375
2949.37409	7136.8375
2951.83407	7125.0375
2954.29254	7127.6375
2956.74951	7090.4375
2959.20498	7077.1375
2961.65895	7052.0375
2964.11142	7067.6375
2966.56239	7008.9375
2969.01186	7029.4375
2971.45984	7008.5375
2973.90632	6979.8375
2976.35131	6964.8375
2978.7948	6954.9375
2981.23681	6924.9375
2983.67732	6898.6375
2986.11635	6910.9375
2988.55388	6876.7375
2990.98993	6845.7375
2993.4245	6864.8375
2995.85758	6827.6375
2998.28917	6816.2375
3000.71928	6810.8375
3003.14791	6801.4375
3005.57506	6800.2375
3008.00073	6780.3375
3010.42493	6786.9375
3012.84764	6755.4375
3015.26888	6758.5375
3017.68865	6725.8375
3020.10694	6738.0375
3022.52376	6703.9375
3024.9391	6700.6375
3027.35298	6710.6375
3029.76539	6691.3375
3032.17632	6681.3375
3034.5858	6655.7375
3036.9938	6656.7375
3039.40034	6629.9375
3041.80542	6643.9375
3044.20903	6635.7375
3046.61118	6614.9375
3049.01187	6604.5375
3051.4111	6609.4375
3053.80888	6593.7375
3056.20519	6565.7375
3058.60005	6565.5375
3060.99345	6564.8375
3063.3854	6549.4375
3065.7759	6541.6375
3068.16494	6525.1375
3070.55254	6508.4375
3072.93868	6475.6375
3075.32338	6465.7375
3077.70662	6463.6375
3080.08842	6441.7375
3082.46878	6439.2375
3084.84769	6417.7375
3087.22515	6405.5375
3089.60118	6408.3375
3091.97576	6411.8375
3094.3489	6411.0375
3096.72061	6406.1375
3099.09087	6420.9375
3101.4597	6375.6375
3103.82709	6416.4375
3106.19305	6370.3375
3108.55757	6387.5375
3110.92066	6360.3375
3113.28232	6347.1375
3115.64255	6328.8375
3118.00134	6340.9375
3120.35871	6311.0375
3122.71466	6291.9375
3125.06917	6307.8375
3127.42226	6307.4375
3129.77393	6298.7375
3132.12417	6295.7375
3134.47299	6280.6375
3136.82039	6276.1375
3139.16636	6268.7375
3141.51092	6285.9375
3143.85406	6291.7375
3146.19579	6303.8375
3148.53609	6277.3375
3150.87499	6297.4375
3153.21246	6291.5375
3155.54853	6284.7375
3157.88318	6309.4375
3160.21642	6291.7375
3162.54826	6292.9375
3164.87868	6264.3375
3167.2077	6281.3375
3169.5353	6267.4375
3171.86151	6274.2375
3174.18631	6276.2375
3176.5097	6278.3375
3178.83169	6265.2375
3181.15228	6267.8375
3183.47147	6249.9375
3185.78926	6234.7375
3188.10565	6260.4375
3190.42065	6235.5375
3192.73424	6240.0375
3195.04645	6249.0375
3197.35725	6240.8375
3199.66667	6244.5375
3201.97469	6256.2375
3204.28132	6238.3375
3206.58656	6240.7375
3208.8904	6262.4375
3211.19287	6263.4375
3213.49394	6239.4375
3215.79363	6242.1375
3218.09193	6252.4375
3220.38884	6251.4375
3222.68438	6269.3375
3224.97853	6247.8375
3227.2713	6250.1375
3229.56269	6247.9375
3231.8527	6229.1375
3234.14133	6215.1375
3236.42858	6217.4375
3238.71446	6215.8375
3240.99896	6199.8375
3243.28209	6205.4375
3245.56384	6174.6375
3247.84423	6183.9375
3250.12324	6172.0375
3252.40088	6174.9375
3254.67715	6180.3375
3256.95205	6160.2375
3259.22558	6143.7375
3261.49775	6114.9375
3263.76855	6120.4375
3266.03799	6078.6375
3268.30606	6088.1375
3270.57277	6090.1375
3272.83812	6084.6375
3275.10211	6066.8375
3277.36474	6049.7375
3279.62601	6062.4375
3281.88593	6053.4375
3284.14448	6058.0375
3286.40168	6067.6375
3288.65753	6050.3375
3290.91202	6056.8375
3293.16516	6023.4375
3295.41695	6002.3375
3297.66738	5989.3375
3299.91647	5955.3375
3302.16421	5906.8375
3304.4106	5892.5375
3306.65564	5868.0375
3308.89933	5840.2375
3311.14169	5795.0375
3313.38269	5758.0375
3315.62236	5715.3375
3317.86068	5695.1375
3320.09766	5630.1375
3322.3333	5573.0375
3324.5676	5590.9375
3326.80056	5501.7375
3329.03219	5468.5375
3331.26248	2.6375
3333.49143	0.7375
3335.71905	0.0375
