Data from AgNPs_FTO_APTES_UA_1um_CRN_0.1mM_R6G_10uM_NaF_0.1M_Addition_RamanShift__9__11-44-38-995.txt Node

Date: Tue Dec 21 11:44:38 GMT 2021
User: TCL
Spectrometer: QEP01345
Trigger mode: 4
Integration Time (sec): 7.000000E0
Scans to average: 10
Electric dark correction enabled: true
Nonlinearity correction enabled: false
Boxcar width: 0
XAxis mode: Raman Shifts
Number of Pixels in Spectrum: 1044
>>>>>Begin Spectral Data<<<<<
46.04893	-0.2875
50.45542	-0.5875
54.85868	-0.4875
59.25871	0.1125
63.6555	35.7125
68.04907	41.1125
72.43941	45.1125
76.82654	44.9125
81.21044	48.7125
85.59113	49.6125
89.96862	51.2125
94.34289	53.2125
98.71396	52.5125
103.08183	57.5125
107.4465	58.2125
111.80798	61.9125
116.16626	62.3125
120.52136	62.7125
124.87327	63.2125
129.222	61.1125
133.56755	70.9125
137.90993	74.7125
142.24913	76.0125
146.58517	86.4125
150.91804	101.7125
155.24774	114.4125
159.57429	144.8125
163.89768	185.7125
168.21792	239.1125
172.53501	322.1125
176.84895	441.8125
181.15975	618.3125
185.46741	868.9125
189.77193	1191.4125
194.07331	1596.6125
198.37157	2063.2125
202.6667	2560.8125
206.9587	3079.3125
211.24758	3562.1125
215.53334	4061.6125
219.81599	4607.6125
224.09553	5213.0125
228.37195	5871.3125
232.64527	6564.1125
236.91549	7322.9125
241.18261	8001.4125
245.44663	8616.2125
249.70755	9111.7125
253.96539	9505.0125
258.22014	9821.6125
262.4718	10086.5125
266.72039	10186.1125
270.96589	10221.2125
275.20832	10119.4125
279.44768	9978.9125
283.68397	9806.1125
287.91719	9708.5125
292.14735	9629.4125
296.37445	9626.9125
300.59849	9708.7125
304.81948	9814.7125
309.03742	9960.2125
313.25231	10043.7125
317.46415	9947.2125
321.67296	9678.1125
325.87872	9395.1125
330.08145	9193.1125
334.28114	9109.1125
338.47781	9124.9125
342.67145	9194.4125
346.86207	9393.4125
351.04966	9596.9125
355.23424	9790.3125
359.4158	9927.4125
363.59435	9999.2125
367.76989	10015.3125
371.94243	9950.0125
376.11196	9931.4125
380.27849	9895.5125
384.44203	9905.8125
388.60257	10008.4125
392.76012	10101.1125
396.91468	10296.3125
401.06626	10497.5125
405.21485	10658.9125
409.36047	10558.1125
413.50311	10368.8125
417.64277	10241.9125
421.77947	10264.5125
425.9132	10327.6125
430.04396	10348.9125
434.17176	10394.1125
438.2966	10424.4125
442.41849	10604.7125
446.53742	10972.8125
450.6534	11343.1125
454.76644	11502.2125
458.87653	11379.1125
462.98368	11181.8125
467.08789	10948.0125
471.18916	10698.2125
475.2875	10426.3125
479.38291	10217.9125
483.4754	10100.1125
487.56496	10019.0125
491.6516	9895.5125
495.73531	9823.6125
499.81612	9805.6125
503.89401	9863.7125
507.96899	9892.8125
512.04106	9815.7125
516.11023	9724.4125
520.1765	9616.9125
524.23987	9539.4125
528.30034	9541.9125
532.35792	9480.8125
536.41261	9304.0125
540.46441	9083.3125
544.51333	8997.7125
548.55936	9072.5125
552.60252	9357.4125
556.64279	9701.1125
560.6802	9941.2125
564.71473	10016.2125
568.7464	10131.0125
572.7752	10508.1125
576.80114	10941.1125
580.82422	11480.8125
584.84444	12253.1125
588.86181	13351.3125
592.87633	14461.2125
596.888	14714.8125
600.89682	13586.5125
604.9028	12628.8125
608.90594	13165.8125
612.90624	14410.1125
616.90371	13496.6125
620.89834	10625.4125
624.89015	9229.6125
628.87913	9076.2125
632.86528	9249.8125
636.84862	9336.9125
640.82913	9169.8125
644.80683	8818.3125
648.78172	8643.0125
652.75379	8619.6125
656.72306	8759.4125
660.68952	8917.4125
664.65319	8856.0125
668.61405	8625.4125
672.57211	8589.8125
676.52738	8690.0125
680.47986	8771.1125
684.42955	8676.4125
688.37646	8516.4125
692.32058	8470.8125
696.26192	8549.6125
700.20048	8696.0125
704.13626	8798.6125
708.06928	8848.2125
711.99952	8840.9125
715.927	8819.5125
719.85171	8832.2125
723.77365	8777.0125
727.69284	8601.1125
731.60928	8449.5125
735.52295	8407.3125
739.43388	8408.8125
743.34206	8469.0125
747.24749	8561.7125
751.15017	8696.1125
755.05012	8887.7125
758.94733	9259.9125
762.8418	9967.9125
766.73354	11099.5125
770.62254	12160.1125
774.50882	12274.9125
778.39237	11523.8125
782.27321	10437.7125
786.15132	9488.7125
790.02671	8861.0125
793.89938	8563.4125
797.76935	8396.1125
801.6366	8354.7125
805.50115	8314.5125
809.36299	8243.3125
813.22213	8113.0125
817.07857	8049.6125
820.93231	7959.0125
824.78336	7897.6125
828.63172	7856.4125
832.47738	7842.9125
836.32036	7831.5125
840.16066	7803.5125
843.99827	7781.6125
847.8332	7794.1125
851.66546	7779.0125
855.49504	7790.1125
859.32195	7783.0125
863.1462	7755.4125
866.96777	7713.5125
870.78668	7708.1125
874.60293	7686.8125
878.41652	7702.4125
882.22745	7750.2125
886.03573	7782.8125
889.84136	7809.0125
893.64433	7796.8125
897.44466	7782.8125
901.24235	7754.4125
905.0374	7697.0125
908.8298	7644.7125
912.61957	7623.1125
916.40671	7679.2125
920.19121	7831.8125
923.97308	7998.4125
927.75233	8138.8125
931.52895	8086.3125
935.30295	7865.1125
939.07433	7587.6125
942.84309	7399.4125
946.60924	7279.9125
950.37278	7223.9125
954.13371	7209.9125
957.89203	7217.4125
961.64774	7225.0125
965.40086	7218.5125
969.15137	7186.4125
972.89929	7148.6125
976.64461	7079.3125
980.38733	7048.4125
984.12747	7022.2125
987.86502	7049.3125
991.59999	7102.5125
995.33237	7183.2125
999.06217	7333.0125
1002.78939	7541.7125
1006.51404	7774.8125
1010.23611	8028.8125
1013.95561	8201.0125
1017.67255	8313.9125
1021.38692	8228.0125
1025.09872	7988.1125
1028.80796	7731.9125
1032.51465	7644.7125
1036.21877	7642.9125
1039.92035	7707.6125
1043.61937	7768.0125
1047.31584	7822.7125
1051.00976	7837.5125
1054.70114	7846.5125
1058.38998	7868.0125
1062.07627	7906.7125
1065.76003	7957.9125
1069.44126	8143.5125
1073.11995	8362.9125
1076.79611	8573.0125
1080.46974	8652.3125
1084.14085	8723.2125
1087.80943	8867.8125
1091.47549	9006.9125
1095.13903	9009.6125
1098.80005	8773.9125
1102.45857	8420.7125
1106.11456	8117.4125
1109.76805	8000.8125
1113.41903	7998.3125
1117.06751	8125.0125
1120.71348	8308.4125
1124.35696	8549.4125
1127.99793	8760.8125
1131.63641	8878.9125
1135.2724	8816.9125
1138.90589	8715.6125
1142.5369	8672.1125
1146.16542	8726.0125
1149.79145	8829.0125
1153.415	8893.8125
1157.03607	9054.1125
1160.65467	9394.6125
1164.27079	10007.5125
1167.88443	10854.6125
1171.49561	11840.7125
1175.10432	13123.1125
1178.71056	14641.6125
1182.31434	15967.8125
1185.91565	16434.7125
1189.51451	16079.0125
1193.11091	15238.7125
1196.70485	14290.8125
1200.29634	13308.3125
1203.88538	12538.2125
1207.47197	12025.6125
1211.05612	11637.3125
1214.63782	11297.3125
1218.21708	10995.6125
1221.79391	10830.8125
1225.36829	10841.0125
1228.94024	10906.1125
1232.50976	10831.9125
1236.07685	10526.6125
1239.6415	10271.9125
1243.20374	10136.3125
1246.76355	10129.4125
1250.32093	10226.4125
1253.8759	10472.0125
1257.42845	10875.9125
1260.97859	11359.5125
1264.52631	11828.8125
1268.07163	12280.6125
1271.61453	12714.6125
1275.15503	13098.4125
1278.69312	13555.0125
1282.22882	14183.4125
1285.76211	14976.2125
1289.29301	15851.9125
1292.82151	16808.7125
1296.34761	17867.0125
1299.87133	19089.8125
1303.39266	20469.4125
1306.9116	21857.9125
1310.42815	23215.4125
1313.94233	24062.1125
1317.45412	23888.6125
1320.96354	22866.1125
1324.47058	21778.0125
1327.97525	20921.5125
1331.47754	20333.3125
1334.97747	19801.8125
1338.47502	19348.3125
1341.97022	18865.0125
1345.46305	18519.1125
1348.95352	18545.1125
1352.44163	19096.6125
1355.92738	20242.1125
1359.41078	22051.1125
1362.89183	23631.4125
1366.37053	23834.9125
1369.84688	21879.9125
1373.32088	18682.2125
1376.79254	16223.6125
1380.26186	15127.7125
1383.72883	14783.4125
1387.19347	14436.5125
1390.65578	14020.7125
1394.11575	13885.3125
1397.57339	14119.7125
1401.0287	14386.7125
1404.48168	14595.4125
1407.93234	14526.3125
1411.38068	14216.0125
1414.82669	13778.5125
1418.27039	13301.8125
1421.71177	12796.0125
1425.15083	12308.8125
1428.58758	12048.4125
1432.02203	12170.1125
1435.45416	12505.3125
1438.88399	12848.7125
1442.31151	13036.7125
1445.73673	13158.1125
1449.15965	13297.0125
1452.58027	13279.0125
1455.9986	13156.3125
1459.41463	13155.6125
1462.82837	13406.0125
1466.23982	13785.7125
1469.64898	14179.1125
1473.05586	14434.0125
1476.46045	14566.2125
1479.86276	14638.8125
1483.26279	14670.4125
1486.66054	14880.7125
1490.05602	15226.2125
1493.44922	15700.7125
1496.84016	16242.1125
1500.22882	16909.3125
1503.61521	17761.2125
1506.99934	18684.4125
1510.38121	19306.7125
1513.76081	19291.1125
1517.13816	18512.9125
1520.51324	17331.0125
1523.88607	16353.5125
1527.25665	15790.2125
1530.62498	15535.8125
1533.99105	15293.7125
1537.35488	14907.0125
1540.71647	14371.3125
1544.07581	13756.9125
1547.4329	13133.9125
1550.78776	12629.8125
1554.14038	12254.5125
1557.49077	12095.3125
1560.83892	12097.6125
1564.18484	12228.2125
1567.52853	12489.0125
1570.86999	12718.4125
1574.20922	13029.1125
1577.54624	13213.6125
1580.88103	13064.2125
1584.2136	12874.9125
1587.54395	13040.0125
1590.87208	13711.6125
1594.19801	14843.1125
1597.52172	16075.7125
1600.84321	16591.6125
1604.16251	15974.0125
1607.47959	14502.8125
1610.79447	12798.1125
1614.10715	11293.2125
1617.41763	10185.0125
1620.7259	9434.6125
1624.03199	9081.0125
1627.33587	9071.8125
1630.63757	9407.7125
1633.93707	10235.3125
1637.23439	11698.4125
1640.52951	14003.9125
1643.82246	17034.3125
1647.11321	19880.6125
1650.40179	20876.0125
1653.68819	19288.8125
1656.97241	16076.6125
1660.25446	12817.7125
1663.53433	10428.3125
1666.81203	8971.3125
1670.08756	8119.4125
1673.36092	7616.7125
1676.63211	7293.3125
1679.90115	7062.9125
1683.16801	6896.1125
1686.43272	6777.0125
1689.69527	6658.0125
1692.95567	6618.0125
1696.2139	6567.2125
1699.46999	6528.6125
1702.72392	6494.0125
1705.97571	6474.3125
1709.22535	6413.0125
1712.47284	6383.8125
1715.71819	6368.2125
1718.96139	6349.7125
1722.20246	6322.7125
1725.44139	6290.6125
1728.67818	6227.3125
1731.91284	6180.4125
1735.14537	6124.2125
1738.37576	6107.7125
1741.60403	6079.8125
1744.83017	6038.0125
1748.05418	6059.6125
1751.27607	6080.4125
1754.49584	6120.6125
1757.71349	6133.7125
1760.92903	6134.6125
1764.14244	6093.0125
1767.35375	6057.1125
1770.56294	5992.7125
1773.77002	5934.6125
1776.97499	5894.9125
1780.17785	5873.5125
1783.37861	5829.9125
1786.57727	5809.8125
1789.77382	5769.2125
1792.96828	5749.3125
1796.16064	5719.9125
1799.3509	5701.4125
1802.53907	5688.1125
1805.72514	5665.2125
1808.90913	5648.7125
1812.09102	5640.1125
1815.27083	5621.1125
1818.44856	5606.8125
1821.6242	5604.1125
1824.79776	5614.4125
1827.96924	5594.3125
1831.13864	5590.3125
1834.30597	5605.8125
1837.47122	5603.2125
1840.6344	5597.4125
1843.7955	5608.9125
1846.95454	5615.6125
1850.11151	5598.5125
1853.26642	5604.4125
1856.41926	5583.0125
1859.57004	5595.4125
1862.71876	5556.1125
1865.86542	5570.7125
1869.01003	5562.0125
1872.15258	5558.5125
1875.29308	5553.5125
1878.43152	5540.6125
1881.56792	5502.9125
1884.70227	5513.3125
1887.83457	5502.4125
1890.96482	5499.9125
1894.09304	5481.6125
1897.21921	5481.8125
1900.34335	5438.0125
1903.46544	5447.1125
1906.58551	5437.1125
1909.70353	5417.5125
1912.81953	5392.9125
1915.93349	5384.2125
1919.04543	5376.2125
1922.15534	5349.3125
1925.26322	5335.0125
1928.36908	5329.5125
1931.47292	5303.6125
1934.57473	5262.7125
1937.67453	5260.4125
1940.77232	5234.6125
1943.86808	5236.3125
1946.96184	5214.4125
1950.05358	5201.2125
1953.14331	5192.1125
1956.23103	5173.5125
1959.31675	5157.1125
1962.40046	5128.2125
1965.48217	5117.3125
1968.56188	5102.7125
1971.63959	5084.2125
1974.7153	5065.9125
1977.78901	5050.8125
1980.86073	5026.3125
1983.93046	5024.4125
1986.99819	5003.7125
1990.06394	4978.8125
1993.1277	4960.1125
1996.18947	4938.2125
1999.24925	4932.6125
2002.30706	4923.3125
2005.36288	4892.2125
2008.41672	4888.3125
2011.46859	4882.5125
2014.51848	4862.7125
2017.56639	4844.1125
2020.61233	4823.4125
2023.6563	4831.6125
2026.6983	4804.7125
2029.73833	4803.4125
2032.7764	4773.8125
2035.8125	4767.3125
2038.84664	4752.4125
2041.87881	4741.2125
2044.90903	4739.4125
2047.93729	4736.7125
2050.96359	4744.1125
2053.98794	4726.6125
2057.01034	4711.4125
2060.03078	4703.5125
2063.04927	4707.1125
2066.06582	4701.3125
2069.08042	4695.1125
2072.09307	4688.5125
2075.10378	4669.8125
2078.11255	4695.3125
2081.11938	4694.1125
2084.12426	4693.1125
2087.12722	4688.7125
2090.12824	4681.6125
2093.12732	4682.7125
2096.12447	4694.5125
2099.11969	4690.3125
2102.11299	4682.1125
2105.10435	4689.6125
2108.09379	4689.3125
2111.08131	4680.2125
2114.0669	4670.5125
2117.05057	4688.9125
2120.03233	4688.2125
2123.01216	4685.5125
2125.99008	4684.2125
2128.96609	4691.8125
2131.94018	4693.4125
2134.91236	4687.4125
2137.88263	4681.6125
2140.851	4686.9125
2143.81746	4678.6125
2146.78201	4676.1125
2149.74466	4685.0125
2152.7054	4667.3125
2155.66425	4662.8125
2158.6212	4670.9125
2161.57625	4664.3125
2164.52941	4668.0125
2167.48067	4643.6125
2170.43004	4671.8125
2173.37752	4667.3125
2176.32311	4644.2125
2179.26681	4655.9125
2182.20863	4640.9125
2185.14856	4654.2125
2188.08661	4653.6125
2191.02278	4635.1125
2193.95707	4642.0125
2196.88948	4637.5125
2199.82001	4627.2125
2202.74867	4616.7125
2205.67545	4615.3125
2208.60037	4604.5125
2211.52341	4600.4125
2214.44458	4601.0125
2217.36388	4577.6125
2220.28132	4567.3125
2223.1969	4555.6125
2226.11061	4543.7125
2229.02246	4544.1125
2231.93245	4551.6125
2234.84058	4545.2125
2237.74686	4549.4125
2240.65128	4545.0125
2243.55385	4540.5125
2246.45456	4534.9125
2249.35343	4503.8125
2252.25044	4499.2125
2255.14561	4488.3125
2258.03893	4468.7125
2260.93041	4499.9125
2263.82004	4462.7125
2266.70783	4455.7125
2269.59378	4429.1125
2272.4779	4428.9125
2275.36017	4403.5125
2278.24061	4398.9125
2281.11922	4387.0125
2283.996	4373.3125
2286.87094	4372.6125
2289.74405	4366.7125
2292.61534	4356.7125
2295.4848	4342.5125
2298.35243	4338.3125
2301.21824	4340.2125
2304.08223	4346.9125
2306.94439	4340.7125
2309.80474	4329.9125
2312.66327	4339.7125
2315.51999	4313.2125
2318.37489	4325.9125
2321.22797	4314.9125
2324.07925	4322.3125
2326.92871	4299.0125
2329.77637	4302.0125
2332.62222	4293.3125
2335.46626	4300.6125
2338.3085	4291.8125
2341.14893	4299.7125
2343.98756	4303.3125
2346.8244	4303.2125
2349.65943	4287.2125
2352.49267	4292.4125
2355.32411	4294.1125
2358.15376	4305.6125
2360.98161	4300.7125
2363.80768	4308.4125
2366.63195	4308.7125
2369.45444	4290.9125
2372.27514	4293.1125
2375.09405	4291.1125
2377.91118	4276.7125
2380.72652	4273.4125
2383.54009	4247.2125
2386.35187	4236.3125
2389.16188	4216.3125
2391.97011	4215.3125
2394.77657	4197.5125
2397.58125	4187.6125
2400.38416	4196.0125
2403.18529	4177.2125
2405.98466	4194.3125
2408.78226	4167.3125
2411.57809	4169.4125
2414.37216	4163.5125
2417.16446	4154.8125
2419.955	4149.6125
2422.74378	4153.2125
2425.5308	4149.9125
2428.31606	4143.9125
2431.09956	4154.2125
2433.88131	4155.7125
2436.6613	4138.8125
2439.43954	4141.4125
2442.21603	4137.4125
2444.99077	4125.1125
2447.76377	4140.2125
2450.53501	4133.7125
2453.30451	4140.0125
2456.07226	4156.6125
2458.83827	4147.0125
2461.60254	4145.2125
2464.36507	4141.3125
2467.12586	4133.5125
2469.88492	4154.6125
2472.64224	4129.6125
2475.39782	4132.3125
2478.15167	4142.7125
2480.90379	4143.1125
2483.65417	4134.6125
2486.40283	4133.9125
2489.14976	4131.6125
2491.89497	4145.0125
2494.63845	4138.4125
2497.3802	4140.1125
2500.12024	4142.2125
2502.85855	4133.4125
2505.59514	4130.7125
2508.33002	4108.1125
2511.06318	4115.7125
2513.79462	4102.3125
2516.52435	4091.8125
2519.25237	4093.6125
2521.97867	4079.9125
2524.70327	4086.4125
2527.42616	4082.1125
2530.14734	4061.1125
2532.86681	4056.9125
2535.58458	4069.2125
2538.30065	4052.7125
2541.01501	4039.2125
2543.72768	4051.0125
2546.43864	4034.6125
2549.14791	4038.4125
2551.85548	4025.7125
2554.56136	4040.3125
2557.26554	4012.0125
2559.96803	4016.6125
2562.66883	4032.8125
2565.36794	4029.9125
2568.06536	4020.7125
2570.7611	4013.7125
2573.45514	4022.2125
2576.14751	4014.5125
2578.83819	3999.8125
2581.52719	4005.3125
2584.21451	4003.0125
2586.90015	4014.9125
2589.58411	3997.6125
2592.2664	3989.5125
2594.94701	3979.6125
2597.62594	3983.9125
2600.30321	3969.0125
2602.9788	3967.6125
2605.65273	3959.6125
2608.32498	3964.3125
2610.99557	3953.5125
2613.66449	3978.2125
2616.33175	3966.9125
2618.99734	3969.8125
2621.66128	3965.3125
2624.32355	3962.1125
2626.98416	3951.8125
2629.64311	3940.7125
2632.30041	3947.5125
2634.95605	3941.5125
2637.61004	3925.8125
2640.26238	3922.6125
2642.91306	3925.5125
2645.56209	3929.5125
2648.20948	3936.0125
2650.85521	3944.0125
2653.4993	3934.0125
2656.14175	3934.8125
2658.78255	3945.8125
2661.42171	3935.1125
2664.05923	3954.4125
2666.6951	3939.4125
2669.32934	3961.1125
2671.96194	3965.1125
2674.59291	3963.9125
2677.22224	3950.6125
2679.84993	3960.3125
2682.476	3956.0125
2685.10043	3957.1125
2687.72324	3935.9125
2690.34441	3947.0125
2692.96396	3931.0125
2695.58188	3937.3125
2698.19818	3935.6125
2700.81285	3948.8125
2703.4259	3942.6125
2706.03733	3991.6125
2708.64714	3966.2125
2711.25533	3969.4125
2713.86191	3958.0125
2716.46687	3964.0125
2719.07021	3971.7125
2721.67194	3987.8125
2724.27206	3961.5125
2726.87057	3957.9125
2729.46747	3970.9125
2732.06276	3976.8125
2734.65644	3969.9125
2737.24852	3975.0125
2739.83899	3958.3125
2742.42786	3960.2125
2745.01513	3955.0125
2747.60079	3953.8125
2750.18486	3952.8125
2752.76733	3955.4125
2755.3482	3946.5125
2757.92747	3939.8125
2760.50515	3939.3125
2763.08123	3941.6125
2765.65573	3935.3125
2768.22863	3941.4125
2770.79994	3929.4125
2773.36967	3947.5125
2775.9378	3929.5125
2778.50435	3937.4125
2781.06932	3927.1125
2783.6327	3943.4125
2786.1945	3928.7125
2788.75471	3945.8125
2791.31335	3934.0125
2793.87041	3914.8125
2796.42589	3899.0125
2798.97979	3910.3125
2801.53212	3895.7125
2804.08288	3904.1125
2806.63206	3909.2125
2809.17967	3901.5125
2811.72571	3900.5125
2814.27018	3895.3125
2816.81308	3895.4125
2819.35442	3890.9125
2821.89419	3888.7125
2824.43239	3899.6125
2826.96904	3904.4125
2829.50412	3892.5125
2832.03763	3886.3125
2834.56959	3898.8125
2837.1	3889.5125
2839.62884	3899.5125
2842.15613	3902.0125
2844.68186	3923.8125
2847.20604	3919.4125
2849.72867	3944.6125
2852.24974	3942.9125
2854.76927	3944.9125
2857.28724	3956.4125
2859.80367	3948.8125
2862.31855	3925.4125
2864.83189	3932.7125
2867.34368	3907.0125
2869.85393	3931.8125
2872.36264	3902.3125
2874.8698	3912.5125
2877.37543	3912.3125
2879.87952	3924.7125
2882.38207	3915.5125
2884.88308	3919.5125
2887.38256	3927.1125
2889.88051	3926.3125
2892.37692	3940.9125
2894.8718	3949.7125
2897.36515	3951.1125
2899.85698	3953.2125
2902.34727	3969.7125
2904.83604	3972.4125
2907.32328	3968.8125
2909.809	3993.5125
2912.29319	3988.4125
2914.77587	3992.9125
2917.25702	3996.8125
2919.73665	3995.7125
2922.21476	4003.8125
2924.69136	4019.0125
2927.16644	4005.5125
2929.64	4017.3125
2932.11205	4007.1125
2934.58258	4017.3125
2937.05161	4024.3125
2939.51912	4025.3125
2941.98513	4007.8125
2944.44962	4001.7125
2946.91261	3969.4125
2949.37409	3990.7125
2951.83407	3981.2125
2954.29254	3967.6125
2956.74951	3959.2125
2959.20498	3944.2125
2961.65895	3916.6125
2964.11142	3925.7125
2966.56239	3883.0125
2969.01186	3874.2125
2971.45984	3868.6125
2973.90632	3850.0125
2976.35131	3824.0125
2978.7948	3816.1125
2981.23681	3799.9125
2983.67732	3795.7125
2986.11635	3769.0125
2988.55388	3766.8125
2990.98993	3765.6125
2993.4245	3738.7125
2995.85758	3724.0125
2998.28917	3724.3125
3000.71928	3718.3125
3003.14791	3723.6125
3005.57506	3717.3125
3008.00073	3711.7125
3010.42493	3706.3125
3012.84764	3706.9125
3015.26888	3700.3125
3017.68865	3676.4125
3020.10694	3679.3125
3022.52376	3659.3125
3024.9391	3657.7125
3027.35298	3638.3125
3029.76539	3633.8125
3032.17632	3622.6125
3034.5858	3629.4125
3036.9938	3616.4125
3039.40034	3609.0125
3041.80542	3601.8125
3044.20903	3582.5125
3046.61118	3597.6125
3049.01187	3569.6125
3051.4111	3576.6125
3053.80888	3556.2125
3056.20519	3570.6125
3058.60005	3562.0125
3060.99345	3550.5125
3063.3854	3543.8125
3065.7759	3537.3125
3068.16494	3529.9125
3070.55254	3520.7125
3072.93868	3508.6125
3075.32338	3499.3125
3077.70662	3495.2125
3080.08842	3486.1125
3082.46878	3489.5125
3084.84769	3473.8125
3087.22515	3472.5125
3089.60118	3466.4125
3091.97576	3476.4125
3094.3489	3486.6125
3096.72061	3481.9125
3099.09087	3466.1125
3101.4597	3474.4125
3103.82709	3472.0125
3106.19305	3468.0125
3108.55757	3481.2125
3110.92066	3456.3125
3113.28232	3462.9125
3115.64255	3427.0125
3118.00134	3443.0125
3120.35871	3441.9125
3122.71466	3429.4125
3125.06917	3427.6125
3127.42226	3428.4125
3129.77393	3436.0125
3132.12417	3437.1125
3134.47299	3427.7125
3136.82039	3442.4125
3139.16636	3444.9125
3141.51092	3427.1125
3143.85406	3437.2125
3146.19579	3451.4125
3148.53609	3437.3125
3150.87499	3442.6125
3153.21246	3439.4125
3155.54853	3466.2125
3157.88318	3459.6125
3160.21642	3449.8125
3162.54826	3453.1125
3164.87868	3449.2125
3167.2077	3459.5125
3169.5353	3463.0125
3171.86151	3457.9125
3174.18631	3451.4125
3176.5097	3452.6125
3178.83169	3463.2125
3181.15228	3466.0125
3183.47147	3463.4125
3185.78926	3446.8125
3188.10565	3452.5125
3190.42065	3452.4125
3192.73424	3462.1125
3195.04645	3453.9125
3197.35725	3450.8125
3199.66667	3457.5125
3201.97469	3444.6125
3204.28132	3464.9125
3206.58656	3467.1125
3208.8904	3454.6125
3211.19287	3474.6125
3213.49394	3479.1125
3215.79363	3455.3125
3218.09193	3455.5125
3220.38884	3480.4125
3222.68438	3471.1125
3224.97853	3474.4125
3227.2713	3465.7125
3229.56269	3472.7125
3231.8527	3476.2125
3234.14133	3452.4125
3236.42858	3440.0125
3238.71446	3457.8125
3240.99896	3456.7125
3243.28209	3445.6125
3245.56384	3444.1125
3247.84423	3451.8125
3250.12324	3444.6125
3252.40088	3447.3125
3254.67715	3432.7125
3256.95205	3442.1125
3259.22558	3426.4125
3261.49775	3405.9125
3263.76855	3409.6125
3266.03799	3403.9125
3268.30606	3394.9125
3270.57277	3383.3125
3272.83812	3368.7125
3275.10211	3384.1125
3277.36474	3370.9125
3279.62601	3384.2125
3281.88593	3374.6125
3284.14448	3389.9125
3286.40168	3392.1125
3288.65753	3382.3125
3290.91202	3379.2125
3293.16516	3375.2125
3295.41695	3374.3125
3297.66738	3350.6125
3299.91647	3336.7125
3302.16421	3321.5125
3304.4106	3305.9125
3306.65564	3291.0125
3308.89933	3260.5125
3311.14169	3238.9125
3313.38269	3228.2125
3315.62236	3195.6125
3317.86068	3172.7125
3320.09766	3134.0125
3322.3333	3118.0125
3324.5676	3113.7125
3326.80056	3064.8125
3329.03219	3059.8125
3331.26248	1.3125
3333.49143	-0.5875
3335.71905	1.1125
