Data from AgNPs_FTO_APTES_UA_5um_CRN_0.1mM_R6G_10uM_NaF_0.1M_Addition_RamanShift__5__13-02-49-084.txt Node

Date: Tue Dec 21 13:02:49 GMT 2021
User: TCL
Spectrometer: QEP01345
Trigger mode: 4
Integration Time (sec): 7.000000E0
Scans to average: 10
Electric dark correction enabled: true
Nonlinearity correction enabled: false
Boxcar width: 0
XAxis mode: Raman Shifts
Number of Pixels in Spectrum: 1044
>>>>>Begin Spectral Data<<<<<
46.04893	-1.1
50.45542	-1.4
54.85868	-0.3
59.25871	1.9
63.6555	45.7
68.04907	48.1
72.43941	52.3
76.82654	49.4
81.21044	60.2
85.59113	57.5
89.96862	61.9
94.34289	60.6
98.71396	61.9
103.08183	68.7
107.4465	71.1
111.80798	74
116.16626	72.6
120.52136	73.1
124.87327	76.5
129.222	79
133.56755	85
137.90993	96.5
142.24913	101.6
146.58517	113.8
150.91804	130.6
155.24774	155.5
159.57429	193.2
163.89768	246.4
168.21792	319.5
172.53501	438.6
176.84895	603.3
181.15975	852.4
185.46741	1197.6
189.77193	1641
194.07331	2206.3
198.37157	2849.5
202.6667	3517
206.9587	4187.1
211.24758	4860.3
215.53334	5568.9
219.81599	6271.8
224.09553	7048.5
228.37195	7918.7
232.64527	8839.2
236.91549	9813.1
241.18261	10790.5
245.44663	11717.9
249.70755	12488.5
253.96539	13172.6
258.22014	13743.7
262.4718	14197.2
266.72039	14475.5
270.96589	14582.5
275.20832	14550.8
279.44768	14407.6
283.68397	14217.2
287.91719	14117.1
292.14735	14018
296.37445	13981.2
300.59849	13993.2
304.81948	14078.6
309.03742	14119.4
313.25231	14041.6
317.46415	13848.8
321.67296	13535.7
325.87872	13270.5
330.08145	13114.9
334.28114	13025.7
338.47781	13078.1
342.67145	13191
346.86207	13356.6
351.04966	13560
355.23424	13783.4
359.4158	13973
363.59435	14109
367.76989	14204.6
371.94243	14230.7
376.11196	14268.6
380.27849	14330.4
384.44203	14427
388.60257	14621.2
392.76012	14800.5
396.91468	15049.8
401.06626	15293.9
405.21485	15487.3
409.36047	15466.4
413.50311	15285
417.64277	15199
421.77947	15229.7
425.9132	15263.5
430.04396	15339.3
434.17176	15423
438.2966	15492
442.41849	15717.9
446.53742	16191.4
450.6534	16692.5
454.76644	17026
458.87653	17069
462.98368	16900.8
467.08789	16667.3
471.18916	16417
475.2875	16202.1
479.38291	16131.2
483.4754	16074.2
487.56496	15931.5
491.6516	15635.8
495.73531	15380.1
499.81612	15223
503.89401	15213.9
507.96899	15209.1
512.04106	15097.7
516.11023	14916.2
520.1765	14691.3
524.23987	14558.7
528.30034	14489.7
532.35792	14426.4
536.41261	14245.8
540.46441	14043.2
544.51333	13984.6
548.55936	14122.6
552.60252	14427.3
556.64279	14839.9
560.6802	15211.7
564.71473	15374.4
568.7464	15689.1
572.7752	16259.3
576.80114	16860.1
580.82422	17534.2
584.84444	18431.4
588.86181	19628.6
592.87633	20641.8
596.888	20596.7
600.89682	19293.5
604.9028	18391.9
608.90594	18984.6
612.90624	19970.3
616.90371	18607.3
620.89834	15654.9
624.89015	14299.5
628.87913	14138.3
632.86528	14345.4
636.84862	14361.3
640.82913	14086.8
644.80683	13709.1
648.78172	13478.3
652.75379	13420.6
656.72306	13553.8
660.68952	13711.2
664.65319	13596.1
668.61405	13399.1
672.57211	13381.5
676.52738	13517.5
680.47986	13583
684.42955	13474.6
688.37646	13332.3
692.32058	13370.3
696.26192	13531.9
700.20048	13742.8
704.13626	13848.3
708.06928	13887.8
711.99952	13860.8
715.927	13857.8
719.85171	13904.1
723.77365	13831.4
727.69284	13654.7
731.60928	13441.1
735.52295	13404.5
739.43388	13423.1
743.34206	13450.2
747.24749	13544
751.15017	13663.2
755.05012	13866.4
758.94733	14302.2
762.8418	15034.6
766.73354	16127.4
770.62254	17135.8
774.50882	17323.1
778.39237	16519.6
782.27321	15325.7
786.15132	14319.8
790.02671	13665.3
793.89938	13319
797.76935	13183.3
801.6366	13158
805.50115	13142.1
809.36299	13042.8
813.22213	12947.9
817.07857	12861.2
820.93231	12765.1
824.78336	12640.1
828.63172	12572.8
832.47738	12509
836.32036	12514
840.16066	12515.3
843.99827	12533.2
847.8332	12463
851.66546	12463.4
855.49504	12450.7
859.32195	12438.3
863.1462	12407
866.96777	12342.3
870.78668	12368.9
874.60293	12355.2
878.41652	12404.4
882.22745	12422.9
886.03573	12463.6
889.84136	12481.5
893.64433	12454.6
897.44466	12383.4
901.24235	12292.5
905.0374	12235.6
908.8298	12160.9
912.61957	12158.3
916.40671	12261.3
920.19121	12482.5
923.97308	12697.2
927.75233	12754.9
931.52895	12644.4
935.30295	12375.4
939.07433	12061.5
942.84309	11834.6
946.60924	11726.9
950.37278	11665.2
954.13371	11680.1
957.89203	11679.9
961.64774	11684.7
965.40086	11689.2
969.15137	11685.3
972.89929	11595.1
976.64461	11483.5
980.38733	11452.2
984.12747	11487.8
987.86502	11526.5
991.59999	11599.6
995.33237	11724.2
999.06217	11980.9
1002.78939	12318.7
1006.51404	12636.1
1010.23611	12919.5
1013.95561	13122.1
1017.67255	13185.3
1021.38692	13031.4
1025.09872	12725.8
1028.80796	12484.9
1032.51465	12441.9
1036.21877	12575.1
1039.92035	12688.5
1043.61937	12755.9
1047.31584	12727
1051.00976	12677.5
1054.70114	12650.2
1058.38998	12655.4
1062.07627	12755.3
1065.76003	12890.4
1069.44126	13102.1
1073.11995	13429.3
1076.79611	13669.1
1080.46974	13717.4
1084.14085	13749.3
1087.80943	13914.9
1091.47549	14094.2
1095.13903	14177.8
1098.80005	13977.3
1102.45857	13526.8
1106.11456	13147.1
1109.76805	12920.2
1113.41903	12885.7
1117.06751	12970.1
1120.71348	13147.3
1124.35696	13325.9
1127.99793	13578.3
1131.63641	13736.9
1135.2724	13785.1
1138.90589	13743.3
1142.5369	13819.4
1146.16542	13935.1
1149.79145	14097.5
1153.415	14273.9
1157.03607	14470.1
1160.65467	14928.9
1164.27079	15796.6
1167.88443	16809.1
1171.49561	17929.8
1175.10432	19281.1
1178.71056	20976.3
1182.31434	22519.6
1185.91565	23124.4
1189.51451	22764.5
1193.11091	21948.9
1196.70485	20976.7
1200.29634	20059.9
1203.88538	19399.4
1207.47197	19079.9
1211.05612	18859
1214.63782	18477.6
1218.21708	17962.2
1221.79391	17477.6
1225.36829	17219.3
1228.94024	17030.8
1232.50976	16758
1236.07685	16359.6
1239.6415	16091.6
1243.20374	15969.1
1246.76355	16077.6
1250.32093	16339.5
1253.8759	16727.5
1257.42845	17282.6
1260.97859	17887.9
1264.52631	18534.9
1268.07163	19120.9
1271.61453	19743.6
1275.15503	20373.1
1278.69312	21149.9
1282.22882	22097.8
1285.76211	23177.4
1289.29301	24463
1292.82151	25836.1
1296.34761	27363.6
1299.87133	29061.8
1303.39266	30753.3
1306.9116	32189.9
1310.42815	33295.4
1313.94233	33943.2
1317.45412	33690.9
1320.96354	32884.3
1324.47058	32044.3
1327.97525	31479.1
1331.47754	31029.7
1334.97747	30651.5
1338.47502	30034.9
1341.97022	29287.2
1345.46305	28484.2
1348.95352	27969
1352.44163	28085.3
1355.92738	29156.8
1359.41078	30765.9
1362.89183	32186
1366.37053	32319.3
1369.84688	30239.9
1373.32088	26835
1376.79254	24137.8
1380.26186	23019.5
1383.72883	22830.2
1387.19347	22757.2
1390.65578	22381.5
1394.11575	22329.5
1397.57339	22664.8
1401.0287	23213.1
1404.48168	23594.3
1407.93234	23548.4
1411.38068	22952.9
1414.82669	22050.7
1418.27039	21009.5
1421.71177	20004.9
1425.15083	19156.6
1428.58758	18738.3
1432.02203	18904.2
1435.45416	19407.6
1438.88399	20082
1442.31151	20522.3
1445.73673	20902.7
1449.15965	21184.5
1452.58027	21286.4
1455.9986	21183.7
1459.41463	21221.4
1462.82837	21541.2
1466.23982	22051.4
1469.64898	22621.3
1473.05586	22902
1476.46045	22981.9
1479.86276	22953.7
1483.26279	22785.2
1486.66054	22741.5
1490.05602	22956.4
1493.44922	23260.8
1496.84016	23529.1
1500.22882	23828.8
1503.61521	24179.9
1506.99934	24676.2
1510.38121	24977
1513.76081	24894.8
1517.13816	24385.6
1520.51324	23658.7
1523.88607	23214.5
1527.25665	23119
1530.62498	23105
1533.99105	22973
1537.35488	22589.4
1540.71647	21908.7
1544.07581	21134.8
1547.4329	20290.4
1550.78776	19646
1554.14038	19165
1557.49077	18902.8
1560.83892	18800.7
1564.18484	18837
1567.52853	18950.1
1570.86999	19199.1
1574.20922	19606
1577.54624	20053
1580.88103	20232.6
1584.2136	20535.4
1587.54395	21256
1590.87208	22510.3
1594.19801	24116.3
1597.52172	25603.1
1600.84321	26013.9
1604.16251	24756.8
1607.47959	22373.7
1610.79447	19869.2
1614.10715	17698.6
1617.41763	16158.4
1620.7259	15118.4
1624.03199	14681.4
1627.33587	14702.5
1630.63757	15236.5
1633.93707	16410
1637.23439	18467.2
1640.52951	21620.9
1643.82246	25659.2
1647.11321	28994.5
1650.40179	29817.6
1653.68819	27392.5
1656.97241	23214.3
1660.25446	19111.8
1663.53433	16034.3
1666.81203	14125.9
1670.08756	12937.3
1673.36092	12211.8
1676.63211	11744.5
1679.90115	11398.1
1683.16801	11166.7
1686.43272	11002.4
1689.69527	10852.1
1692.95567	10748.7
1696.2139	10691.5
1699.46999	10652.8
1702.72392	10605.1
1705.97571	10552
1709.22535	10488.1
1712.47284	10452.7
1715.71819	10403.8
1718.96139	10377.1
1722.20246	10320.2
1725.44139	10277.4
1728.67818	10208
1731.91284	10166.2
1735.14537	10085.1
1738.37576	10052.2
1741.60403	9975.1
1744.83017	9953
1748.05418	9936
1751.27607	9934.4
1754.49584	9966.5
1757.71349	9965.5
1760.92903	9964
1764.14244	9903
1767.35375	9893.9
1770.56294	9838.5
1773.77002	9797.6
1776.97499	9762.6
1780.17785	9725.9
1783.37861	9670.7
1786.57727	9638.9
1789.77382	9620.5
1792.96828	9579.5
1796.16064	9557.8
1799.3509	9522.2
1802.53907	9521.9
1805.72514	9495
1808.90913	9476.5
1812.09102	9450.2
1815.27083	9392.7
1818.44856	9399.5
1821.6242	9393.3
1824.79776	9375.9
1827.96924	9373.3
1831.13864	9359.4
1834.30597	9381.6
1837.47122	9346
1840.6344	9355.5
1843.7955	9342.1
1846.95454	9331.3
1850.11151	9314.9
1853.26642	9335.7
1856.41926	9317.7
1859.57004	9341.5
1862.71876	9309.5
1865.86542	9274
1869.01003	9280
1872.15258	9264.5
1875.29308	9266.6
1878.43152	9258.9
1881.56792	9230.2
1884.70227	9202.9
1887.83457	9215.2
1890.96482	9177.2
1894.09304	9160.8
1897.21921	9150.4
1900.34335	9173.3
1903.46544	9140.8
1906.58551	9138.9
1909.70353	9084.2
1912.81953	9092.9
1915.93349	9067.1
1919.04543	9067.9
1922.15534	9020.6
1925.26322	8988.3
1928.36908	8956.7
1931.47292	8918.4
1934.57473	8912.1
1937.67453	8890.2
1940.77232	8854.3
1943.86808	8851.8
1946.96184	8827.6
1950.05358	8791.9
1953.14331	8765.2
1956.23103	8732
1959.31675	8699.2
1962.40046	8682.5
1965.48217	8641.2
1968.56188	8622.8
1971.63959	8601.5
1974.7153	8572.7
1977.78901	8565.7
1980.86073	8513.3
1983.93046	8489.4
1986.99819	8463.2
1990.06394	8408
1993.1277	8420.7
1996.18947	8369.9
1999.24925	8361.6
2002.30706	8324.7
2005.36288	8334.1
2008.41672	8275.6
2011.46859	8259.2
2014.51848	8232.5
2017.56639	8204.9
2020.61233	8184.7
2023.6563	8171.9
2026.6983	8158.1
2029.73833	8153.6
2032.7764	8129.1
2035.8125	8090.6
2038.84664	8104.9
2041.87881	8083.6
2044.90903	8063.9
2047.93729	8041.9
2050.96359	8068.3
2053.98794	8028.4
2057.01034	8016
2060.03078	8008.8
2063.04927	7988.5
2066.06582	7999.5
2069.08042	7984.8
2072.09307	7960.9
2075.10378	7992.5
2078.11255	7976.6
2081.11938	7970
2084.12426	7951
2087.12722	7936.6
2090.12824	7927.3
2093.12732	7943.8
2096.12447	7940.3
2099.11969	7952.8
2102.11299	7921.3
2105.10435	7951.3
2108.09379	7947.3
2111.08131	7937.9
2114.0669	7961.1
2117.05057	7946.6
2120.03233	7975.9
2123.01216	7942.9
2125.99008	7957.2
2128.96609	7974.1
2131.94018	7955.6
2134.91236	7971
2137.88263	7927.1
2140.851	7964.7
2143.81746	7953.8
2146.78201	7944.9
2149.74466	7928.4
2152.7054	7951.8
2155.66425	7952.9
2158.6212	7946.8
2161.57625	7930.4
2164.52941	7928.9
2167.48067	7916.2
2170.43004	7917.5
2173.37752	7907.8
2176.32311	7910.2
2179.26681	7912.9
2182.20863	7907.2
2185.14856	7935
2188.08661	7918.3
2191.02278	7917.1
2193.95707	7903
2196.88948	7908
2199.82001	7894.1
2202.74867	7871.8
2205.67545	7856.9
2208.60037	7878
2211.52341	7852
2214.44458	7854.6
2217.36388	7804.3
2220.28132	7791
2223.1969	7787.9
2226.11061	7783.4
2229.02246	7792.6
2231.93245	7762.9
2234.84058	7767
2237.74686	7761.2
2240.65128	7750.7
2243.55385	7726.1
2246.45456	7718.9
2249.35343	7704.3
2252.25044	7662.1
2255.14561	7667.3
2258.03893	7646.8
2260.93041	7630.4
2263.82004	7595.4
2266.70783	7605.4
2269.59378	7580.6
2272.4779	7527.2
2275.36017	7518.7
2278.24061	7506.5
2281.11922	7505.2
2283.996	7482.6
2286.87094	7471.6
2289.74405	7447.6
2292.61534	7452.2
2295.4848	7430.5
2298.35243	7441.8
2301.21824	7439.8
2304.08223	7432.9
2306.94439	7426.8
2309.80474	7423.6
2312.66327	7409.3
2315.51999	7395.8
2318.37489	7396.2
2321.22797	7387.6
2324.07925	7379.2
2326.92871	7371.4
2329.77637	7374.5
2332.62222	7365.9
2335.46626	7358.1
2338.3085	7346.1
2341.14893	7340
2343.98756	7343.5
2346.8244	7337.3
2349.65943	7332.8
2352.49267	7324.7
2355.32411	7322.2
2358.15376	7331.9
2360.98161	7326.8
2363.80768	7333.3
2366.63195	7319
2369.45444	7304
2372.27514	7283.1
2375.09405	7287.7
2377.91118	7256.2
2380.72652	7240.4
2383.54009	7226.5
2386.35187	7208.6
2389.16188	7196.5
2391.97011	7179.5
2394.77657	7175.4
2397.58125	7172.8
2400.38416	7167.9
2403.18529	7148.6
2405.98466	7136.4
2408.78226	7117.1
2411.57809	7126.2
2414.37216	7104.1
2417.16446	7106.7
2419.955	7095.8
2422.74378	7089
2425.5308	7087.6
2428.31606	7080
2431.09956	7072.5
2433.88131	7070.6
2436.6613	7076
2439.43954	7055.4
2442.21603	7025.1
2444.99077	7039.2
2447.76377	7051.8
2450.53501	7049.6
2453.30451	7043.5
2456.07226	7040.6
2458.83827	7068.2
2461.60254	7040.9
2464.36507	7057.6
2467.12586	7042.7
2469.88492	7029.1
2472.64224	7063.5
2475.39782	7054.7
2478.15167	7034.1
2480.90379	7043.7
2483.65417	7041.5
2486.40283	7031.9
2489.14976	7015
2491.89497	7027.8
2494.63845	7043.6
2497.3802	7043
2500.12024	7028.7
2502.85855	7035.5
2505.59514	7023.2
2508.33002	7027.7
2511.06318	7006.6
2513.79462	6979.2
2516.52435	6975.5
2519.25237	6978.4
2521.97867	6945.3
2524.70327	6965.4
2527.42616	6964.2
2530.14734	6940.3
2532.86681	6943.8
2535.58458	6947
2538.30065	6933.1
2541.01501	6916.4
2543.72768	6915.4
2546.43864	6905.4
2549.14791	6901.2
2551.85548	6915
2554.56136	6889
2557.26554	6889.3
2559.96803	6897.8
2562.66883	6875.1
2565.36794	6871.7
2568.06536	6897.8
2570.7611	6880.7
2573.45514	6886.6
2576.14751	6880.2
2578.83819	6856.1
2581.52719	6875.7
2584.21451	6864.2
2586.90015	6840.1
2589.58411	6826.7
2592.2664	6834.9
2594.94701	6832.5
2597.62594	6842.2
2600.30321	6799.4
2602.9788	6786.7
2605.65273	6804.1
2608.32498	6779.4
2610.99557	6794.1
2613.66449	6791.2
2616.33175	6793.7
2618.99734	6803
2621.66128	6781.3
2624.32355	6773.5
2626.98416	6758.9
2629.64311	6772.1
2632.30041	6762
2634.95605	6775.1
2637.61004	6757
2640.26238	6739.9
2642.91306	6745.7
2645.56209	6745.3
2648.20948	6742.7
2650.85521	6740.6
2653.4993	6730.5
2656.14175	6729.4
2658.78255	6740.7
2661.42171	6755.7
2664.05923	6743.3
2666.6951	6760.3
2669.32934	6748.1
2671.96194	6772.4
2674.59291	6759.3
2677.22224	6757.7
2679.84993	6752.8
2682.476	6741.9
2685.10043	6747.3
2687.72324	6731.6
2690.34441	6745.6
2692.96396	6732.6
2695.58188	6751.9
2698.19818	6739
2700.81285	6763.1
2703.4259	6766.6
2706.03733	6821.2
2708.64714	6779.5
2711.25533	6777.3
2713.86191	6772.8
2716.46687	6798.2
2719.07021	6775
2721.67194	6771.6
2724.27206	6787.3
2726.87057	6800.8
2729.46747	6799.9
2732.06276	6784.7
2734.65644	6788.4
2737.24852	6781.8
2739.83899	6761.4
2742.42786	6779.2
2745.01513	6792.7
2747.60079	6776.7
2750.18486	6767.8
2752.76733	6769
2755.3482	6751.2
2757.92747	6765
2760.50515	6748.1
2763.08123	6765.5
2765.65573	6748.9
2768.22863	6740.1
2770.79994	6752.1
2773.36967	6756.7
2775.9378	6742.6
2778.50435	6733.7
2781.06932	6727.7
2783.6327	6744.9
2786.1945	6721.5
2788.75471	6721
2791.31335	6721.7
2793.87041	6705.4
2796.42589	6678.4
2798.97979	6671.2
2801.53212	6675.1
2804.08288	6671.6
2806.63206	6660.6
2809.17967	6652.1
2811.72571	6640.4
2814.27018	6635.3
2816.81308	6618.9
2819.35442	6627.2
2821.89419	6629.8
2824.43239	6604.5
2826.96904	6597.3
2829.50412	6617.1
2832.03763	6576.1
2834.56959	6599.3
2837.1	6589.6
2839.62884	6604
2842.15613	6596.9
2844.68186	6601.9
2847.20604	6612.4
2849.72867	6629
2852.24974	6614.8
2854.76927	6613.1
2857.28724	6634.7
2859.80367	6584.4
2862.31855	6586.3
2864.83189	6588.7
2867.34368	6590.8
2869.85393	6567
2872.36264	6562.2
2874.8698	6540.3
2877.37543	6542.7
2879.87952	6547.8
2882.38207	6559.1
2884.88308	6568.4
2887.38256	6565
2889.88051	6554.6
2892.37692	6544.3
2894.8718	6580.7
2897.36515	6577.9
2899.85698	6571.8
2902.34727	6598
2904.83604	6596.6
2907.32328	6614.6
2909.809	6611.2
2912.29319	6620.2
2914.77587	6610.2
2917.25702	6623.1
2919.73665	6600.2
2922.21476	6629.3
2924.69136	6609.1
2927.16644	6614.6
2929.64	6604.2
2932.11205	6615
2934.58258	6585
2937.05161	6629.2
2939.51912	6615.1
2941.98513	6594.9
2944.44962	6588.3
2946.91261	6566.8
2949.37409	6565.1
2951.83407	6551.3
2954.29254	6541.4
2956.74951	6509.3
2959.20498	6503.9
2961.65895	6503.7
2964.11142	6470.2
2966.56239	6456.5
2969.01186	6440.5
2971.45984	6429.1
2973.90632	6403.3
2976.35131	6381
2978.7948	6363.4
2981.23681	6352.6
2983.67732	6334
2986.11635	6325.8
2988.55388	6300.6
2990.98993	6278.1
2993.4245	6274.8
2995.85758	6253.2
2998.28917	6230.1
3000.71928	6258.2
3003.14791	6212.8
3005.57506	6229.6
3008.00073	6189.6
3010.42493	6198.7
3012.84764	6181.2
3015.26888	6177
3017.68865	6157
3020.10694	6148.6
3022.52376	6130.5
3024.9391	6129
3027.35298	6110.1
3029.76539	6104.8
3032.17632	6072.7
3034.5858	6070.4
3036.9938	6072
3039.40034	6079.4
3041.80542	6067.7
3044.20903	6057.5
3046.61118	6043.3
3049.01187	6035.1
3051.4111	6021.1
3053.80888	6007.2
3056.20519	6006.7
3058.60005	5992.6
3060.99345	5962.6
3063.3854	5951.1
3065.7759	5958.4
3068.16494	5939.6
3070.55254	5908.9
3072.93868	5905.4
3075.32338	5877.7
3077.70662	5887.2
3080.08842	5848.5
3082.46878	5863.3
3084.84769	5836.8
3087.22515	5828.1
3089.60118	5829
3091.97576	5822.3
3094.3489	5826
3096.72061	5838
3099.09087	5810.9
3101.4597	5803.7
3103.82709	5810.4
3106.19305	5819.2
3108.55757	5783.5
3110.92066	5772.3
3113.28232	5773.1
3115.64255	5749.4
3118.00134	5734.7
3120.35871	5711.9
3122.71466	5715.8
3125.06917	5699.9
3127.42226	5710.7
3129.77393	5707
3132.12417	5696.4
3134.47299	5692.3
3136.82039	5696.2
3139.16636	5704.1
3141.51092	5695.1
3143.85406	5704.9
3146.19579	5695.8
3148.53609	5691.9
3150.87499	5698.5
3153.21246	5692.1
3155.54853	5703.8
3157.88318	5681.9
3160.21642	5687.4
3162.54826	5690.3
3164.87868	5701.7
3167.2077	5678.2
3169.5353	5699
3171.86151	5681
3174.18631	5686.2
3176.5097	5677.5
3178.83169	5676
3181.15228	5675.6
3183.47147	5649
3185.78926	5646.6
3188.10565	5645
3190.42065	5659.5
3192.73424	5645.5
3195.04645	5659.2
3197.35725	5657.8
3199.66667	5643.8
3201.97469	5663.6
3204.28132	5643.5
3206.58656	5650.6
3208.8904	5634.2
3211.19287	5646.3
3213.49394	5637.1
3215.79363	5628.2
3218.09193	5627.2
3220.38884	5637
3222.68438	5648.7
3224.97853	5631.8
3227.2713	5618.7
3229.56269	5628.4
3231.8527	5628.1
3234.14133	5601.9
3236.42858	5596.1
3238.71446	5595.3
3240.99896	5587.4
3243.28209	5597.9
3245.56384	5597.9
3247.84423	5586.2
3250.12324	5597.7
3252.40088	5574.3
3254.67715	5567.9
3256.95205	5549.3
3259.22558	5520.5
3261.49775	5521.7
3263.76855	5511.3
3266.03799	5503.6
3268.30606	5489.4
3270.57277	5470.5
3272.83812	5455.2
3275.10211	5456.3
3277.36474	5450.4
3279.62601	5470.9
3281.88593	5467.4
3284.14448	5463
3286.40168	5477.1
3288.65753	5443.8
3290.91202	5453.6
3293.16516	5430.8
3295.41695	5439
3297.66738	5389.3
3299.91647	5355.8
3302.16421	5327.1
3304.4106	5298.8
3306.65564	5286.1
3308.89933	5244
3311.14169	5223.5
3313.38269	5182.4
3315.62236	5142.2
3317.86068	5103.2
3320.09766	5059.4
3322.3333	5002.1
3324.5676	5020.3
3326.80056	4946.6
3329.03219	4909.5
3331.26248	2.2
3333.49143	-0.5
3335.71905	-0.9
