Data from AgNPs_FTO_APTES_UA_0um_CRN_0.1mM_R6G_10uM_NaF_0.1M_Addition_RamanShift__54__11-14-18-960.txt Node

Date: Tue Dec 21 11:14:18 GMT 2021
User: TCL
Spectrometer: QEP01345
Trigger mode: 4
Integration Time (sec): 7.000000E0
Scans to average: 10
Electric dark correction enabled: true
Nonlinearity correction enabled: false
Boxcar width: 0
XAxis mode: Raman Shifts
Number of Pixels in Spectrum: 1044
>>>>>Begin Spectral Data<<<<<
46.04893	-1.1125
50.45542	-1.3125
54.85868	-0.5125
59.25871	0.4875
63.6555	50.4875
68.04907	54.6875
72.43941	57.8875
76.82654	57.6875
81.21044	63.5875
85.59113	63.8875
89.96862	63.0875
94.34289	68.2875
98.71396	68.0875
103.08183	75.0875
107.4465	74.6875
111.80798	78.6875
116.16626	77.0875
120.52136	85.3875
124.87327	82.7875
129.222	82.5875
133.56755	96.0875
137.90993	106.5875
142.24913	111.6875
146.58517	127.2875
150.91804	152.6875
155.24774	179.1875
159.57429	218.7875
163.89768	286.0875
168.21792	379.7875
172.53501	518.1875
176.84895	713.8875
181.15975	1008.7875
185.46741	1406.1875
189.77193	1927.7875
194.07331	2586.2875
198.37157	3313.8875
202.6667	4095.6875
206.9587	4858.7875
211.24758	5624.5875
215.53334	6407.4875
219.81599	7212.5875
224.09553	8124.0875
228.37195	9148.0875
232.64527	10238.7875
236.91549	11361.9875
241.18261	12486.1875
245.44663	13482.3875
249.70755	14430.9875
253.96539	15208.4875
258.22014	15878.2875
262.4718	16447.7875
266.72039	16819.2875
270.96589	17015.6875
275.20832	17046.4875
279.44768	17033.0875
283.68397	16990.9875
287.91719	16949.8875
292.14735	16976.8875
296.37445	16992.9875
300.59849	16993.2875
304.81948	17019.7875
309.03742	16964.7875
313.25231	16725.3875
317.46415	16305.1875
321.67296	15749.9875
325.87872	15293.4875
330.08145	15063.3875
334.28114	15007.4875
338.47781	15086.4875
342.67145	15208.2875
346.86207	15483.6875
351.04966	15820.9875
355.23424	16137.8875
359.4158	16467.4875
363.59435	16662.6875
367.76989	16745.0875
371.94243	16768.6875
376.11196	16824.6875
380.27849	16892.5875
384.44203	16996.0875
388.60257	17129.9875
392.76012	17307.9875
396.91468	17565.8875
401.06626	17938.3875
405.21485	18184.6875
409.36047	18118.3875
413.50311	17878.6875
417.64277	17771.7875
421.77947	17783.2875
425.9132	18010.9875
430.04396	18240.3875
434.17176	18412.5875
438.2966	18663.6875
442.41849	19121.3875
446.53742	19933.3875
450.6534	20849.2875
454.76644	21468.3875
458.87653	21464.9875
462.98368	21110.9875
467.08789	20560.6875
471.18916	20090.7875
475.2875	19775.6875
479.38291	19727.8875
483.4754	19731.3875
487.56496	19587.4875
491.6516	19206.4875
495.73531	18770.5875
499.81612	18512.5875
503.89401	18496.2875
507.96899	18475.5875
512.04106	18277.2875
516.11023	17873.3875
520.1765	17369.2875
524.23987	17102.1875
528.30034	16958.7875
532.35792	16824.9875
536.41261	16591.2875
540.46441	16290.5875
544.51333	16219.1875
548.55936	16400.4875
552.60252	16956.8875
556.64279	17634.3875
560.6802	18208.6875
564.71473	18608.4875
568.7464	19129.4875
572.7752	19953.6875
576.80114	20567.2875
580.82422	21069.6875
584.84444	21538.4875
588.86181	22343.3875
592.87633	23443.5875
596.888	24068.1875
600.89682	23584.5875
604.9028	23164.4875
608.90594	24136.5875
612.90624	25219.6875
616.90371	23065.8875
620.89834	18862.5875
624.89015	16973.1875
628.87913	16861.9875
632.86528	17118.9875
636.84862	17107.6875
640.82913	16768.7875
644.80683	16209.7875
648.78172	15708.5875
652.75379	15469.1875
656.72306	15580.8875
660.68952	15827.6875
664.65319	15800.4875
668.61405	15488.5875
672.57211	15415.2875
676.52738	15449.7875
680.47986	15470.8875
684.42955	15372.9875
688.37646	15199.4875
692.32058	15236.1875
696.26192	15436.4875
700.20048	15693.1875
704.13626	15846.5875
708.06928	15953.6875
711.99952	15807.8875
715.927	15717.6875
719.85171	15689.4875
723.77365	15658.9875
727.69284	15482.3875
731.60928	15290.3875
735.52295	15273.6875
739.43388	15289.9875
743.34206	15387.2875
747.24749	15541.7875
751.15017	15738.3875
755.05012	16112.5875
758.94733	16809.8875
762.8418	17972.0875
766.73354	19723.9875
770.62254	21274.9875
774.50882	21330.1875
778.39237	19896.2875
782.27321	18004.5875
786.15132	16575.7875
790.02671	15716.9875
793.89938	15282.3875
797.76935	15132.1875
801.6366	15118.5875
805.50115	15139.1875
809.36299	15061.7875
813.22213	14875.5875
817.07857	14773.4875
820.93231	14696.8875
824.78336	14542.2875
828.63172	14486.0875
832.47738	14476.1875
836.32036	14437.0875
840.16066	14496.7875
843.99827	14470.2875
847.8332	14415.4875
851.66546	14331.9875
855.49504	14297.7875
859.32195	14297.2875
863.1462	14253.3875
866.96777	14133.4875
870.78668	14120.2875
874.60293	14086.6875
878.41652	14151.6875
882.22745	14180.9875
886.03573	14229.9875
889.84136	14237.1875
893.64433	14187.9875
897.44466	14133.8875
901.24235	14039.8875
905.0374	13935.1875
908.8298	13856.6875
912.61957	13847.9875
916.40671	13982.8875
920.19121	14271.0875
923.97308	14563.1875
927.75233	14631.0875
931.52895	14465.3875
935.30295	14200.5875
939.07433	13811.0875
942.84309	13455.6875
946.60924	13289.5875
950.37278	13239.7875
954.13371	13220.8875
957.89203	13244.7875
961.64774	13192.1875
965.40086	13162.7875
969.15137	13122.6875
972.89929	13009.0875
976.64461	12884.9875
980.38733	12831.6875
984.12747	12860.5875
987.86502	12978.3875
991.59999	13160.2875
995.33237	13455.5875
999.06217	13990.2875
1002.78939	14709.3875
1006.51404	15247.0875
1010.23611	15569.6875
1013.95561	15782.8875
1017.67255	15749.8875
1021.38692	15430.3875
1025.09872	14961.6875
1028.80796	14747.6875
1032.51465	14937.9875
1036.21877	15171.3875
1039.92035	15261.3875
1043.61937	15165.9875
1047.31584	14956.1875
1051.00976	14662.3875
1054.70114	14523.4875
1058.38998	14523.9875
1062.07627	14642.5875
1065.76003	14786.9875
1069.44126	15020.3875
1073.11995	15330.9875
1076.79611	15560.6875
1080.46974	15651.6875
1084.14085	15818.0875
1087.80943	16090.6875
1091.47549	16382.4875
1095.13903	16451.0875
1098.80005	16188.8875
1102.45857	15627.6875
1106.11456	15179.7875
1109.76805	14961.4875
1113.41903	15009.8875
1117.06751	15125.0875
1120.71348	15368.9875
1124.35696	15580.1875
1127.99793	15849.1875
1131.63641	15975.1875
1135.2724	15957.2875
1138.90589	15896.8875
1142.5369	15913.1875
1146.16542	16027.6875
1149.79145	16225.1875
1153.415	16430.8875
1157.03607	16814.9875
1160.65467	17478.4875
1164.27079	18541.0875
1167.88443	20005.8875
1171.49561	21940.6875
1175.10432	24345.2875
1178.71056	27289.1875
1182.31434	29972.3875
1185.91565	31192.4875
1189.51451	30863.7875
1193.11091	29811.4875
1196.70485	28411.8875
1200.29634	26805.9875
1203.88538	25377.7875
1207.47197	24359.9875
1211.05612	23653.5875
1214.63782	23023.2875
1218.21708	22676.8875
1221.79391	22573.7875
1225.36829	22510.8875
1228.94024	22075.4875
1232.50976	21314.5875
1236.07685	20524.2875
1239.6415	19998.5875
1243.20374	19783.7875
1246.76355	19800.8875
1250.32093	20055.0875
1253.8759	20611.5875
1257.42845	21395.5875
1260.97859	22229.6875
1264.52631	22994.8875
1268.07163	23825.7875
1271.61453	24766.2875
1275.15503	25744.2875
1278.69312	26785.1875
1282.22882	27849.3875
1285.76211	29042.3875
1289.29301	30432.8875
1292.82151	32127.1875
1296.34761	34287.9875
1299.87133	36907.5875
1303.39266	39703.6875
1306.9116	42728.4875
1310.42815	45706.1875
1313.94233	48030.1875
1317.45412	48752.7875
1320.96354	48140.8875
1324.47058	47176.3875
1327.97525	46180.5875
1331.47754	45291.9875
1334.97747	44617.7875
1338.47502	44121.5875
1341.97022	43234.9875
1345.46305	41764.8875
1348.95352	40130.9875
1352.44163	39018.6875
1355.92738	39257.2875
1359.41078	40869.2875
1362.89183	42543.8875
1366.37053	42675.0875
1369.84688	40124.5875
1373.32088	35676.9875
1376.79254	31993.3875
1380.26186	30360.6875
1383.72883	30187.4875
1387.19347	30355.0875
1390.65578	30364.6875
1394.11575	30831.3875
1397.57339	32061.8875
1401.0287	33768.4875
1404.48168	35284.3875
1407.93234	36003.4875
1411.38068	35638.8875
1414.82669	34289.3875
1418.27039	32108.9875
1421.71177	29713.5875
1425.15083	27655.2875
1428.58758	26314.0875
1432.02203	26051.4875
1435.45416	26640.2875
1438.88399	27680.5875
1442.31151	28700.2875
1445.73673	29672.6875
1449.15965	30614.7875
1452.58027	31213.0875
1455.9986	31275.4875
1459.41463	31394.3875
1462.82837	31950.5875
1466.23982	32874.5875
1469.64898	33816.9875
1473.05586	34255.9875
1476.46045	34245.2875
1479.86276	33971.2875
1483.26279	33432.5875
1486.66054	32902.8875
1490.05602	32696.8875
1493.44922	32545.0875
1496.84016	32080.5875
1500.22882	31564.3875
1503.61521	31417.9875
1506.99934	31768.8875
1510.38121	32249.4875
1513.76081	32440.0875
1517.13816	31901.0875
1520.51324	30877.5875
1523.88607	29956.6875
1527.25665	29525.3875
1530.62498	29441.1875
1533.99105	29602.5875
1537.35488	29662.3875
1540.71647	29416.9875
1544.07581	28849.1875
1547.4329	27944.1875
1550.78776	27039.7875
1554.14038	26308.8875
1557.49077	25829.9875
1560.83892	25649.2875
1564.18484	25563.5875
1567.52853	25555.4875
1570.86999	25696.5875
1574.20922	26076.3875
1577.54624	26525.9875
1580.88103	26743.3875
1584.2136	27133.6875
1587.54395	28374.1875
1590.87208	30607.3875
1594.19801	33662.7875
1597.52172	36797.4875
1600.84321	38426.8875
1604.16251	37068.5875
1607.47959	33331.8875
1610.79447	28940.7875
1614.10715	24921.8875
1617.41763	21943.4875
1620.7259	19958.3875
1624.03199	18933.2875
1627.33587	18753.5875
1630.63757	19448.8875
1633.93707	21107.7875
1637.23439	24038.0875
1640.52951	28476.2875
1643.82246	34020.6875
1647.11321	38883.3875
1650.40179	40407.6875
1653.68819	37567.5875
1656.97241	31719.1875
1660.25446	25667.2875
1663.53433	21068.5875
1666.81203	17996.1875
1670.08756	16110.9875
1673.36092	14957.5875
1676.63211	14193.5875
1679.90115	13707.3875
1683.16801	13337.0875
1686.43272	13060.7875
1689.69527	12872.3875
1692.95567	12708.9875
1696.2139	12619.7875
1699.46999	12536.0875
1702.72392	12469.9875
1705.97571	12382.5875
1709.22535	12323.6875
1712.47284	12274.9875
1715.71819	12189.2875
1718.96139	12186.3875
1722.20246	12109.5875
1725.44139	12028.9875
1728.67818	11930.4875
1731.91284	11845.3875
1735.14537	11765.6875
1738.37576	11721.5875
1741.60403	11629.8875
1744.83017	11654.3875
1748.05418	11631.2875
1751.27607	11584.0875
1754.49584	11598.4875
1757.71349	11599.8875
1760.92903	11557.5875
1764.14244	11496.7875
1767.35375	11502.3875
1770.56294	11438.1875
1773.77002	11424.1875
1776.97499	11348.7875
1780.17785	11314.4875
1783.37861	11290.4875
1786.57727	11268.2875
1789.77382	11227.0875
1792.96828	11199.2875
1796.16064	11154.7875
1799.3509	11127.8875
1802.53907	11090.6875
1805.72514	11061.4875
1808.90913	11032.4875
1812.09102	10980.1875
1815.27083	10980.8875
1818.44856	10934.8875
1821.6242	10917.5875
1824.79776	10911.1875
1827.96924	10901.7875
1831.13864	10884.0875
1834.30597	10889.7875
1837.47122	10883.8875
1840.6344	10873.5875
1843.7955	10919.9875
1846.95454	10898.8875
1850.11151	10886.1875
1853.26642	10900.8875
1856.41926	10894.8875
1859.57004	10913.7875
1862.71876	10904.3875
1865.86542	10894.8875
1869.01003	10894.8875
1872.15258	10930.7875
1875.29308	10901.0875
1878.43152	10867.5875
1881.56792	10882.5875
1884.70227	10888.7875
1887.83457	10912.3875
1890.96482	10903.1875
1894.09304	10891.2875
1897.21921	10898.7875
1900.34335	10904.2875
1903.46544	10899.2875
1906.58551	10893.0875
1909.70353	10888.1875
1912.81953	10843.5875
1915.93349	10823.0875
1919.04543	10790.8875
1922.15534	10730.3875
1925.26322	10717.5875
1928.36908	10651.6875
1931.47292	10631.7875
1934.57473	10569.4875
1937.67453	10524.0875
1940.77232	10491.9875
1943.86808	10475.3875
1946.96184	10431.0875
1950.05358	10419.8875
1953.14331	10347.8875
1956.23103	10296.3875
1959.31675	10273.9875
1962.40046	10224.5875
1965.48217	10192.6875
1968.56188	10166.1875
1971.63959	10096.2875
1974.7153	10072.5875
1977.78901	10046.1875
1980.86073	10013.7875
1983.93046	9997.9875
1986.99819	9943.1875
1990.06394	9928.0875
1993.1277	9895.8875
1996.18947	9833.7875
1999.24925	9812.6875
2002.30706	9806.6875
2005.36288	9754.3875
2008.41672	9753.8875
2011.46859	9727.4875
2014.51848	9683.3875
2017.56639	9666.7875
2020.61233	9634.1875
2023.6563	9620.9875
2026.6983	9584.5875
2029.73833	9576.8875
2032.7764	9553.3875
2035.8125	9528.9875
2038.84664	9531.9875
2041.87881	9524.7875
2044.90903	9490.4875
2047.93729	9487.3875
2050.96359	9474.7875
2053.98794	9453.5875
2057.01034	9463.0875
2060.03078	9438.8875
2063.04927	9438.9875
2066.06582	9406.3875
2069.08042	9410.6875
2072.09307	9416.8875
2075.10378	9382.1875
2078.11255	9386.3875
2081.11938	9386.9875
2084.12426	9371.4875
2087.12722	9358.5875
2090.12824	9379.2875
2093.12732	9346.0875
2096.12447	9367.6875
2099.11969	9358.9875
2102.11299	9353.4875
2105.10435	9345.1875
2108.09379	9326.7875
2111.08131	9330.8875
2114.0669	9321.3875
2117.05057	9350.6875
2120.03233	9331.7875
2123.01216	9323.7875
2125.99008	9330.0875
2128.96609	9326.0875
2131.94018	9338.3875
2134.91236	9334.9875
2137.88263	9344.9875
2140.851	9328.5875
2143.81746	9327.7875
2146.78201	9311.8875
2149.74466	9333.5875
2152.7054	9324.5875
2155.66425	9326.0875
2158.6212	9297.8875
2161.57625	9294.2875
2164.52941	9331.5875
2167.48067	9294.3875
2170.43004	9298.2875
2173.37752	9298.2875
2176.32311	9275.8875
2179.26681	9300.8875
2182.20863	9300.3875
2185.14856	9286.7875
2188.08661	9262.3875
2191.02278	9295.5875
2193.95707	9296.5875
2196.88948	9280.9875
2199.82001	9270.7875
2202.74867	9260.1875
2205.67545	9248.9875
2208.60037	9237.4875
2211.52341	9232.1875
2214.44458	9206.9875
2217.36388	9190.6875
2220.28132	9192.6875
2223.1969	9149.2875
2226.11061	9152.0875
2229.02246	9144.8875
2231.93245	9115.8875
2234.84058	9111.9875
2237.74686	9079.9875
2240.65128	9057.6875
2243.55385	9072.1875
2246.45456	9062.1875
2249.35343	9038.7875
2252.25044	9010.1875
2255.14561	9000.1875
2258.03893	8982.4875
2260.93041	8970.9875
2263.82004	8935.4875
2266.70783	8897.9875
2269.59378	8863.2875
2272.4779	8842.1875
2275.36017	8818.7875
2278.24061	8774.1875
2281.11922	8773.5875
2283.996	8760.8875
2286.87094	8761.4875
2289.74405	8749.1875
2292.61534	8728.6875
2295.4848	8734.7875
2298.35243	8758.5875
2301.21824	8714.7875
2304.08223	8708.3875
2306.94439	8728.9875
2309.80474	8729.0875
2312.66327	8725.2875
2315.51999	8726.2875
2318.37489	8723.1875
2321.22797	8716.7875
2324.07925	8678.4875
2326.92871	8681.2875
2329.77637	8670.3875
2332.62222	8671.6875
2335.46626	8671.9875
2338.3085	8672.9875
2341.14893	8665.8875
2343.98756	8682.9875
2346.8244	8683.3875
2349.65943	8680.4875
2352.49267	8667.0875
2355.32411	8696.1875
2358.15376	8680.4875
2360.98161	8679.7875
2363.80768	8678.2875
2366.63195	8652.0875
2369.45444	8643.9875
2372.27514	8627.2875
2375.09405	8617.0875
2377.91118	8578.4875
2380.72652	8579.6875
2383.54009	8557.9875
2386.35187	8512.8875
2389.16188	8484.5875
2391.97011	8483.9875
2394.77657	8456.6875
2397.58125	8455.6875
2400.38416	8456.5875
2403.18529	8429.2875
2405.98466	8424.0875
2408.78226	8409.9875
2411.57809	8410.7875
2414.37216	8381.3875
2417.16446	8381.8875
2419.955	8355.6875
2422.74378	8348.8875
2425.5308	8338.3875
2428.31606	8308.7875
2431.09956	8323.7875
2433.88131	8328.5875
2436.6613	8335.2875
2439.43954	8294.8875
2442.21603	8310.5875
2444.99077	8304.3875
2447.76377	8336.4875
2450.53501	8318.3875
2453.30451	8321.5875
2456.07226	8303.3875
2458.83827	8306.9875
2461.60254	8308.6875
2464.36507	8315.8875
2467.12586	8316.2875
2469.88492	8313.1875
2472.64224	8316.9875
2475.39782	8343.0875
2478.15167	8358.8875
2480.90379	8331.5875
2483.65417	8360.2875
2486.40283	8368.2875
2489.14976	8355.3875
2491.89497	8362.1875
2494.63845	8390.0875
2497.3802	8392.0875
2500.12024	8398.2875
2502.85855	8388.0875
2505.59514	8380.4875
2508.33002	8362.0875
2511.06318	8372.6875
2513.79462	8343.0875
2516.52435	8331.1875
2519.25237	8335.9875
2521.97867	8325.9875
2524.70327	8310.4875
2527.42616	8312.0875
2530.14734	8299.4875
2532.86681	8288.0875
2535.58458	8275.1875
2538.30065	8278.3875
2541.01501	8271.6875
2543.72768	8255.3875
2546.43864	8271.7875
2549.14791	8257.5875
2551.85548	8257.1875
2554.56136	8243.4875
2557.26554	8238.4875
2559.96803	8228.8875
2562.66883	8250.1875
2565.36794	8244.3875
2568.06536	8237.3875
2570.7611	8245.6875
2573.45514	8213.4875
2576.14751	8228.6875
2578.83819	8247.2875
2581.52719	8233.6875
2584.21451	8245.4875
2586.90015	8227.9875
2589.58411	8234.4875
2592.2664	8234.6875
2594.94701	8241.3875
2597.62594	8232.2875
2600.30321	8228.0875
2602.9788	8219.6875
2605.65273	8236.8875
2608.32498	8237.1875
2610.99557	8259.0875
2613.66449	8258.5875
2616.33175	8242.5875
2618.99734	8248.9875
2621.66128	8258.5875
2624.32355	8249.8875
2626.98416	8264.8875
2629.64311	8279.0875
2632.30041	8279.2875
2634.95605	8282.6875
2637.61004	8273.3875
2640.26238	8239.4875
2642.91306	8267.7875
2645.56209	8278.8875
2648.20948	8255.8875
2650.85521	8236.3875
2653.4993	8242.1875
2656.14175	8225.6875
2658.78255	8263.2875
2661.42171	8261.3875
2664.05923	8290.7875
2666.6951	8275.5875
2669.32934	8298.0875
2671.96194	8290.2875
2674.59291	8302.1875
2677.22224	8293.3875
2679.84993	8287.8875
2682.476	8273.7875
2685.10043	8267.6875
2687.72324	8259.4875
2690.34441	8240.9875
2692.96396	8244.7875
2695.58188	8249.1875
2698.19818	8238.0875
2700.81285	8258.8875
2703.4259	8282.2875
2706.03733	8318.8875
2708.64714	8289.1875
2711.25533	8285.9875
2713.86191	8294.9875
2716.46687	8312.0875
2719.07021	8286.5875
2721.67194	8308.6875
2724.27206	8304.5875
2726.87057	8305.7875
2729.46747	8306.7875
2732.06276	8328.3875
2734.65644	8313.5875
2737.24852	8335.5875
2739.83899	8310.0875
2742.42786	8322.7875
2745.01513	8300.7875
2747.60079	8327.0875
2750.18486	8314.2875
2752.76733	8316.3875
2755.3482	8322.4875
2757.92747	8349.6875
2760.50515	8320.2875
2763.08123	8330.9875
2765.65573	8327.8875
2768.22863	8369.1875
2770.79994	8352.5875
2773.36967	8379.7875
2775.9378	8377.5875
2778.50435	8380.7875
2781.06932	8383.5875
2783.6327	8363.1875
2786.1945	8390.4875
2788.75471	8379.8875
2791.31335	8342.5875
2793.87041	8355.5875
2796.42589	8330.4875
2798.97979	8352.9875
2801.53212	8341.0875
2804.08288	8327.3875
2806.63206	8301.6875
2809.17967	8304.8875
2811.72571	8257.4875
2814.27018	8302.7875
2816.81308	8252.3875
2819.35442	8262.6875
2821.89419	8217.5875
2824.43239	8240.6875
2826.96904	8238.5875
2829.50412	8224.2875
2832.03763	8199.1875
2834.56959	8209.6875
2837.1	8208.1875
2839.62884	8201.2875
2842.15613	8176.9875
2844.68186	8207.5875
2847.20604	8211.6875
2849.72867	8211.3875
2852.24974	8181.3875
2854.76927	8188.6875
2857.28724	8193.3875
2859.80367	8191.6875
2862.31855	8152.9875
2864.83189	8169.3875
2867.34368	8148.9875
2869.85393	8144.4875
2872.36264	8149.5875
2874.8698	8161.8875
2877.37543	8144.6875
2879.87952	8160.2875
2882.38207	8149.4875
2884.88308	8181.1875
2887.38256	8192.7875
2889.88051	8172.0875
2892.37692	8181.4875
2894.8718	8163.5875
2897.36515	8221.5875
2899.85698	8207.5875
2902.34727	8222.8875
2904.83604	8240.5875
2907.32328	8244.6875
2909.809	8236.5875
2912.29319	8261.8875
2914.77587	8272.8875
2917.25702	8272.3875
2919.73665	8266.5875
2922.21476	8247.7875
2924.69136	8252.4875
2927.16644	8261.0875
2929.64	8256.4875
2932.11205	8241.5875
2934.58258	8207.2875
2937.05161	8221.5875
2939.51912	8233.7875
2941.98513	8234.0875
2944.44962	8203.0875
2946.91261	8180.7875
2949.37409	8199.1875
2951.83407	8186.3875
2954.29254	8160.7875
2956.74951	8152.5875
2959.20498	8139.7875
2961.65895	8109.6875
2964.11142	8106.1875
2966.56239	8071.3875
2969.01186	8059.1875
2971.45984	8016.3875
2973.90632	8000.3875
2976.35131	7958.2875
2978.7948	7946.3875
2981.23681	7910.3875
2983.67732	7907.0875
2986.11635	7881.6875
2988.55388	7861.5875
2990.98993	7838.5875
2993.4245	7816.0875
2995.85758	7781.3875
2998.28917	7781.6875
3000.71928	7789.5875
3003.14791	7763.7875
3005.57506	7753.6875
3008.00073	7699.0875
3010.42493	7711.3875
3012.84764	7686.8875
3015.26888	7709.1875
3017.68865	7659.7875
3020.10694	7645.4875
3022.52376	7631.9875
3024.9391	7611.5875
3027.35298	7599.9875
3029.76539	7571.7875
3032.17632	7591.7875
3034.5858	7547.9875
3036.9938	7560.8875
3039.40034	7554.8875
3041.80542	7564.5875
3044.20903	7554.6875
3046.61118	7535.1875
3049.01187	7518.4875
3051.4111	7506.9875
3053.80888	7503.0875
3056.20519	7500.1875
3058.60005	7463.2875
3060.99345	7468.9875
3063.3854	7424.7875
3065.7759	7384.0875
3068.16494	7364.8875
3070.55254	7332.4875
3072.93868	7316.2875
3075.32338	7294.8875
3077.70662	7291.2875
3080.08842	7262.0875
3082.46878	7252.8875
3084.84769	7240.4875
3087.22515	7220.1875
3089.60118	7236.8875
3091.97576	7224.0875
3094.3489	7216.5875
3096.72061	7228.2875
3099.09087	7211.5875
3101.4597	7190.3875
3103.82709	7191.9875
3106.19305	7173.9875
3108.55757	7160.9875
3110.92066	7134.2875
3113.28232	7132.7875
3115.64255	7088.2875
3118.00134	7083.5875
3120.35871	7081.2875
3122.71466	7069.4875
3125.06917	7039.4875
3127.42226	7025.3875
3129.77393	7034.3875
3132.12417	7030.5875
3134.47299	7015.9875
3136.82039	7038.9875
3139.16636	7009.8875
3141.51092	6988.0875
3143.85406	7005.8875
3146.19579	6993.0875
3148.53609	6983.3875
3150.87499	6987.3875
3153.21246	6974.6875
3155.54853	6997.4875
3157.88318	6987.5875
3160.21642	6969.0875
3162.54826	6978.6875
3164.87868	6957.4875
3167.2077	6952.2875
3169.5353	6959.4875
3171.86151	6956.2875
3174.18631	6956.0875
3176.5097	6945.1875
3178.83169	6947.4875
3181.15228	6949.1875
3183.47147	6931.1875
3185.78926	6946.7875
3188.10565	6915.6875
3190.42065	6935.2875
3192.73424	6941.8875
3195.04645	6930.8875
3197.35725	6944.5875
3199.66667	6914.9875
3201.97469	6934.9875
3204.28132	6910.7875
3206.58656	6933.7875
3208.8904	6914.4875
3211.19287	6903.5875
3213.49394	6920.8875
3215.79363	6899.9875
3218.09193	6897.7875
3220.38884	6894.5875
3222.68438	6923.6875
3224.97853	6895.0875
3227.2713	6907.0875
3229.56269	6899.1875
3231.8527	6897.8875
3234.14133	6875.2875
3236.42858	6865.9875
3238.71446	6867.5875
3240.99896	6863.3875
3243.28209	6860.3875
3245.56384	6856.2875
3247.84423	6854.1875
3250.12324	6818.9875
3252.40088	6834.6875
3254.67715	6824.2875
3256.95205	6808.0875
3259.22558	6780.6875
3261.49775	6758.9875
3263.76855	6753.3875
3266.03799	6740.2875
3268.30606	6716.5875
3270.57277	6703.1875
3272.83812	6702.2875
3275.10211	6702.6875
3277.36474	6686.8875
3279.62601	6695.3875
3281.88593	6691.7875
3284.14448	6696.6875
3286.40168	6687.9875
3288.65753	6700.6875
3290.91202	6694.3875
3293.16516	6677.4875
3295.41695	6641.9875
3297.66738	6610.8875
3299.91647	6603.3875
3302.16421	6540.8875
3304.4106	6504.7875
3306.65564	6467.4875
3308.89933	6437.1875
3311.14169	6398.4875
3313.38269	6347.0875
3315.62236	6299.3875
3317.86068	6247.1875
3320.09766	6178.0875
3322.3333	6146.5875
3324.5676	6140.3875
3326.80056	6027.3875
3329.03219	6023.7875
3331.26248	3.1875
3333.49143	-0.6125
3335.71905	0.2875
