Data from AgNPs_FTO_APTES_UA_100um_CRN_0.1mM_R6G_10uM_NaF_0.1M_Addition_RamanShift__0__15-44-59-270.txt Node

Date: Tue Dec 21 15:44:59 GMT 2021
User: TCL
Spectrometer: QEP01345
Trigger mode: 4
Integration Time (sec): 7.000000E0
Scans to average: 10
Electric dark correction enabled: true
Nonlinearity correction enabled: false
Boxcar width: 0
XAxis mode: Raman Shifts
Number of Pixels in Spectrum: 1044
>>>>>Begin Spectral Data<<<<<
46.04893	0.1875
50.45542	-0.3125
54.85868	-0.7125
59.25871	0.3875
63.6555	34.2875
68.04907	41.1875
72.43941	44.8875
76.82654	44.6875
81.21044	50.0875
85.59113	48.9875
89.96862	49.1875
94.34289	55.7875
98.71396	52.4875
103.08183	59.4875
107.4465	57.7875
111.80798	60.4875
116.16626	60.0875
120.52136	60.2875
124.87327	62.3875
129.222	59.4875
133.56755	66.6875
137.90993	73.3875
142.24913	73.8875
146.58517	81.1875
150.91804	97.1875
155.24774	106.3875
159.57429	130.1875
163.89768	167.4875
168.21792	217.2875
172.53501	291.5875
176.84895	400.5875
181.15975	564.6875
185.46741	788.3875
189.77193	1097.4875
194.07331	1466.7875
198.37157	1886.6875
202.6667	2336.7875
206.9587	2791.0875
211.24758	3254.6875
215.53334	3713.8875
219.81599	4187.4875
224.09553	4738.1875
228.37195	5343.7875
232.64527	5987.1875
236.91549	6678.2875
241.18261	7373.1875
245.44663	7981.7875
249.70755	8480.0875
253.96539	8949.1875
258.22014	9315.2875
262.4718	9633.5875
266.72039	9820.0875
270.96589	9944.7875
275.20832	9974.1875
279.44768	9873.8875
283.68397	9722.4875
287.91719	9593.8875
292.14735	9509.5875
296.37445	9530.4875
300.59849	9615.2875
304.81948	9729.0875
309.03742	9797.2875
313.25231	9732.2875
317.46415	9492.1875
321.67296	9153.1875
325.87872	8859.5875
330.08145	8690.3875
334.28114	8683.4875
338.47781	8763.6875
342.67145	8858.2875
346.86207	9081.8875
351.04966	9287.0875
355.23424	9572.5875
359.4158	9799.5875
363.59435	9942.2875
367.76989	10050.2875
371.94243	10117.4875
376.11196	10163.0875
380.27849	10198.1875
384.44203	10237.8875
388.60257	10267.2875
392.76012	10289.3875
396.91468	10402.4875
401.06626	10559.2875
405.21485	10697.0875
409.36047	10595.5875
413.50311	10344.7875
417.64277	10086.3875
421.77947	9924.1875
425.9132	9824.4875
430.04396	9825.0875
434.17176	9857.0875
438.2966	9916.9875
442.41849	10030.9875
446.53742	10159.4875
450.6534	10309.4875
454.76644	10449.7875
458.87653	10516.5875
462.98368	10539.0875
467.08789	10514.9875
471.18916	10455.4875
475.2875	10408.1875
479.38291	10352.9875
483.4754	10285.8875
487.56496	10204.6875
491.6516	10113.4875
495.73531	10047.4875
499.81612	10002.6875
503.89401	10039.0875
507.96899	10063.4875
512.04106	10102.8875
516.11023	10119.7875
520.1765	10152.7875
524.23987	10132.4875
528.30034	10061.8875
532.35792	9989.3875
536.41261	9873.8875
540.46441	9779.2875
544.51333	9740.2875
548.55936	9784.5875
552.60252	9891.2875
556.64279	10033.2875
560.6802	10124.9875
564.71473	10199.9875
568.7464	10341.7875
572.7752	10496.6875
576.80114	10529.0875
580.82422	10491.9875
584.84444	10526.2875
588.86181	10576.0875
592.87633	10586.4875
596.888	10592.8875
600.89682	10684.4875
604.9028	11146.5875
608.90594	12534.1875
612.90624	14357.3875
616.90371	14036.5875
620.89834	11506.4875
624.89015	10187.0875
628.87913	10000.3875
632.86528	10187.6875
636.84862	10390.1875
640.82913	10334.3875
644.80683	10046.1875
648.78172	9778.2875
652.75379	9653.7875
656.72306	9755.1875
660.68952	9932.9875
664.65319	9872.3875
668.61405	9641.3875
672.57211	9499.8875
676.52738	9538.1875
680.47986	9536.4875
684.42955	9499.3875
688.37646	9433.1875
692.32058	9414.6875
696.26192	9455.6875
700.20048	9516.9875
704.13626	9558.0875
708.06928	9580.9875
711.99952	9534.4875
715.927	9501.7875
719.85171	9534.0875
723.77365	9540.6875
727.69284	9517.3875
731.60928	9431.5875
735.52295	9384.9875
739.43388	9355.1875
743.34206	9360.5875
747.24749	9395.3875
751.15017	9403.1875
755.05012	9489.2875
758.94733	9715.4875
762.8418	10175.6875
766.73354	11035.0875
770.62254	12045.3875
774.50882	12571.7875
778.39237	12239.7875
782.27321	11179.8875
786.15132	10219.8875
790.02671	9641.2875
793.89938	9361.9875
797.76935	9234.4875
801.6366	9185.7875
805.50115	9147.1875
809.36299	9147.2875
813.22213	9168.6875
817.07857	9174.2875
820.93231	9141.4875
824.78336	9079.1875
828.63172	9040.6875
832.47738	9022.3875
836.32036	9026.3875
840.16066	8981.1875
843.99827	8935.5875
847.8332	8937.9875
851.66546	8897.7875
855.49504	8895.6875
859.32195	8867.5875
863.1462	8856.8875
866.96777	8853.3875
870.78668	8851.6875
874.60293	8850.7875
878.41652	8891.1875
882.22745	8929.4875
886.03573	8956.2875
889.84136	8979.8875
893.64433	8936.9875
897.44466	8899.5875
901.24235	8821.8875
905.0374	8757.4875
908.8298	8737.1875
912.61957	8694.9875
916.40671	8720.8875
920.19121	8733.8875
923.97308	8784.3875
927.75233	8818.7875
931.52895	8793.5875
935.30295	8752.7875
939.07433	8615.3875
942.84309	8466.7875
946.60924	8392.2875
950.37278	8338.2875
954.13371	8318.5875
957.89203	8283.4875
961.64774	8278.8875
965.40086	8242.0875
969.15137	8232.9875
972.89929	8223.3875
976.64461	8171.0875
980.38733	8145.5875
984.12747	8169.7875
987.86502	8171.2875
991.59999	8206.7875
995.33237	8232.6875
999.06217	8288.2875
1002.78939	8351.2875
1006.51404	8440.3875
1010.23611	8537.6875
1013.95561	8597.5875
1017.67255	8635.0875
1021.38692	8580.3875
1025.09872	8511.8875
1028.80796	8389.3875
1032.51465	8357.2875
1036.21877	8381.3875
1039.92035	8427.0875
1043.61937	8460.9875
1047.31584	8468.6875
1051.00976	8492.1875
1054.70114	8492.2875
1058.38998	8516.6875
1062.07627	8549.4875
1065.76003	8617.9875
1069.44126	8677.5875
1073.11995	8787.4875
1076.79611	8878.3875
1080.46974	8920.5875
1084.14085	8954.6875
1087.80943	9010.0875
1091.47549	9080.9875
1095.13903	9078.5875
1098.80005	8993.3875
1102.45857	8833.3875
1106.11456	8694.2875
1109.76805	8635.0875
1113.41903	8664.4875
1117.06751	8801.9875
1120.71348	8987.6875
1124.35696	9221.3875
1127.99793	9419.1875
1131.63641	9579.2875
1135.2724	9479.8875
1138.90589	9253.7875
1142.5369	9119.8875
1146.16542	8986.2875
1149.79145	8882.9875
1153.415	8838.1875
1157.03607	8818.8875
1160.65467	8887.3875
1164.27079	9068.3875
1167.88443	9382.2875
1171.49561	9811.4875
1175.10432	10457.5875
1178.71056	11352.3875
1182.31434	12090.5875
1185.91565	12395.1875
1189.51451	12250.2875
1193.11091	11794.3875
1196.70485	11312.9875
1200.29634	10895.2875
1203.88538	10616.8875
1207.47197	10299.7875
1211.05612	9992.7875
1214.63782	9760.4875
1218.21708	9553.6875
1221.79391	9392.5875
1225.36829	9323.3875
1228.94024	9249.7875
1232.50976	9215.7875
1236.07685	9164.9875
1239.6415	9165.9875
1243.20374	9188.7875
1246.76355	9202.2875
1250.32093	9315.1875
1253.8759	9400.4875
1257.42845	9587.5875
1260.97859	9766.2875
1264.52631	9972.8875
1268.07163	10157.8875
1271.61453	10336.0875
1275.15503	10445.4875
1278.69312	10578.0875
1282.22882	10715.3875
1285.76211	10940.4875
1289.29301	11166.8875
1292.82151	11522.0875
1296.34761	11946.3875
1299.87133	12420.9875
1303.39266	12992.8875
1306.9116	13795.6875
1310.42815	14607.0875
1313.94233	15087.3875
1317.45412	14929.0875
1320.96354	14410.5875
1324.47058	13893.1875
1327.97525	13388.2875
1331.47754	12945.7875
1334.97747	12707.7875
1338.47502	12578.5875
1341.97022	12627.8875
1345.46305	12784.7875
1348.95352	13106.9875
1352.44163	13555.6875
1355.92738	14308.4875
1359.41078	15493.5875
1362.89183	16797.9875
1366.37053	16891.3875
1369.84688	15228.8875
1373.32088	13232.9875
1376.79254	11889.1875
1380.26186	11205.8875
1383.72883	10918.2875
1387.19347	10703.0875
1390.65578	10497.5875
1394.11575	10290.8875
1397.57339	10141.3875
1401.0287	10083.8875
1404.48168	10019.6875
1407.93234	9917.4875
1411.38068	9750.5875
1414.82669	9592.0875
1418.27039	9395.5875
1421.71177	9226.1875
1425.15083	9054.7875
1428.58758	8934.4875
1432.02203	8897.8875
1435.45416	8952.4875
1438.88399	9032.6875
1442.31151	9118.9875
1445.73673	9187.8875
1449.15965	9292.7875
1452.58027	9371.7875
1455.9986	9386.5875
1459.41463	9402.9875
1462.82837	9480.1875
1466.23982	9590.6875
1469.64898	9749.3875
1473.05586	9869.8875
1476.46045	9897.3875
1479.86276	9962.8875
1483.26279	10036.3875
1486.66054	10153.9875
1490.05602	10350.6875
1493.44922	10655.6875
1496.84016	11189.9875
1500.22882	11980.7875
1503.61521	13055.4875
1506.99934	14257.8875
1510.38121	15237.6875
1513.76081	15558.3875
1517.13816	14890.5875
1520.51324	13626.7875
1523.88607	12399.4875
1527.25665	11551.5875
1530.62498	11067.9875
1533.99105	10791.4875
1537.35488	10551.0875
1540.71647	10342.6875
1544.07581	10140.5875
1547.4329	9982.7875
1550.78776	9870.1875
1554.14038	9825.3875
1557.49077	9852.6875
1560.83892	9959.9875
1564.18484	10118.2875
1567.52853	10344.0875
1570.86999	10555.8875
1574.20922	10737.5875
1577.54624	10774.2875
1580.88103	10520.1875
1584.2136	10168.2875
1587.54395	9921.0875
1590.87208	9886.0875
1594.19801	10068.2875
1597.52172	10422.9875
1600.84321	10565.3875
1604.16251	10331.3875
1607.47959	9859.5875
1610.79447	9400.4875
1614.10715	8952.8875
1617.41763	8519.8875
1620.7259	8235.5875
1624.03199	8069.4875
1627.33587	8017.1875
1630.63757	8095.1875
1633.93707	8314.5875
1637.23439	8743.4875
1640.52951	9417.0875
1643.82246	10344.4875
1647.11321	11451.8875
1650.40179	12282.0875
1653.68819	12199.0875
1656.97241	11171.4875
1660.25446	9822.8875
1663.53433	8744.6875
1666.81203	8070.2875
1670.08756	7633.5875
1673.36092	7348.7875
1676.63211	7184.5875
1679.90115	7032.8875
1683.16801	6954.7875
1686.43272	6872.7875
1689.69527	6829.7875
1692.95567	6786.3875
1696.2139	6772.7875
1699.46999	6758.6875
1702.72392	6715.8875
1705.97571	6649.3875
1709.22535	6554.9875
1712.47284	6528.2875
1715.71819	6481.4875
1718.96139	6445.7875
1722.20246	6387.7875
1725.44139	6343.7875
1728.67818	6313.1875
1731.91284	6266.6875
1735.14537	6249.4875
1738.37576	6204.2875
1741.60403	6187.1875
1744.83017	6170.7875
1748.05418	6167.6875
1751.27607	6145.6875
1754.49584	6138.8875
1757.71349	6151.7875
1760.92903	6137.1875
1764.14244	6111.2875
1767.35375	6105.4875
1770.56294	6074.2875
1773.77002	6056.1875
1776.97499	6017.9875
1780.17785	5999.7875
1783.37861	5974.6875
1786.57727	5945.4875
1789.77382	5928.9875
1792.96828	5913.4875
1796.16064	5890.7875
1799.3509	5870.4875
1802.53907	5844.2875
1805.72514	5820.0875
1808.90913	5805.4875
1812.09102	5769.2875
1815.27083	5776.8875
1818.44856	5745.9875
1821.6242	5752.8875
1824.79776	5738.4875
1827.96924	5709.2875
1831.13864	5706.8875
1834.30597	5694.0875
1837.47122	5673.4875
1840.6344	5651.8875
1843.7955	5655.3875
1846.95454	5675.5875
1850.11151	5659.0875
1853.26642	5650.1875
1856.41926	5640.2875
1859.57004	5626.9875
1862.71876	5619.6875
1865.86542	5611.7875
1869.01003	5603.8875
1872.15258	5597.9875
1875.29308	5570.6875
1878.43152	5559.5875
1881.56792	5548.0875
1884.70227	5539.3875
1887.83457	5520.0875
1890.96482	5517.4875
1894.09304	5517.0875
1897.21921	5491.3875
1900.34335	5480.4875
1903.46544	5481.3875
1906.58551	5453.5875
1909.70353	5476.7875
1912.81953	5451.3875
1915.93349	5430.4875
1919.04543	5428.3875
1922.15534	5400.0875
1925.26322	5392.9875
1928.36908	5368.3875
1931.47292	5372.1875
1934.57473	5358.9875
1937.67453	5358.6875
1940.77232	5300.6875
1943.86808	5292.8875
1946.96184	5275.8875
1950.05358	5244.5875
1953.14331	5240.0875
1956.23103	5223.7875
1959.31675	5223.4875
1962.40046	5192.9875
1965.48217	5185.6875
1968.56188	5144.5875
1971.63959	5138.8875
1974.7153	5131.9875
1977.78901	5107.6875
1980.86073	5079.0875
1983.93046	5064.8875
1986.99819	5029.1875
1990.06394	5022.0875
1993.1277	5018.8875
1996.18947	4989.3875
1999.24925	4975.7875
2002.30706	4942.7875
2005.36288	4933.4875
2008.41672	4923.1875
2011.46859	4904.4875
2014.51848	4887.0875
2017.56639	4858.8875
2020.61233	4836.1875
2023.6563	4819.8875
2026.6983	4807.0875
2029.73833	4800.8875
2032.7764	4767.7875
2035.8125	4759.6875
2038.84664	4747.6875
2041.87881	4742.5875
2044.90903	4744.5875
2047.93729	4722.2875
2050.96359	4710.9875
2053.98794	4708.7875
2057.01034	4699.6875
2060.03078	4705.8875
2063.04927	4669.7875
2066.06582	4667.0875
2069.08042	4666.6875
2072.09307	4665.2875
2075.10378	4647.8875
2078.11255	4630.1875
2081.11938	4640.4875
2084.12426	4635.6875
2087.12722	4633.0875
2090.12824	4628.8875
2093.12732	4619.6875
2096.12447	4629.7875
2099.11969	4616.1875
2102.11299	4602.8875
2105.10435	4637.5875
2108.09379	4614.1875
2111.08131	4617.2875
2114.0669	4611.8875
2117.05057	4625.7875
2120.03233	4622.5875
2123.01216	4604.7875
2125.99008	4612.0875
2128.96609	4622.1875
2131.94018	4611.7875
2134.91236	4612.2875
2137.88263	4594.5875
2140.851	4597.7875
2143.81746	4610.3875
2146.78201	4598.3875
2149.74466	4587.7875
2152.7054	4597.0875
2155.66425	4584.5875
2158.6212	4591.8875
2161.57625	4576.4875
2164.52941	4569.0875
2167.48067	4572.2875
2170.43004	4563.2875
2173.37752	4552.5875
2176.32311	4556.1875
2179.26681	4558.9875
2182.20863	4548.7875
2185.14856	4544.4875
2188.08661	4543.3875
2191.02278	4520.3875
2193.95707	4533.6875
2196.88948	4516.1875
2199.82001	4504.4875
2202.74867	4491.6875
2205.67545	4509.5875
2208.60037	4492.8875
2211.52341	4488.0875
2214.44458	4481.3875
2217.36388	4442.8875
2220.28132	4438.0875
2223.1969	4438.0875
2226.11061	4424.5875
2229.02246	4418.9875
2231.93245	4384.0875
2234.84058	4380.0875
2237.74686	4364.9875
2240.65128	4369.4875
2243.55385	4367.5875
2246.45456	4358.9875
2249.35343	4350.9875
2252.25044	4339.4875
2255.14561	4330.1875
2258.03893	4322.2875
2260.93041	4330.5875
2263.82004	4315.2875
2266.70783	4288.4875
2269.59378	4277.3875
2272.4779	4256.9875
2275.36017	4240.6875
2278.24061	4251.1875
2281.11922	4231.1875
2283.996	4216.4875
2286.87094	4216.8875
2289.74405	4200.2875
2292.61534	4201.0875
2295.4848	4177.0875
2298.35243	4160.0875
2301.21824	4156.2875
2304.08223	4166.5875
2306.94439	4153.8875
2309.80474	4143.4875
2312.66327	4132.8875
2315.51999	4113.7875
2318.37489	4140.5875
2321.22797	4112.6875
2324.07925	4101.6875
2326.92871	4106.2875
2329.77637	4106.6875
2332.62222	4093.8875
2335.46626	4080.6875
2338.3085	4077.3875
2341.14893	4060.2875
2343.98756	4057.2875
2346.8244	4057.9875
2349.65943	4042.1875
2352.49267	4050.9875
2355.32411	4051.5875
2358.15376	4055.5875
2360.98161	4029.2875
2363.80768	4029.5875
2366.63195	4053.0875
2369.45444	4032.9875
2372.27514	4038.8875
2375.09405	4016.6875
2377.91118	4002.8875
2380.72652	4005.8875
2383.54009	3996.1875
2386.35187	3972.1875
2389.16188	3954.7875
2391.97011	3955.6875
2394.77657	3938.4875
2397.58125	3921.5875
2400.38416	3908.8875
2403.18529	3910.2875
2405.98466	3903.6875
2408.78226	3890.6875
2411.57809	3878.9875
2414.37216	3869.2875
2417.16446	3869.1875
2419.955	3853.8875
2422.74378	3871.4875
2425.5308	3849.5875
2428.31606	3846.6875
2431.09956	3842.0875
2433.88131	3826.9875
2436.6613	3829.5875
2439.43954	3825.2875
2442.21603	3810.6875
2444.99077	3811.5875
2447.76377	3813.2875
2450.53501	3809.8875
2453.30451	3807.0875
2456.07226	3795.6875
2458.83827	3791.9875
2461.60254	3781.6875
2464.36507	3773.7875
2467.12586	3768.1875
2469.88492	3770.0875
2472.64224	3766.0875
2475.39782	3774.4875
2478.15167	3783.4875
2480.90379	3758.2875
2483.65417	3756.2875
2486.40283	3753.2875
2489.14976	3758.0875
2491.89497	3758.7875
2494.63845	3771.1875
2497.3802	3768.1875
2500.12024	3754.8875
2502.85855	3735.8875
2505.59514	3724.2875
2508.33002	3710.4875
2511.06318	3699.7875
2513.79462	3696.8875
2516.52435	3670.0875
2519.25237	3682.6875
2521.97867	3674.1875
2524.70327	3666.1875
2527.42616	3660.8875
2530.14734	3645.6875
2532.86681	3632.6875
2535.58458	3626.7875
2538.30065	3620.8875
2541.01501	3621.0875
2543.72768	3624.3875
2546.43864	3616.0875
2549.14791	3586.8875
2551.85548	3591.4875
2554.56136	3582.3875
2557.26554	3567.8875
2559.96803	3578.7875
2562.66883	3561.0875
2565.36794	3547.7875
2568.06536	3543.0875
2570.7611	3535.3875
2573.45514	3543.5875
2576.14751	3531.3875
2578.83819	3520.4875
2581.52719	3511.9875
2584.21451	3494.3875
2586.90015	3500.0875
2589.58411	3485.0875
2592.2664	3486.6875
2594.94701	3468.1875
2597.62594	3478.2875
2600.30321	3469.0875
2602.9788	3469.8875
2605.65273	3455.3875
2608.32498	3448.8875
2610.99557	3436.1875
2613.66449	3431.5875
2616.33175	3425.0875
2618.99734	3419.8875
2621.66128	3401.6875
2624.32355	3412.4875
2626.98416	3406.1875
2629.64311	3397.3875
2632.30041	3378.2875
2634.95605	3383.1875
2637.61004	3366.3875
2640.26238	3364.9875
2642.91306	3364.5875
2645.56209	3353.3875
2648.20948	3344.4875
2650.85521	3348.3875
2653.4993	3357.5875
2656.14175	3345.7875
2658.78255	3346.2875
2661.42171	3347.8875
2664.05923	3346.4875
2666.6951	3358.9875
2669.32934	3343.7875
2671.96194	3341.3875
2674.59291	3334.5875
2677.22224	3349.2875
2679.84993	3351.1875
2682.476	3332.2875
2685.10043	3331.2875
2687.72324	3327.1875
2690.34441	3335.3875
2692.96396	3329.4875
2695.58188	3329.9875
2698.19818	3335.1875
2700.81285	3320.9875
2703.4259	3342.6875
2706.03733	3394.1875
2708.64714	3343.1875
2711.25533	3335.8875
2713.86191	3319.4875
2716.46687	3329.9875
2719.07021	3317.6875
2721.67194	3312.0875
2724.27206	3309.7875
2726.87057	3309.5875
2729.46747	3325.8875
2732.06276	3303.8875
2734.65644	3300.7875
2737.24852	3299.1875
2739.83899	3287.5875
2742.42786	3286.3875
2745.01513	3295.0875
2747.60079	3278.0875
2750.18486	3270.7875
2752.76733	3272.1875
2755.3482	3252.4875
2757.92747	3252.2875
2760.50515	3246.3875
2763.08123	3246.9875
2765.65573	3235.5875
2768.22863	3238.5875
2770.79994	3223.7875
2773.36967	3225.7875
2775.9378	3225.1875
2778.50435	3220.2875
2781.06932	3210.6875
2783.6327	3191.6875
2786.1945	3182.9875
2788.75471	3181.6875
2791.31335	3168.1875
2793.87041	3176.1875
2796.42589	3168.7875
2798.97979	3169.1875
2801.53212	3163.5875
2804.08288	3165.9875
2806.63206	3152.1875
2809.17967	3139.8875
2811.72571	3138.3875
2814.27018	3133.0875
2816.81308	3120.5875
2819.35442	3129.0875
2821.89419	3127.3875
2824.43239	3121.2875
2826.96904	3116.0875
2829.50412	3116.2875
2832.03763	3116.7875
2834.56959	3109.4875
2837.1	3092.4875
2839.62884	3105.4875
2842.15613	3111.4875
2844.68186	3107.6875
2847.20604	3114.5875
2849.72867	3129.1875
2852.24974	3113.7875
2854.76927	3115.2875
2857.28724	3122.2875
2859.80367	3117.9875
2862.31855	3106.4875
2864.83189	3101.3875
2867.34368	3103.4875
2869.85393	3088.8875
2872.36264	3088.2875
2874.8698	3087.8875
2877.37543	3094.5875
2879.87952	3091.9875
2882.38207	3083.6875
2884.88308	3083.2875
2887.38256	3062.3875
2889.88051	3080.1875
2892.37692	3068.5875
2894.8718	3072.9875
2897.36515	3080.2875
2899.85698	3064.8875
2902.34727	3077.1875
2904.83604	3069.2875
2907.32328	3085.3875
2909.809	3077.6875
2912.29319	3079.3875
2914.77587	3088.0875
2917.25702	3076.1875
2919.73665	3079.7875
2922.21476	3084.3875
2924.69136	3081.2875
2927.16644	3078.3875
2929.64	3079.0875
2932.11205	3064.0875
2934.58258	3052.1875
2937.05161	3051.8875
2939.51912	3069.5875
2941.98513	3062.9875
2944.44962	3037.6875
2946.91261	3020.0875
2949.37409	3030.4875
2951.83407	3032.1875
2954.29254	3015.2875
2956.74951	3012.4875
2959.20498	3005.6875
2961.65895	2988.8875
2964.11142	2981.6875
2966.56239	2976.0875
2969.01186	2976.5875
2971.45984	2956.9875
2973.90632	2964.2875
2976.35131	2959.2875
2978.7948	2943.7875
2981.23681	2941.1875
2983.67732	2932.0875
2986.11635	2945.9875
2988.55388	2925.0875
2990.98993	2918.2875
2993.4245	2909.1875
2995.85758	2900.1875
2998.28917	2887.8875
3000.71928	2887.8875
3003.14791	2892.3875
3005.57506	2881.2875
3008.00073	2875.2875
3010.42493	2883.9875
3012.84764	2869.1875
3015.26888	2872.8875
3017.68865	2859.1875
3020.10694	2855.1875
3022.52376	2862.8875
3024.9391	2846.6875
3027.35298	2848.5875
3029.76539	2841.4875
3032.17632	2849.3875
3034.5858	2835.7875
3036.9938	2833.6875
3039.40034	2820.2875
3041.80542	2817.4875
3044.20903	2822.6875
3046.61118	2805.6875
3049.01187	2811.5875
3051.4111	2805.3875
3053.80888	2799.9875
3056.20519	2797.3875
3058.60005	2802.9875
3060.99345	2802.9875
3063.3854	2783.0875
3065.7759	2785.0875
3068.16494	2777.0875
3070.55254	2775.8875
3072.93868	2782.7875
3075.32338	2774.6875
3077.70662	2756.0875
3080.08842	2757.2875
3082.46878	2755.8875
3084.84769	2748.9875
3087.22515	2763.0875
3089.60118	2753.9875
3091.97576	2746.9875
3094.3489	2761.8875
3096.72061	2767.6875
3099.09087	2759.3875
3101.4597	2762.9875
3103.82709	2761.3875
3106.19305	2763.5875
3108.55757	2752.5875
3110.92066	2756.6875
3113.28232	2749.8875
3115.64255	2737.4875
3118.00134	2747.1875
3120.35871	2751.7875
3122.71466	2737.3875
3125.06917	2726.8875
3127.42226	2736.4875
3129.77393	2737.2875
3132.12417	2743.7875
3134.47299	2735.8875
3136.82039	2751.1875
3139.16636	2743.6875
3141.51092	2749.4875
3143.85406	2754.6875
3146.19579	2765.6875
3148.53609	2751.2875
3150.87499	2767.0875
3153.21246	2780.5875
3155.54853	2772.0875
3157.88318	2776.5875
3160.21642	2783.9875
3162.54826	2780.6875
3164.87868	2783.7875
3167.2077	2788.6875
3169.5353	2782.6875
3171.86151	2786.9875
3174.18631	2792.5875
3176.5097	2787.4875
3178.83169	2786.1875
3181.15228	2788.6875
3183.47147	2777.2875
3185.78926	2783.9875
3188.10565	2772.8875
3190.42065	2784.3875
3192.73424	2794.1875
3195.04645	2788.7875
3197.35725	2798.7875
3199.66667	2799.9875
3201.97469	2804.4875
3204.28132	2813.3875
3206.58656	2798.8875
3208.8904	2816.2875
3211.19287	2810.8875
3213.49394	2831.5875
3215.79363	2817.0875
3218.09193	2827.4875
3220.38884	2835.6875
3222.68438	2843.1875
3224.97853	2837.9875
3227.2713	2817.3875
3229.56269	2819.2875
3231.8527	2817.6875
3234.14133	2797.9875
3236.42858	2805.8875
3238.71446	2805.7875
3240.99896	2796.7875
3243.28209	2795.9875
3245.56384	2781.8875
3247.84423	2802.4875
3250.12324	2792.8875
3252.40088	2798.6875
3254.67715	2790.4875
3256.95205	2777.1875
3259.22558	2793.3875
3261.49775	2774.9875
3263.76855	2771.8875
3266.03799	2760.7875
3268.30606	2764.5875
3270.57277	2756.9875
3272.83812	2738.5875
3275.10211	2743.9875
3277.36474	2745.2875
3279.62601	2735.7875
3281.88593	2743.4875
3284.14448	2744.3875
3286.40168	2727.4875
3288.65753	2730.8875
3290.91202	2729.7875
3293.16516	2719.2875
3295.41695	2711.2875
3297.66738	2700.5875
3299.91647	2696.3875
3302.16421	2673.3875
3304.4106	2667.8875
3306.65564	2657.8875
3308.89933	2637.4875
3311.14169	2631.7875
3313.38269	2611.9875
3315.62236	2584.5875
3317.86068	2567.7875
3320.09766	2543.3875
3322.3333	2529.4875
3324.5676	2522.3875
3326.80056	2509.0875
3329.03219	2485.5875
3331.26248	-0.1125
3333.49143	-0.5125
3335.71905	0.6875
