Data from AgNPs_FTO_APTES_UA_1um_CRN_0.1mM_R6G_10uM_NaF_0.1M_Addition_RamanShift__6__11-41-08-991.txt Node

Date: Tue Dec 21 11:41:08 GMT 2021
User: TCL
Spectrometer: QEP01345
Trigger mode: 4
Integration Time (sec): 7.000000E0
Scans to average: 10
Electric dark correction enabled: true
Nonlinearity correction enabled: false
Boxcar width: 0
XAxis mode: Raman Shifts
Number of Pixels in Spectrum: 1044
>>>>>Begin Spectral Data<<<<<
46.04893	-0.1625
50.45542	-1.6625
54.85868	-1.1625
59.25871	1.8375
63.6555	38.8375
68.04907	46.2375
72.43941	48.3375
76.82654	47.2375
81.21044	52.5375
85.59113	53.5375
89.96862	54.0375
94.34289	55.3375
98.71396	59.2375
103.08183	61.8375
107.4465	64.0375
111.80798	65.9375
116.16626	65.6375
120.52136	68.2375
124.87327	69.4375
129.222	69.3375
133.56755	73.9375
137.90993	81.5375
142.24913	86.5375
146.58517	97.2375
150.91804	107.8375
155.24774	126.3375
159.57429	155.0375
163.89768	201.6375
168.21792	262.1375
172.53501	353.3375
176.84895	482.4375
181.15975	677.2375
185.46741	936.9375
189.77193	1297.0375
194.07331	1733.4375
198.37157	2233.4375
202.6667	2780.2375
206.9587	3322.3375
211.24758	3865.5375
215.53334	4408.8375
219.81599	4981.5375
224.09553	5636.8375
228.37195	6350.2375
232.64527	7102.7375
236.91549	7887.7375
241.18261	8616.5375
245.44663	9301.7375
249.70755	9829.0375
253.96539	10292.5375
258.22014	10635.3375
262.4718	10880.4375
266.72039	11078.2375
270.96589	11087.4375
275.20832	10998.6375
279.44768	10822.4375
283.68397	10629.7375
287.91719	10478.5375
292.14735	10387.5375
296.37445	10386.0375
300.59849	10439.3375
304.81948	10624.8375
309.03742	10765.3375
313.25231	10869.8375
317.46415	10761.1375
321.67296	10572.4375
325.87872	10312.1375
330.08145	10130.2375
334.28114	10053.6375
338.47781	10087.2375
342.67145	10205.0375
346.86207	10402.0375
351.04966	10595.1375
355.23424	10833.6375
359.4158	10976.7375
363.59435	11035.8375
367.76989	11036.3375
371.94243	10979.3375
376.11196	10943.2375
380.27849	10941.6375
384.44203	11014.2375
388.60257	11100.8375
392.76012	11194.1375
396.91468	11369.4375
401.06626	11565.3375
405.21485	11725.8375
409.36047	11677.8375
413.50311	11473.2375
417.64277	11359.2375
421.77947	11416.6375
425.9132	11438.0375
430.04396	11532.7375
434.17176	11559.2375
438.2966	11639.8375
442.41849	11940.5375
446.53742	12457.4375
450.6534	12980.0375
454.76644	13182.8375
458.87653	12997.1375
462.98368	12659.8375
467.08789	12314.8375
471.18916	11921.0375
475.2875	11564.7375
479.38291	11297.4375
483.4754	11140.1375
487.56496	11024.1375
491.6516	10904.0375
495.73531	10810.5375
499.81612	10796.8375
503.89401	10863.0375
507.96899	10901.8375
512.04106	10830.0375
516.11023	10676.5375
520.1765	10564.8375
524.23987	10555.4375
528.30034	10561.6375
532.35792	10547.2375
536.41261	10350.4375
540.46441	10073.7375
544.51333	9908.8375
548.55936	10011.8375
552.60252	10300.4375
556.64279	10746.2375
560.6802	11075.7375
564.71473	11159.1375
568.7464	11255.6375
572.7752	11625.8375
576.80114	12038.5375
580.82422	12587.0375
584.84444	13494.1375
588.86181	14919.5375
592.87633	16497.2375
596.888	16989.9375
600.89682	15578.8375
604.9028	14186.0375
608.90594	14609.7375
612.90624	15927.6375
616.90371	14938.7375
620.89834	11885.6375
624.89015	10342.1375
628.87913	10151.0375
632.86528	10275.6375
636.84862	10311.0375
640.82913	10065.2375
644.80683	9720.3375
648.78172	9516.7375
652.75379	9531.6375
656.72306	9677.8375
660.68952	9862.5375
664.65319	9738.5375
668.61405	9473.4375
672.57211	9461.4375
676.52738	9578.8375
680.47986	9645.4375
684.42955	9536.1375
688.37646	9378.2375
692.32058	9336.7375
696.26192	9465.2375
700.20048	9642.2375
704.13626	9779.1375
708.06928	9795.0375
711.99952	9761.1375
715.927	9770.0375
719.85171	9830.8375
723.77365	9795.6375
727.69284	9609.6375
731.60928	9436.6375
735.52295	9408.4375
739.43388	9453.7375
743.34206	9504.6375
747.24749	9610.0375
751.15017	9737.4375
755.05012	9965.2375
758.94733	10335.5375
762.8418	11046.8375
766.73354	12204.3375
770.62254	13307.0375
774.50882	13446.6375
778.39237	12680.7375
782.27321	11586.2375
786.15132	10549.5375
790.02671	9895.9375
793.89938	9528.5375
797.76935	9374.4375
801.6366	9342.7375
805.50115	9279.0375
809.36299	9203.3375
813.22213	9069.8375
817.07857	8968.7375
820.93231	8905.4375
824.78336	8840.0375
828.63172	8809.0375
832.47738	8806.9375
836.32036	8800.5375
840.16066	8788.8375
843.99827	8793.7375
847.8332	8773.7375
851.66546	8754.1375
855.49504	8756.8375
859.32195	8730.8375
863.1462	8707.6375
866.96777	8662.3375
870.78668	8661.2375
874.60293	8660.3375
878.41652	8667.2375
882.22745	8722.5375
886.03573	8781.3375
889.84136	8770.8375
893.64433	8733.7375
897.44466	8718.5375
901.24235	8675.3375
905.0374	8628.8375
908.8298	8567.8375
912.61957	8550.1375
916.40671	8620.8375
920.19121	8776.4375
923.97308	8971.9375
927.75233	9129.3375
931.52895	9089.0375
935.30295	8867.6375
939.07433	8585.3375
942.84309	8330.6375
946.60924	8214.7375
950.37278	8175.2375
954.13371	8160.1375
957.89203	8152.1375
961.64774	8154.7375
965.40086	8153.4375
969.15137	8126.7375
972.89929	8089.3375
976.64461	8032.1375
980.38733	7987.9375
984.12747	7985.2375
987.86502	8038.9375
991.59999	8093.2375
995.33237	8231.9375
999.06217	8425.8375
1002.78939	8731.0375
1006.51404	9032.8375
1010.23611	9288.0375
1013.95561	9482.4375
1017.67255	9565.6375
1021.38692	9443.1375
1025.09872	9146.8375
1028.80796	8869.8375
1032.51465	8824.5375
1036.21877	8871.4375
1039.92035	8933.9375
1043.61937	8978.0375
1047.31584	8962.5375
1051.00976	8929.9375
1054.70114	8885.0375
1058.38998	8868.4375
1062.07627	8888.3375
1065.76003	8964.0375
1069.44126	9105.4375
1073.11995	9354.1375
1076.79611	9573.5375
1080.46974	9661.7375
1084.14085	9770.7375
1087.80943	9954.9375
1091.47549	10097.2375
1095.13903	10085.1375
1098.80005	9827.2375
1102.45857	9410.5375
1106.11456	9158.6375
1109.76805	9051.5375
1113.41903	9085.5375
1117.06751	9230.4375
1120.71348	9440.8375
1124.35696	9670.4375
1127.99793	9892.3375
1131.63641	9993.6375
1135.2724	9902.9375
1138.90589	9814.4375
1142.5369	9805.4375
1146.16542	9884.3375
1149.79145	9956.8375
1153.415	10064.9375
1157.03607	10241.1375
1160.65467	10595.9375
1164.27079	11327.9375
1167.88443	12257.4375
1171.49561	13365.5375
1175.10432	14826.7375
1178.71056	16641.4375
1182.31434	18150.5375
1185.91565	18600.0375
1189.51451	17888.0375
1193.11091	16851.2375
1196.70485	15714.2375
1200.29634	14704.0375
1203.88538	13918.9375
1207.47197	13377.1375
1211.05612	13016.3375
1214.63782	12677.6375
1218.21708	12440.3375
1221.79391	12345.5375
1225.36829	12467.0375
1228.94024	12558.1375
1232.50976	12346.1375
1236.07685	11926.1375
1239.6415	11558.2375
1243.20374	11405.6375
1246.76355	11376.0375
1250.32093	11544.5375
1253.8759	11832.5375
1257.42845	12266.9375
1260.97859	12790.4375
1264.52631	13355.8375
1268.07163	13817.0375
1271.61453	14264.0375
1275.15503	14727.5375
1278.69312	15253.0375
1282.22882	15966.5375
1285.76211	16865.4375
1289.29301	17944.6375
1292.82151	19042.9375
1296.34761	20229.4375
1299.87133	21685.2375
1303.39266	23315.4375
1306.9116	25003.7375
1310.42815	26696.5375
1313.94233	27920.8375
1317.45412	27756.1375
1320.96354	26489.2375
1324.47058	24979.4375
1327.97525	23773.7375
1331.47754	22878.8375
1334.97747	22155.2375
1338.47502	21559.0375
1341.97022	20808.6375
1345.46305	20294.5375
1348.95352	20252.3375
1352.44163	21028.5375
1355.92738	22699.8375
1359.41078	25053.9375
1362.89183	27049.8375
1366.37053	27394.4375
1369.84688	25097.6375
1373.32088	21258.8375
1376.79254	18373.4375
1380.26186	17200.3375
1383.72883	16855.8375
1387.19347	16528.1375
1390.65578	16073.2375
1394.11575	15880.6375
1397.57339	16172.2375
1401.0287	16621.9375
1404.48168	16922.3375
1407.93234	16933.7375
1411.38068	16672.8375
1414.82669	16221.1375
1418.27039	15659.8375
1421.71177	15025.4375
1425.15083	14369.7375
1428.58758	14048.9375
1432.02203	14200.9375
1435.45416	14670.7375
1438.88399	15155.0375
1442.31151	15374.9375
1445.73673	15519.0375
1449.15965	15609.7375
1452.58027	15517.3375
1455.9986	15248.0375
1459.41463	15139.1375
1462.82837	15323.4375
1466.23982	15814.1375
1469.64898	16339.9375
1473.05586	16718.1375
1476.46045	16911.0375
1479.86276	17056.4375
1483.26279	17122.6375
1486.66054	17264.9375
1490.05602	17621.5375
1493.44922	18057.3375
1496.84016	18441.5375
1500.22882	18895.1375
1503.61521	19476.4375
1506.99934	20247.3375
1510.38121	20850.7375
1513.76081	20886.0375
1517.13816	20088.1375
1520.51324	18876.2375
1523.88607	17836.6375
1527.25665	17308.9375
1530.62498	17106.6375
1533.99105	16893.3375
1537.35488	16522.0375
1540.71647	15994.7375
1544.07581	15373.1375
1547.4329	14743.0375
1550.78776	14196.9375
1554.14038	13799.7375
1557.49077	13509.7375
1560.83892	13457.4375
1564.18484	13581.7375
1567.52853	13769.0375
1570.86999	14077.3375
1574.20922	14454.9375
1577.54624	14652.1375
1580.88103	14552.4375
1584.2136	14430.9375
1587.54395	14759.8375
1590.87208	15711.6375
1594.19801	17179.8375
1597.52172	18776.8375
1600.84321	19626.4375
1604.16251	18902.3375
1607.47959	17076.1375
1610.79447	14842.8375
1614.10715	12913.9375
1617.41763	11528.6375
1620.7259	10720.7375
1624.03199	10337.6375
1627.33587	10372.8375
1630.63757	10783.0375
1633.93707	11747.4375
1637.23439	13472.5375
1640.52951	16285.3375
1643.82246	19961.6375
1647.11321	23371.4375
1650.40179	24449.7375
1653.68819	22320.8375
1656.97241	18304.9375
1660.25446	14473.0375
1663.53433	11796.3375
1666.81203	10217.7375
1670.08756	9268.1375
1673.36092	8713.2375
1676.63211	8403.9375
1679.90115	8127.3375
1683.16801	7954.0375
1686.43272	7833.7375
1689.69527	7725.5375
1692.95567	7636.0375
1696.2139	7603.9375
1699.46999	7587.8375
1702.72392	7527.9375
1705.97571	7488.1375
1709.22535	7447.9375
1712.47284	7437.9375
1715.71819	7435.2375
1718.96139	7375.8375
1722.20246	7358.2375
1725.44139	7307.5375
1728.67818	7261.3375
1731.91284	7206.4375
1735.14537	7139.0375
1738.37576	7121.0375
1741.60403	7077.0375
1744.83017	7070.8375
1748.05418	7063.8375
1751.27607	7094.6375
1754.49584	7097.7375
1757.71349	7120.5375
1760.92903	7115.1375
1764.14244	7074.9375
1767.35375	7032.0375
1770.56294	6977.3375
1773.77002	6919.1375
1776.97499	6911.9375
1780.17785	6870.9375
1783.37861	6831.3375
1786.57727	6807.9375
1789.77382	6787.8375
1792.96828	6756.6375
1796.16064	6724.2375
1799.3509	6714.1375
1802.53907	6683.4375
1805.72514	6672.2375
1808.90913	6643.2375
1812.09102	6626.1375
1815.27083	6623.8375
1818.44856	6598.7375
1821.6242	6600.2375
1824.79776	6587.4375
1827.96924	6598.4375
1831.13864	6580.3375
1834.30597	6586.8375
1837.47122	6579.9375
1840.6344	6583.0375
1843.7955	6591.8375
1846.95454	6595.1375
1850.11151	6577.8375
1853.26642	6584.1375
1856.41926	6577.9375
1859.57004	6573.1375
1862.71876	6560.6375
1865.86542	6554.4375
1869.01003	6552.5375
1872.15258	6552.4375
1875.29308	6544.6375
1878.43152	6498.9375
1881.56792	6508.5375
1884.70227	6500.4375
1887.83457	6494.9375
1890.96482	6476.3375
1894.09304	6468.1375
1897.21921	6459.9375
1900.34335	6444.9375
1903.46544	6441.8375
1906.58551	6434.2375
1909.70353	6418.0375
1912.81953	6398.1375
1915.93349	6383.8375
1919.04543	6371.1375
1922.15534	6348.4375
1925.26322	6327.0375
1928.36908	6311.3375
1931.47292	6275.1375
1934.57473	6257.5375
1937.67453	6254.9375
1940.77232	6224.7375
1943.86808	6211.3375
1946.96184	6199.5375
1950.05358	6173.6375
1953.14331	6158.6375
1956.23103	6142.8375
1959.31675	6133.6375
1962.40046	6095.0375
1965.48217	6089.7375
1968.56188	6072.4375
1971.63959	6050.2375
1974.7153	6032.6375
1977.78901	6010.0375
1980.86073	6022.4375
1983.93046	5985.3375
1986.99819	5934.0375
1990.06394	5929.4375
1993.1277	5906.6375
1996.18947	5870.0375
1999.24925	5875.5375
2002.30706	5846.2375
2005.36288	5847.6375
2008.41672	5821.3375
2011.46859	5798.3375
2014.51848	5795.0375
2017.56639	5748.4375
2020.61233	5759.5375
2023.6563	5758.8375
2026.6983	5735.0375
2029.73833	5730.0375
2032.7764	5718.9375
2035.8125	5704.1375
2038.84664	5696.4375
2041.87881	5691.0375
2044.90903	5666.0375
2047.93729	5665.8375
2050.96359	5653.6375
2053.98794	5665.7375
2057.01034	5629.7375
2060.03078	5647.9375
2063.04927	5638.7375
2066.06582	5630.7375
2069.08042	5628.7375
2072.09307	5610.9375
2075.10378	5618.8375
2078.11255	5606.6375
2081.11938	5615.1375
2084.12426	5609.7375
2087.12722	5607.5375
2090.12824	5615.7375
2093.12732	5607.3375
2096.12447	5616.7375
2099.11969	5609.8375
2102.11299	5610.6375
2105.10435	5624.8375
2108.09379	5623.0375
2111.08131	5604.3375
2114.0669	5620.7375
2117.05057	5616.7375
2120.03233	5628.0375
2123.01216	5602.6375
2125.99008	5630.1375
2128.96609	5630.8375
2131.94018	5634.0375
2134.91236	5638.2375
2137.88263	5622.5375
2140.851	5635.9375
2143.81746	5627.4375
2146.78201	5626.3375
2149.74466	5623.9375
2152.7054	5618.0375
2155.66425	5605.5375
2158.6212	5602.9375
2161.57625	5602.0375
2164.52941	5597.0375
2167.48067	5615.4375
2170.43004	5604.9375
2173.37752	5606.3375
2176.32311	5609.8375
2179.26681	5590.4375
2182.20863	5603.6375
2185.14856	5594.6375
2188.08661	5591.4375
2191.02278	5596.1375
2193.95707	5602.3375
2196.88948	5589.7375
2199.82001	5588.7375
2202.74867	5588.1375
2205.67545	5570.6375
2208.60037	5552.9375
2211.52341	5566.0375
2214.44458	5527.0375
2217.36388	5514.3375
2220.28132	5513.6375
2223.1969	5511.9375
2226.11061	5505.6375
2229.02246	5509.3375
2231.93245	5512.7375
2234.84058	5497.7375
2237.74686	5506.1375
2240.65128	5514.8375
2243.55385	5494.9375
2246.45456	5480.4375
2249.35343	5464.3375
2252.25044	5462.4375
2255.14561	5433.2375
2258.03893	5443.3375
2260.93041	5418.4375
2263.82004	5421.6375
2266.70783	5379.0375
2269.59378	5364.4375
2272.4779	5356.1375
2275.36017	5350.2375
2278.24061	5339.9375
2281.11922	5321.0375
2283.996	5314.7375
2286.87094	5305.1375
2289.74405	5283.6375
2292.61534	5284.9375
2295.4848	5285.8375
2298.35243	5272.4375
2301.21824	5264.2375
2304.08223	5283.6375
2306.94439	5277.2375
2309.80474	5288.6375
2312.66327	5273.3375
2315.51999	5261.9375
2318.37489	5260.7375
2321.22797	5247.2375
2324.07925	5239.4375
2326.92871	5241.4375
2329.77637	5230.9375
2332.62222	5245.0375
2335.46626	5237.0375
2338.3085	5229.9375
2341.14893	5232.2375
2343.98756	5223.4375
2346.8244	5233.8375
2349.65943	5234.3375
2352.49267	5237.0375
2355.32411	5218.7375
2358.15376	5240.5375
2360.98161	5237.6375
2363.80768	5239.3375
2366.63195	5232.7375
2369.45444	5213.2375
2372.27514	5227.6375
2375.09405	5204.2375
2377.91118	5199.6375
2380.72652	5184.1375
2383.54009	5174.1375
2386.35187	5176.4375
2389.16188	5144.4375
2391.97011	5139.6375
2394.77657	5133.1375
2397.58125	5125.9375
2400.38416	5131.5375
2403.18529	5111.6375
2405.98466	5120.2375
2408.78226	5102.5375
2411.57809	5093.2375
2414.37216	5089.5375
2417.16446	5071.5375
2419.955	5078.7375
2422.74378	5078.9375
2425.5308	5073.9375
2428.31606	5075.4375
2431.09956	5063.2375
2433.88131	5075.3375
2436.6613	5063.9375
2439.43954	5050.9375
2442.21603	5053.6375
2444.99077	5074.7375
2447.76377	5054.2375
2450.53501	5058.5375
2453.30451	5059.3375
2456.07226	5053.3375
2458.83827	5069.1375
2461.60254	5056.3375
2464.36507	5069.3375
2467.12586	5060.2375
2469.88492	5050.0375
2472.64224	5052.0375
2475.39782	5060.6375
2478.15167	5084.2375
2480.90379	5071.6375
2483.65417	5069.6375
2486.40283	5062.0375
2489.14976	5073.6375
2491.89497	5060.1375
2494.63845	5085.3375
2497.3802	5092.0375
2500.12024	5070.0375
2502.85855	5055.9375
2505.59514	5066.3375
2508.33002	5043.4375
2511.06318	5045.2375
2513.79462	5021.6375
2516.52435	5029.8375
2519.25237	5025.8375
2521.97867	5006.7375
2524.70327	5008.1375
2527.42616	5011.0375
2530.14734	4991.5375
2532.86681	4993.1375
2535.58458	4984.2375
2538.30065	4977.3375
2541.01501	4982.0375
2543.72768	4968.0375
2546.43864	4967.4375
2549.14791	4961.8375
2551.85548	4977.6375
2554.56136	4961.7375
2557.26554	4948.0375
2559.96803	4951.3375
2562.66883	4967.8375
2565.36794	4953.4375
2568.06536	4956.1375
2570.7611	4959.6375
2573.45514	4957.6375
2576.14751	4940.1375
2578.83819	4949.6375
2581.52719	4950.1375
2584.21451	4938.8375
2586.90015	4948.0375
2589.58411	4922.3375
2592.2664	4937.3375
2594.94701	4903.2375
2597.62594	4904.8375
2600.30321	4902.9375
2602.9788	4899.3375
2605.65273	4916.8375
2608.32498	4909.3375
2610.99557	4889.9375
2613.66449	4885.6375
2616.33175	4904.3375
2618.99734	4915.4375
2621.66128	4891.7375
2624.32355	4881.0375
2626.98416	4890.2375
2629.64311	4892.9375
2632.30041	4884.1375
2634.95605	4882.4375
2637.61004	4866.2375
2640.26238	4873.8375
2642.91306	4869.3375
2645.56209	4872.7375
2648.20948	4865.6375
2650.85521	4852.4375
2653.4993	4864.1375
2656.14175	4865.4375
2658.78255	4880.0375
2661.42171	4886.4375
2664.05923	4909.8375
2666.6951	4898.3375
2669.32934	4890.2375
2671.96194	4905.6375
2674.59291	4917.5375
2677.22224	4912.2375
2679.84993	4913.8375
2682.476	4904.9375
2685.10043	4888.3375
2687.72324	4892.0375
2690.34441	4892.3375
2692.96396	4896.8375
2695.58188	4904.8375
2698.19818	4894.1375
2700.81285	4875.7375
2703.4259	4908.6375
2706.03733	4970.7375
2708.64714	4946.8375
2711.25533	4933.1375
2713.86191	4920.6375
2716.46687	4932.6375
2719.07021	4926.5375
2721.67194	4944.4375
2724.27206	4931.0375
2726.87057	4926.1375
2729.46747	4926.1375
2732.06276	4935.0375
2734.65644	4928.9375
2737.24852	4922.6375
2739.83899	4937.2375
2742.42786	4943.4375
2745.01513	4922.7375
2747.60079	4924.6375
2750.18486	4925.2375
2752.76733	4926.6375
2755.3482	4909.0375
2757.92747	4922.6375
2760.50515	4916.2375
2763.08123	4922.1375
2765.65573	4923.0375
2768.22863	4920.1375
2770.79994	4899.3375
2773.36967	4909.0375
2775.9378	4910.7375
2778.50435	4925.0375
2781.06932	4900.4375
2783.6327	4912.4375
2786.1945	4907.1375
2788.75471	4919.0375
2791.31335	4890.5375
2793.87041	4904.8375
2796.42589	4876.9375
2798.97979	4901.2375
2801.53212	4867.2375
2804.08288	4882.5375
2806.63206	4880.3375
2809.17967	4856.3375
2811.72571	4857.8375
2814.27018	4857.2375
2816.81308	4837.8375
2819.35442	4856.2375
2821.89419	4857.8375
2824.43239	4864.2375
2826.96904	4869.4375
2829.50412	4866.7375
2832.03763	4862.7375
2834.56959	4867.6375
2837.1	4848.2375
2839.62884	4864.0375
2842.15613	4861.8375
2844.68186	4876.1375
2847.20604	4887.8375
2849.72867	4908.7375
2852.24974	4888.6375
2854.76927	4911.6375
2857.28724	4914.5375
2859.80367	4895.1375
2862.31855	4875.1375
2864.83189	4872.7375
2867.34368	4893.6375
2869.85393	4880.2375
2872.36264	4879.5375
2874.8698	4888.4375
2877.37543	4876.9375
2879.87952	4894.5375
2882.38207	4870.9375
2884.88308	4871.4375
2887.38256	4885.0375
2889.88051	4911.0375
2892.37692	4914.3375
2894.8718	4894.9375
2897.36515	4909.3375
2899.85698	4928.9375
2902.34727	4946.0375
2904.83604	4935.5375
2907.32328	4972.4375
2909.809	4971.7375
2912.29319	4959.9375
2914.77587	4990.1375
2917.25702	4981.6375
2919.73665	4995.1375
2922.21476	5000.8375
2924.69136	4993.3375
2927.16644	4988.7375
2929.64	4970.5375
2932.11205	4988.7375
2934.58258	4979.6375
2937.05161	4987.1375
2939.51912	4993.3375
2941.98513	4988.7375
2944.44962	4970.8375
2946.91261	4959.6375
2949.37409	4983.4375
2951.83407	4968.0375
2954.29254	4938.5375
2956.74951	4940.3375
2959.20498	4917.2375
2961.65895	4905.6375
2964.11142	4903.2375
2966.56239	4877.7375
2969.01186	4853.4375
2971.45984	4839.3375
2973.90632	4805.5375
2976.35131	4803.1375
2978.7948	4777.6375
2981.23681	4764.1375
2983.67732	4748.9375
2986.11635	4734.2375
2988.55388	4723.6375
2990.98993	4692.5375
2993.4245	4702.2375
2995.85758	4676.7375
2998.28917	4656.1375
3000.71928	4684.5375
3003.14791	4664.9375
3005.57506	4663.9375
3008.00073	4663.1375
3010.42493	4651.8375
3012.84764	4647.3375
3015.26888	4647.9375
3017.68865	4629.4375
3020.10694	4619.8375
3022.52376	4611.3375
3024.9391	4598.8375
3027.35298	4585.7375
3029.76539	4561.1375
3032.17632	4555.5375
3034.5858	4545.1375
3036.9938	4545.3375
3039.40034	4541.7375
3041.80542	4546.5375
3044.20903	4520.3375
3046.61118	4519.7375
3049.01187	4494.7375
3051.4111	4516.2375
3053.80888	4482.4375
3056.20519	4498.2375
3058.60005	4486.8375
3060.99345	4465.0375
3063.3854	4483.3375
3065.7759	4448.9375
3068.16494	4440.4375
3070.55254	4436.0375
3072.93868	4427.4375
3075.32338	4404.2375
3077.70662	4414.0375
3080.08842	4397.1375
3082.46878	4404.5375
3084.84769	4385.5375
3087.22515	4390.5375
3089.60118	4377.1375
3091.97576	4392.3375
3094.3489	4385.6375
3096.72061	4391.3375
3099.09087	4390.3375
3101.4597	4379.0375
3103.82709	4387.4375
3106.19305	4365.9375
3108.55757	4383.4375
3110.92066	4358.3375
3113.28232	4359.2375
3115.64255	4336.3375
3118.00134	4343.1375
3120.35871	4328.5375
3122.71466	4321.7375
3125.06917	4327.0375
3127.42226	4323.9375
3129.77393	4319.8375
3132.12417	4327.1375
3134.47299	4333.6375
3136.82039	4322.9375
3139.16636	4330.9375
3141.51092	4327.4375
3143.85406	4318.7375
3146.19579	4333.0375
3148.53609	4336.8375
3150.87499	4326.7375
3153.21246	4332.0375
3155.54853	4340.0375
3157.88318	4331.4375
3160.21642	4341.0375
3162.54826	4341.1375
3164.87868	4337.5375
3167.2077	4335.9375
3169.5353	4342.4375
3171.86151	4339.1375
3174.18631	4336.1375
3176.5097	4338.6375
3178.83169	4327.7375
3181.15228	4350.4375
3183.47147	4335.0375
3185.78926	4326.0375
3188.10565	4326.9375
3190.42065	4350.4375
3192.73424	4331.4375
3195.04645	4335.2375
3197.35725	4336.3375
3199.66667	4333.2375
3201.97469	4349.1375
3204.28132	4344.3375
3206.58656	4344.6375
3208.8904	4337.1375
3211.19287	4349.0375
3213.49394	4362.3375
3215.79363	4337.6375
3218.09193	4338.5375
3220.38884	4350.5375
3222.68438	4362.4375
3224.97853	4341.6375
3227.2713	4342.3375
3229.56269	4336.0375
3231.8527	4353.4375
3234.14133	4343.6375
3236.42858	4340.9375
3238.71446	4335.6375
3240.99896	4321.2375
3243.28209	4321.5375
3245.56384	4331.1375
3247.84423	4316.3375
3250.12324	4302.5375
3252.40088	4326.9375
3254.67715	4312.5375
3256.95205	4291.3375
3259.22558	4282.5375
3261.49775	4273.7375
3263.76855	4271.0375
3266.03799	4260.2375
3268.30606	4257.5375
3270.57277	4251.5375
3272.83812	4231.4375
3275.10211	4241.6375
3277.36474	4248.4375
3279.62601	4239.3375
3281.88593	4238.3375
3284.14448	4261.2375
3286.40168	4248.3375
3288.65753	4246.7375
3290.91202	4242.8375
3293.16516	4225.5375
3295.41695	4235.3375
3297.66738	4199.2375
3299.91647	4189.8375
3302.16421	4153.9375
3304.4106	4147.4375
3306.65564	4126.5375
3308.89933	4099.3375
3311.14169	4063.1375
3313.38269	4040.5375
3315.62236	4012.9375
3317.86068	3988.5375
3320.09766	3947.7375
3322.3333	3922.1375
3324.5676	3907.5375
3326.80056	3850.1375
3329.03219	3831.7375
3331.26248	0.9375
3333.49143	-0.0625
3335.71905	-0.6625
