Data from AgNPs_FTO_APTES_UA_100um_CRN_0.1mM_R6G_10uM_NaF_0.1M_Addition_RamanShift__33__16-23-29-314.txt Node

Date: Tue Dec 21 16:23:29 GMT 2021
User: TCL
Spectrometer: QEP01345
Trigger mode: 4
Integration Time (sec): 7.000000E0
Scans to average: 10
Electric dark correction enabled: true
Nonlinearity correction enabled: false
Boxcar width: 0
XAxis mode: Raman Shifts
Number of Pixels in Spectrum: 1044
>>>>>Begin Spectral Data<<<<<
46.04893	-1.0125
50.45542	-0.4125
54.85868	-0.6125
59.25871	0.0875
63.6555	30.5875
68.04907	37.6875
72.43941	39.4875
76.82654	41.2875
81.21044	44.2875
85.59113	44.5875
89.96862	44.8875
94.34289	44.5875
98.71396	45.8875
103.08183	49.0875
107.4465	53.8875
111.80798	55.9875
116.16626	54.0875
120.52136	55.9875
124.87327	55.6875
129.222	53.4875
133.56755	58.7875
137.90993	65.8875
142.24913	65.1875
146.58517	73.1875
150.91804	80.4875
155.24774	90.7875
159.57429	111.7875
163.89768	144.0875
168.21792	185.0875
172.53501	247.1875
176.84895	340.6875
181.15975	479.0875
185.46741	668.5875
189.77193	923.5875
194.07331	1237.9875
198.37157	1604.9875
202.6667	1993.2875
206.9587	2382.0875
211.24758	2760.5875
215.53334	3153.2875
219.81599	3564.1875
224.09553	4002.0875
228.37195	4502.3875
232.64527	5043.2875
236.91549	5635.0875
241.18261	6183.5875
245.44663	6716.0875
249.70755	7166.4875
253.96539	7605.2875
258.22014	7941.2875
262.4718	8260.3875
266.72039	8479.1875
270.96589	8575.8875
275.20832	8556.9875
279.44768	8447.3875
283.68397	8272.8875
287.91719	8123.4875
292.14735	8040.3875
296.37445	8038.7875
300.59849	8155.5875
304.81948	8262.3875
309.03742	8334.7875
313.25231	8278.6875
317.46415	8050.8875
321.67296	7742.3875
325.87872	7489.9875
330.08145	7367.7875
334.28114	7384.4875
338.47781	7455.7875
342.67145	7549.4875
346.86207	7734.4875
351.04966	7957.8875
355.23424	8220.6875
359.4158	8447.7875
363.59435	8615.1875
367.76989	8713.0875
371.94243	8784.3875
376.11196	8822.5875
380.27849	8862.8875
384.44203	8881.6875
388.60257	8858.0875
392.76012	8861.6875
396.91468	8924.5875
401.06626	9019.0875
405.21485	9106.5875
409.36047	9065.2875
413.50311	8840.6875
417.64277	8605.7875
421.77947	8446.9875
425.9132	8373.6875
430.04396	8371.4875
434.17176	8420.9875
438.2966	8478.1875
442.41849	8558.1875
446.53742	8695.9875
450.6534	8844.5875
454.76644	8950.5875
458.87653	8991.2875
462.98368	8974.6875
467.08789	8926.5875
471.18916	8840.2875
475.2875	8783.9875
479.38291	8751.8875
483.4754	8685.6875
487.56496	8644.0875
491.6516	8637.2875
495.73531	8611.4875
499.81612	8591.1875
503.89401	8590.9875
507.96899	8617.5875
512.04106	8636.6875
516.11023	8678.6875
520.1765	8745.2875
524.23987	8726.7875
528.30034	8664.1875
532.35792	8620.2875
536.41261	8533.9875
540.46441	8416.5875
544.51333	8352.8875
548.55936	8350.4875
552.60252	8418.7875
556.64279	8510.1875
560.6802	8554.4875
564.71473	8636.7875
568.7464	8740.2875
572.7752	8865.8875
576.80114	8796.1875
580.82422	8687.6875
584.84444	8589.8875
588.86181	8635.6875
592.87633	8728.2875
596.888	8816.2875
600.89682	8918.6875
604.9028	9362.4875
608.90594	10592.3875
612.90624	12280.8875
616.90371	12170.5875
620.89834	9983.4875
624.89015	8887.8875
628.87913	8758.8875
632.86528	8926.9875
636.84862	9050.1875
640.82913	9024.3875
644.80683	8762.7875
648.78172	8502.9875
652.75379	8373.8875
656.72306	8419.4875
660.68952	8543.5875
664.65319	8504.3875
668.61405	8248.6875
672.57211	8150.2875
676.52738	8148.9875
680.47986	8155.8875
684.42955	8120.6875
688.37646	8090.3875
692.32058	8070.8875
696.26192	8081.0875
700.20048	8112.9875
704.13626	8149.7875
708.06928	8128.9875
711.99952	8061.4875
715.927	8073.0875
719.85171	8093.4875
723.77365	8093.8875
727.69284	8081.0875
731.60928	8017.4875
735.52295	8001.0875
739.43388	7950.4875
743.34206	7991.8875
747.24749	7970.7875
751.15017	7973.5875
755.05012	8014.9875
758.94733	8170.2875
762.8418	8522.9875
766.73354	9212.8875
770.62254	10012.0875
774.50882	10509.1875
778.39237	10252.9875
782.27321	9454.3875
786.15132	8643.9875
790.02671	8152.1875
793.89938	7934.2875
797.76935	7820.9875
801.6366	7820.4875
805.50115	7808.7875
809.36299	7829.1875
813.22213	7878.2875
817.07857	7864.2875
820.93231	7818.6875
824.78336	7745.2875
828.63172	7698.4875
832.47738	7665.5875
836.32036	7638.0875
840.16066	7622.2875
843.99827	7595.1875
847.8332	7596.2875
851.66546	7536.5875
855.49504	7531.4875
859.32195	7523.1875
863.1462	7517.9875
866.96777	7519.4875
870.78668	7511.8875
874.60293	7528.9875
878.41652	7561.8875
882.22745	7610.2875
886.03573	7631.5875
889.84136	7639.9875
893.64433	7610.0875
897.44466	7541.2875
901.24235	7472.6875
905.0374	7408.8875
908.8298	7347.0875
912.61957	7289.5875
916.40671	7284.4875
920.19121	7315.6875
923.97308	7326.3875
927.75233	7338.5875
931.52895	7372.3875
935.30295	7333.7875
939.07433	7244.9875
942.84309	7122.6875
946.60924	7052.3875
950.37278	7015.6875
954.13371	6983.1875
957.89203	6951.2875
961.64774	6932.4875
965.40086	6899.3875
969.15137	6876.3875
972.89929	6866.0875
976.64461	6839.0875
980.38733	6812.0875
984.12747	6832.2875
987.86502	6849.9875
991.59999	6873.9875
995.33237	6900.1875
999.06217	6965.6875
1002.78939	7047.8875
1006.51404	7129.2875
1010.23611	7207.4875
1013.95561	7243.2875
1017.67255	7258.5875
1021.38692	7188.4875
1025.09872	7143.5875
1028.80796	7113.4875
1032.51465	7106.0875
1036.21877	7136.3875
1039.92035	7141.4875
1043.61937	7122.2875
1047.31584	7097.0875
1051.00976	7053.9875
1054.70114	7009.8875
1058.38998	6989.3875
1062.07627	6995.8875
1065.76003	7025.9875
1069.44126	7037.1875
1073.11995	7097.1875
1076.79611	7129.8875
1080.46974	7184.6875
1084.14085	7251.8875
1087.80943	7295.7875
1091.47549	7358.3875
1095.13903	7296.8875
1098.80005	7204.4875
1102.45857	7100.4875
1106.11456	7040.2875
1109.76805	7032.6875
1113.41903	7140.4875
1117.06751	7280.6875
1120.71348	7464.5875
1124.35696	7658.4875
1127.99793	7894.1875
1131.63641	8008.8875
1135.2724	7934.6875
1138.90589	7732.6875
1142.5369	7547.6875
1146.16542	7378.9875
1149.79145	7245.3875
1153.415	7151.2875
1157.03607	7109.6875
1160.65467	7119.3875
1164.27079	7233.1875
1167.88443	7423.6875
1171.49561	7745.4875
1175.10432	8235.7875
1178.71056	8901.5875
1182.31434	9578.4875
1185.91565	9811.0875
1189.51451	9630.2875
1193.11091	9222.8875
1196.70485	8760.0875
1200.29634	8476.0875
1203.88538	8307.3875
1207.47197	8077.4875
1211.05612	7830.6875
1214.63782	7636.9875
1218.21708	7505.3875
1221.79391	7417.1875
1225.36829	7373.4875
1228.94024	7320.4875
1232.50976	7238.9875
1236.07685	7211.9875
1239.6415	7177.4875
1243.20374	7205.0875
1246.76355	7250.3875
1250.32093	7293.8875
1253.8759	7392.8875
1257.42845	7530.4875
1260.97859	7633.5875
1264.52631	7747.6875
1268.07163	7911.4875
1271.61453	8021.8875
1275.15503	8105.9875
1278.69312	8190.0875
1282.22882	8223.8875
1285.76211	8316.5875
1289.29301	8477.3875
1292.82151	8699.4875
1296.34761	8992.6875
1299.87133	9380.8875
1303.39266	9907.6875
1306.9116	10658.2875
1310.42815	11433.9875
1313.94233	11840.8875
1317.45412	11655.7875
1320.96354	11076.3875
1324.47058	10485.3875
1327.97525	9946.4875
1331.47754	9557.3875
1334.97747	9343.2875
1338.47502	9287.4875
1341.97022	9304.3875
1345.46305	9439.3875
1348.95352	9763.6875
1352.44163	10256.1875
1355.92738	10995.6875
1359.41078	12149.9875
1362.89183	13394.9875
1366.37053	13467.5875
1369.84688	11991.8875
1373.32088	10268.6875
1376.79254	9177.3875
1380.26186	8618.1875
1383.72883	8365.2875
1387.19347	8180.2875
1390.65578	7986.0875
1394.11575	7851.8875
1397.57339	7755.7875
1401.0287	7769.7875
1404.48168	7758.8875
1407.93234	7734.8875
1411.38068	7659.6875
1414.82669	7536.4875
1418.27039	7396.9875
1421.71177	7252.4875
1425.15083	7110.0875
1428.58758	6990.0875
1432.02203	7005.7875
1435.45416	7065.5875
1438.88399	7147.8875
1442.31151	7167.0875
1445.73673	7208.6875
1449.15965	7267.0875
1452.58027	7282.2875
1455.9986	7239.7875
1459.41463	7258.1875
1462.82837	7263.1875
1466.23982	7322.5875
1469.64898	7451.1875
1473.05586	7524.8875
1476.46045	7551.8875
1479.86276	7606.5875
1483.26279	7673.5875
1486.66054	7742.0875
1490.05602	7859.0875
1493.44922	8064.7875
1496.84016	8354.6875
1500.22882	8892.2875
1503.61521	9660.4875
1506.99934	10657.5875
1510.38121	11523.3875
1513.76081	11850.4875
1517.13816	11339.2875
1520.51324	10251.2875
1523.88607	9199.0875
1527.25665	8484.8875
1530.62498	8132.4875
1533.99105	7894.7875
1537.35488	7776.1875
1540.71647	7694.7875
1544.07581	7602.8875
1547.4329	7546.0875
1550.78776	7518.9875
1554.14038	7522.7875
1557.49077	7552.4875
1560.83892	7594.0875
1564.18484	7707.0875
1567.52853	7873.1875
1570.86999	8046.5875
1574.20922	8187.5875
1577.54624	8200.2875
1580.88103	8005.4875
1584.2136	7674.7875
1587.54395	7527.2875
1590.87208	7545.0875
1594.19801	7748.4875
1597.52172	8091.4875
1600.84321	8219.9875
1604.16251	8009.6875
1607.47959	7656.1875
1610.79447	7255.8875
1614.10715	6893.4875
1617.41763	6590.3875
1620.7259	6398.2875
1624.03199	6305.4875
1627.33587	6297.9875
1630.63757	6380.5875
1633.93707	6560.8875
1637.23439	6874.1875
1640.52951	7358.1875
1643.82246	8049.4875
1647.11321	8893.7875
1650.40179	9532.8875
1653.68819	9457.2875
1656.97241	8577.3875
1660.25446	7545.0875
1663.53433	6752.2875
1666.81203	6282.4875
1670.08756	5994.5875
1673.36092	5801.0875
1676.63211	5679.0875
1679.90115	5586.5875
1683.16801	5520.0875
1686.43272	5456.5875
1689.69527	5433.1875
1692.95567	5426.2875
1696.2139	5428.6875
1699.46999	5407.6875
1702.72392	5364.0875
1705.97571	5289.5875
1709.22535	5217.8875
1712.47284	5153.4875
1715.71819	5125.1875
1718.96139	5088.1875
1722.20246	5069.8875
1725.44139	5017.3875
1728.67818	4982.3875
1731.91284	4964.9875
1735.14537	4939.8875
1738.37576	4914.2875
1741.60403	4877.1875
1744.83017	4870.3875
1748.05418	4872.3875
1751.27607	4869.0875
1754.49584	4840.0875
1757.71349	4862.2875
1760.92903	4845.6875
1764.14244	4847.8875
1767.35375	4830.2875
1770.56294	4819.3875
1773.77002	4757.6875
1776.97499	4756.3875
1780.17785	4741.9875
1783.37861	4716.4875
1786.57727	4709.3875
1789.77382	4669.5875
1792.96828	4652.1875
1796.16064	4666.5875
1799.3509	4641.3875
1802.53907	4625.4875
1805.72514	4605.9875
1808.90913	4599.1875
1812.09102	4573.6875
1815.27083	4563.6875
1818.44856	4551.4875
1821.6242	4537.7875
1824.79776	4521.8875
1827.96924	4503.8875
1831.13864	4510.6875
1834.30597	4494.5875
1837.47122	4489.5875
1840.6344	4473.2875
1843.7955	4482.6875
1846.95454	4465.8875
1850.11151	4449.2875
1853.26642	4452.7875
1856.41926	4450.9875
1859.57004	4419.5875
1862.71876	4434.7875
1865.86542	4414.3875
1869.01003	4410.4875
1872.15258	4396.7875
1875.29308	4393.1875
1878.43152	4386.8875
1881.56792	4375.9875
1884.70227	4380.9875
1887.83457	4347.3875
1890.96482	4346.4875
1894.09304	4345.0875
1897.21921	4344.3875
1900.34335	4331.2875
1903.46544	4320.9875
1906.58551	4318.1875
1909.70353	4309.5875
1912.81953	4308.2875
1915.93349	4286.0875
1919.04543	4279.3875
1922.15534	4264.3875
1925.26322	4257.4875
1928.36908	4240.4875
1931.47292	4242.8875
1934.57473	4223.2875
1937.67453	4217.9875
1940.77232	4200.6875
1943.86808	4174.6875
1946.96184	4168.7875
1950.05358	4146.4875
1953.14331	4133.0875
1956.23103	4117.9875
1959.31675	4110.6875
1962.40046	4089.2875
1965.48217	4074.8875
1968.56188	4065.7875
1971.63959	4051.9875
1974.7153	4045.0875
1977.78901	4026.8875
1980.86073	4015.4875
1983.93046	4006.8875
1986.99819	3981.2875
1990.06394	3973.8875
1993.1277	3943.3875
1996.18947	3927.5875
1999.24925	3930.5875
2002.30706	3902.5875
2005.36288	3897.8875
2008.41672	3879.9875
2011.46859	3854.8875
2014.51848	3842.1875
2017.56639	3826.8875
2020.61233	3809.5875
2023.6563	3821.5875
2026.6983	3797.0875
2029.73833	3790.7875
2032.7764	3763.8875
2035.8125	3755.3875
2038.84664	3755.0875
2041.87881	3755.0875
2044.90903	3748.7875
2047.93729	3731.4875
2050.96359	3724.9875
2053.98794	3709.0875
2057.01034	3703.7875
2060.03078	3699.1875
2063.04927	3699.3875
2066.06582	3678.0875
2069.08042	3679.7875
2072.09307	3670.0875
2075.10378	3655.2875
2078.11255	3658.2875
2081.11938	3677.5875
2084.12426	3643.7875
2087.12722	3642.1875
2090.12824	3638.8875
2093.12732	3646.0875
2096.12447	3656.7875
2099.11969	3640.0875
2102.11299	3652.5875
2105.10435	3634.4875
2108.09379	3637.1875
2111.08131	3641.6875
2114.0669	3635.2875
2117.05057	3635.3875
2120.03233	3645.7875
2123.01216	3639.2875
2125.99008	3640.0875
2128.96609	3641.5875
2131.94018	3614.5875
2134.91236	3627.7875
2137.88263	3622.5875
2140.851	3624.2875
2143.81746	3631.2875
2146.78201	3637.4875
2149.74466	3630.8875
2152.7054	3610.2875
2155.66425	3614.5875
2158.6212	3601.3875
2161.57625	3594.7875
2164.52941	3614.9875
2167.48067	3604.2875
2170.43004	3596.9875
2173.37752	3591.3875
2176.32311	3577.0875
2179.26681	3574.5875
2182.20863	3572.8875
2185.14856	3584.3875
2188.08661	3581.1875
2191.02278	3555.2875
2193.95707	3558.6875
2196.88948	3562.2875
2199.82001	3551.6875
2202.74867	3543.6875
2205.67545	3545.7875
2208.60037	3545.7875
2211.52341	3525.4875
2214.44458	3514.4875
2217.36388	3506.3875
2220.28132	3489.5875
2223.1969	3484.9875
2226.11061	3464.9875
2229.02246	3456.3875
2231.93245	3460.7875
2234.84058	3456.2875
2237.74686	3437.8875
2240.65128	3445.7875
2243.55385	3432.8875
2246.45456	3432.9875
2249.35343	3418.7875
2252.25044	3404.0875
2255.14561	3400.1875
2258.03893	3412.3875
2260.93041	3411.0875
2263.82004	3405.9875
2266.70783	3386.6875
2269.59378	3369.7875
2272.4779	3351.9875
2275.36017	3349.3875
2278.24061	3349.2875
2281.11922	3336.4875
2283.996	3322.0875
2286.87094	3320.6875
2289.74405	3292.5875
2292.61534	3301.8875
2295.4848	3284.5875
2298.35243	3286.6875
2301.21824	3279.6875
2304.08223	3269.0875
2306.94439	3259.5875
2309.80474	3258.9875
2312.66327	3255.3875
2315.51999	3255.8875
2318.37489	3250.7875
2321.22797	3226.6875
2324.07925	3234.3875
2326.92871	3235.2875
2329.77637	3228.8875
2332.62222	3214.8875
2335.46626	3204.6875
2338.3085	3201.2875
2341.14893	3199.6875
2343.98756	3193.8875
2346.8244	3182.2875
2349.65943	3186.5875
2352.49267	3176.9875
2355.32411	3178.7875
2358.15376	3175.1875
2360.98161	3186.6875
2363.80768	3179.8875
2366.63195	3171.1875
2369.45444	3165.6875
2372.27514	3157.4875
2375.09405	3161.6875
2377.91118	3145.4875
2380.72652	3131.0875
2383.54009	3134.9875
2386.35187	3125.0875
2389.16188	3104.6875
2391.97011	3095.4875
2394.77657	3086.8875
2397.58125	3076.8875
2400.38416	3076.5875
2403.18529	3051.6875
2405.98466	3060.3875
2408.78226	3046.6875
2411.57809	3041.0875
2414.37216	3029.1875
2417.16446	3031.8875
2419.955	3022.0875
2422.74378	3008.8875
2425.5308	3005.1875
2428.31606	3019.4875
2431.09956	3009.5875
2433.88131	2982.2875
2436.6613	3004.8875
2439.43954	2995.3875
2442.21603	2989.6875
2444.99077	2968.0875
2447.76377	2975.2875
2450.53501	2979.9875
2453.30451	2963.9875
2456.07226	2970.9875
2458.83827	2960.0875
2461.60254	2953.6875
2464.36507	2962.7875
2467.12586	2946.8875
2469.88492	2941.4875
2472.64224	2935.1875
2475.39782	2947.2875
2478.15167	2960.1875
2480.90379	2942.0875
2483.65417	2938.5875
2486.40283	2938.0875
2489.14976	2925.6875
2491.89497	2930.9875
2494.63845	2953.0875
2497.3802	2943.0875
2500.12024	2936.1875
2502.85855	2926.2875
2505.59514	2924.3875
2508.33002	2895.1875
2511.06318	2882.7875
2513.79462	2887.3875
2516.52435	2879.4875
2519.25237	2861.8875
2521.97867	2855.2875
2524.70327	2848.4875
2527.42616	2850.1875
2530.14734	2837.9875
2532.86681	2849.0875
2535.58458	2828.0875
2538.30065	2814.6875
2541.01501	2817.0875
2543.72768	2812.6875
2546.43864	2817.1875
2549.14791	2806.2875
2551.85548	2798.9875
2554.56136	2790.9875
2557.26554	2788.6875
2559.96803	2799.3875
2562.66883	2782.9875
2565.36794	2767.1875
2568.06536	2761.3875
2570.7611	2758.2875
2573.45514	2768.7875
2576.14751	2752.8875
2578.83819	2742.0875
2581.52719	2740.0875
2584.21451	2727.3875
2586.90015	2735.8875
2589.58411	2715.8875
2592.2664	2720.1875
2594.94701	2703.1875
2597.62594	2717.4875
2600.30321	2694.7875
2602.9788	2695.7875
2605.65273	2681.0875
2608.32498	2680.5875
2610.99557	2677.5875
2613.66449	2665.2875
2616.33175	2666.9875
2618.99734	2659.8875
2621.66128	2661.2875
2624.32355	2652.8875
2626.98416	2654.4875
2629.64311	2636.7875
2632.30041	2637.6875
2634.95605	2639.5875
2637.61004	2634.3875
2640.26238	2619.9875
2642.91306	2621.4875
2645.56209	2613.1875
2648.20948	2605.3875
2650.85521	2609.4875
2653.4993	2600.9875
2656.14175	2609.3875
2658.78255	2599.7875
2661.42171	2605.3875
2664.05923	2594.8875
2666.6951	2599.0875
2669.32934	2606.9875
2671.96194	2601.6875
2674.59291	2596.2875
2677.22224	2590.8875
2679.84993	2597.1875
2682.476	2593.6875
2685.10043	2600.4875
2687.72324	2583.2875
2690.34441	2586.4875
2692.96396	2581.4875
2695.58188	2588.2875
2698.19818	2574.5875
2700.81285	2582.3875
2703.4259	2604.6875
2706.03733	2658.6875
2708.64714	2613.2875
2711.25533	2591.0875
2713.86191	2580.2875
2716.46687	2574.7875
2719.07021	2565.6875
2721.67194	2568.7875
2724.27206	2573.3875
2726.87057	2578.6875
2729.46747	2564.7875
2732.06276	2566.8875
2734.65644	2571.1875
2737.24852	2561.9875
2739.83899	2559.8875
2742.42786	2543.7875
2745.01513	2532.5875
2747.60079	2536.6875
2750.18486	2536.6875
2752.76733	2539.9875
2755.3482	2521.5875
2757.92747	2535.0875
2760.50515	2513.6875
2763.08123	2524.9875
2765.65573	2502.3875
2768.22863	2519.8875
2770.79994	2510.0875
2773.36967	2515.6875
2775.9378	2490.9875
2778.50435	2496.9875
2781.06932	2486.8875
2783.6327	2488.4875
2786.1945	2469.7875
2788.75471	2459.1875
2791.31335	2455.1875
2793.87041	2459.0875
2796.42589	2451.1875
2798.97979	2453.1875
2801.53212	2457.6875
2804.08288	2444.1875
2806.63206	2436.3875
2809.17967	2427.5875
2811.72571	2429.6875
2814.27018	2425.5875
2816.81308	2414.3875
2819.35442	2414.4875
2821.89419	2413.6875
2824.43239	2414.8875
2826.96904	2406.0875
2829.50412	2413.8875
2832.03763	2400.6875
2834.56959	2410.1875
2837.1	2395.4875
2839.62884	2394.5875
2842.15613	2386.8875
2844.68186	2404.2875
2847.20604	2399.5875
2849.72867	2409.7875
2852.24974	2396.2875
2854.76927	2413.4875
2857.28724	2428.3875
2859.80367	2410.4875
2862.31855	2386.4875
2864.83189	2392.3875
2867.34368	2384.3875
2869.85393	2381.9875
2872.36264	2377.1875
2874.8698	2384.0875
2877.37543	2381.8875
2879.87952	2389.0875
2882.38207	2377.4875
2884.88308	2373.8875
2887.38256	2379.5875
2889.88051	2379.9875
2892.37692	2368.1875
2894.8718	2367.5875
2897.36515	2367.2875
2899.85698	2368.0875
2902.34727	2382.9875
2904.83604	2372.2875
2907.32328	2375.6875
2909.809	2378.6875
2912.29319	2382.7875
2914.77587	2382.8875
2917.25702	2381.7875
2919.73665	2363.9875
2922.21476	2377.9875
2924.69136	2382.2875
2927.16644	2373.6875
2929.64	2354.0875
2932.11205	2359.6875
2934.58258	2351.4875
2937.05161	2349.2875
2939.51912	2348.8875
2941.98513	2340.2875
2944.44962	2333.7875
2946.91261	2329.1875
2949.37409	2324.2875
2951.83407	2342.1875
2954.29254	2334.4875
2956.74951	2328.7875
2959.20498	2319.8875
2961.65895	2312.3875
2964.11142	2313.2875
2966.56239	2297.0875
2969.01186	2292.5875
2971.45984	2284.4875
2973.90632	2276.3875
2976.35131	2276.5875
2978.7948	2277.2875
2981.23681	2275.4875
2983.67732	2261.8875
2986.11635	2266.6875
2988.55388	2255.1875
2990.98993	2249.2875
2993.4245	2257.8875
2995.85758	2239.1875
2998.28917	2244.3875
3000.71928	2242.6875
3003.14791	2243.1875
3005.57506	2229.7875
3008.00073	2230.5875
3010.42493	2225.0875
3012.84764	2225.8875
3015.26888	2232.6875
3017.68865	2217.3875
3020.10694	2220.2875
3022.52376	2222.1875
3024.9391	2215.8875
3027.35298	2206.8875
3029.76539	2204.8875
3032.17632	2199.7875
3034.5858	2197.1875
3036.9938	2196.3875
3039.40034	2194.8875
3041.80542	2182.4875
3044.20903	2191.5875
3046.61118	2193.7875
3049.01187	2182.3875
3051.4111	2184.2875
3053.80888	2171.2875
3056.20519	2177.7875
3058.60005	2167.6875
3060.99345	2171.4875
3063.3854	2170.2875
3065.7759	2175.6875
3068.16494	2155.3875
3070.55254	2171.6875
3072.93868	2162.5875
3075.32338	2147.2875
3077.70662	2151.9875
3080.08842	2152.7875
3082.46878	2146.9875
3084.84769	2149.7875
3087.22515	2156.1875
3089.60118	2157.7875
3091.97576	2162.6875
3094.3489	2160.5875
3096.72061	2175.8875
3099.09087	2162.1875
3101.4597	2158.4875
3103.82709	2163.6875
3106.19305	2163.3875
3108.55757	2156.0875
3110.92066	2157.2875
3113.28232	2155.1875
3115.64255	2141.4875
3118.00134	2161.4875
3120.35871	2147.2875
3122.71466	2149.9875
3125.06917	2144.5875
3127.42226	2137.5875
3129.77393	2151.0875
3132.12417	2152.0875
3134.47299	2144.6875
3136.82039	2160.2875
3139.16636	2164.8875
3141.51092	2164.9875
3143.85406	2165.0875
3146.19579	2176.7875
3148.53609	2173.1875
3150.87499	2177.2875
3153.21246	2173.0875
3155.54853	2192.9875
3157.88318	2182.3875
3160.21642	2195.9875
3162.54826	2191.5875
3164.87868	2192.8875
3167.2077	2205.6875
3169.5353	2213.2875
3171.86151	2197.7875
3174.18631	2198.4875
3176.5097	2213.2875
3178.83169	2206.2875
3181.15228	2212.8875
3183.47147	2201.8875
3185.78926	2205.1875
3188.10565	2212.1875
3190.42065	2215.0875
3192.73424	2217.9875
3195.04645	2209.0875
3197.35725	2235.6875
3199.66667	2226.7875
3201.97469	2223.8875
3204.28132	2234.5875
3206.58656	2231.5875
3208.8904	2232.7875
3211.19287	2235.3875
3213.49394	2245.8875
3215.79363	2243.3875
3218.09193	2244.1875
3220.38884	2249.9875
3222.68438	2267.7875
3224.97853	2257.5875
3227.2713	2249.3875
3229.56269	2247.5875
3231.8527	2244.5875
3234.14133	2241.3875
3236.42858	2233.5875
3238.71446	2243.0875
3240.99896	2235.2875
3243.28209	2221.1875
3245.56384	2228.4875
3247.84423	2235.8875
3250.12324	2235.0875
3252.40088	2228.7875
3254.67715	2234.7875
3256.95205	2233.8875
3259.22558	2230.4875
3261.49775	2226.5875
3263.76855	2222.8875
3266.03799	2213.6875
3268.30606	2210.6875
3270.57277	2205.2875
3272.83812	2206.8875
3275.10211	2199.0875
3277.36474	2193.3875
3279.62601	2196.7875
3281.88593	2192.6875
3284.14448	2196.6875
3286.40168	2184.6875
3288.65753	2190.4875
3290.91202	2188.3875
3293.16516	2185.4875
3295.41695	2183.3875
3297.66738	2162.7875
3299.91647	2163.5875
3302.16421	2139.6875
3304.4106	2131.8875
3306.65564	2120.8875
3308.89933	2118.0875
3311.14169	2110.6875
3313.38269	2090.4875
3315.62236	2078.6875
3317.86068	2060.2875
3320.09766	2041.1875
3322.3333	2039.3875
3324.5676	2030.1875
3326.80056	2013.8875
3329.03219	1990.6875
3331.26248	0.3875
3333.49143	0.6875
3335.71905	-0.2125
