Data from AgNPs_FTO_APTES_UA_0um_CRN_0.1mM_R6G_10uM_NaF_0.1M_Addition_RamanShift__11__10-24-08-902.txt Node

Date: Tue Dec 21 10:24:08 GMT 2021
User: TCL
Spectrometer: QEP01345
Trigger mode: 4
Integration Time (sec): 7.000000E0
Scans to average: 10
Electric dark correction enabled: true
Nonlinearity correction enabled: false
Boxcar width: 0
XAxis mode: Raman Shifts
Number of Pixels in Spectrum: 1044
>>>>>Begin Spectral Data<<<<<
46.04893	0.2875
50.45542	-1.1125
54.85868	-0.9125
59.25871	0.7875
63.6555	17.2875
68.04907	24.1875
72.43941	23.1875
76.82654	23.0875
81.21044	29.5875
85.59113	26.6875
89.96862	31.0875
94.34289	30.8875
98.71396	27.6875
103.08183	33.4875
107.4465	34.1875
111.80798	34.2875
116.16626	32.4875
120.52136	32.9875
124.87327	33.0875
129.222	30.1875
133.56755	29.9875
137.90993	35.0875
142.24913	33.4875
146.58517	38.0875
150.91804	40.8875
155.24774	41.2875
159.57429	46.4875
163.89768	57.3875
168.21792	69.4875
172.53501	84.5875
176.84895	110.8875
181.15975	155.7875
185.46741	211.8875
189.77193	287.5875
194.07331	387.7875
198.37157	511.6875
202.6667	649.5875
206.9587	809.3875
211.24758	963.1875
215.53334	1129.6875
219.81599	1292.3875
224.09553	1471.2875
228.37195	1664.0875
232.64527	1854.4875
236.91549	2022.9875
241.18261	2207.1875
245.44663	2353.7875
249.70755	2488.5875
253.96539	2590.5875
258.22014	2651.0875
262.4718	2663.1875
266.72039	2642.3875
270.96589	2591.1875
275.20832	2509.0875
279.44768	2426.8875
283.68397	2317.3875
287.91719	2202.8875
292.14735	2097.1875
296.37445	2010.7875
300.59849	1917.8875
304.81948	1866.0875
309.03742	1804.5875
313.25231	1758.7875
317.46415	1723.6875
321.67296	1675.0875
325.87872	1653.8875
330.08145	1633.4875
334.28114	1622.9875
338.47781	1620.4875
342.67145	1610.4875
346.86207	1620.0875
351.04966	1615.1875
355.23424	1615.5875
359.4158	1611.1875
363.59435	1596.7875
367.76989	1589.6875
371.94243	1570.3875
376.11196	1567.6875
380.27849	1555.0875
384.44203	1558.8875
388.60257	1548.3875
392.76012	1544.2875
396.91468	1535.6875
401.06626	1533.6875
405.21485	1532.8875
409.36047	1531.2875
413.50311	1531.8875
417.64277	1526.4875
421.77947	1536.4875
425.9132	1542.1875
430.04396	1550.9875
434.17176	1555.7875
438.2966	1577.6875
442.41849	1590.6875
446.53742	1616.2875
450.6534	1625.4875
454.76644	1630.7875
458.87653	1649.4875
462.98368	1644.4875
467.08789	1642.7875
471.18916	1639.5875
475.2875	1638.6875
479.38291	1636.5875
483.4754	1635.3875
487.56496	1647.6875
491.6516	1635.5875
495.73531	1623.2875
499.81612	1627.6875
503.89401	1618.1875
507.96899	1623.0875
512.04106	1609.4875
516.11023	1609.8875
520.1765	1592.9875
524.23987	1591.3875
528.30034	1577.5875
532.35792	1588.7875
536.41261	1580.8875
540.46441	1580.1875
544.51333	1583.7875
548.55936	1591.7875
552.60252	1587.7875
556.64279	1591.5875
560.6802	1589.6875
564.71473	1588.7875
568.7464	1595.8875
572.7752	1604.7875
576.80114	1601.6875
580.82422	1592.8875
584.84444	1583.2875
588.86181	1573.9875
592.87633	1559.6875
596.888	1563.6875
600.89682	1568.9875
604.9028	1585.5875
608.90594	1626.0875
612.90624	1682.8875
616.90371	1691.5875
620.89834	1655.0875
624.89015	1621.6875
628.87913	1617.7875
632.86528	1616.5875
636.84862	1623.1875
640.82913	1642.5875
644.80683	1672.0875
648.78172	1690.6875
652.75379	1710.6875
656.72306	1709.5875
660.68952	1706.6875
664.65319	1737.8875
668.61405	1777.0875
672.57211	1875.0875
676.52738	2013.7875
680.47986	2145.1875
684.42955	2232.0875
688.37646	2215.3875
692.32058	2136.9875
696.26192	2020.9875
700.20048	1960.3875
704.13626	1905.4875
708.06928	1852.9875
711.99952	1827.2875
715.927	1802.3875
719.85171	1782.4875
723.77365	1772.6875
727.69284	1778.4875
731.60928	1784.3875
735.52295	1769.6875
739.43388	1744.3875
743.34206	1721.6875
747.24749	1725.7875
751.15017	1721.9875
755.05012	1724.0875
758.94733	1741.7875
762.8418	1750.0875
766.73354	1760.8875
770.62254	1765.5875
774.50882	1762.2875
778.39237	1741.2875
782.27321	1708.5875
786.15132	1687.8875
790.02671	1669.6875
793.89938	1671.3875
797.76935	1669.4875
801.6366	1676.2875
805.50115	1682.6875
809.36299	1693.0875
813.22213	1676.2875
817.07857	1678.5875
820.93231	1664.5875
824.78336	1664.8875
828.63172	1650.6875
832.47738	1651.3875
836.32036	1648.1875
840.16066	1643.8875
843.99827	1639.6875
847.8332	1641.4875
851.66546	1629.6875
855.49504	1623.1875
859.32195	1629.7875
863.1462	1631.0875
866.96777	1640.0875
870.78668	1652.2875
874.60293	1660.3875
878.41652	1661.0875
882.22745	1672.0875
886.03573	1672.0875
889.84136	1676.5875
893.64433	1693.7875
897.44466	1702.2875
901.24235	1718.1875
905.0374	1723.8875
908.8298	1745.4875
912.61957	1782.3875
916.40671	1822.8875
920.19121	1876.9875
923.97308	1931.3875
927.75233	1967.3875
931.52895	1990.3875
935.30295	1972.3875
939.07433	1942.5875
942.84309	1894.8875
946.60924	1868.8875
950.37278	1846.8875
954.13371	1832.6875
957.89203	1798.2875
961.64774	1793.2875
965.40086	1774.0875
969.15137	1760.6875
972.89929	1750.4875
976.64461	1722.7875
980.38733	1722.8875
984.12747	1712.1875
987.86502	1695.6875
991.59999	1700.9875
995.33237	1696.0875
999.06217	1693.4875
1002.78939	1688.4875
1006.51404	1703.3875
1010.23611	1706.8875
1013.95561	1699.4875
1017.67255	1704.4875
1021.38692	1715.1875
1025.09872	1725.1875
1028.80796	1723.9875
1032.51465	1740.6875
1036.21877	1751.1875
1039.92035	1780.6875
1043.61937	1799.7875
1047.31584	1816.4875
1051.00976	1842.0875
1054.70114	1840.6875
1058.38998	1838.8875
1062.07627	1807.4875
1065.76003	1773.3875
1069.44126	1728.3875
1073.11995	1682.0875
1076.79611	1655.1875
1080.46974	1636.0875
1084.14085	1614.4875
1087.80943	1594.4875
1091.47549	1572.7875
1095.13903	1574.3875
1098.80005	1563.7875
1102.45857	1556.1875
1106.11456	1546.2875
1109.76805	1536.7875
1113.41903	1545.7875
1117.06751	1549.0875
1120.71348	1560.8875
1124.35696	1561.8875
1127.99793	1572.4875
1131.63641	1597.3875
1135.2724	1603.4875
1138.90589	1596.2875
1142.5369	1596.0875
1146.16542	1584.4875
1149.79145	1592.4875
1153.415	1576.0875
1157.03607	1563.0875
1160.65467	1581.6875
1164.27079	1571.9875
1167.88443	1573.9875
1171.49561	1582.1875
1175.10432	1599.5875
1178.71056	1631.7875
1182.31434	1635.8875
1185.91565	1649.1875
1189.51451	1654.7875
1193.11091	1642.2875
1196.70485	1633.6875
1200.29634	1624.9875
1203.88538	1616.8875
1207.47197	1608.1875
1211.05612	1602.8875
1214.63782	1597.0875
1218.21708	1608.6875
1221.79391	1612.1875
1225.36829	1622.5875
1228.94024	1627.6875
1232.50976	1641.2875
1236.07685	1649.0875
1239.6415	1668.1875
1243.20374	1693.5875
1246.76355	1703.4875
1250.32093	1715.4875
1253.8759	1721.8875
1257.42845	1743.9875
1260.97859	1756.3875
1264.52631	1752.1875
1268.07163	1757.0875
1271.61453	1766.0875
1275.15503	1778.0875
1278.69312	1787.0875
1282.22882	1792.1875
1285.76211	1813.3875
1289.29301	1829.5875
1292.82151	1856.9875
1296.34761	1875.8875
1299.87133	1902.2875
1303.39266	1932.2875
1306.9116	1967.7875
1310.42815	2002.7875
1313.94233	2027.3875
1317.45412	2012.3875
1320.96354	1999.8875
1324.47058	1995.8875
1327.97525	1984.4875
1331.47754	1979.0875
1334.97747	1987.3875
1338.47502	2010.0875
1341.97022	2031.2875
1345.46305	2066.7875
1348.95352	2100.2875
1352.44163	2151.0875
1355.92738	2216.3875
1359.41078	2275.1875
1362.89183	2334.0875
1366.37053	2350.5875
1369.84688	2325.5875
1373.32088	2268.9875
1376.79254	2244.7875
1380.26186	2214.4875
1383.72883	2188.7875
1387.19347	2170.4875
1390.65578	2153.4875
1394.11575	2147.9875
1397.57339	2137.6875
1401.0287	2132.8875
1404.48168	2134.8875
1407.93234	2143.9875
1411.38068	2155.6875
1414.82669	2158.9875
1418.27039	2172.1875
1421.71177	2188.4875
1425.15083	2164.0875
1428.58758	2111.3875
1432.02203	2064.6875
1435.45416	2025.5875
1438.88399	2006.1875
1442.31151	1996.3875
1445.73673	1971.6875
1449.15965	1984.4875
1452.58027	1978.7875
1455.9986	1973.4875
1459.41463	1956.9875
1462.82837	1960.4875
1466.23982	1944.6875
1469.64898	1939.3875
1473.05586	1928.2875
1476.46045	1912.7875
1479.86276	1898.2875
1483.26279	1878.8875
1486.66054	1868.0875
1490.05602	1857.2875
1493.44922	1850.8875
1496.84016	1852.2875
1500.22882	1870.7875
1503.61521	1892.2875
1506.99934	1917.4875
1510.38121	1938.6875
1513.76081	1938.7875
1517.13816	1929.4875
1520.51324	1904.4875
1523.88607	1853.7875
1527.25665	1841.7875
1530.62498	1818.8875
1533.99105	1813.7875
1537.35488	1801.7875
1540.71647	1792.2875
1544.07581	1795.3875
1547.4329	1802.4875
1550.78776	1791.8875
1554.14038	1799.5875
1557.49077	1786.4875
1560.83892	1781.1875
1564.18484	1785.8875
1567.52853	1774.7875
1570.86999	1762.9875
1574.20922	1759.6875
1577.54624	1749.3875
1580.88103	1730.4875
1584.2136	1705.2875
1587.54395	1688.9875
1590.87208	1676.5875
1594.19801	1666.4875
1597.52172	1659.3875
1600.84321	1664.4875
1604.16251	1646.0875
1607.47959	1652.5875
1610.79447	1636.9875
1614.10715	1631.2875
1617.41763	1627.1875
1620.7259	1618.6875
1624.03199	1633.0875
1627.33587	1606.8875
1630.63757	1609.4875
1633.93707	1615.6875
1637.23439	1614.2875
1640.52951	1606.6875
1643.82246	1609.7875
1647.11321	1624.0875
1650.40179	1627.4875
1653.68819	1608.8875
1656.97241	1570.1875
1660.25446	1527.3875
1663.53433	1496.0875
1666.81203	1462.0875
1670.08756	1439.7875
1673.36092	1406.8875
1676.63211	1389.5875
1679.90115	1368.9875
1683.16801	1349.8875
1686.43272	1325.9875
1689.69527	1315.2875
1692.95567	1293.7875
1696.2139	1277.4875
1699.46999	1260.3875
1702.72392	1250.3875
1705.97571	1238.0875
1709.22535	1235.2875
1712.47284	1234.4875
1715.71819	1227.4875
1718.96139	1207.0875
1722.20246	1219.7875
1725.44139	1211.7875
1728.67818	1202.8875
1731.91284	1200.3875
1735.14537	1200.8875
1738.37576	1202.5875
1741.60403	1201.1875
1744.83017	1211.1875
1748.05418	1220.7875
1751.27607	1255.3875
1754.49584	1288.9875
1757.71349	1307.9875
1760.92903	1316.8875
1764.14244	1316.3875
1767.35375	1295.6875
1770.56294	1251.3875
1773.77002	1209.4875
1776.97499	1175.6875
1780.17785	1170.8875
1783.37861	1147.8875
1786.57727	1130.0875
1789.77382	1127.1875
1792.96828	1101.5875
1796.16064	1091.8875
1799.3509	1071.9875
1802.53907	1062.4875
1805.72514	1056.0875
1808.90913	1043.4875
1812.09102	1034.2875
1815.27083	1029.1875
1818.44856	1032.1875
1821.6242	1026.5875
1824.79776	1017.4875
1827.96924	1019.6875
1831.13864	1013.1875
1834.30597	1017.1875
1837.47122	999.5875
1840.6344	1008.5875
1843.7955	1001.4875
1846.95454	1009.7875
1850.11151	1008.7875
1853.26642	1004.2875
1856.41926	1010.6875
1859.57004	995.9875
1862.71876	990.3875
1865.86542	991.5875
1869.01003	989.8875
1872.15258	994.6875
1875.29308	989.4875
1878.43152	991.3875
1881.56792	994.9875
1884.70227	987.6875
1887.83457	981.6875
1890.96482	975.3875
1894.09304	982.0875
1897.21921	980.3875
1900.34335	975.3875
1903.46544	981.7875
1906.58551	970.8875
1909.70353	972.7875
1912.81953	966.4875
1915.93349	965.7875
1919.04543	973.0875
1922.15534	968.0875
1925.26322	964.8875
1928.36908	969.3875
1931.47292	966.8875
1934.57473	958.0875
1937.67453	965.0875
1940.77232	961.7875
1943.86808	957.7875
1946.96184	951.5875
1950.05358	955.2875
1953.14331	951.9875
1956.23103	941.3875
1959.31675	941.1875
1962.40046	944.7875
1965.48217	939.3875
1968.56188	934.3875
1971.63959	928.1875
1974.7153	932.4875
1977.78901	915.5875
1980.86073	923.2875
1983.93046	927.1875
1986.99819	917.6875
1990.06394	909.6875
1993.1277	904.0875
1996.18947	901.9875
1999.24925	899.7875
2002.30706	901.0875
2005.36288	891.9875
2008.41672	895.6875
2011.46859	894.6875
2014.51848	890.6875
2017.56639	886.0875
2020.61233	884.4875
2023.6563	884.0875
2026.6983	883.8875
2029.73833	876.2875
2032.7764	878.5875
2035.8125	872.8875
2038.84664	877.9875
2041.87881	871.1875
2044.90903	874.4875
2047.93729	872.2875
2050.96359	881.7875
2053.98794	873.8875
2057.01034	888.0875
2060.03078	884.8875
2063.04927	892.3875
2066.06582	890.0875
2069.08042	893.7875
2072.09307	897.3875
2075.10378	904.8875
2078.11255	913.8875
2081.11938	914.7875
2084.12426	919.6875
2087.12722	925.9875
2090.12824	925.7875
2093.12732	927.1875
2096.12447	927.2875
2099.11969	928.8875
2102.11299	928.0875
2105.10435	930.5875
2108.09379	930.7875
2111.08131	927.9875
2114.0669	925.8875
2117.05057	918.4875
2120.03233	923.7875
2123.01216	909.3875
2125.99008	912.9875
2128.96609	903.4875
2131.94018	897.4875
2134.91236	903.2875
2137.88263	897.5875
2140.851	890.3875
2143.81746	883.8875
2146.78201	876.4875
2149.74466	875.1875
2152.7054	869.2875
2155.66425	867.7875
2158.6212	867.3875
2161.57625	858.2875
2164.52941	857.2875
2167.48067	845.7875
2170.43004	850.2875
2173.37752	849.1875
2176.32311	846.7875
2179.26681	841.8875
2182.20863	838.3875
2185.14856	847.1875
2188.08661	841.8875
2191.02278	842.2875
2193.95707	830.7875
2196.88948	846.9875
2199.82001	840.3875
2202.74867	837.1875
2205.67545	833.7875
2208.60037	828.6875
2211.52341	833.5875
2214.44458	836.1875
2217.36388	819.7875
2220.28132	822.7875
2223.1969	814.6875
2226.11061	827.5875
2229.02246	816.3875
2231.93245	814.2875
2234.84058	812.8875
2237.74686	808.5875
2240.65128	807.4875
2243.55385	805.1875
2246.45456	804.8875
2249.35343	807.6875
2252.25044	811.2875
2255.14561	798.0875
2258.03893	798.6875
2260.93041	798.6875
2263.82004	797.4875
2266.70783	794.1875
2269.59378	792.4875
2272.4779	787.1875
2275.36017	788.1875
2278.24061	783.4875
2281.11922	786.9875
2283.996	784.1875
2286.87094	774.6875
2289.74405	776.2875
2292.61534	774.8875
2295.4848	774.4875
2298.35243	774.1875
2301.21824	775.2875
2304.08223	778.4875
2306.94439	771.2875
2309.80474	761.8875
2312.66327	766.7875
2315.51999	769.7875
2318.37489	762.0875
2321.22797	755.9875
2324.07925	764.8875
2326.92871	770.3875
2329.77637	771.3875
2332.62222	759.9875
2335.46626	754.6875
2338.3085	749.2875
2341.14893	751.7875
2343.98756	749.2875
2346.8244	751.5875
2349.65943	746.4875
2352.49267	751.7875
2355.32411	747.3875
2358.15376	744.4875
2360.98161	744.3875
2363.80768	748.7875
2366.63195	749.3875
2369.45444	743.6875
2372.27514	747.2875
2375.09405	739.0875
2377.91118	734.3875
2380.72652	735.6875
2383.54009	741.1875
2386.35187	737.0875
2389.16188	737.0875
2391.97011	731.7875
2394.77657	737.4875
2397.58125	724.5875
2400.38416	728.2875
2403.18529	725.4875
2405.98466	730.1875
2408.78226	723.7875
2411.57809	725.3875
2414.37216	720.6875
2417.16446	729.5875
2419.955	718.4875
2422.74378	713.9875
2425.5308	712.2875
2428.31606	715.8875
2431.09956	716.2875
2433.88131	720.7875
2436.6613	714.0875
2439.43954	711.1875
2442.21603	703.3875
2444.99077	711.9875
2447.76377	712.0875
2450.53501	709.6875
2453.30451	707.0875
2456.07226	707.6875
2458.83827	709.3875
2461.60254	699.2875
2464.36507	699.9875
2467.12586	705.0875
2469.88492	698.0875
2472.64224	701.0875
2475.39782	699.5875
2478.15167	698.3875
2480.90379	693.7875
2483.65417	699.1875
2486.40283	699.3875
2489.14976	698.9875
2491.89497	692.2875
2494.63845	693.0875
2497.3802	700.6875
2500.12024	691.4875
2502.85855	698.3875
2505.59514	687.1875
2508.33002	694.6875
2511.06318	689.0875
2513.79462	688.0875
2516.52435	691.4875
2519.25237	690.5875
2521.97867	685.0875
2524.70327	682.4875
2527.42616	685.0875
2530.14734	686.2875
2532.86681	682.3875
2535.58458	680.4875
2538.30065	674.2875
2541.01501	676.9875
2543.72768	674.1875
2546.43864	671.1875
2549.14791	674.0875
2551.85548	674.8875
2554.56136	677.8875
2557.26554	662.5875
2559.96803	668.6875
2562.66883	666.1875
2565.36794	662.7875
2568.06536	662.8875
2570.7611	663.9875
2573.45514	663.4875
2576.14751	663.6875
2578.83819	659.7875
2581.52719	659.6875
2584.21451	658.2875
2586.90015	658.1875
2589.58411	655.1875
2592.2664	656.6875
2594.94701	648.7875
2597.62594	649.4875
2600.30321	648.6875
2602.9788	641.7875
2605.65273	646.3875
2608.32498	645.0875
2610.99557	643.2875
2613.66449	641.6875
2616.33175	637.7875
2618.99734	640.6875
2621.66128	639.0875
2624.32355	637.6875
2626.98416	638.1875
2629.64311	637.4875
2632.30041	638.3875
2634.95605	640.9875
2637.61004	640.3875
2640.26238	638.1875
2642.91306	637.3875
2645.56209	633.3875
2648.20948	638.6875
2650.85521	635.1875
2653.4993	632.9875
2656.14175	624.9875
2658.78255	633.5875
2661.42171	637.6875
2664.05923	631.3875
2666.6951	638.8875
2669.32934	634.6875
2671.96194	640.3875
2674.59291	636.4875
2677.22224	637.1875
2679.84993	643.8875
2682.476	633.1875
2685.10043	637.7875
2687.72324	638.7875
2690.34441	637.4875
2692.96396	634.3875
2695.58188	643.2875
2698.19818	639.7875
2700.81285	638.9875
2703.4259	640.8875
2706.03733	643.9875
2708.64714	639.4875
2711.25533	639.8875
2713.86191	636.8875
2716.46687	638.6875
2719.07021	636.7875
2721.67194	645.1875
2724.27206	644.4875
2726.87057	637.0875
2729.46747	643.6875
2732.06276	644.5875
2734.65644	639.7875
2737.24852	638.3875
2739.83899	630.0875
2742.42786	635.6875
2745.01513	632.9875
2747.60079	635.1875
2750.18486	631.7875
2752.76733	631.7875
2755.3482	629.8875
2757.92747	630.9875
2760.50515	630.0875
2763.08123	631.1875
2765.65573	625.5875
2768.22863	627.1875
2770.79994	628.0875
2773.36967	632.5875
2775.9378	622.0875
2778.50435	625.7875
2781.06932	621.7875
2783.6327	619.7875
2786.1945	624.1875
2788.75471	620.2875
2791.31335	619.3875
2793.87041	621.8875
2796.42589	611.9875
2798.97979	624.4875
2801.53212	615.6875
2804.08288	624.6875
2806.63206	618.9875
2809.17967	616.8875
2811.72571	621.3875
2814.27018	630.1875
2816.81308	623.3875
2819.35442	614.7875
2821.89419	621.2875
2824.43239	624.9875
2826.96904	623.1875
2829.50412	622.4875
2832.03763	625.7875
2834.56959	626.5875
2837.1	624.4875
2839.62884	623.8875
2842.15613	629.6875
2844.68186	624.4875
2847.20604	623.4875
2849.72867	631.9875
2852.24974	626.9875
2854.76927	621.7875
2857.28724	626.6875
2859.80367	628.6875
2862.31855	622.9875
2864.83189	626.4875
2867.34368	633.2875
2869.85393	625.6875
2872.36264	624.5875
2874.8698	634.3875
2877.37543	638.2875
2879.87952	645.4875
2882.38207	649.2875
2884.88308	649.3875
2887.38256	656.1875
2889.88051	660.5875
2892.37692	671.6875
2894.8718	674.0875
2897.36515	680.3875
2899.85698	680.8875
2902.34727	692.9875
2904.83604	704.8875
2907.32328	706.5875
2909.809	717.6875
2912.29319	726.9875
2914.77587	733.0875
2917.25702	743.8875
2919.73665	743.6875
2922.21476	761.5875
2924.69136	758.1875
2927.16644	771.3875
2929.64	775.0875
2932.11205	782.9875
2934.58258	787.7875
2937.05161	790.0875
2939.51912	808.4875
2941.98513	809.6875
2944.44962	814.3875
2946.91261	820.8875
2949.37409	813.1875
2951.83407	808.1875
2954.29254	804.1875
2956.74951	799.7875
2959.20498	795.5875
2961.65895	776.0875
2964.11142	764.5875
2966.56239	755.5875
2969.01186	747.1875
2971.45984	733.9875
2973.90632	718.5875
2976.35131	708.7875
2978.7948	706.0875
2981.23681	698.6875
2983.67732	684.4875
2986.11635	691.1875
2988.55388	684.3875
2990.98993	676.0875
2993.4245	679.2875
2995.85758	671.8875
2998.28917	672.9875
3000.71928	673.6875
3003.14791	677.2875
3005.57506	673.0875
3008.00073	665.9875
3010.42493	670.3875
3012.84764	664.5875
3015.26888	666.1875
3017.68865	664.4875
3020.10694	661.5875
3022.52376	667.6875
3024.9391	660.9875
3027.35298	659.2875
3029.76539	657.8875
3032.17632	649.7875
3034.5858	648.0875
3036.9938	643.8875
3039.40034	643.5875
3041.80542	642.0875
3044.20903	636.6875
3046.61118	641.4875
3049.01187	640.7875
3051.4111	634.2875
3053.80888	627.7875
3056.20519	637.6875
3058.60005	642.6875
3060.99345	636.5875
3063.3854	628.9875
3065.7759	636.6875
3068.16494	624.1875
3070.55254	632.3875
3072.93868	637.8875
3075.32338	635.7875
3077.70662	633.5875
3080.08842	638.5875
3082.46878	638.1875
3084.84769	637.9875
3087.22515	643.4875
3089.60118	651.5875
3091.97576	649.1875
3094.3489	652.6875
3096.72061	663.3875
3099.09087	660.6875
3101.4597	658.6875
3103.82709	667.7875
3106.19305	664.8875
3108.55757	673.2875
3110.92066	676.1875
3113.28232	669.9875
3115.64255	682.3875
3118.00134	677.6875
3120.35871	684.1875
3122.71466	687.3875
3125.06917	689.5875
3127.42226	693.0875
3129.77393	695.0875
3132.12417	704.9875
3134.47299	708.2875
3136.82039	706.5875
3139.16636	710.9875
3141.51092	719.5875
3143.85406	720.1875
3146.19579	729.5875
3148.53609	723.7875
3150.87499	736.3875
3153.21246	741.9875
3155.54853	742.7875
3157.88318	752.8875
3160.21642	749.1875
3162.54826	757.3875
3164.87868	767.1875
3167.2077	770.4875
3169.5353	790.2875
3171.86151	782.9875
3174.18631	780.9875
3176.5097	781.6875
3178.83169	781.8875
3181.15228	791.8875
3183.47147	796.0875
3185.78926	788.9875
3188.10565	804.2875
3190.42065	803.1875
3192.73424	812.5875
3195.04645	818.0875
3197.35725	807.5875
3199.66667	817.4875
3201.97469	817.3875
3204.28132	817.5875
3206.58656	828.8875
3208.8904	831.0875
3211.19287	837.1875
3213.49394	833.1875
3215.79363	834.9875
3218.09193	837.9875
3220.38884	837.8875
3222.68438	839.9875
3224.97853	839.8875
3227.2713	848.7875
3229.56269	845.2875
3231.8527	858.9875
3234.14133	847.2875
3236.42858	848.2875
3238.71446	852.6875
3240.99896	836.7875
3243.28209	852.5875
3245.56384	852.4875
3247.84423	856.4875
3250.12324	858.1875
3252.40088	851.8875
3254.67715	855.6875
3256.95205	853.8875
3259.22558	856.7875
3261.49775	854.5875
3263.76855	851.7875
3266.03799	859.9875
3268.30606	855.6875
3270.57277	855.5875
3272.83812	852.6875
3275.10211	858.3875
3277.36474	853.4875
3279.62601	851.6875
3281.88593	857.2875
3284.14448	860.6875
3286.40168	861.3875
3288.65753	846.9875
3290.91202	856.4875
3293.16516	850.8875
3295.41695	841.5875
3297.66738	844.3875
3299.91647	849.1875
3302.16421	836.1875
3304.4106	842.9875
3306.65564	837.7875
3308.89933	826.3875
3311.14169	826.7875
3313.38269	829.3875
3315.62236	819.0875
3317.86068	815.9875
3320.09766	812.6875
3322.3333	808.0875
3324.5676	802.2875
3326.80056	789.6875
3329.03219	789.9875
3331.26248	0.5875
3333.49143	0.5875
3335.71905	0.0875
