Data from AgNP_FTO_APTES_CRN_1000uM_R6G_10uM_NaF_0.1M_Addition_RamanShift__20__21-13-38-289.txt Node

Date: Wed Dec 15 21:13:38 GMT 2021
User: TCL
Spectrometer: QEP01345
Trigger mode: 4
Integration Time (sec): 7.000000E0
Scans to average: 10
Electric dark correction enabled: true
Nonlinearity correction enabled: false
Boxcar width: 0
XAxis mode: Raman Shifts
Number of Pixels in Spectrum: 1044
>>>>>Begin Spectral Data<<<<<
46.04893	1.4375
50.45542	-1.1625
54.85868	-1.2625
59.25871	-0.4625
63.6555	49.7375
68.04907	57.8375
72.43941	58.8375
76.82654	62.2375
81.21044	63.9375
85.59113	65.9375
89.96862	70.5375
94.34289	69.7375
98.71396	74.1375
103.08183	80.1375
107.4465	79.2375
111.80798	81.6375
116.16626	82.5375
120.52136	88.3375
124.87327	88.7375
129.222	94.6375
133.56755	97.5375
137.90993	102.7375
142.24913	111.8375
146.58517	128.4375
150.91804	145.8375
155.24774	176.2375
159.57429	215.2375
163.89768	274.3375
168.21792	358.6375
172.53501	483.4375
176.84895	680.1375
181.15975	945.0375
185.46741	1312.8375
189.77193	1822.7375
194.07331	2447.0375
198.37157	3152.4375
202.6667	3907.5375
206.9587	4652.8375
211.24758	5404.1375
215.53334	6120.5375
219.81599	6908.6375
224.09553	7729.5375
228.37195	8624.6375
232.64527	9623.9375
236.91549	10627.5375
241.18261	11645.8375
245.44663	12591.7375
249.70755	13476.3375
253.96539	14193.8375
258.22014	14821.0375
262.4718	15331.8375
266.72039	15630.6375
270.96589	15801.7375
275.20832	15793.2375
279.44768	15662.7375
283.68397	15507.5375
287.91719	15343.1375
292.14735	15213.4375
296.37445	15137.7375
300.59849	15090.1375
304.81948	15092.4375
309.03742	14965.6375
313.25231	14843.8375
317.46415	14667.1375
321.67296	14476.8375
325.87872	14320.8375
330.08145	14244.6375
334.28114	14335.0375
338.47781	14441.0375
342.67145	14621.1375
346.86207	14761.3375
351.04966	14962.2375
355.23424	15171.0375
359.4158	15366.3375
363.59435	15500.9375
367.76989	15603.4375
371.94243	15674.9375
376.11196	15769.1375
380.27849	15874.7375
384.44203	16002.6375
388.60257	16117.5375
392.76012	16257.6375
396.91468	16412.9375
401.06626	16558.9375
405.21485	16699.0375
409.36047	16731.1375
413.50311	16633.3375
417.64277	16587.4375
421.77947	16575.5375
425.9132	16668.9375
430.04396	16792.9375
434.17176	16962.3375
438.2966	17230.8375
442.41849	17622.3375
446.53742	18126.3375
450.6534	18687.0375
454.76644	19036.8375
458.87653	19117.3375
462.98368	18988.9375
467.08789	18783.5375
471.18916	18592.3375
475.2875	18476.3375
479.38291	18450.3375
483.4754	18313.1375
487.56496	18072.1375
491.6516	17756.3375
495.73531	17561.4375
499.81612	17451.0375
503.89401	17521.0375
507.96899	17603.0375
512.04106	17661.6375
516.11023	17761.6375
520.1765	17806.9375
524.23987	17827.9375
528.30034	17772.4375
532.35792	17681.2375
536.41261	17535.7375
540.46441	17310.0375
544.51333	17302.9375
548.55936	17421.2375
552.60252	17699.4375
556.64279	18035.1375
560.6802	18364.7375
564.71473	18520.7375
568.7464	18689.7375
572.7752	18970.0375
576.80114	19155.4375
580.82422	19203.9375
584.84444	19468.6375
588.86181	19965.3375
592.87633	20574.5375
596.888	20917.2375
600.89682	20589.7375
604.9028	20407.5375
608.90594	21013.2375
612.90624	21670.3375
616.90371	20671.5375
620.89834	18578.0375
624.89015	17576.7375
628.87913	17441.1375
632.86528	17520.9375
636.84862	17597.2375
640.82913	17509.9375
644.80683	17267.7375
648.78172	17108.2375
652.75379	17055.7375
656.72306	17161.7375
660.68952	17294.8375
664.65319	17290.4375
668.61405	17187.3375
672.57211	17267.8375
676.52738	17371.3375
680.47986	17510.8375
684.42955	17479.9375
688.37646	17398.6375
692.32058	17366.6375
696.26192	17396.4375
700.20048	17459.1375
704.13626	17475.2375
708.06928	17413.6375
711.99952	17332.3375
715.927	17269.8375
719.85171	17193.3375
723.77365	17059.7375
727.69284	16928.6375
731.60928	16766.5375
735.52295	16705.2375
739.43388	16645.4375
743.34206	16680.3375
747.24749	16601.1375
751.15017	16678.7375
755.05012	16795.4375
758.94733	17043.9375
762.8418	17560.6375
766.73354	18308.1375
770.62254	19025.6375
774.50882	19125.2375
778.39237	18523.9375
782.27321	17575.1375
786.15132	16792.4375
790.02671	16296.7375
793.89938	16079.7375
797.76935	15986.4375
801.6366	15976.7375
805.50115	15953.1375
809.36299	15941.6375
813.22213	15848.3375
817.07857	15822.7375
820.93231	15785.9375
824.78336	15700.5375
828.63172	15714.0375
832.47738	15677.4375
836.32036	15684.8375
840.16066	15656.2375
843.99827	15672.7375
847.8332	15627.2375
851.66546	15584.1375
855.49504	15642.8375
859.32195	15672.3375
863.1462	15691.0375
866.96777	15699.4375
870.78668	15600.8375
874.60293	15586.3375
878.41652	15580.8375
882.22745	15578.0375
886.03573	15587.0375
889.84136	15577.3375
893.64433	15558.8375
897.44466	15491.0375
901.24235	15461.6375
905.0374	15390.9375
908.8298	15348.7375
912.61957	15368.4375
916.40671	15468.7375
920.19121	15616.7375
923.97308	15710.1375
927.75233	15773.2375
931.52895	15733.1375
935.30295	15604.4375
939.07433	15421.5375
942.84309	15229.9375
946.60924	15085.6375
950.37278	15039.9375
954.13371	15011.0375
957.89203	14959.5375
961.64774	14954.8375
965.40086	14941.3375
969.15137	14878.5375
972.89929	14787.5375
976.64461	14753.0375
980.38733	14737.7375
984.12747	14744.5375
987.86502	14809.9375
991.59999	14901.7375
995.33237	15036.9375
999.06217	15282.6375
1002.78939	15558.3375
1006.51404	15738.8375
1010.23611	15891.7375
1013.95561	16037.4375
1017.67255	16033.7375
1021.38692	15884.2375
1025.09872	15680.1375
1028.80796	15569.6375
1032.51465	15600.6375
1036.21877	15705.2375
1039.92035	15790.9375
1043.61937	15795.6375
1047.31584	15817.7375
1051.00976	15832.1375
1054.70114	15916.4375
1058.38998	16051.0375
1062.07627	16316.9375
1065.76003	16724.1375
1069.44126	17316.9375
1073.11995	18032.5375
1076.79611	18570.7375
1080.46974	18553.0375
1084.14085	17964.3375
1087.80943	17341.4375
1091.47549	16915.4375
1095.13903	16597.0375
1098.80005	16286.0375
1102.45857	16015.2375
1106.11456	15817.3375
1109.76805	15748.9375
1113.41903	15799.0375
1117.06751	15870.1375
1120.71348	16003.5375
1124.35696	16098.5375
1127.99793	16290.4375
1131.63641	16464.0375
1135.2724	16457.6375
1138.90589	16375.4375
1142.5369	16371.6375
1146.16542	16342.4375
1149.79145	16450.4375
1153.415	16543.9375
1157.03607	16775.9375
1160.65467	17090.5375
1164.27079	17671.0375
1167.88443	18464.2375
1171.49561	19463.6375
1175.10432	20744.4375
1178.71056	22081.2375
1182.31434	23198.3375
1185.91565	23446.8375
1189.51451	23018.1375
1193.11091	22334.4375
1196.70485	21623.2375
1200.29634	21005.3375
1203.88538	20580.6375
1207.47197	20205.8375
1211.05612	19948.2375
1214.63782	19675.9375
1218.21708	19526.9375
1221.79391	19391.4375
1225.36829	19285.8375
1228.94024	19107.5375
1232.50976	18768.0375
1236.07685	18554.2375
1239.6415	18451.7375
1243.20374	18466.5375
1246.76355	18587.2375
1250.32093	18754.0375
1253.8759	18990.7375
1257.42845	19341.1375
1260.97859	19653.7375
1264.52631	19969.9375
1268.07163	20307.3375
1271.61453	20659.6375
1275.15503	21088.0375
1278.69312	21489.4375
1282.22882	21880.9375
1285.76211	22423.7375
1289.29301	23180.6375
1292.82151	24121.5375
1296.34761	25164.5375
1299.87133	26409.7375
1303.39266	27638.8375
1306.9116	28873.5375
1310.42815	30111.7375
1313.94233	31071.5375
1317.45412	31432.3375
1320.96354	31177.3375
1324.47058	30739.2375
1327.97525	30158.4375
1331.47754	29691.1375
1334.97747	29496.8375
1338.47502	29405.0375
1341.97022	29161.1375
1345.46305	28641.7375
1348.95352	28210.2375
1352.44163	28146.1375
1355.92738	28576.8375
1359.41078	29501.8375
1362.89183	30340.8375
1366.37053	30133.1375
1369.84688	28379.4375
1373.32088	25975.7375
1376.79254	24352.5375
1380.26186	23699.1375
1383.72883	23688.1375
1387.19347	23750.7375
1390.65578	23669.4375
1394.11575	23751.9375
1397.57339	24031.4375
1401.0287	24534.6375
1404.48168	24931.2375
1407.93234	24937.7375
1411.38068	24579.3375
1414.82669	23875.3375
1418.27039	22970.5375
1421.71177	22087.3375
1425.15083	21313.0375
1428.58758	20865.7375
1432.02203	20929.6375
1435.45416	21351.6375
1438.88399	21865.0375
1442.31151	22264.9375
1445.73673	22568.2375
1449.15965	22900.7375
1452.58027	23134.8375
1455.9986	23230.7375
1459.41463	23253.3375
1462.82837	23435.7375
1466.23982	23780.3375
1469.64898	24070.7375
1473.05586	24185.8375
1476.46045	24180.5375
1479.86276	23990.6375
1483.26279	23725.2375
1486.66054	23423.2375
1490.05602	23296.0375
1493.44922	23178.6375
1496.84016	23024.4375
1500.22882	22980.7375
1503.61521	23143.4375
1506.99934	23546.8375
1510.38121	23939.8375
1513.76081	24038.8375
1517.13816	23688.0375
1520.51324	23096.4375
1523.88607	22644.6375
1527.25665	22484.6375
1530.62498	22541.0375
1533.99105	22656.8375
1537.35488	22669.7375
1540.71647	22448.6375
1544.07581	22129.0375
1547.4329	21773.1375
1550.78776	21432.7375
1554.14038	21199.6375
1557.49077	21039.7375
1560.83892	20982.4375
1564.18484	21062.1375
1567.52853	21364.1375
1570.86999	21977.9375
1574.20922	23003.9375
1577.54624	24083.9375
1580.88103	24875.6375
1584.2136	25056.3375
1587.54395	24763.4375
1590.87208	24649.5375
1594.19801	25105.6375
1597.52172	25823.2375
1600.84321	26111.6375
1604.16251	25306.2375
1607.47959	23604.4375
1610.79447	21696.1375
1614.10715	19982.2375
1617.41763	18643.5375
1620.7259	17824.3375
1624.03199	17426.9375
1627.33587	17414.4375
1630.63757	17824.3375
1633.93707	18729.5375
1637.23439	20276.7375
1640.52951	22472.4375
1643.82246	24915.3375
1647.11321	26799.6375
1650.40179	26880.2375
1653.68819	25102.5375
1656.97241	22293.9375
1660.25446	19554.4375
1663.53433	17547.3375
1666.81203	16272.5375
1670.08756	15455.2375
1673.36092	14962.4375
1676.63211	14604.9375
1679.90115	14360.7375
1683.16801	14126.7375
1686.43272	14032.8375
1689.69527	13871.9375
1692.95567	13814.5375
1696.2139	13798.7375
1699.46999	13735.6375
1702.72392	13701.8375
1705.97571	13645.8375
1709.22535	13585.0375
1712.47284	13557.7375
1715.71819	13506.7375
1718.96139	13427.8375
1722.20246	13396.4375
1725.44139	13291.4375
1728.67818	13237.8375
1731.91284	13151.9375
1735.14537	13050.9375
1738.37576	13012.1375
1741.60403	12964.2375
1744.83017	12951.5375
1748.05418	12939.4375
1751.27607	12912.5375
1754.49584	12892.9375
1757.71349	12867.0375
1760.92903	12840.0375
1764.14244	12810.2375
1767.35375	12771.9375
1770.56294	12731.6375
1773.77002	12706.3375
1776.97499	12653.4375
1780.17785	12627.9375
1783.37861	12600.4375
1786.57727	12530.5375
1789.77382	12503.5375
1792.96828	12505.0375
1796.16064	12440.2375
1799.3509	12440.8375
1802.53907	12388.9375
1805.72514	12323.6375
1808.90913	12294.6375
1812.09102	12294.3375
1815.27083	12262.3375
1818.44856	12218.0375
1821.6242	12201.6375
1824.79776	12174.4375
1827.96924	12175.8375
1831.13864	12139.1375
1834.30597	12140.2375
1837.47122	12170.1375
1840.6344	12146.8375
1843.7955	12124.2375
1846.95454	12106.0375
1850.11151	12092.0375
1853.26642	12079.6375
1856.41926	12068.2375
1859.57004	12090.1375
1862.71876	12061.6375
1865.86542	12050.7375
1869.01003	12058.9375
1872.15258	12043.7375
1875.29308	12024.0375
1878.43152	12018.8375
1881.56792	12003.5375
1884.70227	12009.1375
1887.83457	11991.0375
1890.96482	11982.6375
1894.09304	11980.0375
1897.21921	11967.6375
1900.34335	11947.9375
1903.46544	11949.1375
1906.58551	11943.1375
1909.70353	11912.3375
1912.81953	11889.6375
1915.93349	11868.2375
1919.04543	11851.3375
1922.15534	11802.9375
1925.26322	11796.2375
1928.36908	11802.6375
1931.47292	11780.4375
1934.57473	11763.7375
1937.67453	11700.1375
1940.77232	11666.1375
1943.86808	11641.8375
1946.96184	11650.1375
1950.05358	11602.4375
1953.14331	11556.1375
1956.23103	11508.7375
1959.31675	11489.6375
1962.40046	11450.7375
1965.48217	11435.6375
1968.56188	11398.4375
1971.63959	11346.7375
1974.7153	11340.0375
1977.78901	11299.6375
1980.86073	11256.4375
1983.93046	11216.6375
1986.99819	11178.4375
1990.06394	11159.5375
1993.1277	11145.2375
1996.18947	11096.3375
1999.24925	11071.1375
2002.30706	11035.3375
2005.36288	10986.8375
2008.41672	10955.7375
2011.46859	10935.8375
2014.51848	10912.3375
2017.56639	10887.1375
2020.61233	10859.8375
2023.6563	10844.1375
2026.6983	10812.5375
2029.73833	10802.6375
2032.7764	10746.9375
2035.8125	10751.1375
2038.84664	10724.4375
2041.87881	10711.7375
2044.90903	10705.9375
2047.93729	10657.4375
2050.96359	10645.1375
2053.98794	10640.4375
2057.01034	10633.9375
2060.03078	10626.6375
2063.04927	10602.2375
2066.06582	10592.6375
2069.08042	10602.3375
2072.09307	10588.9375
2075.10378	10574.1375
2078.11255	10564.4375
2081.11938	10585.4375
2084.12426	10565.8375
2087.12722	10543.8375
2090.12824	10522.5375
2093.12732	10553.3375
2096.12447	10583.6375
2099.11969	10537.4375
2102.11299	10558.5375
2105.10435	10550.3375
2108.09379	10551.7375
2111.08131	10537.7375
2114.0669	10563.0375
2117.05057	10562.4375
2120.03233	10531.8375
2123.01216	10583.5375
2125.99008	10575.7375
2128.96609	10578.9375
2131.94018	10585.1375
2134.91236	10585.3375
2137.88263	10611.8375
2140.851	10592.3375
2143.81746	10624.9375
2146.78201	10613.7375
2149.74466	10598.3375
2152.7054	10629.4375
2155.66425	10651.9375
2158.6212	10645.2375
2161.57625	10661.8375
2164.52941	10613.9375
2167.48067	10606.4375
2170.43004	10591.4375
2173.37752	10594.2375
2176.32311	10563.9375
2179.26681	10580.4375
2182.20863	10604.2375
2185.14856	10571.9375
2188.08661	10562.6375
2191.02278	10573.0375
2193.95707	10537.5375
2196.88948	10541.9375
2199.82001	10546.7375
2202.74867	10540.9375
2205.67545	10520.7375
2208.60037	10492.7375
2211.52341	10508.4375
2214.44458	10499.8375
2217.36388	10443.8375
2220.28132	10426.5375
2223.1969	10406.6375
2226.11061	10396.3375
2229.02246	10385.1375
2231.93245	10381.0375
2234.84058	10339.5375
2237.74686	10326.1375
2240.65128	10325.2375
2243.55385	10285.1375
2246.45456	10281.8375
2249.35343	10258.7375
2252.25044	10250.4375
2255.14561	10221.7375
2258.03893	10207.7375
2260.93041	10196.0375
2263.82004	10166.3375
2266.70783	10155.2375
2269.59378	10116.7375
2272.4779	10102.5375
2275.36017	10078.6375
2278.24061	10051.3375
2281.11922	10021.5375
2283.996	10001.0375
2286.87094	10003.8375
2289.74405	9989.8375
2292.61534	9963.6375
2295.4848	9944.9375
2298.35243	9956.6375
2301.21824	9924.0375
2304.08223	9919.4375
2306.94439	9909.7375
2309.80474	9901.2375
2312.66327	9897.8375
2315.51999	9915.5375
2318.37489	9896.3375
2321.22797	9881.0375
2324.07925	9873.5375
2326.92871	9871.5375
2329.77637	9881.8375
2332.62222	9854.6375
2335.46626	9842.7375
2338.3085	9839.9375
2341.14893	9834.9375
2343.98756	9799.1375
2346.8244	9785.3375
2349.65943	9785.9375
2352.49267	9773.2375
2355.32411	9780.8375
2358.15376	9763.4375
2360.98161	9748.5375
2363.80768	9755.8375
2366.63195	9768.4375
2369.45444	9718.0375
2372.27514	9708.5375
2375.09405	9700.1375
2377.91118	9684.4375
2380.72652	9662.4375
2383.54009	9676.1375
2386.35187	9639.4375
2389.16188	9594.6375
2391.97011	9605.6375
2394.77657	9593.1375
2397.58125	9565.2375
2400.38416	9542.2375
2403.18529	9562.4375
2405.98466	9541.9375
2408.78226	9509.4375
2411.57809	9490.4375
2414.37216	9475.3375
2417.16446	9485.1375
2419.955	9467.4375
2422.74378	9453.3375
2425.5308	9431.9375
2428.31606	9411.0375
2431.09956	9419.6375
2433.88131	9407.8375
2436.6613	9422.8375
2439.43954	9407.8375
2442.21603	9408.8375
2444.99077	9376.9375
2447.76377	9394.6375
2450.53501	9393.9375
2453.30451	9379.9375
2456.07226	9354.7375
2458.83827	9356.1375
2461.60254	9347.7375
2464.36507	9329.9375
2467.12586	9321.6375
2469.88492	9319.1375
2472.64224	9306.2375
2475.39782	9306.2375
2478.15167	9329.4375
2480.90379	9292.6375
2483.65417	9320.7375
2486.40283	9317.4375
2489.14976	9331.2375
2491.89497	9317.5375
2494.63845	9321.1375
2497.3802	9293.5375
2500.12024	9288.5375
2502.85855	9308.6375
2505.59514	9282.6375
2508.33002	9282.5375
2511.06318	9252.3375
2513.79462	9256.2375
2516.52435	9233.3375
2519.25237	9237.4375
2521.97867	9220.9375
2524.70327	9213.7375
2527.42616	9204.8375
2530.14734	9201.4375
2532.86681	9189.4375
2535.58458	9187.3375
2538.30065	9176.4375
2541.01501	9165.4375
2543.72768	9160.8375
2546.43864	9150.7375
2549.14791	9126.0375
2551.85548	9104.4375
2554.56136	9089.8375
2557.26554	9073.8375
2559.96803	9067.3375
2562.66883	9062.6375
2565.36794	9022.2375
2568.06536	9049.3375
2570.7611	9059.9375
2573.45514	9027.4375
2576.14751	9038.4375
2578.83819	9001.9375
2581.52719	9015.8375
2584.21451	8994.5375
2586.90015	8983.6375
2589.58411	8969.2375
2592.2664	8938.5375
2594.94701	8916.0375
2597.62594	8908.2375
2600.30321	8905.8375
2602.9788	8903.7375
2605.65273	8904.0375
2608.32498	8883.1375
2610.99557	8880.6375
2613.66449	8871.2375
2616.33175	8843.7375
2618.99734	8841.1375
2621.66128	8835.5375
2624.32355	8847.7375
2626.98416	8848.3375
2629.64311	8835.0375
2632.30041	8845.4375
2634.95605	8826.4375
2637.61004	8803.8375
2640.26238	8786.3375
2642.91306	8802.5375
2645.56209	8799.0375
2648.20948	8808.8375
2650.85521	8777.5375
2653.4993	8785.5375
2656.14175	8785.0375
2658.78255	8787.2375
2661.42171	8801.3375
2664.05923	8790.8375
2666.6951	8814.7375
2669.32934	8803.3375
2671.96194	8776.1375
2674.59291	8781.9375
2677.22224	8789.2375
2679.84993	8810.9375
2682.476	8774.7375
2685.10043	8754.8375
2687.72324	8757.9375
2690.34441	8766.9375
2692.96396	8775.7375
2695.58188	8756.9375
2698.19818	8749.7375
2700.81285	8771.5375
2703.4259	8792.5375
2706.03733	8833.8375
2708.64714	8817.8375
2711.25533	8803.1375
2713.86191	8803.3375
2716.46687	8794.8375
2719.07021	8800.8375
2721.67194	8796.4375
2724.27206	8782.1375
2726.87057	8800.2375
2729.46747	8813.0375
2732.06276	8804.1375
2734.65644	8792.0375
2737.24852	8796.1375
2739.83899	8771.5375
2742.42786	8776.7375
2745.01513	8761.4375
2747.60079	8755.1375
2750.18486	8760.5375
2752.76733	8761.9375
2755.3482	8759.0375
2757.92747	8754.4375
2760.50515	8718.5375
2763.08123	8735.1375
2765.65573	8734.3375
2768.22863	8731.5375
2770.79994	8707.3375
2773.36967	8738.9375
2775.9378	8722.8375
2778.50435	8719.3375
2781.06932	8686.3375
2783.6327	8701.6375
2786.1945	8680.1375
2788.75471	8664.7375
2791.31335	8660.0375
2793.87041	8657.3375
2796.42589	8634.0375
2798.97979	8639.0375
2801.53212	8587.9375
2804.08288	8586.4375
2806.63206	8567.1375
2809.17967	8535.4375
2811.72571	8555.1375
2814.27018	8541.6375
2816.81308	8529.0375
2819.35442	8524.9375
2821.89419	8528.7375
2824.43239	8499.2375
2826.96904	8510.4375
2829.50412	8489.5375
2832.03763	8486.6375
2834.56959	8470.8375
2837.1	8463.4375
2839.62884	8480.0375
2842.15613	8462.3375
2844.68186	8482.4375
2847.20604	8470.5375
2849.72867	8483.5375
2852.24974	8471.5375
2854.76927	8491.9375
2857.28724	8489.3375
2859.80367	8470.3375
2862.31855	8450.8375
2864.83189	8447.1375
2867.34368	8447.6375
2869.85393	8433.3375
2872.36264	8409.6375
2874.8698	8417.2375
2877.37543	8447.9375
2879.87952	8451.0375
2882.38207	8471.6375
2884.88308	8475.6375
2887.38256	8488.7375
2889.88051	8485.8375
2892.37692	8476.4375
2894.8718	8480.1375
2897.36515	8511.4375
2899.85698	8512.0375
2902.34727	8532.6375
2904.83604	8545.9375
2907.32328	8594.4375
2909.809	8604.0375
2912.29319	8588.9375
2914.77587	8592.3375
2917.25702	8591.9375
2919.73665	8618.2375
2922.21476	8638.3375
2924.69136	8641.0375
2927.16644	8641.9375
2929.64	8622.8375
2932.11205	8610.2375
2934.58258	8597.1375
2937.05161	8602.0375
2939.51912	8604.0375
2941.98513	8587.8375
2944.44962	8577.4375
2946.91261	8500.8375
2949.37409	8495.9375
2951.83407	8493.1375
2954.29254	8463.5375
2956.74951	8443.9375
2959.20498	8415.7375
2961.65895	8376.6375
2964.11142	8386.3375
2966.56239	8339.5375
2969.01186	8330.8375
2971.45984	8303.6375
2973.90632	8273.6375
2976.35131	8250.4375
2978.7948	8239.1375
2981.23681	8198.4375
2983.67732	8195.7375
2986.11635	8174.2375
2988.55388	8150.4375
2990.98993	8100.7375
2993.4245	8093.8375
2995.85758	8070.0375
2998.28917	8061.3375
3000.71928	8051.8375
3003.14791	8022.9375
3005.57506	8017.5375
3008.00073	8005.3375
3010.42493	7994.0375
3012.84764	7969.2375
3015.26888	7932.4375
3017.68865	7937.9375
3020.10694	7935.8375
3022.52376	7909.2375
3024.9391	7880.6375
3027.35298	7868.2375
3029.76539	7875.3375
3032.17632	7867.3375
3034.5858	7869.5375
3036.9938	7820.7375
3039.40034	7836.7375
3041.80542	7828.7375
3044.20903	7795.5375
3046.61118	7819.7375
3049.01187	7782.6375
3051.4111	7773.4375
3053.80888	7740.0375
3056.20519	7752.9375
3058.60005	7714.9375
3060.99345	7707.6375
3063.3854	7686.7375
3065.7759	7671.9375
3068.16494	7670.6375
3070.55254	7652.5375
3072.93868	7637.9375
3075.32338	7590.9375
3077.70662	7583.4375
3080.08842	7577.8375
3082.46878	7576.4375
3084.84769	7575.9375
3087.22515	7585.3375
3089.60118	7582.3375
3091.97576	7572.2375
3094.3489	7575.0375
3096.72061	7572.1375
3099.09087	7575.0375
3101.4597	7575.9375
3103.82709	7567.5375
3106.19305	7525.3375
3108.55757	7541.5375
3110.92066	7530.9375
3113.28232	7505.8375
3115.64255	7486.7375
3118.00134	7464.1375
3120.35871	7488.4375
3122.71466	7476.9375
3125.06917	7460.4375
3127.42226	7437.5375
3129.77393	7455.7375
3132.12417	7442.0375
3134.47299	7452.8375
3136.82039	7462.7375
3139.16636	7447.4375
3141.51092	7463.0375
3143.85406	7469.9375
3146.19579	7491.1375
3148.53609	7447.8375
3150.87499	7474.1375
3153.21246	7486.2375
3155.54853	7490.3375
3157.88318	7461.1375
3160.21642	7484.4375
3162.54826	7475.8375
3164.87868	7474.4375
3167.2077	7490.6375
3169.5353	7478.2375
3171.86151	7484.0375
3174.18631	7496.4375
3176.5097	7489.0375
3178.83169	7460.9375
3181.15228	7462.9375
3183.47147	7464.3375
3185.78926	7474.4375
3188.10565	7460.5375
3190.42065	7461.5375
3192.73424	7456.6375
3195.04645	7456.0375
3197.35725	7468.9375
3199.66667	7468.3375
3201.97469	7478.9375
3204.28132	7483.9375
3206.58656	7456.1375
3208.8904	7473.3375
3211.19287	7490.7375
3213.49394	7459.4375
3215.79363	7469.4375
3218.09193	7468.6375
3220.38884	7479.9375
3222.68438	7498.8375
3224.97853	7470.8375
3227.2713	7475.6375
3229.56269	7459.6375
3231.8527	7454.0375
3234.14133	7430.3375
3236.42858	7408.2375
3238.71446	7429.4375
3240.99896	7413.1375
3243.28209	7409.2375
3245.56384	7426.5375
3247.84423	7410.6375
3250.12324	7409.9375
3252.40088	7394.7375
3254.67715	7388.4375
3256.95205	7369.6375
3259.22558	7374.9375
3261.49775	7375.9375
3263.76855	7347.2375
3266.03799	7334.3375
3268.30606	7332.0375
3270.57277	7317.9375
3272.83812	7294.5375
3275.10211	7283.2375
3277.36474	7286.5375
3279.62601	7272.1375
3281.88593	7288.2375
3284.14448	7275.4375
3286.40168	7291.6375
3288.65753	7275.5375
3290.91202	7270.2375
3293.16516	7237.1375
3295.41695	7234.7375
3297.66738	7161.5375
3299.91647	7140.8375
3302.16421	7107.1375
3304.4106	7070.6375
3306.65564	7042.1375
3308.89933	6992.9375
3311.14169	6950.2375
3313.38269	6926.9375
3315.62236	6873.8375
3317.86068	6809.7375
3320.09766	6740.4375
3322.3333	6684.9375
3324.5676	6699.3375
3326.80056	6580.0375
3329.03219	6573.8375
3331.26248	2.7375
3333.49143	0.0375
3335.71905	-1.0625
