Data from AgNP_FTO_APTES_CRN_0uM_R6G_10uM_NaF_0.1M_Addition_RamanShift__13__11-44-52-910.txt Node

Date: Wed Dec 15 11:44:52 GMT 2021
User: TCL
Spectrometer: QEP01345
Trigger mode: 4
Integration Time (sec): 7.000000E0
Scans to average: 10
Electric dark correction enabled: true
Nonlinearity correction enabled: false
Boxcar width: 0
XAxis mode: Raman Shifts
Number of Pixels in Spectrum: 1044
>>>>>Begin Spectral Data<<<<<
46.04893	1.8125
50.45542	-0.7875
54.85868	0.8125
59.25871	-1.1875
63.6555	74.8125
68.04907	80.1125
72.43941	88.5125
76.82654	96.5125
81.21044	102.4125
85.59113	105.6125
89.96862	115.8125
94.34289	112.1125
98.71396	123.8125
103.08183	125.6125
107.4465	129.6125
111.80798	131.2125
116.16626	129.8125
120.52136	133.6125
124.87327	124.6125
129.222	126.1125
133.56755	127.7125
137.90993	130.7125
142.24913	135.7125
146.58517	136.9125
150.91804	143.8125
155.24774	157.6125
159.57429	181.7125
163.89768	213.3125
168.21792	246.3125
172.53501	313.0125
176.84895	407.4125
181.15975	552.3125
185.46741	752.1125
189.77193	1040.3125
194.07331	1395.6125
198.37157	1816.3125
202.6667	2282.3125
206.9587	2760.2125
211.24758	3263.5125
215.53334	3769.7125
219.81599	4288.4125
224.09553	4867.5125
228.37195	5522.5125
232.64527	6215.0125
236.91549	6971.0125
241.18261	7778.3125
245.44663	8524.6125
249.70755	9218.4125
253.96539	9742.6125
258.22014	10077.5125
262.4718	10230.0125
266.72039	10130.3125
270.96589	9849.1125
275.20832	9405.4125
279.44768	8874.5125
283.68397	8322.9125
287.91719	7805.6125
292.14735	7325.1125
296.37445	6935.8125
300.59849	6603.4125
304.81948	6336.0125
309.03742	6128.6125
313.25231	5933.2125
317.46415	5791.0125
321.67296	5682.6125
325.87872	5566.7125
330.08145	5532.3125
334.28114	5480.7125
338.47781	5449.7125
342.67145	5390.2125
346.86207	5359.2125
351.04966	5331.5125
355.23424	5303.2125
359.4158	5243.0125
363.59435	5192.6125
367.76989	5113.0125
371.94243	5020.6125
376.11196	4969.8125
380.27849	4877.4125
384.44203	4857.0125
388.60257	4814.2125
392.76012	4809.7125
396.91468	4826.0125
401.06626	4850.3125
405.21485	4854.1125
409.36047	4866.2125
413.50311	4845.6125
417.64277	4803.6125
421.77947	4801.9125
425.9132	4813.8125
430.04396	4844.9125
434.17176	4874.3125
438.2966	4893.0125
442.41849	4915.9125
446.53742	4926.7125
450.6534	4899.8125
454.76644	4882.3125
458.87653	4831.4125
462.98368	4803.4125
467.08789	4759.2125
471.18916	4723.5125
475.2875	4664.7125
479.38291	4636.0125
483.4754	4613.4125
487.56496	4583.9125
491.6516	4543.4125
495.73531	4526.8125
499.81612	4493.5125
503.89401	4498.8125
507.96899	4526.3125
512.04106	4544.6125
516.11023	4613.2125
520.1765	4733.5125
524.23987	4888.4125
528.30034	5104.9125
532.35792	5317.5125
536.41261	5542.2125
540.46441	5731.9125
544.51333	5875.6125
548.55936	6052.8125
552.60252	6229.8125
556.64279	6352.1125
560.6802	6476.2125
564.71473	6544.0125
568.7464	6507.8125
572.7752	6392.6125
576.80114	6211.5125
580.82422	5960.6125
584.84444	5782.0125
588.86181	5637.0125
592.87633	5600.6125
596.888	5678.1125
600.89682	5922.3125
604.9028	6383.5125
608.90594	7117.8125
612.90624	8028.4125
616.90371	8799.4125
620.89834	9162.1125
624.89015	9140.2125
628.87913	8556.5125
632.86528	7457.6125
636.84862	6337.6125
640.82913	5494.2125
644.80683	4977.3125
648.78172	4678.1125
652.75379	4526.9125
656.72306	4502.7125
660.68952	4475.3125
664.65319	4460.1125
668.61405	4431.1125
672.57211	4432.3125
676.52738	4444.6125
680.47986	4481.4125
684.42955	4484.1125
688.37646	4503.0125
692.32058	4504.2125
696.26192	4496.3125
700.20048	4494.6125
704.13626	4483.5125
708.06928	4498.4125
711.99952	4499.2125
715.927	4490.9125
719.85171	4484.7125
723.77365	4474.2125
727.69284	4477.2125
731.60928	4489.3125
735.52295	4488.7125
739.43388	4506.8125
743.34206	4514.3125
747.24749	4533.4125
751.15017	4536.0125
755.05012	4543.9125
758.94733	4592.2125
762.8418	4656.8125
766.73354	4773.1125
770.62254	4872.4125
774.50882	4942.5125
778.39237	4934.5125
782.27321	4833.0125
786.15132	4769.5125
790.02671	4732.0125
793.89938	4709.5125
797.76935	4697.5125
801.6366	4706.5125
805.50115	4725.1125
809.36299	4729.1125
813.22213	4742.4125
817.07857	4760.1125
820.93231	4774.6125
824.78336	4788.4125
828.63172	4822.8125
832.47738	4839.7125
836.32036	4884.7125
840.16066	4922.6125
843.99827	4986.9125
847.8332	5029.6125
851.66546	5091.6125
855.49504	5159.7125
859.32195	5210.5125
863.1462	5345.7125
866.96777	5428.8125
870.78668	5570.5125
874.60293	5725.5125
878.41652	5893.9125
882.22745	6096.1125
886.03573	6367.9125
889.84136	6706.4125
893.64433	7077.5125
897.44466	7559.3125
901.24235	8145.3125
905.0374	8843.5125
908.8298	9537.2125
912.61957	10115.2125
916.40671	10563.4125
920.19121	10797.2125
923.97308	10834.3125
927.75233	10704.6125
931.52895	10451.3125
935.30295	10098.5125
939.07433	9684.6125
942.84309	9234.3125
946.60924	8802.1125
950.37278	8442.4125
954.13371	8101.1125
957.89203	7826.2125
961.64774	7610.8125
965.40086	7391.4125
969.15137	7212.6125
972.89929	7049.1125
976.64461	6933.6125
980.38733	6798.6125
984.12747	6698.0125
987.86502	6637.8125
991.59999	6561.3125
995.33237	6527.2125
999.06217	6507.2125
1002.78939	6498.6125
1006.51404	6514.8125
1010.23611	6567.8125
1013.95561	6603.7125
1017.67255	6647.5125
1021.38692	6670.0125
1025.09872	6713.0125
1028.80796	6754.3125
1032.51465	6809.6125
1036.21877	6892.0125
1039.92035	6961.7125
1043.61937	6996.5125
1047.31584	7018.1125
1051.00976	7029.5125
1054.70114	7015.5125
1058.38998	6939.0125
1062.07627	6834.5125
1065.76003	6686.6125
1069.44126	6534.0125
1073.11995	6382.5125
1076.79611	6237.8125
1080.46974	6062.6125
1084.14085	5901.3125
1087.80943	5744.9125
1091.47549	5561.0125
1095.13903	5419.2125
1098.80005	5276.5125
1102.45857	5139.6125
1106.11456	5044.8125
1109.76805	4968.2125
1113.41903	4900.4125
1117.06751	4869.9125
1120.71348	4832.2125
1124.35696	4819.6125
1127.99793	4797.5125
1131.63641	4764.9125
1135.2724	4716.1125
1138.90589	4653.3125
1142.5369	4607.5125
1146.16542	4568.1125
1149.79145	4521.1125
1153.415	4490.3125
1157.03607	4472.2125
1160.65467	4468.4125
1164.27079	4473.2125
1167.88443	4510.2125
1171.49561	4588.6125
1175.10432	4660.4125
1178.71056	4783.0125
1182.31434	4886.4125
1185.91565	4970.0125
1189.51451	4986.3125
1193.11091	4966.3125
1196.70485	4890.1125
1200.29634	4801.4125
1203.88538	4739.3125
1207.47197	4653.3125
1211.05612	4571.9125
1214.63782	4532.5125
1218.21708	4491.8125
1221.79391	4483.2125
1225.36829	4491.6125
1228.94024	4505.1125
1232.50976	4485.4125
1236.07685	4488.7125
1239.6415	4492.7125
1243.20374	4487.4125
1246.76355	4469.2125
1250.32093	4460.7125
1253.8759	4473.9125
1257.42845	4490.1125
1260.97859	4503.4125
1264.52631	4537.3125
1268.07163	4568.0125
1271.61453	4600.9125
1275.15503	4625.0125
1278.69312	4617.8125
1282.22882	4666.0125
1285.76211	4694.9125
1289.29301	4718.3125
1292.82151	4773.1125
1296.34761	4812.6125
1299.87133	4865.5125
1303.39266	4945.1125
1306.9116	5021.6125
1310.42815	5092.9125
1313.94233	5127.0125
1317.45412	5092.7125
1320.96354	5010.2125
1324.47058	4919.3125
1327.97525	4833.6125
1331.47754	4786.0125
1334.97747	4781.7125
1338.47502	4753.9125
1341.97022	4800.7125
1345.46305	4837.6125
1348.95352	4926.7125
1352.44163	5032.6125
1355.92738	5154.4125
1359.41078	5320.4125
1362.89183	5472.4125
1366.37053	5513.8125
1369.84688	5318.1125
1373.32088	5101.1125
1376.79254	4937.1125
1380.26186	4831.0125
1383.72883	4795.4125
1387.19347	4756.2125
1390.65578	4717.5125
1394.11575	4705.6125
1397.57339	4679.4125
1401.0287	4653.5125
1404.48168	4611.6125
1407.93234	4623.5125
1411.38068	4584.4125
1414.82669	4566.4125
1418.27039	4508.3125
1421.71177	4484.8125
1425.15083	4447.2125
1428.58758	4401.0125
1432.02203	4361.4125
1435.45416	4328.5125
1438.88399	4331.7125
1442.31151	4327.2125
1445.73673	4322.7125
1449.15965	4315.9125
1452.58027	4309.3125
1455.9986	4277.0125
1459.41463	4257.3125
1462.82837	4262.9125
1466.23982	4278.2125
1469.64898	4318.6125
1473.05586	4306.7125
1476.46045	4337.8125
1479.86276	4333.0125
1483.26279	4348.0125
1486.66054	4371.3125
1490.05602	4393.9125
1493.44922	4433.7125
1496.84016	4474.3125
1500.22882	4562.0125
1503.61521	4685.9125
1506.99934	4824.5125
1510.38121	4928.6125
1513.76081	4973.8125
1517.13816	4896.1125
1520.51324	4760.4125
1523.88607	4648.9125
1527.25665	4565.1125
1530.62498	4507.8125
1533.99105	4487.3125
1537.35488	4468.2125
1540.71647	4471.4125
1544.07581	4453.1125
1547.4329	4438.2125
1550.78776	4416.1125
1554.14038	4396.8125
1557.49077	4400.8125
1560.83892	4417.3125
1564.18484	4407.6125
1567.52853	4411.6125
1570.86999	4440.3125
1574.20922	4462.4125
1577.54624	4473.0125
1580.88103	4451.3125
1584.2136	4394.2125
1587.54395	4351.4125
1590.87208	4318.8125
1594.19801	4283.7125
1597.52172	4295.9125
1600.84321	4316.9125
1604.16251	4278.5125
1607.47959	4242.5125
1610.79447	4208.7125
1614.10715	4175.7125
1617.41763	4132.3125
1620.7259	4117.1125
1624.03199	4076.5125
1627.33587	4071.8125
1630.63757	4071.8125
1633.93707	4086.5125
1637.23439	4112.8125
1640.52951	4160.9125
1643.82246	4227.6125
1647.11321	4317.3125
1650.40179	4350.5125
1653.68819	4312.2125
1656.97241	4172.6125
1660.25446	4035.1125
1663.53433	3910.2125
1666.81203	3835.1125
1670.08756	3786.4125
1673.36092	3732.5125
1676.63211	3716.3125
1679.90115	3683.0125
1683.16801	3664.6125
1686.43272	3654.5125
1689.69527	3639.4125
1692.95567	3620.2125
1696.2139	3600.1125
1699.46999	3583.7125
1702.72392	3569.0125
1705.97571	3576.0125
1709.22535	3558.8125
1712.47284	3576.9125
1715.71819	3589.5125
1718.96139	3573.8125
1722.20246	3567.6125
1725.44139	3557.5125
1728.67818	3569.1125
1731.91284	3556.1125
1735.14537	3558.7125
1738.37576	3551.1125
1741.60403	3536.5125
1744.83017	3540.6125
1748.05418	3523.3125
1751.27607	3532.8125
1754.49584	3521.1125
1757.71349	3516.9125
1760.92903	3511.4125
1764.14244	3498.1125
1767.35375	3495.3125
1770.56294	3499.0125
1773.77002	3502.9125
1776.97499	3503.3125
1780.17785	3513.6125
1783.37861	3507.9125
1786.57727	3499.6125
1789.77382	3494.0125
1792.96828	3494.1125
1796.16064	3486.5125
1799.3509	3473.1125
1802.53907	3486.7125
1805.72514	3478.1125
1808.90913	3472.5125
1812.09102	3459.1125
1815.27083	3465.8125
1818.44856	3466.0125
1821.6242	3472.3125
1824.79776	3454.3125
1827.96924	3459.2125
1831.13864	3451.4125
1834.30597	3454.9125
1837.47122	3466.9125
1840.6344	3450.7125
1843.7955	3464.2125
1846.95454	3458.6125
1850.11151	3439.4125
1853.26642	3452.6125
1856.41926	3438.2125
1859.57004	3444.6125
1862.71876	3417.1125
1865.86542	3421.8125
1869.01003	3425.7125
1872.15258	3411.5125
1875.29308	3404.3125
1878.43152	3392.6125
1881.56792	3394.4125
1884.70227	3388.5125
1887.83457	3378.7125
1890.96482	3378.6125
1894.09304	3373.8125
1897.21921	3378.5125
1900.34335	3354.5125
1903.46544	3346.6125
1906.58551	3337.1125
1909.70353	3336.8125
1912.81953	3348.2125
1915.93349	3340.3125
1919.04543	3337.1125
1922.15534	3322.2125
1925.26322	3330.2125
1928.36908	3303.5125
1931.47292	3303.8125
1934.57473	3302.2125
1937.67453	3287.4125
1940.77232	3290.6125
1943.86808	3274.2125
1946.96184	3271.1125
1950.05358	3267.4125
1953.14331	3251.4125
1956.23103	3230.8125
1959.31675	3239.7125
1962.40046	3221.4125
1965.48217	3213.0125
1968.56188	3202.3125
1971.63959	3199.1125
1974.7153	3188.8125
1977.78901	3174.9125
1980.86073	3174.5125
1983.93046	3166.6125
1986.99819	3159.5125
1990.06394	3145.8125
1993.1277	3132.3125
1996.18947	3127.1125
1999.24925	3123.8125
2002.30706	3108.8125
2005.36288	3115.1125
2008.41672	3106.3125
2011.46859	3106.4125
2014.51848	3110.7125
2017.56639	3107.5125
2020.61233	3097.5125
2023.6563	3121.1125
2026.6983	3125.7125
2029.73833	3102.5125
2032.7764	3121.8125
2035.8125	3127.8125
2038.84664	3138.9125
2041.87881	3147.6125
2044.90903	3160.6125
2047.93729	3174.9125
2050.96359	3180.4125
2053.98794	3180.8125
2057.01034	3205.0125
2060.03078	3216.5125
2063.04927	3217.9125
2066.06582	3220.5125
2069.08042	3236.3125
2072.09307	3225.2125
2075.10378	3215.8125
2078.11255	3214.7125
2081.11938	3221.9125
2084.12426	3208.6125
2087.12722	3178.1125
2090.12824	3167.1125
2093.12732	3155.2125
2096.12447	3135.3125
2099.11969	3123.4125
2102.11299	3107.4125
2105.10435	3095.9125
2108.09379	3084.3125
2111.08131	3064.5125
2114.0669	3034.7125
2117.05057	3026.9125
2120.03233	3015.4125
2123.01216	3009.0125
2125.99008	2997.0125
2128.96609	2998.7125
2131.94018	2988.7125
2134.91236	2978.2125
2137.88263	2990.6125
2140.851	2984.4125
2143.81746	2978.0125
2146.78201	2969.5125
2149.74466	2968.7125
2152.7054	2962.4125
2155.66425	2967.1125
2158.6212	2973.7125
2161.57625	2965.0125
2164.52941	2964.8125
2167.48067	2966.8125
2170.43004	2976.3125
2173.37752	2953.3125
2176.32311	2962.9125
2179.26681	2946.9125
2182.20863	2948.3125
2185.14856	2960.1125
2188.08661	2949.9125
2191.02278	2951.8125
2193.95707	2951.4125
2196.88948	2953.9125
2199.82001	2940.5125
2202.74867	2945.2125
2205.67545	2940.9125
2208.60037	2931.7125
2211.52341	2926.2125
2214.44458	2931.3125
2217.36388	2927.0125
2220.28132	2933.7125
2223.1969	2921.3125
2226.11061	2917.6125
2229.02246	2907.8125
2231.93245	2914.7125
2234.84058	2896.3125
2237.74686	2898.9125
2240.65128	2899.7125
2243.55385	2893.3125
2246.45456	2887.1125
2249.35343	2896.9125
2252.25044	2888.0125
2255.14561	2889.2125
2258.03893	2892.6125
2260.93041	2877.9125
2263.82004	2867.7125
2266.70783	2861.7125
2269.59378	2851.6125
2272.4779	2850.1125
2275.36017	2833.6125
2278.24061	2825.4125
2281.11922	2827.1125
2283.996	2801.7125
2286.87094	2805.2125
2289.74405	2790.8125
2292.61534	2774.2125
2295.4848	2773.3125
2298.35243	2785.0125
2301.21824	2765.9125
2304.08223	2773.9125
2306.94439	2761.1125
2309.80474	2759.9125
2312.66327	2766.0125
2315.51999	2759.4125
2318.37489	2757.3125
2321.22797	2748.2125
2324.07925	2746.4125
2326.92871	2748.6125
2329.77637	2751.0125
2332.62222	2746.3125
2335.46626	2722.9125
2338.3085	2730.0125
2341.14893	2727.4125
2343.98756	2722.9125
2346.8244	2721.3125
2349.65943	2695.6125
2352.49267	2693.3125
2355.32411	2703.3125
2358.15376	2699.5125
2360.98161	2700.6125
2363.80768	2690.2125
2366.63195	2693.7125
2369.45444	2688.8125
2372.27514	2683.6125
2375.09405	2700.3125
2377.91118	2680.6125
2380.72652	2667.1125
2383.54009	2664.7125
2386.35187	2677.5125
2389.16188	2665.4125
2391.97011	2659.7125
2394.77657	2670.8125
2397.58125	2646.1125
2400.38416	2636.7125
2403.18529	2638.4125
2405.98466	2637.9125
2408.78226	2629.5125
2411.57809	2626.6125
2414.37216	2634.9125
2417.16446	2624.1125
2419.955	2614.2125
2422.74378	2616.4125
2425.5308	2618.0125
2428.31606	2605.3125
2431.09956	2617.9125
2433.88131	2603.0125
2436.6613	2590.6125
2439.43954	2599.0125
2442.21603	2594.9125
2444.99077	2592.1125
2447.76377	2595.7125
2450.53501	2578.6125
2453.30451	2584.8125
2456.07226	2580.5125
2458.83827	2564.3125
2461.60254	2561.7125
2464.36507	2555.6125
2467.12586	2564.1125
2469.88492	2553.0125
2472.64224	2551.2125
2475.39782	2555.1125
2478.15167	2553.7125
2480.90379	2553.6125
2483.65417	2546.6125
2486.40283	2547.2125
2489.14976	2548.8125
2491.89497	2539.0125
2494.63845	2536.0125
2497.3802	2531.6125
2500.12024	2541.6125
2502.85855	2525.8125
2505.59514	2517.3125
2508.33002	2527.4125
2511.06318	2509.8125
2513.79462	2511.2125
2516.52435	2520.3125
2519.25237	2508.6125
2521.97867	2492.5125
2524.70327	2499.1125
2527.42616	2494.5125
2530.14734	2502.5125
2532.86681	2488.7125
2535.58458	2490.3125
2538.30065	2476.7125
2541.01501	2481.6125
2543.72768	2486.2125
2546.43864	2462.1125
2549.14791	2465.5125
2551.85548	2472.3125
2554.56136	2459.8125
2557.26554	2450.1125
2559.96803	2446.1125
2562.66883	2437.5125
2565.36794	2456.0125
2568.06536	2450.1125
2570.7611	2426.3125
2573.45514	2434.0125
2576.14751	2423.8125
2578.83819	2430.3125
2581.52719	2413.4125
2584.21451	2422.6125
2586.90015	2410.1125
2589.58411	2404.1125
2592.2664	2400.4125
2594.94701	2397.1125
2597.62594	2383.9125
2600.30321	2373.0125
2602.9788	2382.0125
2605.65273	2382.7125
2608.32498	2377.0125
2610.99557	2369.0125
2613.66449	2364.4125
2616.33175	2366.9125
2618.99734	2357.0125
2621.66128	2352.9125
2624.32355	2348.1125
2626.98416	2351.7125
2629.64311	2333.8125
2632.30041	2339.1125
2634.95605	2341.6125
2637.61004	2343.9125
2640.26238	2347.1125
2642.91306	2330.0125
2645.56209	2337.5125
2648.20948	2333.8125
2650.85521	2326.3125
2653.4993	2328.9125
2656.14175	2330.3125
2658.78255	2338.1125
2661.42171	2325.9125
2664.05923	2320.4125
2666.6951	2326.1125
2669.32934	2330.5125
2671.96194	2318.9125
2674.59291	2329.1125
2677.22224	2321.0125
2679.84993	2316.5125
2682.476	2334.9125
2685.10043	2322.9125
2687.72324	2317.9125
2690.34441	2327.0125
2692.96396	2319.4125
2695.58188	2332.1125
2698.19818	2322.7125
2700.81285	2339.7125
2703.4259	2317.6125
2706.03733	2308.5125
2708.64714	2315.5125
2711.25533	2328.2125
2713.86191	2316.3125
2716.46687	2326.6125
2719.07021	2326.4125
2721.67194	2323.1125
2724.27206	2322.7125
2726.87057	2319.7125
2729.46747	2324.3125
2732.06276	2328.2125
2734.65644	2325.8125
2737.24852	2322.8125
2739.83899	2316.4125
2742.42786	2318.3125
2745.01513	2315.8125
2747.60079	2306.4125
2750.18486	2308.6125
2752.76733	2310.3125
2755.3482	2305.5125
2757.92747	2313.4125
2760.50515	2313.3125
2763.08123	2311.2125
2765.65573	2305.5125
2768.22863	2316.5125
2770.79994	2306.8125
2773.36967	2301.8125
2775.9378	2300.8125
2778.50435	2309.2125
2781.06932	2299.2125
2783.6327	2289.5125
2786.1945	2284.3125
2788.75471	2278.5125
2791.31335	2272.1125
2793.87041	2282.7125
2796.42589	2261.8125
2798.97979	2279.2125
2801.53212	2264.1125
2804.08288	2264.7125
2806.63206	2265.8125
2809.17967	2266.5125
2811.72571	2242.8125
2814.27018	2257.9125
2816.81308	2242.4125
2819.35442	2258.9125
2821.89419	2255.1125
2824.43239	2254.7125
2826.96904	2249.2125
2829.50412	2254.1125
2832.03763	2249.0125
2834.56959	2243.9125
2837.1	2247.0125
2839.62884	2257.1125
2842.15613	2259.4125
2844.68186	2255.7125
2847.20604	2263.3125
2849.72867	2261.9125
2852.24974	2277.1125
2854.76927	2288.6125
2857.28724	2295.5125
2859.80367	2302.0125
2862.31855	2321.6125
2864.83189	2335.7125
2867.34368	2337.4125
2869.85393	2367.4125
2872.36264	2370.0125
2874.8698	2375.4125
2877.37543	2393.1125
2879.87952	2417.5125
2882.38207	2431.6125
2884.88308	2452.9125
2887.38256	2464.6125
2889.88051	2488.0125
2892.37692	2504.8125
2894.8718	2519.1125
2897.36515	2522.5125
2899.85698	2552.4125
2902.34727	2559.2125
2904.83604	2573.0125
2907.32328	2558.3125
2909.809	2576.2125
2912.29319	2579.3125
2914.77587	2574.9125
2917.25702	2566.3125
2919.73665	2565.2125
2922.21476	2571.6125
2924.69136	2567.1125
2927.16644	2560.0125
2929.64	2539.6125
2932.11205	2537.6125
2934.58258	2528.9125
2937.05161	2525.6125
2939.51912	2525.8125
2941.98513	2498.3125
2944.44962	2488.5125
2946.91261	2479.7125
2949.37409	2466.4125
2951.83407	2447.5125
2954.29254	2427.5125
2956.74951	2422.8125
2959.20498	2414.2125
2961.65895	2400.6125
2964.11142	2398.6125
2966.56239	2383.4125
2969.01186	2383.0125
2971.45984	2352.7125
2973.90632	2366.3125
2976.35131	2334.0125
2978.7948	2328.2125
2981.23681	2323.8125
2983.67732	2301.7125
2986.11635	2291.4125
2988.55388	2281.5125
2990.98993	2263.8125
2993.4245	2270.3125
2995.85758	2251.0125
2998.28917	2263.0125
3000.71928	2239.8125
3003.14791	2237.7125
3005.57506	2220.5125
3008.00073	2225.0125
3010.42493	2228.4125
3012.84764	2226.2125
3015.26888	2210.7125
3017.68865	2217.8125
3020.10694	2207.9125
3022.52376	2210.6125
3024.9391	2200.1125
3027.35298	2199.2125
3029.76539	2198.7125
3032.17632	2198.6125
3034.5858	2189.0125
3036.9938	2181.6125
3039.40034	2186.8125
3041.80542	2189.1125
3044.20903	2180.9125
3046.61118	2188.4125
3049.01187	2180.9125
3051.4111	2182.5125
3053.80888	2180.2125
3056.20519	2172.4125
3058.60005	2181.6125
3060.99345	2187.1125
3063.3854	2179.7125
3065.7759	2182.0125
3068.16494	2176.8125
3070.55254	2188.7125
3072.93868	2188.0125
3075.32338	2182.9125
3077.70662	2178.1125
3080.08842	2185.1125
3082.46878	2196.9125
3084.84769	2199.4125
3087.22515	2204.0125
3089.60118	2213.6125
3091.97576	2225.9125
3094.3489	2219.0125
3096.72061	2227.0125
3099.09087	2224.9125
3101.4597	2229.8125
3103.82709	2239.3125
3106.19305	2229.2125
3108.55757	2256.0125
3110.92066	2246.5125
3113.28232	2254.5125
3115.64255	2250.0125
3118.00134	2255.9125
3120.35871	2255.0125
3122.71466	2259.1125
3125.06917	2272.7125
3127.42226	2286.6125
3129.77393	2285.4125
3132.12417	2283.7125
3134.47299	2295.0125
3136.82039	2303.5125
3139.16636	2299.7125
3141.51092	2311.9125
3143.85406	2329.3125
3146.19579	2329.8125
3148.53609	2349.5125
3150.87499	2353.1125
3153.21246	2360.9125
3155.54853	2371.2125
3157.88318	2379.6125
3160.21642	2379.3125
3162.54826	2404.9125
3164.87868	2393.2125
3167.2077	2397.7125
3169.5353	2415.0125
3171.86151	2408.4125
3174.18631	2409.9125
3176.5097	2430.3125
3178.83169	2442.2125
3181.15228	2451.4125
3183.47147	2441.5125
3185.78926	2460.9125
3188.10565	2464.6125
3190.42065	2463.7125
3192.73424	2454.6125
3195.04645	2473.7125
3197.35725	2486.3125
3199.66667	2482.5125
3201.97469	2500.4125
3204.28132	2499.8125
3206.58656	2511.4125
3208.8904	2508.7125
3211.19287	2511.4125
3213.49394	2517.9125
3215.79363	2529.4125
3218.09193	2530.4125
3220.38884	2526.2125
3222.68438	2525.7125
3224.97853	2529.9125
3227.2713	2531.8125
3229.56269	2540.3125
3231.8527	2540.9125
3234.14133	2531.6125
3236.42858	2532.0125
3238.71446	2543.5125
3240.99896	2543.2125
3243.28209	2532.2125
3245.56384	2536.9125
3247.84423	2541.7125
3250.12324	2546.5125
3252.40088	2550.9125
3254.67715	2544.0125
3256.95205	2550.4125
3259.22558	2558.0125
3261.49775	2544.1125
3263.76855	2542.9125
3266.03799	2546.6125
3268.30606	2539.3125
3270.57277	2530.0125
3272.83812	2535.5125
3275.10211	2533.2125
3277.36474	2524.6125
3279.62601	2522.7125
3281.88593	2537.3125
3284.14448	2531.6125
3286.40168	2534.4125
3288.65753	2520.8125
3290.91202	2515.8125
3293.16516	2507.0125
3295.41695	2514.7125
3297.66738	2493.3125
3299.91647	2472.1125
3302.16421	2472.7125
3304.4106	2457.0125
3306.65564	2451.5125
3308.89933	2439.8125
3311.14169	2417.9125
3313.38269	2408.7125
3315.62236	2391.7125
3317.86068	2376.5125
3320.09766	2347.1125
3322.3333	2325.3125
3324.5676	2340.5125
3326.80056	2296.5125
3329.03219	2298.1125
3331.26248	0.7125
3333.49143	-1.0875
3335.71905	-0.0875
