Data from AgNP_FTO_APTES_CRN_1000uM_R6G_10uM_NaF_0.1M_Addition_RamanShift__25__21-19-28-296.txt Node

Date: Wed Dec 15 21:19:28 GMT 2021
User: TCL
Spectrometer: QEP01345
Trigger mode: 4
Integration Time (sec): 7.000000E0
Scans to average: 10
Electric dark correction enabled: true
Nonlinearity correction enabled: false
Boxcar width: 0
XAxis mode: Raman Shifts
Number of Pixels in Spectrum: 1044
>>>>>Begin Spectral Data<<<<<
46.04893	1.6375
50.45542	-1.9625
54.85868	-1.8625
59.25871	-0.6625
63.6555	56.7375
68.04907	63.5375
72.43941	71.6375
76.82654	71.6375
81.21044	73.9375
85.59113	74.7375
89.96862	79.2375
94.34289	78.1375
98.71396	83.9375
103.08183	85.9375
107.4465	89.8375
111.80798	90.9375
116.16626	93.2375
120.52136	100.2375
124.87327	99.3375
129.222	105.1375
133.56755	110.6375
137.90993	120.1375
142.24913	134.3375
146.58517	146.9375
150.91804	171.4375
155.24774	203.2375
159.57429	248.4375
163.89768	318.6375
168.21792	421.3375
172.53501	567.5375
176.84895	789.7375
181.15975	1108.8375
185.46741	1553.2375
189.77193	2149.0375
194.07331	2876.5375
198.37157	3717.9375
202.6667	4594.2375
206.9587	5493.3375
211.24758	6361.7375
215.53334	7224.1375
219.81599	8122.0375
224.09553	9109.8375
228.37195	10203.2375
232.64527	11359.3375
236.91549	12585.5375
241.18261	13820.7375
245.44663	14987.3375
249.70755	16041.3375
253.96539	16956.4375
258.22014	17707.1375
262.4718	18345.5375
266.72039	18817.0375
270.96589	19018.6375
275.20832	19035.6375
279.44768	18939.4375
283.68397	18731.5375
287.91719	18559.9375
292.14735	18429.2375
296.37445	18389.6375
300.59849	18310.4375
304.81948	18280.1375
309.03742	18139.5375
313.25231	17988.5375
317.46415	17699.5375
321.67296	17414.0375
325.87872	17175.8375
330.08145	17142.1375
334.28114	17205.2375
338.47781	17354.3375
342.67145	17531.8375
346.86207	17784.6375
351.04966	18087.5375
355.23424	18371.7375
359.4158	18632.2375
363.59435	18856.2375
367.76989	19017.2375
371.94243	19144.8375
376.11196	19253.4375
380.27849	19384.4375
384.44203	19499.1375
388.60257	19645.9375
392.76012	19764.5375
396.91468	19961.9375
401.06626	20143.4375
405.21485	20344.2375
409.36047	20385.3375
413.50311	20244.5375
417.64277	20099.0375
421.77947	20063.5375
425.9132	20162.0375
430.04396	20379.8375
434.17176	20601.5375
438.2966	20991.5375
442.41849	21442.2375
446.53742	22009.2375
450.6534	22664.8375
454.76644	23046.1375
458.87653	23196.0375
462.98368	23030.0375
467.08789	22683.9375
471.18916	22521.2375
475.2875	22373.5375
479.38291	22273.1375
483.4754	22159.9375
487.56496	21863.2375
491.6516	21598.9375
495.73531	21326.2375
499.81612	21237.3375
503.89401	21329.8375
507.96899	21409.7375
512.04106	21529.8375
516.11023	21690.9375
520.1765	21801.3375
524.23987	21860.1375
528.30034	21787.8375
532.35792	21669.3375
536.41261	21445.9375
540.46441	21248.4375
544.51333	21240.7375
548.55936	21341.3375
552.60252	21658.8375
556.64279	22050.0375
560.6802	22344.6375
564.71473	22556.3375
568.7464	22763.8375
572.7752	23044.3375
576.80114	23117.2375
580.82422	23057.5375
584.84444	23170.1375
588.86181	23618.9375
592.87633	24269.0375
596.888	24654.7375
600.89682	24521.3375
604.9028	24583.3375
608.90594	25566.1375
612.90624	26730.8375
616.90371	25660.8375
620.89834	22893.4375
624.89015	21616.0375
628.87913	21451.3375
632.86528	21538.6375
636.84862	21603.1375
640.82913	21459.4375
644.80683	21173.9375
648.78172	20976.2375
652.75379	20917.9375
656.72306	21048.9375
660.68952	21242.8375
664.65319	21255.3375
668.61405	21081.5375
672.57211	21097.4375
676.52738	21192.1375
680.47986	21243.4375
684.42955	21229.8375
688.37646	21179.4375
692.32058	21214.8375
696.26192	21283.0375
700.20048	21459.7375
704.13626	21489.8375
708.06928	21457.4375
711.99952	21270.2375
715.927	21151.7375
719.85171	21059.3375
723.77365	20902.6375
727.69284	20735.4375
731.60928	20559.5375
735.52295	20518.9375
739.43388	20497.0375
743.34206	20471.9375
747.24749	20452.2375
751.15017	20474.0375
755.05012	20638.5375
758.94733	20934.0375
762.8418	21561.8375
766.73354	22534.9375
770.62254	23487.9375
774.50882	23693.8375
778.39237	22971.6375
782.27321	21764.4375
786.15132	20785.5375
790.02671	20225.3375
793.89938	19897.5375
797.76935	19795.0375
801.6366	19752.1375
805.50115	19724.6375
809.36299	19705.8375
813.22213	19657.3375
817.07857	19643.5375
820.93231	19599.5375
824.78336	19555.8375
828.63172	19562.4375
832.47738	19526.6375
836.32036	19559.5375
840.16066	19581.4375
843.99827	19536.0375
847.8332	19519.1375
851.66546	19466.4375
855.49504	19499.1375
859.32195	19559.5375
863.1462	19600.2375
866.96777	19609.0375
870.78668	19495.3375
874.60293	19408.4375
878.41652	19356.2375
882.22745	19344.3375
886.03573	19359.4375
889.84136	19312.5375
893.64433	19305.0375
897.44466	19220.4375
901.24235	19145.1375
905.0374	19096.3375
908.8298	19056.0375
912.61957	19086.0375
916.40671	19234.9375
920.19121	19362.7375
923.97308	19488.6375
927.75233	19553.2375
931.52895	19589.0375
935.30295	19498.1375
939.07433	19250.1375
942.84309	18999.6375
946.60924	18854.7375
950.37278	18727.5375
954.13371	18652.8375
957.89203	18605.1375
961.64774	18596.2375
965.40086	18543.6375
969.15137	18467.8375
972.89929	18351.5375
976.64461	18349.9375
980.38733	18293.5375
984.12747	18364.6375
987.86502	18463.6375
991.59999	18576.2375
995.33237	18738.3375
999.06217	19095.7375
1002.78939	19426.2375
1006.51404	19605.0375
1010.23611	19794.2375
1013.95561	19975.7375
1017.67255	19900.8375
1021.38692	19721.6375
1025.09872	19506.3375
1028.80796	19454.2375
1032.51465	19561.6375
1036.21877	19721.1375
1039.92035	19781.3375
1043.61937	19768.2375
1047.31584	19722.1375
1051.00976	19612.2375
1054.70114	19675.0375
1058.38998	19819.7375
1062.07627	20072.5375
1065.76003	20561.1375
1069.44126	21197.4375
1073.11995	22020.8375
1076.79611	22678.1375
1080.46974	22743.6375
1084.14085	22153.4375
1087.80943	21382.7375
1091.47549	20795.9375
1095.13903	20425.4375
1098.80005	20100.9375
1102.45857	19743.4375
1106.11456	19570.6375
1109.76805	19496.1375
1113.41903	19583.6375
1117.06751	19702.7375
1120.71348	19851.6375
1124.35696	20036.7375
1127.99793	20240.0375
1131.63641	20413.1375
1135.2724	20335.1375
1138.90589	20186.0375
1142.5369	20058.9375
1146.16542	20014.3375
1149.79145	20004.2375
1153.415	20152.4375
1157.03607	20307.5375
1160.65467	20646.7375
1164.27079	21222.7375
1167.88443	22018.7375
1171.49561	23178.3375
1175.10432	24620.0375
1178.71056	26254.9375
1182.31434	27540.6375
1185.91565	27950.5375
1189.51451	27589.4375
1193.11091	26853.5375
1196.70485	26027.7375
1200.29634	25292.9375
1203.88538	24711.4375
1207.47197	24227.8375
1211.05612	23854.1375
1214.63782	23636.3375
1218.21708	23527.4375
1221.79391	23453.8375
1225.36829	23308.0375
1228.94024	22998.7375
1232.50976	22658.8375
1236.07685	22423.0375
1239.6415	22321.6375
1243.20374	22362.6375
1246.76355	22451.5375
1250.32093	22681.8375
1253.8759	22980.8375
1257.42845	23409.3375
1260.97859	23724.7375
1264.52631	24076.6375
1268.07163	24459.8375
1271.61453	24866.3375
1275.15503	25304.5375
1278.69312	25748.4375
1282.22882	26108.9375
1285.76211	26563.9375
1289.29301	27283.2375
1292.82151	28229.3375
1296.34761	29372.7375
1299.87133	30653.3375
1303.39266	32100.0375
1306.9116	33646.9375
1310.42815	35308.6375
1313.94233	36459.3375
1317.45412	36790.4375
1320.96354	36405.6375
1324.47058	35703.3375
1327.97525	35036.4375
1331.47754	34550.6375
1334.97747	34387.5375
1338.47502	34539.8375
1341.97022	34542.7375
1345.46305	34244.0375
1348.95352	33816.9375
1352.44163	33695.6375
1355.92738	34203.4375
1359.41078	35261.5375
1362.89183	36453.6375
1366.37053	36154.4375
1369.84688	33958.9375
1373.32088	31123.8375
1376.79254	29147.3375
1380.26186	28314.4375
1383.72883	28115.0375
1387.19347	28036.1375
1390.65578	27936.1375
1394.11575	27975.3375
1397.57339	28337.5375
1401.0287	28973.9375
1404.48168	29588.6375
1407.93234	29954.5375
1411.38068	29763.7375
1414.82669	29126.8375
1418.27039	28081.4375
1421.71177	27004.4375
1425.15083	26018.7375
1428.58758	25497.9375
1432.02203	25465.5375
1435.45416	25773.6375
1438.88399	26259.2375
1442.31151	26518.6375
1445.73673	26813.1375
1449.15965	27168.4375
1452.58027	27477.6375
1455.9986	27596.2375
1459.41463	27676.9375
1462.82837	27978.7375
1466.23982	28431.5375
1469.64898	28916.0375
1473.05586	29145.9375
1476.46045	29178.1375
1479.86276	29021.5375
1483.26279	28663.6375
1486.66054	28417.2375
1490.05602	28257.1375
1493.44922	28117.4375
1496.84016	27895.8375
1500.22882	27808.9375
1503.61521	27944.8375
1506.99934	28468.6375
1510.38121	29119.0375
1513.76081	29342.7375
1517.13816	28905.2375
1520.51324	28040.2375
1523.88607	27279.7375
1527.25665	26863.8375
1530.62498	26798.9375
1533.99105	26884.9375
1537.35488	27012.8375
1540.71647	26947.1375
1544.07581	26746.7375
1547.4329	26451.2375
1550.78776	26116.2375
1554.14038	25851.2375
1557.49077	25727.5375
1560.83892	25685.7375
1564.18484	25776.5375
1567.52853	26090.3375
1570.86999	26725.2375
1574.20922	27800.3375
1577.54624	29007.0375
1580.88103	29738.6375
1584.2136	29691.3375
1587.54395	29223.4375
1590.87208	29087.1375
1594.19801	29759.4375
1597.52172	30797.2375
1600.84321	31331.9375
1604.16251	30515.3375
1607.47959	28688.7375
1610.79447	26439.9375
1614.10715	24440.6375
1617.41763	22866.9375
1620.7259	21876.8375
1624.03199	21352.5375
1627.33587	21324.5375
1630.63757	21677.3375
1633.93707	22573.3375
1637.23439	24040.9375
1640.52951	26170.4375
1643.82246	28600.2375
1647.11321	30538.1375
1650.40179	30957.1375
1653.68819	29378.3375
1656.97241	26490.4375
1660.25446	23560.5375
1663.53433	21353.0375
1666.81203	19859.9375
1670.08756	18924.8375
1673.36092	18341.4375
1676.63211	17915.6375
1679.90115	17626.7375
1683.16801	17406.7375
1686.43272	17258.1375
1689.69527	17133.6375
1692.95567	17031.3375
1696.2139	16975.1375
1699.46999	16956.2375
1702.72392	16905.8375
1705.97571	16844.8375
1709.22535	16794.3375
1712.47284	16729.3375
1715.71819	16715.5375
1718.96139	16634.9375
1722.20246	16587.7375
1725.44139	16512.4375
1728.67818	16417.3375
1731.91284	16313.1375
1735.14537	16262.9375
1738.37576	16226.7375
1741.60403	16208.2375
1744.83017	16127.3375
1748.05418	16131.5375
1751.27607	16093.0375
1754.49584	16078.8375
1757.71349	16062.4375
1760.92903	16001.2375
1764.14244	16016.1375
1767.35375	15987.6375
1770.56294	15942.8375
1773.77002	15941.0375
1776.97499	15897.6375
1780.17785	15857.7375
1783.37861	15812.7375
1786.57727	15806.0375
1789.77382	15742.0375
1792.96828	15734.2375
1796.16064	15696.8375
1799.3509	15662.6375
1802.53907	15640.8375
1805.72514	15599.7375
1808.90913	15568.4375
1812.09102	15502.1375
1815.27083	15485.8375
1818.44856	15464.8375
1821.6242	15454.6375
1824.79776	15411.4375
1827.96924	15400.3375
1831.13864	15383.5375
1834.30597	15377.6375
1837.47122	15378.5375
1840.6344	15344.0375
1843.7955	15341.2375
1846.95454	15355.1375
1850.11151	15333.2375
1853.26642	15306.7375
1856.41926	15329.7375
1859.57004	15289.5375
1862.71876	15285.5375
1865.86542	15278.6375
1869.01003	15287.0375
1872.15258	15290.8375
1875.29308	15275.0375
1878.43152	15243.0375
1881.56792	15248.2375
1884.70227	15243.2375
1887.83457	15227.6375
1890.96482	15231.8375
1894.09304	15211.5375
1897.21921	15216.5375
1900.34335	15178.2375
1903.46544	15177.2375
1906.58551	15170.6375
1909.70353	15135.0375
1912.81953	15124.0375
1915.93349	15111.9375
1919.04543	15057.5375
1922.15534	15023.9375
1925.26322	15003.1375
1928.36908	15020.3375
1931.47292	14992.2375
1934.57473	14962.5375
1937.67453	14877.6375
1940.77232	14841.1375
1943.86808	14814.6375
1946.96184	14777.3375
1950.05358	14713.7375
1953.14331	14684.9375
1956.23103	14650.2375
1959.31675	14611.1375
1962.40046	14572.1375
1965.48217	14526.1375
1968.56188	14497.5375
1971.63959	14438.7375
1974.7153	14401.5375
1977.78901	14360.6375
1980.86073	14316.2375
1983.93046	14271.5375
1986.99819	14250.8375
1990.06394	14216.4375
1993.1277	14169.3375
1996.18947	14135.8375
1999.24925	14082.1375
2002.30706	14053.2375
2005.36288	13980.9375
2008.41672	13956.9375
2011.46859	13936.1375
2014.51848	13900.0375
2017.56639	13861.7375
2020.61233	13787.6375
2023.6563	13811.4375
2026.6983	13767.5375
2029.73833	13745.8375
2032.7764	13718.2375
2035.8125	13670.3375
2038.84664	13650.3375
2041.87881	13680.5375
2044.90903	13614.5375
2047.93729	13588.8375
2050.96359	13616.3375
2053.98794	13561.7375
2057.01034	13581.3375
2060.03078	13556.7375
2063.04927	13485.7375
2066.06582	13499.5375
2069.08042	13497.6375
2072.09307	13505.9375
2075.10378	13464.7375
2078.11255	13467.2375
2081.11938	13490.1375
2084.12426	13445.8375
2087.12722	13458.3375
2090.12824	13433.4375
2093.12732	13448.8375
2096.12447	13440.4375
2099.11969	13439.5375
2102.11299	13456.7375
2105.10435	13443.5375
2108.09379	13480.8375
2111.08131	13453.6375
2114.0669	13481.0375
2117.05057	13448.9375
2120.03233	13465.6375
2123.01216	13469.0375
2125.99008	13490.1375
2128.96609	13492.3375
2131.94018	13523.9375
2134.91236	13520.8375
2137.88263	13521.3375
2140.851	13533.4375
2143.81746	13524.7375
2146.78201	13525.7375
2149.74466	13565.9375
2152.7054	13523.9375
2155.66425	13554.3375
2158.6212	13568.4375
2161.57625	13549.9375
2164.52941	13514.4375
2167.48067	13523.6375
2170.43004	13499.4375
2173.37752	13492.0375
2176.32311	13510.9375
2179.26681	13511.5375
2182.20863	13488.7375
2185.14856	13512.2375
2188.08661	13461.8375
2191.02278	13466.1375
2193.95707	13430.9375
2196.88948	13462.1375
2199.82001	13444.4375
2202.74867	13439.4375
2205.67545	13429.9375
2208.60037	13431.9375
2211.52341	13398.1375
2214.44458	13371.8375
2217.36388	13367.2375
2220.28132	13331.9375
2223.1969	13290.3375
2226.11061	13274.2375
2229.02246	13259.0375
2231.93245	13219.8375
2234.84058	13221.2375
2237.74686	13215.7375
2240.65128	13175.8375
2243.55385	13148.5375
2246.45456	13108.6375
2249.35343	13131.4375
2252.25044	13083.5375
2255.14561	13042.1375
2258.03893	13059.3375
2260.93041	13042.7375
2263.82004	13010.0375
2266.70783	13004.4375
2269.59378	12945.9375
2272.4779	12906.7375
2275.36017	12889.8375
2278.24061	12853.3375
2281.11922	12813.9375
2283.996	12799.2375
2286.87094	12780.3375
2289.74405	12750.4375
2292.61534	12753.5375
2295.4848	12701.9375
2298.35243	12724.3375
2301.21824	12717.0375
2304.08223	12667.1375
2306.94439	12678.6375
2309.80474	12688.3375
2312.66327	12665.1375
2315.51999	12677.3375
2318.37489	12671.0375
2321.22797	12652.9375
2324.07925	12648.5375
2326.92871	12639.3375
2329.77637	12628.2375
2332.62222	12599.7375
2335.46626	12593.0375
2338.3085	12562.3375
2341.14893	12574.1375
2343.98756	12547.2375
2346.8244	12544.4375
2349.65943	12529.9375
2352.49267	12533.6375
2355.32411	12517.9375
2358.15376	12495.6375
2360.98161	12478.8375
2363.80768	12500.2375
2366.63195	12474.2375
2369.45444	12435.7375
2372.27514	12417.3375
2375.09405	12431.1375
2377.91118	12412.5375
2380.72652	12380.3375
2383.54009	12370.8375
2386.35187	12339.0375
2389.16188	12296.5375
2391.97011	12288.1375
2394.77657	12256.3375
2397.58125	12237.2375
2400.38416	12241.4375
2403.18529	12199.0375
2405.98466	12189.9375
2408.78226	12175.1375
2411.57809	12165.9375
2414.37216	12121.4375
2417.16446	12117.9375
2419.955	12110.9375
2422.74378	12071.7375
2425.5308	12046.8375
2428.31606	12058.2375
2431.09956	12057.4375
2433.88131	12030.2375
2436.6613	12014.9375
2439.43954	12028.7375
2442.21603	12003.6375
2444.99077	11993.5375
2447.76377	12008.5375
2450.53501	11999.5375
2453.30451	11967.2375
2456.07226	11958.8375
2458.83827	11949.3375
2461.60254	11947.8375
2464.36507	11942.2375
2467.12586	11925.0375
2469.88492	11924.8375
2472.64224	11874.3375
2475.39782	11886.3375
2478.15167	11905.4375
2480.90379	11912.4375
2483.65417	11911.5375
2486.40283	11915.3375
2489.14976	11909.4375
2491.89497	11888.4375
2494.63845	11928.7375
2497.3802	11889.9375
2500.12024	11889.7375
2502.85855	11875.5375
2505.59514	11856.6375
2508.33002	11868.1375
2511.06318	11854.0375
2513.79462	11794.3375
2516.52435	11795.2375
2519.25237	11813.6375
2521.97867	11789.4375
2524.70327	11785.0375
2527.42616	11771.1375
2530.14734	11759.8375
2532.86681	11753.4375
2535.58458	11732.2375
2538.30065	11714.4375
2541.01501	11728.7375
2543.72768	11696.9375
2546.43864	11699.8375
2549.14791	11652.5375
2551.85548	11643.5375
2554.56136	11634.0375
2557.26554	11592.5375
2559.96803	11586.0375
2562.66883	11586.8375
2565.36794	11563.0375
2568.06536	11564.6375
2570.7611	11541.2375
2573.45514	11536.0375
2576.14751	11535.2375
2578.83819	11513.0375
2581.52719	11509.1375
2584.21451	11483.9375
2586.90015	11484.5375
2589.58411	11444.4375
2592.2664	11422.6375
2594.94701	11395.1375
2597.62594	11411.9375
2600.30321	11370.6375
2602.9788	11396.9375
2605.65273	11317.2375
2608.32498	11343.1375
2610.99557	11347.8375
2613.66449	11341.6375
2616.33175	11292.7375
2618.99734	11304.2375
2621.66128	11292.4375
2624.32355	11285.8375
2626.98416	11304.8375
2629.64311	11291.3375
2632.30041	11273.9375
2634.95605	11270.0375
2637.61004	11274.5375
2640.26238	11257.7375
2642.91306	11258.2375
2645.56209	11225.1375
2648.20948	11244.3375
2650.85521	11254.6375
2653.4993	11228.5375
2656.14175	11248.0375
2658.78255	11216.5375
2661.42171	11222.8375
2664.05923	11226.3375
2666.6951	11230.2375
2669.32934	11223.5375
2671.96194	11225.2375
2674.59291	11248.3375
2677.22224	11213.6375
2679.84993	11215.0375
2682.476	11193.9375
2685.10043	11199.6375
2687.72324	11172.3375
2690.34441	11180.1375
2692.96396	11214.8375
2695.58188	11188.6375
2698.19818	11184.6375
2700.81285	11218.1375
2703.4259	11217.5375
2706.03733	11274.8375
2708.64714	11266.8375
2711.25533	11254.8375
2713.86191	11239.7375
2716.46687	11258.1375
2719.07021	11226.4375
2721.67194	11228.0375
2724.27206	11198.2375
2726.87057	11246.9375
2729.46747	11237.0375
2732.06276	11220.6375
2734.65644	11208.4375
2737.24852	11209.0375
2739.83899	11189.9375
2742.42786	11204.3375
2745.01513	11180.3375
2747.60079	11176.8375
2750.18486	11182.8375
2752.76733	11170.1375
2755.3482	11160.5375
2757.92747	11155.0375
2760.50515	11134.2375
2763.08123	11163.1375
2765.65573	11121.5375
2768.22863	11117.2375
2770.79994	11123.0375
2773.36967	11137.6375
2775.9378	11091.8375
2778.50435	11089.6375
2781.06932	11091.7375
2783.6327	11074.9375
2786.1945	11051.4375
2788.75471	11032.6375
2791.31335	11021.0375
2793.87041	11006.5375
2796.42589	10999.3375
2798.97979	11003.8375
2801.53212	10981.1375
2804.08288	10954.5375
2806.63206	10933.3375
2809.17967	10923.0375
2811.72571	10893.8375
2814.27018	10907.3375
2816.81308	10889.4375
2819.35442	10862.7375
2821.89419	10849.6375
2824.43239	10828.1375
2826.96904	10836.3375
2829.50412	10837.2375
2832.03763	10815.6375
2834.56959	10832.8375
2837.1	10798.5375
2839.62884	10829.4375
2842.15613	10833.8375
2844.68186	10816.7375
2847.20604	10813.2375
2849.72867	10834.7375
2852.24974	10792.2375
2854.76927	10787.7375
2857.28724	10812.0375
2859.80367	10779.5375
2862.31855	10787.5375
2864.83189	10746.3375
2867.34368	10756.4375
2869.85393	10712.5375
2872.36264	10748.7375
2874.8698	10741.5375
2877.37543	10743.2375
2879.87952	10758.3375
2882.38207	10781.4375
2884.88308	10792.0375
2887.38256	10818.5375
2889.88051	10799.9375
2892.37692	10796.6375
2894.8718	10792.2375
2897.36515	10813.8375
2899.85698	10844.8375
2902.34727	10840.7375
2904.83604	10874.8375
2907.32328	10884.8375
2909.809	10875.9375
2912.29319	10923.2375
2914.77587	10933.1375
2917.25702	10912.4375
2919.73665	10923.8375
2922.21476	10944.0375
2924.69136	10932.7375
2927.16644	10928.4375
2929.64	10912.9375
2932.11205	10886.9375
2934.58258	10860.8375
2937.05161	10875.4375
2939.51912	10901.3375
2941.98513	10863.0375
2944.44962	10823.5375
2946.91261	10766.3375
2949.37409	10745.1375
2951.83407	10722.5375
2954.29254	10706.1375
2956.74951	10654.7375
2959.20498	10651.0375
2961.65895	10620.7375
2964.11142	10597.0375
2966.56239	10577.2375
2969.01186	10563.7375
2971.45984	10513.7375
2973.90632	10491.7375
2976.35131	10448.0375
2978.7948	10424.0375
2981.23681	10399.0375
2983.67732	10382.5375
2986.11635	10364.4375
2988.55388	10324.8375
2990.98993	10309.1375
2993.4245	10254.2375
2995.85758	10236.5375
2998.28917	10226.2375
3000.71928	10221.0375
3003.14791	10189.7375
3005.57506	10165.1375
3008.00073	10162.1375
3010.42493	10174.0375
3012.84764	10104.7375
3015.26888	10095.1375
3017.68865	10079.1375
3020.10694	10090.0375
3022.52376	10042.2375
3024.9391	10030.8375
3027.35298	9989.0375
3029.76539	10011.0375
3032.17632	9994.4375
3034.5858	9959.2375
3036.9938	9974.0375
3039.40034	9941.8375
3041.80542	9923.8375
3044.20903	9900.8375
3046.61118	9915.1375
3049.01187	9865.4375
3051.4111	9864.3375
3053.80888	9834.9375
3056.20519	9833.5375
3058.60005	9814.1375
3060.99345	9779.9375
3063.3854	9770.3375
3065.7759	9758.2375
3068.16494	9760.2375
3070.55254	9715.5375
3072.93868	9687.6375
3075.32338	9653.2375
3077.70662	9637.6375
3080.08842	9613.9375
3082.46878	9610.3375
3084.84769	9598.5375
3087.22515	9592.0375
3089.60118	9597.3375
3091.97576	9613.0375
3094.3489	9599.6375
3096.72061	9603.5375
3099.09087	9582.8375
3101.4597	9608.5375
3103.82709	9576.1375
3106.19305	9556.4375
3108.55757	9577.1375
3110.92066	9526.9375
3113.28232	9510.3375
3115.64255	9493.8375
3118.00134	9451.3375
3120.35871	9474.3375
3122.71466	9455.5375
3125.06917	9445.8375
3127.42226	9419.8375
3129.77393	9423.1375
3132.12417	9419.3375
3134.47299	9429.1375
3136.82039	9423.2375
3139.16636	9444.9375
3141.51092	9436.9375
3143.85406	9437.8375
3146.19579	9428.8375
3148.53609	9427.7375
3150.87499	9424.2375
3153.21246	9462.4375
3155.54853	9464.4375
3157.88318	9439.0375
3160.21642	9437.8375
3162.54826	9417.9375
3164.87868	9416.9375
3167.2077	9441.7375
3169.5353	9428.4375
3171.86151	9436.6375
3174.18631	9438.8375
3176.5097	9440.3375
3178.83169	9412.3375
3181.15228	9422.8375
3183.47147	9412.0375
3185.78926	9382.3375
3188.10565	9374.7375
3190.42065	9369.6375
3192.73424	9365.6375
3195.04645	9381.0375
3197.35725	9384.7375
3199.66667	9395.6375
3201.97469	9407.1375
3204.28132	9380.5375
3206.58656	9412.5375
3208.8904	9389.5375
3211.19287	9387.4375
3213.49394	9408.2375
3215.79363	9394.7375
3218.09193	9386.3375
3220.38884	9399.6375
3222.68438	9404.7375
3224.97853	9379.9375
3227.2713	9367.8375
3229.56269	9365.7375
3231.8527	9353.0375
3234.14133	9328.0375
3236.42858	9315.5375
3238.71446	9302.0375
3240.99896	9277.7375
3243.28209	9272.4375
3245.56384	9280.1375
3247.84423	9310.1375
3250.12324	9277.2375
3252.40088	9272.2375
3254.67715	9289.8375
3256.95205	9275.4375
3259.22558	9258.1375
3261.49775	9244.3375
3263.76855	9217.9375
3266.03799	9204.2375
3268.30606	9207.6375
3270.57277	9152.1375
3272.83812	9147.3375
3275.10211	9124.8375
3277.36474	9129.9375
3279.62601	9130.7375
3281.88593	9098.5375
3284.14448	9132.7375
3286.40168	9125.9375
3288.65753	9135.1375
3290.91202	9090.7375
3293.16516	9044.6375
3295.41695	9011.6375
3297.66738	8978.9375
3299.91647	8945.7375
3302.16421	8905.2375
3304.4106	8861.1375
3306.65564	8815.3375
3308.89933	8761.5375
3311.14169	8718.2375
3313.38269	8637.6375
3315.62236	8592.9375
3317.86068	8499.6375
3320.09766	8439.5375
3322.3333	8343.6375
3324.5676	8357.5375
3326.80056	8237.8375
3329.03219	8204.8375
3331.26248	4.0375
3333.49143	-0.9625
3335.71905	-0.3625
