Data from AgNP_FTO_APTES_CRN_0uM_R6G_10uM_NaF_0.1M_Addition_RamanShift__17__11-49-32-915.txt Node

Date: Wed Dec 15 11:49:32 GMT 2021
User: TCL
Spectrometer: QEP01345
Trigger mode: 4
Integration Time (sec): 7.000000E0
Scans to average: 10
Electric dark correction enabled: true
Nonlinearity correction enabled: false
Boxcar width: 0
XAxis mode: Raman Shifts
Number of Pixels in Spectrum: 1044
>>>>>Begin Spectral Data<<<<<
46.04893	1.7375
50.45542	-2.0625
54.85868	0.1375
59.25871	-0.7625
63.6555	62.0375
68.04907	70.4375
72.43941	76.0375
76.82654	81.8375
81.21044	85.7375
85.59113	94.6375
89.96862	101.9375
94.34289	99.2375
98.71396	108.1375
103.08183	109.4375
107.4465	113.2375
111.80798	108.4375
116.16626	109.7375
120.52136	111.8375
124.87327	109.4375
129.222	111.8375
133.56755	109.7375
137.90993	113.8375
142.24913	116.8375
146.58517	123.1375
150.91804	130.2375
155.24774	146.7375
159.57429	162.8375
163.89768	192.6375
168.21792	233.7375
172.53501	295.2375
176.84895	386.5375
181.15975	519.8375
185.46741	704.9375
189.77193	965.9375
194.07331	1288.7375
198.37157	1666.3375
202.6667	2077.5375
206.9587	2491.2375
211.24758	2911.1375
215.53334	3346.8375
219.81599	3800.8375
224.09553	4316.7375
228.37195	4868.9375
232.64527	5473.1375
236.91549	6077.0375
241.18261	6649.7375
245.44663	7118.4375
249.70755	7552.5375
253.96539	7831.4375
258.22014	8054.7375
262.4718	8198.3375
266.72039	8242.0375
270.96589	8121.2375
275.20832	7930.6375
279.44768	7631.5375
283.68397	7306.8375
287.91719	7015.9375
292.14735	6810.5375
296.37445	6736.0375
300.59849	6780.7375
304.81948	6925.4375
309.03742	7063.9375
313.25231	7077.2375
317.46415	6874.4375
321.67296	6517.4375
325.87872	6193.3375
330.08145	6022.3375
334.28114	5965.6375
338.47781	6017.2375
342.67145	6091.2375
346.86207	6209.1375
351.04966	6418.4375
355.23424	6658.8375
359.4158	6841.0375
363.59435	6891.0375
367.76989	6880.4375
371.94243	6780.5375
376.11196	6692.6375
380.27849	6624.5375
384.44203	6583.4375
388.60257	6479.8375
392.76012	6449.4375
396.91468	6429.2375
401.06626	6543.3375
405.21485	6653.0375
409.36047	6546.5375
413.50311	6253.8375
417.64277	5986.7375
421.77947	5824.2375
425.9132	5768.0375
430.04396	5797.1375
434.17176	5814.4375
438.2966	5927.7375
442.41849	6095.1375
446.53742	6311.7375
450.6534	6469.5375
454.76644	6501.7375
458.87653	6412.1375
462.98368	6245.1375
467.08789	6066.0375
471.18916	5936.4375
475.2875	5771.3375
479.38291	5661.0375
483.4754	5588.8375
487.56496	5558.3375
491.6516	5530.6375
495.73531	5553.1375
499.81612	5577.1375
503.89401	5655.8375
507.96899	5737.7375
512.04106	5877.5375
516.11023	6010.7375
520.1765	6147.0375
524.23987	6266.3375
528.30034	6318.5375
532.35792	6349.5375
536.41261	6334.0375
540.46441	6256.4375
544.51333	6232.0375
548.55936	6317.5375
552.60252	6466.5375
556.64279	6698.7375
560.6802	6836.0375
564.71473	6898.5375
568.7464	6992.0375
572.7752	6979.0375
576.80114	6671.5375
580.82422	6337.2375
584.84444	6207.5375
588.86181	6338.5375
592.87633	6672.0375
596.888	6964.6375
600.89682	6961.8375
604.9028	7289.3375
608.90594	8862.9375
612.90624	11161.1375
616.90371	11252.7375
620.89834	8795.6375
624.89015	7421.4375
628.87913	6865.8375
632.86528	6492.7375
636.84862	6184.2375
640.82913	5862.2375
644.80683	5518.6375
648.78172	5298.8375
652.75379	5271.3375
656.72306	5447.6375
660.68952	5670.4375
664.65319	5594.5375
668.61405	5322.9375
672.57211	5180.6375
676.52738	5208.6375
680.47986	5214.5375
684.42955	5169.3375
688.37646	5136.2375
692.32058	5124.9375
696.26192	5170.3375
700.20048	5215.9375
704.13626	5265.1375
708.06928	5273.0375
711.99952	5249.9375
715.927	5276.5375
719.85171	5318.4375
723.77365	5332.0375
727.69284	5307.8375
731.60928	5272.7375
735.52295	5265.9375
739.43388	5316.4375
743.34206	5338.3375
747.24749	5345.8375
751.15017	5358.8375
755.05012	5404.1375
758.94733	5593.3375
762.8418	6088.7375
766.73354	7037.3375
770.62254	8013.5375
774.50882	8507.2375
778.39237	8218.7375
782.27321	7282.2375
786.15132	6348.8375
790.02671	5779.7375
793.89938	5486.7375
797.76935	5396.3375
801.6366	5344.1375
805.50115	5300.8375
809.36299	5274.8375
813.22213	5245.1375
817.07857	5229.4375
820.93231	5225.6375
824.78336	5236.2375
828.63172	5275.7375
832.47738	5280.9375
836.32036	5293.3375
840.16066	5294.8375
843.99827	5298.9375
847.8332	5311.7375
851.66546	5346.4375
855.49504	5374.0375
859.32195	5385.0375
863.1462	5406.5375
866.96777	5435.2375
870.78668	5495.6375
874.60293	5550.4375
878.41652	5623.8375
882.22745	5710.4375
886.03573	5884.7375
889.84136	5992.2375
893.64433	6153.8375
897.44466	6379.8375
901.24235	6665.6375
905.0374	6960.3375
908.8298	7247.3375
912.61957	7513.5375
916.40671	7721.6375
920.19121	7835.8375
923.97308	7858.8375
927.75233	7861.1375
931.52895	7797.5375
935.30295	7594.9375
939.07433	7311.4375
942.84309	6987.3375
946.60924	6783.4375
950.37278	6594.2375
954.13371	6445.4375
957.89203	6314.8375
961.64774	6189.9375
965.40086	6103.9375
969.15137	6025.7375
972.89929	5970.0375
976.64461	5935.9375
980.38733	5886.0375
984.12747	5858.2375
987.86502	5848.4375
991.59999	5853.2375
995.33237	5885.0375
999.06217	5945.4375
1002.78939	6030.8375
1006.51404	6123.8375
1010.23611	6216.4375
1013.95561	6283.1375
1017.67255	6305.0375
1021.38692	6253.4375
1025.09872	6185.4375
1028.80796	6125.9375
1032.51465	6099.6375
1036.21877	6157.4375
1039.92035	6208.9375
1043.61937	6272.4375
1047.31584	6324.3375
1051.00976	6382.9375
1054.70114	6369.0375
1058.38998	6328.6375
1062.07627	6291.7375
1065.76003	6227.7375
1069.44126	6155.5375
1073.11995	6140.7375
1076.79611	6138.0375
1080.46974	6125.2375
1084.14085	6138.7375
1087.80943	6131.4375
1091.47549	6049.8375
1095.13903	5891.8375
1098.80005	5647.6375
1102.45857	5432.4375
1106.11456	5345.5375
1109.76805	5341.5375
1113.41903	5391.3375
1117.06751	5487.2375
1120.71348	5655.2375
1124.35696	5860.5375
1127.99793	6051.7375
1131.63641	6064.1375
1135.2724	5798.9375
1138.90589	5499.6375
1142.5369	5330.4375
1146.16542	5217.1375
1149.79145	5156.1375
1153.415	5101.0375
1157.03607	5111.4375
1160.65467	5165.4375
1164.27079	5315.4375
1167.88443	5579.4375
1171.49561	6041.1375
1175.10432	6788.7375
1178.71056	7795.8375
1182.31434	8594.9375
1185.91565	8699.1375
1189.51451	8262.0375
1193.11091	7637.6375
1196.70485	7030.2375
1200.29634	6601.5375
1203.88538	6224.2375
1207.47197	5809.6375
1211.05612	5459.3375
1214.63782	5270.0375
1218.21708	5247.0375
1221.79391	5301.1375
1225.36829	5381.4375
1228.94024	5432.9375
1232.50976	5361.1375
1236.07685	5266.6375
1239.6415	5198.2375
1243.20374	5165.8375
1246.76355	5178.5375
1250.32093	5207.1375
1253.8759	5276.8375
1257.42845	5378.4375
1260.97859	5540.7375
1264.52631	5726.6375
1268.07163	5890.1375
1271.61453	6049.9375
1275.15503	6142.4375
1278.69312	6193.9375
1282.22882	6248.1375
1285.76211	6410.5375
1289.29301	6699.8375
1292.82151	6999.8375
1296.34761	7289.5375
1299.87133	7676.9375
1303.39266	8249.2375
1306.9116	9136.0375
1310.42815	10258.3375
1313.94233	11040.9375
1317.45412	10853.6375
1320.96354	9905.9375
1324.47058	8744.5375
1327.97525	7751.6375
1331.47754	7124.9375
1334.97747	6824.7375
1338.47502	6751.5375
1341.97022	6837.9375
1345.46305	7101.0375
1348.95352	7734.7375
1352.44163	8682.4375
1355.92738	9929.5375
1359.41078	11653.2375
1362.89183	13421.5375
1366.37053	13551.7375
1369.84688	11576.6375
1373.32088	9169.9375
1376.79254	7664.3375
1380.26186	7000.4375
1383.72883	6708.8375
1387.19347	6466.3375
1390.65578	6225.1375
1394.11575	6006.2375
1397.57339	5903.2375
1401.0287	5904.1375
1404.48168	5886.4375
1407.93234	5856.4375
1411.38068	5797.7375
1414.82669	5741.5375
1418.27039	5716.1375
1421.71177	5703.0375
1425.15083	5606.1375
1428.58758	5533.8375
1432.02203	5583.1375
1435.45416	5673.8375
1438.88399	5750.6375
1442.31151	5738.6375
1445.73673	5731.1375
1449.15965	5716.2375
1452.58027	5654.7375
1455.9986	5520.9375
1459.41463	5423.6375
1462.82837	5448.3375
1466.23982	5561.7375
1469.64898	5693.1375
1473.05586	5792.8375
1476.46045	5848.5375
1479.86276	5936.6375
1483.26279	6032.5375
1486.66054	6123.8375
1490.05602	6308.4375
1493.44922	6556.3375
1496.84016	6973.8375
1500.22882	7690.9375
1503.61521	8724.1375
1506.99934	9965.6375
1510.38121	11174.0375
1513.76081	11815.4375
1517.13816	11225.6375
1520.51324	9731.8375
1523.88607	8216.7375
1527.25665	7225.2375
1530.62498	6681.1375
1533.99105	6405.5375
1537.35488	6144.3375
1540.71647	5990.0375
1544.07581	5882.1375
1547.4329	5827.2375
1550.78776	5797.1375
1554.14038	5781.6375
1557.49077	5830.5375
1560.83892	5926.6375
1564.18484	6108.0375
1567.52853	6369.5375
1570.86999	6663.9375
1574.20922	6928.7375
1577.54624	7018.8375
1580.88103	6762.0375
1584.2136	6262.0375
1587.54395	5869.9375
1590.87208	5724.2375
1594.19801	5898.8375
1597.52172	6285.5375
1600.84321	6555.4375
1604.16251	6440.8375
1607.47959	6054.9375
1610.79447	5573.4375
1614.10715	5164.9375
1617.41763	4861.6375
1620.7259	4684.5375
1624.03199	4606.6375
1627.33587	4613.0375
1630.63757	4677.8375
1633.93707	4861.4375
1637.23439	5179.2375
1640.52951	5776.6375
1643.82246	6758.8375
1647.11321	7850.0375
1650.40179	8606.6375
1653.68819	8351.8375
1656.97241	7210.4375
1660.25446	5924.6375
1663.53433	5015.0375
1666.81203	4518.2375
1670.08756	4249.5375
1673.36092	4089.8375
1676.63211	3972.4375
1679.90115	3912.9375
1683.16801	3852.9375
1686.43272	3806.1375
1689.69527	3792.5375
1692.95567	3766.2375
1696.2139	3724.2375
1699.46999	3719.8375
1702.72392	3695.5375
1705.97571	3699.1375
1709.22535	3681.5375
1712.47284	3687.9375
1715.71819	3692.0375
1718.96139	3694.6375
1722.20246	3686.1375
1725.44139	3673.1375
1728.67818	3646.7375
1731.91284	3601.5375
1735.14537	3597.5375
1738.37576	3576.6375
1741.60403	3558.9375
1744.83017	3551.5375
1748.05418	3528.1375
1751.27607	3523.3375
1754.49584	3515.2375
1757.71349	3489.1375
1760.92903	3482.9375
1764.14244	3471.0375
1767.35375	3463.1375
1770.56294	3457.3375
1773.77002	3455.7375
1776.97499	3454.2375
1780.17785	3449.3375
1783.37861	3435.8375
1786.57727	3425.7375
1789.77382	3415.3375
1792.96828	3411.8375
1796.16064	3413.1375
1799.3509	3395.0375
1802.53907	3388.6375
1805.72514	3381.8375
1808.90913	3357.7375
1812.09102	3350.9375
1815.27083	3342.0375
1818.44856	3343.0375
1821.6242	3346.1375
1824.79776	3332.2375
1827.96924	3326.8375
1831.13864	3334.9375
1834.30597	3317.4375
1837.47122	3314.1375
1840.6344	3308.4375
1843.7955	3297.2375
1846.95454	3313.6375
1850.11151	3299.8375
1853.26642	3284.8375
1856.41926	3280.3375
1859.57004	3282.3375
1862.71876	3274.4375
1865.86542	3285.5375
1869.01003	3273.2375
1872.15258	3274.3375
1875.29308	3254.1375
1878.43152	3261.2375
1881.56792	3243.2375
1884.70227	3241.6375
1887.83457	3233.8375
1890.96482	3236.2375
1894.09304	3237.0375
1897.21921	3246.8375
1900.34335	3227.8375
1903.46544	3232.2375
1906.58551	3232.4375
1909.70353	3223.1375
1912.81953	3230.0375
1915.93349	3228.4375
1919.04543	3195.9375
1922.15534	3196.0375
1925.26322	3188.8375
1928.36908	3182.7375
1931.47292	3178.5375
1934.57473	3155.5375
1937.67453	3156.6375
1940.77232	3133.8375
1943.86808	3118.3375
1946.96184	3121.3375
1950.05358	3109.1375
1953.14331	3093.3375
1956.23103	3082.8375
1959.31675	3070.7375
1962.40046	3073.3375
1965.48217	3063.6375
1968.56188	3052.3375
1971.63959	3051.4375
1974.7153	3028.4375
1977.78901	3019.6375
1980.86073	3017.8375
1983.93046	2997.6375
1986.99819	2984.7375
1990.06394	2978.5375
1993.1277	2973.9375
1996.18947	2949.3375
1999.24925	2964.8375
2002.30706	2941.7375
2005.36288	2940.0375
2008.41672	2927.2375
2011.46859	2921.8375
2014.51848	2911.1375
2017.56639	2907.9375
2020.61233	2892.8375
2023.6563	2895.0375
2026.6983	2877.3375
2029.73833	2885.1375
2032.7764	2882.4375
2035.8125	2886.9375
2038.84664	2872.4375
2041.87881	2856.5375
2044.90903	2862.6375
2047.93729	2862.4375
2050.96359	2872.9375
2053.98794	2852.6375
2057.01034	2855.7375
2060.03078	2853.7375
2063.04927	2837.6375
2066.06582	2848.9375
2069.08042	2860.1375
2072.09307	2854.9375
2075.10378	2837.0375
2078.11255	2830.7375
2081.11938	2843.8375
2084.12426	2853.7375
2087.12722	2840.1375
2090.12824	2819.3375
2093.12732	2813.4375
2096.12447	2809.2375
2099.11969	2803.2375
2102.11299	2801.2375
2105.10435	2805.7375
2108.09379	2805.6375
2111.08131	2791.2375
2114.0669	2794.2375
2117.05057	2785.9375
2120.03233	2795.4375
2123.01216	2786.9375
2125.99008	2792.9375
2128.96609	2791.7375
2131.94018	2782.7375
2134.91236	2787.3375
2137.88263	2793.9375
2140.851	2784.9375
2143.81746	2784.5375
2146.78201	2778.2375
2149.74466	2775.1375
2152.7054	2781.1375
2155.66425	2777.2375
2158.6212	2762.9375
2161.57625	2765.8375
2164.52941	2757.0375
2167.48067	2761.7375
2170.43004	2755.8375
2173.37752	2747.6375
2176.32311	2749.0375
2179.26681	2756.0375
2182.20863	2749.5375
2185.14856	2754.5375
2188.08661	2755.3375
2191.02278	2757.0375
2193.95707	2748.6375
2196.88948	2758.4375
2199.82001	2741.0375
2202.74867	2744.2375
2205.67545	2740.0375
2208.60037	2734.2375
2211.52341	2726.1375
2214.44458	2726.9375
2217.36388	2726.9375
2220.28132	2716.4375
2223.1969	2717.9375
2226.11061	2698.6375
2229.02246	2684.2375
2231.93245	2678.4375
2234.84058	2684.9375
2237.74686	2682.4375
2240.65128	2697.0375
2243.55385	2676.7375
2246.45456	2677.2375
2249.35343	2682.3375
2252.25044	2669.8375
2255.14561	2669.8375
2258.03893	2665.8375
2260.93041	2649.4375
2263.82004	2656.6375
2266.70783	2649.2375
2269.59378	2630.7375
2272.4779	2631.5375
2275.36017	2625.2375
2278.24061	2620.3375
2281.11922	2597.6375
2283.996	2595.9375
2286.87094	2597.7375
2289.74405	2572.6375
2292.61534	2576.1375
2295.4848	2576.5375
2298.35243	2546.1375
2301.21824	2558.7375
2304.08223	2563.3375
2306.94439	2553.4375
2309.80474	2555.1375
2312.66327	2533.4375
2315.51999	2548.2375
2318.37489	2543.9375
2321.22797	2534.0375
2324.07925	2534.3375
2326.92871	2519.6375
2329.77637	2534.4375
2332.62222	2534.1375
2335.46626	2510.0375
2338.3085	2508.8375
2341.14893	2513.6375
2343.98756	2509.8375
2346.8244	2507.8375
2349.65943	2501.4375
2352.49267	2491.5375
2355.32411	2504.4375
2358.15376	2499.7375
2360.98161	2505.2375
2363.80768	2508.8375
2366.63195	2513.7375
2369.45444	2520.3375
2372.27514	2510.5375
2375.09405	2503.8375
2377.91118	2498.7375
2380.72652	2503.7375
2383.54009	2494.9375
2386.35187	2474.7375
2389.16188	2465.6375
2391.97011	2453.2375
2394.77657	2450.3375
2397.58125	2445.6375
2400.38416	2434.3375
2403.18529	2425.5375
2405.98466	2427.3375
2408.78226	2416.8375
2411.57809	2396.5375
2414.37216	2407.8375
2417.16446	2411.6375
2419.955	2399.1375
2422.74378	2400.1375
2425.5308	2395.6375
2428.31606	2401.5375
2431.09956	2395.6375
2433.88131	2370.4375
2436.6613	2376.3375
2439.43954	2394.2375
2442.21603	2384.8375
2444.99077	2394.3375
2447.76377	2391.9375
2450.53501	2386.0375
2453.30451	2377.2375
2456.07226	2380.8375
2458.83827	2374.3375
2461.60254	2371.9375
2464.36507	2379.8375
2467.12586	2382.1375
2469.88492	2365.7375
2472.64224	2351.6375
2475.39782	2360.0375
2478.15167	2365.1375
2480.90379	2362.3375
2483.65417	2374.2375
2486.40283	2362.1375
2489.14976	2368.0375
2491.89497	2366.5375
2494.63845	2372.5375
2497.3802	2372.8375
2500.12024	2374.1375
2502.85855	2355.1375
2505.59514	2349.9375
2508.33002	2355.2375
2511.06318	2337.3375
2513.79462	2320.2375
2516.52435	2308.5375
2519.25237	2312.6375
2521.97867	2302.0375
2524.70327	2294.7375
2527.42616	2286.2375
2530.14734	2289.6375
2532.86681	2292.8375
2535.58458	2280.0375
2538.30065	2274.7375
2541.01501	2275.8375
2543.72768	2278.6375
2546.43864	2273.6375
2549.14791	2269.4375
2551.85548	2275.8375
2554.56136	2268.0375
2557.26554	2267.1375
2559.96803	2250.9375
2562.66883	2251.9375
2565.36794	2269.7375
2568.06536	2250.0375
2570.7611	2247.3375
2573.45514	2250.2375
2576.14751	2243.6375
2578.83819	2227.5375
2581.52719	2223.3375
2584.21451	2221.9375
2586.90015	2227.2375
2589.58411	2215.5375
2592.2664	2211.6375
2594.94701	2206.7375
2597.62594	2202.8375
2600.30321	2200.7375
2602.9788	2195.8375
2605.65273	2190.9375
2608.32498	2188.1375
2610.99557	2185.4375
2613.66449	2190.7375
2616.33175	2177.7375
2618.99734	2183.7375
2621.66128	2179.9375
2624.32355	2181.6375
2626.98416	2171.7375
2629.64311	2184.9375
2632.30041	2169.4375
2634.95605	2170.4375
2637.61004	2161.5375
2640.26238	2159.7375
2642.91306	2154.9375
2645.56209	2161.6375
2648.20948	2147.7375
2650.85521	2156.3375
2653.4993	2147.0375
2656.14175	2160.2375
2658.78255	2164.1375
2661.42171	2168.2375
2664.05923	2167.8375
2666.6951	2154.5375
2669.32934	2168.6375
2671.96194	2157.1375
2674.59291	2160.2375
2677.22224	2164.5375
2679.84993	2172.2375
2682.476	2166.1375
2685.10043	2163.6375
2687.72324	2160.0375
2690.34441	2166.8375
2692.96396	2171.3375
2695.58188	2174.9375
2698.19818	2165.6375
2700.81285	2169.4375
2703.4259	2167.5375
2706.03733	2165.1375
2708.64714	2161.3375
2711.25533	2180.5375
2713.86191	2192.8375
2716.46687	2201.4375
2719.07021	2193.6375
2721.67194	2205.4375
2724.27206	2199.5375
2726.87057	2212.0375
2729.46747	2218.2375
2732.06276	2223.1375
2734.65644	2225.6375
2737.24852	2233.4375
2739.83899	2220.3375
2742.42786	2230.5375
2745.01513	2236.0375
2747.60079	2233.9375
2750.18486	2225.6375
2752.76733	2238.6375
2755.3482	2249.3375
2757.92747	2257.9375
2760.50515	2254.9375
2763.08123	2245.3375
2765.65573	2257.2375
2768.22863	2251.8375
2770.79994	2263.6375
2773.36967	2251.5375
2775.9378	2265.0375
2778.50435	2256.3375
2781.06932	2245.8375
2783.6327	2261.7375
2786.1945	2270.5375
2788.75471	2267.3375
2791.31335	2260.5375
2793.87041	2260.5375
2796.42589	2264.0375
2798.97979	2268.8375
2801.53212	2266.1375
2804.08288	2264.7375
2806.63206	2273.5375
2809.17967	2264.5375
2811.72571	2266.4375
2814.27018	2267.4375
2816.81308	2278.8375
2819.35442	2272.7375
2821.89419	2268.4375
2824.43239	2280.7375
2826.96904	2283.1375
2829.50412	2275.3375
2832.03763	2278.9375
2834.56959	2288.0375
2837.1	2288.0375
2839.62884	2304.9375
2842.15613	2310.7375
2844.68186	2335.6375
2847.20604	2364.8375
2849.72867	2366.2375
2852.24974	2392.2375
2854.76927	2405.3375
2857.28724	2420.5375
2859.80367	2430.1375
2862.31855	2454.3375
2864.83189	2470.8375
2867.34368	2485.6375
2869.85393	2491.7375
2872.36264	2493.7375
2874.8698	2514.7375
2877.37543	2533.2375
2879.87952	2552.8375
2882.38207	2560.8375
2884.88308	2562.3375
2887.38256	2573.6375
2889.88051	2591.3375
2892.37692	2593.0375
2894.8718	2592.7375
2897.36515	2596.3375
2899.85698	2595.9375
2902.34727	2601.3375
2904.83604	2602.2375
2907.32328	2600.5375
2909.809	2606.8375
2912.29319	2599.1375
2914.77587	2608.1375
2917.25702	2599.2375
2919.73665	2592.5375
2922.21476	2592.2375
2924.69136	2593.3375
2927.16644	2575.8375
2929.64	2576.5375
2932.11205	2552.9375
2934.58258	2532.7375
2937.05161	2523.7375
2939.51912	2513.1375
2941.98513	2471.2375
2944.44962	2448.5375
2946.91261	2409.3375
2949.37409	2395.4375
2951.83407	2360.9375
2954.29254	2335.6375
2956.74951	2321.1375
2959.20498	2290.3375
2961.65895	2265.8375
2964.11142	2242.1375
2966.56239	2236.4375
2969.01186	2194.2375
2971.45984	2186.0375
2973.90632	2170.7375
2976.35131	2151.0375
2978.7948	2131.9375
2981.23681	2124.5375
2983.67732	2096.1375
2986.11635	2082.3375
2988.55388	2068.4375
2990.98993	2054.1375
2993.4245	2049.5375
2995.85758	2042.5375
2998.28917	2035.9375
3000.71928	2026.0375
3003.14791	2018.3375
3005.57506	2002.9375
3008.00073	2008.7375
3010.42493	2015.1375
3012.84764	2002.9375
3015.26888	1999.7375
3017.68865	1988.2375
3020.10694	1991.4375
3022.52376	1980.9375
3024.9391	1983.3375
3027.35298	1972.7375
3029.76539	1973.4375
3032.17632	1973.8375
3034.5858	1970.6375
3036.9938	1974.3375
3039.40034	1963.1375
3041.80542	1964.0375
3044.20903	1956.6375
3046.61118	1961.9375
3049.01187	1946.7375
3051.4111	1945.9375
3053.80888	1940.0375
3056.20519	1951.0375
3058.60005	1959.4375
3060.99345	1955.0375
3063.3854	1955.8375
3065.7759	1947.0375
3068.16494	1965.1375
3070.55254	1967.0375
3072.93868	1964.5375
3075.32338	1954.9375
3077.70662	1951.9375
3080.08842	1947.0375
3082.46878	1954.6375
3084.84769	1958.8375
3087.22515	1956.8375
3089.60118	1967.6375
3091.97576	1958.4375
3094.3489	1958.1375
3096.72061	1977.6375
3099.09087	1975.2375
3101.4597	1971.0375
3103.82709	1986.6375
3106.19305	1982.7375
3108.55757	1984.2375
3110.92066	1987.2375
3113.28232	1997.3375
3115.64255	1982.5375
3118.00134	1989.6375
3120.35871	1992.3375
3122.71466	2001.7375
3125.06917	2002.7375
3127.42226	2012.6375
3129.77393	2013.9375
3132.12417	2016.7375
3134.47299	2034.7375
3136.82039	2033.4375
3139.16636	2042.4375
3141.51092	2050.0375
3143.85406	2049.7375
3146.19579	2065.9375
3148.53609	2063.6375
3150.87499	2079.4375
3153.21246	2087.8375
3155.54853	2088.9375
3157.88318	2101.8375
3160.21642	2099.2375
3162.54826	2109.8375
3164.87868	2109.8375
3167.2077	2117.4375
3169.5353	2123.3375
3171.86151	2129.5375
3174.18631	2132.4375
3176.5097	2139.7375
3178.83169	2143.6375
3181.15228	2147.6375
3183.47147	2149.5375
3185.78926	2165.9375
3188.10565	2164.2375
3190.42065	2165.9375
3192.73424	2162.7375
3195.04645	2175.2375
3197.35725	2177.3375
3199.66667	2190.0375
3201.97469	2187.7375
3204.28132	2194.9375
3206.58656	2194.6375
3208.8904	2204.3375
3211.19287	2217.6375
3213.49394	2221.4375
3215.79363	2236.1375
3218.09193	2234.6375
3220.38884	2223.2375
3222.68438	2222.1375
3224.97853	2226.0375
3227.2713	2244.9375
3229.56269	2235.9375
3231.8527	2241.3375
3234.14133	2233.6375
3236.42858	2242.7375
3238.71446	2249.8375
3240.99896	2230.9375
3243.28209	2240.9375
3245.56384	2244.4375
3247.84423	2245.6375
3250.12324	2269.1375
3252.40088	2255.1375
3254.67715	2254.8375
3256.95205	2248.9375
3259.22558	2260.5375
3261.49775	2258.1375
3263.76855	2256.8375
3266.03799	2254.5375
3268.30606	2258.0375
3270.57277	2267.2375
3272.83812	2249.9375
3275.10211	2251.5375
3277.36474	2251.6375
3279.62601	2255.8375
3281.88593	2255.4375
3284.14448	2252.4375
3286.40168	2239.2375
3288.65753	2254.5375
3290.91202	2236.4375
3293.16516	2217.5375
3295.41695	2220.3375
3297.66738	2208.5375
3299.91647	2212.0375
3302.16421	2201.2375
3304.4106	2189.0375
3306.65564	2175.3375
3308.89933	2165.6375
3311.14169	2151.5375
3313.38269	2129.2375
3315.62236	2115.9375
3317.86068	2105.3375
3320.09766	2091.0375
3322.3333	2060.4375
3324.5676	2074.4375
3326.80056	2033.6375
3329.03219	2035.1375
3331.26248	1.9375
3333.49143	-0.5625
3335.71905	-0.5625
