Data from AgNP_FTO_APTES_CRN_2uM_R6G_10uM_NaF_0.1M_Addition_RamanShift__27__15-06-29-359.txt Node

Date: Wed Dec 15 15:06:29 GMT 2021
User: TCL
Spectrometer: QEP01345
Trigger mode: 4
Integration Time (sec): 7.000000E0
Scans to average: 10
Electric dark correction enabled: true
Nonlinearity correction enabled: false
Boxcar width: 0
XAxis mode: Raman Shifts
Number of Pixels in Spectrum: 1044
>>>>>Begin Spectral Data<<<<<
46.04893	-0.0875
50.45542	-2.3875
54.85868	-0.7875
59.25871	-2.2875
63.6555	127.0125
68.04907	139.5125
72.43941	146.2125
76.82654	153.9125
81.21044	154.8125
85.59113	162.6125
89.96862	170.9125
94.34289	170.8125
98.71396	181.1125
103.08183	188.2125
107.4465	192.3125
111.80798	192.9125
116.16626	196.9125
120.52136	210.2125
124.87327	214.5125
129.222	229.2125
133.56755	234.6125
137.90993	255.6125
142.24913	280.5125
146.58517	310.4125
150.91804	358.4125
155.24774	420.5125
159.57429	525.5125
163.89768	666.4125
168.21792	882.3125
172.53501	1193.2125
176.84895	1663.4125
181.15975	2329.0125
185.46741	3254.3125
189.77193	4469.9125
194.07331	5978.1125
198.37157	7720.5125
202.6667	9525.1125
206.9587	11287.3125
211.24758	13045.5125
215.53334	14827.8125
219.81599	16736.5125
224.09553	18845.0125
228.37195	21188.7125
232.64527	23816.9125
236.91549	26536.2125
241.18261	29249.6125
245.44663	31655.4125
249.70755	33756.8125
253.96539	35636.9125
258.22014	37251.3125
262.4718	38609.6125
266.72039	39670.3125
270.96589	40267.8125
275.20832	40458.7125
279.44768	40258.8125
283.68397	39986.5125
287.91719	39699.1125
292.14735	39586.2125
296.37445	39676.5125
300.59849	40076.3125
304.81948	40464.8125
309.03742	40688.4125
313.25231	40308.4125
317.46415	39308.0125
321.67296	37986.1125
325.87872	36816.4125
330.08145	36245.0125
334.28114	36327.8125
338.47781	36700.2125
342.67145	37261.5125
346.86207	38117.5125
351.04966	39156.8125
355.23424	40450.1125
359.4158	41424.5125
363.59435	42032.2125
367.76989	42408.7125
371.94243	42587.3125
376.11196	42602.3125
380.27849	42611.4125
384.44203	42675.7125
388.60257	42777.5125
392.76012	43046.4125
396.91468	43629.3125
401.06626	44480.0125
405.21485	45087.9125
409.36047	44867.9125
413.50311	44052.0125
417.64277	43254.5125
421.77947	42954.1125
425.9132	43026.4125
430.04396	43296.0125
434.17176	43638.7125
438.2966	44075.5125
442.41849	44767.0125
446.53742	45836.6125
450.6534	47194.5125
454.76644	48240.8125
458.87653	48687.1125
462.98368	48537.8125
467.08789	47877.8125
471.18916	46993.5125
475.2875	46069.4125
479.38291	45332.3125
483.4754	44766.8125
487.56496	44247.2125
491.6516	43748.9125
495.73531	43450.3125
499.81612	43367.4125
503.89401	43700.6125
507.96899	43842.6125
512.04106	43990.9125
516.11023	44020.5125
520.1765	44101.0125
524.23987	43936.8125
528.30034	43586.6125
532.35792	43101.2125
536.41261	42406.0125
540.46441	41834.0125
544.51333	41677.4125
548.55936	42056.7125
552.60252	42878.8125
556.64279	43678.6125
560.6802	44092.4125
564.71473	44373.8125
568.7464	45066.7125
572.7752	45989.0125
576.80114	46398.1125
580.82422	46753.2125
584.84444	47202.6125
588.86181	47585.8125
592.87633	48318.8125
596.888	49098.6125
600.89682	50058.3125
604.9028	52795.2125
608.90594	59085.8125
612.90624	65621.4125
616.90371	61772.4125
620.89834	50519.7125
624.89015	45618.1125
628.87913	44938.4125
632.86528	44868.4125
636.84862	44475.4125
640.82913	43615.1125
644.80683	42324.5125
648.78172	41453.7125
652.75379	41385.6125
656.72306	42162.5125
660.68952	43134.4125
664.65319	43008.7125
668.61405	42110.5125
672.57211	41694.4125
676.52738	41645.6125
680.47986	41609.7125
684.42955	41479.5125
688.37646	41439.2125
692.32058	41689.4125
696.26192	42043.6125
700.20048	42525.3125
704.13626	42846.1125
708.06928	42726.0125
711.99952	42354.0125
715.927	42271.3125
719.85171	42343.0125
723.77365	42164.4125
727.69284	41650.0125
731.60928	41313.2125
735.52295	41252.6125
739.43388	41221.7125
743.34206	41470.2125
747.24749	41780.1125
751.15017	42230.3125
755.05012	43020.1125
758.94733	44411.5125
762.8418	47017.9125
766.73354	51367.3125
770.62254	55398.1125
774.50882	56557.9125
778.39237	53594.0125
782.27321	48959.4125
786.15132	45275.6125
790.02671	43082.1125
793.89938	42114.9125
797.76935	41717.2125
801.6366	41617.2125
805.50115	41453.8125
809.36299	41207.8125
813.22213	41013.9125
817.07857	40864.3125
820.93231	40831.5125
824.78336	40807.4125
828.63172	40889.8125
832.47738	40980.4125
836.32036	41164.6125
840.16066	41353.1125
843.99827	41490.3125
847.8332	41365.2125
851.66546	41113.9125
855.49504	40968.3125
859.32195	40922.7125
863.1462	40654.0125
866.96777	40434.2125
870.78668	40288.2125
874.60293	40263.8125
878.41652	40294.0125
882.22745	40488.6125
886.03573	40520.5125
889.84136	40565.8125
893.64433	40374.4125
897.44466	40256.5125
901.24235	40151.7125
905.0374	40149.6125
908.8298	40092.3125
912.61957	40201.3125
916.40671	40633.7125
920.19121	41261.8125
923.97308	41876.9125
927.75233	42179.2125
931.52895	42084.8125
935.30295	41580.1125
939.07433	40693.4125
942.84309	40102.3125
946.60924	39924.8125
950.37278	39763.4125
954.13371	39443.2125
957.89203	39175.9125
961.64774	39003.0125
965.40086	38867.1125
969.15137	38764.5125
972.89929	38595.2125
976.64461	38605.3125
980.38733	38701.2125
984.12747	38947.5125
987.86502	39295.1125
991.59999	39952.8125
995.33237	40841.6125
999.06217	42449.2125
1002.78939	44280.3125
1006.51404	45432.4125
1010.23611	46103.5125
1013.95561	46479.7125
1017.67255	46347.9125
1021.38692	45756.2125
1025.09872	45500.7125
1028.80796	46342.3125
1032.51465	48288.9125
1036.21877	50024.9125
1039.92035	50185.9125
1043.61937	49178.8125
1047.31584	47421.4125
1051.00976	45574.6125
1054.70114	44527.2125
1058.38998	44211.1125
1062.07627	44402.0125
1065.76003	44872.9125
1069.44126	45514.9125
1073.11995	46430.8125
1076.79611	47346.9125
1080.46974	47788.7125
1084.14085	47967.4125
1087.80943	47942.9125
1091.47549	47561.0125
1095.13903	46845.8125
1098.80005	45791.2125
1102.45857	44779.0125
1106.11456	44181.8125
1109.76805	44177.4125
1113.41903	44513.6125
1117.06751	44994.1125
1120.71348	45536.9125
1124.35696	46168.9125
1127.99793	46723.0125
1131.63641	47052.8125
1135.2724	46565.8125
1138.90589	45922.4125
1142.5369	45539.9125
1146.16542	45206.4125
1149.79145	45127.4125
1153.415	45392.1125
1157.03607	45984.2125
1160.65467	46937.5125
1164.27079	48591.3125
1167.88443	50991.9125
1171.49561	54290.1125
1175.10432	59040.9125
1178.71056	65001.5125
1182.31434	70318.1125
1185.91565	73074.0125
1189.51451	72656.8125
1193.11091	69650.6125
1196.70485	65665.2125
1200.29634	62173.0125
1203.88538	59566.8125
1207.47197	57452.7125
1211.05612	55847.4125
1214.63782	54897.7125
1218.21708	54652.7125
1221.79391	54957.1125
1225.36829	55147.1125
1228.94024	54833.9125
1232.50976	54133.3125
1236.07685	53662.9125
1239.6415	53399.7125
1243.20374	53404.9125
1246.76355	53670.0125
1250.32093	54424.8125
1253.8759	55847.4125
1257.42845	57617.9125
1260.97859	59190.9125
1264.52631	60540.6125
1268.07163	61995.7125
1271.61453	63717.2125
1275.15503	65732.6125
1278.69312	67680.6125
1282.22882	69392.6125
1285.76211	70724.8125
1289.29301	72086.8125
1292.82151	73717.3125
1296.34761	75949.4125
1299.87133	79463.6125
1303.39266	84270.5125
1306.9116	90311.5125
1310.42815	96804.3125
1313.94233	100908.5125
1317.45412	100996.7125
1320.96354	98368.0125
1324.47058	94903.7125
1327.97525	91790.2125
1331.47754	89722.9125
1334.97747	89027.9125
1338.47502	89441.2125
1341.97022	89984.6125
1345.46305	89816.7125
1348.95352	89151.7125
1352.44163	89233.9125
1355.92738	91516.1125
1359.41078	97175.3125
1362.89183	102811.5125
1366.37053	101168.5125
1369.84688	91913.5125
1373.32088	81408.1125
1376.79254	74145.1125
1380.26186	70640.6125
1383.72883	69369.1125
1387.19347	68360.5125
1390.65578	67183.2125
1394.11575	66510.7125
1397.57339	66815.6125
1401.0287	67997.5125
1404.48168	69349.2125
1407.93234	70664.0125
1411.38068	71206.9125
1414.82669	70593.5125
1418.27039	68726.4125
1421.71177	66098.7125
1425.15083	63778.2125
1428.58758	62420.6125
1432.02203	62209.9125
1435.45416	62920.0125
1438.88399	63878.9125
1442.31151	64814.6125
1445.73673	65630.9125
1449.15965	66359.2125
1452.58027	66664.4125
1455.9986	66505.9125
1459.41463	66623.4125
1462.82837	67376.5125
1466.23982	68775.5125
1469.64898	70245.0125
1473.05586	71266.3125
1476.46045	71837.8125
1479.86276	72249.0125
1483.26279	72478.9125
1486.66054	72674.6125
1490.05602	73362.3125
1493.44922	74288.2125
1496.84016	75140.4125
1500.22882	76529.1125
1503.61521	78953.8125
1506.99934	82343.6125
1510.38121	85793.8125
1513.76081	87573.5125
1517.13816	86098.6125
1520.51324	81791.8125
1523.88607	77200.9125
1527.25665	74065.5125
1530.62498	72163.7125
1533.99105	71020.3125
1537.35488	70284.1125
1540.71647	69608.4125
1544.07581	68918.3125
1547.4329	68082.1125
1550.78776	67146.6125
1554.14038	66515.1125
1557.49077	66294.1125
1560.83892	66273.3125
1564.18484	66476.5125
1567.52853	66556.2125
1570.86999	66943.7125
1574.20922	67986.9125
1577.54624	69129.6125
1580.88103	69475.7125
1584.2136	69459.2125
1587.54395	70358.6125
1590.87208	72606.9125
1594.19801	76596.5125
1597.52172	81071.3125
1600.84321	82767.9125
1604.16251	79680.6125
1607.47959	73761.3125
1610.79447	67545.6125
1614.10715	61867.2125
1617.41763	57410.9125
1620.7259	54455.8125
1624.03199	52943.8125
1627.33587	53076.3125
1630.63757	54540.0125
1633.93707	57525.6125
1637.23439	62032.9125
1640.52951	67487.4125
1643.82246	73349.1125
1647.11321	77986.8125
1650.40179	79076.8125
1653.68819	74826.1125
1656.97241	66473.2125
1660.25446	57790.4125
1663.53433	51324.3125
1666.81203	47072.0125
1670.08756	44501.4125
1673.36092	42895.9125
1676.63211	41755.5125
1679.90115	41008.1125
1683.16801	40344.2125
1686.43272	39996.8125
1689.69527	39652.4125
1692.95567	39436.0125
1696.2139	39295.2125
1699.46999	39170.1125
1702.72392	39084.5125
1705.97571	39043.7125
1709.22535	38939.3125
1712.47284	38923.6125
1715.71819	38897.0125
1718.96139	38821.4125
1722.20246	38672.9125
1725.44139	38561.1125
1728.67818	38337.8125
1731.91284	38163.7125
1735.14537	37972.6125
1738.37576	37775.5125
1741.60403	37677.1125
1744.83017	37581.3125
1748.05418	37473.7125
1751.27607	37356.6125
1754.49584	37292.0125
1757.71349	37308.1125
1760.92903	37284.7125
1764.14244	37269.2125
1767.35375	37259.3125
1770.56294	37235.0125
1773.77002	37228.8125
1776.97499	37133.5125
1780.17785	37162.1125
1783.37861	37073.5125
1786.57727	37022.8125
1789.77382	36970.7125
1792.96828	36902.3125
1796.16064	36867.3125
1799.3509	36892.8125
1802.53907	36829.8125
1805.72514	36747.9125
1808.90913	36629.2125
1812.09102	36584.6125
1815.27083	36517.4125
1818.44856	36452.9125
1821.6242	36456.0125
1824.79776	36442.7125
1827.96924	36361.2125
1831.13864	36362.2125
1834.30597	36409.0125
1837.47122	36468.2125
1840.6344	36388.1125
1843.7955	36402.1125
1846.95454	36426.5125
1850.11151	36435.6125
1853.26642	36421.6125
1856.41926	36459.8125
1859.57004	36469.2125
1862.71876	36455.5125
1865.86542	36436.2125
1869.01003	36433.2125
1872.15258	36472.0125
1875.29308	36483.6125
1878.43152	36469.4125
1881.56792	36483.5125
1884.70227	36452.4125
1887.83457	36494.8125
1890.96482	36465.7125
1894.09304	36476.3125
1897.21921	36494.2125
1900.34335	36480.6125
1903.46544	36451.6125
1906.58551	36495.8125
1909.70353	36475.0125
1912.81953	36424.4125
1915.93349	36346.7125
1919.04543	36303.5125
1922.15534	36259.3125
1925.26322	36224.0125
1928.36908	36119.2125
1931.47292	36004.6125
1934.57473	35906.2125
1937.67453	35780.5125
1940.77232	35684.2125
1943.86808	35547.7125
1946.96184	35411.3125
1950.05358	35287.5125
1953.14331	35184.5125
1956.23103	35057.8125
1959.31675	34969.5125
1962.40046	34918.0125
1965.48217	34776.3125
1968.56188	34682.5125
1971.63959	34568.2125
1974.7153	34467.6125
1977.78901	34377.1125
1980.86073	34275.9125
1983.93046	34200.7125
1986.99819	34050.3125
1990.06394	34008.5125
1993.1277	33945.3125
1996.18947	33797.2125
1999.24925	33695.8125
2002.30706	33565.5125
2005.36288	33473.3125
2008.41672	33417.9125
2011.46859	33360.3125
2014.51848	33281.3125
2017.56639	33260.9125
2020.61233	33134.7125
2023.6563	33081.0125
2026.6983	33041.6125
2029.73833	32943.8125
2032.7764	32922.7125
2035.8125	32841.8125
2038.84664	32785.4125
2041.87881	32798.4125
2044.90903	32768.9125
2047.93729	32712.2125
2050.96359	32665.3125
2053.98794	32630.7125
2057.01034	32628.5125
2060.03078	32544.8125
2063.04927	32564.5125
2066.06582	32557.7125
2069.08042	32508.3125
2072.09307	32451.7125
2075.10378	32441.5125
2078.11255	32391.5125
2081.11938	32394.3125
2084.12426	32329.3125
2087.12722	32312.3125
2090.12824	32302.9125
2093.12732	32328.8125
2096.12447	32336.7125
2099.11969	32249.6125
2102.11299	32287.5125
2105.10435	32276.0125
2108.09379	32340.1125
2111.08131	32394.4125
2114.0669	32372.5125
2117.05057	32372.7125
2120.03233	32399.6125
2123.01216	32397.1125
2125.99008	32423.9125
2128.96609	32480.5125
2131.94018	32441.7125
2134.91236	32502.1125
2137.88263	32495.7125
2140.851	32531.2125
2143.81746	32576.4125
2146.78201	32620.7125
2149.74466	32571.5125
2152.7054	32627.4125
2155.66425	32565.2125
2158.6212	32630.9125
2161.57625	32599.0125
2164.52941	32610.4125
2167.48067	32583.5125
2170.43004	32592.2125
2173.37752	32599.6125
2176.32311	32598.3125
2179.26681	32559.7125
2182.20863	32565.4125
2185.14856	32649.9125
2188.08661	32628.8125
2191.02278	32599.6125
2193.95707	32607.5125
2196.88948	32591.9125
2199.82001	32603.8125
2202.74867	32618.9125
2205.67545	32618.9125
2208.60037	32582.2125
2211.52341	32623.8125
2214.44458	32594.4125
2217.36388	32549.4125
2220.28132	32569.7125
2223.1969	32531.4125
2226.11061	32501.3125
2229.02246	32411.0125
2231.93245	32315.6125
2234.84058	32203.0125
2237.74686	32166.0125
2240.65128	32137.9125
2243.55385	32067.7125
2246.45456	32027.1125
2249.35343	32013.3125
2252.25044	31922.4125
2255.14561	31876.6125
2258.03893	31907.4125
2260.93041	31894.6125
2263.82004	31802.3125
2266.70783	31755.3125
2269.59378	31618.7125
2272.4779	31567.4125
2275.36017	31475.5125
2278.24061	31372.4125
2281.11922	31325.4125
2283.996	31314.7125
2286.87094	31282.7125
2289.74405	31255.8125
2292.61534	31237.3125
2295.4848	31177.4125
2298.35243	31247.2125
2301.21824	31265.3125
2304.08223	31268.4125
2306.94439	31297.9125
2309.80474	31375.7125
2312.66327	31426.9125
2315.51999	31375.5125
2318.37489	31395.4125
2321.22797	31382.5125
2324.07925	31368.5125
2326.92871	31317.6125
2329.77637	31327.4125
2332.62222	31343.1125
2335.46626	31349.9125
2338.3085	31354.3125
2341.14893	31343.9125
2343.98756	31397.8125
2346.8244	31428.7125
2349.65943	31428.7125
2352.49267	31376.3125
2355.32411	31384.1125
2358.15376	31325.5125
2360.98161	31368.4125
2363.80768	31283.6125
2366.63195	31228.1125
2369.45444	31211.1125
2372.27514	31114.6125
2375.09405	31047.8125
2377.91118	30961.3125
2380.72652	30938.2125
2383.54009	30831.8125
2386.35187	30826.1125
2389.16188	30739.3125
2391.97011	30716.7125
2394.77657	30645.2125
2397.58125	30640.3125
2400.38416	30635.3125
2403.18529	30530.1125
2405.98466	30480.2125
2408.78226	30380.6125
2411.57809	30315.9125
2414.37216	30291.3125
2417.16446	30244.1125
2419.955	30187.5125
2422.74378	30173.3125
2425.5308	30092.5125
2428.31606	30113.8125
2431.09956	30086.5125
2433.88131	30022.1125
2436.6613	30056.1125
2439.43954	30002.6125
2442.21603	30035.2125
2444.99077	29965.5125
2447.76377	29988.4125
2450.53501	29983.4125
2453.30451	29974.2125
2456.07226	29978.6125
2458.83827	29968.2125
2461.60254	29954.2125
2464.36507	29930.7125
2467.12586	29931.6125
2469.88492	29949.0125
2472.64224	29951.8125
2475.39782	29956.0125
2478.15167	30020.7125
2480.90379	30020.3125
2483.65417	30070.7125
2486.40283	30105.2125
2489.14976	30094.7125
2491.89497	30091.6125
2494.63845	30140.5125
2497.3802	30160.1125
2500.12024	30215.8125
2502.85855	30157.7125
2505.59514	30174.9125
2508.33002	30165.6125
2511.06318	30097.7125
2513.79462	30074.5125
2516.52435	30030.2125
2519.25237	29995.9125
2521.97867	29973.4125
2524.70327	29933.2125
2527.42616	29885.5125
2530.14734	29908.4125
2532.86681	29853.1125
2535.58458	29854.2125
2538.30065	29806.7125
2541.01501	29846.6125
2543.72768	29859.0125
2546.43864	29841.2125
2549.14791	29737.9125
2551.85548	29757.7125
2554.56136	29737.9125
2557.26554	29670.9125
2559.96803	29679.7125
2562.66883	29628.9125
2565.36794	29614.6125
2568.06536	29613.1125
2570.7611	29628.8125
2573.45514	29585.8125
2576.14751	29606.5125
2578.83819	29592.8125
2581.52719	29628.6125
2584.21451	29593.6125
2586.90015	29558.7125
2589.58411	29608.2125
2592.2664	29595.3125
2594.94701	29564.7125
2597.62594	29556.9125
2600.30321	29529.1125
2602.9788	29515.1125
2605.65273	29496.1125
2608.32498	29455.9125
2610.99557	29446.4125
2613.66449	29469.7125
2616.33175	29494.9125
2618.99734	29495.4125
2621.66128	29506.4125
2624.32355	29563.9125
2626.98416	29565.9125
2629.64311	29542.5125
2632.30041	29573.4125
2634.95605	29529.5125
2637.61004	29485.6125
2640.26238	29481.1125
2642.91306	29415.2125
2645.56209	29389.0125
2648.20948	29367.5125
2650.85521	29311.4125
2653.4993	29317.5125
2656.14175	29268.9125
2658.78255	29300.5125
2661.42171	29334.8125
2664.05923	29376.2125
2666.6951	29396.5125
2669.32934	29427.8125
2671.96194	29393.4125
2674.59291	29453.2125
2677.22224	29374.7125
2679.84993	29413.3125
2682.476	29384.1125
2685.10043	29367.2125
2687.72324	29295.4125
2690.34441	29309.7125
2692.96396	29306.7125
2695.58188	29320.0125
2698.19818	29252.6125
2700.81285	29232.8125
2703.4259	29199.2125
2706.03733	29333.7125
2708.64714	29281.6125
2711.25533	29285.1125
2713.86191	29280.9125
2716.46687	29321.1125
2719.07021	29360.7125
2721.67194	29351.2125
2724.27206	29312.4125
2726.87057	29341.1125
2729.46747	29411.0125
2732.06276	29386.4125
2734.65644	29371.7125
2737.24852	29394.3125
2739.83899	29331.8125
2742.42786	29375.3125
2745.01513	29312.5125
2747.60079	29300.0125
2750.18486	29305.6125
2752.76733	29299.0125
2755.3482	29293.0125
2757.92747	29360.9125
2760.50515	29284.5125
2763.08123	29282.4125
2765.65573	29241.1125
2768.22863	29233.5125
2770.79994	29173.7125
2773.36967	29194.0125
2775.9378	29117.9125
2778.50435	29140.2125
2781.06932	29110.7125
2783.6327	29152.3125
2786.1945	29155.7125
2788.75471	29088.1125
2791.31335	29043.4125
2793.87041	29038.1125
2796.42589	28934.6125
2798.97979	28922.4125
2801.53212	28904.6125
2804.08288	28856.4125
2806.63206	28789.0125
2809.17967	28712.6125
2811.72571	28707.8125
2814.27018	28657.2125
2816.81308	28639.2125
2819.35442	28673.3125
2821.89419	28646.7125
2824.43239	28635.6125
2826.96904	28597.6125
2829.50412	28590.0125
2832.03763	28567.1125
2834.56959	28596.2125
2837.1	28511.8125
2839.62884	28464.4125
2842.15613	28404.2125
2844.68186	28450.1125
2847.20604	28416.3125
2849.72867	28420.1125
2852.24974	28388.3125
2854.76927	28310.3125
2857.28724	28318.7125
2859.80367	28259.7125
2862.31855	28248.3125
2864.83189	28216.1125
2867.34368	28227.7125
2869.85393	28178.6125
2872.36264	28187.4125
2874.8698	28224.0125
2877.37543	28236.1125
2879.87952	28240.7125
2882.38207	28207.8125
2884.88308	28216.0125
2887.38256	28267.3125
2889.88051	28259.3125
2892.37692	28230.4125
2894.8718	28235.3125
2897.36515	28249.4125
2899.85698	28246.8125
2902.34727	28375.4125
2904.83604	28377.3125
2907.32328	28399.7125
2909.809	28435.3125
2912.29319	28465.8125
2914.77587	28431.0125
2917.25702	28462.9125
2919.73665	28403.4125
2922.21476	28432.7125
2924.69136	28387.1125
2927.16644	28350.8125
2929.64	28313.0125
2932.11205	28193.7125
2934.58258	28143.0125
2937.05161	28175.6125
2939.51912	28235.3125
2941.98513	28230.3125
2944.44962	28124.9125
2946.91261	28050.5125
2949.37409	28115.5125
2951.83407	28111.2125
2954.29254	28069.7125
2956.74951	27992.1125
2959.20498	27989.0125
2961.65895	27959.5125
2964.11142	27963.9125
2966.56239	27885.7125
2969.01186	27837.9125
2971.45984	27754.7125
2973.90632	27709.2125
2976.35131	27624.5125
2978.7948	27603.8125
2981.23681	27531.2125
2983.67732	27505.7125
2986.11635	27468.0125
2988.55388	27362.5125
2990.98993	27309.7125
2993.4245	27256.4125
2995.85758	27232.3125
2998.28917	27131.8125
3000.71928	27118.1125
3003.14791	27059.5125
3005.57506	27075.0125
3008.00073	26988.6125
3010.42493	27001.8125
3012.84764	26940.0125
3015.26888	26935.9125
3017.68865	26838.7125
3020.10694	26835.2125
3022.52376	26763.6125
3024.9391	26727.2125
3027.35298	26725.7125
3029.76539	26664.3125
3032.17632	26640.5125
3034.5858	26580.9125
3036.9938	26558.4125
3039.40034	26523.9125
3041.80542	26457.2125
3044.20903	26417.2125
3046.61118	26452.9125
3049.01187	26331.9125
3051.4111	26320.6125
3053.80888	26217.6125
3056.20519	26186.2125
3058.60005	26146.4125
3060.99345	26063.5125
3063.3854	26040.8125
3065.7759	25933.3125
3068.16494	25863.7125
3070.55254	25801.4125
3072.93868	25786.8125
3075.32338	25685.4125
3077.70662	25665.8125
3080.08842	25579.6125
3082.46878	25550.9125
3084.84769	25525.4125
3087.22515	25486.5125
3089.60118	25465.2125
3091.97576	25478.1125
3094.3489	25414.6125
3096.72061	25435.6125
3099.09087	25420.2125
3101.4597	25365.2125
3103.82709	25337.6125
3106.19305	25305.6125
3108.55757	25227.1125
3110.92066	25160.4125
3113.28232	25129.4125
3115.64255	25080.5125
3118.00134	25044.7125
3120.35871	25072.1125
3122.71466	24959.8125
3125.06917	24967.9125
3127.42226	24906.8125
3129.77393	24954.5125
3132.12417	24863.3125
3134.47299	24882.1125
3136.82039	24850.0125
3139.16636	24856.9125
3141.51092	24852.5125
3143.85406	24852.5125
3146.19579	24816.4125
3148.53609	24827.0125
3150.87499	24841.4125
3153.21246	24797.3125
3155.54853	24811.4125
3157.88318	24814.1125
3160.21642	24792.7125
3162.54826	24773.4125
3164.87868	24732.0125
3167.2077	24662.0125
3169.5353	24706.0125
3171.86151	24704.5125
3174.18631	24606.5125
3176.5097	24612.6125
3178.83169	24529.0125
3181.15228	24565.3125
3183.47147	24506.6125
3185.78926	24564.5125
3188.10565	24518.8125
3190.42065	24482.9125
3192.73424	24477.4125
3195.04645	24523.6125
3197.35725	24476.0125
3199.66667	24509.4125
3201.97469	24547.8125
3204.28132	24450.1125
3206.58656	24489.8125
3208.8904	24452.2125
3211.19287	24510.1125
3213.49394	24477.7125
3215.79363	24460.3125
3218.09193	24485.5125
3220.38884	24477.9125
3222.68438	24527.3125
3224.97853	24492.9125
3227.2713	24422.1125
3229.56269	24387.7125
3231.8527	24349.2125
3234.14133	24360.3125
3236.42858	24290.3125
3238.71446	24227.2125
3240.99896	24244.2125
3243.28209	24198.9125
3245.56384	24161.1125
3247.84423	24177.5125
3250.12324	24140.4125
3252.40088	24135.5125
3254.67715	24091.7125
3256.95205	24064.1125
3259.22558	24062.0125
3261.49775	24023.2125
3263.76855	23975.8125
3266.03799	23928.9125
3268.30606	23940.2125
3270.57277	23907.5125
3272.83812	23819.5125
3275.10211	23772.6125
3277.36474	23817.8125
3279.62601	23857.3125
3281.88593	23779.5125
3284.14448	23800.1125
3286.40168	23795.5125
3288.65753	23750.6125
3290.91202	23724.2125
3293.16516	23631.0125
3295.41695	23601.5125
3297.66738	23473.7125
3299.91647	23382.8125
3302.16421	23224.3125
3304.4106	23150.3125
3306.65564	23076.9125
3308.89933	22917.6125
3311.14169	22779.6125
3313.38269	22551.3125
3315.62236	22422.6125
3317.86068	22282.8125
3320.09766	22014.6125
3322.3333	21852.9125
3324.5676	21873.7125
3326.80056	21546.8125
3329.03219	21409.0125
3331.26248	5.8125
3333.49143	-0.9875
3335.71905	-0.1875
