Data from AgNP_FTO_APTES_CRN_5uM_R6G_10uM_NaF_0.1M_Addition_RamanShift__22__15-51-37-924.txt Node

Date: Wed Dec 15 15:51:37 GMT 2021
User: TCL
Spectrometer: QEP01345
Trigger mode: 4
Integration Time (sec): 7.000000E0
Scans to average: 10
Electric dark correction enabled: true
Nonlinearity correction enabled: false
Boxcar width: 0
XAxis mode: Raman Shifts
Number of Pixels in Spectrum: 1044
>>>>>Begin Spectral Data<<<<<
46.04893	-0.0625
50.45542	-1.6625
54.85868	-0.4625
59.25871	-0.4625
63.6555	111.8375
68.04907	115.7375
72.43941	122.0375
76.82654	128.7375
81.21044	134.0375
85.59113	139.8375
89.96862	142.8375
94.34289	142.3375
98.71396	153.4375
103.08183	159.3375
107.4465	167.3375
111.80798	161.3375
116.16626	171.2375
120.52136	174.9375
124.87327	177.4375
129.222	190.8375
133.56755	201.4375
137.90993	220.7375
142.24913	241.7375
146.58517	263.1375
150.91804	303.7375
155.24774	361.7375
159.57429	444.3375
163.89768	570.2375
168.21792	748.3375
172.53501	1014.7375
176.84895	1413.6375
181.15975	1986.2375
185.46741	2757.8375
189.77193	3812.1375
194.07331	5096.6375
198.37157	6550.7375
202.6667	8089.7375
206.9587	9595.3375
211.24758	11092.4375
215.53334	12561.7375
219.81599	14137.2375
224.09553	15891.7375
228.37195	17859.2375
232.64527	19983.6375
236.91549	22323.9375
241.18261	24589.9375
245.44663	26634.8375
249.70755	28503.4375
253.96539	30127.8375
258.22014	31500.7375
262.4718	32663.9375
266.72039	33536.7375
270.96589	33999.2375
275.20832	34135.0375
279.44768	33947.6375
283.68397	33679.9375
287.91719	33414.2375
292.14735	33233.8375
296.37445	33222.3375
300.59849	33402.2375
304.81948	33567.5375
309.03742	33566.4375
313.25231	33296.4375
317.46415	32584.3375
321.67296	31637.2375
325.87872	30891.7375
330.08145	30540.1375
334.28114	30601.1375
338.47781	30904.8375
342.67145	31369.7375
346.86207	31928.6375
351.04966	32703.9375
355.23424	33506.4375
359.4158	34217.8375
363.59435	34677.7375
367.76989	34977.5375
371.94243	35157.0375
376.11196	35224.6375
380.27849	35285.0375
384.44203	35401.0375
388.60257	35602.1375
392.76012	35881.9375
396.91468	36322.2375
401.06626	36945.4375
405.21485	37411.5375
409.36047	37255.8375
413.50311	36728.0375
417.64277	36180.7375
421.77947	35991.9375
425.9132	36136.8375
430.04396	36387.8375
434.17176	36616.6375
438.2966	37001.7375
442.41849	37601.6375
446.53742	38522.8375
450.6534	39625.9375
454.76644	40532.6375
458.87653	40917.5375
462.98368	40740.2375
467.08789	40222.4375
471.18916	39513.3375
475.2875	38753.3375
479.38291	38285.9375
483.4754	37868.5375
487.56496	37414.2375
491.6516	36961.7375
495.73531	36682.8375
499.81612	36610.0375
503.89401	36867.6375
507.96899	37099.0375
512.04106	37146.7375
516.11023	37125.4375
520.1765	37058.1375
524.23987	36896.3375
528.30034	36658.5375
532.35792	36258.1375
536.41261	35728.1375
540.46441	35190.9375
544.51333	35109.5375
548.55936	35507.0375
552.60252	36204.5375
556.64279	36833.2375
560.6802	37227.4375
564.71473	37396.3375
568.7464	37856.6375
572.7752	38538.7375
576.80114	39119.4375
580.82422	39708.6375
584.84444	40220.4375
588.86181	40761.5375
592.87633	41445.2375
596.888	42177.0375
600.89682	42869.8375
604.9028	44642.2375
608.90594	48826.0375
612.90624	52517.0375
616.90371	49132.1375
620.89834	41355.9375
624.89015	38160.9375
628.87913	37923.4375
632.86528	37846.7375
636.84862	37459.6375
640.82913	36696.1375
644.80683	35663.9375
648.78172	34906.4375
652.75379	34899.8375
656.72306	35373.2375
660.68952	35980.5375
664.65319	35834.0375
668.61405	35166.9375
672.57211	35023.0375
676.52738	35008.1375
680.47986	34892.6375
684.42955	34780.5375
688.37646	34738.6375
692.32058	34935.1375
696.26192	35288.9375
700.20048	35703.3375
704.13626	35966.6375
708.06928	35833.5375
711.99952	35554.0375
715.927	35514.6375
719.85171	35572.7375
723.77365	35415.3375
727.69284	35025.7375
731.60928	34643.2375
735.52295	34574.6375
739.43388	34590.0375
743.34206	34740.8375
747.24749	34983.9375
751.15017	35346.0375
755.05012	35938.4375
758.94733	36999.3375
762.8418	38972.4375
766.73354	42062.0375
770.62254	44863.0375
774.50882	45483.9375
778.39237	43273.9375
782.27321	39937.5375
786.15132	37295.0375
790.02671	35832.5375
793.89938	35150.9375
797.76935	34975.4375
801.6366	34911.5375
805.50115	34818.5375
809.36299	34559.0375
813.22213	34302.4375
817.07857	34194.9375
820.93231	34087.6375
824.78336	34013.9375
828.63172	34012.7375
832.47738	34118.0375
836.32036	34277.6375
840.16066	34519.5375
843.99827	34675.0375
847.8332	34560.6375
851.66546	34286.8375
855.49504	34216.6375
859.32195	34178.9375
863.1462	34025.0375
866.96777	33867.3375
870.78668	33670.2375
874.60293	33693.5375
878.41652	33722.6375
882.22745	33817.6375
886.03573	33932.9375
889.84136	33866.7375
893.64433	33733.4375
897.44466	33601.4375
901.24235	33526.1375
905.0374	33530.8375
908.8298	33407.9375
912.61957	33574.0375
916.40671	33914.1375
920.19121	34413.4375
923.97308	34936.1375
927.75233	35200.2375
931.52895	35059.3375
935.30295	34641.1375
939.07433	33937.8375
942.84309	33531.7375
946.60924	33351.2375
950.37278	33291.1375
954.13371	33077.7375
957.89203	32794.0375
961.64774	32717.4375
965.40086	32574.9375
969.15137	32454.9375
972.89929	32384.6375
976.64461	32370.6375
980.38733	32483.9375
984.12747	32686.9375
987.86502	33008.6375
991.59999	33578.2375
995.33237	34425.0375
999.06217	35774.4375
1002.78939	37243.4375
1006.51404	38033.4375
1010.23611	38448.9375
1013.95561	38770.2375
1017.67255	38645.3375
1021.38692	38124.0375
1025.09872	37913.6375
1028.80796	38656.9375
1032.51465	40358.3375
1036.21877	41777.6375
1039.92035	41946.4375
1043.61937	41097.8375
1047.31584	39672.5375
1051.00976	38231.7375
1054.70114	37413.5375
1058.38998	37252.6375
1062.07627	37552.6375
1065.76003	37957.3375
1069.44126	38533.9375
1073.11995	39446.4375
1076.79611	40189.0375
1080.46974	40607.3375
1084.14085	40608.1375
1087.80943	40490.9375
1091.47549	40111.6375
1095.13903	39601.7375
1098.80005	38744.1375
1102.45857	37938.8375
1106.11456	37499.1375
1109.76805	37381.7375
1113.41903	37609.9375
1117.06751	37948.4375
1120.71348	38244.8375
1124.35696	38665.4375
1127.99793	39035.3375
1131.63641	39228.2375
1135.2724	38996.4375
1138.90589	38716.0375
1142.5369	38497.5375
1146.16542	38337.6375
1149.79145	38327.6375
1153.415	38613.0375
1157.03607	39155.5375
1160.65467	40043.2375
1164.27079	41590.7375
1167.88443	43698.1375
1171.49561	46503.2375
1175.10432	50346.6375
1178.71056	55044.6375
1182.31434	59435.9375
1185.91565	61733.6375
1189.51451	61476.2375
1193.11091	59151.0375
1196.70485	55963.6375
1200.29634	53075.4375
1203.88538	50999.2375
1207.47197	49526.4375
1211.05612	48408.8375
1214.63782	47659.6375
1218.21708	47339.1375
1221.79391	47370.1375
1225.36829	47455.9375
1228.94024	47112.9375
1232.50976	46398.2375
1236.07685	45643.7375
1239.6415	45322.1375
1243.20374	45246.1375
1246.76355	45461.9375
1250.32093	46209.9375
1253.8759	47322.0375
1257.42845	48805.2375
1260.97859	50139.2375
1264.52631	51388.4375
1268.07163	52748.9375
1271.61453	54361.4375
1275.15503	56236.2375
1278.69312	58185.5375
1282.22882	59632.7375
1285.76211	60739.0375
1289.29301	61810.0375
1292.82151	63215.7375
1296.34761	65424.2375
1299.87133	68557.7375
1303.39266	72936.7375
1306.9116	78172.9375
1310.42815	83288.4375
1313.94233	86523.3375
1317.45412	86634.2375
1320.96354	84522.7375
1324.47058	81953.1375
1327.97525	79633.3375
1331.47754	78032.1375
1334.97747	77385.8375
1338.47502	77432.9375
1341.97022	77622.0375
1345.46305	77171.9375
1348.95352	76276.0375
1352.44163	75872.8375
1355.92738	77150.3375
1359.41078	80932.8375
1362.89183	84532.5375
1366.37053	83077.7375
1369.84688	76100.4375
1373.32088	68157.2375
1376.79254	62686.3375
1380.26186	60110.7375
1383.72883	59357.7375
1387.19347	58847.9375
1390.65578	58016.6375
1394.11575	57559.7375
1397.57339	57886.1375
1401.0287	59015.5375
1404.48168	60243.1375
1407.93234	60951.0375
1411.38068	61006.4375
1414.82669	60031.6375
1418.27039	58045.8375
1421.71177	55845.7375
1425.15083	53847.6375
1428.58758	52738.5375
1432.02203	52758.6375
1435.45416	53577.9375
1438.88399	54735.6375
1442.31151	55840.9375
1445.73673	56658.3375
1449.15965	57434.7375
1452.58027	57773.1375
1455.9986	57903.8375
1459.41463	58157.5375
1462.82837	59017.4375
1466.23982	60367.8375
1469.64898	61590.4375
1473.05586	62418.2375
1476.46045	62734.0375
1479.86276	62642.9375
1483.26279	62289.5375
1486.66054	62004.5375
1490.05602	62084.7375
1493.44922	62375.8375
1496.84016	62699.8375
1500.22882	63482.3375
1503.61521	65012.7375
1506.99934	67278.5375
1510.38121	69382.5375
1513.76081	70294.0375
1517.13816	69026.2375
1520.51324	66279.7375
1523.88607	63482.6375
1527.25665	61739.7375
1530.62498	60746.8375
1533.99105	60308.1375
1537.35488	59874.2375
1540.71647	59511.0375
1544.07581	58936.0375
1547.4329	58111.1375
1550.78776	57234.9375
1554.14038	56611.7375
1557.49077	56212.1375
1560.83892	56014.8375
1564.18484	55961.2375
1567.52853	56069.4375
1570.86999	56633.0375
1574.20922	57717.3375
1577.54624	59010.2375
1580.88103	59784.4375
1584.2136	60247.2375
1587.54395	61255.5375
1590.87208	63180.6375
1594.19801	66413.1375
1597.52172	70137.0375
1600.84321	71431.9375
1604.16251	68699.5375
1607.47959	63532.3375
1610.79447	58092.3375
1614.10715	53134.9375
1617.41763	49170.9375
1620.7259	46471.9375
1624.03199	45115.9375
1627.33587	45141.9375
1630.63757	46495.2375
1633.93707	49135.5375
1637.23439	53335.4375
1640.52951	58696.1375
1643.82246	64238.1375
1647.11321	68276.1375
1650.40179	68598.7375
1653.68819	64189.8375
1656.97241	56671.5375
1660.25446	49234.1375
1663.53433	43757.6375
1666.81203	40143.2375
1670.08756	37809.7375
1673.36092	36401.2375
1676.63211	35417.4375
1679.90115	34742.3375
1683.16801	34204.2375
1686.43272	33852.8375
1689.69527	33555.2375
1692.95567	33336.2375
1696.2139	33232.5375
1699.46999	33168.0375
1702.72392	33084.6375
1705.97571	32967.7375
1709.22535	32910.9375
1712.47284	32831.2375
1715.71819	32792.5375
1718.96139	32686.9375
1722.20246	32608.5375
1725.44139	32508.9375
1728.67818	32317.4375
1731.91284	32173.0375
1735.14537	31964.0375
1738.37576	31825.9375
1741.60403	31791.4375
1744.83017	31645.4375
1748.05418	31594.6375
1751.27607	31521.6375
1754.49584	31435.5375
1757.71349	31475.9375
1760.92903	31438.5375
1764.14244	31411.1375
1767.35375	31447.8375
1770.56294	31367.5375
1773.77002	31329.1375
1776.97499	31344.5375
1780.17785	31297.2375
1783.37861	31251.2375
1786.57727	31176.6375
1789.77382	31109.9375
1792.96828	31073.7375
1796.16064	31035.9375
1799.3509	31044.9375
1802.53907	30999.0375
1805.72514	30908.2375
1808.90913	30835.6375
1812.09102	30778.8375
1815.27083	30737.4375
1818.44856	30677.3375
1821.6242	30662.4375
1824.79776	30652.8375
1827.96924	30571.9375
1831.13864	30576.1375
1834.30597	30625.0375
1837.47122	30622.5375
1840.6344	30605.4375
1843.7955	30633.8375
1846.95454	30607.9375
1850.11151	30634.6375
1853.26642	30667.9375
1856.41926	30672.1375
1859.57004	30677.1375
1862.71876	30629.4375
1865.86542	30608.3375
1869.01003	30619.5375
1872.15258	30669.5375
1875.29308	30701.8375
1878.43152	30639.1375
1881.56792	30649.8375
1884.70227	30633.2375
1887.83457	30642.0375
1890.96482	30648.3375
1894.09304	30632.1375
1897.21921	30669.3375
1900.34335	30610.7375
1903.46544	30576.9375
1906.58551	30596.1375
1909.70353	30586.6375
1912.81953	30561.8375
1915.93349	30542.6375
1919.04543	30428.4375
1922.15534	30456.1375
1925.26322	30343.0375
1928.36908	30270.8375
1931.47292	30216.3375
1934.57473	30148.4375
1937.67453	30058.5375
1940.77232	29964.2375
1943.86808	29880.0375
1946.96184	29787.8375
1950.05358	29653.1375
1953.14331	29627.6375
1956.23103	29556.0375
1959.31675	29451.0375
1962.40046	29352.8375
1965.48217	29263.2375
1968.56188	29141.4375
1971.63959	29113.3375
1974.7153	29014.0375
1977.78901	28917.1375
1980.86073	28851.2375
1983.93046	28728.7375
1986.99819	28740.1375
1990.06394	28653.0375
1993.1277	28547.9375
1996.18947	28441.8375
1999.24925	28354.9375
2002.30706	28287.6375
2005.36288	28218.2375
2008.41672	28174.2375
2011.46859	28107.2375
2014.51848	28052.3375
2017.56639	28011.6375
2020.61233	27951.9375
2023.6563	27940.8375
2026.6983	27863.7375
2029.73833	27803.5375
2032.7764	27799.8375
2035.8125	27736.6375
2038.84664	27719.4375
2041.87881	27713.2375
2044.90903	27668.1375
2047.93729	27591.3375
2050.96359	27548.3375
2053.98794	27587.7375
2057.01034	27575.4375
2060.03078	27533.4375
2063.04927	27530.8375
2066.06582	27532.8375
2069.08042	27481.2375
2072.09307	27443.7375
2075.10378	27450.4375
2078.11255	27364.5375
2081.11938	27364.4375
2084.12426	27348.2375
2087.12722	27345.5375
2090.12824	27327.4375
2093.12732	27342.9375
2096.12447	27370.6375
2099.11969	27296.1375
2102.11299	27320.3375
2105.10435	27393.6375
2108.09379	27382.9375
2111.08131	27448.2375
2114.0669	27446.1375
2117.05057	27401.3375
2120.03233	27458.3375
2123.01216	27481.2375
2125.99008	27490.8375
2128.96609	27516.4375
2131.94018	27516.3375
2134.91236	27563.2375
2137.88263	27585.2375
2140.851	27615.1375
2143.81746	27640.5375
2146.78201	27649.8375
2149.74466	27647.7375
2152.7054	27653.9375
2155.66425	27670.3375
2158.6212	27705.0375
2161.57625	27696.3375
2164.52941	27675.7375
2167.48067	27679.8375
2170.43004	27672.5375
2173.37752	27675.2375
2176.32311	27673.8375
2179.26681	27684.1375
2182.20863	27656.7375
2185.14856	27680.9375
2188.08661	27675.9375
2191.02278	27699.6375
2193.95707	27671.8375
2196.88948	27701.5375
2199.82001	27703.2375
2202.74867	27722.9375
2205.67545	27714.2375
2208.60037	27718.8375
2211.52341	27695.1375
2214.44458	27679.4375
2217.36388	27666.3375
2220.28132	27670.2375
2223.1969	27626.9375
2226.11061	27654.5375
2229.02246	27531.5375
2231.93245	27449.9375
2234.84058	27408.3375
2237.74686	27367.3375
2240.65128	27330.7375
2243.55385	27222.5375
2246.45456	27206.5375
2249.35343	27231.9375
2252.25044	27187.4375
2255.14561	27124.5375
2258.03893	27116.7375
2260.93041	27111.2375
2263.82004	27046.6375
2266.70783	26972.9375
2269.59378	26912.2375
2272.4779	26865.9375
2275.36017	26772.6375
2278.24061	26727.3375
2281.11922	26661.4375
2283.996	26685.6375
2286.87094	26643.1375
2289.74405	26626.6375
2292.61534	26663.4375
2295.4848	26624.4375
2298.35243	26638.4375
2301.21824	26592.8375
2304.08223	26654.7375
2306.94439	26670.7375
2309.80474	26731.8375
2312.66327	26774.4375
2315.51999	26729.4375
2318.37489	26731.8375
2321.22797	26752.0375
2324.07925	26737.3375
2326.92871	26700.9375
2329.77637	26712.0375
2332.62222	26704.4375
2335.46626	26743.3375
2338.3085	26695.2375
2341.14893	26729.8375
2343.98756	26800.0375
2346.8244	26791.2375
2349.65943	26805.9375
2352.49267	26814.0375
2355.32411	26762.6375
2358.15376	26742.6375
2360.98161	26707.6375
2363.80768	26718.2375
2366.63195	26669.8375
2369.45444	26638.4375
2372.27514	26545.6375
2375.09405	26452.4375
2377.91118	26465.7375
2380.72652	26402.7375
2383.54009	26375.2375
2386.35187	26346.7375
2389.16188	26256.6375
2391.97011	26230.8375
2394.77657	26234.1375
2397.58125	26223.4375
2400.38416	26161.4375
2403.18529	26120.9375
2405.98466	26072.8375
2408.78226	26006.8375
2411.57809	25916.2375
2414.37216	25905.4375
2417.16446	25857.0375
2419.955	25836.6375
2422.74378	25824.1375
2425.5308	25769.2375
2428.31606	25776.7375
2431.09956	25777.8375
2433.88131	25705.0375
2436.6613	25787.1375
2439.43954	25712.7375
2442.21603	25748.7375
2444.99077	25684.4375
2447.76377	25754.2375
2450.53501	25695.6375
2453.30451	25732.7375
2456.07226	25691.2375
2458.83827	25657.2375
2461.60254	25690.7375
2464.36507	25690.7375
2467.12586	25734.5375
2469.88492	25675.5375
2472.64224	25708.0375
2475.39782	25735.3375
2478.15167	25777.5375
2480.90379	25788.5375
2483.65417	25825.1375
2486.40283	25814.7375
2489.14976	25856.1375
2491.89497	25858.5375
2494.63845	25899.4375
2497.3802	25886.7375
2500.12024	25895.4375
2502.85855	25950.3375
2505.59514	25930.4375
2508.33002	25892.0375
2511.06318	25867.6375
2513.79462	25822.3375
2516.52435	25823.8375
2519.25237	25792.6375
2521.97867	25746.9375
2524.70327	25724.0375
2527.42616	25724.7375
2530.14734	25740.6375
2532.86681	25666.8375
2535.58458	25707.5375
2538.30065	25668.8375
2541.01501	25711.8375
2543.72768	25707.8375
2546.43864	25685.2375
2549.14791	25605.7375
2551.85548	25641.3375
2554.56136	25603.6375
2557.26554	25563.2375
2559.96803	25556.0375
2562.66883	25560.8375
2565.36794	25582.2375
2568.06536	25593.3375
2570.7611	25558.3375
2573.45514	25517.4375
2576.14751	25487.0375
2578.83819	25514.5375
2581.52719	25505.4375
2584.21451	25461.6375
2586.90015	25514.8375
2589.58411	25532.4375
2592.2664	25470.1375
2594.94701	25528.4375
2597.62594	25501.5375
2600.30321	25467.8375
2602.9788	25457.5375
2605.65273	25452.6375
2608.32498	25459.7375
2610.99557	25459.4375
2613.66449	25442.5375
2616.33175	25492.8375
2618.99734	25450.4375
2621.66128	25500.7375
2624.32355	25520.3375
2626.98416	25526.1375
2629.64311	25538.0375
2632.30041	25508.4375
2634.95605	25527.1375
2637.61004	25485.8375
2640.26238	25463.6375
2642.91306	25456.9375
2645.56209	25405.3375
2648.20948	25378.0375
2650.85521	25316.2375
2653.4993	25340.6375
2656.14175	25306.9375
2658.78255	25348.9375
2661.42171	25338.6375
2664.05923	25371.8375
2666.6951	25414.1375
2669.32934	25425.9375
2671.96194	25399.5375
2674.59291	25423.0375
2677.22224	25438.2375
2679.84993	25420.6375
2682.476	25377.9375
2685.10043	25382.1375
2687.72324	25349.9375
2690.34441	25328.7375
2692.96396	25318.1375
2695.58188	25317.7375
2698.19818	25269.5375
2700.81285	25279.3375
2703.4259	25250.4375
2706.03733	25376.9375
2708.64714	25335.5375
2711.25533	25378.9375
2713.86191	25366.2375
2716.46687	25415.3375
2719.07021	25375.9375
2721.67194	25407.5375
2724.27206	25353.0375
2726.87057	25371.5375
2729.46747	25402.5375
2732.06276	25434.3375
2734.65644	25445.4375
2737.24852	25477.3375
2739.83899	25411.8375
2742.42786	25435.3375
2745.01513	25372.4375
2747.60079	25384.2375
2750.18486	25364.1375
2752.76733	25402.9375
2755.3482	25401.5375
2757.92747	25419.4375
2760.50515	25375.6375
2763.08123	25348.2375
2765.65573	25321.6375
2768.22863	25306.9375
2770.79994	25281.8375
2773.36967	25281.4375
2775.9378	25297.8375
2778.50435	25293.1375
2781.06932	25263.2375
2783.6327	25308.9375
2786.1945	25288.0375
2788.75471	25265.2375
2791.31335	25165.6375
2793.87041	25148.4375
2796.42589	25091.4375
2798.97979	25083.9375
2801.53212	25092.9375
2804.08288	25049.9375
2806.63206	24976.1375
2809.17967	24929.7375
2811.72571	24926.5375
2814.27018	24916.5375
2816.81308	24901.1375
2819.35442	24860.3375
2821.89419	24828.7375
2824.43239	24836.9375
2826.96904	24813.3375
2829.50412	24774.7375
2832.03763	24750.3375
2834.56959	24722.2375
2837.1	24696.2375
2839.62884	24702.1375
2842.15613	24675.2375
2844.68186	24664.6375
2847.20604	24625.8375
2849.72867	24629.2375
2852.24974	24553.1375
2854.76927	24566.3375
2857.28724	24542.5375
2859.80367	24519.0375
2862.31855	24486.1375
2864.83189	24500.7375
2867.34368	24419.8375
2869.85393	24491.4375
2872.36264	24472.8375
2874.8698	24493.7375
2877.37543	24532.6375
2879.87952	24503.5375
2882.38207	24532.9375
2884.88308	24479.1375
2887.38256	24524.9375
2889.88051	24502.2375
2892.37692	24497.0375
2894.8718	24524.6375
2897.36515	24544.4375
2899.85698	24550.6375
2902.34727	24629.0375
2904.83604	24668.9375
2907.32328	24734.5375
2909.809	24697.1375
2912.29319	24796.3375
2914.77587	24749.6375
2917.25702	24767.5375
2919.73665	24764.6375
2922.21476	24759.8375
2924.69136	24702.9375
2927.16644	24686.4375
2929.64	24655.8375
2932.11205	24575.1375
2934.58258	24493.2375
2937.05161	24554.3375
2939.51912	24617.4375
2941.98513	24588.2375
2944.44962	24492.3375
2946.91261	24423.0375
2949.37409	24470.6375
2951.83407	24477.2375
2954.29254	24480.9375
2956.74951	24403.1375
2959.20498	24381.8375
2961.65895	24371.4375
2964.11142	24405.6375
2966.56239	24308.7375
2969.01186	24306.2375
2971.45984	24219.3375
2973.90632	24214.1375
2976.35131	24159.2375
2978.7948	24138.1375
2981.23681	24069.3375
2983.67732	24001.9375
2986.11635	23967.1375
2988.55388	23906.6375
2990.98993	23868.0375
2993.4245	23843.4375
2995.85758	23788.1375
2998.28917	23747.0375
3000.71928	23696.2375
3003.14791	23653.6375
3005.57506	23645.4375
3008.00073	23611.2375
3010.42493	23605.8375
3012.84764	23549.2375
3015.26888	23549.7375
3017.68865	23500.5375
3020.10694	23493.8375
3022.52376	23412.5375
3024.9391	23342.4375
3027.35298	23345.1375
3029.76539	23331.8375
3032.17632	23343.2375
3034.5858	23287.1375
3036.9938	23269.0375
3039.40034	23229.2375
3041.80542	23215.5375
3044.20903	23163.6375
3046.61118	23159.4375
3049.01187	23093.2375
3051.4111	23104.8375
3053.80888	23017.8375
3056.20519	23032.0375
3058.60005	22927.4375
3060.99345	22934.7375
3063.3854	22869.0375
3065.7759	22805.7375
3068.16494	22773.7375
3070.55254	22707.5375
3072.93868	22725.3375
3075.32338	22615.5375
3077.70662	22580.3375
3080.08842	22525.1375
3082.46878	22520.7375
3084.84769	22505.4375
3087.22515	22473.1375
3089.60118	22477.3375
3091.97576	22484.4375
3094.3489	22424.5375
3096.72061	22432.0375
3099.09087	22434.6375
3101.4597	22392.2375
3103.82709	22403.3375
3106.19305	22352.9375
3108.55757	22317.2375
3110.92066	22258.3375
3113.28232	22228.3375
3115.64255	22189.8375
3118.00134	22126.4375
3120.35871	22141.7375
3122.71466	22161.0375
3125.06917	22098.4375
3127.42226	22098.0375
3129.77393	22058.3375
3132.12417	22028.1375
3134.47299	22036.8375
3136.82039	22023.5375
3139.16636	22018.2375
3141.51092	21999.9375
3143.85406	22017.2375
3146.19579	22014.8375
3148.53609	21998.6375
3150.87499	22026.9375
3153.21246	22014.5375
3155.54853	22086.9375
3157.88318	22035.2375
3160.21642	22003.1375
3162.54826	22018.1375
3164.87868	21971.2375
3167.2077	21940.7375
3169.5353	21952.8375
3171.86151	21911.7375
3174.18631	21895.7375
3176.5097	21824.4375
3178.83169	21847.7375
3181.15228	21881.5375
3183.47147	21825.1375
3185.78926	21846.7375
3188.10565	21831.8375
3190.42065	21821.5375
3192.73424	21801.5375
3195.04645	21823.7375
3197.35725	21856.8375
3199.66667	21836.2375
3201.97469	21851.3375
3204.28132	21816.4375
3206.58656	21825.4375
3208.8904	21825.1375
3211.19287	21797.7375
3213.49394	21799.2375
3215.79363	21801.7375
3218.09193	21860.8375
3220.38884	21850.9375
3222.68438	21879.5375
3224.97853	21830.8375
3227.2713	21834.5375
3229.56269	21794.4375
3231.8527	21777.2375
3234.14133	21763.3375
3236.42858	21704.4375
3238.71446	21701.6375
3240.99896	21652.6375
3243.28209	21638.4375
3245.56384	21626.1375
3247.84423	21626.2375
3250.12324	21595.6375
3252.40088	21588.8375
3254.67715	21556.6375
3256.95205	21555.9375
3259.22558	21537.3375
3261.49775	21478.6375
3263.76855	21474.3375
3266.03799	21447.9375
3268.30606	21419.1375
3270.57277	21385.7375
3272.83812	21373.7375
3275.10211	21327.6375
3277.36474	21331.2375
3279.62601	21364.9375
3281.88593	21332.2375
3284.14448	21297.1375
3286.40168	21294.5375
3288.65753	21276.7375
3290.91202	21291.5375
3293.16516	21221.3375
3295.41695	21158.9375
3297.66738	21093.7375
3299.91647	20953.4375
3302.16421	20808.6375
3304.4106	20798.9375
3306.65564	20683.5375
3308.89933	20560.9375
3311.14169	20420.8375
3313.38269	20261.4375
3315.62236	20160.2375
3317.86068	19990.7375
3320.09766	19815.0375
3322.3333	19606.8375
3324.5676	19667.9375
3326.80056	19352.3375
3329.03219	19269.6375
3331.26248	5.6375
3333.49143	-1.2625
3335.71905	-0.4625
