Data from AgNP_FTO_APTES_CRN_500uM_R6G_10uM_NaF_0.1M_Addition_RamanShift__17__20-23-28-232.txt Node

Date: Wed Dec 15 20:23:28 GMT 2021
User: TCL
Spectrometer: QEP01345
Trigger mode: 4
Integration Time (sec): 7.000000E0
Scans to average: 10
Electric dark correction enabled: true
Nonlinearity correction enabled: false
Boxcar width: 0
XAxis mode: Raman Shifts
Number of Pixels in Spectrum: 1044
>>>>>Begin Spectral Data<<<<<
46.04893	1.3
50.45542	-0.8
54.85868	-1.3
59.25871	-0.6
63.6555	56.4
68.04907	65.5
72.43941	64
76.82654	65.7
81.21044	70.5
85.59113	76.1
89.96862	76.4
94.34289	76.9
98.71396	84.2
103.08183	85.8
107.4465	88.6
111.80798	87.7
116.16626	91.4
120.52136	94.4
124.87327	95.1
129.222	102.1
133.56755	99.5
137.90993	110.5
142.24913	119.3
146.58517	130.7
150.91804	150.9
155.24774	173.8
159.57429	216.2
163.89768	266.4
168.21792	349.3
172.53501	473.5
176.84895	654.8
181.15975	912.1
185.46741	1281.8
189.77193	1781.6
194.07331	2383.2
198.37157	3080.7
202.6667	3824.4
206.9587	4559.1
211.24758	5285.8
215.53334	5997.3
219.81599	6749.5
224.09553	7559.6
228.37195	8425.6
232.64527	9450.9
236.91549	10470.8
241.18261	11564.6
245.44663	12588.5
249.70755	13511.5
253.96539	14302.8
258.22014	15007.4
262.4718	15529.6
266.72039	15898.7
270.96589	16066.1
275.20832	16092.4
279.44768	16017.8
283.68397	15853.7
287.91719	15722
292.14735	15613.6
296.37445	15559.1
300.59849	15548.3
304.81948	15547.4
309.03742	15520
313.25231	15423.9
317.46415	15209.2
321.67296	14913.4
325.87872	14651.7
330.08145	14552.3
334.28114	14642.6
338.47781	14781.2
342.67145	14967.1
346.86207	15160.5
351.04966	15429.9
355.23424	15730.2
359.4158	15938.1
363.59435	16116.3
367.76989	16238.6
371.94243	16321.9
376.11196	16442.9
380.27849	16502.5
384.44203	16597.5
388.60257	16747.9
392.76012	16851.8
396.91468	16986.3
401.06626	17191.2
405.21485	17360.9
409.36047	17405.2
413.50311	17268.8
417.64277	17140.7
421.77947	17077.9
425.9132	17092.5
430.04396	17217.8
434.17176	17337
438.2966	17491.6
442.41849	17705.3
446.53742	17981.7
450.6534	18244.4
454.76644	18440.4
458.87653	18592.2
462.98368	18612.7
467.08789	18586.5
471.18916	18532.9
475.2875	18491.2
479.38291	18427.7
483.4754	18371.1
487.56496	18288.7
491.6516	18174.3
495.73531	18122.7
499.81612	18065.6
503.89401	18172.4
507.96899	18271
512.04106	18334.2
516.11023	18395.1
520.1765	18415
524.23987	18412.5
528.30034	18372.6
532.35792	18289.6
536.41261	18219.9
540.46441	18175.2
544.51333	18172
548.55936	18298.1
552.60252	18476.8
556.64279	18740
560.6802	18906
564.71473	18999.7
568.7464	19100
572.7752	19351.6
576.80114	19391
580.82422	19458.6
584.84444	19534.8
588.86181	19588
592.87633	19626.4
596.888	19676.4
600.89682	19768.2
604.9028	20184.4
608.90594	21308.6
612.90624	22645.8
616.90371	22006.4
620.89834	19837.7
624.89015	18849.1
628.87913	18687.5
632.86528	18776.9
636.84862	18874
640.82913	18831
644.80683	18624.3
648.78172	18479.3
652.75379	18484
656.72306	18614.8
660.68952	18821.1
664.65319	18825.2
668.61405	18653.8
672.57211	18659.4
676.52738	18717.5
680.47986	18786.2
684.42955	18780
688.37646	18772.2
692.32058	18800.1
696.26192	18835.8
700.20048	18968.4
704.13626	18996.5
708.06928	19016.8
711.99952	18999.5
715.927	18985.2
719.85171	18949.7
723.77365	18886.4
727.69284	18799
731.60928	18661.8
735.52295	18644.5
739.43388	18639.2
743.34206	18661.9
747.24749	18686.8
751.15017	18738.1
755.05012	18871.6
758.94733	19100.5
762.8418	19633.5
766.73354	20491.1
770.62254	21330.5
774.50882	21638.5
778.39237	21125.1
782.27321	20222
786.15132	19441.3
790.02671	18929.4
793.89938	18659.1
797.76935	18573
801.6366	18501
805.50115	18507.6
809.36299	18468.4
813.22213	18433.7
817.07857	18460.1
820.93231	18484.3
824.78336	18485.1
828.63172	18500.6
832.47738	18504.2
836.32036	18478.2
840.16066	18501.6
843.99827	18471.9
847.8332	18488.6
851.66546	18460.5
855.49504	18489.9
859.32195	18521.4
863.1462	18491.5
866.96777	18504.9
870.78668	18520.7
874.60293	18497.9
878.41652	18530
882.22745	18548.8
886.03573	18603.4
889.84136	18596.9
893.64433	18592.4
897.44466	18540.7
901.24235	18539.3
905.0374	18507.3
908.8298	18468.4
912.61957	18526.9
916.40671	18582.2
920.19121	18666.1
923.97308	18682.1
927.75233	18718.4
931.52895	18687.6
935.30295	18609.3
939.07433	18474.1
942.84309	18303.8
946.60924	18224
950.37278	18162.1
954.13371	18122.2
957.89203	18116.6
961.64774	18067.5
965.40086	18091
969.15137	18042
972.89929	17963.5
976.64461	17962.7
980.38733	17972.1
984.12747	17996.8
987.86502	18038.4
991.59999	18144.4
995.33237	18200.9
999.06217	18294.2
1002.78939	18472.8
1006.51404	18547.3
1010.23611	18669
1013.95561	18796.6
1017.67255	18794.3
1021.38692	18771.8
1025.09872	18643.2
1028.80796	18600.3
1032.51465	18589.7
1036.21877	18616.1
1039.92035	18698.5
1043.61937	18724.5
1047.31584	18756
1051.00976	18769.8
1054.70114	18828.9
1058.38998	18942.5
1062.07627	19078.2
1065.76003	19318.5
1069.44126	19539.7
1073.11995	19786
1076.79611	19938
1080.46974	19939.9
1084.14085	19828.2
1087.80943	19740.7
1091.47549	19682.4
1095.13903	19619.8
1098.80005	19503.2
1102.45857	19304
1106.11456	19139
1109.76805	19066.9
1113.41903	19045.1
1117.06751	19086.8
1120.71348	19191.1
1124.35696	19410.1
1127.99793	19591.5
1131.63641	19655.9
1135.2724	19502
1138.90589	19305.9
1142.5369	19197.3
1146.16542	19163
1149.79145	19162.4
1153.415	19180.8
1157.03607	19225.2
1160.65467	19385.6
1164.27079	19677.2
1167.88443	20063.4
1171.49561	20622.8
1175.10432	21366.8
1178.71056	22326.2
1182.31434	23182.9
1185.91565	23613.4
1189.51451	23618.7
1193.11091	23362.7
1196.70485	22875.8
1200.29634	22335.8
1203.88538	21884.5
1207.47197	21466.4
1211.05612	21061.8
1214.63782	20829.8
1218.21708	20647.4
1221.79391	20489.6
1225.36829	20447.7
1228.94024	20370.9
1232.50976	20311.6
1236.07685	20290.3
1239.6415	20331
1243.20374	20319.5
1246.76355	20433.6
1250.32093	20523.4
1253.8759	20711.1
1257.42845	20949.6
1260.97859	21223.4
1264.52631	21448.8
1268.07163	21643.7
1271.61453	21816.7
1275.15503	22056
1278.69312	22177.6
1282.22882	22311.7
1285.76211	22611.6
1289.29301	22889.2
1292.82151	23289.2
1296.34761	23755.4
1299.87133	24290.4
1303.39266	24992.1
1306.9116	25759.8
1310.42815	26632.2
1313.94233	27127.2
1317.45412	27110.8
1320.96354	26775.9
1324.47058	26448.5
1327.97525	26028.2
1331.47754	25826.3
1334.97747	25784.4
1338.47502	25931.4
1341.97022	26190.7
1345.46305	26437.2
1348.95352	26733.5
1352.44163	26908.1
1355.92738	27237.4
1359.41078	27857.3
1362.89183	28517.3
1366.37053	28063
1369.84688	26441.4
1373.32088	24621.6
1376.79254	23462.8
1380.26186	22894.7
1383.72883	22613.7
1387.19347	22389.2
1390.65578	22250.7
1394.11575	22062.9
1397.57339	21930.7
1401.0287	21887.1
1404.48168	21904.3
1407.93234	21824.1
1411.38068	21720.4
1414.82669	21436.6
1418.27039	21105.6
1421.71177	20791.5
1425.15083	20458.1
1428.58758	20241.8
1432.02203	20251.6
1435.45416	20377.9
1438.88399	20493.4
1442.31151	20568.6
1445.73673	20709.6
1449.15965	20876.5
1452.58027	20966.2
1455.9986	21002.4
1459.41463	21136.6
1462.82837	21289.7
1466.23982	21547.6
1469.64898	21768.4
1473.05586	21920.2
1476.46045	21957.1
1479.86276	22012
1483.26279	22026.6
1486.66054	22082.6
1490.05602	22275.8
1493.44922	22557.7
1496.84016	23008.2
1500.22882	23627.7
1503.61521	24538.7
1506.99934	25455
1510.38121	26181.7
1513.76081	26322.8
1517.13816	25749.4
1520.51324	24811.9
1523.88607	23937.9
1527.25665	23307
1530.62498	23013.8
1533.99105	22831.5
1537.35488	22615.2
1540.71647	22430.5
1544.07581	22248.9
1547.4329	22085.3
1550.78776	21890.8
1554.14038	21783.7
1557.49077	21777.2
1560.83892	21838.3
1564.18484	21969.4
1567.52853	22193.9
1570.86999	22389.1
1574.20922	22696.9
1577.54624	22884.5
1580.88103	22826
1584.2136	22578.7
1587.54395	22337.8
1590.87208	22316.3
1594.19801	22572.7
1597.52172	22981.5
1600.84321	23175.5
1604.16251	22864.2
1607.47959	22241.7
1610.79447	21501.9
1614.10715	20732.7
1617.41763	20066.3
1620.7259	19514.3
1624.03199	19177.1
1627.33587	19090.6
1630.63757	19176.4
1633.93707	19519.6
1637.23439	20128.7
1640.52951	21052.6
1643.82246	22221.6
1647.11321	23314.3
1650.40179	23878
1653.68819	23475.6
1656.97241	22162.2
1660.25446	20650.5
1663.53433	19433
1666.81203	18554.5
1670.08756	17980.6
1673.36092	17598.6
1676.63211	17357.8
1679.90115	17133.7
1683.16801	16986.7
1686.43272	16900.3
1689.69527	16818.9
1692.95567	16771.1
1696.2139	16758
1699.46999	16731.2
1702.72392	16706.9
1705.97571	16679.3
1709.22535	16656.5
1712.47284	16651
1715.71819	16618.1
1718.96139	16595.6
1722.20246	16565.5
1725.44139	16524.2
1728.67818	16476.1
1731.91284	16365.7
1735.14537	16335.6
1738.37576	16284.3
1741.60403	16268.4
1744.83017	16233.3
1748.05418	16220.5
1751.27607	16186.8
1754.49584	16169.7
1757.71349	16149.3
1760.92903	16150
1764.14244	16138.6
1767.35375	16150
1770.56294	16106.5
1773.77002	16067.4
1776.97499	16044.9
1780.17785	16035.7
1783.37861	15981.9
1786.57727	15934.8
1789.77382	15904.8
1792.96828	15911.7
1796.16064	15857.5
1799.3509	15834.1
1802.53907	15814.3
1805.72514	15733.1
1808.90913	15720.1
1812.09102	15676.1
1815.27083	15653
1818.44856	15645.4
1821.6242	15625.9
1824.79776	15616.1
1827.96924	15577.3
1831.13864	15544.2
1834.30597	15561
1837.47122	15530.7
1840.6344	15557.6
1843.7955	15497.8
1846.95454	15505.8
1850.11151	15482.4
1853.26642	15491.2
1856.41926	15457.7
1859.57004	15437.7
1862.71876	15429.3
1865.86542	15420.9
1869.01003	15420.5
1872.15258	15408.4
1875.29308	15423.8
1878.43152	15340.1
1881.56792	15350.4
1884.70227	15330.5
1887.83457	15314.4
1890.96482	15274.6
1894.09304	15262.2
1897.21921	15252.3
1900.34335	15236.6
1903.46544	15206.9
1906.58551	15202.9
1909.70353	15204.7
1912.81953	15136.7
1915.93349	15153
1919.04543	15117.5
1922.15534	15066.9
1925.26322	15085.4
1928.36908	15084.1
1931.47292	15033
1934.57473	14980.1
1937.67453	14920.6
1940.77232	14933.4
1943.86808	14862
1946.96184	14849.3
1950.05358	14817.4
1953.14331	14771.4
1956.23103	14695.4
1959.31675	14671.6
1962.40046	14657.3
1965.48217	14631.6
1968.56188	14555.7
1971.63959	14483
1974.7153	14448.1
1977.78901	14427
1980.86073	14389
1983.93046	14336.6
1986.99819	14298.9
1990.06394	14278.6
1993.1277	14198.2
1996.18947	14155.1
1999.24925	14131.7
2002.30706	14084.5
2005.36288	14031.5
2008.41672	13998
2011.46859	13960.6
2014.51848	13927.1
2017.56639	13884.1
2020.61233	13857
2023.6563	13855.8
2026.6983	13816.7
2029.73833	13785.1
2032.7764	13715.6
2035.8125	13700.4
2038.84664	13659.1
2041.87881	13641.1
2044.90903	13602.4
2047.93729	13588.5
2050.96359	13557.6
2053.98794	13551.9
2057.01034	13520.9
2060.03078	13515.4
2063.04927	13494.6
2066.06582	13475.6
2069.08042	13496.6
2072.09307	13460.8
2075.10378	13445.6
2078.11255	13435.4
2081.11938	13458.8
2084.12426	13433.4
2087.12722	13445.1
2090.12824	13444.4
2093.12732	13437.4
2096.12447	13424.8
2099.11969	13419.1
2102.11299	13446.2
2105.10435	13436.3
2108.09379	13423
2111.08131	13439.8
2114.0669	13431.3
2117.05057	13439.9
2120.03233	13459
2123.01216	13456.4
2125.99008	13489.8
2128.96609	13497.9
2131.94018	13482.9
2134.91236	13497
2137.88263	13482.7
2140.851	13531.4
2143.81746	13519.4
2146.78201	13517.3
2149.74466	13527.6
2152.7054	13536.2
2155.66425	13561.3
2158.6212	13568.9
2161.57625	13557.5
2164.52941	13546.8
2167.48067	13512.3
2170.43004	13495.5
2173.37752	13463
2176.32311	13479.5
2179.26681	13488.3
2182.20863	13498.3
2185.14856	13469.9
2188.08661	13439.5
2191.02278	13466.2
2193.95707	13427.9
2196.88948	13387.8
2199.82001	13416.2
2202.74867	13394.5
2205.67545	13373.9
2208.60037	13389.5
2211.52341	13380.7
2214.44458	13338.9
2217.36388	13272.7
2220.28132	13257.6
2223.1969	13236.6
2226.11061	13204.6
2229.02246	13187
2231.93245	13167
2234.84058	13134.8
2237.74686	13133.6
2240.65128	13118.2
2243.55385	13075.7
2246.45456	13069.3
2249.35343	13035.4
2252.25044	13022.5
2255.14561	12979.3
2258.03893	12998.6
2260.93041	12968.1
2263.82004	12930.6
2266.70783	12924.4
2269.59378	12859.8
2272.4779	12848.6
2275.36017	12812.8
2278.24061	12770.6
2281.11922	12733.7
2283.996	12737.1
2286.87094	12688.6
2289.74405	12664.2
2292.61534	12657.4
2295.4848	12640.1
2298.35243	12631.1
2301.21824	12616.5
2304.08223	12604.4
2306.94439	12571.7
2309.80474	12549.9
2312.66327	12537.3
2315.51999	12528
2318.37489	12552.2
2321.22797	12548.2
2324.07925	12515
2326.92871	12482.2
2329.77637	12467.7
2332.62222	12459.9
2335.46626	12412.4
2338.3085	12417.9
2341.14893	12395.6
2343.98756	12371
2346.8244	12348.8
2349.65943	12353.7
2352.49267	12321.3
2355.32411	12341.4
2358.15376	12314.9
2360.98161	12283.3
2363.80768	12273.2
2366.63195	12292
2369.45444	12255.5
2372.27514	12256.9
2375.09405	12235.1
2377.91118	12204.3
2380.72652	12203.2
2383.54009	12156.4
2386.35187	12142.7
2389.16188	12104.2
2391.97011	12077.2
2394.77657	12064.1
2397.58125	12024.9
2400.38416	12013.4
2403.18529	12010.9
2405.98466	11979.4
2408.78226	11974.5
2411.57809	11941.1
2414.37216	11904
2417.16446	11915.3
2419.955	11871.6
2422.74378	11868.3
2425.5308	11854.8
2428.31606	11838.2
2431.09956	11789.2
2433.88131	11795.1
2436.6613	11790.9
2439.43954	11766.7
2442.21603	11773.3
2444.99077	11746.8
2447.76377	11762.3
2450.53501	11729.1
2453.30451	11726.6
2456.07226	11681.8
2458.83827	11667.9
2461.60254	11675.5
2464.36507	11616.7
2467.12586	11635.6
2469.88492	11633.2
2472.64224	11585.9
2475.39782	11587
2478.15167	11586.1
2480.90379	11561.2
2483.65417	11576.6
2486.40283	11570.7
2489.14976	11570.8
2491.89497	11546.3
2494.63845	11557.9
2497.3802	11534.9
2500.12024	11510.7
2502.85855	11496.3
2505.59514	11505.2
2508.33002	11455.6
2511.06318	11476.7
2513.79462	11438.4
2516.52435	11431.4
2519.25237	11410.6
2521.97867	11394.7
2524.70327	11375.1
2527.42616	11366.9
2530.14734	11337.5
2532.86681	11323.3
2535.58458	11295.9
2538.30065	11288.8
2541.01501	11267
2543.72768	11260
2546.43864	11240.9
2549.14791	11206.4
2551.85548	11195.5
2554.56136	11172.7
2557.26554	11112.5
2559.96803	11131.5
2562.66883	11103.3
2565.36794	11096.1
2568.06536	11082.6
2570.7611	11058.5
2573.45514	11042.5
2576.14751	11012.9
2578.83819	10983.1
2581.52719	10964.1
2584.21451	10941.7
2586.90015	10923.5
2589.58411	10916.8
2592.2664	10880.3
2594.94701	10843.3
2597.62594	10837
2600.30321	10802.3
2602.9788	10810.9
2605.65273	10767.5
2608.32498	10737.8
2610.99557	10737.2
2613.66449	10744
2616.33175	10698.8
2618.99734	10673.7
2621.66128	10654.8
2624.32355	10672.9
2626.98416	10644.5
2629.64311	10626.1
2632.30041	10650.4
2634.95605	10636.5
2637.61004	10604.8
2640.26238	10567.1
2642.91306	10580.4
2645.56209	10535.3
2648.20948	10537.3
2650.85521	10549.9
2653.4993	10534.2
2656.14175	10528.6
2658.78255	10513
2661.42171	10499
2664.05923	10509.5
2666.6951	10493.8
2669.32934	10509.3
2671.96194	10495.6
2674.59291	10505
2677.22224	10482.7
2679.84993	10490.6
2682.476	10482.5
2685.10043	10473
2687.72324	10478.3
2690.34441	10461.3
2692.96396	10461.6
2695.58188	10470.7
2698.19818	10443.9
2700.81285	10454.3
2703.4259	10454.5
2706.03733	10505.4
2708.64714	10466.9
2711.25533	10482.7
2713.86191	10453.9
2716.46687	10454.8
2719.07021	10446.1
2721.67194	10434.9
2724.27206	10402
2726.87057	10432
2729.46747	10399.9
2732.06276	10407.7
2734.65644	10390.9
2737.24852	10381.9
2739.83899	10349.7
2742.42786	10381.6
2745.01513	10349.4
2747.60079	10316.7
2750.18486	10311.3
2752.76733	10285.7
2755.3482	10297.1
2757.92747	10283.5
2760.50515	10257
2763.08123	10260.6
2765.65573	10253
2768.22863	10244.2
2770.79994	10225
2773.36967	10209.4
2775.9378	10187.2
2778.50435	10159.7
2781.06932	10136.1
2783.6327	10152.8
2786.1945	10131.3
2788.75471	10116
2791.31335	10086
2793.87041	10053
2796.42589	10018.2
2798.97979	10027.3
2801.53212	9982.6
2804.08288	9964
2806.63206	9945.4
2809.17967	9930.1
2811.72571	9891.8
2814.27018	9884.8
2816.81308	9858.9
2819.35442	9867
2821.89419	9848.8
2824.43239	9809.1
2826.96904	9821.8
2829.50412	9807.6
2832.03763	9784.4
2834.56959	9807.9
2837.1	9757.7
2839.62884	9765.5
2842.15613	9756
2844.68186	9754.8
2847.20604	9772.2
2849.72867	9744.9
2852.24974	9727.6
2854.76927	9734.1
2857.28724	9710.1
2859.80367	9707.9
2862.31855	9676.9
2864.83189	9667.3
2867.34368	9659.1
2869.85393	9644.5
2872.36264	9624.1
2874.8698	9635.8
2877.37543	9606.4
2879.87952	9620.8
2882.38207	9640.6
2884.88308	9619.5
2887.38256	9632.9
2889.88051	9623.6
2892.37692	9605.3
2894.8718	9583.8
2897.36515	9611.6
2899.85698	9596.9
2902.34727	9596.8
2904.83604	9606.5
2907.32328	9602.7
2909.809	9630.8
2912.29319	9601.7
2914.77587	9591.7
2917.25702	9592.3
2919.73665	9593.9
2922.21476	9593.4
2924.69136	9593
2927.16644	9573.3
2929.64	9574.4
2932.11205	9549.2
2934.58258	9546.7
2937.05161	9528.8
2939.51912	9543.7
2941.98513	9550.6
2944.44962	9524.4
2946.91261	9468.5
2949.37409	9483.7
2951.83407	9456.1
2954.29254	9466.4
2956.74951	9436
2959.20498	9430.4
2961.65895	9406.9
2964.11142	9411.3
2966.56239	9415.9
2969.01186	9378.6
2971.45984	9335.7
2973.90632	9352.6
2976.35131	9305.5
2978.7948	9296.7
2981.23681	9261.5
2983.67732	9255.7
2986.11635	9269.8
2988.55388	9224.6
2990.98993	9220.6
2993.4245	9215.7
2995.85758	9177.9
2998.28917	9165.2
3000.71928	9134.8
3003.14791	9119.5
3005.57506	9114.9
3008.00073	9093.2
3010.42493	9105.2
3012.84764	9067.7
3015.26888	9045.6
3017.68865	9046.8
3020.10694	9043.9
3022.52376	9025.5
3024.9391	8992.5
3027.35298	8976.6
3029.76539	8997.7
3032.17632	8957.5
3034.5858	8948.5
3036.9938	8969.2
3039.40034	8921.7
3041.80542	8926.5
3044.20903	8895.2
3046.61118	8905.3
3049.01187	8871.7
3051.4111	8857.4
3053.80888	8858.2
3056.20519	8841.7
3058.60005	8799.9
3060.99345	8781.4
3063.3854	8771.2
3065.7759	8748.4
3068.16494	8750.1
3070.55254	8724.5
3072.93868	8718.1
3075.32338	8682.8
3077.70662	8684.2
3080.08842	8632.8
3082.46878	8631.9
3084.84769	8644.6
3087.22515	8642.6
3089.60118	8664
3091.97576	8655.8
3094.3489	8645.8
3096.72061	8635.6
3099.09087	8639.7
3101.4597	8616.8
3103.82709	8630.4
3106.19305	8620.6
3108.55757	8612.3
3110.92066	8588.6
3113.28232	8578.3
3115.64255	8569.2
3118.00134	8551.2
3120.35871	8545.3
3122.71466	8528.3
3125.06917	8501.8
3127.42226	8498.8
3129.77393	8486.5
3132.12417	8512.8
3134.47299	8520.6
3136.82039	8512.4
3139.16636	8508.4
3141.51092	8511.6
3143.85406	8490.3
3146.19579	8509.3
3148.53609	8529.8
3150.87499	8510.5
3153.21246	8521.8
3155.54853	8555.6
3157.88318	8527.1
3160.21642	8530
3162.54826	8524.5
3164.87868	8520.3
3167.2077	8502.1
3169.5353	8515.5
3171.86151	8515.2
3174.18631	8519.8
3176.5097	8495.7
3178.83169	8468.3
3181.15228	8468.3
3183.47147	8471.2
3185.78926	8468.8
3188.10565	8440.8
3190.42065	8476.6
3192.73424	8449.7
3195.04645	8442.6
3197.35725	8463.2
3199.66667	8440.2
3201.97469	8477.3
3204.28132	8462.2
3206.58656	8456.6
3208.8904	8457.1
3211.19287	8473
3213.49394	8467.5
3215.79363	8461.6
3218.09193	8463.4
3220.38884	8468
3222.68438	8475.3
3224.97853	8455.2
3227.2713	8429.1
3229.56269	8422.3
3231.8527	8414.8
3234.14133	8393.2
3236.42858	8393.6
3238.71446	8358.1
3240.99896	8347
3243.28209	8355.1
3245.56384	8377.9
3247.84423	8392.8
3250.12324	8342.7
3252.40088	8349.2
3254.67715	8353.7
3256.95205	8327.1
3259.22558	8320.2
3261.49775	8294.6
3263.76855	8303.9
3266.03799	8271.4
3268.30606	8241.2
3270.57277	8234.5
3272.83812	8209.9
3275.10211	8238.3
3277.36474	8216.6
3279.62601	8214.6
3281.88593	8179.8
3284.14448	8194.2
3286.40168	8211.9
3288.65753	8173.3
3290.91202	8160.3
3293.16516	8137.7
3295.41695	8125.3
3297.66738	8063.6
3299.91647	8031.5
3302.16421	7976.5
3304.4106	7953.1
3306.65564	7907.8
3308.89933	7862.9
3311.14169	7818.2
3313.38269	7785.7
3315.62236	7717
3317.86068	7660.3
3320.09766	7606.5
3322.3333	7530.2
3324.5676	7532.3
3326.80056	7413.5
3329.03219	7375.7
3331.26248	3.4
3333.49143	-0.9
3335.71905	-0.4
