Data from AgNP_FTO_APTES_CRN_0uM_R6G_10uM_NaF_0.1M_Addition_RamanShift__0__11-29-42-908.txt Node

Date: Wed Dec 15 11:29:42 GMT 2021
User: TCL
Spectrometer: QEP01345
Trigger mode: 4
Integration Time (sec): 7.000000E0
Scans to average: 10
Electric dark correction enabled: true
Nonlinearity correction enabled: false
Boxcar width: 0
XAxis mode: Raman Shifts
Number of Pixels in Spectrum: 1044
>>>>>Begin Spectral Data<<<<<
46.04893	0.7375
50.45542	-1.5625
54.85868	-0.4625
59.25871	0.7375
63.6555	77.3375
68.04907	85.4375
72.43941	90.3375
76.82654	104.6375
81.21044	106.1375
85.59113	110.5375
89.96862	118.0375
94.34289	119.8375
98.71396	129.8375
103.08183	135.1375
107.4465	135.2375
111.80798	132.4375
116.16626	135.4375
120.52136	133.4375
124.87327	126.7375
129.222	132.8375
133.56755	128.0375
137.90993	132.7375
142.24913	130.2375
146.58517	133.5375
150.91804	142.6375
155.24774	150.3375
159.57429	167.5375
163.89768	189.6375
168.21792	218.7375
172.53501	269.4375
176.84895	340.4375
181.15975	443.1375
185.46741	599.6375
189.77193	825.8375
194.07331	1105.5375
198.37157	1448.6375
202.6667	1828.8375
206.9587	2216.8375
211.24758	2627.5375
215.53334	3022.8375
219.81599	3461.3375
224.09553	3925.4375
228.37195	4418.4375
232.64527	4966.3375
236.91549	5505.7375
241.18261	6061.6375
245.44663	6566.4375
249.70755	6993.2375
253.96539	7345.9375
258.22014	7558.4375
262.4718	7637.2375
266.72039	7567.7375
270.96589	7388.4375
275.20832	7106.6375
279.44768	6749.5375
283.68397	6377.4375
287.91719	5995.4375
292.14735	5634.5375
296.37445	5293.2375
300.59849	5003.3375
304.81948	4755.3375
309.03742	4556.1375
313.25231	4372.3375
317.46415	4225.0375
321.67296	4125.0375
325.87872	4023.1375
330.08145	3958.4375
334.28114	3879.7375
338.47781	3836.6375
342.67145	3784.6375
346.86207	3720.3375
351.04966	3659.7375
355.23424	3611.6375
359.4158	3552.5375
363.59435	3492.3375
367.76989	3448.5375
371.94243	3419.5375
376.11196	3384.2375
380.27849	3352.6375
384.44203	3340.2375
388.60257	3315.6375
392.76012	3322.0375
396.91468	3325.4375
401.06626	3315.7375
405.21485	3362.1375
409.36047	3404.1375
413.50311	3453.2375
417.64277	3558.6375
421.77947	3639.1375
425.9132	3555.3375
430.04396	3544.0375
434.17176	3595.8375
438.2966	3632.9375
442.41849	3667.9375
446.53742	3712.3375
450.6534	3725.1375
454.76644	3747.1375
458.87653	3751.0375
462.98368	3735.8375
467.08789	3735.3375
471.18916	3713.6375
475.2875	3700.4375
479.38291	3664.1375
483.4754	3663.4375
487.56496	3634.0375
491.6516	3615.7375
495.73531	3597.7375
499.81612	3582.8375
503.89401	3567.1375
507.96899	3574.2375
512.04106	3583.1375
516.11023	3602.8375
520.1765	3607.5375
524.23987	3623.9375
528.30034	3666.6375
532.35792	3717.3375
536.41261	3759.0375
540.46441	3790.5375
544.51333	3832.6375
548.55936	3912.9375
552.60252	3962.6375
556.64279	4016.9375
560.6802	4051.6375
564.71473	4058.8375
568.7464	4049.7375
572.7752	4011.7375
576.80114	3966.7375
580.82422	3977.6375
584.84444	4012.1375
588.86181	4097.8375
592.87633	4223.5375
596.888	4441.7375
600.89682	4754.9375
604.9028	5165.0375
608.90594	5578.9375
612.90624	5861.9375
616.90371	5890.5375
620.89834	5567.1375
624.89015	5137.3375
628.87913	4711.1375
632.86528	4321.9375
636.84862	4013.5375
640.82913	3819.7375
644.80683	3706.6375
648.78172	3662.3375
652.75379	3628.5375
656.72306	3620.4375
660.68952	3627.7375
664.65319	3653.4375
668.61405	3679.9375
672.57211	3702.4375
676.52738	3723.7375
680.47986	3765.9375
684.42955	3798.7375
688.37646	3823.2375
692.32058	3815.9375
696.26192	3804.0375
700.20048	3814.3375
704.13626	3805.1375
708.06928	3798.7375
711.99952	3790.5375
715.927	3779.7375
719.85171	3770.9375
723.77365	3775.5375
727.69284	3832.4375
731.60928	3876.0375
735.52295	3906.5375
739.43388	3888.6375
743.34206	3885.9375
747.24749	3879.3375
751.15017	3896.2375
755.05012	3939.6375
758.94733	3973.0375
762.8418	4012.5375
766.73354	4042.1375
770.62254	4068.4375
774.50882	4096.3375
778.39237	4077.7375
782.27321	4049.0375
786.15132	4014.1375
790.02671	3992.5375
793.89938	4018.6375
797.76935	4048.8375
801.6366	4084.5375
805.50115	4102.8375
809.36299	4139.1375
813.22213	4127.5375
817.07857	4107.7375
820.93231	4105.6375
824.78336	4074.2375
828.63172	4076.6375
832.47738	4061.4375
836.32036	4101.0375
840.16066	4122.0375
843.99827	4150.4375
847.8332	4145.1375
851.66546	4114.8375
855.49504	4109.5375
859.32195	4145.4375
863.1462	4191.1375
866.96777	4214.6375
870.78668	4271.1375
874.60293	4333.0375
878.41652	4407.9375
882.22745	4521.6375
886.03573	4658.4375
889.84136	4858.3375
893.64433	5111.4375
897.44466	5373.9375
901.24235	5633.0375
905.0374	5906.6375
908.8298	6210.0375
912.61957	6595.9375
916.40671	7035.2375
920.19121	7481.8375
923.97308	7824.5375
927.75233	8050.0375
931.52895	8011.0375
935.30295	7752.0375
939.07433	7358.4375
942.84309	6938.1375
946.60924	6551.3375
950.37278	6321.9375
954.13371	6106.4375
957.89203	5826.2375
961.64774	5492.4375
965.40086	5223.0375
969.15137	5009.5375
972.89929	4836.2375
976.64461	4690.8375
980.38733	4557.4375
984.12747	4461.1375
987.86502	4405.8375
991.59999	4382.1375
995.33237	4338.0375
999.06217	4341.5375
1002.78939	4342.3375
1006.51404	4336.4375
1010.23611	4340.8375
1013.95561	4326.7375
1017.67255	4328.4375
1021.38692	4305.5375
1025.09872	4312.2375
1028.80796	4313.6375
1032.51465	4343.2375
1036.21877	4404.9375
1039.92035	4451.3375
1043.61937	4465.7375
1047.31584	4486.4375
1051.00976	4492.6375
1054.70114	4498.2375
1058.38998	4489.6375
1062.07627	4487.8375
1065.76003	4461.9375
1069.44126	4416.1375
1073.11995	4381.5375
1076.79611	4365.6375
1080.46974	4313.2375
1084.14085	4268.3375
1087.80943	4189.0375
1091.47549	4107.3375
1095.13903	4026.1375
1098.80005	3953.6375
1102.45857	3900.2375
1106.11456	3846.8375
1109.76805	3826.1375
1113.41903	3803.7375
1117.06751	3792.3375
1120.71348	3766.3375
1124.35696	3787.0375
1127.99793	3787.6375
1131.63641	3780.2375
1135.2724	3792.0375
1138.90589	3778.0375
1142.5369	3755.9375
1146.16542	3745.7375
1149.79145	3715.5375
1153.415	3680.3375
1157.03607	3655.0375
1160.65467	3662.7375
1164.27079	3661.4375
1167.88443	3662.5375
1171.49561	3698.1375
1175.10432	3761.4375
1178.71056	3819.3375
1182.31434	3909.2375
1185.91565	3988.5375
1189.51451	4041.0375
1193.11091	4063.0375
1196.70485	4059.9375
1200.29634	4020.5375
1203.88538	3975.8375
1207.47197	3912.3375
1211.05612	3873.9375
1214.63782	3839.7375
1218.21708	3861.4375
1221.79391	3871.5375
1225.36829	3893.9375
1228.94024	3934.5375
1232.50976	3943.0375
1236.07685	3954.7375
1239.6415	3959.7375
1243.20374	3971.9375
1246.76355	3970.9375
1250.32093	3998.9375
1253.8759	4011.9375
1257.42845	4057.5375
1260.97859	4101.6375
1264.52631	4152.5375
1268.07163	4217.0375
1271.61453	4289.0375
1275.15503	4338.4375
1278.69312	4404.2375
1282.22882	4481.0375
1285.76211	4567.9375
1289.29301	4669.8375
1292.82151	4774.2375
1296.34761	4852.1375
1299.87133	4907.6375
1303.39266	4945.2375
1306.9116	4951.9375
1310.42815	4928.5375
1313.94233	4884.8375
1317.45412	4836.3375
1320.96354	4782.4375
1324.47058	4753.2375
1327.97525	4701.4375
1331.47754	4740.1375
1334.97747	4791.7375
1338.47502	4873.9375
1341.97022	4960.1375
1345.46305	5098.5375
1348.95352	5244.1375
1352.44163	5402.7375
1355.92738	5588.1375
1359.41078	5745.7375
1362.89183	5905.0375
1366.37053	5996.5375
1369.84688	5980.2375
1373.32088	5928.4375
1376.79254	5885.5375
1380.26186	5856.8375
1383.72883	5822.9375
1387.19347	5786.5375
1390.65578	5778.5375
1394.11575	5726.5375
1397.57339	5634.0375
1401.0287	5542.0375
1404.48168	5472.2375
1407.93234	5415.4375
1411.38068	5348.0375
1414.82669	5265.2375
1418.27039	5185.7375
1421.71177	5088.3375
1425.15083	4986.0375
1428.58758	4896.6375
1432.02203	4798.9375
1435.45416	4729.8375
1438.88399	4682.4375
1442.31151	4659.6375
1445.73673	4646.3375
1449.15965	4659.4375
1452.58027	4663.0375
1455.9986	4683.1375
1459.41463	4656.8375
1462.82837	4668.1375
1466.23982	4677.7375
1469.64898	4719.8375
1473.05586	4719.2375
1476.46045	4741.6375
1479.86276	4766.0375
1483.26279	4763.0375
1486.66054	4768.1375
1490.05602	4736.8375
1493.44922	4706.6375
1496.84016	4665.8375
1500.22882	4637.0375
1503.61521	4603.9375
1506.99934	4600.2375
1510.38121	4586.3375
1513.76081	4546.8375
1517.13816	4492.2375
1520.51324	4432.1375
1523.88607	4370.0375
1527.25665	4329.8375
1530.62498	4294.5375
1533.99105	4250.2375
1537.35488	4233.4375
1540.71647	4219.4375
1544.07581	4205.7375
1547.4329	4164.9375
1550.78776	4121.6375
1554.14038	4098.9375
1557.49077	4043.5375
1560.83892	4013.0375
1564.18484	3976.6375
1567.52853	3950.1375
1570.86999	3906.0375
1574.20922	3886.7375
1577.54624	3870.0375
1580.88103	3850.3375
1584.2136	3812.3375
1587.54395	3793.8375
1590.87208	3766.0375
1594.19801	3744.2375
1597.52172	3735.8375
1600.84321	3749.0375
1604.16251	3736.0375
1607.47959	3740.0375
1610.79447	3737.0375
1614.10715	3737.8375
1617.41763	3735.8375
1620.7259	3745.8375
1624.03199	3738.5375
1627.33587	3760.3375
1630.63757	3764.5375
1633.93707	3750.5375
1637.23439	3736.4375
1640.52951	3713.5375
1643.82246	3685.5375
1647.11321	3642.8375
1650.40179	3575.7375
1653.68819	3501.9375
1656.97241	3403.9375
1660.25446	3290.1375
1663.53433	3183.0375
1666.81203	3102.0375
1670.08756	3022.4375
1673.36092	2955.3375
1676.63211	2912.0375
1679.90115	2879.0375
1683.16801	2833.2375
1686.43272	2813.4375
1689.69527	2788.7375
1692.95567	2756.8375
1696.2139	2744.8375
1699.46999	2716.1375
1702.72392	2694.6375
1705.97571	2694.0375
1709.22535	2666.1375
1712.47284	2641.0375
1715.71819	2640.3375
1718.96139	2611.2375
1722.20246	2587.7375
1725.44139	2574.8375
1728.67818	2560.5375
1731.91284	2536.2375
1735.14537	2528.0375
1738.37576	2516.1375
1741.60403	2506.9375
1744.83017	2489.3375
1748.05418	2484.9375
1751.27607	2474.9375
1754.49584	2472.5375
1757.71349	2448.3375
1760.92903	2446.0375
1764.14244	2446.4375
1767.35375	2442.5375
1770.56294	2425.1375
1773.77002	2422.2375
1776.97499	2412.4375
1780.17785	2420.9375
1783.37861	2411.3375
1786.57727	2413.5375
1789.77382	2407.4375
1792.96828	2403.3375
1796.16064	2396.7375
1799.3509	2390.7375
1802.53907	2384.8375
1805.72514	2381.3375
1808.90913	2375.5375
1812.09102	2366.9375
1815.27083	2356.4375
1818.44856	2366.0375
1821.6242	2350.7375
1824.79776	2358.5375
1827.96924	2356.1375
1831.13864	2343.5375
1834.30597	2350.0375
1837.47122	2336.0375
1840.6344	2340.9375
1843.7955	2345.5375
1846.95454	2341.6375
1850.11151	2337.8375
1853.26642	2332.7375
1856.41926	2314.2375
1859.57004	2318.6375
1862.71876	2315.1375
1865.86542	2309.1375
1869.01003	2311.7375
1872.15258	2296.4375
1875.29308	2298.9375
1878.43152	2280.2375
1881.56792	2278.9375
1884.70227	2275.2375
1887.83457	2284.8375
1890.96482	2267.4375
1894.09304	2278.8375
1897.21921	2267.8375
1900.34335	2256.4375
1903.46544	2256.1375
1906.58551	2256.2375
1909.70353	2239.2375
1912.81953	2249.9375
1915.93349	2233.4375
1919.04543	2232.8375
1922.15534	2218.1375
1925.26322	2219.6375
1928.36908	2214.8375
1931.47292	2197.4375
1934.57473	2203.7375
1937.67453	2207.6375
1940.77232	2205.2375
1943.86808	2193.9375
1946.96184	2192.4375
1950.05358	2182.4375
1953.14331	2172.8375
1956.23103	2164.4375
1959.31675	2164.0375
1962.40046	2146.6375
1965.48217	2146.4375
1968.56188	2140.6375
1971.63959	2136.4375
1974.7153	2121.5375
1977.78901	2113.3375
1980.86073	2116.5375
1983.93046	2109.3375
1986.99819	2100.1375
1990.06394	2084.5375
1993.1277	2092.0375
1996.18947	2082.1375
1999.24925	2085.0375
2002.30706	2064.7375
2005.36288	2053.0375
2008.41672	2066.7375
2011.46859	2057.1375
2014.51848	2051.7375
2017.56639	2048.7375
2020.61233	2032.0375
2023.6563	2029.2375
2026.6983	2023.0375
2029.73833	2010.4375
2032.7764	2009.2375
2035.8125	2016.6375
2038.84664	2002.5375
2041.87881	2006.6375
2044.90903	1983.8375
2047.93729	2002.4375
2050.96359	1999.3375
2053.98794	1988.2375
2057.01034	1996.6375
2060.03078	1992.9375
2063.04927	1994.5375
2066.06582	2007.3375
2069.08042	2001.3375
2072.09307	1998.5375
2075.10378	2007.1375
2078.11255	2008.4375
2081.11938	2016.2375
2084.12426	2022.1375
2087.12722	2024.8375
2090.12824	2028.5375
2093.12732	2027.4375
2096.12447	2028.0375
2099.11969	2023.6375
2102.11299	2022.3375
2105.10435	2037.6375
2108.09379	2021.9375
2111.08131	2021.4375
2114.0669	2016.4375
2117.05057	2015.3375
2120.03233	2005.9375
2123.01216	2007.1375
2125.99008	2000.9375
2128.96609	1996.4375
2131.94018	2003.4375
2134.91236	1993.0375
2137.88263	1996.1375
2140.851	1998.3375
2143.81746	1987.0375
2146.78201	1976.9375
2149.74466	1980.0375
2152.7054	1978.4375
2155.66425	1978.4375
2158.6212	1976.2375
2161.57625	1976.2375
2164.52941	1971.8375
2167.48067	1977.0375
2170.43004	1965.2375
2173.37752	1965.5375
2176.32311	1950.5375
2179.26681	1956.5375
2182.20863	1948.9375
2185.14856	1957.0375
2188.08661	1953.8375
2191.02278	1957.9375
2193.95707	1958.5375
2196.88948	1953.3375
2199.82001	1951.6375
2202.74867	1957.2375
2205.67545	1947.2375
2208.60037	1944.3375
2211.52341	1937.4375
2214.44458	1940.1375
2217.36388	1935.9375
2220.28132	1929.2375
2223.1969	1925.2375
2226.11061	1912.5375
2229.02246	1916.3375
2231.93245	1906.4375
2234.84058	1906.7375
2237.74686	1906.1375
2240.65128	1900.2375
2243.55385	1894.7375
2246.45456	1884.5375
2249.35343	1884.2375
2252.25044	1897.0375
2255.14561	1885.2375
2258.03893	1885.6375
2260.93041	1874.9375
2263.82004	1879.5375
2266.70783	1867.4375
2269.59378	1857.9375
2272.4779	1858.5375
2275.36017	1857.8375
2278.24061	1863.2375
2281.11922	1846.5375
2283.996	1841.2375
2286.87094	1834.8375
2289.74405	1831.3375
2292.61534	1828.7375
2295.4848	1820.8375
2298.35243	1832.2375
2301.21824	1832.5375
2304.08223	1825.8375
2306.94439	1821.6375
2309.80474	1812.7375
2312.66327	1816.1375
2315.51999	1810.3375
2318.37489	1807.4375
2321.22797	1802.0375
2324.07925	1808.7375
2326.92871	1799.8375
2329.77637	1799.5375
2332.62222	1796.6375
2335.46626	1785.5375
2338.3085	1776.6375
2341.14893	1790.6375
2343.98756	1784.6375
2346.8244	1778.9375
2349.65943	1777.8375
2352.49267	1774.4375
2355.32411	1772.9375
2358.15376	1768.5375
2360.98161	1759.5375
2363.80768	1766.3375
2366.63195	1761.9375
2369.45444	1759.0375
2372.27514	1755.4375
2375.09405	1759.4375
2377.91118	1757.6375
2380.72652	1751.1375
2383.54009	1758.4375
2386.35187	1754.3375
2389.16188	1733.8375
2391.97011	1733.9375
2394.77657	1733.8375
2397.58125	1735.5375
2400.38416	1732.5375
2403.18529	1723.5375
2405.98466	1730.9375
2408.78226	1720.1375
2411.57809	1708.7375
2414.37216	1714.4375
2417.16446	1708.0375
2419.955	1706.6375
2422.74378	1705.0375
2425.5308	1706.1375
2428.31606	1710.8375
2431.09956	1704.6375
2433.88131	1695.4375
2436.6613	1689.4375
2439.43954	1697.8375
2442.21603	1687.4375
2444.99077	1684.4375
2447.76377	1680.9375
2450.53501	1680.3375
2453.30451	1683.0375
2456.07226	1676.6375
2458.83827	1677.3375
2461.60254	1664.7375
2464.36507	1656.5375
2467.12586	1662.4375
2469.88492	1662.0375
2472.64224	1651.1375
2475.39782	1659.1375
2478.15167	1667.3375
2480.90379	1661.1375
2483.65417	1658.1375
2486.40283	1647.6375
2489.14976	1650.8375
2491.89497	1638.6375
2494.63845	1646.7375
2497.3802	1642.5375
2500.12024	1633.2375
2502.85855	1643.7375
2505.59514	1638.2375
2508.33002	1643.6375
2511.06318	1627.9375
2513.79462	1630.4375
2516.52435	1619.0375
2519.25237	1626.0375
2521.97867	1624.5375
2524.70327	1624.5375
2527.42616	1612.5375
2530.14734	1616.6375
2532.86681	1615.6375
2535.58458	1615.5375
2538.30065	1609.3375
2541.01501	1607.7375
2543.72768	1606.7375
2546.43864	1603.9375
2549.14791	1607.8375
2551.85548	1609.0375
2554.56136	1589.1375
2557.26554	1591.8375
2559.96803	1584.6375
2562.66883	1586.2375
2565.36794	1591.3375
2568.06536	1574.6375
2570.7611	1580.0375
2573.45514	1568.5375
2576.14751	1568.9375
2578.83819	1573.6375
2581.52719	1566.9375
2584.21451	1558.1375
2586.90015	1565.8375
2589.58411	1566.9375
2592.2664	1550.8375
2594.94701	1555.9375
2597.62594	1547.0375
2600.30321	1543.2375
2602.9788	1548.8375
2605.65273	1541.4375
2608.32498	1537.6375
2610.99557	1537.3375
2613.66449	1528.6375
2616.33175	1546.0375
2618.99734	1532.7375
2621.66128	1528.2375
2624.32355	1529.3375
2626.98416	1537.5375
2629.64311	1533.6375
2632.30041	1532.3375
2634.95605	1534.4375
2637.61004	1529.5375
2640.26238	1531.2375
2642.91306	1524.9375
2645.56209	1534.9375
2648.20948	1530.9375
2650.85521	1520.9375
2653.4993	1533.0375
2656.14175	1534.4375
2658.78255	1526.5375
2661.42171	1533.6375
2664.05923	1535.6375
2666.6951	1529.3375
2669.32934	1536.7375
2671.96194	1545.5375
2674.59291	1532.6375
2677.22224	1538.2375
2679.84993	1536.2375
2682.476	1541.5375
2685.10043	1541.1375
2687.72324	1538.1375
2690.34441	1541.0375
2692.96396	1541.8375
2695.58188	1542.0375
2698.19818	1531.3375
2700.81285	1547.7375
2703.4259	1545.4375
2706.03733	1547.3375
2708.64714	1546.4375
2711.25533	1558.2375
2713.86191	1556.2375
2716.46687	1551.7375
2719.07021	1551.5375
2721.67194	1557.6375
2724.27206	1556.1375
2726.87057	1563.0375
2729.46747	1553.6375
2732.06276	1560.8375
2734.65644	1562.1375
2737.24852	1563.6375
2739.83899	1559.7375
2742.42786	1562.2375
2745.01513	1551.3375
2747.60079	1565.2375
2750.18486	1560.9375
2752.76733	1569.1375
2755.3482	1568.9375
2757.92747	1570.6375
2760.50515	1560.1375
2763.08123	1561.7375
2765.65573	1569.6375
2768.22863	1571.0375
2770.79994	1570.7375
2773.36967	1561.1375
2775.9378	1556.9375
2778.50435	1557.4375
2781.06932	1557.6375
2783.6327	1553.4375
2786.1945	1548.3375
2788.75471	1549.0375
2791.31335	1550.1375
2793.87041	1551.7375
2796.42589	1542.3375
2798.97979	1542.3375
2801.53212	1542.9375
2804.08288	1553.8375
2806.63206	1554.0375
2809.17967	1539.5375
2811.72571	1544.8375
2814.27018	1535.2375
2816.81308	1530.3375
2819.35442	1533.9375
2821.89419	1529.8375
2824.43239	1522.7375
2826.96904	1524.9375
2829.50412	1528.8375
2832.03763	1528.7375
2834.56959	1527.6375
2837.1	1528.5375
2839.62884	1534.7375
2842.15613	1538.4375
2844.68186	1540.6375
2847.20604	1555.3375
2849.72867	1563.1375
2852.24974	1564.1375
2854.76927	1598.1375
2857.28724	1598.7375
2859.80367	1623.7375
2862.31855	1643.4375
2864.83189	1670.6375
2867.34368	1711.8375
2869.85393	1730.2375
2872.36264	1768.9375
2874.8698	1793.7375
2877.37543	1820.8375
2879.87952	1840.9375
2882.38207	1864.0375
2884.88308	1888.6375
2887.38256	1910.6375
2889.88051	1941.4375
2892.37692	1966.2375
2894.8718	1982.2375
2897.36515	2001.4375
2899.85698	2027.2375
2902.34727	2046.1375
2904.83604	2042.2375
2907.32328	2061.5375
2909.809	2073.1375
2912.29319	2088.8375
2914.77587	2101.1375
2917.25702	2106.7375
2919.73665	2126.5375
2922.21476	2151.9375
2924.69136	2159.7375
2927.16644	2164.0375
2929.64	2170.2375
2932.11205	2173.5375
2934.58258	2176.7375
2937.05161	2154.0375
2939.51912	2151.7375
2941.98513	2119.4375
2944.44962	2095.3375
2946.91261	2062.8375
2949.37409	2041.8375
2951.83407	1997.4375
2954.29254	1962.3375
2956.74951	1940.7375
2959.20498	1918.9375
2961.65895	1892.2375
2964.11142	1878.0375
2966.56239	1851.3375
2969.01186	1839.1375
2971.45984	1817.4375
2973.90632	1796.0375
2976.35131	1773.1375
2978.7948	1756.8375
2981.23681	1725.0375
2983.67732	1704.0375
2986.11635	1690.7375
2988.55388	1669.3375
2990.98993	1645.7375
2993.4245	1640.7375
2995.85758	1631.3375
2998.28917	1610.6375
3000.71928	1596.8375
3003.14791	1596.8375
3005.57506	1581.4375
3008.00073	1584.9375
3010.42493	1579.5375
3012.84764	1573.3375
3015.26888	1561.5375
3017.68865	1558.3375
3020.10694	1552.5375
3022.52376	1551.2375
3024.9391	1539.7375
3027.35298	1542.0375
3029.76539	1528.0375
3032.17632	1525.7375
3034.5858	1527.4375
3036.9938	1521.7375
3039.40034	1517.3375
3041.80542	1518.1375
3044.20903	1517.3375
3046.61118	1517.3375
3049.01187	1519.5375
3051.4111	1506.0375
3053.80888	1514.5375
3056.20519	1516.0375
3058.60005	1513.5375
3060.99345	1520.1375
3063.3854	1518.6375
3065.7759	1519.5375
3068.16494	1523.9375
3070.55254	1524.3375
3072.93868	1530.7375
3075.32338	1528.2375
3077.70662	1520.8375
3080.08842	1514.6375
3082.46878	1527.8375
3084.84769	1538.0375
3087.22515	1543.7375
3089.60118	1542.6375
3091.97576	1560.2375
3094.3489	1561.1375
3096.72061	1563.2375
3099.09087	1564.5375
3101.4597	1576.3375
3103.82709	1580.4375
3106.19305	1586.0375
3108.55757	1586.1375
3110.92066	1595.0375
3113.28232	1598.7375
3115.64255	1603.7375
3118.00134	1612.4375
3120.35871	1608.7375
3122.71466	1613.8375
3125.06917	1621.7375
3127.42226	1620.2375
3129.77393	1632.2375
3132.12417	1640.3375
3134.47299	1643.3375
3136.82039	1661.6375
3139.16636	1661.2375
3141.51092	1663.5375
3143.85406	1677.4375
3146.19579	1680.8375
3148.53609	1693.9375
3150.87499	1710.5375
3153.21246	1722.0375
3155.54853	1731.0375
3157.88318	1734.9375
3160.21642	1746.8375
3162.54826	1754.2375
3164.87868	1759.2375
3167.2077	1769.9375
3169.5353	1762.6375
3171.86151	1776.7375
3174.18631	1779.7375
3176.5097	1791.5375
3178.83169	1789.8375
3181.15228	1808.8375
3183.47147	1812.1375
3185.78926	1819.2375
3188.10565	1824.3375
3190.42065	1830.5375
3192.73424	1835.0375
3195.04645	1837.6375
3197.35725	1851.1375
3199.66667	1847.2375
3201.97469	1862.0375
3204.28132	1857.8375
3206.58656	1872.8375
3208.8904	1878.5375
3211.19287	1887.1375
3213.49394	1895.9375
3215.79363	1894.9375
3218.09193	1904.7375
3220.38884	1910.1375
3222.68438	1910.4375
3224.97853	1913.2375
3227.2713	1916.0375
3229.56269	1909.3375
3231.8527	1921.3375
3234.14133	1918.1375
3236.42858	1921.4375
3238.71446	1924.0375
3240.99896	1919.7375
3243.28209	1927.3375
3245.56384	1922.5375
3247.84423	1933.3375
3250.12324	1939.7375
3252.40088	1941.6375
3254.67715	1939.6375
3256.95205	1932.0375
3259.22558	1935.3375
3261.49775	1943.7375
3263.76855	1943.2375
3266.03799	1940.2375
3268.30606	1930.2375
3270.57277	1932.8375
3272.83812	1929.1375
3275.10211	1921.8375
3277.36474	1922.8375
3279.62601	1916.0375
3281.88593	1913.0375
3284.14448	1907.6375
3286.40168	1920.9375
3288.65753	1921.8375
3290.91202	1908.4375
3293.16516	1899.5375
3295.41695	1903.1375
3297.66738	1881.1375
3299.91647	1877.4375
3302.16421	1869.3375
3304.4106	1864.6375
3306.65564	1870.6375
3308.89933	1850.1375
3311.14169	1840.5375
3313.38269	1831.7375
3315.62236	1819.8375
3317.86068	1803.8375
3320.09766	1789.2375
3322.3333	1781.2375
3324.5676	1786.2375
3326.80056	1746.6375
3329.03219	1742.4375
3331.26248	0.4375
3333.49143	-0.5625
3335.71905	0.4375
