Data from AgNP_FTO_APTES_CRN_0uM_R6G_10uM_NaF_0.1M_Addition_RamanShift__44__12-21-02-951.txt Node

Date: Wed Dec 15 12:21:02 GMT 2021
User: TCL
Spectrometer: QEP01345
Trigger mode: 4
Integration Time (sec): 7.000000E0
Scans to average: 10
Electric dark correction enabled: true
Nonlinearity correction enabled: false
Boxcar width: 0
XAxis mode: Raman Shifts
Number of Pixels in Spectrum: 1044
>>>>>Begin Spectral Data<<<<<
46.04893	-0.2875
50.45542	-2.3875
54.85868	-1.0875
59.25871	-0.7875
63.6555	158.7125
68.04907	166.0125
72.43941	173.9125
76.82654	180.8125
81.21044	190.8125
85.59113	195.9125
89.96862	202.0125
94.34289	206.3125
98.71396	215.2125
103.08183	221.5125
107.4465	230.9125
111.80798	231.8125
116.16626	236.3125
120.52136	245.2125
124.87327	249.2125
129.222	265.2125
133.56755	282.3125
137.90993	295.0125
142.24913	318.4125
146.58517	353.4125
150.91804	405.7125
155.24774	471.1125
159.57429	577.9125
163.89768	732.6125
168.21792	948.8125
172.53501	1286.1125
176.84895	1774.4125
181.15975	2474.0125
185.46741	3447.2125
189.77193	4751.5125
194.07331	6331.7125
198.37157	8153.2125
202.6667	10045.9125
206.9587	11955.4125
211.24758	13815.6125
215.53334	15735.4125
219.81599	17741.6125
224.09553	19999.3125
228.37195	22428.7125
232.64527	25142.2125
236.91549	27928.6125
241.18261	30683.7125
245.44663	33208.5125
249.70755	35528.1125
253.96539	37463.1125
258.22014	39106.3125
262.4718	40482.7125
266.72039	41355.2125
270.96589	41754.7125
275.20832	41685.4125
279.44768	41298.6125
283.68397	40818.4125
287.91719	40394.0125
292.14735	40169.4125
296.37445	40075.3125
300.59849	40082.5125
304.81948	40312.3125
309.03742	40429.6125
313.25231	40465.0125
317.46415	40196.4125
321.67296	39822.9125
325.87872	39399.4125
330.08145	39265.4125
334.28114	39327.2125
338.47781	39587.1125
342.67145	40005.4125
346.86207	40622.0125
351.04966	41300.1125
355.23424	42127.3125
359.4158	42817.6125
363.59435	43463.4125
367.76989	43764.6125
371.94243	44011.7125
376.11196	44136.2125
380.27849	44254.9125
384.44203	44522.1125
388.60257	44868.9125
392.76012	45271.2125
396.91468	45791.1125
401.06626	46561.2125
405.21485	47169.0125
409.36047	47308.7125
413.50311	47240.2125
417.64277	47576.3125
421.77947	48034.3125
425.9132	48323.7125
430.04396	48545.3125
434.17176	48743.1125
438.2966	49033.2125
442.41849	49868.6125
446.53742	51380.4125
450.6534	53068.0125
454.76644	54186.1125
458.87653	54291.7125
462.98368	53514.8125
467.08789	52314.3125
471.18916	50908.8125
475.2875	49395.4125
479.38291	48334.3125
483.4754	47883.6125
487.56496	47652.0125
491.6516	47359.9125
495.73531	47277.3125
499.81612	47386.1125
503.89401	47982.2125
507.96899	48231.8125
512.04106	48147.5125
516.11023	47725.0125
520.1765	47369.4125
524.23987	47195.3125
528.30034	47082.9125
532.35792	46790.5125
536.41261	46137.9125
540.46441	45384.8125
544.51333	45108.1125
548.55936	45380.1125
552.60252	46183.8125
556.64279	47220.9125
560.6802	48103.4125
564.71473	48542.0125
568.7464	49027.4125
572.7752	50213.2125
576.80114	51816.7125
580.82422	54161.3125
584.84444	57270.7125
588.86181	60898.8125
592.87633	63536.6125
596.888	62964.3125
600.89682	59548.5125
604.9028	57984.2125
608.90594	60449.2125
612.90624	62852.9125
616.90371	59057.5125
620.89834	51635.1125
624.89015	48130.1125
628.87913	47515.6125
632.86528	47181.6125
636.84862	46547.0125
640.82913	45455.0125
644.80683	44494.1125
648.78172	44132.5125
652.75379	44411.2125
656.72306	45057.8125
660.68952	45679.2125
664.65319	45265.1125
668.61405	44621.2125
672.57211	44599.8125
676.52738	44907.0125
680.47986	44783.7125
684.42955	44379.7125
688.37646	44288.4125
692.32058	44729.2125
696.26192	45674.3125
700.20048	46625.5125
704.13626	47001.6125
708.06928	46837.8125
711.99952	46583.5125
715.927	46882.3125
719.85171	47375.6125
723.77365	47208.3125
727.69284	46319.1125
731.60928	45483.9125
735.52295	45237.5125
739.43388	45267.8125
743.34206	45450.9125
747.24749	45730.2125
751.15017	46199.9125
755.05012	46868.8125
758.94733	47974.5125
762.8418	49816.1125
766.73354	52359.1125
770.62254	54372.0125
774.50882	54197.1125
778.39237	51973.4125
782.27321	49378.1125
786.15132	47363.0125
790.02671	46033.8125
793.89938	45569.3125
797.76935	45450.9125
801.6366	45586.7125
805.50115	45633.5125
809.36299	45365.6125
813.22213	44930.1125
817.07857	44487.6125
820.93231	44142.7125
824.78336	43920.4125
828.63172	43782.1125
832.47738	43786.1125
836.32036	44019.6125
840.16066	44255.6125
843.99827	44379.1125
847.8332	44293.5125
851.66546	44096.2125
855.49504	44084.3125
859.32195	44068.7125
863.1462	43933.9125
866.96777	43769.1125
870.78668	43729.5125
874.60293	43836.2125
878.41652	43890.5125
882.22745	44143.7125
886.03573	44371.0125
889.84136	44388.4125
893.64433	44202.6125
897.44466	43984.4125
901.24235	43849.0125
905.0374	43770.3125
908.8298	43801.5125
912.61957	43886.7125
916.40671	44354.0125
920.19121	44976.1125
923.97308	45723.0125
927.75233	46064.2125
931.52895	45683.8125
935.30295	44892.0125
939.07433	44042.4125
942.84309	43585.5125
946.60924	43436.9125
950.37278	43475.0125
954.13371	43363.9125
957.89203	43179.5125
961.64774	43024.9125
965.40086	42989.8125
969.15137	42807.9125
972.89929	42721.1125
976.64461	42646.0125
980.38733	42806.5125
984.12747	42967.5125
987.86502	43320.1125
991.59999	43809.6125
995.33237	44578.0125
999.06217	45864.2125
1002.78939	47500.3125
1006.51404	48913.5125
1010.23611	49844.1125
1013.95561	50341.1125
1017.67255	50242.0125
1021.38692	49462.6125
1025.09872	48618.1125
1028.80796	48753.9125
1032.51465	50018.7125
1036.21877	51342.0125
1039.92035	51695.0125
1043.61937	51112.9125
1047.31584	49892.8125
1051.00976	48691.2125
1054.70114	48020.6125
1058.38998	47876.4125
1062.07627	48167.8125
1065.76003	48626.2125
1069.44126	49533.4125
1073.11995	50794.3125
1076.79611	51899.4125
1080.46974	52274.8125
1084.14085	52272.6125
1087.80943	52171.9125
1091.47549	51919.6125
1095.13903	51457.3125
1098.80005	50414.1125
1102.45857	49211.0125
1106.11456	48379.6125
1109.76805	48039.6125
1113.41903	48075.8125
1117.06751	48105.6125
1120.71348	48316.9125
1124.35696	48555.6125
1127.99793	48746.3125
1131.63641	49075.8125
1135.2724	49218.9125
1138.90589	49366.2125
1142.5369	49586.2125
1146.16542	49824.9125
1149.79145	50062.1125
1153.415	50474.3125
1157.03607	51170.6125
1160.65467	53059.0125
1164.27079	55940.3125
1167.88443	59177.5125
1171.49561	62234.0125
1175.10432	65856.2125
1178.71056	70702.2125
1182.31434	75486.1125
1185.91565	77537.5125
1189.51451	76360.9125
1193.11091	73510.2125
1196.70485	70670.3125
1200.29634	68224.2125
1203.88538	66820.2125
1207.47197	66159.9125
1211.05612	65548.4125
1214.63782	64450.8125
1218.21708	63177.2125
1221.79391	61968.5125
1225.36829	61178.9125
1228.94024	60369.5125
1232.50976	59034.8125
1236.07685	57636.1125
1239.6415	56751.3125
1243.20374	56614.6125
1246.76355	57139.7125
1250.32093	58236.3125
1253.8759	59746.0125
1257.42845	61477.1125
1260.97859	63427.7125
1264.52631	65489.5125
1268.07163	67682.0125
1271.61453	69966.7125
1275.15503	72301.2125
1278.69312	74781.5125
1282.22882	77202.5125
1285.76211	79891.4125
1289.29301	82924.6125
1292.82151	86280.7125
1296.34761	90566.8125
1299.87133	96320.9125
1303.39266	102830.1125
1306.9116	108489.4125
1310.42815	112496.1125
1313.94233	113981.7125
1317.45412	112704.0125
1320.96354	109818.7125
1324.47058	107127.2125
1327.97525	105677.6125
1331.47754	104769.1125
1334.97747	103849.9125
1338.47502	101855.5125
1341.97022	98445.8125
1345.46305	94677.1125
1348.95352	92476.3125
1352.44163	93151.1125
1355.92738	97529.3125
1359.41078	104160.1125
1362.89183	109018.4125
1366.37053	109068.1125
1369.84688	101954.3125
1373.32088	90534.6125
1376.79254	81699.3125
1380.26186	78340.8125
1383.72883	78405.4125
1387.19347	78437.6125
1390.65578	76959.6125
1394.11575	75963.5125
1397.57339	76618.4125
1401.0287	78458.5125
1404.48168	80513.4125
1407.93234	81518.3125
1411.38068	81112.4125
1414.82669	79273.5125
1418.27039	76450.0125
1421.71177	73204.4125
1425.15083	70196.1125
1428.58758	69061.0125
1432.02203	70090.6125
1435.45416	72614.4125
1438.88399	75419.1125
1442.31151	77264.5125
1445.73673	77892.7125
1449.15965	77874.7125
1452.58027	76911.2125
1455.9986	75273.9125
1459.41463	74481.2125
1462.82837	75205.7125
1466.23982	77359.4125
1469.64898	79693.0125
1473.05586	81466.9125
1476.46045	82613.9125
1479.86276	82706.6125
1483.26279	82161.5125
1486.66054	81836.0125
1490.05602	82122.9125
1493.44922	82243.7125
1496.84016	81457.2125
1500.22882	80469.7125
1503.61521	79983.1125
1506.99934	80002.0125
1510.38121	80087.6125
1513.76081	79631.9125
1517.13816	78550.7125
1520.51324	77187.9125
1523.88607	76760.9125
1527.25665	77418.8125
1530.62498	78417.9125
1533.99105	78869.1125
1537.35488	78284.6125
1540.71647	76868.4125
1544.07581	74980.6125
1547.4329	72862.2125
1550.78776	70845.1125
1554.14038	69071.1125
1557.49077	67910.6125
1560.83892	66987.9125
1564.18484	66502.4125
1567.52853	66414.6125
1570.86999	67114.6125
1574.20922	68586.9125
1577.54624	70717.4125
1580.88103	72464.9125
1584.2136	74657.1125
1587.54395	78298.8125
1590.87208	83974.4125
1594.19801	90563.1125
1597.52172	96429.9125
1600.84321	97730.1125
1604.16251	92432.0125
1607.47959	82945.4125
1610.79447	73292.2125
1614.10715	65357.3125
1617.41763	59901.6125
1620.7259	56749.8125
1624.03199	55554.1125
1627.33587	56101.1125
1630.63757	58200.7125
1633.93707	62344.5125
1637.23439	69255.0125
1640.52951	79377.9125
1643.82246	91517.7125
1647.11321	100202.4125
1650.40179	99726.7125
1653.68819	89646.8125
1656.97241	75631.2125
1660.25446	63808.0125
1663.53433	55894.6125
1666.81203	51138.4125
1670.08756	48337.8125
1673.36092	46600.7125
1676.63211	45399.2125
1679.90115	44567.2125
1683.16801	43969.8125
1686.43272	43500.5125
1689.69527	43212.4125
1692.95567	42962.1125
1696.2139	42839.1125
1699.46999	42712.5125
1702.72392	42532.3125
1705.97571	42472.3125
1709.22535	42451.1125
1712.47284	42380.7125
1715.71819	42400.5125
1718.96139	42256.2125
1722.20246	42082.2125
1725.44139	41970.9125
1728.67818	41734.0125
1731.91284	41553.2125
1735.14537	41320.0125
1738.37576	41106.7125
1741.60403	40996.0125
1744.83017	40889.1125
1748.05418	40790.0125
1751.27607	40736.9125
1754.49584	40641.0125
1757.71349	40582.9125
1760.92903	40553.2125
1764.14244	40550.2125
1767.35375	40551.5125
1770.56294	40505.4125
1773.77002	40439.1125
1776.97499	40497.3125
1780.17785	40468.6125
1783.37861	40386.4125
1786.57727	40334.7125
1789.77382	40265.4125
1792.96828	40199.2125
1796.16064	40133.6125
1799.3509	40037.6125
1802.53907	40039.7125
1805.72514	39913.0125
1808.90913	39861.5125
1812.09102	39773.5125
1815.27083	39741.3125
1818.44856	39707.2125
1821.6242	39666.0125
1824.79776	39628.9125
1827.96924	39661.7125
1831.13864	39637.1125
1834.30597	39663.8125
1837.47122	39669.7125
1840.6344	39682.8125
1843.7955	39658.3125
1846.95454	39655.1125
1850.11151	39652.7125
1853.26642	39606.0125
1856.41926	39642.0125
1859.57004	39587.5125
1862.71876	39592.5125
1865.86542	39526.3125
1869.01003	39510.6125
1872.15258	39532.1125
1875.29308	39512.9125
1878.43152	39448.3125
1881.56792	39472.2125
1884.70227	39468.2125
1887.83457	39484.8125
1890.96482	39432.7125
1894.09304	39381.1125
1897.21921	39342.7125
1900.34335	39331.3125
1903.46544	39337.1125
1906.58551	39304.2125
1909.70353	39290.1125
1912.81953	39252.4125
1915.93349	39111.4125
1919.04543	38948.5125
1922.15534	38906.2125
1925.26322	38877.5125
1928.36908	38737.2125
1931.47292	38674.8125
1934.57473	38586.9125
1937.67453	38517.3125
1940.77232	38459.6125
1943.86808	38335.7125
1946.96184	38255.2125
1950.05358	38143.5125
1953.14331	38074.6125
1956.23103	37939.1125
1959.31675	37874.8125
1962.40046	37833.8125
1965.48217	37736.2125
1968.56188	37585.8125
1971.63959	37497.8125
1974.7153	37472.3125
1977.78901	37333.1125
1980.86073	37244.7125
1983.93046	37106.7125
1986.99819	36985.5125
1990.06394	36939.5125
1993.1277	36850.0125
1996.18947	36794.0125
1999.24925	36686.6125
2002.30706	36574.3125
2005.36288	36514.4125
2008.41672	36446.9125
2011.46859	36370.2125
2014.51848	36273.7125
2017.56639	36225.9125
2020.61233	36164.0125
2023.6563	36036.1125
2026.6983	35965.2125
2029.73833	35979.7125
2032.7764	35864.4125
2035.8125	35867.2125
2038.84664	35752.8125
2041.87881	35729.2125
2044.90903	35711.7125
2047.93729	35661.9125
2050.96359	35610.0125
2053.98794	35581.8125
2057.01034	35544.7125
2060.03078	35533.0125
2063.04927	35487.4125
2066.06582	35506.1125
2069.08042	35541.8125
2072.09307	35501.9125
2075.10378	35469.3125
2078.11255	35394.4125
2081.11938	35417.2125
2084.12426	35425.4125
2087.12722	35377.2125
2090.12824	35348.3125
2093.12732	35389.1125
2096.12447	35407.7125
2099.11969	35423.4125
2102.11299	35426.2125
2105.10435	35447.4125
2108.09379	35509.4125
2111.08131	35521.4125
2114.0669	35518.5125
2117.05057	35478.5125
2120.03233	35487.8125
2123.01216	35519.4125
2125.99008	35553.2125
2128.96609	35586.7125
2131.94018	35585.6125
2134.91236	35652.2125
2137.88263	35703.2125
2140.851	35700.8125
2143.81746	35739.2125
2146.78201	35754.1125
2149.74466	35800.2125
2152.7054	35751.5125
2155.66425	35795.4125
2158.6212	35784.0125
2161.57625	35834.1125
2164.52941	35772.4125
2167.48067	35850.8125
2170.43004	35846.9125
2173.37752	35759.7125
2176.32311	35762.8125
2179.26681	35740.9125
2182.20863	35775.7125
2185.14856	35852.9125
2188.08661	35848.1125
2191.02278	35818.4125
2193.95707	35805.2125
2196.88948	35892.0125
2199.82001	35844.9125
2202.74867	35883.5125
2205.67545	35841.6125
2208.60037	35832.9125
2211.52341	35774.8125
2214.44458	35726.5125
2217.36388	35699.0125
2220.28132	35677.6125
2223.1969	35630.6125
2226.11061	35619.6125
2229.02246	35519.9125
2231.93245	35437.7125
2234.84058	35422.8125
2237.74686	35403.4125
2240.65128	35367.9125
2243.55385	35318.6125
2246.45456	35282.4125
2249.35343	35215.4125
2252.25044	35157.1125
2255.14561	35076.3125
2258.03893	35076.3125
2260.93041	35041.6125
2263.82004	34940.2125
2266.70783	34819.2125
2269.59378	34744.4125
2272.4779	34693.8125
2275.36017	34664.3125
2278.24061	34613.5125
2281.11922	34522.2125
2283.996	34470.2125
2286.87094	34438.2125
2289.74405	34424.4125
2292.61534	34379.3125
2295.4848	34366.4125
2298.35243	34463.5125
2301.21824	34462.5125
2304.08223	34537.6125
2306.94439	34529.9125
2309.80474	34537.8125
2312.66327	34505.6125
2315.51999	34522.5125
2318.37489	34525.0125
2321.22797	34433.2125
2324.07925	34445.6125
2326.92871	34404.2125
2329.77637	34429.6125
2332.62222	34365.5125
2335.46626	34337.8125
2338.3085	34411.7125
2341.14893	34442.6125
2343.98756	34408.2125
2346.8244	34401.8125
2349.65943	34347.1125
2352.49267	34268.2125
2355.32411	34286.9125
2358.15376	34223.9125
2360.98161	34153.4125
2363.80768	34172.0125
2366.63195	34148.6125
2369.45444	34102.5125
2372.27514	34051.1125
2375.09405	34001.4125
2377.91118	33939.1125
2380.72652	33890.3125
2383.54009	33830.3125
2386.35187	33794.8125
2389.16188	33759.3125
2391.97011	33785.8125
2394.77657	33826.5125
2397.58125	33711.8125
2400.38416	33604.7125
2403.18529	33554.7125
2405.98466	33550.1125
2408.78226	33511.5125
2411.57809	33454.7125
2414.37216	33386.9125
2417.16446	33413.3125
2419.955	33311.5125
2422.74378	33313.2125
2425.5308	33307.2125
2428.31606	33229.3125
2431.09956	33227.8125
2433.88131	33157.9125
2436.6613	33199.4125
2439.43954	33168.7125
2442.21603	33170.7125
2444.99077	33144.6125
2447.76377	33142.2125
2450.53501	33077.7125
2453.30451	33115.7125
2456.07226	33116.0125
2458.83827	33130.7125
2461.60254	33147.8125
2464.36507	33175.2125
2467.12586	33164.8125
2469.88492	33155.9125
2472.64224	33165.0125
2475.39782	33204.1125
2478.15167	33213.2125
2480.90379	33180.5125
2483.65417	33196.3125
2486.40283	33211.8125
2489.14976	33210.7125
2491.89497	33233.0125
2494.63845	33225.3125
2497.3802	33191.4125
2500.12024	33285.5125
2502.85855	33288.1125
2505.59514	33268.8125
2508.33002	33215.8125
2511.06318	33150.9125
2513.79462	33106.7125
2516.52435	33149.8125
2519.25237	33122.6125
2521.97867	33071.5125
2524.70327	33093.3125
2527.42616	33112.3125
2530.14734	33105.6125
2532.86681	33060.7125
2535.58458	33055.1125
2538.30065	33026.6125
2541.01501	32989.2125
2543.72768	32964.1125
2546.43864	33003.7125
2549.14791	32990.1125
2551.85548	32992.1125
2554.56136	32933.6125
2557.26554	32863.6125
2559.96803	32865.4125
2562.66883	32859.9125
2565.36794	32845.9125
2568.06536	32864.8125
2570.7611	32819.3125
2573.45514	32843.1125
2576.14751	32882.1125
2578.83819	32826.2125
2581.52719	32795.8125
2584.21451	32737.7125
2586.90015	32743.9125
2589.58411	32729.9125
2592.2664	32720.2125
2594.94701	32694.1125
2597.62594	32656.1125
2600.30321	32651.4125
2602.9788	32604.8125
2605.65273	32618.5125
2608.32498	32587.7125
2610.99557	32595.5125
2613.66449	32658.3125
2616.33175	32607.1125
2618.99734	32637.8125
2621.66128	32576.4125
2624.32355	32582.7125
2626.98416	32561.4125
2629.64311	32557.9125
2632.30041	32512.3125
2634.95605	32490.4125
2637.61004	32499.5125
2640.26238	32449.2125
2642.91306	32463.2125
2645.56209	32419.0125
2648.20948	32387.4125
2650.85521	32343.2125
2653.4993	32417.6125
2656.14175	32447.6125
2658.78255	32426.6125
2661.42171	32508.6125
2664.05923	32511.8125
2666.6951	32491.4125
2669.32934	32572.1125
2671.96194	32550.9125
2674.59291	32527.3125
2677.22224	32495.4125
2679.84993	32496.5125
2682.476	32485.8125
2685.10043	32501.1125
2687.72324	32463.0125
2690.34441	32450.4125
2692.96396	32441.9125
2695.58188	32555.7125
2698.19818	32484.6125
2700.81285	32476.7125
2703.4259	32487.2125
2706.03733	32548.0125
2708.64714	32527.4125
2711.25533	32576.8125
2713.86191	32534.5125
2716.46687	32614.0125
2719.07021	32592.3125
2721.67194	32621.6125
2724.27206	32582.5125
2726.87057	32654.1125
2729.46747	32635.7125
2732.06276	32682.5125
2734.65644	32710.7125
2737.24852	32717.2125
2739.83899	32735.3125
2742.42786	32701.6125
2745.01513	32694.4125
2747.60079	32677.0125
2750.18486	32587.9125
2752.76733	32658.7125
2755.3482	32665.3125
2757.92747	32710.7125
2760.50515	32669.4125
2763.08123	32636.2125
2765.65573	32624.5125
2768.22863	32710.4125
2770.79994	32665.0125
2773.36967	32634.0125
2775.9378	32599.5125
2778.50435	32607.6125
2781.06932	32572.2125
2783.6327	32549.4125
2786.1945	32546.1125
2788.75471	32519.5125
2791.31335	32492.2125
2793.87041	32471.2125
2796.42589	32350.4125
2798.97979	32326.5125
2801.53212	32275.8125
2804.08288	32248.5125
2806.63206	32151.8125
2809.17967	32086.4125
2811.72571	32062.1125
2814.27018	32052.4125
2816.81308	32009.3125
2819.35442	31970.4125
2821.89419	31945.0125
2824.43239	31948.0125
2826.96904	31885.5125
2829.50412	31896.6125
2832.03763	31832.6125
2834.56959	31846.8125
2837.1	31815.7125
2839.62884	31813.7125
2842.15613	31739.0125
2844.68186	31724.7125
2847.20604	31725.2125
2849.72867	31711.4125
2852.24974	31692.1125
2854.76927	31664.1125
2857.28724	31660.9125
2859.80367	31640.2125
2862.31855	31644.9125
2864.83189	31662.6125
2867.34368	31655.6125
2869.85393	31661.8125
2872.36264	31580.4125
2874.8698	31568.3125
2877.37543	31585.4125
2879.87952	31642.1125
2882.38207	31693.1125
2884.88308	31662.7125
2887.38256	31700.5125
2889.88051	31717.0125
2892.37692	31768.0125
2894.8718	31836.3125
2897.36515	31802.1125
2899.85698	31814.1125
2902.34727	31872.6125
2904.83604	31858.2125
2907.32328	31951.4125
2909.809	31934.1125
2912.29319	31971.3125
2914.77587	31895.0125
2917.25702	31876.4125
2919.73665	31871.9125
2922.21476	31923.7125
2924.69136	31847.6125
2927.16644	31884.2125
2929.64	31828.2125
2932.11205	31789.2125
2934.58258	31710.7125
2937.05161	31778.6125
2939.51912	31773.5125
2941.98513	31778.2125
2944.44962	31682.0125
2946.91261	31556.2125
2949.37409	31620.6125
2951.83407	31634.0125
2954.29254	31618.4125
2956.74951	31559.3125
2959.20498	31563.6125
2961.65895	31512.7125
2964.11142	31515.0125
2966.56239	31405.5125
2969.01186	31420.4125
2971.45984	31297.6125
2973.90632	31233.4125
2976.35131	31222.5125
2978.7948	31203.8125
2981.23681	31083.5125
2983.67732	31012.7125
2986.11635	30908.7125
2988.55388	30909.4125
2990.98993	30861.4125
2993.4245	30786.4125
2995.85758	30659.1125
2998.28917	30634.0125
3000.71928	30595.2125
3003.14791	30443.0125
3005.57506	30425.1125
3008.00073	30405.6125
3010.42493	30389.4125
3012.84764	30360.9125
3015.26888	30389.9125
3017.68865	30309.8125
3020.10694	30334.2125
3022.52376	30148.1125
3024.9391	30140.5125
3027.35298	30085.7125
3029.76539	30074.3125
3032.17632	30076.6125
3034.5858	30006.4125
3036.9938	29991.6125
3039.40034	29935.9125
3041.80542	29947.0125
3044.20903	29858.3125
3046.61118	29910.1125
3049.01187	29794.3125
3051.4111	29785.4125
3053.80888	29743.4125
3056.20519	29690.4125
3058.60005	29613.1125
3060.99345	29568.0125
3063.3854	29559.4125
3065.7759	29470.4125
3068.16494	29413.2125
3070.55254	29345.5125
3072.93868	29284.7125
3075.32338	29136.4125
3077.70662	29088.9125
3080.08842	29033.7125
3082.46878	29065.1125
3084.84769	29045.7125
3087.22515	29003.7125
3089.60118	29061.8125
3091.97576	29034.5125
3094.3489	28973.4125
3096.72061	28946.5125
3099.09087	28921.5125
3101.4597	28915.8125
3103.82709	28888.7125
3106.19305	28851.1125
3108.55757	28804.3125
3110.92066	28743.2125
3113.28232	28712.3125
3115.64255	28645.7125
3118.00134	28563.0125
3120.35871	28542.5125
3122.71466	28495.2125
3125.06917	28455.0125
3127.42226	28350.8125
3129.77393	28418.7125
3132.12417	28441.0125
3134.47299	28373.1125
3136.82039	28400.8125
3139.16636	28430.8125
3141.51092	28415.4125
3143.85406	28372.3125
3146.19579	28350.1125
3148.53609	28320.8125
3150.87499	28313.7125
3153.21246	28349.2125
3155.54853	28400.2125
3157.88318	28297.4125
3160.21642	28308.8125
3162.54826	28226.7125
3164.87868	28240.7125
3167.2077	28175.2125
3169.5353	28181.6125
3171.86151	28189.3125
3174.18631	28152.9125
3176.5097	28173.0125
3178.83169	28150.6125
3181.15228	28134.1125
3183.47147	28046.4125
3185.78926	28049.5125
3188.10565	28052.8125
3190.42065	28049.6125
3192.73424	28069.5125
3195.04645	28055.0125
3197.35725	28026.8125
3199.66667	27993.6125
3201.97469	28040.6125
3204.28132	27961.2125
3206.58656	27978.9125
3208.8904	27960.9125
3211.19287	27947.8125
3213.49394	27885.7125
3215.79363	27962.2125
3218.09193	27959.6125
3220.38884	27914.8125
3222.68438	27936.9125
3224.97853	27883.8125
3227.2713	27897.8125
3229.56269	27869.3125
3231.8527	27876.6125
3234.14133	27810.7125
3236.42858	27784.7125
3238.71446	27739.4125
3240.99896	27669.0125
3243.28209	27703.9125
3245.56384	27698.1125
3247.84423	27699.7125
3250.12324	27688.5125
3252.40088	27694.0125
3254.67715	27591.7125
3256.95205	27542.9125
3259.22558	27477.8125
3261.49775	27457.9125
3263.76855	27431.0125
3266.03799	27321.5125
3268.30606	27347.7125
3270.57277	27320.6125
3272.83812	27279.9125
3275.10211	27254.3125
3277.36474	27215.2125
3279.62601	27240.4125
3281.88593	27207.2125
3284.14448	27263.9125
3286.40168	27228.9125
3288.65753	27219.2125
3290.91202	27169.1125
3293.16516	27089.8125
3295.41695	27027.4125
3297.66738	26883.7125
3299.91647	26762.0125
3302.16421	26582.2125
3304.4106	26495.1125
3306.65564	26387.2125
3308.89933	26242.1125
3311.14169	26074.2125
3313.38269	25870.5125
3315.62236	25724.9125
3317.86068	25530.1125
3320.09766	25222.6125
3322.3333	25021.3125
3324.5676	25040.4125
3326.80056	24641.9125
3329.03219	24508.0125
3331.26248	6.9125
3333.49143	-1.4875
3335.71905	-0.6875
