Data from AgNP_FTO_APTES_CRN_20uM_R6G_10uM_NaF_0.1M_Addition_RamanShift__34__17-40-08-047.txt Node

Date: Wed Dec 15 17:40:08 GMT 2021
User: TCL
Spectrometer: QEP01345
Trigger mode: 4
Integration Time (sec): 7.000000E0
Scans to average: 10
Electric dark correction enabled: true
Nonlinearity correction enabled: false
Boxcar width: 0
XAxis mode: Raman Shifts
Number of Pixels in Spectrum: 1044
>>>>>Begin Spectral Data<<<<<
46.04893	1.1
50.45542	-1
54.85868	-0.3
59.25871	-1.6
63.6555	45.8
68.04907	47.8
72.43941	53.6
76.82654	56.5
81.21044	58.4
85.59113	58.8
89.96862	61.5
94.34289	60.6
98.71396	67.2
103.08183	68.8
107.4465	72.1
111.80798	71.4
116.16626	73
120.52136	75.5
124.87327	72.6
129.222	74.6
133.56755	76.7
137.90993	82.3
142.24913	85.6
146.58517	88.8
150.91804	98.5
155.24774	112.2
159.57429	139.8
163.89768	165.2
168.21792	212.1
172.53501	275.2
176.84895	375.3
181.15975	522.6
185.46741	720.2
189.77193	987
194.07331	1320.6
198.37157	1689.2
202.6667	2092.3
206.9587	2478.8
211.24758	2876.3
215.53334	3301.5
219.81599	3739
224.09553	4271.2
228.37195	4813.8
232.64527	5426
236.91549	6031.5
241.18261	6609.5
245.44663	7108.1
249.70755	7506.5
253.96539	7824.4
258.22014	8138.4
262.4718	8443.7
266.72039	8650.3
270.96589	8771.4
275.20832	8818.6
279.44768	8759.2
283.68397	8635.1
287.91719	8583.7
292.14735	8587
296.37445	8748.5
300.59849	8990.4
304.81948	9308
309.03742	9541.9
313.25231	9519.4
317.46415	9146.6
321.67296	8540.8
325.87872	8027
330.08145	7771.6
334.28114	7757
338.47781	7871.3
342.67145	8060
346.86207	8378.1
351.04966	8796.8
355.23424	9309.4
359.4158	9701.2
363.59435	9893.1
367.76989	9971.2
371.94243	9913.2
376.11196	9876.6
380.27849	9835.8
384.44203	9742.2
388.60257	9642.4
392.76012	9633.3
396.91468	9721.2
401.06626	9963.4
405.21485	10177.6
409.36047	10035.8
413.50311	9588.1
417.64277	9196.6
421.77947	8955.8
425.9132	8883.3
430.04396	8866.3
434.17176	8928.5
438.2966	9024
442.41849	9207.5
446.53742	9469.8
450.6534	9715.8
454.76644	9882.7
458.87653	9945.2
462.98368	9866.9
467.08789	9728.7
471.18916	9545.1
475.2875	9346
479.38291	9155.9
483.4754	9000.3
487.56496	8923.7
491.6516	8826.3
495.73531	8818.1
499.81612	8819
503.89401	8900.2
507.96899	8994.4
512.04106	9137.7
516.11023	9303.9
520.1765	9412.1
524.23987	9415.3
528.30034	9274.4
532.35792	9100
536.41261	8923.6
540.46441	8727.7
544.51333	8639.8
548.55936	8684.3
552.60252	8853.8
556.64279	9032.4
560.6802	9152.7
564.71473	9231.1
568.7464	9532.7
572.7752	9737.4
576.80114	9551.2
580.82422	9320.2
584.84444	9235.1
588.86181	9189.1
592.87633	9237.5
596.888	9338.3
600.89682	9622.9
604.9028	10537.5
608.90594	12910.7
612.90624	16106.5
616.90371	15671.2
620.89834	11495.5
624.89015	9421.9
628.87913	9037.6
632.86528	9087.4
636.84862	9188.2
640.82913	9105.9
644.80683	8773.2
648.78172	8574.7
652.75379	8625.4
656.72306	8933.3
660.68952	9294.9
664.65319	9265.2
668.61405	8902.3
672.57211	8695.1
676.52738	8684.1
680.47986	8678.2
684.42955	8654.5
688.37646	8629.2
692.32058	8674.6
696.26192	8730
700.20048	8836.7
704.13626	8944.3
708.06928	8936.9
711.99952	8847.4
715.927	8818.6
719.85171	8829.3
723.77365	8801.3
727.69284	8733
731.60928	8649.8
735.52295	8672.4
739.43388	8695.3
743.34206	8740.4
747.24749	8763
751.15017	8832.8
755.05012	8985
758.94733	9326.5
762.8418	10137.1
766.73354	11526.9
770.62254	12980.7
774.50882	13712.6
778.39237	13186.6
782.27321	11711.6
786.15132	10211.8
790.02671	9331.5
793.89938	8957.8
797.76935	8797.7
801.6366	8732.7
805.50115	8671.3
809.36299	8628.1
813.22213	8583.6
817.07857	8599.5
820.93231	8604.3
824.78336	8635
828.63172	8671.6
832.47738	8706.2
836.32036	8716.9
840.16066	8704.8
843.99827	8637.8
847.8332	8602
851.66546	8590
855.49504	8598.8
859.32195	8573.7
863.1462	8519.9
866.96777	8494.8
870.78668	8487.3
874.60293	8490.6
878.41652	8558.6
882.22745	8555.7
886.03573	8589.1
889.84136	8599.9
893.64433	8545.4
897.44466	8515.8
901.24235	8525.1
905.0374	8502.4
908.8298	8492.5
912.61957	8492.7
916.40671	8519
920.19121	8583.3
923.97308	8636.4
927.75233	8704.6
931.52895	8775.4
935.30295	8700
939.07433	8505.3
942.84309	8345.7
946.60924	8229.6
950.37278	8180.9
954.13371	8147.6
957.89203	8130.9
961.64774	8099.3
965.40086	8084.9
969.15137	8042.3
972.89929	8039
976.64461	8018.5
980.38733	8002.7
984.12747	8054.7
987.86502	8081.9
991.59999	8112.1
995.33237	8175.9
999.06217	8309.6
1002.78939	8485.1
1006.51404	8652.3
1010.23611	8778
1013.95561	8929.5
1017.67255	8931.2
1021.38692	8799.5
1025.09872	8698.5
1028.80796	8647.3
1032.51465	8719.8
1036.21877	8836.9
1039.92035	8900.2
1043.61937	8893.9
1047.31584	8853.1
1051.00976	8817.6
1054.70114	8765.8
1058.38998	8807.2
1062.07627	8863.7
1065.76003	8936.3
1069.44126	9083.8
1073.11995	9260.7
1076.79611	9426.1
1080.46974	9544.9
1084.14085	9661.6
1087.80943	9739.8
1091.47549	9706.5
1095.13903	9495.4
1098.80005	9199.5
1102.45857	8930
1106.11456	8810.8
1109.76805	8835.1
1113.41903	8991.6
1117.06751	9181.3
1120.71348	9471.1
1124.35696	9787.8
1127.99793	10070.7
1131.63641	10086.1
1135.2724	9716.6
1138.90589	9360.5
1142.5369	9142.9
1146.16542	8965.2
1149.79145	8889.9
1153.415	8894.9
1157.03607	8961.8
1160.65467	9121.5
1164.27079	9369.8
1167.88443	9744.1
1171.49561	10402
1175.10432	11479.8
1178.71056	12873.1
1182.31434	13875.8
1185.91565	14037.4
1189.51451	13634.8
1193.11091	12922.2
1196.70485	12026.1
1200.29634	11369.7
1203.88538	10891
1207.47197	10368.3
1211.05612	9901.1
1214.63782	9690.2
1218.21708	9615.9
1221.79391	9621.2
1225.36829	9652.8
1228.94024	9713.8
1232.50976	9741.2
1236.07685	9796.4
1239.6415	9850.5
1243.20374	9927
1246.76355	9968.7
1250.32093	10074.7
1253.8759	10280.8
1257.42845	10536.6
1260.97859	10773.3
1264.52631	11030.1
1268.07163	11257.4
1271.61453	11483.4
1275.15503	11652.8
1278.69312	11745.1
1282.22882	11784.6
1285.76211	11982.7
1289.29301	12272
1292.82151	12569.4
1296.34761	12875.9
1299.87133	13338.2
1303.39266	14141.3
1306.9116	15414.9
1310.42815	16958.4
1313.94233	17916.8
1317.45412	17730.9
1320.96354	16714.5
1324.47058	15553.4
1327.97525	14601.9
1331.47754	14061.3
1334.97747	13899.1
1338.47502	14052.3
1341.97022	14391.5
1345.46305	14793.9
1348.95352	15392.7
1352.44163	16223.8
1355.92738	17571.8
1359.41078	19695.9
1362.89183	21836.9
1366.37053	21525.5
1369.84688	18702.9
1373.32088	15747.5
1376.79254	13816
1380.26186	12860.6
1383.72883	12352.2
1387.19347	11979
1390.65578	11594.8
1394.11575	11209.6
1397.57339	11014.9
1401.0287	11007.5
1404.48168	11131.1
1407.93234	11315.6
1411.38068	11476.1
1414.82669	11509.8
1418.27039	11346.4
1421.71177	11111.5
1425.15083	10900.7
1428.58758	10791.1
1432.02203	10817
1435.45416	10935.3
1438.88399	10957.3
1442.31151	10960.5
1445.73673	11016.6
1449.15965	11033.4
1452.58027	11017.1
1455.9986	10875.8
1459.41463	10845.3
1462.82837	10910.3
1466.23982	11102.3
1469.64898	11350.1
1473.05586	11500.2
1476.46045	11656.4
1479.86276	11896.2
1483.26279	12123.4
1486.66054	12454.7
1490.05602	12829
1493.44922	13329.1
1496.84016	13981.1
1500.22882	14956.7
1503.61521	16371
1506.99934	17949.3
1510.38121	19531.1
1513.76081	20383
1517.13816	19674.8
1520.51324	17671.5
1523.88607	15564
1527.25665	14041.7
1530.62498	13166.1
1533.99105	12653
1537.35488	12378.1
1540.71647	12184.5
1544.07581	12092.6
1547.4329	12025.2
1550.78776	11944
1554.14038	11883.6
1557.49077	11970.8
1560.83892	12154.3
1564.18484	12435.2
1567.52853	12756.4
1570.86999	13059.1
1574.20922	13312
1577.54624	13401.9
1580.88103	13031.8
1584.2136	12381.4
1587.54395	11924.9
1590.87208	11861.6
1594.19801	12239.5
1597.52172	12930.9
1600.84321	13276.2
1604.16251	12939
1607.47959	12256.7
1610.79447	11451.2
1614.10715	10703.7
1617.41763	10132.3
1620.7259	9734.4
1624.03199	9549.5
1627.33587	9549.7
1630.63757	9700.8
1633.93707	10032.1
1637.23439	10583.7
1640.52951	11362.7
1643.82246	12368.4
1647.11321	13627.1
1650.40179	14637.1
1653.68819	14463.4
1656.97241	12990.1
1660.25446	11210.3
1663.53433	9909.9
1666.81203	9122.2
1670.08756	8675.5
1673.36092	8392.3
1676.63211	8187.2
1679.90115	8067.3
1683.16801	7971.3
1686.43272	7889.9
1689.69527	7860.6
1692.95567	7819.5
1696.2139	7830.7
1699.46999	7826.2
1702.72392	7805.7
1705.97571	7791.9
1709.22535	7777.8
1712.47284	7761.2
1715.71819	7767
1718.96139	7747.1
1722.20246	7746.9
1725.44139	7712.8
1728.67818	7663
1731.91284	7611.1
1735.14537	7593.8
1738.37576	7536.3
1741.60403	7519.4
1744.83017	7498.1
1748.05418	7472.6
1751.27607	7473.6
1754.49584	7466.4
1757.71349	7443.1
1760.92903	7465.7
1764.14244	7467.8
1767.35375	7457
1770.56294	7447.7
1773.77002	7419.5
1776.97499	7413.9
1780.17785	7362.6
1783.37861	7368.9
1786.57727	7357.6
1789.77382	7316.7
1792.96828	7310.2
1796.16064	7295
1799.3509	7285.9
1802.53907	7282.1
1805.72514	7273.3
1808.90913	7260.8
1812.09102	7236.7
1815.27083	7211.1
1818.44856	7203.8
1821.6242	7188.5
1824.79776	7191.5
1827.96924	7161.7
1831.13864	7169.4
1834.30597	7176.9
1837.47122	7171.2
1840.6344	7155.7
1843.7955	7160.4
1846.95454	7155.2
1850.11151	7147.1
1853.26642	7134.5
1856.41926	7138.1
1859.57004	7143.3
1862.71876	7137.2
1865.86542	7167.6
1869.01003	7144
1872.15258	7138
1875.29308	7137.4
1878.43152	7118.2
1881.56792	7122.1
1884.70227	7123.7
1887.83457	7102.3
1890.96482	7108.2
1894.09304	7088.4
1897.21921	7097
1900.34335	7101
1903.46544	7072.2
1906.58551	7098.7
1909.70353	7077.2
1912.81953	7084.5
1915.93349	7070.6
1919.04543	7054.1
1922.15534	7037.4
1925.26322	7040.6
1928.36908	7033.3
1931.47292	7005.8
1934.57473	6994.8
1937.67453	6957.8
1940.77232	6925.1
1943.86808	6918.2
1946.96184	6897.3
1950.05358	6896
1953.14331	6867.8
1956.23103	6832.8
1959.31675	6814.1
1962.40046	6783.9
1965.48217	6782.8
1968.56188	6770.7
1971.63959	6742.3
1974.7153	6728.3
1977.78901	6689.3
1980.86073	6678.8
1983.93046	6658
1986.99819	6629.3
1990.06394	6608.8
1993.1277	6599.2
1996.18947	6551.4
1999.24925	6551.5
2002.30706	6514.1
2005.36288	6524.6
2008.41672	6494.9
2011.46859	6477.1
2014.51848	6467.1
2017.56639	6447.6
2020.61233	6409.6
2023.6563	6412.6
2026.6983	6395.3
2029.73833	6376.9
2032.7764	6346.1
2035.8125	6348.1
2038.84664	6315.1
2041.87881	6330
2044.90903	6313.2
2047.93729	6303.4
2050.96359	6278.9
2053.98794	6280.1
2057.01034	6273.2
2060.03078	6254
2063.04927	6257.7
2066.06582	6259.8
2069.08042	6232.4
2072.09307	6236
2075.10378	6225.8
2078.11255	6221.5
2081.11938	6234.2
2084.12426	6227.9
2087.12722	6220.6
2090.12824	6217.5
2093.12732	6233.1
2096.12447	6219.6
2099.11969	6215.1
2102.11299	6219.2
2105.10435	6223.3
2108.09379	6230.6
2111.08131	6236.1
2114.0669	6219.1
2117.05057	6223.3
2120.03233	6219.9
2123.01216	6254.1
2125.99008	6230.6
2128.96609	6252.7
2131.94018	6249.6
2134.91236	6244.8
2137.88263	6254.7
2140.851	6278
2143.81746	6271.2
2146.78201	6251.6
2149.74466	6260.2
2152.7054	6278.1
2155.66425	6254.8
2158.6212	6256.5
2161.57625	6233.8
2164.52941	6251.7
2167.48067	6244.2
2170.43004	6246.3
2173.37752	6251
2176.32311	6241.6
2179.26681	6232.2
2182.20863	6251.8
2185.14856	6230.4
2188.08661	6216.1
2191.02278	6235.8
2193.95707	6208.5
2196.88948	6216.9
2199.82001	6213
2202.74867	6200.4
2205.67545	6189.3
2208.60037	6179.3
2211.52341	6177.9
2214.44458	6159.5
2217.36388	6162.1
2220.28132	6145.2
2223.1969	6137.5
2226.11061	6136.4
2229.02246	6102.2
2231.93245	6090.3
2234.84058	6077.6
2237.74686	6090.7
2240.65128	6063.8
2243.55385	6050.6
2246.45456	6044.1
2249.35343	6052.6
2252.25044	6033.2
2255.14561	6031.6
2258.03893	6025.9
2260.93041	6053.2
2263.82004	6010.4
2266.70783	6011.2
2269.59378	5975
2272.4779	5976.1
2275.36017	5938
2278.24061	5943.2
2281.11922	5912.3
2283.996	5911.8
2286.87094	5905.3
2289.74405	5869.3
2292.61534	5876.2
2295.4848	5857.6
2298.35243	5859.7
2301.21824	5846.5
2304.08223	5857.2
2306.94439	5840.2
2309.80474	5829.2
2312.66327	5836
2315.51999	5834.2
2318.37489	5814.3
2321.22797	5821.1
2324.07925	5800.4
2326.92871	5794.5
2329.77637	5804.1
2332.62222	5807.4
2335.46626	5775.6
2338.3085	5776.8
2341.14893	5779.6
2343.98756	5764.3
2346.8244	5763.5
2349.65943	5780.6
2352.49267	5773.8
2355.32411	5782.2
2358.15376	5777.6
2360.98161	5775.6
2363.80768	5766
2366.63195	5771.8
2369.45444	5771.3
2372.27514	5763.1
2375.09405	5744
2377.91118	5756.3
2380.72652	5744.5
2383.54009	5738.1
2386.35187	5707.4
2389.16188	5663.5
2391.97011	5641.4
2394.77657	5634.3
2397.58125	5621.4
2400.38416	5625.8
2403.18529	5577.8
2405.98466	5590.4
2408.78226	5574
2411.57809	5558.9
2414.37216	5548
2417.16446	5555.3
2419.955	5540.9
2422.74378	5533.9
2425.5308	5522.8
2428.31606	5516.7
2431.09956	5518.1
2433.88131	5513.3
2436.6613	5508.8
2439.43954	5498
2442.21603	5504.8
2444.99077	5483
2447.76377	5499.2
2450.53501	5471.8
2453.30451	5489
2456.07226	5472.3
2458.83827	5477
2461.60254	5459.5
2464.36507	5457.9
2467.12586	5457.4
2469.88492	5446.4
2472.64224	5451.7
2475.39782	5451.2
2478.15167	5468.5
2480.90379	5446.8
2483.65417	5483.1
2486.40283	5471.1
2489.14976	5458.3
2491.89497	5459.8
2494.63845	5490.5
2497.3802	5480.7
2500.12024	5459.1
2502.85855	5453.5
2505.59514	5453.1
2508.33002	5423
2511.06318	5386.8
2513.79462	5387.8
2516.52435	5380.8
2519.25237	5374.9
2521.97867	5352.7
2524.70327	5345.6
2527.42616	5327.6
2530.14734	5327.6
2532.86681	5318.7
2535.58458	5321.8
2538.30065	5326.3
2541.01501	5322.1
2543.72768	5304
2546.43864	5305.3
2549.14791	5300.1
2551.85548	5278.5
2554.56136	5274.9
2557.26554	5267.7
2559.96803	5262.2
2562.66883	5264.2
2565.36794	5243.3
2568.06536	5243.6
2570.7611	5238
2573.45514	5234.7
2576.14751	5221.5
2578.83819	5204.2
2581.52719	5192.4
2584.21451	5188.8
2586.90015	5175.3
2589.58411	5175.2
2592.2664	5160
2594.94701	5160.6
2597.62594	5154.6
2600.30321	5142
2602.9788	5145.3
2605.65273	5124.3
2608.32498	5125.8
2610.99557	5121.3
2613.66449	5116.7
2616.33175	5130.2
2618.99734	5103
2621.66128	5113.4
2624.32355	5111
2626.98416	5073.4
2629.64311	5094.5
2632.30041	5074.8
2634.95605	5084.6
2637.61004	5068.1
2640.26238	5064.2
2642.91306	5065.1
2645.56209	5045.1
2648.20948	5052.1
2650.85521	5038.7
2653.4993	5021
2656.14175	5031.8
2658.78255	5036.7
2661.42171	5015.4
2664.05923	5027.1
2666.6951	5038
2669.32934	5032.1
2671.96194	5051.1
2674.59291	5013.7
2677.22224	5043.2
2679.84993	5031.8
2682.476	5044.5
2685.10043	5045.3
2687.72324	5033.1
2690.34441	5044.9
2692.96396	5034.9
2695.58188	5045.7
2698.19818	5029.1
2700.81285	5027
2703.4259	5044.6
2706.03733	5093.5
2708.64714	5066.2
2711.25533	5052.2
2713.86191	5058.5
2716.46687	5059.8
2719.07021	5036.6
2721.67194	5047.7
2724.27206	5042.9
2726.87057	5059.9
2729.46747	5018.8
2732.06276	5032.4
2734.65644	5028.3
2737.24852	5023.1
2739.83899	5005.5
2742.42786	5009.3
2745.01513	4986.7
2747.60079	5004.2
2750.18486	4985.6
2752.76733	4994.4
2755.3482	4967.1
2757.92747	4970.3
2760.50515	4984
2763.08123	4969.8
2765.65573	4953.2
2768.22863	4934.5
2770.79994	4944.7
2773.36967	4938.8
2775.9378	4921.9
2778.50435	4918.3
2781.06932	4920.3
2783.6327	4907.5
2786.1945	4896.2
2788.75471	4896.5
2791.31335	4915.2
2793.87041	4870.7
2796.42589	4870.5
2798.97979	4874.6
2801.53212	4865.7
2804.08288	4876
2806.63206	4854.2
2809.17967	4844.9
2811.72571	4842.4
2814.27018	4855.1
2816.81308	4833.2
2819.35442	4818.4
2821.89419	4835.7
2824.43239	4847.5
2826.96904	4835.6
2829.50412	4844.2
2832.03763	4820.8
2834.56959	4836.5
2837.1	4829
2839.62884	4827.7
2842.15613	4851
2844.68186	4876.8
2847.20604	4879.6
2849.72867	4923.7
2852.24974	4921.8
2854.76927	4917.5
2857.28724	4925.5
2859.80367	4918.5
2862.31855	4898.5
2864.83189	4897
2867.34368	4858.2
2869.85393	4885.1
2872.36264	4854.2
2874.8698	4858.9
2877.37543	4858.3
2879.87952	4858.9
2882.38207	4857.8
2884.88308	4848.5
2887.38256	4847.9
2889.88051	4843.9
2892.37692	4848.6
2894.8718	4836.5
2897.36515	4849.3
2899.85698	4840.5
2902.34727	4847.3
2904.83604	4848.1
2907.32328	4850.9
2909.809	4840.8
2912.29319	4861.2
2914.77587	4854.4
2917.25702	4838.5
2919.73665	4833.4
2922.21476	4833.7
2924.69136	4814.7
2927.16644	4798.8
2929.64	4818.7
2932.11205	4798.3
2934.58258	4796.7
2937.05161	4796.8
2939.51912	4767.4
2941.98513	4779.9
2944.44962	4738.3
2946.91261	4702.7
2949.37409	4703.3
2951.83407	4707.2
2954.29254	4677.8
2956.74951	4667.5
2959.20498	4677.8
2961.65895	4659.5
2964.11142	4663.6
2966.56239	4647.1
2969.01186	4632.8
2971.45984	4616.2
2973.90632	4606.2
2976.35131	4573.9
2978.7948	4588.3
2981.23681	4569.7
2983.67732	4566.2
2986.11635	4550.8
2988.55388	4545.1
2990.98993	4532.8
2993.4245	4526
2995.85758	4533.9
2998.28917	4500.6
3000.71928	4510
3003.14791	4487.6
3005.57506	4465
3008.00073	4486
3010.42493	4482.7
3012.84764	4452.8
3015.26888	4455.4
3017.68865	4450.9
3020.10694	4438.4
3022.52376	4432
3024.9391	4432.9
3027.35298	4429.8
3029.76539	4435.9
3032.17632	4411.4
3034.5858	4418.6
3036.9938	4409
3039.40034	4411.9
3041.80542	4398
3044.20903	4386.3
3046.61118	4382.1
3049.01187	4374.8
3051.4111	4371.8
3053.80888	4385.3
3056.20519	4355.9
3058.60005	4355.5
3060.99345	4342.8
3063.3854	4323.7
3065.7759	4333.4
3068.16494	4310.7
3070.55254	4311
3072.93868	4280.9
3075.32338	4300.7
3077.70662	4288.1
3080.08842	4246
3082.46878	4258.7
3084.84769	4258.7
3087.22515	4254.5
3089.60118	4238.7
3091.97576	4239.9
3094.3489	4255.3
3096.72061	4245.8
3099.09087	4242.1
3101.4597	4243.8
3103.82709	4224.5
3106.19305	4229.1
3108.55757	4233.5
3110.92066	4210.9
3113.28232	4223.3
3115.64255	4198.3
3118.00134	4191.7
3120.35871	4202.8
3122.71466	4198.4
3125.06917	4191.8
3127.42226	4182.3
3129.77393	4189.2
3132.12417	4190.7
3134.47299	4196.9
3136.82039	4191.4
3139.16636	4208.6
3141.51092	4219.1
3143.85406	4225
3146.19579	4241
3148.53609	4206.4
3150.87499	4226.1
3153.21246	4207
3155.54853	4229.1
3157.88318	4209.2
3160.21642	4224
3162.54826	4232.5
3164.87868	4237.7
3167.2077	4226.5
3169.5353	4222.9
3171.86151	4239.5
3174.18631	4224.5
3176.5097	4231.9
3178.83169	4207.3
3181.15228	4207
3183.47147	4211.3
3185.78926	4239.3
3188.10565	4217.2
3190.42065	4226.7
3192.73424	4223.1
3195.04645	4221.2
3197.35725	4224.9
3199.66667	4232.7
3201.97469	4220
3204.28132	4239
3206.58656	4243.7
3208.8904	4255.4
3211.19287	4242.3
3213.49394	4239.4
3215.79363	4248
3218.09193	4254.7
3220.38884	4254.3
3222.68438	4273.2
3224.97853	4246.2
3227.2713	4241.1
3229.56269	4246.7
3231.8527	4230.7
3234.14133	4219.7
3236.42858	4211.7
3238.71446	4216.5
3240.99896	4200.4
3243.28209	4188.3
3245.56384	4200.7
3247.84423	4198.9
3250.12324	4203.9
3252.40088	4188.9
3254.67715	4191.4
3256.95205	4176.7
3259.22558	4191.9
3261.49775	4188
3263.76855	4167.5
3266.03799	4165.7
3268.30606	4188.1
3270.57277	4161.8
3272.83812	4147.7
3275.10211	4128.8
3277.36474	4135.4
3279.62601	4112.9
3281.88593	4109.4
3284.14448	4140
3286.40168	4129.2
3288.65753	4127.3
3290.91202	4117.5
3293.16516	4099
3295.41695	4098
3297.66738	4067
3299.91647	4051.5
3302.16421	4017.5
3304.4106	4008
3306.65564	3999.1
3308.89933	3963.1
3311.14169	3946
3313.38269	3922
3315.62236	3881.9
3317.86068	3844.3
3320.09766	3816
3322.3333	3789
3324.5676	3794.5
3326.80056	3740.3
3329.03219	3722
3331.26248	1.9
3333.49143	-1.4
3335.71905	1.2
