Data from AgNP_FTO_APTES_CRN_0uM_R6G_10uM_NaF_0.1M_Addition_RamanShift__77__12-59-32-994.txt Node

Date: Wed Dec 15 12:59:32 GMT 2021
User: TCL
Spectrometer: QEP01345
Trigger mode: 4
Integration Time (sec): 7.000000E0
Scans to average: 10
Electric dark correction enabled: true
Nonlinearity correction enabled: false
Boxcar width: 0
XAxis mode: Raman Shifts
Number of Pixels in Spectrum: 1044
>>>>>Begin Spectral Data<<<<<
46.04893	1.4
50.45542	-1.4
54.85868	-1.8
59.25871	0.2
63.6555	80.9
68.04907	92.2
72.43941	100.6
76.82654	106
81.21044	110.7
85.59113	121.9
89.96862	125.7
94.34289	124.7
98.71396	133.2
103.08183	138.1
107.4465	141.9
111.80798	143.8
116.16626	141.3
120.52136	140.6
124.87327	143.6
129.222	145.6
133.56755	151.5
137.90993	152.4
142.24913	159.3
146.58517	166
150.91804	186.1
155.24774	205.4
159.57429	241.8
163.89768	294.3
168.21792	365.5
172.53501	478.2
176.84895	633.9
181.15975	868.3
185.46741	1198.2
189.77193	1632.3
194.07331	2151.5
198.37157	2767.7
202.6667	3406
206.9587	4026.5
211.24758	4652.8
215.53334	5343
219.81599	6088.3
224.09553	6940.1
228.37195	7890
232.64527	8889.9
236.91549	9869.9
241.18261	10751.9
245.44663	11422.8
249.70755	11943.5
253.96539	12398.2
258.22014	12781.5
262.4718	13206.6
266.72039	13570.4
270.96589	13766.8
275.20832	13776.6
279.44768	13608.3
283.68397	13428
287.91719	13296
292.14735	13324.8
296.37445	13637
300.59849	14244
304.81948	14951.7
309.03742	15503.3
313.25231	15553.8
317.46415	14743.6
321.67296	13482.6
325.87872	12465.8
330.08145	11981.4
334.28114	11888.8
338.47781	12149.7
342.67145	12500.5
346.86207	13126.8
351.04966	14078.7
355.23424	15147.6
359.4158	15923.7
363.59435	16295.4
367.76989	16373.2
371.94243	16263.6
376.11196	16139.2
380.27849	15989.2
384.44203	15815.8
388.60257	15571.2
392.76012	15425.7
396.91468	15589.1
401.06626	16038.3
405.21485	16423.7
409.36047	16107.7
413.50311	15218.7
417.64277	14348.8
421.77947	13857.7
425.9132	13655.6
430.04396	13634.6
434.17176	13703.5
438.2966	13956.4
442.41849	14358.3
446.53742	14903.9
450.6534	15441.3
454.76644	15756.5
458.87653	15834.2
462.98368	15620.2
467.08789	15246.3
471.18916	14761.1
475.2875	14256.3
479.38291	13876.1
483.4754	13565.7
487.56496	13333.3
491.6516	13169.4
495.73531	13114.6
499.81612	13156.5
503.89401	13300.7
507.96899	13500.5
512.04106	13762.9
516.11023	14054.8
520.1765	14287.3
524.23987	14276.4
528.30034	13969
532.35792	13629.6
536.41261	13223
540.46441	12839.6
544.51333	12621.3
548.55936	12668.5
552.60252	12976
556.64279	13325.8
560.6802	13489.4
564.71473	13728.4
568.7464	14376.5
572.7752	14829.5
576.80114	14451.8
580.82422	13965.4
584.84444	13784.8
588.86181	13786.3
592.87633	13929.8
596.888	14241
600.89682	14928.2
604.9028	16949.1
608.90594	22122.5
612.90624	28617.3
616.90371	27275.2
620.89834	18481.6
624.89015	14244.8
628.87913	13413.6
632.86528	13416.3
636.84862	13637.9
640.82913	13417.6
644.80683	12728.4
648.78172	12285.4
652.75379	12424.4
656.72306	13150.5
660.68952	13944.8
664.65319	13720.8
668.61405	12909.5
672.57211	12461.6
676.52738	12399.2
680.47986	12398.2
684.42955	12250.8
688.37646	12194.8
692.32058	12217.5
696.26192	12388.1
700.20048	12595.2
704.13626	12766
708.06928	12732
711.99952	12616.6
715.927	12536.3
719.85171	12537.8
723.77365	12496.3
727.69284	12296.8
731.60928	12196.1
735.52295	12186.6
739.43388	12248.9
743.34206	12374.6
747.24749	12485.4
751.15017	12629
755.05012	12986.9
758.94733	13717.4
762.8418	15373.3
766.73354	18242.4
770.62254	21254.8
774.50882	22851.2
778.39237	21889.8
782.27321	18756.3
786.15132	15610.6
790.02671	13782.5
793.89938	12979.5
797.76935	12628.8
801.6366	12438.5
805.50115	12350
809.36299	12272
813.22213	12183.3
817.07857	12201.4
820.93231	12169.9
824.78336	12234.7
828.63172	12312.4
832.47738	12380
836.32036	12367.6
840.16066	12311.9
843.99827	12197.1
847.8332	12139.9
851.66546	12130.7
855.49504	12083.2
859.32195	12024.8
863.1462	11956.1
866.96777	11877
870.78668	11856.6
874.60293	11886.9
878.41652	11925.4
882.22745	12022.6
886.03573	12057.5
889.84136	12048.2
893.64433	11967.9
897.44466	11943.1
901.24235	11945
905.0374	11925.7
908.8298	11884.5
912.61957	11866
916.40671	11978.1
920.19121	12126
923.97308	12267.5
927.75233	12453.5
931.52895	12575.5
935.30295	12431.7
939.07433	12023.1
942.84309	11704
946.60924	11508.2
950.37278	11395.4
954.13371	11276.9
957.89203	11237.4
961.64774	11179.9
965.40086	11140.8
969.15137	11093.6
972.89929	11056.8
976.64461	11070
980.38733	11096.9
984.12747	11124.6
987.86502	11158
991.59999	11245
995.33237	11448
999.06217	11763.2
1002.78939	12190.5
1006.51404	12632.5
1010.23611	13029.7
1013.95561	13279.7
1017.67255	13185.8
1021.38692	12946.2
1025.09872	12685
1028.80796	12535.1
1032.51465	12709.4
1036.21877	12977.2
1039.92035	13129.4
1043.61937	13138
1047.31584	12989.8
1051.00976	12734
1054.70114	12580.1
1058.38998	12460.1
1062.07627	12520.2
1065.76003	12622.4
1069.44126	12787.1
1073.11995	13058.4
1076.79611	13360
1080.46974	13605.5
1084.14085	13927.4
1087.80943	14209.9
1091.47549	14282
1095.13903	13918.5
1098.80005	13302.6
1102.45857	12782.3
1106.11456	12576.9
1109.76805	12646.9
1113.41903	12935.5
1117.06751	13409.8
1120.71348	14007.8
1124.35696	14685.3
1127.99793	15334.7
1131.63641	15301.4
1135.2724	14573.8
1138.90589	13818.1
1142.5369	13378.8
1146.16542	13032.7
1149.79145	12858
1153.415	12859.6
1157.03607	13041.2
1160.65467	13405.1
1164.27079	13945
1167.88443	14776.4
1171.49561	16210.8
1175.10432	18555.8
1178.71056	21669.3
1182.31434	24049.2
1185.91565	24740.2
1189.51451	24127.2
1193.11091	22455.4
1196.70485	20377.6
1200.29634	18767.8
1203.88538	17566.1
1207.47197	16353.7
1211.05612	15368.5
1214.63782	14844.8
1218.21708	14727.1
1221.79391	14785
1225.36829	14919.7
1228.94024	15070.8
1232.50976	15209
1236.07685	15270.2
1239.6415	15359.3
1243.20374	15358
1246.76355	15388.5
1250.32093	15581
1253.8759	15965.3
1257.42845	16489.4
1260.97859	17089.5
1264.52631	17675.1
1268.07163	18258.1
1271.61453	18823.6
1275.15503	19259.5
1278.69312	19456.1
1282.22882	19608.8
1285.76211	20118.6
1289.29301	20883.4
1292.82151	21609.9
1296.34761	22310.2
1299.87133	23325.4
1303.39266	25114.2
1306.9116	27973.8
1310.42815	31363.8
1313.94233	33529.5
1317.45412	33185.2
1320.96354	31130.1
1324.47058	28647.5
1327.97525	26571.1
1331.47754	25410.4
1334.97747	25109.9
1338.47502	25303.9
1341.97022	25685.4
1345.46305	26366
1348.95352	27695.7
1352.44163	29675.7
1355.92738	32602.3
1359.41078	37154
1362.89183	41723
1366.37053	41019.5
1369.84688	35039
1373.32088	28635.4
1376.79254	24396.7
1380.26186	22224.6
1383.72883	21187.3
1387.19347	20355.6
1390.65578	19421.9
1394.11575	18673.6
1397.57339	18341.1
1401.0287	18415.8
1404.48168	18838
1407.93234	19393.5
1411.38068	19804
1414.82669	19872
1418.27039	19470.4
1421.71177	18905.3
1425.15083	18369.2
1428.58758	18105.7
1432.02203	18158.7
1435.45416	18365.9
1438.88399	18475.5
1442.31151	18548.7
1445.73673	18610.6
1449.15965	18715
1452.58027	18584.9
1455.9986	18320.5
1459.41463	18201.8
1462.82837	18330.7
1466.23982	18705.6
1469.64898	19196.5
1473.05586	19520.3
1476.46045	19759.6
1479.86276	20129
1483.26279	20628.5
1486.66054	21235
1490.05602	21980.9
1493.44922	23027.9
1496.84016	24477.8
1500.22882	26701.9
1503.61521	29708.7
1506.99934	33203.5
1510.38121	36601.3
1513.76081	38254.4
1517.13816	36693.5
1520.51324	32414.1
1523.88607	27837.8
1527.25665	24638.6
1530.62498	22885.2
1533.99105	21847.2
1537.35488	21120.6
1540.71647	20698.7
1544.07581	20464.4
1547.4329	20210.3
1550.78776	20011.9
1554.14038	19794.9
1557.49077	19771.9
1560.83892	19994.8
1564.18484	20520.6
1567.52853	21114.3
1570.86999	21807.9
1574.20922	22394.6
1577.54624	22554.1
1580.88103	21649.9
1584.2136	20256.4
1587.54395	19493.6
1590.87208	19851.9
1594.19801	21155
1597.52172	22932.8
1600.84321	23853.6
1604.16251	23110.3
1607.47959	21364
1610.79447	19321.8
1614.10715	17399.8
1617.41763	15920.2
1620.7259	15059.3
1624.03199	14678
1627.33587	14703.1
1630.63757	15121.5
1633.93707	15971.8
1637.23439	17290.6
1640.52951	19137.3
1643.82246	21503
1647.11321	24151.2
1650.40179	26012.4
1653.68819	25276.6
1656.97241	21903.6
1660.25446	17947.8
1663.53433	15100.1
1666.81203	13388.9
1670.08756	12406.1
1673.36092	11878.1
1676.63211	11516.1
1679.90115	11262.7
1683.16801	11097.2
1686.43272	10971
1689.69527	10879.6
1692.95567	10812.7
1696.2139	10759.1
1699.46999	10709.4
1702.72392	10711.9
1705.97571	10689.8
1709.22535	10671.7
1712.47284	10704
1715.71819	10697.9
1718.96139	10679
1722.20246	10635.2
1725.44139	10588.1
1728.67818	10536.8
1731.91284	10411.5
1735.14537	10322.4
1738.37576	10250.4
1741.60403	10191.9
1744.83017	10162.1
1748.05418	10093.2
1751.27607	10080.7
1754.49584	10045.5
1757.71349	10025.1
1760.92903	10020.1
1764.14244	10019.4
1767.35375	10003
1770.56294	9976.7
1773.77002	9945.9
1776.97499	9929.9
1780.17785	9894.6
1783.37861	9895
1786.57727	9859.5
1789.77382	9807.9
1792.96828	9835
1796.16064	9843.6
1799.3509	9788.2
1802.53907	9781.6
1805.72514	9744.4
1808.90913	9709.3
1812.09102	9684.2
1815.27083	9684.7
1818.44856	9644.7
1821.6242	9647.4
1824.79776	9640.3
1827.96924	9621.2
1831.13864	9603
1834.30597	9585.7
1837.47122	9594.5
1840.6344	9562.3
1843.7955	9580.2
1846.95454	9579.5
1850.11151	9563.6
1853.26642	9552.1
1856.41926	9542.5
1859.57004	9558.3
1862.71876	9602.1
1865.86542	9577.8
1869.01003	9580.5
1872.15258	9587.5
1875.29308	9596.1
1878.43152	9595.5
1881.56792	9603.3
1884.70227	9626.8
1887.83457	9610.7
1890.96482	9612.8
1894.09304	9624.1
1897.21921	9623.8
1900.34335	9620.5
1903.46544	9606.7
1906.58551	9614.9
1909.70353	9623.7
1912.81953	9581.6
1915.93349	9570.8
1919.04543	9568.8
1922.15534	9558.8
1925.26322	9531.2
1928.36908	9479
1931.47292	9464.9
1934.57473	9412
1937.67453	9391.3
1940.77232	9342.6
1943.86808	9281.6
1946.96184	9241.7
1950.05358	9196.7
1953.14331	9174.6
1956.23103	9130.2
1959.31675	9107.6
1962.40046	9099.4
1965.48217	9060.7
1968.56188	9036
1971.63959	9027.3
1974.7153	8966.1
1977.78901	8960.5
1980.86073	8915.4
1983.93046	8884.9
1986.99819	8837.2
1990.06394	8812.4
1993.1277	8797.9
1996.18947	8748.6
1999.24925	8726
2002.30706	8700.7
2005.36288	8678.8
2008.41672	8659.3
2011.46859	8622.2
2014.51848	8598.8
2017.56639	8569.2
2020.61233	8543.6
2023.6563	8534.4
2026.6983	8477.7
2029.73833	8480.2
2032.7764	8447.2
2035.8125	8443
2038.84664	8420.5
2041.87881	8400.8
2044.90903	8380.5
2047.93729	8379.1
2050.96359	8365.3
2053.98794	8355.3
2057.01034	8352
2060.03078	8338.3
2063.04927	8313.5
2066.06582	8312.6
2069.08042	8289.8
2072.09307	8276.4
2075.10378	8280.2
2078.11255	8249.9
2081.11938	8266
2084.12426	8255.8
2087.12722	8243.2
2090.12824	8233.6
2093.12732	8219.9
2096.12447	8258.8
2099.11969	8237.9
2102.11299	8243
2105.10435	8222.3
2108.09379	8239.4
2111.08131	8250.8
2114.0669	8239.8
2117.05057	8228.1
2120.03233	8219.9
2123.01216	8244.5
2125.99008	8240.6
2128.96609	8221.7
2131.94018	8248.1
2134.91236	8239.9
2137.88263	8252
2140.851	8247.3
2143.81746	8245.6
2146.78201	8262.5
2149.74466	8235.4
2152.7054	8221.9
2155.66425	8220.9
2158.6212	8210.8
2161.57625	8197.1
2164.52941	8204.4
2167.48067	8179.1
2170.43004	8180.9
2173.37752	8207.2
2176.32311	8196.1
2179.26681	8204.7
2182.20863	8171.1
2185.14856	8179.4
2188.08661	8186.7
2191.02278	8188.6
2193.95707	8173.9
2196.88948	8161.8
2199.82001	8158.3
2202.74867	8148.1
2205.67545	8156.4
2208.60037	8133
2211.52341	8137.2
2214.44458	8123.4
2217.36388	8082.9
2220.28132	8069.6
2223.1969	8060.3
2226.11061	8042.7
2229.02246	8003.5
2231.93245	7979.9
2234.84058	7967
2237.74686	7961.2
2240.65128	7959.9
2243.55385	7949.4
2246.45456	7919.2
2249.35343	7928.9
2252.25044	7919.5
2255.14561	7913.5
2258.03893	7898.8
2260.93041	7921.2
2263.82004	7888
2266.70783	7869.9
2269.59378	7847.5
2272.4779	7824
2275.36017	7803.7
2278.24061	7794.1
2281.11922	7767.7
2283.996	7724.8
2286.87094	7732.6
2289.74405	7713.3
2292.61534	7697.9
2295.4848	7673.1
2298.35243	7667.4
2301.21824	7664.3
2304.08223	7682.9
2306.94439	7666.9
2309.80474	7654.8
2312.66327	7649
2315.51999	7649.1
2318.37489	7637.7
2321.22797	7635.6
2324.07925	7638.4
2326.92871	7629.1
2329.77637	7600.9
2332.62222	7612.9
2335.46626	7593.4
2338.3085	7599.1
2341.14893	7610.5
2343.98756	7617.6
2346.8244	7602.2
2349.65943	7608.2
2352.49267	7609.7
2355.32411	7619.4
2358.15376	7609.3
2360.98161	7636.7
2363.80768	7638.1
2366.63195	7625.1
2369.45444	7635.1
2372.27514	7645
2375.09405	7598.9
2377.91118	7577.3
2380.72652	7550.2
2383.54009	7518.7
2386.35187	7498
2389.16188	7478
2391.97011	7452.8
2394.77657	7426.7
2397.58125	7404.1
2400.38416	7382.9
2403.18529	7352.1
2405.98466	7342.2
2408.78226	7313
2411.57809	7313.5
2414.37216	7285.4
2417.16446	7295.2
2419.955	7260.9
2422.74378	7270.4
2425.5308	7272.5
2428.31606	7265.7
2431.09956	7243
2433.88131	7241.6
2436.6613	7241.7
2439.43954	7237.9
2442.21603	7219.8
2444.99077	7237.2
2447.76377	7231
2450.53501	7224.1
2453.30451	7232.7
2456.07226	7224.5
2458.83827	7222.5
2461.60254	7218.2
2464.36507	7213.7
2467.12586	7212.1
2469.88492	7215.8
2472.64224	7228.8
2475.39782	7216.3
2478.15167	7241.5
2480.90379	7234.9
2483.65417	7254.3
2486.40283	7258.1
2489.14976	7286.8
2491.89497	7279.4
2494.63845	7273
2497.3802	7282
2500.12024	7266.8
2502.85855	7276.8
2505.59514	7259.1
2508.33002	7231.8
2511.06318	7186.8
2513.79462	7168.8
2516.52435	7133.3
2519.25237	7131.7
2521.97867	7097
2524.70327	7088.3
2527.42616	7067.9
2530.14734	7079.5
2532.86681	7059.4
2535.58458	7067.6
2538.30065	7067.3
2541.01501	7057.4
2543.72768	7050.4
2546.43864	7064
2549.14791	7057.1
2551.85548	7044
2554.56136	7037.1
2557.26554	7026
2559.96803	7027.4
2562.66883	7003.9
2565.36794	7004.7
2568.06536	6997.9
2570.7611	7011.3
2573.45514	6995.4
2576.14751	6962.1
2578.83819	6961.7
2581.52719	6959.4
2584.21451	6945.4
2586.90015	6955.4
2589.58411	6925.1
2592.2664	6924.6
2594.94701	6905.9
2597.62594	6914.1
2600.30321	6897
2602.9788	6885.4
2605.65273	6903.2
2608.32498	6888.9
2610.99557	6898.4
2613.66449	6896.8
2616.33175	6894.5
2618.99734	6910.7
2621.66128	6914.4
2624.32355	6896.5
2626.98416	6887.8
2629.64311	6882.4
2632.30041	6880.9
2634.95605	6857.6
2637.61004	6848.4
2640.26238	6830
2642.91306	6826.9
2645.56209	6825.6
2648.20948	6819.3
2650.85521	6796.7
2653.4993	6828.3
2656.14175	6812.6
2658.78255	6824.1
2661.42171	6826.2
2664.05923	6837.3
2666.6951	6845.1
2669.32934	6856.9
2671.96194	6867.3
2674.59291	6865.2
2677.22224	6887.7
2679.84993	6865.5
2682.476	6874.5
2685.10043	6892.9
2687.72324	6871.9
2690.34441	6893.4
2692.96396	6892.1
2695.58188	6891
2698.19818	6894.6
2700.81285	6879.5
2703.4259	6884.8
2706.03733	6890.1
2708.64714	6880.2
2711.25533	6906
2713.86191	6928.1
2716.46687	6937.9
2719.07021	6885.5
2721.67194	6919.7
2724.27206	6907.3
2726.87057	6923
2729.46747	6927.9
2732.06276	6922.8
2734.65644	6939.7
2737.24852	6928.2
2739.83899	6894.9
2742.42786	6906.8
2745.01513	6908.5
2747.60079	6900.9
2750.18486	6882.4
2752.76733	6880.3
2755.3482	6880.3
2757.92747	6903.4
2760.50515	6885.3
2763.08123	6872.5
2765.65573	6877.1
2768.22863	6872.4
2770.79994	6890.1
2773.36967	6869.2
2775.9378	6856.7
2778.50435	6861.5
2781.06932	6866.6
2783.6327	6876.8
2786.1945	6871.9
2788.75471	6888
2791.31335	6893.6
2793.87041	6883.3
2796.42589	6860.6
2798.97979	6876.8
2801.53212	6881.2
2804.08288	6879.9
2806.63206	6876.9
2809.17967	6890.9
2811.72571	6877.5
2814.27018	6916.7
2816.81308	6912.2
2819.35442	6936.2
2821.89419	6950.6
2824.43239	6969.2
2826.96904	6965.5
2829.50412	6989.9
2832.03763	6972.6
2834.56959	6987.2
2837.1	6989.2
2839.62884	7013.3
2842.15613	7031.7
2844.68186	7064.4
2847.20604	7120.1
2849.72867	7151.1
2852.24974	7173
2854.76927	7171.8
2857.28724	7163.2
2859.80367	7136.1
2862.31855	7126.7
2864.83189	7120.7
2867.34368	7076.7
2869.85393	7083.5
2872.36264	7064.1
2874.8698	7069.2
2877.37543	7065.7
2879.87952	7044.8
2882.38207	7019.7
2884.88308	7015.1
2887.38256	7029.6
2889.88051	7015.1
2892.37692	7007.9
2894.8718	7001
2897.36515	7004
2899.85698	7006.7
2902.34727	7005.6
2904.83604	6983.2
2907.32328	7014.8
2909.809	6997.3
2912.29319	6991.5
2914.77587	6979.6
2917.25702	6976.1
2919.73665	6966.8
2922.21476	6967.7
2924.69136	6954.1
2927.16644	6948
2929.64	6925.5
2932.11205	6899.1
2934.58258	6863.7
2937.05161	6862.4
2939.51912	6850
2941.98513	6800.2
2944.44962	6738.6
2946.91261	6675.8
2949.37409	6666.7
2951.83407	6612.3
2954.29254	6595.6
2956.74951	6562.6
2959.20498	6566.2
2961.65895	6524
2964.11142	6522.9
2966.56239	6484.5
2969.01186	6474.7
2971.45984	6413.4
2973.90632	6423.5
2976.35131	6395.9
2978.7948	6367.8
2981.23681	6349.8
2983.67732	6318.1
2986.11635	6301.7
2988.55388	6256.7
2990.98993	6252.5
2993.4245	6229.5
2995.85758	6212.5
2998.28917	6195.7
3000.71928	6174.1
3003.14791	6142.7
3005.57506	6138.3
3008.00073	6131.4
3010.42493	6121
3012.84764	6117.2
3015.26888	6088.2
3017.68865	6074.3
3020.10694	6059.1
3022.52376	6065.1
3024.9391	6039.1
3027.35298	6025.9
3029.76539	6017.9
3032.17632	6008.5
3034.5858	6000.2
3036.9938	5996
3039.40034	5970.6
3041.80542	5974.5
3044.20903	5980.2
3046.61118	5955.1
3049.01187	5931.4
3051.4111	5905
3053.80888	5910.7
3056.20519	5896.7
3058.60005	5875.1
3060.99345	5866
3063.3854	5857.9
3065.7759	5828.7
3068.16494	5827.9
3070.55254	5791.3
3072.93868	5795.9
3075.32338	5782.2
3077.70662	5745.3
3080.08842	5707.2
3082.46878	5694.7
3084.84769	5679.2
3087.22515	5670.6
3089.60118	5668.2
3091.97576	5662
3094.3489	5648.6
3096.72061	5629.5
3099.09087	5626
3101.4597	5608.2
3103.82709	5610.7
3106.19305	5593.8
3108.55757	5587.1
3110.92066	5557.3
3113.28232	5545.9
3115.64255	5536.3
3118.00134	5541
3120.35871	5531.6
3122.71466	5514.3
3125.06917	5501.2
3127.42226	5495.8
3129.77393	5499.6
3132.12417	5499.7
3134.47299	5498
3136.82039	5500.7
3139.16636	5500.7
3141.51092	5501.7
3143.85406	5507
3146.19579	5511.4
3148.53609	5491.4
3150.87499	5491.7
3153.21246	5507.8
3155.54853	5505
3157.88318	5488.1
3160.21642	5486.9
3162.54826	5510.2
3164.87868	5486.8
3167.2077	5467.7
3169.5353	5497.8
3171.86151	5486.5
3174.18631	5464.6
3176.5097	5481.2
3178.83169	5465.3
3181.15228	5464.2
3183.47147	5464.8
3185.78926	5454.8
3188.10565	5457.1
3190.42065	5431.8
3192.73424	5440.2
3195.04645	5447.3
3197.35725	5446.9
3199.66667	5453.1
3201.97469	5477.5
3204.28132	5456.9
3206.58656	5463.6
3208.8904	5451.5
3211.19287	5469.2
3213.49394	5471.9
3215.79363	5474.2
3218.09193	5474.7
3220.38884	5450.5
3222.68438	5467.1
3224.97853	5461.5
3227.2713	5441.2
3229.56269	5436.9
3231.8527	5426.3
3234.14133	5425.4
3236.42858	5411.1
3238.71446	5413.3
3240.99896	5374.1
3243.28209	5393.1
3245.56384	5390.8
3247.84423	5384.6
3250.12324	5391.9
3252.40088	5376.3
3254.67715	5373.9
3256.95205	5359.6
3259.22558	5345.8
3261.49775	5353.8
3263.76855	5329.1
3266.03799	5308.9
3268.30606	5303.9
3270.57277	5316.1
3272.83812	5307.2
3275.10211	5291.5
3277.36474	5282.5
3279.62601	5292.3
3281.88593	5289.2
3284.14448	5280.1
3286.40168	5280.8
3288.65753	5273.9
3290.91202	5252.6
3293.16516	5228.7
3295.41695	5249.1
3297.66738	5210.4
3299.91647	5204
3302.16421	5149.7
3304.4106	5123
3306.65564	5101.2
3308.89933	5069.3
3311.14169	5019.8
3313.38269	4993.1
3315.62236	4964.3
3317.86068	4905
3320.09766	4875.4
3322.3333	4821.6
3324.5676	4831.5
3326.80056	4737
3329.03219	4718.9
3331.26248	1.5
3333.49143	0.1
3335.71905	0.4
