Data from AgNP_FTO_APTES_CRN_5uM_R6G_10uM_NaF_0.1M_Addition_RamanShift__10__15-37-37-908.txt Node

Date: Wed Dec 15 15:37:37 GMT 2021
User: TCL
Spectrometer: QEP01345
Trigger mode: 4
Integration Time (sec): 7.000000E0
Scans to average: 10
Electric dark correction enabled: true
Nonlinearity correction enabled: false
Boxcar width: 0
XAxis mode: Raman Shifts
Number of Pixels in Spectrum: 1044
>>>>>Begin Spectral Data<<<<<
46.04893	0.5375
50.45542	-3.4625
54.85868	-1.0625
59.25871	-0.4625
63.6555	125.4375
68.04907	130.8375
72.43941	134.4375
76.82654	140.9375
81.21044	146.0375
85.59113	153.2375
89.96862	159.8375
94.34289	160.3375
98.71396	169.1375
103.08183	175.6375
107.4465	183.0375
111.80798	182.6375
116.16626	188.5375
120.52136	195.2375
124.87327	203.9375
129.222	214.7375
133.56755	226.6375
137.90993	241.1375
142.24913	267.6375
146.58517	299.6375
150.91804	349.7375
155.24774	415.5375
159.57429	513.6375
163.89768	663.2375
168.21792	866.6375
172.53501	1178.7375
176.84895	1640.1375
181.15975	2313.1375
185.46741	3235.8375
189.77193	4441.8375
194.07331	5945.9375
198.37157	7668.4375
202.6667	9457.2375
206.9587	11226.5375
211.24758	12954.2375
215.53334	14669.3375
219.81599	16494.2375
224.09553	18479.3375
228.37195	20689.3375
232.64527	23132.5375
236.91549	25709.4375
241.18261	28371.1375
245.44663	30843.9375
249.70755	33114.7375
253.96539	35137.3375
258.22014	36824.3375
262.4718	38226.8375
266.72039	39098.5375
270.96589	39595.1375
275.20832	39669.6375
279.44768	39525.4375
283.68397	39195.2375
287.91719	38877.1375
292.14735	38635.6375
296.37445	38510.2375
300.59849	38529.1375
304.81948	38603.7375
309.03742	38515.1375
313.25231	38327.2375
317.46415	37928.3375
321.67296	37293.6375
325.87872	36771.0375
330.08145	36582.1375
334.28114	36659.0375
338.47781	36951.0375
342.67145	37365.9375
346.86207	37857.5375
351.04966	38402.1375
355.23424	39060.3375
359.4158	39609.6375
363.59435	40147.5375
367.76989	40492.2375
371.94243	40745.7375
376.11196	40886.2375
380.27849	40924.5375
384.44203	41036.1375
388.60257	41357.3375
392.76012	41772.0375
396.91468	42361.6375
401.06626	43015.8375
405.21485	43428.8375
409.36047	43485.8375
413.50311	43310.0375
417.64277	43329.5375
421.77947	43681.2375
425.9132	44000.2375
430.04396	44320.5375
434.17176	44329.9375
438.2966	44356.6375
442.41849	44638.0375
446.53742	45402.0375
450.6534	46475.9375
454.76644	47165.8375
458.87653	47475.3375
462.98368	47461.2375
467.08789	46951.1375
471.18916	46386.3375
475.2875	45685.8375
479.38291	45213.6375
483.4754	44801.5375
487.56496	44479.0375
491.6516	44054.1375
495.73531	43820.0375
499.81612	43799.7375
503.89401	44311.2375
507.96899	44710.1375
512.04106	44872.8375
516.11023	44781.4375
520.1765	44300.3375
524.23987	43790.9375
528.30034	43330.9375
532.35792	42935.8375
536.41261	42476.9375
540.46441	42149.7375
544.51333	42175.3375
548.55936	42587.0375
552.60252	43299.2375
556.64279	44025.8375
560.6802	44567.3375
564.71473	44986.9375
568.7464	45625.9375
572.7752	46811.6375
576.80114	48413.4375
580.82422	50287.2375
584.84444	52332.2375
588.86181	54411.7375
592.87633	55636.3375
596.888	54491.3375
600.89682	52271.5375
604.9028	51803.6375
608.90594	53644.0375
612.90624	55156.5375
616.90371	51998.2375
620.89834	46451.2375
624.89015	44067.2375
628.87913	43973.8375
632.86528	44226.3375
636.84862	44166.1375
640.82913	43542.3375
644.80683	42764.7375
648.78172	42286.0375
652.75379	42328.2375
656.72306	42765.0375
660.68952	43149.5375
664.65319	42935.1375
668.61405	42470.4375
672.57211	42504.5375
676.52738	42675.5375
680.47986	42632.1375
684.42955	42378.0375
688.37646	42260.7375
692.32058	42566.2375
696.26192	43052.5375
700.20048	43655.3375
704.13626	43968.6375
708.06928	44067.3375
711.99952	43982.6375
715.927	43957.0375
719.85171	44044.1375
723.77365	43867.1375
727.69284	43249.5375
731.60928	42687.9375
735.52295	42367.1375
739.43388	42241.3375
743.34206	42295.6375
747.24749	42644.9375
751.15017	43100.1375
755.05012	43759.9375
758.94733	44788.8375
762.8418	46427.9375
766.73354	48713.4375
770.62254	50564.2375
774.50882	50416.6375
778.39237	48541.8375
782.27321	46242.8375
786.15132	44456.6375
790.02671	43349.9375
793.89938	42780.7375
797.76935	42490.0375
801.6366	42441.5375
805.50115	42419.0375
809.36299	42265.7375
813.22213	41984.1375
817.07857	41675.8375
820.93231	41437.2375
824.78336	41227.9375
828.63172	41201.8375
832.47738	41085.3375
836.32036	41144.8375
840.16066	41204.2375
843.99827	41196.3375
847.8332	41140.0375
851.66546	41203.2375
855.49504	41300.3375
859.32195	41308.4375
863.1462	41258.8375
866.96777	41178.7375
870.78668	41156.1375
874.60293	41234.1375
878.41652	41249.8375
882.22745	41361.9375
886.03573	41495.3375
889.84136	41538.9375
893.64433	41402.4375
897.44466	41312.9375
901.24235	41227.5375
905.0374	41137.5375
908.8298	41154.0375
912.61957	41252.1375
916.40671	41597.6375
920.19121	42075.2375
923.97308	42483.0375
927.75233	42392.5375
931.52895	41889.0375
935.30295	41300.9375
939.07433	40813.1375
942.84309	40442.9375
946.60924	40305.5375
950.37278	40245.1375
954.13371	40267.4375
957.89203	40254.5375
961.64774	40240.3375
965.40086	40248.5375
969.15137	40175.9375
972.89929	40032.9375
976.64461	39971.5375
980.38733	39960.8375
984.12747	40051.6375
987.86502	40164.7375
991.59999	40334.1375
995.33237	40565.0375
999.06217	41208.7375
1002.78939	41897.2375
1006.51404	42788.8375
1010.23611	43601.3375
1013.95561	44082.0375
1017.67255	44077.2375
1021.38692	43546.4375
1025.09872	42995.8375
1028.80796	42490.4375
1032.51465	42437.5375
1036.21877	42550.7375
1039.92035	42769.8375
1043.61937	42846.1375
1047.31584	42871.4375
1051.00976	42948.7375
1054.70114	43067.2375
1058.38998	43388.0375
1062.07627	44179.2375
1065.76003	45045.5375
1069.44126	46143.5375
1073.11995	47266.9375
1076.79611	48087.2375
1080.46974	48240.2375
1084.14085	48032.5375
1087.80943	47831.3375
1091.47549	47810.9375
1095.13903	47676.6375
1098.80005	46989.1375
1102.45857	46034.0375
1106.11456	45178.4375
1109.76805	44712.4375
1113.41903	44495.0375
1117.06751	44524.2375
1120.71348	44736.6375
1124.35696	44995.8375
1127.99793	45425.4375
1131.63641	45694.5375
1135.2724	45832.4375
1138.90589	45967.5375
1142.5369	46231.7375
1146.16542	46473.9375
1149.79145	46711.4375
1153.415	47050.8375
1157.03607	47754.5375
1160.65467	49084.6375
1164.27079	51184.4375
1167.88443	53573.1375
1171.49561	55757.7375
1175.10432	58182.7375
1178.71056	61224.2375
1182.31434	64337.0375
1185.91565	66376.6375
1189.51451	66817.9375
1193.11091	66076.7375
1196.70485	64582.7375
1200.29634	62568.1375
1203.88538	61107.9375
1207.47197	60693.5375
1211.05612	60381.9375
1214.63782	59583.2375
1218.21708	58041.6375
1221.79391	56255.6375
1225.36829	54790.7375
1228.94024	53936.7375
1232.50976	53390.2375
1236.07685	53121.5375
1239.6415	52914.4375
1243.20374	52972.3375
1246.76355	53205.7375
1250.32093	53870.1375
1253.8759	54926.1375
1257.42845	56337.2375
1260.97859	57874.8375
1264.52631	59415.9375
1268.07163	60915.3375
1271.61453	62481.0375
1275.15503	64008.4375
1278.69312	65538.6375
1282.22882	67023.1375
1285.76211	68724.3375
1289.29301	70662.7375
1292.82151	73091.5375
1296.34761	76008.6375
1299.87133	79739.8375
1303.39266	83465.7375
1306.9116	86721.6375
1310.42815	88846.3375
1313.94233	89592.0375
1317.45412	89275.3375
1320.96354	88644.7375
1324.47058	88731.9375
1327.97525	89345.1375
1331.47754	90152.5375
1334.97747	90688.5375
1338.47502	90952.7375
1341.97022	90840.1375
1345.46305	90226.0375
1348.95352	89080.8375
1352.44163	87801.3375
1355.92738	87252.7375
1359.41078	87811.1375
1362.89183	88191.1375
1366.37053	86493.5375
1369.84688	81678.9375
1373.32088	75296.3375
1376.79254	70470.4375
1380.26186	68455.1375
1383.72883	68481.3375
1387.19347	68757.5375
1390.65578	68315.8375
1394.11575	68015.5375
1397.57339	68451.4375
1401.0287	69752.9375
1404.48168	70968.5375
1407.93234	71212.8375
1411.38068	70220.7375
1414.82669	68168.7375
1418.27039	65562.3375
1421.71177	63054.9375
1425.15083	61171.9375
1428.58758	60488.1375
1432.02203	61193.2375
1435.45416	62825.6375
1438.88399	64770.2375
1442.31151	66216.9375
1445.73673	66846.0375
1449.15965	66926.2375
1452.58027	66777.2375
1455.9986	66522.6375
1459.41463	66975.1375
1462.82837	67944.5375
1466.23982	69049.8375
1469.64898	69926.7375
1473.05586	70335.9375
1476.46045	70277.0375
1479.86276	69716.2375
1483.26279	68991.9375
1486.66054	68529.1375
1490.05602	68560.0375
1493.44922	68855.4375
1496.84016	69285.2375
1500.22882	69920.7375
1503.61521	71049.9375
1506.99934	72196.2375
1510.38121	72981.8375
1513.76081	73060.4375
1517.13816	72325.6375
1520.51324	71666.2375
1523.88607	71391.5375
1527.25665	71745.4375
1530.62498	72207.3375
1533.99105	72242.1375
1537.35488	71511.5375
1540.71647	70147.0375
1544.07581	68498.3375
1547.4329	66906.8375
1550.78776	65361.7375
1554.14038	64250.8375
1557.49077	63507.0375
1560.83892	62920.5375
1564.18484	62595.4375
1567.52853	62439.8375
1570.86999	62981.1375
1574.20922	64520.7375
1577.54624	66294.7375
1580.88103	67748.2375
1584.2136	69202.4375
1587.54395	71162.9375
1590.87208	73750.3375
1594.19801	76767.7375
1597.52172	79431.3375
1600.84321	79562.9375
1604.16251	76171.0375
1607.47959	71169.8375
1610.79447	66010.3375
1614.10715	61087.4375
1617.41763	56868.1375
1620.7259	53777.6375
1624.03199	52125.9375
1627.33587	51960.0375
1630.63757	53349.4375
1633.93707	56431.6375
1637.23439	61803.6375
1640.52951	69236.9375
1643.82246	77231.8375
1647.11321	82727.0375
1650.40179	82394.1375
1653.68819	75949.1375
1656.97241	66610.2375
1660.25446	57958.6375
1663.53433	51672.5375
1666.81203	47512.7375
1670.08756	44907.3375
1673.36092	43244.2375
1676.63211	42116.0375
1679.90115	41374.7375
1683.16801	40657.2375
1686.43272	40258.9375
1689.69527	39959.6375
1692.95567	39698.1375
1696.2139	39538.6375
1699.46999	39447.2375
1702.72392	39264.0375
1705.97571	39144.9375
1709.22535	39055.3375
1712.47284	38973.2375
1715.71819	38958.4375
1718.96139	38841.1375
1722.20246	38705.1375
1725.44139	38562.3375
1728.67818	38317.9375
1731.91284	38160.7375
1735.14537	37938.3375
1738.37576	37762.0375
1741.60403	37640.2375
1744.83017	37502.2375
1748.05418	37446.3375
1751.27607	37406.0375
1754.49584	37276.7375
1757.71349	37254.1375
1760.92903	37227.1375
1764.14244	37252.9375
1767.35375	37156.1375
1770.56294	37173.8375
1773.77002	37104.2375
1776.97499	37118.8375
1780.17785	37025.4375
1783.37861	36946.8375
1786.57727	36847.8375
1789.77382	36810.1375
1792.96828	36717.3375
1796.16064	36663.8375
1799.3509	36627.0375
1802.53907	36574.0375
1805.72514	36427.6375
1808.90913	36347.8375
1812.09102	36300.0375
1815.27083	36225.7375
1818.44856	36208.5375
1821.6242	36165.4375
1824.79776	36205.6375
1827.96924	36136.8375
1831.13864	36213.8375
1834.30597	36242.6375
1837.47122	36289.8375
1840.6344	36288.6375
1843.7955	36252.8375
1846.95454	36210.4375
1850.11151	36265.5375
1853.26642	36207.9375
1856.41926	36178.7375
1859.57004	36160.0375
1862.71876	36054.5375
1865.86542	36038.3375
1869.01003	35995.3375
1872.15258	35964.4375
1875.29308	35901.8375
1878.43152	35832.3375
1881.56792	35819.1375
1884.70227	35741.5375
1887.83457	35688.0375
1890.96482	35647.1375
1894.09304	35621.3375
1897.21921	35602.4375
1900.34335	35521.5375
1903.46544	35436.2375
1906.58551	35375.6375
1909.70353	35305.0375
1912.81953	35295.0375
1915.93349	35230.7375
1919.04543	35153.1375
1922.15534	35098.0375
1925.26322	34964.4375
1928.36908	34951.3375
1931.47292	34830.2375
1934.57473	34757.0375
1937.67453	34688.8375
1940.77232	34572.8375
1943.86808	34522.8375
1946.96184	34435.4375
1950.05358	34304.2375
1953.14331	34256.7375
1956.23103	34193.2375
1959.31675	34097.2375
1962.40046	33968.8375
1965.48217	33876.8375
1968.56188	33793.2375
1971.63959	33671.1375
1974.7153	33594.7375
1977.78901	33454.5375
1980.86073	33389.2375
1983.93046	33314.3375
1986.99819	33243.2375
1990.06394	33189.0375
1993.1277	33070.1375
1996.18947	32996.8375
1999.24925	32847.4375
2002.30706	32731.8375
2005.36288	32625.9375
2008.41672	32622.1375
2011.46859	32507.8375
2014.51848	32455.8375
2017.56639	32389.2375
2020.61233	32320.5375
2023.6563	32215.5375
2026.6983	32212.4375
2029.73833	32095.4375
2032.7764	32073.0375
2035.8125	31937.6375
2038.84664	31827.4375
2041.87881	31796.7375
2044.90903	31785.5375
2047.93729	31703.0375
2050.96359	31693.1375
2053.98794	31669.8375
2057.01034	31624.9375
2060.03078	31600.6375
2063.04927	31597.9375
2066.06582	31590.8375
2069.08042	31547.3375
2072.09307	31523.7375
2075.10378	31523.3375
2078.11255	31416.3375
2081.11938	31517.7375
2084.12426	31443.1375
2087.12722	31399.1375
2090.12824	31448.6375
2093.12732	31487.7375
2096.12447	31467.6375
2099.11969	31441.5375
2102.11299	31450.5375
2105.10435	31421.0375
2108.09379	31513.4375
2111.08131	31525.7375
2114.0669	31567.0375
2117.05057	31553.2375
2120.03233	31535.8375
2123.01216	31611.7375
2125.99008	31612.7375
2128.96609	31587.4375
2131.94018	31570.2375
2134.91236	31616.6375
2137.88263	31659.2375
2140.851	31659.6375
2143.81746	31698.2375
2146.78201	31695.8375
2149.74466	31656.6375
2152.7054	31710.2375
2155.66425	31675.6375
2158.6212	31732.3375
2161.57625	31678.7375
2164.52941	31721.1375
2167.48067	31734.4375
2170.43004	31709.0375
2173.37752	31680.2375
2176.32311	31666.0375
2179.26681	31612.7375
2182.20863	31607.4375
2185.14856	31673.0375
2188.08661	31614.6375
2191.02278	31656.7375
2193.95707	31624.6375
2196.88948	31522.7375
2199.82001	31594.5375
2202.74867	31493.8375
2205.67545	31446.8375
2208.60037	31386.6375
2211.52341	31425.1375
2214.44458	31378.7375
2217.36388	31315.8375
2220.28132	31271.6375
2223.1969	31258.9375
2226.11061	31196.8375
2229.02246	31107.1375
2231.93245	31055.2375
2234.84058	31047.4375
2237.74686	30937.6375
2240.65128	30934.2375
2243.55385	30894.1375
2246.45456	30800.1375
2249.35343	30787.7375
2252.25044	30747.9375
2255.14561	30623.7375
2258.03893	30688.7375
2260.93041	30618.3375
2263.82004	30551.7375
2266.70783	30452.8375
2269.59378	30363.4375
2272.4779	30319.3375
2275.36017	30231.2375
2278.24061	30139.2375
2281.11922	30118.1375
2283.996	30056.1375
2286.87094	30035.6375
2289.74405	29998.1375
2292.61534	30005.9375
2295.4848	29910.0375
2298.35243	29894.1375
2301.21824	29835.4375
2304.08223	29869.0375
2306.94439	29857.5375
2309.80474	29853.8375
2312.66327	29861.1375
2315.51999	29802.3375
2318.37489	29767.1375
2321.22797	29757.2375
2324.07925	29733.0375
2326.92871	29647.2375
2329.77637	29615.3375
2332.62222	29617.2375
2335.46626	29571.0375
2338.3085	29562.7375
2341.14893	29530.9375
2343.98756	29562.6375
2346.8244	29519.3375
2349.65943	29503.8375
2352.49267	29450.0375
2355.32411	29467.9375
2358.15376	29450.7375
2360.98161	29433.7375
2363.80768	29439.9375
2366.63195	29412.2375
2369.45444	29393.4375
2372.27514	29337.8375
2375.09405	29272.5375
2377.91118	29284.0375
2380.72652	29199.7375
2383.54009	29161.9375
2386.35187	29138.8375
2389.16188	29063.7375
2391.97011	29017.7375
2394.77657	28989.9375
2397.58125	28940.0375
2400.38416	28917.3375
2403.18529	28876.7375
2405.98466	28848.8375
2408.78226	28783.2375
2411.57809	28762.2375
2414.37216	28702.9375
2417.16446	28734.1375
2419.955	28678.3375
2422.74378	28709.9375
2425.5308	28649.5375
2428.31606	28613.4375
2431.09956	28567.8375
2433.88131	28567.6375
2436.6613	28591.9375
2439.43954	28536.5375
2442.21603	28430.5375
2444.99077	28480.5375
2447.76377	28496.3375
2450.53501	28467.5375
2453.30451	28434.0375
2456.07226	28412.3375
2458.83827	28411.4375
2461.60254	28418.0375
2464.36507	28365.1375
2467.12586	28379.6375
2469.88492	28356.9375
2472.64224	28305.7375
2475.39782	28322.5375
2478.15167	28363.3375
2480.90379	28349.4375
2483.65417	28314.4375
2486.40283	28300.1375
2489.14976	28279.2375
2491.89497	28269.4375
2494.63845	28273.8375
2497.3802	28297.8375
2500.12024	28274.7375
2502.85855	28282.5375
2505.59514	28276.2375
2508.33002	28291.1375
2511.06318	28253.1375
2513.79462	28223.2375
2516.52435	28200.2375
2519.25237	28207.7375
2521.97867	28175.9375
2524.70327	28154.0375
2527.42616	28118.4375
2530.14734	28109.4375
2532.86681	28093.5375
2535.58458	28098.3375
2538.30065	28029.2375
2541.01501	28018.9375
2543.72768	28011.9375
2546.43864	27956.7375
2549.14791	27902.8375
2551.85548	27919.8375
2554.56136	27883.3375
2557.26554	27841.7375
2559.96803	27806.1375
2562.66883	27784.9375
2565.36794	27740.8375
2568.06536	27736.6375
2570.7611	27723.3375
2573.45514	27694.0375
2576.14751	27648.9375
2578.83819	27605.2375
2581.52719	27616.3375
2584.21451	27587.4375
2586.90015	27519.0375
2589.58411	27499.3375
2592.2664	27440.2375
2594.94701	27460.2375
2597.62594	27419.7375
2600.30321	27366.6375
2602.9788	27379.7375
2605.65273	27330.6375
2608.32498	27347.3375
2610.99557	27285.3375
2613.66449	27294.5375
2616.33175	27273.4375
2618.99734	27272.7375
2621.66128	27227.2375
2624.32355	27202.8375
2626.98416	27194.6375
2629.64311	27154.4375
2632.30041	27142.9375
2634.95605	27065.0375
2637.61004	27112.8375
2640.26238	27079.9375
2642.91306	27106.7375
2645.56209	27082.1375
2648.20948	27081.5375
2650.85521	27086.6375
2653.4993	27078.9375
2656.14175	27070.7375
2658.78255	27095.9375
2661.42171	27093.9375
2664.05923	27164.9375
2666.6951	27113.9375
2669.32934	27144.2375
2671.96194	27111.1375
2674.59291	27109.0375
2677.22224	27131.1375
2679.84993	27132.1375
2682.476	27092.5375
2685.10043	27107.4375
2687.72324	27067.5375
2690.34441	27095.9375
2692.96396	27118.1375
2695.58188	27139.9375
2698.19818	27096.3375
2700.81285	27078.6375
2703.4259	27139.3375
2706.03733	27207.9375
2708.64714	27179.2375
2711.25533	27189.4375
2713.86191	27180.9375
2716.46687	27215.0375
2719.07021	27164.2375
2721.67194	27184.1375
2724.27206	27159.2375
2726.87057	27202.1375
2729.46747	27228.6375
2732.06276	27259.1375
2734.65644	27255.5375
2737.24852	27278.4375
2739.83899	27220.6375
2742.42786	27259.0375
2745.01513	27194.7375
2747.60079	27150.8375
2750.18486	27151.7375
2752.76733	27193.6375
2755.3482	27180.5375
2757.92747	27174.6375
2760.50515	27154.0375
2763.08123	27127.5375
2765.65573	27065.7375
2768.22863	27029.3375
2770.79994	26949.5375
2773.36967	26990.4375
2775.9378	26936.2375
2778.50435	26915.2375
2781.06932	26923.5375
2783.6327	26935.3375
2786.1945	26918.2375
2788.75471	26831.9375
2791.31335	26800.5375
2793.87041	26786.4375
2796.42589	26699.6375
2798.97979	26664.5375
2801.53212	26594.1375
2804.08288	26621.3375
2806.63206	26486.0375
2809.17967	26474.9375
2811.72571	26383.7375
2814.27018	26381.1375
2816.81308	26343.2375
2819.35442	26331.4375
2821.89419	26261.0375
2824.43239	26229.9375
2826.96904	26156.5375
2829.50412	26182.7375
2832.03763	26101.1375
2834.56959	26110.4375
2837.1	26049.3375
2839.62884	26013.2375
2842.15613	25989.8375
2844.68186	26020.4375
2847.20604	25920.4375
2849.72867	25929.2375
2852.24974	25875.9375
2854.76927	25901.2375
2857.28724	25837.9375
2859.80367	25807.0375
2862.31855	25812.1375
2864.83189	25753.9375
2867.34368	25725.3375
2869.85393	25686.8375
2872.36264	25691.0375
2874.8698	25683.7375
2877.37543	25687.8375
2879.87952	25671.5375
2882.38207	25649.1375
2884.88308	25695.3375
2887.38256	25707.6375
2889.88051	25647.6375
2892.37692	25653.9375
2894.8718	25610.6375
2897.36515	25641.7375
2899.85698	25640.7375
2902.34727	25718.9375
2904.83604	25703.0375
2907.32328	25731.9375
2909.809	25738.3375
2912.29319	25777.2375
2914.77587	25738.8375
2917.25702	25758.5375
2919.73665	25717.5375
2922.21476	25768.2375
2924.69136	25721.0375
2927.16644	25725.0375
2929.64	25697.4375
2932.11205	25608.0375
2934.58258	25526.6375
2937.05161	25647.7375
2939.51912	25658.2375
2941.98513	25649.7375
2944.44962	25538.6375
2946.91261	25456.7375
2949.37409	25527.4375
2951.83407	25502.9375
2954.29254	25482.1375
2956.74951	25375.1375
2959.20498	25358.6375
2961.65895	25345.8375
2964.11142	25361.2375
2966.56239	25289.7375
2969.01186	25318.7375
2971.45984	25243.9375
2973.90632	25203.0375
2976.35131	25196.7375
2978.7948	25147.2375
2981.23681	25093.2375
2983.67732	25080.3375
2986.11635	25004.0375
2988.55388	24942.0375
2990.98993	24872.9375
2993.4245	24858.4375
2995.85758	24778.8375
2998.28917	24680.1375
3000.71928	24677.1375
3003.14791	24594.3375
3005.57506	24589.4375
3008.00073	24528.5375
3010.42493	24483.3375
3012.84764	24505.4375
3015.26888	24475.0375
3017.68865	24367.1375
3020.10694	24356.1375
3022.52376	24325.1375
3024.9391	24292.6375
3027.35298	24255.5375
3029.76539	24214.2375
3032.17632	24216.0375
3034.5858	24164.3375
3036.9938	24179.6375
3039.40034	24126.6375
3041.80542	24063.9375
3044.20903	24018.6375
3046.61118	23938.6375
3049.01187	23935.2375
3051.4111	23890.8375
3053.80888	23820.6375
3056.20519	23778.3375
3058.60005	23722.7375
3060.99345	23679.6375
3063.3854	23629.6375
3065.7759	23555.9375
3068.16494	23511.2375
3070.55254	23450.2375
3072.93868	23364.1375
3075.32338	23308.7375
3077.70662	23281.5375
3080.08842	23207.0375
3082.46878	23223.3375
3084.84769	23173.1375
3087.22515	23150.5375
3089.60118	23121.2375
3091.97576	23102.9375
3094.3489	23056.1375
3096.72061	23052.4375
3099.09087	23056.1375
3101.4597	23005.1375
3103.82709	22969.4375
3106.19305	22892.8375
3108.55757	22870.2375
3110.92066	22804.1375
3113.28232	22765.1375
3115.64255	22727.6375
3118.00134	22655.7375
3120.35871	22633.2375
3122.71466	22599.9375
3125.06917	22565.3375
3127.42226	22535.3375
3129.77393	22536.2375
3132.12417	22452.0375
3134.47299	22485.3375
3136.82039	22473.7375
3139.16636	22442.3375
3141.51092	22401.7375
3143.85406	22407.4375
3146.19579	22414.6375
3148.53609	22389.6375
3150.87499	22402.8375
3153.21246	22408.6375
3155.54853	22402.4375
3157.88318	22350.9375
3160.21642	22342.9375
3162.54826	22342.7375
3164.87868	22309.9375
3167.2077	22273.3375
3169.5353	22260.5375
3171.86151	22233.8375
3174.18631	22198.6375
3176.5097	22174.1375
3178.83169	22136.0375
3181.15228	22140.1375
3183.47147	22107.0375
3185.78926	22077.3375
3188.10565	22051.1375
3190.42065	22001.2375
3192.73424	21992.9375
3195.04645	21981.4375
3197.35725	21972.2375
3199.66667	21933.8375
3201.97469	21927.9375
3204.28132	21915.8375
3206.58656	21895.0375
3208.8904	21872.8375
3211.19287	21893.4375
3213.49394	21856.5375
3215.79363	21857.8375
3218.09193	21864.9375
3220.38884	21876.0375
3222.68438	21899.4375
3224.97853	21874.3375
3227.2713	21844.9375
3229.56269	21772.4375
3231.8527	21761.3375
3234.14133	21696.9375
3236.42858	21680.4375
3238.71446	21653.4375
3240.99896	21584.8375
3243.28209	21575.4375
3245.56384	21554.4375
3247.84423	21552.2375
3250.12324	21477.0375
3252.40088	21413.0375
3254.67715	21439.0375
3256.95205	21399.2375
3259.22558	21376.8375
3261.49775	21309.2375
3263.76855	21307.3375
3266.03799	21201.7375
3268.30606	21222.0375
3270.57277	21176.0375
3272.83812	21139.6375
3275.10211	21133.4375
3277.36474	21079.7375
3279.62601	21084.5375
3281.88593	21059.3375
3284.14448	21071.0375
3286.40168	21030.0375
3288.65753	20988.2375
3290.91202	20978.0375
3293.16516	20917.2375
3295.41695	20857.1375
3297.66738	20747.3375
3299.91647	20639.0375
3302.16421	20498.1375
3304.4106	20403.9375
3306.65564	20328.6375
3308.89933	20155.6375
3311.14169	20017.7375
3313.38269	19828.8375
3315.62236	19724.5375
3317.86068	19541.1375
3320.09766	19354.2375
3322.3333	19214.2375
3324.5676	19186.0375
3326.80056	18876.5375
3329.03219	18759.3375
3331.26248	4.4375
3333.49143	0.0375
3335.71905	0.3375
