Data from AgNP_FTO_APTES_CRN_1000uM_R6G_10uM_NaF_0.1M_Addition_RamanShift__16__21-08-58-284.txt Node

Date: Wed Dec 15 21:08:58 GMT 2021
User: TCL
Spectrometer: QEP01345
Trigger mode: 4
Integration Time (sec): 7.000000E0
Scans to average: 10
Electric dark correction enabled: true
Nonlinearity correction enabled: false
Boxcar width: 0
XAxis mode: Raman Shifts
Number of Pixels in Spectrum: 1044
>>>>>Begin Spectral Data<<<<<
46.04893	0.6875
50.45542	-2.1125
54.85868	-0.0125
59.25871	0.0875
63.6555	53.8875
68.04907	59.5875
72.43941	62.4875
76.82654	63.3875
81.21044	64.8875
85.59113	68.2875
89.96862	70.4875
94.34289	68.3875
98.71396	77.2875
103.08183	77.8875
107.4465	81.8875
111.80798	85.3875
116.16626	84.2875
120.52136	88.9875
124.87327	89.7875
129.222	92.7875
133.56755	94.6875
137.90993	107.2875
142.24913	117.3875
146.58517	125.2875
150.91804	145.3875
155.24774	169.6875
159.57429	215.2875
163.89768	274.2875
168.21792	355.6875
172.53501	478.6875
176.84895	672.0875
181.15975	942.8875
185.46741	1326.1875
189.77193	1830.1875
194.07331	2462.3875
198.37157	3183.7875
202.6667	3961.8875
206.9587	4724.9875
211.24758	5468.4875
215.53334	6215.0875
219.81599	7003.2875
224.09553	7874.0875
228.37195	8766.6875
232.64527	9801.4875
236.91549	10878.9875
241.18261	11977.1875
245.44663	12990.3875
249.70755	13867.9875
253.96539	14623.9875
258.22014	15251.5875
262.4718	15760.7875
266.72039	16077.2875
270.96589	16211.3875
275.20832	16197.1875
279.44768	16107.6875
283.68397	15914.3875
287.91719	15750.1875
292.14735	15635.1875
296.37445	15622.4875
300.59849	15657.4875
304.81948	15682.1875
309.03742	15685.4875
313.25231	15622.8875
317.46415	15319.0875
321.67296	14960.0875
325.87872	14654.5875
330.08145	14512.1875
334.28114	14541.0875
338.47781	14651.0875
342.67145	14833.9875
346.86207	15079.1875
351.04966	15408.0875
355.23424	15728.4875
359.4158	15978.5875
363.59435	16136.8875
367.76989	16242.0875
371.94243	16303.8875
376.11196	16330.8875
380.27849	16428.5875
384.44203	16471.8875
388.60257	16541.7875
392.76012	16631.7875
396.91468	16804.7875
401.06626	17018.2875
405.21485	17206.4875
409.36047	17220.6875
413.50311	16996.6875
417.64277	16813.7875
421.77947	16725.9875
425.9132	16718.6875
430.04396	16801.0875
434.17176	16922.8875
438.2966	17103.0875
442.41849	17362.4875
446.53742	17705.4875
450.6534	18012.6875
454.76644	18235.4875
458.87653	18355.0875
462.98368	18312.4875
467.08789	18226.4875
471.18916	18167.3875
475.2875	18074.1875
479.38291	17985.7875
483.4754	17870.8875
487.56496	17739.9875
491.6516	17601.7875
495.73531	17534.8875
499.81612	17497.4875
503.89401	17558.1875
507.96899	17643.8875
512.04106	17747.1875
516.11023	17767.5875
520.1765	17866.9875
524.23987	17849.7875
528.30034	17836.4875
532.35792	17740.1875
536.41261	17607.0875
540.46441	17492.7875
544.51333	17486.6875
548.55936	17585.5875
552.60252	17866.5875
556.64279	18142.5875
560.6802	18331.3875
564.71473	18444.5875
568.7464	18669.8875
572.7752	18926.1875
576.80114	18980.1875
580.82422	18973.3875
584.84444	19047.9875
588.86181	19184.9875
592.87633	19329.5875
596.888	19392.2875
600.89682	19386.5875
604.9028	19851.6875
608.90594	21207.1875
612.90624	22785.4875
616.90371	22034.5875
620.89834	19283.6875
624.89015	17997.7875
628.87913	17776.8875
632.86528	17864.1875
636.84862	17991.1875
640.82913	17910.4875
644.80683	17678.7875
648.78172	17467.3875
652.75379	17472.2875
656.72306	17619.9875
660.68952	17833.6875
664.65319	17814.0875
668.61405	17635.8875
672.57211	17616.4875
676.52738	17705.2875
680.47986	17803.5875
684.42955	17776.7875
688.37646	17722.6875
692.32058	17732.6875
696.26192	17771.1875
700.20048	17837.2875
704.13626	17908.6875
708.06928	17899.1875
711.99952	17857.9875
715.927	17796.3875
719.85171	17783.9875
723.77365	17659.9875
727.69284	17551.2875
731.60928	17392.5875
735.52295	17338.7875
739.43388	17338.2875
743.34206	17355.4875
747.24749	17333.4875
751.15017	17377.9875
755.05012	17549.3875
758.94733	17831.8875
762.8418	18471.4875
766.73354	19523.9875
770.62254	20531.2875
774.50882	20824.6875
778.39237	20211.3875
782.27321	19155.5875
786.15132	18135.3875
790.02671	17543.3875
793.89938	17212.2875
797.76935	17084.2875
801.6366	17023.7875
805.50115	16977.5875
809.36299	16916.0875
813.22213	16870.5875
817.07857	16869.6875
820.93231	16856.9875
824.78336	16871.9875
828.63172	16891.4875
832.47738	16867.4875
836.32036	16880.4875
840.16066	16873.3875
843.99827	16837.2875
847.8332	16818.1875
851.66546	16799.9875
855.49504	16797.6875
859.32195	16818.8875
863.1462	16810.0875
866.96777	16829.0875
870.78668	16801.2875
874.60293	16770.3875
878.41652	16808.3875
882.22745	16829.0875
886.03573	16845.4875
889.84136	16859.3875
893.64433	16856.0875
897.44466	16824.0875
901.24235	16768.2875
905.0374	16760.5875
908.8298	16712.9875
912.61957	16742.3875
916.40671	16787.1875
920.19121	16864.4875
923.97308	16943.4875
927.75233	16943.1875
931.52895	16950.1875
935.30295	16879.1875
939.07433	16718.1875
942.84309	16499.6875
946.60924	16394.2875
950.37278	16335.3875
954.13371	16328.0875
957.89203	16279.0875
961.64774	16259.7875
965.40086	16227.7875
969.15137	16167.4875
972.89929	16132.7875
976.64461	16134.6875
980.38733	16081.2875
984.12747	16149.2875
987.86502	16165.7875
991.59999	16237.0875
995.33237	16323.9875
999.06217	16438.3875
1002.78939	16634.6875
1006.51404	16747.3875
1010.23611	16919.6875
1013.95561	17023.3875
1017.67255	17018.7875
1021.38692	16937.9875
1025.09872	16822.9875
1028.80796	16732.1875
1032.51465	16727.0875
1036.21877	16794.5875
1039.92035	16841.3875
1043.61937	16906.3875
1047.31584	16910.9875
1051.00976	16987.2875
1054.70114	17042.2875
1058.38998	17159.0875
1062.07627	17337.0875
1065.76003	17602.1875
1069.44126	17899.8875
1073.11995	18291.9875
1076.79611	18525.7875
1080.46974	18464.4875
1084.14085	18297.7875
1087.80943	18114.5875
1091.47549	18013.3875
1095.13903	17875.6875
1098.80005	17694.6875
1102.45857	17425.5875
1106.11456	17257.2875
1109.76805	17166.3875
1113.41903	17178.6875
1117.06751	17289.1875
1120.71348	17433.1875
1124.35696	17633.2875
1127.99793	17880.6875
1131.63641	17945.6875
1135.2724	17775.0875
1138.90589	17584.9875
1142.5369	17453.9875
1146.16542	17342.7875
1149.79145	17407.9875
1153.415	17447.8875
1157.03607	17512.2875
1160.65467	17714.9875
1164.27079	18040.6875
1167.88443	18547.7875
1171.49561	19274.1875
1175.10432	20252.2875
1178.71056	21438.2875
1182.31434	22484.2875
1185.91565	22875.5875
1189.51451	22760.9875
1193.11091	22343.9875
1196.70485	21710.9875
1200.29634	21061.9875
1203.88538	20520.8875
1207.47197	20036.3875
1211.05612	19602.8875
1214.63782	19323.7875
1218.21708	19176.9875
1221.79391	19047.6875
1225.36829	18959.8875
1228.94024	18915.1875
1232.50976	18793.8875
1236.07685	18706.6875
1239.6415	18708.7875
1243.20374	18717.5875
1246.76355	18802.8875
1250.32093	18970.1875
1253.8759	19133.8875
1257.42845	19453.7875
1260.97859	19723.9875
1264.52631	19983.8875
1268.07163	20270.5875
1271.61453	20532.4875
1275.15503	20761.8875
1278.69312	20974.8875
1282.22882	21197.7875
1285.76211	21496.0875
1289.29301	21913.3875
1292.82151	22476.4875
1296.34761	23061.0875
1299.87133	23762.4875
1303.39266	24618.6875
1306.9116	25718.1875
1310.42815	26802.2875
1313.94233	27563.2875
1317.45412	27531.3875
1320.96354	27055.7875
1324.47058	26462.3875
1327.97525	25932.6875
1331.47754	25584.8875
1334.97747	25423.8875
1338.47502	25511.7875
1341.97022	25671.6875
1345.46305	25932.4875
1348.95352	26159.2875
1352.44163	26465.1875
1355.92738	27022.8875
1359.41078	28029.3875
1362.89183	29021.5875
1366.37053	28583.8875
1369.84688	26576.0875
1373.32088	24306.4875
1376.79254	22819.4875
1380.26186	22138.6875
1383.72883	21820.6875
1387.19347	21596.6875
1390.65578	21380.8875
1394.11575	21235.1875
1397.57339	21163.8875
1401.0287	21187.5875
1404.48168	21203.8875
1407.93234	21147.2875
1411.38068	20950.7875
1414.82669	20624.4875
1418.27039	20221.0875
1421.71177	19803.4875
1425.15083	19365.8875
1428.58758	19118.3875
1432.02203	19141.0875
1435.45416	19336.6875
1438.88399	19540.0875
1442.31151	19650.9875
1445.73673	19791.8875
1449.15965	20003.0875
1452.58027	20159.5875
1455.9986	20232.7875
1459.41463	20330.7875
1462.82837	20510.9875
1466.23982	20747.8875
1469.64898	20972.2875
1473.05586	21129.9875
1476.46045	21205.4875
1479.86276	21242.2875
1483.26279	21245.6875
1486.66054	21343.8875
1490.05602	21541.4875
1493.44922	21860.9875
1496.84016	22300.5875
1500.22882	23060.2875
1503.61521	24093.5875
1506.99934	25226.3875
1510.38121	26175.3875
1513.76081	26446.3875
1517.13816	25743.8875
1520.51324	24472.2875
1523.88607	23253.5875
1527.25665	22440.4875
1530.62498	22055.3875
1533.99105	21781.2875
1537.35488	21593.5875
1540.71647	21319.9875
1544.07581	21073.3875
1547.4329	20863.0875
1550.78776	20689.9875
1554.14038	20555.9875
1557.49077	20572.4875
1560.83892	20675.0875
1564.18484	20856.3875
1567.52853	21183.9875
1570.86999	21502.4875
1574.20922	21938.6875
1577.54624	22327.6875
1580.88103	22349.6875
1584.2136	22040.8875
1587.54395	21659.9875
1590.87208	21588.3875
1594.19801	21803.4875
1597.52172	22351.2875
1600.84321	22553.3875
1604.16251	22127.7875
1607.47959	21300.6875
1610.79447	20344.1875
1614.10715	19340.3875
1617.41763	18519.1875
1620.7259	17915.9875
1624.03199	17545.2875
1627.33587	17455.3875
1630.63757	17613.3875
1633.93707	18102.2875
1637.23439	18892.3875
1640.52951	20111.0875
1643.82246	21680.0875
1647.11321	23145.7875
1650.40179	23865.3875
1653.68819	23245.9875
1656.97241	21458.4875
1660.25446	19512.6875
1663.53433	17970.7875
1666.81203	16909.8875
1670.08756	16243.2875
1673.36092	15767.0875
1676.63211	15472.0875
1679.90115	15280.9875
1683.16801	15089.7875
1686.43272	14982.9875
1689.69527	14924.4875
1692.95567	14835.0875
1696.2139	14810.7875
1699.46999	14788.0875
1702.72392	14744.3875
1705.97571	14739.8875
1709.22535	14687.0875
1712.47284	14651.8875
1715.71819	14640.0875
1718.96139	14630.4875
1722.20246	14560.1875
1725.44139	14528.7875
1728.67818	14445.4875
1731.91284	14407.7875
1735.14537	14327.9875
1738.37576	14296.4875
1741.60403	14270.4875
1744.83017	14215.6875
1748.05418	14190.4875
1751.27607	14209.3875
1754.49584	14169.9875
1757.71349	14167.3875
1760.92903	14153.8875
1764.14244	14140.2875
1767.35375	14124.0875
1770.56294	14102.5875
1773.77002	14032.6875
1776.97499	14015.2875
1780.17785	13992.6875
1783.37861	13943.7875
1786.57727	13903.3875
1789.77382	13839.4875
1792.96828	13799.6875
1796.16064	13766.5875
1799.3509	13765.9875
1802.53907	13728.6875
1805.72514	13646.3875
1808.90913	13633.0875
1812.09102	13600.5875
1815.27083	13600.5875
1818.44856	13563.6875
1821.6242	13524.6875
1824.79776	13531.2875
1827.96924	13519.9875
1831.13864	13488.0875
1834.30597	13490.1875
1837.47122	13484.7875
1840.6344	13430.5875
1843.7955	13424.5875
1846.95454	13416.2875
1850.11151	13406.6875
1853.26642	13379.8875
1856.41926	13379.1875
1859.57004	13372.6875
1862.71876	13337.8875
1865.86542	13328.5875
1869.01003	13339.9875
1872.15258	13316.5875
1875.29308	13295.5875
1878.43152	13288.2875
1881.56792	13271.5875
1884.70227	13266.9875
1887.83457	13282.8875
1890.96482	13242.6875
1894.09304	13229.7875
1897.21921	13181.9875
1900.34335	13197.8875
1903.46544	13178.1875
1906.58551	13177.4875
1909.70353	13115.8875
1912.81953	13138.9875
1915.93349	13101.4875
1919.04543	13054.9875
1922.15534	13053.2875
1925.26322	13017.9875
1928.36908	13022.0875
1931.47292	13036.8875
1934.57473	12970.1875
1937.67453	12946.5875
1940.77232	12869.2875
1943.86808	12862.8875
1946.96184	12826.0875
1950.05358	12803.0875
1953.14331	12766.2875
1956.23103	12727.5875
1959.31675	12677.3875
1962.40046	12644.3875
1965.48217	12606.8875
1968.56188	12590.4875
1971.63959	12537.8875
1974.7153	12498.2875
1977.78901	12490.1875
1980.86073	12414.2875
1983.93046	12386.2875
1986.99819	12352.6875
1990.06394	12317.1875
1993.1277	12267.1875
1996.18947	12230.9875
1999.24925	12204.4875
2002.30706	12144.6875
2005.36288	12124.0875
2008.41672	12058.8875
2011.46859	12064.8875
2014.51848	12022.9875
2017.56639	11995.2875
2020.61233	11963.7875
2023.6563	11891.3875
2026.6983	11893.4875
2029.73833	11870.1875
2032.7764	11825.3875
2035.8125	11792.1875
2038.84664	11778.2875
2041.87881	11750.9875
2044.90903	11739.0875
2047.93729	11706.1875
2050.96359	11681.6875
2053.98794	11688.3875
2057.01034	11649.4875
2060.03078	11654.4875
2063.04927	11613.2875
2066.06582	11623.2875
2069.08042	11643.2875
2072.09307	11645.5875
2075.10378	11596.2875
2078.11255	11594.2875
2081.11938	11578.6875
2084.12426	11582.9875
2087.12722	11566.1875
2090.12824	11575.9875
2093.12732	11577.4875
2096.12447	11582.9875
2099.11969	11568.1875
2102.11299	11588.0875
2105.10435	11580.9875
2108.09379	11582.3875
2111.08131	11549.4875
2114.0669	11563.6875
2117.05057	11594.9875
2120.03233	11591.4875
2123.01216	11597.3875
2125.99008	11595.2875
2128.96609	11617.0875
2131.94018	11614.1875
2134.91236	11619.4875
2137.88263	11599.9875
2140.851	11619.8875
2143.81746	11635.6875
2146.78201	11666.7875
2149.74466	11644.2875
2152.7054	11639.2875
2155.66425	11643.0875
2158.6212	11643.0875
2161.57625	11655.8875
2164.52941	11628.3875
2167.48067	11600.6875
2170.43004	11614.6875
2173.37752	11596.3875
2176.32311	11576.0875
2179.26681	11584.3875
2182.20863	11578.8875
2185.14856	11599.5875
2188.08661	11556.2875
2191.02278	11534.0875
2193.95707	11525.8875
2196.88948	11538.8875
2199.82001	11517.4875
2202.74867	11508.4875
2205.67545	11500.3875
2208.60037	11512.7875
2211.52341	11465.0875
2214.44458	11446.0875
2217.36388	11413.5875
2220.28132	11396.3875
2223.1969	11391.5875
2226.11061	11353.6875
2229.02246	11339.8875
2231.93245	11332.6875
2234.84058	11306.4875
2237.74686	11272.8875
2240.65128	11268.4875
2243.55385	11225.7875
2246.45456	11198.9875
2249.35343	11200.9875
2252.25044	11188.7875
2255.14561	11150.5875
2258.03893	11174.2875
2260.93041	11135.0875
2263.82004	11130.3875
2266.70783	11117.2875
2269.59378	11052.2875
2272.4779	11049.5875
2275.36017	10999.0875
2278.24061	10965.4875
2281.11922	10931.8875
2283.996	10903.4875
2286.87094	10890.7875
2289.74405	10891.7875
2292.61534	10863.4875
2295.4848	10840.3875
2298.35243	10864.0875
2301.21824	10814.8875
2304.08223	10798.8875
2306.94439	10794.0875
2309.80474	10765.7875
2312.66327	10783.9875
2315.51999	10788.4875
2318.37489	10773.4875
2321.22797	10748.0875
2324.07925	10775.1875
2326.92871	10736.8875
2329.77637	10750.8875
2332.62222	10692.8875
2335.46626	10691.0875
2338.3085	10665.1875
2341.14893	10645.0875
2343.98756	10617.3875
2346.8244	10624.7875
2349.65943	10584.0875
2352.49267	10602.8875
2355.32411	10601.4875
2358.15376	10568.4875
2360.98161	10559.9875
2363.80768	10557.2875
2366.63195	10565.5875
2369.45444	10539.0875
2372.27514	10542.7875
2375.09405	10537.6875
2377.91118	10513.9875
2380.72652	10481.4875
2383.54009	10427.6875
2386.35187	10424.8875
2389.16188	10397.7875
2391.97011	10383.1875
2394.77657	10366.8875
2397.58125	10330.7875
2400.38416	10336.6875
2403.18529	10306.1875
2405.98466	10290.6875
2408.78226	10286.0875
2411.57809	10263.6875
2414.37216	10240.9875
2417.16446	10205.1875
2419.955	10230.1875
2422.74378	10209.6875
2425.5308	10202.4875
2428.31606	10154.9875
2431.09956	10176.3875
2433.88131	10160.5875
2436.6613	10152.9875
2439.43954	10144.9875
2442.21603	10120.1875
2444.99077	10103.8875
2447.76377	10112.2875
2450.53501	10086.6875
2453.30451	10091.0875
2456.07226	10064.0875
2458.83827	10061.1875
2461.60254	10019.6875
2464.36507	10033.5875
2467.12586	10025.5875
2469.88492	10016.3875
2472.64224	9999.3875
2475.39782	9974.0875
2478.15167	9977.8875
2480.90379	9970.7875
2483.65417	9991.3875
2486.40283	9962.7875
2489.14976	9979.2875
2491.89497	9956.5875
2494.63845	9959.5875
2497.3802	9937.6875
2500.12024	9916.0875
2502.85855	9922.6875
2505.59514	9907.3875
2508.33002	9883.1875
2511.06318	9903.7875
2513.79462	9845.3875
2516.52435	9842.2875
2519.25237	9843.9875
2521.97867	9810.7875
2524.70327	9797.1875
2527.42616	9783.1875
2530.14734	9766.2875
2532.86681	9758.5875
2535.58458	9724.0875
2538.30065	9730.4875
2541.01501	9719.0875
2543.72768	9716.2875
2546.43864	9711.3875
2549.14791	9659.4875
2551.85548	9657.7875
2554.56136	9635.4875
2557.26554	9618.2875
2559.96803	9597.6875
2562.66883	9589.0875
2565.36794	9548.0875
2568.06536	9562.4875
2570.7611	9550.0875
2573.45514	9539.1875
2576.14751	9507.1875
2578.83819	9488.1875
2581.52719	9492.0875
2584.21451	9449.7875
2586.90015	9449.4875
2589.58411	9418.2875
2592.2664	9406.1875
2594.94701	9364.5875
2597.62594	9364.7875
2600.30321	9353.6875
2602.9788	9355.1875
2605.65273	9321.2875
2608.32498	9298.9875
2610.99557	9281.9875
2613.66449	9315.5875
2616.33175	9247.9875
2618.99734	9249.4875
2621.66128	9222.9875
2624.32355	9231.1875
2626.98416	9228.7875
2629.64311	9230.9875
2632.30041	9204.0875
2634.95605	9203.9875
2637.61004	9153.2875
2640.26238	9132.1875
2642.91306	9156.0875
2645.56209	9135.5875
2648.20948	9138.5875
2650.85521	9140.3875
2653.4993	9140.7875
2656.14175	9105.3875
2658.78255	9123.1875
2661.42171	9107.5875
2664.05923	9120.7875
2666.6951	9098.6875
2669.32934	9113.3875
2671.96194	9105.4875
2674.59291	9098.9875
2677.22224	9098.4875
2679.84993	9117.7875
2682.476	9100.8875
2685.10043	9096.6875
2687.72324	9065.7875
2690.34441	9080.0875
2692.96396	9061.9875
2695.58188	9092.7875
2698.19818	9071.9875
2700.81285	9091.1875
2703.4259	9065.8875
2706.03733	9139.5875
2708.64714	9110.2875
2711.25533	9095.2875
2713.86191	9105.4875
2716.46687	9085.7875
2719.07021	9080.5875
2721.67194	9055.4875
2724.27206	9052.6875
2726.87057	9042.2875
2729.46747	9050.1875
2732.06276	9042.5875
2734.65644	9035.9875
2737.24852	9018.9875
2739.83899	9000.9875
2742.42786	9000.2875
2745.01513	8995.7875
2747.60079	8971.2875
2750.18486	8977.9875
2752.76733	8977.3875
2755.3482	8954.8875
2757.92747	8940.7875
2760.50515	8931.2875
2763.08123	8911.3875
2765.65573	8912.8875
2768.22863	8907.9875
2770.79994	8903.7875
2773.36967	8889.1875
2775.9378	8872.7875
2778.50435	8847.7875
2781.06932	8833.2875
2783.6327	8848.1875
2786.1945	8814.8875
2788.75471	8814.7875
2791.31335	8773.9875
2793.87041	8781.7875
2796.42589	8757.3875
2798.97979	8751.6875
2801.53212	8714.3875
2804.08288	8708.8875
2806.63206	8674.9875
2809.17967	8665.5875
2811.72571	8654.1875
2814.27018	8654.9875
2816.81308	8641.1875
2819.35442	8626.9875
2821.89419	8601.2875
2824.43239	8596.2875
2826.96904	8564.0875
2829.50412	8571.8875
2832.03763	8541.1875
2834.56959	8545.2875
2837.1	8558.1875
2839.62884	8560.4875
2842.15613	8554.1875
2844.68186	8568.3875
2847.20604	8544.6875
2849.72867	8571.9875
2852.24974	8545.4875
2854.76927	8540.1875
2857.28724	8548.5875
2859.80367	8514.0875
2862.31855	8498.9875
2864.83189	8494.3875
2867.34368	8481.3875
2869.85393	8469.1875
2872.36264	8444.9875
2874.8698	8449.5875
2877.37543	8465.8875
2879.87952	8462.6875
2882.38207	8455.2875
2884.88308	8455.6875
2887.38256	8450.7875
2889.88051	8453.6875
2892.37692	8433.5875
2894.8718	8445.1875
2897.36515	8453.1875
2899.85698	8434.3875
2902.34727	8449.1875
2904.83604	8457.2875
2907.32328	8480.3875
2909.809	8462.5875
2912.29319	8465.2875
2914.77587	8475.5875
2917.25702	8452.2875
2919.73665	8469.6875
2922.21476	8487.7875
2924.69136	8462.2875
2927.16644	8457.1875
2929.64	8444.1875
2932.11205	8440.7875
2934.58258	8445.0875
2937.05161	8455.3875
2939.51912	8445.3875
2941.98513	8436.6875
2944.44962	8410.2875
2946.91261	8370.2875
2949.37409	8374.5875
2951.83407	8352.1875
2954.29254	8341.4875
2956.74951	8336.8875
2959.20498	8297.0875
2961.65895	8311.6875
2964.11142	8300.8875
2966.56239	8259.2875
2969.01186	8264.9875
2971.45984	8236.0875
2973.90632	8225.8875
2976.35131	8169.5875
2978.7948	8169.5875
2981.23681	8152.4875
2983.67732	8129.7875
2986.11635	8140.7875
2988.55388	8091.9875
2990.98993	8110.7875
2993.4245	8128.0875
2995.85758	8050.0875
2998.28917	8019.7875
3000.71928	7997.8875
3003.14791	8006.9875
3005.57506	7990.3875
3008.00073	7977.0875
3010.42493	7992.6875
3012.84764	7927.4875
3015.26888	7948.6875
3017.68865	7928.9875
3020.10694	7921.2875
3022.52376	7893.8875
3024.9391	7876.7875
3027.35298	7874.1875
3029.76539	7897.7875
3032.17632	7859.6875
3034.5858	7847.1875
3036.9938	7833.3875
3039.40034	7831.5875
3041.80542	7811.7875
3044.20903	7798.4875
3046.61118	7790.1875
3049.01187	7756.2875
3051.4111	7764.4875
3053.80888	7750.3875
3056.20519	7752.3875
3058.60005	7727.1875
3060.99345	7692.2875
3063.3854	7711.9875
3065.7759	7672.2875
3068.16494	7681.3875
3070.55254	7653.9875
3072.93868	7644.9875
3075.32338	7610.8875
3077.70662	7588.8875
3080.08842	7572.8875
3082.46878	7562.8875
3084.84769	7586.1875
3087.22515	7573.2875
3089.60118	7587.5875
3091.97576	7590.8875
3094.3489	7579.0875
3096.72061	7579.3875
3099.09087	7606.1875
3101.4597	7573.2875
3103.82709	7571.3875
3106.19305	7560.2875
3108.55757	7544.2875
3110.92066	7542.5875
3113.28232	7515.8875
3115.64255	7502.6875
3118.00134	7486.6875
3120.35871	7496.8875
3122.71466	7472.7875
3125.06917	7470.9875
3127.42226	7431.6875
3129.77393	7465.5875
3132.12417	7469.1875
3134.47299	7474.1875
3136.82039	7481.2875
3139.16636	7473.6875
3141.51092	7456.6875
3143.85406	7494.6875
3146.19579	7476.6875
3148.53609	7459.1875
3150.87499	7474.2875
3153.21246	7491.9875
3155.54853	7496.4875
3157.88318	7481.3875
3160.21642	7493.6875
3162.54826	7486.0875
3164.87868	7470.0875
3167.2077	7484.6875
3169.5353	7481.0875
3171.86151	7493.4875
3174.18631	7490.3875
3176.5097	7487.9875
3178.83169	7457.3875
3181.15228	7465.4875
3183.47147	7445.5875
3185.78926	7454.3875
3188.10565	7432.1875
3190.42065	7438.6875
3192.73424	7463.1875
3195.04645	7433.3875
3197.35725	7455.2875
3199.66667	7462.3875
3201.97469	7440.4875
3204.28132	7472.0875
3206.58656	7457.3875
3208.8904	7471.0875
3211.19287	7453.5875
3213.49394	7439.2875
3215.79363	7438.9875
3218.09193	7464.5875
3220.38884	7478.0875
3222.68438	7469.8875
3224.97853	7468.0875
3227.2713	7442.6875
3229.56269	7417.8875
3231.8527	7424.8875
3234.14133	7404.6875
3236.42858	7404.1875
3238.71446	7392.1875
3240.99896	7380.5875
3243.28209	7368.7875
3245.56384	7370.9875
3247.84423	7387.9875
3250.12324	7385.5875
3252.40088	7371.8875
3254.67715	7354.6875
3256.95205	7325.6875
3259.22558	7356.2875
3261.49775	7326.2875
3263.76855	7336.8875
3266.03799	7305.0875
3268.30606	7309.4875
3270.57277	7283.5875
3272.83812	7264.3875
3275.10211	7237.4875
3277.36474	7257.5875
3279.62601	7235.6875
3281.88593	7235.1875
3284.14448	7260.4875
3286.40168	7251.2875
3288.65753	7224.5875
3290.91202	7226.0875
3293.16516	7184.8875
3295.41695	7179.3875
3297.66738	7135.4875
3299.91647	7111.4875
3302.16421	7079.8875
3304.4106	7052.8875
3306.65564	7001.0875
3308.89933	6943.5875
3311.14169	6923.0875
3313.38269	6883.8875
3315.62236	6819.9875
3317.86068	6753.8875
3320.09766	6713.6875
3322.3333	6652.0875
3324.5676	6674.9875
3326.80056	6560.1875
3329.03219	6517.0875
3331.26248	3.5875
3333.49143	-0.9125
3335.71905	-0.7125
