Data from AgNP_FTO_APTES_CRN_5uM_R6G_10uM_NaF_0.1M_Addition_RamanShift__2__15-28-17-897.txt Node

Date: Wed Dec 15 15:28:17 GMT 2021
User: TCL
Spectrometer: QEP01345
Trigger mode: 4
Integration Time (sec): 7.000000E0
Scans to average: 10
Electric dark correction enabled: true
Nonlinearity correction enabled: false
Boxcar width: 0
XAxis mode: Raman Shifts
Number of Pixels in Spectrum: 1044
>>>>>Begin Spectral Data<<<<<
46.04893	-0.475
50.45542	-2.575
54.85868	-0.875
59.25871	-1.375
63.6555	141.425
68.04907	145.725
72.43941	152.225
76.82654	163.225
81.21044	164.725
85.59113	173.125
89.96862	175.325
94.34289	181.825
98.71396	187.025
103.08183	194.225
107.4465	201.925
111.80798	202.925
116.16626	208.825
120.52136	221.525
124.87327	226.625
129.222	243.725
133.56755	256.525
137.90993	274.825
142.24913	303.025
146.58517	342.425
150.91804	391.625
155.24774	464.225
159.57429	579.925
163.89768	743.025
168.21792	971.425
172.53501	1328.425
176.84895	1850.525
181.15975	2608.425
185.46741	3639.425
189.77193	5001.925
194.07331	6689.525
198.37157	8604.825
202.6667	10610.325
206.9587	12607.825
211.24758	14571.425
215.53334	16547.425
219.81599	18598.925
224.09553	20861.725
228.37195	23396.625
232.64527	26169.525
236.91549	29089.525
241.18261	32068.425
245.44663	34881.725
249.70755	37409.925
253.96539	39613.225
258.22014	41502.025
262.4718	43087.725
266.72039	44108.525
270.96589	44630.125
275.20832	44657.125
279.44768	44394.425
283.68397	43981.425
287.91719	43562.725
292.14735	43178.725
296.37445	43065.725
300.59849	43051.825
304.81948	43068.125
309.03742	43110.525
313.25231	42835.425
317.46415	42386.525
321.67296	41722.625
325.87872	41222.525
330.08145	40973.225
334.28114	41079.525
338.47781	41431.225
342.67145	41897.925
346.86207	42475.625
351.04966	43199.525
355.23424	43997.525
359.4158	44782.125
363.59435	45450.625
367.76989	45940.025
371.94243	46310.725
376.11196	46513.325
380.27849	46657.725
384.44203	46866.425
388.60257	47253.325
392.76012	47693.125
396.91468	48350.525
401.06626	49074.225
405.21485	49625.725
409.36047	49674.525
413.50311	49517.225
417.64277	49625.025
421.77947	49857.325
425.9132	50188.025
430.04396	50497.825
434.17176	50630.825
438.2966	50745.525
442.41849	51258.625
446.53742	52349.625
450.6534	53746.725
454.76644	54727.325
458.87653	55009.925
462.98368	54696.225
467.08789	53928.025
471.18916	52954.325
475.2875	51909.625
479.38291	51235.525
483.4754	50701.325
487.56496	50365.325
491.6516	50021.825
495.73531	49888.225
499.81612	50046.325
503.89401	50623.325
507.96899	51037.825
512.04106	51055.625
516.11023	50834.825
520.1765	50316.325
524.23987	49861.025
528.30034	49479.325
532.35792	49043.525
536.41261	48412.725
540.46441	47917.325
544.51333	47893.425
548.55936	48340.625
552.60252	49055.125
556.64279	49981.825
560.6802	50653.725
564.71473	51030.525
568.7464	51625.825
572.7752	52754.925
576.80114	54341.625
580.82422	56309.125
584.84444	58615.425
588.86181	60847.225
592.87633	61969.525
596.888	60899.825
600.89682	58887.825
604.9028	59005.825
608.90594	61791.325
612.90624	64288.725
616.90371	60600.125
620.89834	53718.325
624.89015	50787.825
628.87913	50366.525
632.86528	50340.025
636.84862	50023.925
640.82913	49251.725
644.80683	48394.925
648.78172	47970.125
652.75379	48105.325
656.72306	48638.325
660.68952	49034.525
664.65319	48775.225
668.61405	48216.025
672.57211	48248.725
676.52738	48517.625
680.47986	48378.925
684.42955	48151.625
688.37646	48002.725
692.32058	48394.825
696.26192	49131.825
700.20048	49856.725
704.13626	50212.225
708.06928	50090.825
711.99952	49855.425
715.927	49928.425
719.85171	50254.625
723.77365	50149.825
727.69284	49441.025
731.60928	48733.925
735.52295	48409.325
739.43388	48363.025
743.34206	48478.325
747.24749	48786.125
751.15017	49189.825
755.05012	49877.425
758.94733	51032.725
762.8418	52737.225
766.73354	55244.625
770.62254	57228.025
774.50882	57324.225
778.39237	55299.125
782.27321	52741.625
786.15132	50649.125
790.02671	49402.925
793.89938	48871.025
797.76935	48681.325
801.6366	48706.925
805.50115	48746.425
809.36299	48470.425
813.22213	48093.825
817.07857	47714.825
820.93231	47400.925
824.78336	47214.625
828.63172	47110.025
832.47738	47154.825
836.32036	47287.225
840.16066	47540.325
843.99827	47646.025
847.8332	47574.825
851.66546	47479.125
855.49504	47486.725
859.32195	47583.025
863.1462	47380.225
866.96777	47312.225
870.78668	47256.525
874.60293	47335.625
878.41652	47336.325
882.22745	47542.625
886.03573	47688.025
889.84136	47684.925
893.64433	47522.325
897.44466	47335.725
901.24235	47221.425
905.0374	47102.825
908.8298	47096.225
912.61957	47127.025
916.40671	47499.725
920.19121	48081.625
923.97308	48580.825
927.75233	48716.225
931.52895	48323.625
935.30295	47762.725
939.07433	47167.225
942.84309	46829.725
946.60924	46720.425
950.37278	46707.725
954.13371	46600.325
957.89203	46475.725
961.64774	46509.125
965.40086	46418.225
969.15137	46363.725
972.89929	46313.325
976.64461	46300.525
980.38733	46423.325
984.12747	46656.825
987.86502	46951.725
991.59999	47414.725
995.33237	48079.125
999.06217	49135.525
1002.78939	50464.725
1006.51404	51603.925
1010.23611	52402.425
1013.95561	52912.025
1017.67255	52779.325
1021.38692	52085.125
1025.09872	51398.425
1028.80796	51312.725
1032.51465	52161.225
1036.21877	53155.425
1039.92035	53481.725
1043.61937	53076.525
1047.31584	52342.025
1051.00976	51491.825
1054.70114	51060.525
1058.38998	51118.825
1062.07627	51647.925
1065.76003	52439.325
1069.44126	53413.025
1073.11995	54700.425
1076.79611	55788.125
1080.46974	56039.425
1084.14085	55905.325
1087.80943	55773.125
1091.47549	55628.025
1095.13903	55226.725
1098.80005	54429.525
1102.45857	53331.725
1106.11456	52672.525
1109.76805	52209.325
1113.41903	52150.725
1117.06751	52126.925
1120.71348	52284.025
1124.35696	52584.425
1127.99793	52917.525
1131.63641	53249.425
1135.2724	53385.725
1138.90589	53451.125
1142.5369	53653.925
1146.16542	53837.325
1149.79145	54054.725
1153.415	54405.825
1157.03607	55237.125
1160.65467	56827.325
1164.27079	59485.625
1167.88443	62405.425
1171.49561	65007.525
1175.10432	68120.625
1178.71056	72136.825
1182.31434	76292.025
1185.91565	78594.025
1189.51451	78343.425
1193.11091	76666.325
1196.70485	74254.425
1200.29634	71963.625
1203.88538	70611.825
1207.47197	70127.525
1211.05612	69692.525
1214.63782	68691.825
1218.21708	67223.925
1221.79391	65619.325
1225.36829	64402.825
1228.94024	63447.325
1232.50976	62583.425
1236.07685	61835.825
1239.6415	61425.225
1243.20374	61582.725
1246.76355	61992.325
1250.32093	63001.425
1253.8759	64403.025
1257.42845	66038.925
1260.97859	67797.425
1264.52631	69855.725
1268.07163	71879.625
1271.61453	74117.125
1275.15503	76276.925
1278.69312	78280.925
1282.22882	79959.425
1285.76211	81675.125
1289.29301	83641.525
1292.82151	86272.725
1296.34761	89740.525
1299.87133	94357.925
1303.39266	99637.225
1306.9116	104608.825
1310.42815	108147.625
1313.94233	109229.225
1317.45412	108415.725
1320.96354	106810.025
1324.47058	105797.025
1327.97525	105545.625
1331.47754	105702.625
1334.97747	105839.125
1338.47502	105533.725
1341.97022	104281.425
1345.46305	102098.425
1348.95352	99895.825
1352.44163	98861.325
1355.92738	100094.525
1359.41078	103127.625
1362.89183	105320.725
1366.37053	103580.825
1369.84688	97202.225
1373.32088	88673.025
1376.79254	82283.625
1380.26186	79819.225
1383.72883	79872.425
1387.19347	79891.525
1390.65578	79010.325
1394.11575	78404.325
1397.57339	78970.825
1401.0287	80643.825
1404.48168	82427.925
1407.93234	83360.925
1411.38068	82961.525
1414.82669	81077.925
1418.27039	78381.825
1421.71177	75486.225
1425.15083	73113.625
1428.58758	72208.225
1432.02203	73069.225
1435.45416	75112.325
1438.88399	77416.525
1442.31151	79158.125
1445.73673	79896.025
1449.15965	79928.825
1452.58027	79496.525
1455.9986	78833.725
1459.41463	78965.025
1462.82837	80062.725
1466.23982	81666.925
1469.64898	83407.825
1473.05586	84410.325
1476.46045	84657.525
1479.86276	84125.725
1483.26279	83270.125
1486.66054	82669.125
1490.05602	82718.825
1493.44922	82871.725
1496.84016	82754.025
1500.22882	82815.425
1503.61521	83419.125
1506.99934	84178.425
1510.38121	84800.925
1513.76081	84563.925
1517.13816	83237.825
1520.51324	81757.825
1523.88607	80811.525
1527.25665	80834.825
1530.62498	81352.225
1533.99105	81617.925
1537.35488	81194.325
1540.71647	80168.925
1544.07581	78768.825
1547.4329	77139.925
1550.78776	75625.725
1554.14038	74352.025
1557.49077	73524.825
1560.83892	72806.525
1564.18484	72359.625
1567.52853	72195.225
1570.86999	72748.425
1574.20922	74314.625
1577.54624	76228.325
1580.88103	77940.525
1584.2136	79827.625
1587.54395	82661.925
1590.87208	86769.125
1594.19801	91712.125
1597.52172	96262.525
1600.84321	97129.425
1604.16251	92773.125
1607.47959	85376.025
1610.79447	77964.125
1614.10715	71269.025
1617.41763	66101.025
1620.7259	62697.125
1624.03199	61035.125
1627.33587	61261.925
1630.63757	63071.925
1633.93707	66861.025
1637.23439	73180.825
1640.52951	81889.525
1643.82246	91266.725
1647.11321	97479.325
1650.40179	96635.625
1653.68819	88351.725
1656.97241	76900.825
1660.25446	66886.725
1663.53433	59886.825
1666.81203	55479.225
1670.08756	52658.525
1673.36092	50954.525
1676.63211	49698.825
1679.90115	48961.025
1683.16801	48248.925
1686.43272	47811.725
1689.69527	47501.425
1692.95567	47173.325
1696.2139	47021.125
1699.46999	46957.425
1702.72392	46869.825
1705.97571	46753.425
1709.22535	46662.725
1712.47284	46577.825
1715.71819	46558.325
1718.96139	46402.425
1722.20246	46289.625
1725.44139	46139.025
1728.67818	45935.625
1731.91284	45675.925
1735.14537	45503.225
1738.37576	45304.625
1741.60403	45167.325
1744.83017	45031.325
1748.05418	44940.825
1751.27607	44899.525
1754.49584	44799.925
1757.71349	44771.425
1760.92903	44775.425
1764.14244	44710.125
1767.35375	44759.325
1770.56294	44669.525
1773.77002	44656.925
1776.97499	44618.425
1780.17785	44576.625
1783.37861	44516.925
1786.57727	44449.525
1789.77382	44350.425
1792.96828	44297.525
1796.16064	44205.825
1799.3509	44198.925
1802.53907	44165.725
1805.72514	43998.425
1808.90913	43956.525
1812.09102	43869.525
1815.27083	43751.825
1818.44856	43735.425
1821.6242	43730.425
1824.79776	43722.525
1827.96924	43714.025
1831.13864	43701.125
1834.30597	43736.325
1837.47122	43816.625
1840.6344	43802.025
1843.7955	43802.525
1846.95454	43825.725
1850.11151	43854.425
1853.26642	43877.725
1856.41926	43855.125
1859.57004	43862.725
1862.71876	43774.125
1865.86542	43760.025
1869.01003	43742.125
1872.15258	43685.725
1875.29308	43688.725
1878.43152	43680.825
1881.56792	43571.325
1884.70227	43603.425
1887.83457	43529.525
1890.96482	43500.125
1894.09304	43459.125
1897.21921	43487.225
1900.34335	43372.525
1903.46544	43275.425
1906.58551	43232.525
1909.70353	43156.125
1912.81953	43165.525
1915.93349	43086.525
1919.04543	42937.925
1922.15534	42895.825
1925.26322	42819.825
1928.36908	42707.025
1931.47292	42674.425
1934.57473	42498.725
1937.67453	42451.725
1940.77232	42400.925
1943.86808	42224.925
1946.96184	42161.125
1950.05358	42080.425
1953.14331	41990.125
1956.23103	41938.225
1959.31675	41832.925
1962.40046	41740.425
1965.48217	41608.625
1968.56188	41444.025
1971.63959	41332.225
1974.7153	41219.825
1977.78901	41127.925
1980.86073	41030.625
1983.93046	40944.625
1986.99819	40871.425
1990.06394	40822.025
1993.1277	40728.125
1996.18947	40554.625
1999.24925	40446.625
2002.30706	40320.425
2005.36288	40191.525
2008.41672	40125.525
2011.46859	40063.125
2014.51848	39987.825
2017.56639	39938.025
2020.61233	39818.025
2023.6563	39834.325
2026.6983	39725.325
2029.73833	39723.725
2032.7764	39619.125
2035.8125	39510.725
2038.84664	39430.425
2041.87881	39385.325
2044.90903	39350.425
2047.93729	39263.525
2050.96359	39313.325
2053.98794	39249.525
2057.01034	39240.725
2060.03078	39147.925
2063.04927	39107.825
2066.06582	39171.825
2069.08042	39113.825
2072.09307	39125.725
2075.10378	39095.025
2078.11255	39031.825
2081.11938	39094.925
2084.12426	39057.425
2087.12722	39026.625
2090.12824	39082.925
2093.12732	39138.025
2096.12447	39074.625
2099.11969	39006.525
2102.11299	39067.625
2105.10435	39065.525
2108.09379	39220.825
2111.08131	39232.125
2114.0669	39246.325
2117.05057	39227.925
2120.03233	39233.525
2123.01216	39290.225
2125.99008	39344.425
2128.96609	39340.825
2131.94018	39389.525
2134.91236	39439.525
2137.88263	39444.125
2140.851	39461.425
2143.81746	39508.225
2146.78201	39623.525
2149.74466	39538.825
2152.7054	39619.025
2155.66425	39597.525
2158.6212	39661.425
2161.57625	39601.025
2164.52941	39613.725
2167.48067	39672.525
2170.43004	39639.625
2173.37752	39653.525
2176.32311	39630.225
2179.26681	39558.125
2182.20863	39637.325
2185.14856	39674.125
2188.08661	39649.425
2191.02278	39719.325
2193.95707	39624.725
2196.88948	39645.325
2199.82001	39603.825
2202.74867	39614.825
2205.67545	39576.525
2208.60037	39563.325
2211.52341	39527.325
2214.44458	39508.725
2217.36388	39421.325
2220.28132	39416.825
2223.1969	39363.225
2226.11061	39332.925
2229.02246	39242.325
2231.93245	39161.125
2234.84058	39079.725
2237.74686	39073.625
2240.65128	39090.925
2243.55385	38962.625
2246.45456	38954.025
2249.35343	38870.225
2252.25044	38845.325
2255.14561	38753.025
2258.03893	38737.925
2260.93041	38717.925
2263.82004	38608.225
2266.70783	38550.225
2269.59378	38426.625
2272.4779	38374.925
2275.36017	38274.925
2278.24061	38225.825
2281.11922	38187.925
2283.996	38118.025
2286.87094	38147.425
2289.74405	38132.025
2292.61534	38045.125
2295.4848	37992.325
2298.35243	38042.725
2301.21824	38051.425
2304.08223	38094.225
2306.94439	38065.625
2309.80474	38115.925
2312.66327	38119.225
2315.51999	38075.025
2318.37489	38130.125
2321.22797	38015.425
2324.07925	37997.225
2326.92871	37968.325
2329.77637	37945.125
2332.62222	37947.325
2335.46626	37922.825
2338.3085	37854.825
2341.14893	37915.725
2343.98756	37931.725
2346.8244	37883.525
2349.65943	37891.125
2352.49267	37874.525
2355.32411	37828.025
2358.15376	37774.825
2360.98161	37752.025
2363.80768	37788.225
2366.63195	37686.525
2369.45444	37695.225
2372.27514	37598.625
2375.09405	37543.225
2377.91118	37510.625
2380.72652	37502.925
2383.54009	37450.625
2386.35187	37403.025
2389.16188	37307.625
2391.97011	37303.325
2394.77657	37306.225
2397.58125	37229.725
2400.38416	37229.325
2403.18529	37108.125
2405.98466	37095.225
2408.78226	37014.125
2411.57809	37008.525
2414.37216	36954.225
2417.16446	36948.325
2419.955	36887.525
2422.74378	36941.425
2425.5308	36878.625
2428.31606	36810.725
2431.09956	36792.125
2433.88131	36761.425
2436.6613	36825.125
2439.43954	36804.225
2442.21603	36745.025
2444.99077	36664.425
2447.76377	36760.625
2450.53501	36725.425
2453.30451	36726.125
2456.07226	36724.825
2458.83827	36655.125
2461.60254	36716.925
2464.36507	36644.925
2467.12586	36638.825
2469.88492	36648.425
2472.64224	36669.425
2475.39782	36693.425
2478.15167	36734.125
2480.90379	36703.525
2483.65417	36724.625
2486.40283	36741.425
2489.14976	36708.425
2491.89497	36682.725
2494.63845	36777.625
2497.3802	36721.025
2500.12024	36740.225
2502.85855	36806.325
2505.59514	36761.725
2508.33002	36803.825
2511.06318	36743.825
2513.79462	36711.825
2516.52435	36667.125
2519.25237	36667.225
2521.97867	36630.525
2524.70327	36661.425
2527.42616	36589.225
2530.14734	36633.125
2532.86681	36509.225
2535.58458	36566.325
2538.30065	36505.525
2541.01501	36517.825
2543.72768	36519.525
2546.43864	36492.525
2549.14791	36419.525
2551.85548	36446.425
2554.56136	36364.825
2557.26554	36391.225
2559.96803	36375.625
2562.66883	36352.525
2565.36794	36313.025
2568.06536	36323.825
2570.7611	36315.325
2573.45514	36259.025
2576.14751	36246.725
2578.83819	36220.225
2581.52719	36244.025
2584.21451	36192.525
2586.90015	36198.625
2589.58411	36088.925
2592.2664	36082.925
2594.94701	36075.925
2597.62594	36090.925
2600.30321	36036.125
2602.9788	36035.325
2605.65273	35983.825
2608.32498	35975.225
2610.99557	35933.025
2613.66449	35929.025
2616.33175	35938.525
2618.99734	35924.425
2621.66128	35888.825
2624.32355	35906.525
2626.98416	35886.625
2629.64311	35830.325
2632.30041	35828.225
2634.95605	35758.325
2637.61004	35810.025
2640.26238	35752.425
2642.91306	35748.125
2645.56209	35730.825
2648.20948	35790.725
2650.85521	35742.625
2653.4993	35757.325
2656.14175	35765.425
2658.78255	35730.525
2661.42171	35739.425
2664.05923	35834.225
2666.6951	35829.125
2669.32934	35882.125
2671.96194	35833.525
2674.59291	35871.225
2677.22224	35864.025
2679.84993	35844.825
2682.476	35809.725
2685.10043	35836.825
2687.72324	35783.325
2690.34441	35848.525
2692.96396	35879.025
2695.58188	35827.125
2698.19818	35851.425
2700.81285	35852.625
2703.4259	35849.725
2706.03733	35956.025
2708.64714	35969.425
2711.25533	35992.525
2713.86191	36020.025
2716.46687	36108.625
2719.07021	36083.325
2721.67194	36046.425
2724.27206	35969.425
2726.87057	36086.825
2729.46747	36120.925
2732.06276	36145.925
2734.65644	36156.225
2737.24852	36173.625
2739.83899	36128.325
2742.42786	36139.425
2745.01513	36065.325
2747.60079	36096.925
2750.18486	36073.625
2752.76733	36092.425
2755.3482	36101.625
2757.92747	36142.825
2760.50515	36092.525
2763.08123	36106.425
2765.65573	35982.325
2768.22863	36008.925
2770.79994	35923.325
2773.36967	35913.325
2775.9378	35940.125
2778.50435	35860.825
2781.06932	35903.725
2783.6327	35930.825
2786.1945	35863.025
2788.75471	35831.225
2791.31335	35762.925
2793.87041	35702.925
2796.42589	35568.825
2798.97979	35596.925
2801.53212	35563.525
2804.08288	35607.625
2806.63206	35441.725
2809.17967	35389.025
2811.72571	35310.025
2814.27018	35333.825
2816.81308	35243.925
2819.35442	35192.625
2821.89419	35144.425
2824.43239	35139.925
2826.96904	35053.425
2829.50412	35074.125
2832.03763	35020.825
2834.56959	35022.125
2837.1	34917.125
2839.62884	34857.625
2842.15613	34858.225
2844.68186	34853.525
2847.20604	34778.125
2849.72867	34816.225
2852.24974	34758.825
2854.76927	34714.525
2857.28724	34686.425
2859.80367	34667.525
2862.31855	34646.625
2864.83189	34648.925
2867.34368	34563.725
2869.85393	34623.225
2872.36264	34580.825
2874.8698	34529.725
2877.37543	34622.325
2879.87952	34572.325
2882.38207	34618.125
2884.88308	34587.325
2887.38256	34629.825
2889.88051	34603.525
2892.37692	34628.025
2894.8718	34609.425
2897.36515	34677.825
2899.85698	34703.625
2902.34727	34794.525
2904.83604	34819.125
2907.32328	34840.725
2909.809	34820.225
2912.29319	34941.125
2914.77587	34885.225
2917.25702	34865.425
2919.73665	34843.125
2922.21476	34912.125
2924.69136	34874.225
2927.16644	34831.825
2929.64	34779.225
2932.11205	34728.225
2934.58258	34644.825
2937.05161	34720.525
2939.51912	34810.425
2941.98513	34790.625
2944.44962	34663.625
2946.91261	34552.025
2949.37409	34644.925
2951.83407	34620.825
2954.29254	34607.225
2956.74951	34548.725
2959.20498	34489.925
2961.65895	34494.025
2964.11142	34519.725
2966.56239	34472.325
2969.01186	34431.925
2971.45984	34360.725
2973.90632	34400.925
2976.35131	34262.825
2978.7948	34249.425
2981.23681	34204.725
2983.67732	34158.525
2986.11635	34098.125
2988.55388	33986.125
2990.98993	33926.525
2993.4245	33906.225
2995.85758	33797.225
2998.28917	33747.925
3000.71928	33711.725
3003.14791	33653.725
3005.57506	33628.725
3008.00073	33545.225
3010.42493	33535.125
3012.84764	33499.125
3015.26888	33537.425
3017.68865	33416.625
3020.10694	33368.125
3022.52376	33310.925
3024.9391	33300.025
3027.35298	33258.825
3029.76539	33259.125
3032.17632	33190.925
3034.5858	33206.725
3036.9938	33210.925
3039.40034	33117.625
3041.80542	33065.125
3044.20903	32970.525
3046.61118	33011.825
3049.01187	32894.825
3051.4111	32871.825
3053.80888	32790.925
3056.20519	32752.725
3058.60005	32676.425
3060.99345	32671.225
3063.3854	32552.325
3065.7759	32457.625
3068.16494	32478.125
3070.55254	32359.925
3072.93868	32320.625
3075.32338	32204.725
3077.70662	32146.425
3080.08842	32064.525
3082.46878	32132.225
3084.84769	32074.225
3087.22515	32035.825
3089.60118	31996.625
3091.97576	31982.225
3094.3489	31973.725
3096.72061	31968.525
3099.09087	31964.225
3101.4597	31886.825
3103.82709	31810.025
3106.19305	31786.925
3108.55757	31781.125
3110.92066	31684.225
3113.28232	31641.625
3115.64255	31567.425
3118.00134	31550.925
3120.35871	31499.225
3122.71466	31471.825
3125.06917	31489.225
3127.42226	31361.725
3129.77393	31361.025
3132.12417	31344.225
3134.47299	31333.625
3136.82039	31331.825
3139.16636	31349.625
3141.51092	31271.025
3143.85406	31287.725
3146.19579	31289.725
3148.53609	31291.925
3150.87499	31297.225
3153.21246	31267.225
3155.54853	31291.825
3157.88318	31242.925
3160.21642	31238.425
3162.54826	31269.025
3164.87868	31211.725
3167.2077	31148.925
3169.5353	31162.225
3171.86151	31087.525
3174.18631	31038.025
3176.5097	31002.825
3178.83169	30973.825
3181.15228	31004.725
3183.47147	30951.425
3185.78926	30971.225
3188.10565	30916.525
3190.42065	30869.525
3192.73424	30855.425
3195.04645	30854.325
3197.35725	30906.125
3199.66667	30857.425
3201.97469	30882.725
3204.28132	30814.625
3206.58656	30799.325
3208.8904	30834.925
3211.19287	30808.125
3213.49394	30790.525
3215.79363	30768.025
3218.09193	30846.025
3220.38884	30878.525
3222.68438	30875.325
3224.97853	30823.225
3227.2713	30828.025
3229.56269	30717.425
3231.8527	30720.925
3234.14133	30650.125
3236.42858	30619.725
3238.71446	30600.125
3240.99896	30482.325
3243.28209	30494.425
3245.56384	30457.325
3247.84423	30542.525
3250.12324	30451.025
3252.40088	30340.425
3254.67715	30345.125
3256.95205	30291.925
3259.22558	30316.325
3261.49775	30240.225
3263.76855	30213.925
3266.03799	30144.125
3268.30606	30111.825
3270.57277	30080.425
3272.83812	30019.125
3275.10211	29992.225
3277.36474	29986.325
3279.62601	30005.125
3281.88593	29995.825
3284.14448	29959.825
3286.40168	29946.725
3288.65753	29877.025
3290.91202	29842.425
3293.16516	29814.725
3295.41695	29754.625
3297.66738	29569.525
3299.91647	29428.825
3302.16421	29258.425
3304.4106	29139.625
3306.65564	29038.525
3308.89933	28837.325
3311.14169	28637.325
3313.38269	28392.925
3315.62236	28220.225
3317.86068	27970.825
3320.09766	27713.725
3322.3333	27521.225
3324.5676	27483.225
3326.80056	27095.925
3329.03219	26954.925
3331.26248	7.025
3333.49143	0.025
3335.71905	-1.475
