Data from AgNP_FTO_APTES_CRN_1uM_R6G_10uM_NaF_0.1M_Addition_RamanShift__20__14-08-50-804.txt Node

Date: Wed Dec 15 14:08:50 GMT 2021
User: TCL
Spectrometer: QEP01345
Trigger mode: 4
Integration Time (sec): 7.000000E0
Scans to average: 10
Electric dark correction enabled: true
Nonlinearity correction enabled: false
Boxcar width: 0
XAxis mode: Raman Shifts
Number of Pixels in Spectrum: 1044
>>>>>Begin Spectral Data<<<<<
46.04893	-0.1875
50.45542	-0.9875
54.85868	-1.6875
59.25871	-1.4875
63.6555	136.7125
68.04907	146.5125
72.43941	153.3125
76.82654	165.1125
81.21044	167.2125
85.59113	175.9125
89.96862	183.7125
94.34289	184.9125
98.71396	196.0125
103.08183	204.4125
107.4465	205.7125
111.80798	207.8125
116.16626	217.6125
120.52136	223.5125
124.87327	225.0125
129.222	240.3125
133.56755	248.6125
137.90993	269.3125
142.24913	286.6125
146.58517	316.5125
150.91804	361.0125
155.24774	428.6125
159.57429	525.6125
163.89768	661.1125
168.21792	872.3125
172.53501	1170.8125
176.84895	1618.6125
181.15975	2261.1125
185.46741	3157.3125
189.77193	4343.0125
194.07331	5766.9125
198.37157	7412.3125
202.6667	9127.1125
206.9587	10822.9125
211.24758	12515.9125
215.53334	14202.8125
219.81599	16033.3125
224.09553	18018.7125
228.37195	20283.4125
232.64527	22778.4125
236.91549	25317.1125
241.18261	27859.4125
245.44663	30144.2125
249.70755	32196.3125
253.96539	33923.3125
258.22014	35413.6125
262.4718	36676.4125
266.72039	37567.6125
270.96589	38057.1125
275.20832	38195.3125
279.44768	37900.9125
283.68397	37541.3125
287.91719	37207.7125
292.14735	37108.2125
296.37445	37177.4125
300.59849	37458.0125
304.81948	37709.8125
309.03742	37927.9125
313.25231	37670.4125
317.46415	36753.4125
321.67296	35580.8125
325.87872	34576.6125
330.08145	34091.2125
334.28114	34014.6125
338.47781	34294.8125
342.67145	34798.2125
346.86207	35496.4125
351.04966	36351.0125
355.23424	37313.4125
359.4158	38174.0125
363.59435	38735.2125
367.76989	39048.2125
371.94243	39284.6125
376.11196	39306.9125
380.27849	39369.8125
384.44203	39494.6125
388.60257	39657.3125
392.76012	39995.6125
396.91468	40501.8125
401.06626	41233.0125
405.21485	41746.5125
409.36047	41684.4125
413.50311	40879.5125
417.64277	40212.5125
421.77947	40001.0125
425.9132	40074.8125
430.04396	40275.6125
434.17176	40483.0125
438.2966	40860.5125
442.41849	41532.8125
446.53742	42638.6125
450.6534	43951.3125
454.76644	45004.3125
458.87653	45425.4125
462.98368	45136.2125
467.08789	44578.3125
471.18916	43707.2125
475.2875	42853.5125
479.38291	42298.6125
483.4754	41874.7125
487.56496	41416.3125
491.6516	40881.1125
495.73531	40480.5125
499.81612	40353.9125
503.89401	40707.1125
507.96899	40994.9125
512.04106	41005.4125
516.11023	40965.1125
520.1765	40807.1125
524.23987	40483.8125
528.30034	40155.5125
532.35792	39592.6125
536.41261	38920.2125
540.46441	38374.5125
544.51333	38257.3125
548.55936	38685.9125
552.60252	39564.5125
556.64279	40388.5125
560.6802	40855.1125
564.71473	41235.4125
568.7464	41976.4125
572.7752	42953.8125
576.80114	43751.0125
580.82422	44541.1125
584.84444	45400.4125
588.86181	46226.9125
592.87633	47048.6125
596.888	47758.6125
600.89682	48313.6125
604.9028	50554.5125
608.90594	55639.9125
612.90624	60340.9125
616.90371	56033.8125
620.89834	45956.3125
624.89015	41751.1125
628.87913	41335.3125
632.86528	41398.6125
636.84862	40984.1125
640.82913	40099.1125
644.80683	38718.8125
648.78172	37818.9125
652.75379	37687.4125
656.72306	38325.8125
660.68952	39174.5125
664.65319	38980.2125
668.61405	38164.7125
672.57211	37888.8125
676.52738	37809.4125
680.47986	37717.6125
684.42955	37500.3125
688.37646	37404.1125
692.32058	37664.0125
696.26192	38155.5125
700.20048	38626.9125
704.13626	38910.3125
708.06928	38852.9125
711.99952	38564.5125
715.927	38521.0125
719.85171	38706.8125
723.77365	38490.7125
727.69284	37903.8125
731.60928	37437.1125
735.52295	37208.7125
739.43388	37283.7125
743.34206	37417.3125
747.24749	37666.5125
751.15017	38091.9125
755.05012	38810.1125
758.94733	40088.9125
762.8418	42560.9125
766.73354	46337.5125
770.62254	49883.4125
774.50882	50612.2125
778.39237	47935.2125
782.27321	43888.4125
786.15132	40620.5125
790.02671	38777.4125
793.89938	37930.0125
797.76935	37641.3125
801.6366	37547.6125
805.50115	37379.8125
809.36299	37136.6125
813.22213	36788.3125
817.07857	36629.8125
820.93231	36571.2125
824.78336	36491.2125
828.63172	36437.5125
832.47738	36401.8125
836.32036	36577.0125
840.16066	36853.4125
843.99827	37053.3125
847.8332	36939.3125
851.66546	36715.6125
855.49504	36577.6125
859.32195	36539.3125
863.1462	36390.9125
866.96777	36063.2125
870.78668	35970.5125
874.60293	35912.7125
878.41652	35927.5125
882.22745	36093.4125
886.03573	36239.5125
889.84136	36165.0125
893.64433	35946.7125
897.44466	35743.9125
901.24235	35654.4125
905.0374	35554.0125
908.8298	35537.2125
912.61957	35710.7125
916.40671	36103.0125
920.19121	36743.3125
923.97308	37468.3125
927.75233	37762.3125
931.52895	37630.3125
935.30295	37063.5125
939.07433	36206.3125
942.84309	35570.2125
946.60924	35372.1125
950.37278	35291.6125
954.13371	35197.3125
957.89203	34963.6125
961.64774	34803.7125
965.40086	34766.0125
969.15137	34663.4125
972.89929	34529.3125
976.64461	34508.4125
980.38733	34609.5125
984.12747	34849.4125
987.86502	35328.1125
991.59999	35995.9125
995.33237	36943.4125
999.06217	38515.9125
1002.78939	40161.3125
1006.51404	41248.8125
1010.23611	41750.1125
1013.95561	42031.7125
1017.67255	41779.6125
1021.38692	41123.0125
1025.09872	40729.1125
1028.80796	41392.7125
1032.51465	43267.0125
1036.21877	44987.2125
1039.92035	45247.8125
1043.61937	44276.3125
1047.31584	42587.2125
1051.00976	40895.1125
1054.70114	39986.6125
1058.38998	39855.3125
1062.07627	40238.2125
1065.76003	40592.3125
1069.44126	41310.5125
1073.11995	42392.5125
1076.79611	43376.2125
1080.46974	43826.2125
1084.14085	43911.0125
1087.80943	44050.8125
1091.47549	43946.6125
1095.13903	43531.0125
1098.80005	42728.0125
1102.45857	41645.9125
1106.11456	40865.2125
1109.76805	40575.2125
1113.41903	40697.9125
1117.06751	40959.4125
1120.71348	41369.5125
1124.35696	41793.8125
1127.99793	42335.2125
1131.63641	42671.3125
1135.2724	42468.3125
1138.90589	42106.7125
1142.5369	41881.8125
1146.16542	41852.4125
1149.79145	41961.9125
1153.415	42284.4125
1157.03607	42912.1125
1160.65467	44102.3125
1164.27079	46007.9125
1167.88443	48722.3125
1171.49561	52187.6125
1175.10432	56745.0125
1178.71056	62371.0125
1182.31434	67693.8125
1185.91565	70341.3125
1189.51451	69728.2125
1193.11091	66805.8125
1196.70485	63017.3125
1200.29634	59764.6125
1203.88538	57551.9125
1207.47197	56038.2125
1211.05612	54911.1125
1214.63782	54067.1125
1218.21708	53526.8125
1221.79391	53300.1125
1225.36829	53036.0125
1228.94024	52450.6125
1232.50976	51382.4125
1236.07685	50466.0125
1239.6415	50011.8125
1243.20374	49907.5125
1246.76355	50308.1125
1250.32093	51257.4125
1253.8759	52716.0125
1257.42845	54481.9125
1260.97859	56208.0125
1264.52631	57939.9125
1268.07163	59759.4125
1271.61453	61829.7125
1275.15503	64033.3125
1278.69312	66338.2125
1282.22882	68240.7125
1285.76211	69796.1125
1289.29301	71405.7125
1292.82151	73435.4125
1296.34761	76408.2125
1299.87133	80755.8125
1303.39266	86229.7125
1306.9116	92498.5125
1310.42815	98600.5125
1313.94233	102499.0125
1317.45412	102477.8125
1320.96354	99776.1125
1324.47058	96676.9125
1327.97525	93829.3125
1331.47754	91811.5125
1334.97747	90832.5125
1338.47502	90306.7125
1341.97022	89549.2125
1345.46305	88076.1125
1348.95352	86525.3125
1352.44163	86230.6125
1355.92738	88436.0125
1359.41078	93541.6125
1362.89183	98315.1125
1366.37053	96957.1125
1369.84688	88710.9125
1373.32088	78694.5125
1376.79254	71682.7125
1380.26186	68571.6125
1383.72883	67928.2125
1387.19347	67425.6125
1390.65578	66284.4125
1394.11575	65636.7125
1397.57339	65982.2125
1401.0287	67172.9125
1404.48168	68499.2125
1407.93234	69050.1125
1411.38068	68572.9125
1414.82669	66913.4125
1418.27039	64401.9125
1421.71177	61738.8125
1425.15083	59429.9125
1428.58758	58200.7125
1432.02203	58435.6125
1435.45416	59824.7125
1438.88399	61590.8125
1442.31151	63227.0125
1445.73673	64277.1125
1449.15965	65082.1125
1452.58027	65427.1125
1455.9986	65441.5125
1459.41463	65794.8125
1462.82837	66890.6125
1466.23982	68529.1125
1469.64898	70105.6125
1473.05586	71191.1125
1476.46045	71500.5125
1479.86276	71173.7125
1483.26279	70370.4125
1486.66054	69738.6125
1490.05602	69730.2125
1493.44922	69909.0125
1496.84016	70447.4125
1500.22882	71840.7125
1503.61521	74058.9125
1506.99934	77053.7125
1510.38121	79830.5125
1513.76081	80796.0125
1517.13816	79049.9125
1520.51324	75444.4125
1523.88607	71931.8125
1527.25665	69782.8125
1530.62498	68679.0125
1533.99105	68171.7125
1537.35488	67672.8125
1540.71647	66903.7125
1544.07581	65858.9125
1547.4329	64720.1125
1550.78776	63607.1125
1554.14038	62760.1125
1557.49077	62257.9125
1560.83892	61909.3125
1564.18484	61923.4125
1567.52853	62235.7125
1570.86999	62941.1125
1574.20922	64203.9125
1577.54624	65548.3125
1580.88103	66186.8125
1584.2136	66814.1125
1587.54395	68314.3125
1590.87208	71251.7125
1594.19801	75766.3125
1597.52172	80642.4125
1600.84321	82105.0125
1604.16251	78014.9125
1607.47959	71172.3125
1610.79447	64129.7125
1614.10715	58028.3125
1617.41763	53266.2125
1620.7259	50139.7125
1624.03199	48585.9125
1627.33587	48715.0125
1630.63757	50352.5125
1633.93707	53863.3125
1637.23439	59357.3125
1640.52951	66723.6125
1643.82246	74759.9125
1647.11321	80703.8125
1650.40179	81250.4125
1653.68819	75361.5125
1656.97241	65241.7125
1660.25446	55292.7125
1663.53433	48047.5125
1666.81203	43323.0125
1670.08756	40381.0125
1673.36092	38553.4125
1676.63211	37300.7125
1679.90115	36417.3125
1683.16801	35781.6125
1686.43272	35331.0125
1689.69527	34973.1125
1692.95567	34727.7125
1696.2139	34593.0125
1699.46999	34399.1125
1702.72392	34319.6125
1705.97571	34222.2125
1709.22535	34111.8125
1712.47284	34115.6125
1715.71819	34027.5125
1718.96139	33947.5125
1722.20246	33810.9125
1725.44139	33667.5125
1728.67818	33488.0125
1731.91284	33263.0125
1735.14537	33052.6125
1738.37576	32904.6125
1741.60403	32772.0125
1744.83017	32619.6125
1748.05418	32564.5125
1751.27607	32512.0125
1754.49584	32438.7125
1757.71349	32408.2125
1760.92903	32358.7125
1764.14244	32402.1125
1767.35375	32307.7125
1770.56294	32270.1125
1773.77002	32232.1125
1776.97499	32202.2125
1780.17785	32122.0125
1783.37861	32114.9125
1786.57727	32063.8125
1789.77382	31986.8125
1792.96828	31931.0125
1796.16064	31854.6125
1799.3509	31891.1125
1802.53907	31774.3125
1805.72514	31714.5125
1808.90913	31587.4125
1812.09102	31541.8125
1815.27083	31491.4125
1818.44856	31431.3125
1821.6242	31431.8125
1824.79776	31356.0125
1827.96924	31319.4125
1831.13864	31319.0125
1834.30597	31348.8125
1837.47122	31335.5125
1840.6344	31327.2125
1843.7955	31324.2125
1846.95454	31333.9125
1850.11151	31322.6125
1853.26642	31283.1125
1856.41926	31331.1125
1859.57004	31337.5125
1862.71876	31306.0125
1865.86542	31282.1125
1869.01003	31313.8125
1872.15258	31315.9125
1875.29308	31297.9125
1878.43152	31242.1125
1881.56792	31287.3125
1884.70227	31286.6125
1887.83457	31258.3125
1890.96482	31320.3125
1894.09304	31241.8125
1897.21921	31209.9125
1900.34335	31230.5125
1903.46544	31188.4125
1906.58551	31224.4125
1909.70353	31144.5125
1912.81953	31170.0125
1915.93349	31099.8125
1919.04543	31092.2125
1922.15534	31041.3125
1925.26322	30925.4125
1928.36908	30891.0125
1931.47292	30815.3125
1934.57473	30683.2125
1937.67453	30573.2125
1940.77232	30483.9125
1943.86808	30386.7125
1946.96184	30273.3125
1950.05358	30168.7125
1953.14331	30057.5125
1956.23103	30037.0125
1959.31675	29965.2125
1962.40046	29862.9125
1965.48217	29755.9125
1968.56188	29710.1125
1971.63959	29620.5125
1974.7153	29485.9125
1977.78901	29422.5125
1980.86073	29333.2125
1983.93046	29278.3125
1986.99819	29121.2125
1990.06394	29100.1125
1993.1277	29025.5125
1996.18947	28944.5125
1999.24925	28844.6125
2002.30706	28750.1125
2005.36288	28674.9125
2008.41672	28633.7125
2011.46859	28528.0125
2014.51848	28492.1125
2017.56639	28382.9125
2020.61233	28335.2125
2023.6563	28272.1125
2026.6983	28263.6125
2029.73833	28253.7125
2032.7764	28215.9125
2035.8125	28196.2125
2038.84664	28194.8125
2041.87881	28161.5125
2044.90903	28093.7125
2047.93729	28066.0125
2050.96359	28115.8125
2053.98794	27992.6125
2057.01034	27982.7125
2060.03078	27938.3125
2063.04927	27925.5125
2066.06582	27927.3125
2069.08042	27910.7125
2072.09307	27894.0125
2075.10378	27819.7125
2078.11255	27803.3125
2081.11938	27805.8125
2084.12426	27758.4125
2087.12722	27756.0125
2090.12824	27732.7125
2093.12732	27749.1125
2096.12447	27686.6125
2099.11969	27762.8125
2102.11299	27754.2125
2105.10435	27735.6125
2108.09379	27773.0125
2111.08131	27793.1125
2114.0669	27843.4125
2117.05057	27804.7125
2120.03233	27839.8125
2123.01216	27866.8125
2125.99008	27906.5125
2128.96609	27965.5125
2131.94018	27975.0125
2134.91236	27972.4125
2137.88263	27951.0125
2140.851	27957.5125
2143.81746	28040.0125
2146.78201	28031.5125
2149.74466	28040.2125
2152.7054	28079.4125
2155.66425	28068.6125
2158.6212	28107.9125
2161.57625	28112.2125
2164.52941	28088.7125
2167.48067	28060.9125
2170.43004	28062.6125
2173.37752	28008.1125
2176.32311	28042.8125
2179.26681	28045.2125
2182.20863	28053.2125
2185.14856	28072.3125
2188.08661	28077.4125
2191.02278	28097.9125
2193.95707	28091.0125
2196.88948	28101.1125
2199.82001	28126.4125
2202.74867	28091.2125
2205.67545	28086.9125
2208.60037	28066.7125
2211.52341	28060.3125
2214.44458	28102.7125
2217.36388	28053.3125
2220.28132	28060.3125
2223.1969	27979.9125
2226.11061	27944.9125
2229.02246	27911.9125
2231.93245	27828.8125
2234.84058	27766.9125
2237.74686	27657.8125
2240.65128	27694.5125
2243.55385	27612.1125
2246.45456	27587.2125
2249.35343	27556.3125
2252.25044	27515.6125
2255.14561	27441.9125
2258.03893	27474.9125
2260.93041	27454.0125
2263.82004	27348.0125
2266.70783	27313.2125
2269.59378	27255.0125
2272.4779	27185.1125
2275.36017	27098.1125
2278.24061	27043.8125
2281.11922	27021.6125
2283.996	26981.3125
2286.87094	26961.6125
2289.74405	26946.0125
2292.61534	26931.3125
2295.4848	26936.6125
2298.35243	26944.1125
2301.21824	26998.7125
2304.08223	27005.0125
2306.94439	27060.7125
2309.80474	27044.9125
2312.66327	27065.1125
2315.51999	27112.8125
2318.37489	27129.6125
2321.22797	27119.5125
2324.07925	27138.9125
2326.92871	27126.3125
2329.77637	27106.3125
2332.62222	27144.2125
2335.46626	27114.8125
2338.3085	27105.4125
2341.14893	27177.4125
2343.98756	27241.9125
2346.8244	27184.8125
2349.65943	27209.4125
2352.49267	27186.2125
2355.32411	27145.8125
2358.15376	27191.2125
2360.98161	27125.3125
2363.80768	27099.3125
2366.63195	27048.8125
2369.45444	27013.4125
2372.27514	26988.8125
2375.09405	26906.0125
2377.91118	26801.4125
2380.72652	26749.8125
2383.54009	26644.9125
2386.35187	26629.4125
2389.16188	26593.3125
2391.97011	26574.3125
2394.77657	26509.8125
2397.58125	26518.4125
2400.38416	26531.6125
2403.18529	26438.7125
2405.98466	26422.3125
2408.78226	26332.2125
2411.57809	26256.8125
2414.37216	26228.8125
2417.16446	26170.0125
2419.955	26120.8125
2422.74378	26111.2125
2425.5308	26099.8125
2428.31606	26077.1125
2431.09956	26094.3125
2433.88131	26064.9125
2436.6613	26077.7125
2439.43954	26077.2125
2442.21603	26069.5125
2444.99077	26035.2125
2447.76377	26069.9125
2450.53501	26015.2125
2453.30451	26057.0125
2456.07226	26064.8125
2458.83827	26052.2125
2461.60254	26091.2125
2464.36507	26070.9125
2467.12586	26112.5125
2469.88492	26094.5125
2472.64224	26137.0125
2475.39782	26120.2125
2478.15167	26170.1125
2480.90379	26213.3125
2483.65417	26205.5125
2486.40283	26241.6125
2489.14976	26242.3125
2491.89497	26278.6125
2494.63845	26289.8125
2497.3802	26262.1125
2500.12024	26318.7125
2502.85855	26291.6125
2505.59514	26267.1125
2508.33002	26253.1125
2511.06318	26179.8125
2513.79462	26160.7125
2516.52435	26131.5125
2519.25237	26168.5125
2521.97867	26161.1125
2524.70327	26118.1125
2527.42616	26082.9125
2530.14734	26088.5125
2532.86681	26125.2125
2535.58458	26094.1125
2538.30065	26114.5125
2541.01501	26067.9125
2543.72768	26067.5125
2546.43864	26059.7125
2549.14791	26040.4125
2551.85548	26025.2125
2554.56136	26025.7125
2557.26554	26005.0125
2559.96803	25992.2125
2562.66883	25954.1125
2565.36794	25974.1125
2568.06536	25981.0125
2570.7611	25948.4125
2573.45514	25930.9125
2576.14751	25949.3125
2578.83819	25922.5125
2581.52719	25942.7125
2584.21451	25947.2125
2586.90015	25937.4125
2589.58411	25901.4125
2592.2664	25954.8125
2594.94701	25921.8125
2597.62594	25893.2125
2600.30321	25879.9125
2602.9788	25891.3125
2605.65273	25866.0125
2608.32498	25881.8125
2610.99557	25872.2125
2613.66449	25935.9125
2616.33175	25893.3125
2618.99734	25951.5125
2621.66128	25981.1125
2624.32355	26002.0125
2626.98416	25993.7125
2629.64311	25997.7125
2632.30041	25968.9125
2634.95605	25927.2125
2637.61004	25947.1125
2640.26238	25904.6125
2642.91306	25890.6125
2645.56209	25879.9125
2648.20948	25820.6125
2650.85521	25764.6125
2653.4993	25786.9125
2656.14175	25792.6125
2658.78255	25833.8125
2661.42171	25789.3125
2664.05923	25812.9125
2666.6951	25825.8125
2669.32934	25876.3125
2671.96194	25900.8125
2674.59291	25908.9125
2677.22224	25910.7125
2679.84993	25899.0125
2682.476	25825.9125
2685.10043	25869.7125
2687.72324	25772.0125
2690.34441	25782.5125
2692.96396	25718.1125
2695.58188	25749.0125
2698.19818	25682.0125
2700.81285	25729.0125
2703.4259	25720.3125
2706.03733	25714.0125
2708.64714	25742.3125
2711.25533	25787.5125
2713.86191	25737.3125
2716.46687	25809.6125
2719.07021	25774.4125
2721.67194	25782.5125
2724.27206	25786.3125
2726.87057	25787.5125
2729.46747	25811.2125
2732.06276	25856.5125
2734.65644	25797.9125
2737.24852	25839.5125
2739.83899	25804.1125
2742.42786	25847.9125
2745.01513	25847.0125
2747.60079	25848.1125
2750.18486	25844.2125
2752.76733	25838.3125
2755.3482	25792.8125
2757.92747	25772.2125
2760.50515	25766.4125
2763.08123	25730.5125
2765.65573	25706.6125
2768.22863	25747.3125
2770.79994	25727.1125
2773.36967	25757.6125
2775.9378	25754.7125
2778.50435	25696.8125
2781.06932	25734.6125
2783.6327	25720.3125
2786.1945	25713.5125
2788.75471	25711.5125
2791.31335	25675.1125
2793.87041	25597.2125
2796.42589	25546.4125
2798.97979	25561.2125
2801.53212	25512.3125
2804.08288	25471.5125
2806.63206	25370.4125
2809.17967	25404.9125
2811.72571	25310.7125
2814.27018	25322.2125
2816.81308	25300.0125
2819.35442	25298.2125
2821.89419	25196.0125
2824.43239	25208.9125
2826.96904	25182.8125
2829.50412	25187.7125
2832.03763	25065.3125
2834.56959	25070.9125
2837.1	25028.0125
2839.62884	25020.1125
2842.15613	25052.9125
2844.68186	25025.7125
2847.20604	25021.1125
2849.72867	25028.9125
2852.24974	24989.5125
2854.76927	24978.2125
2857.28724	24999.0125
2859.80367	24943.5125
2862.31855	24923.9125
2864.83189	24903.8125
2867.34368	24897.7125
2869.85393	24903.9125
2872.36264	24891.0125
2874.8698	24882.2125
2877.37543	24882.4125
2879.87952	24893.3125
2882.38207	24903.6125
2884.88308	24876.2125
2887.38256	24876.0125
2889.88051	24891.9125
2892.37692	24897.4125
2894.8718	24911.1125
2897.36515	25002.4125
2899.85698	25010.8125
2902.34727	25026.7125
2904.83604	25039.9125
2907.32328	25103.8125
2909.809	25122.7125
2912.29319	25160.0125
2914.77587	25132.1125
2917.25702	25123.3125
2919.73665	25136.8125
2922.21476	25120.3125
2924.69136	25090.3125
2927.16644	25085.7125
2929.64	25033.2125
2932.11205	25018.2125
2934.58258	24924.4125
2937.05161	24968.8125
2939.51912	24893.3125
2941.98513	24881.3125
2944.44962	24852.2125
2946.91261	24753.7125
2949.37409	24808.8125
2951.83407	24782.2125
2954.29254	24788.0125
2956.74951	24750.7125
2959.20498	24776.5125
2961.65895	24722.7125
2964.11142	24701.9125
2966.56239	24602.2125
2969.01186	24608.1125
2971.45984	24513.0125
2973.90632	24487.4125
2976.35131	24396.5125
2978.7948	24353.0125
2981.23681	24316.8125
2983.67732	24231.8125
2986.11635	24153.6125
2988.55388	24117.5125
2990.98993	24051.1125
2993.4245	24005.8125
2995.85758	23986.5125
2998.28917	23906.8125
3000.71928	23885.9125
3003.14791	23847.1125
3005.57506	23832.3125
3008.00073	23786.4125
3010.42493	23762.1125
3012.84764	23708.4125
3015.26888	23700.3125
3017.68865	23637.7125
3020.10694	23574.7125
3022.52376	23547.3125
3024.9391	23508.3125
3027.35298	23481.6125
3029.76539	23445.8125
3032.17632	23441.7125
3034.5858	23384.1125
3036.9938	23396.2125
3039.40034	23354.1125
3041.80542	23310.1125
3044.20903	23250.0125
3046.61118	23251.6125
3049.01187	23209.1125
3051.4111	23190.7125
3053.80888	23173.4125
3056.20519	23117.5125
3058.60005	23043.8125
3060.99345	23038.0125
3063.3854	23019.5125
3065.7759	22922.5125
3068.16494	22879.8125
3070.55254	22805.2125
3072.93868	22745.4125
3075.32338	22732.1125
3077.70662	22674.2125
3080.08842	22590.0125
3082.46878	22581.9125
3084.84769	22494.9125
3087.22515	22525.1125
3089.60118	22520.0125
3091.97576	22510.0125
3094.3489	22444.6125
3096.72061	22487.4125
3099.09087	22463.3125
3101.4597	22456.0125
3103.82709	22430.7125
3106.19305	22427.0125
3108.55757	22397.5125
3110.92066	22331.4125
3113.28232	22295.3125
3115.64255	22224.4125
3118.00134	22174.4125
3120.35871	22171.4125
3122.71466	22079.2125
3125.06917	22059.3125
3127.42226	22025.2125
3129.77393	22016.5125
3132.12417	22012.5125
3134.47299	21990.1125
3136.82039	22006.9125
3139.16636	21997.1125
3141.51092	21984.8125
3143.85406	22011.1125
3146.19579	21988.2125
3148.53609	21976.7125
3150.87499	21972.6125
3153.21246	21930.8125
3155.54853	21971.6125
3157.88318	21931.7125
3160.21642	21917.8125
3162.54826	21880.4125
3164.87868	21868.6125
3167.2077	21860.8125
3169.5353	21874.3125
3171.86151	21849.5125
3174.18631	21845.6125
3176.5097	21819.1125
3178.83169	21800.8125
3181.15228	21793.5125
3183.47147	21768.3125
3185.78926	21770.5125
3188.10565	21738.8125
3190.42065	21742.2125
3192.73424	21759.8125
3195.04645	21767.3125
3197.35725	21794.4125
3199.66667	21711.4125
3201.97469	21742.8125
3204.28132	21681.1125
3206.58656	21701.8125
3208.8904	21677.8125
3211.19287	21681.4125
3213.49394	21694.8125
3215.79363	21668.9125
3218.09193	21702.7125
3220.38884	21702.1125
3222.68438	21708.8125
3224.97853	21631.8125
3227.2713	21645.5125
3229.56269	21636.3125
3231.8527	21642.1125
3234.14133	21614.3125
3236.42858	21569.7125
3238.71446	21610.9125
3240.99896	21503.9125
3243.28209	21512.3125
3245.56384	21495.8125
3247.84423	21459.5125
3250.12324	21468.5125
3252.40088	21421.5125
3254.67715	21372.1125
3256.95205	21386.7125
3259.22558	21364.6125
3261.49775	21313.7125
3263.76855	21316.8125
3266.03799	21267.2125
3268.30606	21251.4125
3270.57277	21219.0125
3272.83812	21211.9125
3275.10211	21137.1125
3277.36474	21158.2125
3279.62601	21146.3125
3281.88593	21138.0125
3284.14448	21165.7125
3286.40168	21179.9125
3288.65753	21126.4125
3290.91202	21080.2125
3293.16516	21049.4125
3295.41695	20979.5125
3297.66738	20896.3125
3299.91647	20766.1125
3302.16421	20690.7125
3304.4106	20588.4125
3306.65564	20485.2125
3308.89933	20385.4125
3311.14169	20239.3125
3313.38269	20092.0125
3315.62236	19990.9125
3317.86068	19844.0125
3320.09766	19649.7125
3322.3333	19458.6125
3324.5676	19464.9125
3326.80056	19164.2125
3329.03219	19050.1125
3331.26248	6.2125
3333.49143	-1.0875
3335.71905	-0.1875
