Data from AgNP_FTO_APTES_CRN_500uM_R6G_10uM_NaF_0.1M_Addition_RamanShift__21__20-28-08-237.txt Node

Date: Wed Dec 15 20:28:08 GMT 2021
User: TCL
Spectrometer: QEP01345
Trigger mode: 4
Integration Time (sec): 7.000000E0
Scans to average: 10
Electric dark correction enabled: true
Nonlinearity correction enabled: false
Boxcar width: 0
XAxis mode: Raman Shifts
Number of Pixels in Spectrum: 1044
>>>>>Begin Spectral Data<<<<<
46.04893	0.6
50.45542	-2.5
54.85868	0.2
59.25871	-1.7
63.6555	55.7
68.04907	62.6
72.43941	63.6
76.82654	67.2
81.21044	70.8
85.59113	73.8
89.96862	78.2
94.34289	75.7
98.71396	79.6
103.08183	88.8
107.4465	88.1
111.80798	90.9
116.16626	90.7
120.52136	95
124.87327	95.5
129.222	97.6
133.56755	100.4
137.90993	108.7
142.24913	123.1
146.58517	132.3
150.91804	153.5
155.24774	177.1
159.57429	222.7
163.89768	284
168.21792	362.2
172.53501	489.9
176.84895	678.6
181.15975	946.9
185.46741	1330.3
189.77193	1836.3
194.07331	2452.9
198.37157	3166.7
202.6667	3911.7
206.9587	4643.8
211.24758	5373.6
215.53334	6094.2
219.81599	6863.3
224.09553	7697.4
228.37195	8591.6
232.64527	9585.9
236.91549	10621.8
241.18261	11690.4
245.44663	12673.6
249.70755	13600.2
253.96539	14404.9
258.22014	15045
262.4718	15635.7
266.72039	16017.2
270.96589	16172.8
275.20832	16215.8
279.44768	16099.8
283.68397	15987.6
287.91719	15802.4
292.14735	15693.1
296.37445	15613.7
300.59849	15602.1
304.81948	15576.5
309.03742	15512.6
313.25231	15372.5
317.46415	15154.7
321.67296	14905.3
325.87872	14706.7
330.08145	14674.5
334.28114	14721.9
338.47781	14792.5
342.67145	14946.2
346.86207	15159.9
351.04966	15388.2
355.23424	15616.1
359.4158	15828.2
363.59435	16010.8
367.76989	16156.6
371.94243	16238.1
376.11196	16334.8
380.27849	16456.4
384.44203	16600
388.60257	16710.5
392.76012	16833
396.91468	16990.6
401.06626	17192.7
405.21485	17321.5
409.36047	17338.2
413.50311	17234.5
417.64277	17100.2
421.77947	17094.8
425.9132	17169.6
430.04396	17284.9
434.17176	17479.8
438.2966	17670.4
442.41849	18043.9
446.53742	18513.4
450.6534	19015.2
454.76644	19349
458.87653	19473.6
462.98368	19363.2
467.08789	19144.3
471.18916	19034.5
475.2875	18931.7
479.38291	18887.9
483.4754	18818
487.56496	18600.9
491.6516	18352.8
495.73531	18085.4
499.81612	17973.6
503.89401	18005.9
507.96899	18095.7
512.04106	18135.7
516.11023	18160.5
520.1765	18172.7
524.23987	18147.9
528.30034	18098.8
532.35792	18003
536.41261	17879
540.46441	17727.5
544.51333	17716
548.55936	17886.8
552.60252	18176.1
556.64279	18513.1
560.6802	18779.2
564.71473	18921.7
568.7464	19108.3
572.7752	19382.3
576.80114	19560.5
580.82422	19700.9
584.84444	19886.5
588.86181	20311.4
592.87633	20857
596.888	21096.7
600.89682	20876.3
604.9028	20866.2
608.90594	21621.8
612.90624	22423.1
616.90371	21402.3
620.89834	19104.5
624.89015	18119.6
628.87913	17997.6
632.86528	18072.9
636.84862	18145.4
640.82913	18046.1
644.80683	17775.5
648.78172	17605.8
652.75379	17566.8
656.72306	17649.2
660.68952	17776.8
664.65319	17782.9
668.61405	17626.4
672.57211	17614.5
676.52738	17693.5
680.47986	17746
684.42955	17754.7
688.37646	17642.1
692.32058	17621.9
696.26192	17723.8
700.20048	17837.5
704.13626	17892.8
708.06928	17888.2
711.99952	17818.6
715.927	17756.6
719.85171	17729.9
723.77365	17692
727.69284	17518.9
731.60928	17401.2
735.52295	17355.3
739.43388	17330.7
743.34206	17327.4
747.24749	17316.4
751.15017	17374.1
755.05012	17548.8
758.94733	17834.8
762.8418	18371.3
766.73354	19195.8
770.62254	19977.3
774.50882	20180.4
778.39237	19534
782.27321	18504.9
786.15132	17677.8
790.02671	17201.3
793.89938	16956.5
797.76935	16833.9
801.6366	16842.2
805.50115	16820.5
809.36299	16775.7
813.22213	16716.5
817.07857	16674.5
820.93231	16673.1
824.78336	16622
828.63172	16589.5
832.47738	16554.3
836.32036	16598.1
840.16066	16584.7
843.99827	16585.4
847.8332	16535.5
851.66546	16508.7
855.49504	16513.9
859.32195	16528.8
863.1462	16568.2
866.96777	16550.9
870.78668	16472.9
874.60293	16499.8
878.41652	16497.2
882.22745	16507.9
886.03573	16541
889.84136	16517.2
893.64433	16488.4
897.44466	16437.6
901.24235	16376.3
905.0374	16328.6
908.8298	16317.7
912.61957	16331.3
916.40671	16428.9
920.19121	16553.1
923.97308	16641
927.75233	16685.7
931.52895	16607.8
935.30295	16484.9
939.07433	16294.7
942.84309	16132.4
946.60924	16020.4
950.37278	15975.2
954.13371	15953.6
957.89203	15917.7
961.64774	15919.7
965.40086	15894.3
969.15137	15852.2
972.89929	15747.8
976.64461	15707
980.38733	15678.3
984.12747	15728.6
987.86502	15816.6
991.59999	15890
995.33237	16023.8
999.06217	16236.5
1002.78939	16518.8
1006.51404	16695.9
1010.23611	16868.5
1013.95561	16989.6
1017.67255	16991.9
1021.38692	16833
1025.09872	16662.9
1028.80796	16570.6
1032.51465	16591.8
1036.21877	16755
1039.92035	16801.3
1043.61937	16816.6
1047.31584	16749
1051.00976	16751.8
1054.70114	16799.5
1058.38998	16900
1062.07627	17108.1
1065.76003	17417.7
1069.44126	17786.6
1073.11995	18267.9
1076.79611	18538.5
1080.46974	18505.8
1084.14085	18215.1
1087.80943	17920.8
1091.47549	17697.6
1095.13903	17521.9
1098.80005	17349.3
1102.45857	17096.2
1106.11456	16896.8
1109.76805	16855.7
1113.41903	16873.2
1117.06751	16964.8
1120.71348	17088.1
1124.35696	17204
1127.99793	17433.7
1131.63641	17570.9
1135.2724	17463.2
1138.90589	17351.5
1142.5369	17349.8
1146.16542	17351.5
1149.79145	17433.3
1153.415	17588.4
1157.03607	17758.8
1160.65467	18082.2
1164.27079	18680.8
1167.88443	19428.5
1171.49561	20339.8
1175.10432	21535.6
1178.71056	22958.5
1182.31434	24077.9
1185.91565	24492.7
1189.51451	24109.8
1193.11091	23433.5
1196.70485	22761.1
1200.29634	22053.4
1203.88538	21634.4
1207.47197	21309.8
1211.05612	21016.5
1214.63782	20722.3
1218.21708	20512.5
1221.79391	20326.4
1225.36829	20197.9
1228.94024	20002.3
1232.50976	19731.6
1236.07685	19442.3
1239.6415	19376
1243.20374	19377.5
1246.76355	19511.1
1250.32093	19677.7
1253.8759	19964.4
1257.42845	20307
1260.97859	20649.8
1264.52631	20946
1268.07163	21279.2
1271.61453	21709.9
1275.15503	22087
1278.69312	22517
1282.22882	22970.5
1285.76211	23525.1
1289.29301	24267
1292.82151	25217.3
1296.34761	26317.8
1299.87133	27556.7
1303.39266	28838.6
1306.9116	30163.9
1310.42815	31420.3
1313.94233	32332
1317.45412	32523.3
1320.96354	32248.9
1324.47058	31781.5
1327.97525	31189.9
1331.47754	30770.8
1334.97747	30540.3
1338.47502	30353.9
1341.97022	30039.6
1345.46305	29636.9
1348.95352	29181.4
1352.44163	29109.1
1355.92738	29586.9
1359.41078	30564.3
1362.89183	31470.6
1366.37053	31171.5
1369.84688	29253.4
1373.32088	26785.3
1376.79254	25073.5
1380.26186	24494.8
1383.72883	24512.9
1387.19347	24607.8
1390.65578	24539.6
1394.11575	24565.3
1397.57339	24843.9
1401.0287	25361.7
1404.48168	25737.8
1407.93234	25706.2
1411.38068	25328.9
1414.82669	24557.3
1418.27039	23634.6
1421.71177	22715.6
1425.15083	21914.7
1428.58758	21474.1
1432.02203	21530.5
1435.45416	21871.2
1438.88399	22444.8
1442.31151	22941.4
1445.73673	23277.1
1449.15965	23640.1
1452.58027	23875.6
1455.9986	23943.7
1459.41463	24000.8
1462.82837	24203.4
1466.23982	24515.7
1469.64898	24770.7
1473.05586	24931.9
1476.46045	24941.7
1479.86276	24775.4
1483.26279	24524.4
1486.66054	24236.4
1490.05602	24074.5
1493.44922	24035.4
1496.84016	23957.6
1500.22882	24063.3
1503.61521	24343.8
1506.99934	24942.2
1510.38121	25435.7
1513.76081	25632.1
1517.13816	25273
1520.51324	24613.7
1523.88607	24035.9
1527.25665	23764.2
1530.62498	23780.2
1533.99105	23820
1537.35488	23808.9
1540.71647	23614.4
1544.07581	23251.6
1547.4329	22845.5
1550.78776	22466.6
1554.14038	22228.1
1557.49077	22091.7
1560.83892	22027.7
1564.18484	22095.6
1567.52853	22338
1570.86999	22791.7
1574.20922	23565.8
1577.54624	24374.7
1580.88103	24827.9
1584.2136	24971.3
1587.54395	24990.4
1590.87208	25258.6
1594.19801	25986.9
1597.52172	26852.7
1600.84321	27121.2
1604.16251	26262.7
1607.47959	24619.7
1610.79447	22746.3
1614.10715	21049.4
1617.41763	19787.2
1620.7259	18966.8
1624.03199	18566.1
1627.33587	18551.5
1630.63757	18980.9
1633.93707	19898.5
1637.23439	21450
1640.52951	23577.4
1643.82246	26035
1647.11321	27971.6
1650.40179	28202.8
1653.68819	26436.8
1656.97241	23567.1
1660.25446	20771.5
1663.53433	18686.9
1666.81203	17316.4
1670.08756	16497.7
1673.36092	15963.4
1676.63211	15602.9
1679.90115	15327.7
1683.16801	15115.7
1686.43272	14966.8
1689.69527	14865.9
1692.95567	14796
1696.2139	14758.8
1699.46999	14682.1
1702.72392	14687.2
1705.97571	14638.6
1709.22535	14596.2
1712.47284	14569.5
1715.71819	14516
1718.96139	14485
1722.20246	14412.5
1725.44139	14366.7
1728.67818	14309
1731.91284	14246.3
1735.14537	14140.9
1738.37576	14121.8
1741.60403	14093.9
1744.83017	14046.3
1748.05418	14040
1751.27607	14013.4
1754.49584	14001.9
1757.71349	13989.8
1760.92903	13987.1
1764.14244	13945.8
1767.35375	13903.3
1770.56294	13905.8
1773.77002	13859.6
1776.97499	13843.6
1780.17785	13816.2
1783.37861	13779.4
1786.57727	13753.7
1789.77382	13715
1792.96828	13677.9
1796.16064	13683.1
1799.3509	13631.9
1802.53907	13604.9
1805.72514	13554.1
1808.90913	13542.4
1812.09102	13531.4
1815.27083	13477.2
1818.44856	13473
1821.6242	13420.9
1824.79776	13428.9
1827.96924	13421.2
1831.13864	13395.8
1834.30597	13397.9
1837.47122	13383.5
1840.6344	13363.6
1843.7955	13377.1
1846.95454	13347
1850.11151	13343.2
1853.26642	13317.6
1856.41926	13319.4
1859.57004	13330.7
1862.71876	13301.8
1865.86542	13302.8
1869.01003	13305
1872.15258	13267.6
1875.29308	13277.1
1878.43152	13241
1881.56792	13251.7
1884.70227	13240.5
1887.83457	13217
1890.96482	13213.9
1894.09304	13200.6
1897.21921	13203.3
1900.34335	13191.4
1903.46544	13169.1
1906.58551	13162.4
1909.70353	13156.2
1912.81953	13138.8
1915.93349	13104.9
1919.04543	13075.9
1922.15534	13049.9
1925.26322	12998.9
1928.36908	13041.2
1931.47292	12997.5
1934.57473	12951.6
1937.67453	12933.1
1940.77232	12897
1943.86808	12849.9
1946.96184	12831.4
1950.05358	12789
1953.14331	12762.5
1956.23103	12728.2
1959.31675	12719.8
1962.40046	12662.3
1965.48217	12656.8
1968.56188	12624.1
1971.63959	12562.8
1974.7153	12506
1977.78901	12480.7
1980.86073	12442.2
1983.93046	12426.1
1986.99819	12385.4
1990.06394	12347.3
1993.1277	12326.5
1996.18947	12259.3
1999.24925	12215.2
2002.30706	12203.1
2005.36288	12174.8
2008.41672	12123.5
2011.46859	12093.5
2014.51848	12090.7
2017.56639	12047.5
2020.61233	12035.8
2023.6563	11998.6
2026.6983	11986.5
2029.73833	11955.4
2032.7764	11907
2035.8125	11894.5
2038.84664	11882.5
2041.87881	11854.2
2044.90903	11825.5
2047.93729	11803.3
2050.96359	11841.4
2053.98794	11781.8
2057.01034	11796.9
2060.03078	11785.2
2063.04927	11739.2
2066.06582	11778.1
2069.08042	11762.5
2072.09307	11750.1
2075.10378	11731.3
2078.11255	11698
2081.11938	11714.4
2084.12426	11691.9
2087.12722	11704.9
2090.12824	11692
2093.12732	11693.6
2096.12447	11729.1
2099.11969	11736.1
2102.11299	11738.9
2105.10435	11700.9
2108.09379	11710.7
2111.08131	11739.3
2114.0669	11702.9
2117.05057	11713
2120.03233	11734.5
2123.01216	11759.5
2125.99008	11766.4
2128.96609	11792
2131.94018	11793.8
2134.91236	11768.8
2137.88263	11779.9
2140.851	11799.2
2143.81746	11803.1
2146.78201	11803.7
2149.74466	11796.9
2152.7054	11806.2
2155.66425	11802.3
2158.6212	11850
2161.57625	11819.9
2164.52941	11797.4
2167.48067	11774.2
2170.43004	11800.9
2173.37752	11774.2
2176.32311	11772.5
2179.26681	11768.9
2182.20863	11781.2
2185.14856	11779.6
2188.08661	11735.9
2191.02278	11775.1
2193.95707	11746.6
2196.88948	11739.4
2199.82001	11723.6
2202.74867	11724.7
2205.67545	11723.4
2208.60037	11711.6
2211.52341	11695.6
2214.44458	11696
2217.36388	11650.9
2220.28132	11634.7
2223.1969	11606.6
2226.11061	11590.8
2229.02246	11559.3
2231.93245	11567
2234.84058	11523.1
2237.74686	11524.8
2240.65128	11490.9
2243.55385	11470.4
2246.45456	11455.3
2249.35343	11475.4
2252.25044	11431.6
2255.14561	11420.8
2258.03893	11423.6
2260.93041	11381.7
2263.82004	11353.8
2266.70783	11343.9
2269.59378	11271.9
2272.4779	11277.6
2275.36017	11260.7
2278.24061	11229
2281.11922	11180.4
2283.996	11168.6
2286.87094	11175.1
2289.74405	11138.4
2292.61534	11118.6
2295.4848	11118.1
2298.35243	11135.1
2301.21824	11136.4
2304.08223	11095
2306.94439	11095.4
2309.80474	11080.5
2312.66327	11072.8
2315.51999	11085.9
2318.37489	11047.1
2321.22797	11061.5
2324.07925	11047
2326.92871	11042.1
2329.77637	11009.7
2332.62222	11001.5
2335.46626	10970.8
2338.3085	10986.1
2341.14893	10974.4
2343.98756	10966
2346.8244	10966.1
2349.65943	10947.5
2352.49267	10923.5
2355.32411	10931.5
2358.15376	10941.9
2360.98161	10909.9
2363.80768	10920.5
2366.63195	10917.2
2369.45444	10904.1
2372.27514	10883.7
2375.09405	10872.5
2377.91118	10860.8
2380.72652	10831
2383.54009	10798.7
2386.35187	10796
2389.16188	10767.1
2391.97011	10738.9
2394.77657	10732.3
2397.58125	10731.1
2400.38416	10695.9
2403.18529	10682
2405.98466	10670.7
2408.78226	10655.8
2411.57809	10625.8
2414.37216	10631.8
2417.16446	10630.2
2419.955	10619.3
2422.74378	10582.4
2425.5308	10572.8
2428.31606	10550.3
2431.09956	10556.1
2433.88131	10520.5
2436.6613	10553.3
2439.43954	10546.1
2442.21603	10527.6
2444.99077	10507.3
2447.76377	10511.8
2450.53501	10510.6
2453.30451	10491.9
2456.07226	10467.4
2458.83827	10463.3
2461.60254	10501.3
2464.36507	10443.1
2467.12586	10459.2
2469.88492	10443.2
2472.64224	10438.3
2475.39782	10431.4
2478.15167	10435.9
2480.90379	10438.4
2483.65417	10447.4
2486.40283	10441.7
2489.14976	10445.2
2491.89497	10437.4
2494.63845	10451.8
2497.3802	10417.4
2500.12024	10425.1
2502.85855	10412
2505.59514	10402.5
2508.33002	10428.6
2511.06318	10383.5
2513.79462	10390.2
2516.52435	10353.9
2519.25237	10347.5
2521.97867	10335.1
2524.70327	10354.5
2527.42616	10309.8
2530.14734	10303.6
2532.86681	10311.7
2535.58458	10307.8
2538.30065	10288.2
2541.01501	10288.5
2543.72768	10275
2546.43864	10262.9
2549.14791	10218.8
2551.85548	10211.6
2554.56136	10224.8
2557.26554	10192.4
2559.96803	10185.6
2562.66883	10152.5
2565.36794	10162.4
2568.06536	10155
2570.7611	10136.1
2573.45514	10132.8
2576.14751	10127.9
2578.83819	10114.6
2581.52719	10093.1
2584.21451	10072
2586.90015	10065.8
2589.58411	10071.7
2592.2664	10052.6
2594.94701	10029.7
2597.62594	10018.6
2600.30321	10010.3
2602.9788	9983.5
2605.65273	9957.2
2608.32498	9976.5
2610.99557	9948
2613.66449	9973
2616.33175	9931.2
2618.99734	9936.9
2621.66128	9922.6
2624.32355	9939.7
2626.98416	9917.4
2629.64311	9934.9
2632.30041	9905.3
2634.95605	9917.1
2637.61004	9898.9
2640.26238	9871.9
2642.91306	9892
2645.56209	9875.3
2648.20948	9884.4
2650.85521	9871.7
2653.4993	9873
2656.14175	9866.5
2658.78255	9860.6
2661.42171	9865.7
2664.05923	9880.4
2666.6951	9863.6
2669.32934	9858
2671.96194	9856.4
2674.59291	9865
2677.22224	9870.4
2679.84993	9878.1
2682.476	9860.3
2685.10043	9850
2687.72324	9859.5
2690.34441	9840.3
2692.96396	9849.4
2695.58188	9846.4
2698.19818	9854.8
2700.81285	9844
2703.4259	9873.7
2706.03733	9907.5
2708.64714	9894.5
2711.25533	9865.7
2713.86191	9892.1
2716.46687	9873.6
2719.07021	9896.5
2721.67194	9867.8
2724.27206	9869.2
2726.87057	9887.7
2729.46747	9872.3
2732.06276	9881.3
2734.65644	9836.7
2737.24852	9873.3
2739.83899	9850.6
2742.42786	9850
2745.01513	9845.7
2747.60079	9833.6
2750.18486	9816.1
2752.76733	9824.3
2755.3482	9821.5
2757.92747	9813.4
2760.50515	9795.7
2763.08123	9804.2
2765.65573	9788.1
2768.22863	9785
2770.79994	9799.2
2773.36967	9784
2775.9378	9757.3
2778.50435	9731.5
2781.06932	9742.3
2783.6327	9718
2786.1945	9728.9
2788.75471	9702.2
2791.31335	9719.4
2793.87041	9676.8
2796.42589	9656.4
2798.97979	9671.9
2801.53212	9631.1
2804.08288	9610.8
2806.63206	9595
2809.17967	9575.3
2811.72571	9558.7
2814.27018	9551.3
2816.81308	9553.4
2819.35442	9535.8
2821.89419	9523.7
2824.43239	9493.1
2826.96904	9495.8
2829.50412	9498.6
2832.03763	9461.5
2834.56959	9478.7
2837.1	9464.2
2839.62884	9468.6
2842.15613	9448.7
2844.68186	9481.8
2847.20604	9473.6
2849.72867	9470.7
2852.24974	9460.7
2854.76927	9460.3
2857.28724	9429.1
2859.80367	9415.2
2862.31855	9434.9
2864.83189	9421.5
2867.34368	9429.9
2869.85393	9402.5
2872.36264	9374.9
2874.8698	9404.2
2877.37543	9403
2879.87952	9404.3
2882.38207	9405.4
2884.88308	9411.2
2887.38256	9427.9
2889.88051	9435.1
2892.37692	9399.2
2894.8718	9408.4
2897.36515	9443
2899.85698	9421.2
2902.34727	9441.4
2904.83604	9471.2
2907.32328	9478.2
2909.809	9478
2912.29319	9485.2
2914.77587	9465.4
2917.25702	9467.3
2919.73665	9461.1
2922.21476	9463.2
2924.69136	9483
2927.16644	9471.7
2929.64	9480
2932.11205	9475.4
2934.58258	9448.8
2937.05161	9449.1
2939.51912	9463
2941.98513	9451.7
2944.44962	9419.7
2946.91261	9367.3
2949.37409	9395.8
2951.83407	9352.9
2954.29254	9355.2
2956.74951	9315
2959.20498	9321.3
2961.65895	9322.8
2964.11142	9300.1
2966.56239	9283.1
2969.01186	9265.4
2971.45984	9224.5
2973.90632	9210.4
2976.35131	9185.2
2978.7948	9185.2
2981.23681	9160.4
2983.67732	9127.6
2986.11635	9123.5
2988.55388	9085.6
2990.98993	9076.7
2993.4245	9062.1
2995.85758	9032.2
2998.28917	9010.9
3000.71928	8999.9
3003.14791	8971.5
3005.57506	8968.4
3008.00073	8974.9
3010.42493	8938.9
3012.84764	8933.4
3015.26888	8912
3017.68865	8893.6
3020.10694	8897.7
3022.52376	8870.9
3024.9391	8859.9
3027.35298	8869.5
3029.76539	8851.3
3032.17632	8838.3
3034.5858	8824.2
3036.9938	8823.8
3039.40034	8805.6
3041.80542	8785
3044.20903	8789.9
3046.61118	8799.2
3049.01187	8734.4
3051.4111	8740
3053.80888	8725.9
3056.20519	8714
3058.60005	8686.8
3060.99345	8656.4
3063.3854	8665.4
3065.7759	8614.1
3068.16494	8622.8
3070.55254	8608.6
3072.93868	8594.3
3075.32338	8569.5
3077.70662	8549.9
3080.08842	8504.4
3082.46878	8535.8
3084.84769	8549.4
3087.22515	8538.1
3089.60118	8542.1
3091.97576	8552.7
3094.3489	8539.7
3096.72061	8546.8
3099.09087	8538.8
3101.4597	8533.1
3103.82709	8505.5
3106.19305	8516.4
3108.55757	8490.2
3110.92066	8457.7
3113.28232	8457.8
3115.64255	8475.4
3118.00134	8416.6
3120.35871	8449.3
3122.71466	8428.8
3125.06917	8403.1
3127.42226	8389
3129.77393	8397.8
3132.12417	8387.9
3134.47299	8389.8
3136.82039	8392.5
3139.16636	8407.9
3141.51092	8394.7
3143.85406	8418.8
3146.19579	8431.7
3148.53609	8409.9
3150.87499	8417.4
3153.21246	8406.1
3155.54853	8426.8
3157.88318	8433.1
3160.21642	8443.6
3162.54826	8402.5
3164.87868	8440.6
3167.2077	8415.5
3169.5353	8407.3
3171.86151	8420.9
3174.18631	8407.2
3176.5097	8419.5
3178.83169	8400.9
3181.15228	8404.1
3183.47147	8380.6
3185.78926	8395.6
3188.10565	8390.6
3190.42065	8387.1
3192.73424	8382.4
3195.04645	8382.5
3197.35725	8401.4
3199.66667	8407.3
3201.97469	8387.8
3204.28132	8391.4
3206.58656	8397.7
3208.8904	8413.2
3211.19287	8402.3
3213.49394	8408.9
3215.79363	8398.5
3218.09193	8393.3
3220.38884	8388.9
3222.68438	8402.7
3224.97853	8392.5
3227.2713	8381.2
3229.56269	8372.2
3231.8527	8373
3234.14133	8345.8
3236.42858	8345
3238.71446	8342.7
3240.99896	8319.6
3243.28209	8328.7
3245.56384	8312.5
3247.84423	8312.3
3250.12324	8324.2
3252.40088	8316.9
3254.67715	8308.2
3256.95205	8292.9
3259.22558	8285
3261.49775	8242.6
3263.76855	8262.7
3266.03799	8238.1
3268.30606	8231.1
3270.57277	8212.7
3272.83812	8205.1
3275.10211	8199
3277.36474	8178.9
3279.62601	8178.5
3281.88593	8174.6
3284.14448	8179.9
3286.40168	8202.5
3288.65753	8197.8
3290.91202	8134.5
3293.16516	8132.4
3295.41695	8100.8
3297.66738	8061.7
3299.91647	8017.7
3302.16421	7986
3304.4106	7950.5
3306.65564	7905.6
3308.89933	7846.9
3311.14169	7839.7
3313.38269	7768.1
3315.62236	7720.6
3317.86068	7632.7
3320.09766	7592.2
3322.3333	7508.7
3324.5676	7497.6
3326.80056	7385.3
3329.03219	7344
3331.26248	3.2
3333.49143	0.4
3335.71905	-0.7
