Data from AgNP_FTO_APTES_CRN_5uM_R6G_10uM_NaF_0.1M_Addition_RamanShift__14__15-42-17-913.txt Node

Date: Wed Dec 15 15:42:17 GMT 2021
User: TCL
Spectrometer: QEP01345
Trigger mode: 4
Integration Time (sec): 7.000000E0
Scans to average: 10
Electric dark correction enabled: true
Nonlinearity correction enabled: false
Boxcar width: 0
XAxis mode: Raman Shifts
Number of Pixels in Spectrum: 1044
>>>>>Begin Spectral Data<<<<<
46.04893	0.3
50.45542	-1.8
54.85868	-2
59.25871	-1.8
63.6555	117.2
68.04907	127.8
72.43941	131.8
76.82654	138.9
81.21044	143.3
85.59113	145.8
89.96862	152.2
94.34289	154.5
98.71396	162
103.08183	171.4
107.4465	175.2
111.80798	181.8
116.16626	181.9
120.52136	191.7
124.87327	196.7
129.222	208.2
133.56755	219.1
137.90993	239.2
142.24913	261.9
146.58517	291.2
150.91804	333.5
155.24774	403.8
159.57429	498.4
163.89768	636.9
168.21792	843.7
172.53501	1145.3
176.84895	1597.5
181.15975	2236.2
185.46741	3130.5
189.77193	4335.6
194.07331	5784.3
198.37157	7438.7
202.6667	9201.8
206.9587	10956.4
211.24758	12666.3
215.53334	14341.2
219.81599	16123.3
224.09553	17983
228.37195	20103.2
232.64527	22472.3
236.91549	25049.2
241.18261	27595.1
245.44663	30127.3
249.70755	32406.2
253.96539	34428.8
258.22014	36142.9
262.4718	37442.1
266.72039	38321.8
270.96589	38804
275.20832	38882.2
279.44768	38751.2
283.68397	38438
287.91719	38107.3
292.14735	37850.4
296.37445	37723.3
300.59849	37610.2
304.81948	37600.1
309.03742	37469.7
313.25231	37246
317.46415	36807.6
321.67296	36293.7
325.87872	35876.9
330.08145	35755.3
334.28114	35794.8
338.47781	36154.3
342.67145	36484
346.86207	36958.3
351.04966	37418.6
355.23424	37961
359.4158	38464.6
363.59435	38873.1
367.76989	39185.9
371.94243	39425.8
376.11196	39541.5
380.27849	39556.2
384.44203	39728.7
388.60257	39980.6
392.76012	40418.5
396.91468	40988.9
401.06626	41583.7
405.21485	41906.8
409.36047	41970.7
413.50311	41755.9
417.64277	41722.8
421.77947	41895.2
425.9132	42270.5
430.04396	42529.4
434.17176	42701.3
438.2966	42770.7
442.41849	43021.6
446.53742	43625.1
450.6534	44422.4
454.76644	45011.3
458.87653	45264.6
462.98368	45309.8
467.08789	45117.5
471.18916	44792.6
475.2875	44324.6
479.38291	43970.3
483.4754	43715.2
487.56496	43430
491.6516	43156.4
495.73531	42838
499.81612	42787.7
503.89401	43092.3
507.96899	43383
512.04106	43606.6
516.11023	43544.4
520.1765	43233.6
524.23987	42859.1
528.30034	42495.9
532.35792	42135.1
536.41261	41838.3
540.46441	41615.3
544.51333	41643.2
548.55936	42069.9
552.60252	42658
556.64279	43290.1
560.6802	43691.1
564.71473	43992
568.7464	44556.3
572.7752	45512
576.80114	46890.9
580.82422	48373.2
584.84444	49751
588.86181	51071
592.87633	51872
596.888	51335
600.89682	50003
604.9028	49804.9
608.90594	51393.3
612.90624	52717.4
616.90371	50045.4
620.89834	45384.1
624.89015	43452.2
628.87913	43412.7
632.86528	43702.1
636.84862	43733.5
640.82913	43198.2
644.80683	42421.8
648.78172	42009.3
652.75379	41880.8
656.72306	42183.8
660.68952	42623.6
664.65319	42475.1
668.61405	42218.5
672.57211	42190.1
676.52738	42335.4
680.47986	42268
684.42955	42110.3
688.37646	41991.7
692.32058	42148.7
696.26192	42499.7
700.20048	42957.9
704.13626	43288
708.06928	43495.1
711.99952	43475.7
715.927	43333.9
719.85171	43234.3
723.77365	43029.3
727.69284	42551.6
731.60928	42115.6
735.52295	41840.4
739.43388	41731.6
743.34206	41813.6
747.24749	42016.5
751.15017	42468.2
755.05012	43015.8
758.94733	43894.1
762.8418	45338.6
766.73354	47451.2
770.62254	49120.2
774.50882	49153
778.39237	47597.1
782.27321	45634.7
786.15132	43970
790.02671	42886.4
793.89938	42327.2
797.76935	42013.7
801.6366	41859.1
805.50115	41842.1
809.36299	41656
813.22213	41473.4
817.07857	41283
820.93231	41197.5
824.78336	41057.6
828.63172	41010.4
832.47738	40949.6
836.32036	40936
840.16066	40953.9
843.99827	40954.6
847.8332	41002.7
851.66546	41030.2
855.49504	41130.3
859.32195	41088.1
863.1462	41063.1
866.96777	41061
870.78668	41046
874.60293	41055
878.41652	41099.4
882.22745	41216.2
886.03573	41345.5
889.84136	41378.1
893.64433	41271
897.44466	41218.2
901.24235	41240.5
905.0374	41211.9
908.8298	41175.8
912.61957	41260.1
916.40671	41558
920.19121	42030.9
923.97308	42224.4
927.75233	42092.6
931.52895	41686.1
935.30295	41227.7
939.07433	40812.9
942.84309	40448.8
946.60924	40197.8
950.37278	40123.8
954.13371	40126.3
957.89203	40122.7
961.64774	40119.4
965.40086	40052.2
969.15137	39978.1
972.89929	39873.8
976.64461	39785.4
980.38733	39759.2
984.12747	39766.4
987.86502	39881.6
991.59999	39967.7
995.33237	40122.8
999.06217	40537.9
1002.78939	41129.5
1006.51404	41776.4
1010.23611	42453
1013.95561	42925.1
1017.67255	42921
1021.38692	42514.3
1025.09872	42072.9
1028.80796	41606.4
1032.51465	41386.1
1036.21877	41430
1039.92035	41538.2
1043.61937	41756.8
1047.31584	41953.7
1051.00976	42172.2
1054.70114	42455.4
1058.38998	42815.2
1062.07627	43508.1
1065.76003	44372.6
1069.44126	45236.8
1073.11995	46130.8
1076.79611	46851.9
1080.46974	46860.8
1084.14085	46661
1087.80943	46536.7
1091.47549	46511.8
1095.13903	46456.9
1098.80005	46032.3
1102.45857	45189.5
1106.11456	44533.6
1109.76805	43999.9
1113.41903	43756
1117.06751	43764.1
1120.71348	43901.8
1124.35696	44133.4
1127.99793	44395.8
1131.63641	44753.1
1135.2724	44837.5
1138.90589	44901.6
1142.5369	45066.2
1146.16542	45219.2
1149.79145	45383.1
1153.415	45758
1157.03607	46184.5
1160.65467	47128.4
1164.27079	48551.7
1167.88443	50381.2
1171.49561	52240.3
1175.10432	54367.5
1178.71056	56878
1182.31434	59481.1
1185.91565	61423.2
1189.51451	62239.4
1193.11091	62063.3
1196.70485	60926.1
1200.29634	59096.3
1203.88538	57650
1207.47197	56772.2
1211.05612	56353.7
1214.63782	55699
1218.21708	54465
1221.79391	53012
1225.36829	51883.9
1228.94024	51258.7
1232.50976	50897.8
1236.07685	50720.9
1239.6415	50683.9
1243.20374	50792.1
1246.76355	50960.4
1250.32093	51443.2
1253.8759	52201.2
1257.42845	53407.5
1260.97859	54604.4
1264.52631	55921.1
1268.07163	57021
1271.61453	58212.2
1275.15503	59390.2
1278.69312	60597.7
1282.22882	61752.6
1285.76211	63057.5
1289.29301	64513
1292.82151	66168.7
1296.34761	68240.7
1299.87133	70700.9
1303.39266	73193.6
1306.9116	75376
1310.42815	76927.5
1313.94233	77548.7
1317.45412	77619.6
1320.96354	77518
1324.47058	77696.5
1327.97525	78419.4
1331.47754	79207.4
1334.97747	79903
1338.47502	80620.5
1341.97022	81509.9
1345.46305	82017.8
1348.95352	81866
1352.44163	80864
1355.92738	79750
1359.41078	79117.3
1362.89183	78602.1
1366.37053	76773
1369.84688	72981.2
1373.32088	68313.8
1376.79254	64752.5
1380.26186	63034.6
1383.72883	62665.3
1387.19347	62694.4
1390.65578	62284.9
1394.11575	61906.9
1397.57339	62082.8
1401.0287	62641.7
1404.48168	63132.3
1407.93234	62906.6
1411.38068	62200.1
1414.82669	60602.9
1418.27039	58692.9
1421.71177	56890.8
1425.15083	55575.4
1428.58758	55120.6
1432.02203	55474.5
1435.45416	56569.6
1438.88399	57742.8
1442.31151	58829.6
1445.73673	59369.7
1449.15965	59715.7
1452.58027	59874.1
1455.9986	60117.9
1459.41463	60618.6
1462.82837	61466.3
1466.23982	62332.7
1469.64898	62960.9
1473.05586	63312.5
1476.46045	63263.6
1479.86276	62942.5
1483.26279	62635
1486.66054	62209.9
1490.05602	62331.8
1493.44922	62783.7
1496.84016	63478.1
1500.22882	64506.7
1503.61521	65884.7
1506.99934	67269.4
1510.38121	68174.6
1513.76081	68285.6
1517.13816	67687.4
1520.51324	67056.6
1523.88607	66707.1
1527.25665	66674.2
1530.62498	66727.2
1533.99105	66436.7
1537.35488	65653.2
1540.71647	64491.7
1544.07581	63073
1547.4329	61868.8
1550.78776	60686.4
1554.14038	59824.4
1557.49077	59344.7
1560.83892	59030.8
1564.18484	58928.7
1567.52853	58979.5
1570.86999	59369.8
1574.20922	60537.8
1577.54624	61914.9
1580.88103	62896.5
1584.2136	63744.4
1587.54395	64679
1590.87208	65941.5
1594.19801	67636.9
1597.52172	69239.7
1600.84321	69233
1604.16251	67023.7
1607.47959	63755.7
1610.79447	60240.2
1614.10715	56673.6
1617.41763	53386.8
1620.7259	50860.3
1624.03199	49327.4
1627.33587	49111.6
1630.63757	49978.2
1633.93707	52130.9
1637.23439	56062.9
1640.52951	61596.4
1643.82246	67543.8
1647.11321	71745
1650.40179	71991.2
1653.68819	67786.8
1656.97241	61001.8
1660.25446	54368.3
1663.53433	49232.7
1666.81203	45663.3
1670.08756	43394.5
1673.36092	41964.3
1676.63211	40920.8
1679.90115	40243.7
1683.16801	39707.4
1686.43272	39260.1
1689.69527	39026.2
1692.95567	38784.4
1696.2139	38614.5
1699.46999	38535.2
1702.72392	38375.1
1705.97571	38306.3
1709.22535	38177.2
1712.47284	38124.6
1715.71819	38066.9
1718.96139	37959.5
1722.20246	37806.2
1725.44139	37700.4
1728.67818	37525.2
1731.91284	37300.5
1735.14537	37117.4
1738.37576	37010.4
1741.60403	36884.3
1744.83017	36792.8
1748.05418	36715.7
1751.27607	36609.9
1754.49584	36527.9
1757.71349	36458.4
1760.92903	36490.9
1764.14244	36451.1
1767.35375	36424.4
1770.56294	36427.1
1773.77002	36341.9
1776.97499	36281.8
1780.17785	36301.4
1783.37861	36182.9
1786.57727	36075.2
1789.77382	35968.2
1792.96828	35942.2
1796.16064	35855.9
1799.3509	35768.5
1802.53907	35736.9
1805.72514	35642
1808.90913	35552.3
1812.09102	35538.1
1815.27083	35439.7
1818.44856	35455.5
1821.6242	35407
1824.79776	35373.3
1827.96924	35387.1
1831.13864	35392
1834.30597	35439.5
1837.47122	35413.4
1840.6344	35384.7
1843.7955	35429.8
1846.95454	35383.6
1850.11151	35426.6
1853.26642	35317
1856.41926	35363.5
1859.57004	35288.8
1862.71876	35238.2
1865.86542	35196.2
1869.01003	35184.6
1872.15258	35104.5
1875.29308	35082.1
1878.43152	34984.3
1881.56792	34905.3
1884.70227	34868.1
1887.83457	34787.9
1890.96482	34756.3
1894.09304	34707.7
1897.21921	34663.2
1900.34335	34606.1
1903.46544	34466.9
1906.58551	34474.6
1909.70353	34429.6
1912.81953	34337
1915.93349	34282.5
1919.04543	34188
1922.15534	34145.6
1925.26322	34047.4
1928.36908	33989.2
1931.47292	33888.1
1934.57473	33862.2
1937.67453	33772.1
1940.77232	33661.9
1943.86808	33605.7
1946.96184	33441.8
1950.05358	33396.1
1953.14331	33310.7
1956.23103	33224.2
1959.31675	33190
1962.40046	33043.6
1965.48217	32950.7
1968.56188	32841.8
1971.63959	32689.5
1974.7153	32596.1
1977.78901	32476.4
1980.86073	32408
1983.93046	32321
1986.99819	32255.8
1990.06394	32189
1993.1277	32129.1
1996.18947	31962.4
1999.24925	31906.5
2002.30706	31776.6
2005.36288	31652.6
2008.41672	31619.3
2011.46859	31509.8
2014.51848	31435.8
2017.56639	31403.3
2020.61233	31323.2
2023.6563	31227.8
2026.6983	31148.9
2029.73833	31097.7
2032.7764	30990.9
2035.8125	30920.9
2038.84664	30817.4
2041.87881	30772.7
2044.90903	30723
2047.93729	30681.2
2050.96359	30637.8
2053.98794	30627.6
2057.01034	30569
2060.03078	30546
2063.04927	30502.9
2066.06582	30503.4
2069.08042	30494.7
2072.09307	30411.5
2075.10378	30381
2078.11255	30363
2081.11938	30404
2084.12426	30356.5
2087.12722	30335.8
2090.12824	30377.3
2093.12732	30359.2
2096.12447	30373.7
2099.11969	30293.3
2102.11299	30339.2
2105.10435	30321.1
2108.09379	30385.6
2111.08131	30370
2114.0669	30387.6
2117.05057	30382.3
2120.03233	30404.2
2123.01216	30426.3
2125.99008	30463.6
2128.96609	30453.2
2131.94018	30439.1
2134.91236	30462
2137.88263	30514.2
2140.851	30474.9
2143.81746	30510
2146.78201	30495
2149.74466	30498.6
2152.7054	30516.4
2155.66425	30493.5
2158.6212	30494.1
2161.57625	30523.6
2164.52941	30485.7
2167.48067	30526.6
2170.43004	30529.3
2173.37752	30454.9
2176.32311	30428.3
2179.26681	30437.4
2182.20863	30422.4
2185.14856	30401.9
2188.08661	30413.1
2191.02278	30415.5
2193.95707	30368
2196.88948	30357.1
2199.82001	30288.6
2202.74867	30267.2
2205.67545	30242.7
2208.60037	30159.8
2211.52341	30101.8
2214.44458	30086.6
2217.36388	30085.7
2220.28132	30021.3
2223.1969	29968.7
2226.11061	29907.4
2229.02246	29848.3
2231.93245	29762.5
2234.84058	29731.4
2237.74686	29654.5
2240.65128	29619
2243.55385	29603.8
2246.45456	29547.8
2249.35343	29486.7
2252.25044	29455.8
2255.14561	29356
2258.03893	29339.5
2260.93041	29309.6
2263.82004	29221
2266.70783	29126.1
2269.59378	29071.4
2272.4779	28973.6
2275.36017	28932.4
2278.24061	28905.2
2281.11922	28823
2283.996	28763.9
2286.87094	28755.1
2289.74405	28662.8
2292.61534	28652.2
2295.4848	28575.1
2298.35243	28586.4
2301.21824	28502.7
2304.08223	28486.8
2306.94439	28444.6
2309.80474	28478.5
2312.66327	28441.1
2315.51999	28365.4
2318.37489	28366.2
2321.22797	28320.4
2324.07925	28281.9
2326.92871	28256.7
2329.77637	28170.1
2332.62222	28218
2335.46626	28143.7
2338.3085	28064.8
2341.14893	28058.2
2343.98756	28051.8
2346.8244	28039.7
2349.65943	28018.1
2352.49267	27988.9
2355.32411	27957.2
2358.15376	27938.2
2360.98161	27975
2363.80768	27950
2366.63195	27923.9
2369.45444	27870
2372.27514	27864.3
2375.09405	27818
2377.91118	27773.6
2380.72652	27781.3
2383.54009	27682.2
2386.35187	27682.4
2389.16188	27584
2391.97011	27536.4
2394.77657	27472
2397.58125	27457.8
2400.38416	27385.7
2403.18529	27353.1
2405.98466	27315.9
2408.78226	27252.4
2411.57809	27229.8
2414.37216	27195.2
2417.16446	27184.1
2419.955	27135.4
2422.74378	27155.8
2425.5308	27123.6
2428.31606	27090.7
2431.09956	27069.1
2433.88131	27022.8
2436.6613	27027.1
2439.43954	26985
2442.21603	26914
2444.99077	26925.1
2447.76377	26927.2
2450.53501	26897.7
2453.30451	26887.9
2456.07226	26856.5
2458.83827	26832
2461.60254	26813.4
2464.36507	26768
2467.12586	26778.6
2469.88492	26731.8
2472.64224	26705.1
2475.39782	26713.8
2478.15167	26705.8
2480.90379	26676.4
2483.65417	26688.6
2486.40283	26644.7
2489.14976	26622.9
2491.89497	26587.9
2494.63845	26661.1
2497.3802	26585.2
2500.12024	26629.6
2502.85855	26592.6
2505.59514	26608.6
2508.33002	26569.3
2511.06318	26581.3
2513.79462	26512.1
2516.52435	26476.9
2519.25237	26467.4
2521.97867	26427.9
2524.70327	26393.4
2527.42616	26399.5
2530.14734	26366.7
2532.86681	26299.3
2535.58458	26270
2538.30065	26217.6
2541.01501	26252.2
2543.72768	26174.4
2546.43864	26135.1
2549.14791	26126.5
2551.85548	26130.5
2554.56136	26033.6
2557.26554	25983.9
2559.96803	25984.5
2562.66883	25961.2
2565.36794	25960.5
2568.06536	25903.6
2570.7611	25889
2573.45514	25810.8
2576.14751	25822
2578.83819	25743.1
2581.52719	25714.7
2584.21451	25690.5
2586.90015	25647.9
2589.58411	25613
2592.2664	25563.8
2594.94701	25512
2597.62594	25498.6
2600.30321	25437.3
2602.9788	25441.1
2605.65273	25404.5
2608.32498	25371.5
2610.99557	25324.8
2613.66449	25335.3
2616.33175	25261.7
2618.99734	25274.4
2621.66128	25250
2624.32355	25294.2
2626.98416	25170.9
2629.64311	25169.5
2632.30041	25076.1
2634.95605	25109.1
2637.61004	25114.6
2640.26238	25073.5
2642.91306	25079.8
2645.56209	25043.1
2648.20948	25049.2
2650.85521	25042.3
2653.4993	25061
2656.14175	25024.7
2658.78255	25025.7
2661.42171	25002.9
2664.05923	25049.4
2666.6951	25043
2669.32934	25052.8
2671.96194	25034.2
2674.59291	25029.9
2677.22224	25014.9
2679.84993	25013.5
2682.476	24996.8
2685.10043	24997.7
2687.72324	25020.7
2690.34441	25005.8
2692.96396	25009.7
2695.58188	25009.9
2698.19818	25008.4
2700.81285	24981.3
2703.4259	25012
2706.03733	25062.3
2708.64714	25052.9
2711.25533	25074.3
2713.86191	25056.7
2716.46687	25092.7
2719.07021	25020.8
2721.67194	25047.2
2724.27206	25008.2
2726.87057	25007.4
2729.46747	25033.4
2732.06276	25072.2
2734.65644	25080.8
2737.24852	25098.9
2739.83899	25020.6
2742.42786	25043
2745.01513	24972.1
2747.60079	24931.4
2750.18486	24946.5
2752.76733	24929.8
2755.3482	24929.5
2757.92747	24942.1
2760.50515	24897.1
2763.08123	24833.9
2765.65573	24796.9
2768.22863	24753.7
2770.79994	24686.7
2773.36967	24691.2
2775.9378	24650.8
2778.50435	24609.2
2781.06932	24582.5
2783.6327	24613.9
2786.1945	24601
2788.75471	24516.4
2791.31335	24485.9
2793.87041	24472.4
2796.42589	24353.2
2798.97979	24356.1
2801.53212	24284.7
2804.08288	24265.7
2806.63206	24185.7
2809.17967	24171.1
2811.72571	24078.3
2814.27018	24117
2816.81308	24008.2
2819.35442	23991.3
2821.89419	23918
2824.43239	23902.6
2826.96904	23830.8
2829.50412	23833.9
2832.03763	23756.7
2834.56959	23760.8
2837.1	23727.7
2839.62884	23696.4
2842.15613	23663.2
2844.68186	23668.7
2847.20604	23614.8
2849.72867	23604.8
2852.24974	23546
2854.76927	23527.1
2857.28724	23538.9
2859.80367	23468.8
2862.31855	23411.8
2864.83189	23446.3
2867.34368	23380.6
2869.85393	23369.3
2872.36264	23343.2
2874.8698	23304.4
2877.37543	23325.5
2879.87952	23330
2882.38207	23259
2884.88308	23259.2
2887.38256	23248.2
2889.88051	23242.5
2892.37692	23258.6
2894.8718	23219.8
2897.36515	23222.5
2899.85698	23209.7
2902.34727	23275
2904.83604	23236.4
2907.32328	23304.5
2909.809	23286.7
2912.29319	23328.5
2914.77587	23303.7
2917.25702	23286.6
2919.73665	23290.4
2922.21476	23297.8
2924.69136	23305.2
2927.16644	23250.3
2929.64	23194.2
2932.11205	23158
2934.58258	23103.5
2937.05161	23131.7
2939.51912	23183.9
2941.98513	23167.6
2944.44962	23062.5
2946.91261	22965.9
2949.37409	23011.3
2951.83407	23010.4
2954.29254	22958.7
2956.74951	22924.1
2959.20498	22939.6
2961.65895	22887.7
2964.11142	22869.9
2966.56239	22812.8
2969.01186	22833.2
2971.45984	22760.7
2973.90632	22779.2
2976.35131	22746.9
2978.7948	22686.4
2981.23681	22648.2
2983.67732	22616
2986.11635	22560.4
2988.55388	22525.3
2990.98993	22462
2993.4245	22407.2
2995.85758	22332.8
2998.28917	22275.9
3000.71928	22254.4
3003.14791	22199
3005.57506	22165.5
3008.00073	22088.3
3010.42493	22114.8
3012.84764	22040.3
3015.26888	22043.1
3017.68865	21986.4
3020.10694	21972.3
3022.52376	21892.8
3024.9391	21870.7
3027.35298	21867.7
3029.76539	21818.5
3032.17632	21789.4
3034.5858	21746.1
3036.9938	21753.6
3039.40034	21713.4
3041.80542	21650.2
3044.20903	21591.7
3046.61118	21597.9
3049.01187	21525.1
3051.4111	21454
3053.80888	21428.3
3056.20519	21371.7
3058.60005	21327.7
3060.99345	21246.8
3063.3854	21261.5
3065.7759	21154.8
3068.16494	21127.4
3070.55254	21071.1
3072.93868	21055.2
3075.32338	20962.3
3077.70662	20923.9
3080.08842	20827.7
3082.46878	20869.7
3084.84769	20771.2
3087.22515	20755
3089.60118	20763.9
3091.97576	20741.7
3094.3489	20698.1
3096.72061	20706.4
3099.09087	20681
3101.4597	20650
3103.82709	20615
3106.19305	20556.8
3108.55757	20556.6
3110.92066	20466.9
3113.28232	20445
3115.64255	20401.5
3118.00134	20333.4
3120.35871	20342.8
3122.71466	20272.3
3125.06917	20238.8
3127.42226	20209.9
3129.77393	20213.8
3132.12417	20180.4
3134.47299	20139.8
3136.82039	20121.7
3139.16636	20108.4
3141.51092	20117.1
3143.85406	20121.8
3146.19579	20092.8
3148.53609	20116.9
3150.87499	20088.5
3153.21246	20096.5
3155.54853	20086
3157.88318	20018.2
3160.21642	20056.2
3162.54826	20049.8
3164.87868	19981.7
3167.2077	19962
3169.5353	19916.6
3171.86151	19906
3174.18631	19879.8
3176.5097	19827.1
3178.83169	19786.9
3181.15228	19811.4
3183.47147	19772.3
3185.78926	19785.6
3188.10565	19712.7
3190.42065	19702
3192.73424	19653.8
3195.04645	19660.8
3197.35725	19662.3
3199.66667	19640.3
3201.97469	19608.7
3204.28132	19611.4
3206.58656	19610.4
3208.8904	19593.7
3211.19287	19584.9
3213.49394	19561.6
3215.79363	19566
3218.09193	19568.6
3220.38884	19543.6
3222.68438	19598.1
3224.97853	19520.6
3227.2713	19505.8
3229.56269	19456.8
3231.8527	19434.1
3234.14133	19388.2
3236.42858	19357.9
3238.71446	19337.9
3240.99896	19249.1
3243.28209	19233.6
3245.56384	19193.4
3247.84423	19214.9
3250.12324	19186.7
3252.40088	19139.3
3254.67715	19115.8
3256.95205	19053.7
3259.22558	19043.9
3261.49775	18995
3263.76855	19011.1
3266.03799	18953.8
3268.30606	18895.2
3270.57277	18879.4
3272.83812	18837.6
3275.10211	18802.6
3277.36474	18797.2
3279.62601	18805.1
3281.88593	18731.7
3284.14448	18738.9
3286.40168	18718.8
3288.65753	18674.9
3290.91202	18650.5
3293.16516	18621.7
3295.41695	18541.3
3297.66738	18458.2
3299.91647	18355.1
3302.16421	18228.6
3304.4106	18163.4
3306.65564	18067.5
3308.89933	17919
3311.14169	17792.3
3313.38269	17621.4
3315.62236	17524.9
3317.86068	17375.3
3320.09766	17204.1
3322.3333	17044
3324.5676	17070.9
3326.80056	16757.6
3329.03219	16687.5
3331.26248	5.7
3333.49143	-0.1
3335.71905	-0.1
