Data from AgNP_FTO_APTES_CRN_1000uM_R6G_10uM_NaF_0.1M_Addition_RamanShift__4__20-54-58-268.txt Node

Date: Wed Dec 15 20:54:58 GMT 2021
User: TCL
Spectrometer: QEP01345
Trigger mode: 4
Integration Time (sec): 7.000000E0
Scans to average: 10
Electric dark correction enabled: true
Nonlinearity correction enabled: false
Boxcar width: 0
XAxis mode: Raman Shifts
Number of Pixels in Spectrum: 1044
>>>>>Begin Spectral Data<<<<<
46.04893	0.1375
50.45542	-1.9625
54.85868	-0.0625
59.25871	-0.9625
63.6555	69.1375
68.04907	72.0375
72.43941	75.7375
76.82654	78.9375
81.21044	84.5375
85.59113	82.5375
89.96862	90.1375
94.34289	89.2375
98.71396	92.6375
103.08183	100.4375
107.4465	102.2375
111.80798	104.1375
116.16626	108.1375
120.52136	113.1375
124.87327	112.4375
129.222	116.2375
133.56755	122.1375
137.90993	135.4375
142.24913	145.7375
146.58517	159.4375
150.91804	181.9375
155.24774	224.1375
159.57429	276.0375
163.89768	348.7375
168.21792	461.5375
172.53501	627.1375
176.84895	872.5375
181.15975	1223.3375
185.46741	1712.0375
189.77193	2361.7375
194.07331	3160.5375
198.37157	4066.8375
202.6667	5031.8375
206.9587	5974.3375
211.24758	6891.5375
215.53334	7822.7375
219.81599	8787.3375
224.09553	9846.1375
228.37195	11002.1375
232.64527	12301.4375
236.91549	13635.2375
241.18261	14982.4375
245.44663	16297.4375
249.70755	17537.8375
253.96539	18615.1375
258.22014	19492.8375
262.4718	20243.8375
266.72039	20745.5375
270.96589	20982.0375
275.20832	21027.4375
279.44768	20894.6375
283.68397	20703.7375
287.91719	20519.8375
292.14735	20419.0375
296.37445	20332.6375
300.59849	20372.9375
304.81948	20302.1375
309.03742	20244.0375
313.25231	20100.5375
317.46415	19830.8375
321.67296	19405.8375
325.87872	19118.8375
330.08145	18965.2375
334.28114	18991.6375
338.47781	19099.9375
342.67145	19269.6375
346.86207	19520.5375
351.04966	19813.0375
355.23424	20129.3375
359.4158	20380.9375
363.59435	20570.8375
367.76989	20735.9375
371.94243	20810.6375
376.11196	20910.4375
380.27849	21030.7375
384.44203	21155.7375
388.60257	21350.9375
392.76012	21526.9375
396.91468	21729.4375
401.06626	22021.6375
405.21485	22226.3375
409.36047	22234.7375
413.50311	22070.9375
417.64277	21983.5375
421.77947	22030.6375
425.9132	22145.7375
430.04396	22284.1375
434.17176	22391.3375
438.2966	22570.3375
442.41849	22859.0375
446.53742	23333.5375
450.6534	23791.7375
454.76644	24189.0375
458.87653	24305.3375
462.98368	24251.9375
467.08789	24115.2375
471.18916	23924.9375
475.2875	23806.0375
479.38291	23743.4375
483.4754	23630.3375
487.56496	23342.4375
491.6516	23059.6375
495.73531	22739.7375
499.81612	22642.8375
503.89401	22735.9375
507.96899	22817.5375
512.04106	22846.5375
516.11023	22787.4375
520.1765	22678.8375
524.23987	22545.1375
528.30034	22427.1375
532.35792	22234.6375
536.41261	22057.4375
540.46441	21918.7375
544.51333	21939.1375
548.55936	22149.3375
552.60252	22481.3375
556.64279	22950.9375
560.6802	23258.2375
564.71473	23457.4375
568.7464	23717.3375
572.7752	24242.0375
576.80114	24709.6375
580.82422	25198.1375
584.84444	25759.9375
588.86181	26393.2375
592.87633	26825.7375
596.888	26641.5375
600.89682	25976.1375
604.9028	25837.4375
608.90594	26774.4375
612.90624	27728.6375
616.90371	26407.2375
620.89834	23537.1375
624.89015	22304.4375
628.87913	22133.8375
632.86528	22211.1375
636.84862	22279.3375
640.82913	22114.7375
644.80683	21787.8375
648.78172	21586.3375
652.75379	21548.3375
656.72306	21659.6375
660.68952	21814.4375
664.65319	21702.3375
668.61405	21540.0375
672.57211	21552.7375
676.52738	21617.2375
680.47986	21670.8375
684.42955	21593.3375
688.37646	21538.1375
692.32058	21581.5375
696.26192	21719.8375
700.20048	21940.4375
704.13626	22047.3375
708.06928	22111.1375
711.99952	22068.2375
715.927	22052.3375
719.85171	22062.9375
723.77365	21953.4375
727.69284	21737.5375
731.60928	21544.2375
735.52295	21483.0375
739.43388	21430.0375
743.34206	21483.9375
747.24749	21557.1375
751.15017	21689.3375
755.05012	21928.9375
758.94733	22408.9375
762.8418	23171.1375
766.73354	24271.9375
770.62254	25247.7375
774.50882	25353.1375
778.39237	24497.3375
782.27321	23288.6375
786.15132	22298.8375
790.02671	21696.4375
793.89938	21372.8375
797.76935	21251.4375
801.6366	21254.5375
805.50115	21285.3375
809.36299	21165.5375
813.22213	21052.6375
817.07857	21010.6375
820.93231	20932.4375
824.78336	20850.1375
828.63172	20796.4375
832.47738	20772.1375
836.32036	20785.9375
840.16066	20843.5375
843.99827	20807.5375
847.8332	20766.8375
851.66546	20721.4375
855.49504	20769.4375
859.32195	20717.1375
863.1462	20712.5375
866.96777	20689.6375
870.78668	20636.9375
874.60293	20675.7375
878.41652	20677.7375
882.22745	20729.2375
886.03573	20765.7375
889.84136	20769.8375
893.64433	20752.4375
897.44466	20690.9375
901.24235	20631.7375
905.0374	20568.3375
908.8298	20538.0375
912.61957	20565.6375
916.40671	20712.3375
920.19121	20872.5375
923.97308	20990.6375
927.75233	20967.9375
931.52895	20825.5375
935.30295	20602.7375
939.07433	20312.0375
942.84309	20131.4375
946.60924	20028.3375
950.37278	19971.0375
954.13371	19973.7375
957.89203	19920.9375
961.64774	19938.7375
965.40086	19877.1375
969.15137	19808.4375
972.89929	19738.7375
976.64461	19644.8375
980.38733	19628.7375
984.12747	19682.0375
987.86502	19726.4375
991.59999	19820.7375
995.33237	19978.0375
999.06217	20254.3375
1002.78939	20534.8375
1006.51404	20796.8375
1010.23611	21084.7375
1013.95561	21267.3375
1017.67255	21276.9375
1021.38692	21142.9375
1025.09872	20888.0375
1028.80796	20760.8375
1032.51465	20822.3375
1036.21877	20944.8375
1039.92035	21073.4375
1043.61937	21057.2375
1047.31584	21037.2375
1051.00976	21011.7375
1054.70114	20991.5375
1058.38998	21164.7375
1062.07627	21435.1375
1065.76003	21824.6375
1069.44126	22188.4375
1073.11995	22685.0375
1076.79611	22965.7375
1080.46974	22841.3375
1084.14085	22558.3375
1087.80943	22378.6375
1091.47549	22340.2375
1095.13903	22209.1375
1098.80005	21982.2375
1102.45857	21596.8375
1106.11456	21336.6375
1109.76805	21156.7375
1113.41903	21172.1375
1117.06751	21277.0375
1120.71348	21404.2375
1124.35696	21599.6375
1127.99793	21853.5375
1131.63641	22000.5375
1135.2724	21918.2375
1138.90589	21850.9375
1142.5369	21856.3375
1146.16542	21893.7375
1149.79145	22004.0375
1153.415	22228.5375
1157.03607	22486.5375
1160.65467	22968.5375
1164.27079	23802.8375
1167.88443	24783.1375
1171.49561	25957.3375
1175.10432	27321.5375
1178.71056	28973.0375
1182.31434	30581.7375
1185.91565	31238.3375
1189.51451	31142.9375
1193.11091	30452.3375
1196.70485	29592.5375
1200.29634	28692.6375
1203.88538	28047.2375
1207.47197	27738.3375
1211.05612	27377.0375
1214.63782	26950.3375
1218.21708	26415.8375
1221.79391	25876.1375
1225.36829	25421.9375
1228.94024	25154.4375
1232.50976	24826.8375
1236.07685	24531.3375
1239.6415	24402.6375
1243.20374	24359.4375
1246.76355	24514.6375
1250.32093	24799.3375
1253.8759	25173.3375
1257.42845	25722.3375
1260.97859	26217.5375
1264.52631	26783.7375
1268.07163	27319.8375
1271.61453	27927.2375
1275.15503	28555.6375
1278.69312	29241.5375
1282.22882	29865.0375
1285.76211	30681.1375
1289.29301	31651.4375
1292.82151	32933.5375
1296.34761	34493.3375
1299.87133	36281.1375
1303.39266	38113.2375
1306.9116	39654.7375
1310.42815	40911.1375
1313.94233	41565.2375
1317.45412	41440.7375
1320.96354	40863.9375
1324.47058	40264.3375
1327.97525	39848.3375
1331.47754	39542.3375
1334.97747	39375.9375
1338.47502	39134.1375
1341.97022	38836.3375
1345.46305	38390.7375
1348.95352	37943.8375
1352.44163	37876.2375
1355.92738	38326.7375
1359.41078	39349.9375
1362.89183	40164.0375
1366.37053	39527.2375
1369.84688	37058.3375
1373.32088	33910.3375
1376.79254	31685.2375
1380.26186	30871.7375
1383.72883	30845.1375
1387.19347	30925.6375
1390.65578	30819.2375
1394.11575	30845.4375
1397.57339	31183.7375
1401.0287	31628.2375
1404.48168	31958.3375
1407.93234	31817.0375
1411.38068	31205.8375
1414.82669	30180.2375
1418.27039	29032.5375
1421.71177	27897.8375
1425.15083	27009.5375
1428.58758	26550.9375
1432.02203	26689.4375
1435.45416	27267.8375
1438.88399	27969.8375
1442.31151	28475.6375
1445.73673	28901.8375
1449.15965	29162.7375
1452.58027	29370.3375
1455.9986	29381.3375
1459.41463	29564.6375
1462.82837	29936.7375
1466.23982	30416.4375
1469.64898	30769.5375
1473.05586	30934.5375
1476.46045	30937.0375
1479.86276	30717.8375
1483.26279	30420.6375
1486.66054	30186.5375
1490.05602	30265.8375
1493.44922	30438.4375
1496.84016	30650.2375
1500.22882	31063.3375
1503.61521	31726.4375
1506.99934	32414.6375
1510.38121	32994.9375
1513.76081	33036.8375
1517.13816	32497.1375
1520.51324	31724.9375
1523.88607	31199.5375
1527.25665	30982.1375
1530.62498	31067.7375
1533.99105	31070.7375
1537.35488	30883.3375
1540.71647	30440.7375
1544.07581	29819.6375
1547.4329	29145.2375
1550.78776	28541.0375
1554.14038	28076.7375
1557.49077	27816.0375
1560.83892	27693.0375
1564.18484	27666.3375
1567.52853	27880.3375
1570.86999	28338.1375
1574.20922	29086.7375
1577.54624	29942.9375
1580.88103	30413.6375
1584.2136	30714.6375
1587.54395	31056.5375
1590.87208	31757.0375
1594.19801	32907.8375
1597.52172	34021.0375
1600.84321	34321.8375
1604.16251	33138.1375
1607.47959	30967.4375
1610.79447	28686.1375
1614.10715	26595.3375
1617.41763	24863.5375
1620.7259	23724.5375
1624.03199	23095.0375
1627.33587	23018.9375
1630.63757	23536.5375
1633.93707	24722.2375
1637.23439	26832.6375
1640.52951	29712.6375
1643.82246	32979.6375
1647.11321	35512.4375
1650.40179	35836.8375
1653.68819	33507.7375
1656.97241	29766.6375
1660.25446	26132.3375
1663.53433	23438.6375
1666.81203	21624.3375
1670.08756	20462.8375
1673.36092	19744.5375
1676.63211	19285.3375
1679.90115	18932.4375
1683.16801	18635.5375
1686.43272	18440.9375
1689.69527	18289.3375
1692.95567	18196.2375
1696.2139	18152.8375
1699.46999	18080.2375
1702.72392	18049.9375
1705.97571	17985.8375
1709.22535	17926.9375
1712.47284	17882.5375
1715.71819	17849.1375
1718.96139	17820.7375
1722.20246	17750.8375
1725.44139	17696.8375
1728.67818	17595.2375
1731.91284	17514.4375
1735.14537	17449.1375
1738.37576	17426.1375
1741.60403	17360.3375
1744.83017	17325.7375
1748.05418	17279.2375
1751.27607	17229.6375
1754.49584	17243.7375
1757.71349	17216.6375
1760.92903	17225.7375
1764.14244	17209.4375
1767.35375	17187.9375
1770.56294	17157.1375
1773.77002	17085.7375
1776.97499	17067.8375
1780.17785	17047.4375
1783.37861	17016.4375
1786.57727	16964.7375
1789.77382	16905.8375
1792.96828	16907.2375
1796.16064	16870.2375
1799.3509	16812.5375
1802.53907	16768.4375
1805.72514	16718.4375
1808.90913	16681.1375
1812.09102	16616.3375
1815.27083	16606.2375
1818.44856	16592.5375
1821.6242	16580.5375
1824.79776	16555.6375
1827.96924	16539.5375
1831.13864	16504.1375
1834.30597	16542.6375
1837.47122	16489.4375
1840.6344	16487.3375
1843.7955	16503.2375
1846.95454	16475.4375
1850.11151	16460.6375
1853.26642	16444.8375
1856.41926	16418.0375
1859.57004	16405.7375
1862.71876	16420.3375
1865.86542	16383.0375
1869.01003	16392.2375
1872.15258	16388.0375
1875.29308	16367.1375
1878.43152	16312.8375
1881.56792	16348.2375
1884.70227	16315.0375
1887.83457	16317.0375
1890.96482	16252.2375
1894.09304	16248.9375
1897.21921	16251.4375
1900.34335	16226.1375
1903.46544	16190.7375
1906.58551	16167.8375
1909.70353	16147.0375
1912.81953	16109.5375
1915.93349	16087.8375
1919.04543	16055.5375
1922.15534	16014.5375
1925.26322	16009.0375
1928.36908	15982.1375
1931.47292	15972.1375
1934.57473	15915.8375
1937.67453	15871.0375
1940.77232	15824.2375
1943.86808	15796.1375
1946.96184	15776.2375
1950.05358	15702.7375
1953.14331	15671.7375
1956.23103	15643.5375
1959.31675	15593.3375
1962.40046	15538.2375
1965.48217	15497.1375
1968.56188	15448.8375
1971.63959	15397.8375
1974.7153	15350.4375
1977.78901	15319.7375
1980.86073	15267.0375
1983.93046	15195.9375
1986.99819	15197.8375
1990.06394	15152.5375
1993.1277	15084.9375
1996.18947	15014.1375
1999.24925	15010.6375
2002.30706	15002.4375
2005.36288	14881.6375
2008.41672	14845.1375
2011.46859	14821.2375
2014.51848	14795.9375
2017.56639	14774.2375
2020.61233	14737.2375
2023.6563	14712.3375
2026.6983	14701.7375
2029.73833	14653.4375
2032.7764	14632.7375
2035.8125	14595.9375
2038.84664	14559.8375
2041.87881	14520.3375
2044.90903	14481.4375
2047.93729	14458.4375
2050.96359	14458.1375
2053.98794	14431.2375
2057.01034	14438.0375
2060.03078	14434.3375
2063.04927	14376.5375
2066.06582	14382.2375
2069.08042	14391.1375
2072.09307	14381.8375
2075.10378	14354.3375
2078.11255	14340.1375
2081.11938	14350.6375
2084.12426	14343.9375
2087.12722	14301.9375
2090.12824	14316.4375
2093.12732	14351.0375
2096.12447	14317.5375
2099.11969	14302.1375
2102.11299	14319.1375
2105.10435	14327.5375
2108.09379	14333.1375
2111.08131	14349.3375
2114.0669	14333.8375
2117.05057	14339.2375
2120.03233	14356.0375
2123.01216	14377.3375
2125.99008	14372.4375
2128.96609	14364.5375
2131.94018	14368.8375
2134.91236	14385.7375
2137.88263	14389.9375
2140.851	14397.6375
2143.81746	14420.6375
2146.78201	14409.8375
2149.74466	14430.1375
2152.7054	14433.2375
2155.66425	14436.1375
2158.6212	14449.8375
2161.57625	14425.7375
2164.52941	14418.4375
2167.48067	14403.9375
2170.43004	14405.3375
2173.37752	14384.2375
2176.32311	14387.8375
2179.26681	14403.6375
2182.20863	14377.6375
2185.14856	14365.9375
2188.08661	14363.9375
2191.02278	14366.0375
2193.95707	14342.4375
2196.88948	14348.2375
2199.82001	14319.2375
2202.74867	14310.0375
2205.67545	14279.4375
2208.60037	14280.5375
2211.52341	14292.9375
2214.44458	14275.1375
2217.36388	14227.2375
2220.28132	14193.1375
2223.1969	14164.5375
2226.11061	14157.4375
2229.02246	14141.6375
2231.93245	14103.0375
2234.84058	14081.2375
2237.74686	14073.4375
2240.65128	14047.9375
2243.55385	14004.1375
2246.45456	13993.5375
2249.35343	13962.4375
2252.25044	13941.0375
2255.14561	13912.0375
2258.03893	13903.0375
2260.93041	13880.9375
2263.82004	13817.1375
2266.70783	13815.7375
2269.59378	13784.3375
2272.4779	13772.7375
2275.36017	13662.5375
2278.24061	13665.2375
2281.11922	13630.3375
2283.996	13613.1375
2286.87094	13616.0375
2289.74405	13563.5375
2292.61534	13562.7375
2295.4848	13548.8375
2298.35243	13546.2375
2301.21824	13533.4375
2304.08223	13519.8375
2306.94439	13526.1375
2309.80474	13493.9375
2312.66327	13513.8375
2315.51999	13491.8375
2318.37489	13510.8375
2321.22797	13469.4375
2324.07925	13466.5375
2326.92871	13463.1375
2329.77637	13439.5375
2332.62222	13437.9375
2335.46626	13391.3375
2338.3085	13386.0375
2341.14893	13369.4375
2343.98756	13365.6375
2346.8244	13334.3375
2349.65943	13357.1375
2352.49267	13316.0375
2355.32411	13350.2375
2358.15376	13296.5375
2360.98161	13313.8375
2363.80768	13290.5375
2366.63195	13244.0375
2369.45444	13274.4375
2372.27514	13255.7375
2375.09405	13241.5375
2377.91118	13237.1375
2380.72652	13187.5375
2383.54009	13162.0375
2386.35187	13150.8375
2389.16188	13108.4375
2391.97011	13100.0375
2394.77657	13084.4375
2397.58125	13020.2375
2400.38416	13030.7375
2403.18529	13019.0375
2405.98466	12981.4375
2408.78226	12992.6375
2411.57809	12970.4375
2414.37216	12941.0375
2417.16446	12914.5375
2419.955	12864.7375
2422.74378	12881.1375
2425.5308	12855.3375
2428.31606	12855.0375
2431.09956	12847.9375
2433.88131	12855.1375
2436.6613	12837.2375
2439.43954	12808.9375
2442.21603	12835.2375
2444.99077	12791.3375
2447.76377	12812.6375
2450.53501	12764.1375
2453.30451	12754.3375
2456.07226	12736.2375
2458.83827	12769.4375
2461.60254	12749.6375
2464.36507	12737.1375
2467.12586	12737.4375
2469.88492	12709.3375
2472.64224	12688.9375
2475.39782	12696.0375
2478.15167	12696.3375
2480.90379	12701.9375
2483.65417	12686.6375
2486.40283	12697.7375
2489.14976	12704.8375
2491.89497	12688.3375
2494.63845	12713.6375
2497.3802	12667.6375
2500.12024	12656.4375
2502.85855	12660.7375
2505.59514	12653.1375
2508.33002	12626.0375
2511.06318	12639.8375
2513.79462	12611.6375
2516.52435	12604.4375
2519.25237	12582.5375
2521.97867	12580.8375
2524.70327	12563.7375
2527.42616	12549.2375
2530.14734	12522.8375
2532.86681	12507.1375
2535.58458	12512.8375
2538.30065	12505.4375
2541.01501	12501.0375
2543.72768	12484.9375
2546.43864	12448.8375
2549.14791	12430.3375
2551.85548	12425.5375
2554.56136	12402.0375
2557.26554	12391.2375
2559.96803	12362.0375
2562.66883	12357.9375
2565.36794	12345.0375
2568.06536	12347.6375
2570.7611	12337.9375
2573.45514	12318.3375
2576.14751	12317.3375
2578.83819	12302.4375
2581.52719	12255.9375
2584.21451	12239.2375
2586.90015	12258.5375
2589.58411	12205.5375
2592.2664	12177.3375
2594.94701	12167.3375
2597.62594	12156.8375
2600.30321	12136.9375
2602.9788	12124.5375
2605.65273	12103.7375
2608.32498	12103.1375
2610.99557	12091.1375
2613.66449	12091.5375
2616.33175	12060.2375
2618.99734	12082.3375
2621.66128	12070.0375
2624.32355	12042.2375
2626.98416	12043.6375
2629.64311	12048.7375
2632.30041	12053.2375
2634.95605	12034.3375
2637.61004	11999.1375
2640.26238	11971.6375
2642.91306	11985.1375
2645.56209	11964.8375
2648.20948	11964.8375
2650.85521	11969.2375
2653.4993	11985.4375
2656.14175	11980.3375
2658.78255	11987.4375
2661.42171	11965.2375
2664.05923	11982.1375
2666.6951	11969.9375
2669.32934	11974.7375
2671.96194	11966.4375
2674.59291	11976.2375
2677.22224	11989.2375
2679.84993	11987.2375
2682.476	11955.2375
2685.10043	11977.3375
2687.72324	11943.1375
2690.34441	11927.0375
2692.96396	11947.0375
2695.58188	11941.9375
2698.19818	11948.9375
2700.81285	11928.9375
2703.4259	11963.6375
2706.03733	12016.9375
2708.64714	11993.6375
2711.25533	12004.6375
2713.86191	11958.4375
2716.46687	11990.3375
2719.07021	11977.8375
2721.67194	11971.6375
2724.27206	11961.1375
2726.87057	11959.7375
2729.46747	11971.1375
2732.06276	11975.2375
2734.65644	11959.4375
2737.24852	11965.0375
2739.83899	11931.6375
2742.42786	11945.4375
2745.01513	11910.3375
2747.60079	11939.6375
2750.18486	11922.5375
2752.76733	11904.2375
2755.3482	11923.3375
2757.92747	11899.5375
2760.50515	11888.9375
2763.08123	11853.3375
2765.65573	11853.4375
2768.22863	11849.2375
2770.79994	11863.9375
2773.36967	11842.7375
2775.9378	11825.8375
2778.50435	11810.8375
2781.06932	11790.2375
2783.6327	11825.5375
2786.1945	11799.7375
2788.75471	11741.6375
2791.31335	11740.8375
2793.87041	11751.0375
2796.42589	11701.3375
2798.97979	11698.8375
2801.53212	11646.7375
2804.08288	11642.2375
2806.63206	11627.0375
2809.17967	11575.0375
2811.72571	11563.3375
2814.27018	11554.6375
2816.81308	11527.1375
2819.35442	11540.2375
2821.89419	11502.8375
2824.43239	11510.4375
2826.96904	11469.7375
2829.50412	11471.7375
2832.03763	11455.6375
2834.56959	11465.0375
2837.1	11444.7375
2839.62884	11442.3375
2842.15613	11465.8375
2844.68186	11491.7375
2847.20604	11502.0375
2849.72867	11485.7375
2852.24974	11485.8375
2854.76927	11469.1375
2857.28724	11460.3375
2859.80367	11431.4375
2862.31855	11388.0375
2864.83189	11413.5375
2867.34368	11405.4375
2869.85393	11388.8375
2872.36264	11357.2375
2874.8698	11367.5375
2877.37543	11384.3375
2879.87952	11371.3375
2882.38207	11364.3375
2884.88308	11368.4375
2887.38256	11387.6375
2889.88051	11372.9375
2892.37692	11357.4375
2894.8718	11334.1375
2897.36515	11361.3375
2899.85698	11373.1375
2902.34727	11401.3375
2904.83604	11409.3375
2907.32328	11441.7375
2909.809	11405.8375
2912.29319	11409.3375
2914.77587	11399.7375
2917.25702	11399.1375
2919.73665	11396.4375
2922.21476	11426.0375
2924.69136	11419.7375
2927.16644	11407.1375
2929.64	11379.5375
2932.11205	11393.6375
2934.58258	11347.3375
2937.05161	11390.0375
2939.51912	11404.2375
2941.98513	11391.6375
2944.44962	11347.2375
2946.91261	11273.8375
2949.37409	11270.1375
2951.83407	11276.5375
2954.29254	11255.0375
2956.74951	11229.3375
2959.20498	11224.7375
2961.65895	11224.5375
2964.11142	11235.4375
2966.56239	11191.8375
2969.01186	11181.4375
2971.45984	11147.4375
2973.90632	11130.7375
2976.35131	11114.5375
2978.7948	11061.4375
2981.23681	11046.6375
2983.67732	11040.9375
2986.11635	11019.1375
2988.55388	10994.5375
2990.98993	10966.0375
2993.4245	10944.1375
2995.85758	10949.6375
2998.28917	10894.8375
3000.71928	10908.1375
3003.14791	10869.3375
3005.57506	10867.6375
3008.00073	10832.8375
3010.42493	10829.8375
3012.84764	10819.9375
3015.26888	10767.2375
3017.68865	10754.9375
3020.10694	10757.6375
3022.52376	10731.3375
3024.9391	10724.8375
3027.35298	10714.6375
3029.76539	10724.5375
3032.17632	10709.2375
3034.5858	10704.6375
3036.9938	10674.6375
3039.40034	10673.7375
3041.80542	10642.8375
3044.20903	10636.5375
3046.61118	10633.8375
3049.01187	10630.6375
3051.4111	10599.8375
3053.80888	10554.1375
3056.20519	10574.6375
3058.60005	10528.4375
3060.99345	10505.3375
3063.3854	10515.8375
3065.7759	10479.2375
3068.16494	10483.5375
3070.55254	10471.3375
3072.93868	10441.5375
3075.32338	10399.8375
3077.70662	10371.0375
3080.08842	10334.3375
3082.46878	10324.0375
3084.84769	10313.3375
3087.22515	10339.7375
3089.60118	10354.2375
3091.97576	10347.3375
3094.3489	10357.9375
3096.72061	10351.3375
3099.09087	10348.4375
3101.4597	10334.2375
3103.82709	10323.7375
3106.19305	10309.8375
3108.55757	10315.7375
3110.92066	10285.3375
3113.28232	10265.6375
3115.64255	10227.7375
3118.00134	10229.1375
3120.35871	10212.7375
3122.71466	10207.7375
3125.06917	10197.7375
3127.42226	10202.4375
3129.77393	10170.0375
3132.12417	10174.9375
3134.47299	10175.9375
3136.82039	10176.0375
3139.16636	10183.7375
3141.51092	10179.2375
3143.85406	10202.0375
3146.19579	10176.5375
3148.53609	10184.5375
3150.87499	10194.9375
3153.21246	10206.6375
3155.54853	10224.7375
3157.88318	10211.6375
3160.21642	10206.6375
3162.54826	10183.0375
3164.87868	10186.8375
3167.2077	10220.6375
3169.5353	10207.9375
3171.86151	10200.5375
3174.18631	10209.5375
3176.5097	10190.0375
3178.83169	10179.7375
3181.15228	10189.7375
3183.47147	10185.1375
3185.78926	10167.6375
3188.10565	10174.9375
3190.42065	10155.1375
3192.73424	10160.2375
3195.04645	10145.9375
3197.35725	10171.7375
3199.66667	10168.1375
3201.97469	10158.7375
3204.28132	10164.7375
3206.58656	10158.4375
3208.8904	10137.5375
3211.19287	10153.2375
3213.49394	10145.0375
3215.79363	10154.8375
3218.09193	10140.0375
3220.38884	10157.9375
3222.68438	10169.8375
3224.97853	10157.6375
3227.2713	10150.7375
3229.56269	10126.6375
3231.8527	10132.2375
3234.14133	10086.3375
3236.42858	10078.9375
3238.71446	10061.8375
3240.99896	10069.9375
3243.28209	10070.1375
3245.56384	10061.9375
3247.84423	10082.8375
3250.12324	10047.7375
3252.40088	10046.4375
3254.67715	10016.1375
3256.95205	10012.3375
3259.22558	10025.4375
3261.49775	10028.4375
3263.76855	9995.8375
3266.03799	9963.4375
3268.30606	9930.2375
3270.57277	9922.6375
3272.83812	9899.1375
3275.10211	9882.9375
3277.36474	9882.3375
3279.62601	9887.1375
3281.88593	9858.5375
3284.14448	9888.9375
3286.40168	9885.2375
3288.65753	9861.9375
3290.91202	9847.4375
3293.16516	9818.9375
3295.41695	9787.8375
3297.66738	9742.8375
3299.91647	9692.7375
3302.16421	9635.6375
3304.4106	9604.4375
3306.65564	9559.5375
3308.89933	9462.1375
3311.14169	9449.4375
3313.38269	9368.8375
3315.62236	9311.2375
3317.86068	9215.8375
3320.09766	9133.1375
3322.3333	9059.4375
3324.5676	9038.8375
3326.80056	8901.4375
3329.03219	8880.8375
3331.26248	4.4375
3333.49143	-0.7625
3335.71905	-0.9625
