Data from AgNP_FTO_APTES_CRN_1000uM_R6G_10uM_NaF_0.1M_Addition_RamanShift__19__21-12-28-288.txt Node

Date: Wed Dec 15 21:12:28 GMT 2021
User: TCL
Spectrometer: QEP01345
Trigger mode: 4
Integration Time (sec): 7.000000E0
Scans to average: 10
Electric dark correction enabled: true
Nonlinearity correction enabled: false
Boxcar width: 0
XAxis mode: Raman Shifts
Number of Pixels in Spectrum: 1044
>>>>>Begin Spectral Data<<<<<
46.04893	0.9375
50.45542	-1.4625
54.85868	-1.7625
59.25871	-0.3625
63.6555	54.9375
68.04907	53.6375
72.43941	56.5375
76.82654	62.7375
81.21044	66.7375
85.59113	66.4375
89.96862	71.6375
94.34289	69.4375
98.71396	75.8375
103.08183	79.2375
107.4465	81.2375
111.80798	83.8375
116.16626	85.8375
120.52136	89.2375
124.87327	91.2375
129.222	93.9375
133.56755	97.4375
137.90993	108.1375
142.24913	117.6375
146.58517	128.9375
150.91804	151.0375
155.24774	179.6375
159.57429	225.1375
163.89768	279.8375
168.21792	368.3375
172.53501	508.9375
176.84895	699.9375
181.15975	975.4375
185.46741	1366.3375
189.77193	1890.0375
194.07331	2538.0375
198.37157	3267.9375
202.6667	4053.8375
206.9587	4820.0375
211.24758	5580.9375
215.53334	6346.4375
219.81599	7152.8375
224.09553	8006.9375
228.37195	8971.7375
232.64527	9967.8375
236.91549	11016.1375
241.18261	12097.4375
245.44663	13075.4375
249.70755	14007.2375
253.96539	14754.4375
258.22014	15374.1375
262.4718	15922.1375
266.72039	16235.3375
270.96589	16416.1375
275.20832	16395.8375
279.44768	16297.3375
283.68397	16097.7375
287.91719	15911.5375
292.14735	15821.4375
296.37445	15714.7375
300.59849	15691.2375
304.81948	15667.3375
309.03742	15585.0375
313.25231	15473.5375
317.46415	15240.0375
321.67296	15034.2375
325.87872	14881.7375
330.08145	14820.2375
334.28114	14869.0375
338.47781	15020.8375
342.67145	15165.8375
346.86207	15368.4375
351.04966	15577.3375
355.23424	15781.3375
359.4158	16003.8375
363.59435	16153.5375
367.76989	16257.6375
371.94243	16324.0375
376.11196	16387.1375
380.27849	16523.3375
384.44203	16655.9375
388.60257	16830.8375
392.76012	16908.3375
396.91468	17080.0375
401.06626	17204.7375
405.21485	17369.0375
409.36047	17422.4375
413.50311	17308.3375
417.64277	17205.9375
421.77947	17221.8375
425.9132	17278.9375
430.04396	17474.1375
434.17176	17628.4375
438.2966	17898.6375
442.41849	18346.2375
446.53742	18875.9375
450.6534	19430.4375
454.76644	19805.3375
458.87653	19911.3375
462.98368	19713.7375
467.08789	19453.3375
471.18916	19296.7375
475.2875	19149.0375
479.38291	19114.4375
483.4754	18949.6375
487.56496	18699.1375
491.6516	18456.7375
495.73531	18174.2375
499.81612	18062.2375
503.89401	18131.9375
507.96899	18208.9375
512.04106	18322.7375
516.11023	18365.8375
520.1765	18416.7375
524.23987	18441.1375
528.30034	18414.6375
532.35792	18331.6375
536.41261	18149.9375
540.46441	17988.2375
544.51333	17948.7375
548.55936	18071.3375
552.60252	18366.4375
556.64279	18709.4375
560.6802	19040.4375
564.71473	19223.1375
568.7464	19420.9375
572.7752	19697.9375
576.80114	19863.1375
580.82422	19961.2375
584.84444	20169.4375
588.86181	20707.4375
592.87633	21421.3375
596.888	21760.6375
600.89682	21395.0375
604.9028	21204.7375
608.90594	21863.5375
612.90624	22606.6375
616.90371	21598.9375
620.89834	19311.2375
624.89015	18225.7375
628.87913	18082.4375
632.86528	18209.7375
636.84862	18279.5375
640.82913	18150.6375
644.80683	17918.4375
648.78172	17722.6375
652.75379	17704.0375
656.72306	17810.5375
660.68952	17948.2375
664.65319	17905.8375
668.61405	17800.1375
672.57211	17846.9375
676.52738	17962.8375
680.47986	18089.8375
684.42955	18075.0375
688.37646	17951.6375
692.32058	17905.4375
696.26192	17953.0375
700.20048	18072.7375
704.13626	18137.1375
708.06928	18053.9375
711.99952	17991.7375
715.927	17910.1375
719.85171	17834.4375
723.77365	17742.8375
727.69284	17591.8375
731.60928	17411.4375
735.52295	17327.2375
739.43388	17314.9375
743.34206	17311.4375
747.24749	17259.0375
751.15017	17301.5375
755.05012	17441.4375
758.94733	17713.4375
762.8418	18245.1375
766.73354	19053.3375
770.62254	19867.9375
774.50882	20015.6375
778.39237	19367.5375
782.27321	18362.7375
786.15132	17526.3375
790.02671	17016.7375
793.89938	16763.2375
797.76935	16650.8375
801.6366	16628.9375
805.50115	16595.9375
809.36299	16541.8375
813.22213	16537.0375
817.07857	16459.5375
820.93231	16441.3375
824.78336	16374.5375
828.63172	16383.1375
832.47738	16293.2375
836.32036	16331.0375
840.16066	16341.4375
843.99827	16302.4375
847.8332	16271.5375
851.66546	16254.6375
855.49504	16255.3375
859.32195	16352.7375
863.1462	16337.2375
866.96777	16344.6375
870.78668	16289.0375
874.60293	16266.5375
878.41652	16241.6375
882.22745	16241.9375
886.03573	16233.8375
889.84136	16258.1375
893.64433	16212.5375
897.44466	16153.5375
901.24235	16090.0375
905.0374	16043.4375
908.8298	16038.4375
912.61957	16041.9375
916.40671	16132.2375
920.19121	16280.7375
923.97308	16387.7375
927.75233	16408.8375
931.52895	16413.8375
935.30295	16292.2375
939.07433	16081.6375
942.84309	15876.3375
946.60924	15763.8375
950.37278	15678.1375
954.13371	15635.7375
957.89203	15608.7375
961.64774	15589.1375
965.40086	15567.7375
969.15137	15527.1375
972.89929	15430.1375
976.64461	15401.3375
980.38733	15365.4375
984.12747	15403.6375
987.86502	15460.8375
991.59999	15571.5375
995.33237	15691.6375
999.06217	15973.4375
1002.78939	16202.2375
1006.51404	16431.1375
1010.23611	16613.1375
1013.95561	16731.4375
1017.67255	16729.3375
1021.38692	16577.8375
1025.09872	16380.5375
1028.80796	16230.2375
1032.51465	16294.9375
1036.21877	16369.6375
1039.92035	16473.1375
1043.61937	16510.1375
1047.31584	16498.3375
1051.00976	16525.0375
1054.70114	16584.4375
1058.38998	16700.6375
1062.07627	16964.0375
1065.76003	17402.7375
1069.44126	17936.8375
1073.11995	18604.0375
1076.79611	19157.6375
1080.46974	19096.5375
1084.14085	18625.1375
1087.80943	18016.2375
1091.47549	17616.2375
1095.13903	17282.1375
1098.80005	17017.5375
1102.45857	16723.8375
1106.11456	16528.4375
1109.76805	16472.3375
1113.41903	16488.8375
1117.06751	16573.0375
1120.71348	16736.2375
1124.35696	16873.2375
1127.99793	17092.3375
1131.63641	17207.3375
1135.2724	17158.8375
1138.90589	17087.8375
1142.5369	17027.9375
1146.16542	17060.3375
1149.79145	17117.3375
1153.415	17279.1375
1157.03607	17472.0375
1160.65467	17801.9375
1164.27079	18405.0375
1167.88443	19197.9375
1171.49561	20257.1375
1175.10432	21571.9375
1178.71056	23047.1375
1182.31434	24177.1375
1185.91565	24472.7375
1189.51451	24016.3375
1193.11091	23333.2375
1196.70485	22583.9375
1200.29634	21883.9375
1203.88538	21368.5375
1207.47197	21005.8375
1211.05612	20714.9375
1214.63782	20422.3375
1218.21708	20269.3375
1221.79391	20188.3375
1225.36829	20080.6375
1228.94024	19874.8375
1232.50976	19602.2375
1236.07685	19315.1375
1239.6415	19237.3375
1243.20374	19235.3375
1246.76355	19330.5375
1250.32093	19549.7375
1253.8759	19809.9375
1257.42845	20152.9375
1260.97859	20474.5375
1264.52631	20846.2375
1268.07163	21165.3375
1271.61453	21558.8375
1275.15503	21926.9375
1278.69312	22356.8375
1282.22882	22798.0375
1285.76211	23339.9375
1289.29301	24097.7375
1292.82151	25038.9375
1296.34761	26192.0375
1299.87133	27423.1375
1303.39266	28700.9375
1306.9116	30075.4375
1310.42815	31378.4375
1313.94233	32434.3375
1317.45412	32790.0375
1320.96354	32503.9375
1324.47058	31945.7375
1327.97525	31280.8375
1331.47754	30830.6375
1334.97747	30594.5375
1338.47502	30457.9375
1341.97022	30193.5375
1345.46305	29658.6375
1348.95352	29258.4375
1352.44163	29275.6375
1355.92738	29768.7375
1359.41078	30792.9375
1362.89183	31758.7375
1366.37053	31489.9375
1369.84688	29598.1375
1373.32088	27095.2375
1376.79254	25287.7375
1380.26186	24601.9375
1383.72883	24595.2375
1387.19347	24667.0375
1390.65578	24550.6375
1394.11575	24618.0375
1397.57339	24901.2375
1401.0287	25410.5375
1404.48168	25771.6375
1407.93234	25819.1375
1411.38068	25430.5375
1414.82669	24762.0375
1418.27039	23856.5375
1421.71177	22928.7375
1425.15083	22126.0375
1428.58758	21736.8375
1432.02203	21768.8375
1435.45416	22194.7375
1438.88399	22761.6375
1442.31151	23170.0375
1445.73673	23468.3375
1449.15965	23789.6375
1452.58027	24059.9375
1455.9986	24097.8375
1459.41463	24125.1375
1462.82837	24343.2375
1466.23982	24667.9375
1469.64898	25003.1375
1473.05586	25202.9375
1476.46045	25141.6375
1479.86276	24984.4375
1483.26279	24684.5375
1486.66054	24417.9375
1490.05602	24333.9375
1493.44922	24203.9375
1496.84016	24085.7375
1500.22882	24095.7375
1503.61521	24304.7375
1506.99934	24783.2375
1510.38121	25237.8375
1513.76081	25357.0375
1517.13816	24968.2375
1520.51324	24273.9375
1523.88607	23695.6375
1527.25665	23446.0375
1530.62498	23462.9375
1533.99105	23567.0375
1537.35488	23571.6375
1540.71647	23354.0375
1544.07581	23025.2375
1547.4329	22655.8375
1550.78776	22320.2375
1554.14038	22066.6375
1557.49077	21904.6375
1560.83892	21871.5375
1564.18484	21951.3375
1567.52853	22300.7375
1570.86999	22842.8375
1574.20922	23839.0375
1577.54624	24937.2375
1580.88103	25606.1375
1584.2136	25727.3375
1587.54395	25479.4375
1590.87208	25458.4375
1594.19801	25951.2375
1597.52172	26802.7375
1600.84321	27087.7375
1604.16251	26311.3375
1607.47959	24593.4375
1610.79447	22627.1375
1614.10715	20825.4375
1617.41763	19469.8375
1620.7259	18612.6375
1624.03199	18161.8375
1627.33587	18181.3375
1630.63757	18575.8375
1633.93707	19558.9375
1637.23439	21146.5375
1640.52951	23399.1375
1643.82246	25967.3375
1647.11321	27899.7375
1650.40179	28079.6375
1653.68819	26212.9375
1656.97241	23267.6375
1660.25446	20402.5375
1663.53433	18351.1375
1666.81203	16989.3375
1670.08756	16138.1375
1673.36092	15614.9375
1676.63211	15253.5375
1679.90115	14988.0375
1683.16801	14759.8375
1686.43272	14630.5375
1689.69527	14526.5375
1692.95567	14427.4375
1696.2139	14366.7375
1699.46999	14340.3375
1702.72392	14301.1375
1705.97571	14254.0375
1709.22535	14194.8375
1712.47284	14161.7375
1715.71819	14152.7375
1718.96139	14106.4375
1722.20246	14015.7375
1725.44139	13914.1375
1728.67818	13842.1375
1731.91284	13748.2375
1735.14537	13666.1375
1738.37576	13639.6375
1741.60403	13611.0375
1744.83017	13569.4375
1748.05418	13556.1375
1751.27607	13534.5375
1754.49584	13512.5375
1757.71349	13517.0375
1760.92903	13449.1375
1764.14244	13448.0375
1767.35375	13385.8375
1770.56294	13368.5375
1773.77002	13315.7375
1776.97499	13275.3375
1780.17785	13242.0375
1783.37861	13234.4375
1786.57727	13187.7375
1789.77382	13131.7375
1792.96828	13102.0375
1796.16064	13076.2375
1799.3509	13051.1375
1802.53907	12998.0375
1805.72514	12977.6375
1808.90913	12923.4375
1812.09102	12903.4375
1815.27083	12866.0375
1818.44856	12833.2375
1821.6242	12816.2375
1824.79776	12800.5375
1827.96924	12803.6375
1831.13864	12785.4375
1834.30597	12784.3375
1837.47122	12771.8375
1840.6344	12744.2375
1843.7955	12726.6375
1846.95454	12704.7375
1850.11151	12720.9375
1853.26642	12715.1375
1856.41926	12727.1375
1859.57004	12682.5375
1862.71876	12669.6375
1865.86542	12672.9375
1869.01003	12652.0375
1872.15258	12655.9375
1875.29308	12647.5375
1878.43152	12617.4375
1881.56792	12627.7375
1884.70227	12614.1375
1887.83457	12611.5375
1890.96482	12616.9375
1894.09304	12578.3375
1897.21921	12573.3375
1900.34335	12562.1375
1903.46544	12538.6375
1906.58551	12551.1375
1909.70353	12532.0375
1912.81953	12512.1375
1915.93349	12484.5375
1919.04543	12420.3375
1922.15534	12402.8375
1925.26322	12395.0375
1928.36908	12368.1375
1931.47292	12360.7375
1934.57473	12322.4375
1937.67453	12299.5375
1940.77232	12257.1375
1943.86808	12244.4375
1946.96184	12237.3375
1950.05358	12179.8375
1953.14331	12129.3375
1956.23103	12084.9375
1959.31675	12062.4375
1962.40046	12055.8375
1965.48217	11994.5375
1968.56188	11963.2375
1971.63959	11931.5375
1974.7153	11894.6375
1977.78901	11871.2375
1980.86073	11820.3375
1983.93046	11773.4375
1986.99819	11761.0375
1990.06394	11692.0375
1993.1277	11683.8375
1996.18947	11680.7375
1999.24925	11611.1375
2002.30706	11593.8375
2005.36288	11541.1375
2008.41672	11528.5375
2011.46859	11493.1375
2014.51848	11474.5375
2017.56639	11407.6375
2020.61233	11401.0375
2023.6563	11385.6375
2026.6983	11363.0375
2029.73833	11344.2375
2032.7764	11324.2375
2035.8125	11272.3375
2038.84664	11269.7375
2041.87881	11255.4375
2044.90903	11234.0375
2047.93729	11201.8375
2050.96359	11193.3375
2053.98794	11168.3375
2057.01034	11174.3375
2060.03078	11180.7375
2063.04927	11153.7375
2066.06582	11142.2375
2069.08042	11146.8375
2072.09307	11110.3375
2075.10378	11126.2375
2078.11255	11108.2375
2081.11938	11091.4375
2084.12426	11081.4375
2087.12722	11101.3375
2090.12824	11085.9375
2093.12732	11079.9375
2096.12447	11088.5375
2099.11969	11066.1375
2102.11299	11086.7375
2105.10435	11101.1375
2108.09379	11098.8375
2111.08131	11097.6375
2114.0669	11083.9375
2117.05057	11081.4375
2120.03233	11102.8375
2123.01216	11142.3375
2125.99008	11107.6375
2128.96609	11135.7375
2131.94018	11142.4375
2134.91236	11138.5375
2137.88263	11133.4375
2140.851	11144.7375
2143.81746	11166.8375
2146.78201	11161.8375
2149.74466	11176.2375
2152.7054	11159.0375
2155.66425	11174.5375
2158.6212	11205.0375
2161.57625	11172.6375
2164.52941	11139.7375
2167.48067	11123.3375
2170.43004	11116.5375
2173.37752	11102.5375
2176.32311	11118.7375
2179.26681	11119.6375
2182.20863	11119.0375
2185.14856	11129.1375
2188.08661	11092.0375
2191.02278	11093.1375
2193.95707	11097.6375
2196.88948	11106.8375
2199.82001	11057.9375
2202.74867	11060.4375
2205.67545	11070.9375
2208.60037	11041.6375
2211.52341	11024.4375
2214.44458	11013.9375
2217.36388	10981.3375
2220.28132	10960.8375
2223.1969	10940.6375
2226.11061	10934.6375
2229.02246	10909.7375
2231.93245	10900.4375
2234.84058	10871.6375
2237.74686	10860.9375
2240.65128	10854.4375
2243.55385	10815.4375
2246.45456	10816.3375
2249.35343	10803.9375
2252.25044	10776.2375
2255.14561	10742.5375
2258.03893	10715.8375
2260.93041	10724.3375
2263.82004	10679.7375
2266.70783	10691.1375
2269.59378	10637.7375
2272.4779	10625.2375
2275.36017	10577.9375
2278.24061	10565.7375
2281.11922	10528.0375
2283.996	10517.1375
2286.87094	10490.3375
2289.74405	10470.5375
2292.61534	10468.5375
2295.4848	10472.4375
2298.35243	10445.4375
2301.21824	10457.5375
2304.08223	10432.1375
2306.94439	10416.0375
2309.80474	10406.6375
2312.66327	10409.1375
2315.51999	10416.4375
2318.37489	10406.6375
2321.22797	10399.5375
2324.07925	10394.1375
2326.92871	10392.8375
2329.77637	10386.6375
2332.62222	10365.7375
2335.46626	10326.5375
2338.3085	10322.9375
2341.14893	10333.7375
2343.98756	10290.5375
2346.8244	10297.7375
2349.65943	10272.4375
2352.49267	10270.6375
2355.32411	10291.7375
2358.15376	10256.2375
2360.98161	10263.0375
2363.80768	10251.1375
2366.63195	10245.5375
2369.45444	10216.1375
2372.27514	10224.8375
2375.09405	10224.6375
2377.91118	10184.2375
2380.72652	10165.8375
2383.54009	10157.6375
2386.35187	10128.5375
2389.16188	10073.4375
2391.97011	10086.2375
2394.77657	10078.0375
2397.58125	10043.0375
2400.38416	10043.7375
2403.18529	10029.3375
2405.98466	10007.4375
2408.78226	10026.6375
2411.57809	9986.5375
2414.37216	9945.8375
2417.16446	9931.3375
2419.955	9934.5375
2422.74378	9918.9375
2425.5308	9902.0375
2428.31606	9905.7375
2431.09956	9902.3375
2433.88131	9886.5375
2436.6613	9891.8375
2439.43954	9889.3375
2442.21603	9848.3375
2444.99077	9861.6375
2447.76377	9863.9375
2450.53501	9849.1375
2453.30451	9835.8375
2456.07226	9809.8375
2458.83827	9815.8375
2461.60254	9819.9375
2464.36507	9821.1375
2467.12586	9809.8375
2469.88492	9798.5375
2472.64224	9791.4375
2475.39782	9783.9375
2478.15167	9770.3375
2480.90379	9758.3375
2483.65417	9777.9375
2486.40283	9777.4375
2489.14976	9787.9375
2491.89497	9782.8375
2494.63845	9788.9375
2497.3802	9757.5375
2500.12024	9740.9375
2502.85855	9751.5375
2505.59514	9752.5375
2508.33002	9731.5375
2511.06318	9730.0375
2513.79462	9729.3375
2516.52435	9717.3375
2519.25237	9715.0375
2521.97867	9684.4375
2524.70327	9679.3375
2527.42616	9650.1375
2530.14734	9666.1375
2532.86681	9658.7375
2535.58458	9619.5375
2538.30065	9616.9375
2541.01501	9638.2375
2543.72768	9617.8375
2546.43864	9580.4375
2549.14791	9575.8375
2551.85548	9564.4375
2554.56136	9561.5375
2557.26554	9546.7375
2559.96803	9513.4375
2562.66883	9511.1375
2565.36794	9482.3375
2568.06536	9526.8375
2570.7611	9496.5375
2573.45514	9487.8375
2576.14751	9474.4375
2578.83819	9447.4375
2581.52719	9443.6375
2584.21451	9425.7375
2586.90015	9423.6375
2589.58411	9396.4375
2592.2664	9392.8375
2594.94701	9381.2375
2597.62594	9367.8375
2600.30321	9361.1375
2602.9788	9318.9375
2605.65273	9331.3375
2608.32498	9321.6375
2610.99557	9304.0375
2613.66449	9286.7375
2616.33175	9284.1375
2618.99734	9300.0375
2621.66128	9278.9375
2624.32355	9267.7375
2626.98416	9263.2375
2629.64311	9277.2375
2632.30041	9249.7375
2634.95605	9267.0375
2637.61004	9218.4375
2640.26238	9231.4375
2642.91306	9242.7375
2645.56209	9215.1375
2648.20948	9229.1375
2650.85521	9223.4375
2653.4993	9211.9375
2656.14175	9218.1375
2658.78255	9225.1375
2661.42171	9217.1375
2664.05923	9242.8375
2666.6951	9224.5375
2669.32934	9232.6375
2671.96194	9214.9375
2674.59291	9230.0375
2677.22224	9197.1375
2679.84993	9223.4375
2682.476	9200.5375
2685.10043	9204.1375
2687.72324	9189.5375
2690.34441	9198.6375
2692.96396	9174.9375
2695.58188	9195.9375
2698.19818	9205.2375
2700.81285	9197.2375
2703.4259	9209.8375
2706.03733	9250.3375
2708.64714	9262.0375
2711.25533	9259.7375
2713.86191	9238.7375
2716.46687	9242.3375
2719.07021	9236.0375
2721.67194	9212.7375
2724.27206	9232.2375
2726.87057	9212.1375
2729.46747	9224.7375
2732.06276	9213.9375
2734.65644	9229.8375
2737.24852	9228.1375
2739.83899	9208.9375
2742.42786	9213.3375
2745.01513	9181.3375
2747.60079	9176.4375
2750.18486	9166.4375
2752.76733	9184.4375
2755.3482	9195.3375
2757.92747	9164.5375
2760.50515	9157.0375
2763.08123	9162.4375
2765.65573	9147.6375
2768.22863	9145.6375
2770.79994	9153.0375
2773.36967	9141.1375
2775.9378	9128.2375
2778.50435	9122.6375
2781.06932	9092.6375
2783.6327	9104.0375
2786.1945	9094.8375
2788.75471	9081.3375
2791.31335	9064.5375
2793.87041	9053.8375
2796.42589	9036.8375
2798.97979	9042.2375
2801.53212	9009.4375
2804.08288	8988.5375
2806.63206	8981.6375
2809.17967	8976.2375
2811.72571	8957.7375
2814.27018	8936.8375
2816.81308	8924.5375
2819.35442	8915.5375
2821.89419	8907.7375
2824.43239	8897.0375
2826.96904	8889.2375
2829.50412	8894.0375
2832.03763	8888.4375
2834.56959	8880.7375
2837.1	8873.5375
2839.62884	8891.4375
2842.15613	8858.6375
2844.68186	8896.8375
2847.20604	8876.2375
2849.72867	8902.7375
2852.24974	8895.2375
2854.76927	8883.4375
2857.28724	8875.9375
2859.80367	8855.0375
2862.31855	8863.8375
2864.83189	8822.2375
2867.34368	8841.7375
2869.85393	8822.5375
2872.36264	8823.1375
2874.8698	8832.1375
2877.37543	8833.8375
2879.87952	8856.0375
2882.38207	8863.0375
2884.88308	8855.1375
2887.38256	8861.5375
2889.88051	8885.8375
2892.37692	8884.3375
2894.8718	8885.3375
2897.36515	8896.4375
2899.85698	8893.0375
2902.34727	8938.4375
2904.83604	8930.5375
2907.32328	8960.1375
2909.809	8960.0375
2912.29319	8972.0375
2914.77587	8985.2375
2917.25702	8994.2375
2919.73665	8988.6375
2922.21476	9000.5375
2924.69136	9003.7375
2927.16644	9020.0375
2929.64	9005.0375
2932.11205	8998.6375
2934.58258	8961.6375
2937.05161	8976.4375
2939.51912	8977.0375
2941.98513	8968.9375
2944.44962	8931.8375
2946.91261	8879.7375
2949.37409	8883.0375
2951.83407	8871.6375
2954.29254	8850.5375
2956.74951	8818.1375
2959.20498	8772.3375
2961.65895	8769.6375
2964.11142	8792.1375
2966.56239	8723.5375
2969.01186	8707.1375
2971.45984	8687.3375
2973.90632	8659.5375
2976.35131	8622.4375
2978.7948	8604.2375
2981.23681	8589.5375
2983.67732	8556.5375
2986.11635	8526.3375
2988.55388	8494.0375
2990.98993	8494.0375
2993.4245	8477.2375
2995.85758	8433.8375
2998.28917	8423.0375
3000.71928	8409.8375
3003.14791	8385.2375
3005.57506	8377.8375
3008.00073	8367.4375
3010.42493	8380.2375
3012.84764	8319.3375
3015.26888	8314.7375
3017.68865	8295.9375
3020.10694	8307.8375
3022.52376	8266.7375
3024.9391	8260.5375
3027.35298	8240.8375
3029.76539	8260.5375
3032.17632	8255.5375
3034.5858	8230.9375
3036.9938	8221.2375
3039.40034	8196.7375
3041.80542	8187.9375
3044.20903	8172.0375
3046.61118	8165.4375
3049.01187	8153.6375
3051.4111	8132.7375
3053.80888	8145.5375
3056.20519	8123.8375
3058.60005	8099.0375
3060.99345	8072.5375
3063.3854	8045.4375
3065.7759	8029.2375
3068.16494	8010.9375
3070.55254	8008.5375
3072.93868	8002.0375
3075.32338	7962.3375
3077.70662	7943.8375
3080.08842	7919.7375
3082.46878	7921.3375
3084.84769	7921.0375
3087.22515	7936.3375
3089.60118	7944.4375
3091.97576	7936.5375
3094.3489	7954.1375
3096.72061	7930.9375
3099.09087	7938.2375
3101.4597	7923.3375
3103.82709	7916.0375
3106.19305	7897.2375
3108.55757	7879.9375
3110.92066	7883.8375
3113.28232	7860.3375
3115.64255	7846.3375
3118.00134	7817.5375
3120.35871	7834.6375
3122.71466	7803.7375
3125.06917	7809.4375
3127.42226	7786.8375
3129.77393	7794.7375
3132.12417	7802.9375
3134.47299	7821.9375
3136.82039	7816.5375
3139.16636	7788.3375
3141.51092	7838.5375
3143.85406	7803.0375
3146.19579	7787.9375
3148.53609	7815.9375
3150.87499	7822.5375
3153.21246	7830.9375
3155.54853	7826.5375
3157.88318	7826.9375
3160.21642	7807.1375
3162.54826	7823.6375
3164.87868	7814.2375
3167.2077	7824.7375
3169.5353	7819.5375
3171.86151	7821.6375
3174.18631	7825.8375
3176.5097	7857.2375
3178.83169	7802.1375
3181.15228	7812.0375
3183.47147	7797.7375
3185.78926	7818.6375
3188.10565	7785.4375
3190.42065	7789.3375
3192.73424	7807.4375
3195.04645	7795.5375
3197.35725	7829.2375
3199.66667	7809.3375
3201.97469	7796.7375
3204.28132	7794.9375
3206.58656	7808.2375
3208.8904	7817.4375
3211.19287	7818.3375
3213.49394	7809.6375
3215.79363	7806.6375
3218.09193	7812.4375
3220.38884	7822.2375
3222.68438	7833.1375
3224.97853	7811.5375
3227.2713	7804.9375
3229.56269	7802.1375
3231.8527	7778.3375
3234.14133	7761.0375
3236.42858	7768.0375
3238.71446	7770.8375
3240.99896	7734.6375
3243.28209	7752.1375
3245.56384	7741.2375
3247.84423	7748.6375
3250.12324	7738.3375
3252.40088	7730.0375
3254.67715	7725.9375
3256.95205	7700.4375
3259.22558	7704.9375
3261.49775	7696.6375
3263.76855	7696.5375
3266.03799	7670.5375
3268.30606	7650.9375
3270.57277	7631.6375
3272.83812	7610.8375
3275.10211	7605.6375
3277.36474	7617.9375
3279.62601	7616.6375
3281.88593	7596.8375
3284.14448	7604.0375
3286.40168	7619.7375
3288.65753	7593.9375
3290.91202	7585.9375
3293.16516	7554.3375
3295.41695	7539.7375
3297.66738	7499.4375
3299.91647	7463.4375
3302.16421	7423.5375
3304.4106	7398.0375
3306.65564	7353.5375
3308.89933	7297.7375
3311.14169	7253.0375
3313.38269	7222.6375
3315.62236	7160.3375
3317.86068	7111.5375
3320.09766	7041.2375
3322.3333	6990.1375
3324.5676	7008.5375
3326.80056	6907.0375
3329.03219	6845.3375
3331.26248	3.2375
3333.49143	0.1375
3335.71905	-1.5625
