Data from AgNP_FTO_APTES_CRN_50uM_R6G_10uM_NaF_0.1M_Addition_RamanShift__26__18-16-18-088.txt Node

Date: Wed Dec 15 18:16:18 GMT 2021
User: TCL
Spectrometer: QEP01345
Trigger mode: 4
Integration Time (sec): 7.000000E0
Scans to average: 10
Electric dark correction enabled: true
Nonlinearity correction enabled: false
Boxcar width: 0
XAxis mode: Raman Shifts
Number of Pixels in Spectrum: 1044
>>>>>Begin Spectral Data<<<<<
46.04893	-0.0625
50.45542	-2.0625
54.85868	-0.6625
59.25871	-0.9625
63.6555	61.0375
68.04907	63.8375
72.43941	67.7375
76.82654	70.5375
81.21044	74.7375
85.59113	77.2375
89.96862	83.6375
94.34289	79.1375
98.71396	84.5375
103.08183	90.3375
107.4465	92.7375
111.80798	92.5375
116.16626	93.1375
120.52136	99.0375
124.87327	100.4375
129.222	107.1375
133.56755	106.3375
137.90993	113.9375
142.24913	127.4375
146.58517	136.3375
150.91804	159.2375
155.24774	185.5375
159.57429	223.6375
163.89768	284.0375
168.21792	370.7375
172.53501	500.4375
176.84895	687.5375
181.15975	971.4375
185.46741	1348.6375
189.77193	1885.1375
194.07331	2508.3375
198.37157	3227.7375
202.6667	4002.7375
206.9587	4753.5375
211.24758	5510.4375
215.53334	6230.0375
219.81599	7011.0375
224.09553	7875.6375
228.37195	8833.7375
232.64527	9863.0375
236.91549	10978.2375
241.18261	12115.4375
245.44663	13154.4375
249.70755	14143.2375
253.96539	15017.4375
258.22014	15734.1375
262.4718	16374.7375
266.72039	16781.3375
270.96589	17026.0375
275.20832	17141.4375
279.44768	17037.7375
283.68397	16868.1375
287.91719	16723.1375
292.14735	16649.1375
296.37445	16605.2375
300.59849	16613.6375
304.81948	16617.9375
309.03742	16555.9375
313.25231	16389.1375
317.46415	16069.7375
321.67296	15675.9375
325.87872	15374.0375
330.08145	15275.5375
334.28114	15261.8375
338.47781	15428.6375
342.67145	15616.9375
346.86207	15863.7375
351.04966	16176.3375
355.23424	16508.7375
359.4158	16815.3375
363.59435	17007.8375
367.76989	17190.2375
371.94243	17283.5375
376.11196	17387.1375
380.27849	17492.4375
384.44203	17588.9375
388.60257	17656.4375
392.76012	17808.2375
396.91468	17991.5375
401.06626	18242.5375
405.21485	18446.9375
409.36047	18431.9375
413.50311	18202.5375
417.64277	18017.0375
421.77947	17901.3375
425.9132	17971.9375
430.04396	18088.1375
434.17176	18232.9375
438.2966	18394.4375
442.41849	18706.3375
446.53742	19055.9375
450.6534	19507.6375
454.76644	19874.2375
458.87653	20029.7375
462.98368	20006.0375
467.08789	19864.6375
471.18916	19671.0375
475.2875	19513.9375
479.38291	19386.3375
483.4754	19272.7375
487.56496	19048.8375
491.6516	18832.6375
495.73531	18654.1375
499.81612	18555.9375
503.89401	18638.4375
507.96899	18665.4375
512.04106	18717.1375
516.11023	18742.5375
520.1765	18719.1375
524.23987	18737.5375
528.30034	18626.5375
532.35792	18516.8375
536.41261	18354.5375
540.46441	18191.9375
544.51333	18133.0375
548.55936	18293.0375
552.60252	18525.6375
556.64279	18785.5375
560.6802	18937.5375
564.71473	19040.1375
568.7464	19183.9375
572.7752	19418.9375
576.80114	19467.2375
580.82422	19567.4375
584.84444	19734.3375
588.86181	19960.1375
592.87633	20295.4375
596.888	20607.1375
600.89682	20818.8375
604.9028	21354.8375
608.90594	22755.7375
612.90624	24305.4375
616.90371	23277.0375
620.89834	20290.7375
624.89015	18990.7375
628.87913	18811.9375
632.86528	18860.8375
636.84862	18886.2375
640.82913	18679.1375
644.80683	18348.1375
648.78172	18051.3375
652.75379	18013.1375
656.72306	18163.6375
660.68952	18403.8375
664.65319	18356.9375
668.61405	18158.6375
672.57211	18097.2375
676.52738	18055.3375
680.47986	18096.6375
684.42955	18089.4375
688.37646	18038.5375
692.32058	18106.9375
696.26192	18233.5375
700.20048	18377.0375
704.13626	18465.0375
708.06928	18460.8375
711.99952	18358.7375
715.927	18300.2375
719.85171	18316.0375
723.77365	18250.3375
727.69284	18171.7375
731.60928	18079.7375
735.52295	18038.4375
739.43388	18056.7375
743.34206	18103.6375
747.24749	18166.4375
751.15017	18226.5375
755.05012	18427.0375
758.94733	18846.6375
762.8418	19514.4375
766.73354	20616.2375
770.62254	21714.6375
774.50882	22065.1375
778.39237	21324.3375
782.27321	19991.3375
786.15132	18979.2375
790.02671	18335.4375
793.89938	18066.9375
797.76935	17957.8375
801.6366	17938.1375
805.50115	17918.9375
809.36299	17858.5375
813.22213	17800.2375
817.07857	17834.1375
820.93231	17795.0375
824.78336	17809.4375
828.63172	17824.1375
832.47738	17811.8375
836.32036	17853.4375
840.16066	17879.7375
843.99827	17924.8375
847.8332	17842.3375
851.66546	17780.1375
855.49504	17812.7375
859.32195	17774.9375
863.1462	17791.2375
866.96777	17722.7375
870.78668	17678.0375
874.60293	17653.1375
878.41652	17675.5375
882.22745	17730.7375
886.03573	17710.3375
889.84136	17727.8375
893.64433	17675.7375
897.44466	17585.5375
901.24235	17572.5375
905.0374	17565.9375
908.8298	17535.5375
912.61957	17567.1375
916.40671	17689.2375
920.19121	17792.5375
923.97308	17907.9375
927.75233	17995.8375
931.52895	17955.2375
935.30295	17815.8375
939.07433	17620.0375
942.84309	17436.2375
946.60924	17321.0375
950.37278	17256.3375
954.13371	17210.0375
957.89203	17155.0375
961.64774	17086.4375
965.40086	17071.7375
969.15137	17009.4375
972.89929	16926.5375
976.64461	16916.1375
980.38733	16938.2375
984.12747	17028.6375
987.86502	17088.2375
991.59999	17240.4375
995.33237	17473.6375
999.06217	17849.1375
1002.78939	18223.3375
1006.51404	18452.3375
1010.23611	18614.4375
1013.95561	18709.4375
1017.67255	18709.5375
1021.38692	18581.7375
1025.09872	18415.4375
1028.80796	18550.3375
1032.51465	18853.4375
1036.21877	19171.0375
1039.92035	19248.3375
1043.61937	19105.1375
1047.31584	18798.0375
1051.00976	18548.6375
1054.70114	18427.8375
1058.38998	18447.6375
1062.07627	18609.6375
1065.76003	18847.0375
1069.44126	19176.2375
1073.11995	19586.7375
1076.79611	19897.0375
1080.46974	19936.7375
1084.14085	19770.7375
1087.80943	19586.3375
1091.47549	19387.9375
1095.13903	19132.8375
1098.80005	18900.3375
1102.45857	18612.8375
1106.11456	18421.0375
1109.76805	18361.4375
1113.41903	18462.5375
1117.06751	18622.9375
1120.71348	18774.5375
1124.35696	18958.5375
1127.99793	19120.3375
1131.63641	19182.1375
1135.2724	19077.0375
1138.90589	18857.2375
1142.5369	18709.5375
1146.16542	18659.8375
1149.79145	18664.5375
1153.415	18732.3375
1157.03607	18917.0375
1160.65467	19198.5375
1164.27079	19651.1375
1167.88443	20339.4375
1171.49561	21290.2375
1175.10432	22641.6375
1178.71056	24209.6375
1182.31434	25578.5375
1185.91565	26163.4375
1189.51451	25969.8375
1193.11091	25205.8375
1196.70485	24198.6375
1200.29634	23313.7375
1203.88538	22727.3375
1207.47197	22232.2375
1211.05612	21818.7375
1214.63782	21565.9375
1218.21708	21444.8375
1221.79391	21309.0375
1225.36829	21260.5375
1228.94024	21110.4375
1232.50976	20891.1375
1236.07685	20772.8375
1239.6415	20733.9375
1243.20374	20788.2375
1246.76355	20867.2375
1250.32093	21140.1375
1253.8759	21469.2375
1257.42845	21907.6375
1260.97859	22258.9375
1264.52631	22595.9375
1268.07163	22925.6375
1271.61453	23403.8375
1275.15503	23847.1375
1278.69312	24311.6375
1282.22882	24793.4375
1285.76211	25226.1375
1289.29301	25762.0375
1292.82151	26448.9375
1296.34761	27335.3375
1299.87133	28431.1375
1303.39266	29728.3375
1306.9116	31232.7375
1310.42815	32755.2375
1313.94233	33695.8375
1317.45412	33820.7375
1320.96354	33324.2375
1324.47058	32635.8375
1327.97525	31915.7375
1331.47754	31411.0375
1334.97747	31196.3375
1338.47502	31283.7375
1341.97022	31345.5375
1345.46305	31168.2375
1348.95352	30950.6375
1352.44163	30877.5375
1355.92738	31431.1375
1359.41078	32731.0375
1362.89183	34133.3375
1366.37053	33772.7375
1369.84688	31434.1375
1373.32088	28635.6375
1376.79254	26655.6375
1380.26186	25768.4375
1383.72883	25457.2375
1387.19347	25296.6375
1390.65578	25100.8375
1394.11575	25025.2375
1397.57339	25198.3375
1401.0287	25592.7375
1404.48168	26043.9375
1407.93234	26250.0375
1411.38068	26194.4375
1414.82669	25733.8375
1418.27039	24943.0375
1421.71177	24096.8375
1425.15083	23350.9375
1428.58758	22934.4375
1432.02203	22886.8375
1435.45416	23108.4375
1438.88399	23434.5375
1442.31151	23777.8375
1445.73673	24081.4375
1449.15965	24323.6375
1452.58027	24551.3375
1455.9986	24629.8375
1459.41463	24721.8375
1462.82837	25021.0375
1466.23982	25486.5375
1469.64898	25881.1375
1473.05586	26110.2375
1476.46045	26221.2375
1479.86276	26205.1375
1483.26279	26149.3375
1486.66054	26073.5375
1490.05602	26172.0375
1493.44922	26313.0375
1496.84016	26466.1375
1500.22882	26757.1375
1503.61521	27380.6375
1506.99934	28222.1375
1510.38121	29046.9375
1513.76081	29403.9375
1517.13816	28873.0375
1520.51324	27808.7375
1523.88607	26687.4375
1527.25665	25973.0375
1530.62498	25552.6375
1533.99105	25417.3375
1537.35488	25322.1375
1540.71647	25145.8375
1544.07581	24957.9375
1547.4329	24675.7375
1550.78776	24365.2375
1554.14038	24174.0375
1557.49077	24145.5375
1560.83892	24109.3375
1564.18484	24201.7375
1567.52853	24394.9375
1570.86999	24722.0375
1574.20922	25227.9375
1577.54624	25779.1375
1580.88103	26041.2375
1584.2136	26021.1375
1587.54395	26028.5375
1590.87208	26301.2375
1594.19801	27162.5375
1597.52172	28267.4375
1600.84321	28678.9375
1604.16251	27889.1375
1607.47959	26279.6375
1610.79447	24541.2375
1614.10715	22861.3375
1617.41763	21610.5375
1620.7259	20743.4375
1624.03199	20311.4375
1627.33587	20310.5375
1630.63757	20721.3375
1633.93707	21494.2375
1637.23439	22727.9375
1640.52951	24450.5375
1643.82246	26350.2375
1647.11321	28005.3375
1650.40179	28504.0375
1653.68819	27267.9375
1656.97241	24811.1375
1660.25446	22215.9375
1663.53433	20247.5375
1666.81203	18918.1375
1670.08756	18083.4375
1673.36092	17525.4375
1676.63211	17156.4375
1679.90115	16932.0375
1683.16801	16699.1375
1686.43272	16580.3375
1689.69527	16480.2375
1692.95567	16422.5375
1696.2139	16360.3375
1699.46999	16346.1375
1702.72392	16318.5375
1705.97571	16274.5375
1709.22535	16252.0375
1712.47284	16235.4375
1715.71819	16205.7375
1718.96139	16175.5375
1722.20246	16145.5375
1725.44139	16079.9375
1728.67818	16039.3375
1731.91284	15956.1375
1735.14537	15912.2375
1738.37576	15852.1375
1741.60403	15810.2375
1744.83017	15774.0375
1748.05418	15769.5375
1751.27607	15732.3375
1754.49584	15718.4375
1757.71349	15711.4375
1760.92903	15725.8375
1764.14244	15698.2375
1767.35375	15707.2375
1770.56294	15681.4375
1773.77002	15643.4375
1776.97499	15640.1375
1780.17785	15607.8375
1783.37861	15620.7375
1786.57727	15571.2375
1789.77382	15533.9375
1792.96828	15502.4375
1796.16064	15516.0375
1799.3509	15503.8375
1802.53907	15459.8375
1805.72514	15410.0375
1808.90913	15416.9375
1812.09102	15381.8375
1815.27083	15348.4375
1818.44856	15333.6375
1821.6242	15335.6375
1824.79776	15286.7375
1827.96924	15281.2375
1831.13864	15274.6375
1834.30597	15297.2375
1837.47122	15272.3375
1840.6344	15241.3375
1843.7955	15271.6375
1846.95454	15243.4375
1850.11151	15240.9375
1853.26642	15256.6375
1856.41926	15257.9375
1859.57004	15240.2375
1862.71876	15231.8375
1865.86542	15201.6375
1869.01003	15240.2375
1872.15258	15289.7375
1875.29308	15178.1375
1878.43152	15190.1375
1881.56792	15162.8375
1884.70227	15164.2375
1887.83457	15131.0375
1890.96482	15126.9375
1894.09304	15123.9375
1897.21921	15136.8375
1900.34335	15122.1375
1903.46544	15099.4375
1906.58551	15125.6375
1909.70353	15113.2375
1912.81953	15064.4375
1915.93349	15087.5375
1919.04543	15032.5375
1922.15534	14985.8375
1925.26322	14989.5375
1928.36908	14984.6375
1931.47292	14941.9375
1934.57473	14894.9375
1937.67453	14859.0375
1940.77232	14830.3375
1943.86808	14809.5375
1946.96184	14785.1375
1950.05358	14759.5375
1953.14331	14703.6375
1956.23103	14668.9375
1959.31675	14634.2375
1962.40046	14598.8375
1965.48217	14525.6375
1968.56188	14507.2375
1971.63959	14426.2375
1974.7153	14399.9375
1977.78901	14383.0375
1980.86073	14340.8375
1983.93046	14316.0375
1986.99819	14260.6375
1990.06394	14233.2375
1993.1277	14185.2375
1996.18947	14113.8375
1999.24925	14076.2375
2002.30706	14053.2375
2005.36288	14056.9375
2008.41672	14001.1375
2011.46859	13968.5375
2014.51848	13910.4375
2017.56639	13884.8375
2020.61233	13861.3375
2023.6563	13860.2375
2026.6983	13805.1375
2029.73833	13784.2375
2032.7764	13748.4375
2035.8125	13731.2375
2038.84664	13689.9375
2041.87881	13702.4375
2044.90903	13655.7375
2047.93729	13621.0375
2050.96359	13639.9375
2053.98794	13620.5375
2057.01034	13612.5375
2060.03078	13621.1375
2063.04927	13563.8375
2066.06582	13574.0375
2069.08042	13570.1375
2072.09307	13559.1375
2075.10378	13531.6375
2078.11255	13502.3375
2081.11938	13532.1375
2084.12426	13531.7375
2087.12722	13525.3375
2090.12824	13525.8375
2093.12732	13540.4375
2096.12447	13544.4375
2099.11969	13508.3375
2102.11299	13515.1375
2105.10435	13529.2375
2108.09379	13568.6375
2111.08131	13591.9375
2114.0669	13575.7375
2117.05057	13587.3375
2120.03233	13578.0375
2123.01216	13587.8375
2125.99008	13594.6375
2128.96609	13613.0375
2131.94018	13638.3375
2134.91236	13617.9375
2137.88263	13652.8375
2140.851	13658.6375
2143.81746	13671.4375
2146.78201	13672.8375
2149.74466	13674.6375
2152.7054	13686.6375
2155.66425	13726.3375
2158.6212	13716.3375
2161.57625	13737.3375
2164.52941	13705.7375
2167.48067	13679.3375
2170.43004	13658.6375
2173.37752	13672.2375
2176.32311	13669.6375
2179.26681	13686.4375
2182.20863	13661.0375
2185.14856	13646.0375
2188.08661	13645.1375
2191.02278	13659.6375
2193.95707	13681.5375
2196.88948	13662.2375
2199.82001	13627.6375
2202.74867	13627.1375
2205.67545	13646.1375
2208.60037	13638.0375
2211.52341	13598.1375
2214.44458	13630.2375
2217.36388	13589.0375
2220.28132	13574.1375
2223.1969	13530.4375
2226.11061	13531.8375
2229.02246	13524.7375
2231.93245	13478.1375
2234.84058	13452.4375
2237.74686	13441.7375
2240.65128	13436.8375
2243.55385	13403.1375
2246.45456	13385.5375
2249.35343	13398.3375
2252.25044	13340.3375
2255.14561	13326.5375
2258.03893	13329.3375
2260.93041	13315.4375
2263.82004	13280.5375
2266.70783	13301.1375
2269.59378	13204.0375
2272.4779	13189.2375
2275.36017	13166.3375
2278.24061	13121.7375
2281.11922	13121.5375
2283.996	13082.2375
2286.87094	13074.9375
2289.74405	13074.4375
2292.61534	13030.7375
2295.4848	13034.3375
2298.35243	13061.2375
2301.21824	13034.8375
2304.08223	13041.6375
2306.94439	13016.3375
2309.80474	13030.9375
2312.66327	13028.6375
2315.51999	13020.2375
2318.37489	13021.4375
2321.22797	12985.3375
2324.07925	12980.8375
2326.92871	13018.5375
2329.77637	12970.2375
2332.62222	12979.2375
2335.46626	12934.4375
2338.3085	12956.9375
2341.14893	12921.9375
2343.98756	12932.6375
2346.8244	12931.3375
2349.65943	12939.9375
2352.49267	12932.5375
2355.32411	12911.4375
2358.15376	12910.5375
2360.98161	12902.3375
2363.80768	12859.3375
2366.63195	12867.4375
2369.45444	12843.1375
2372.27514	12841.0375
2375.09405	12816.3375
2377.91118	12794.7375
2380.72652	12764.7375
2383.54009	12760.5375
2386.35187	12721.8375
2389.16188	12701.1375
2391.97011	12705.2375
2394.77657	12682.6375
2397.58125	12642.2375
2400.38416	12635.9375
2403.18529	12595.4375
2405.98466	12602.8375
2408.78226	12583.1375
2411.57809	12553.8375
2414.37216	12527.7375
2417.16446	12511.7375
2419.955	12504.6375
2422.74378	12507.2375
2425.5308	12469.1375
2428.31606	12439.0375
2431.09956	12434.8375
2433.88131	12440.6375
2436.6613	12448.5375
2439.43954	12450.5375
2442.21603	12420.8375
2444.99077	12401.4375
2447.76377	12427.0375
2450.53501	12405.4375
2453.30451	12388.0375
2456.07226	12369.9375
2458.83827	12348.3375
2461.60254	12346.5375
2464.36507	12343.4375
2467.12586	12359.5375
2469.88492	12368.0375
2472.64224	12351.0375
2475.39782	12345.4375
2478.15167	12361.6375
2480.90379	12344.2375
2483.65417	12365.1375
2486.40283	12363.9375
2489.14976	12366.5375
2491.89497	12391.3375
2494.63845	12401.8375
2497.3802	12361.6375
2500.12024	12392.6375
2502.85855	12343.4375
2505.59514	12346.2375
2508.33002	12324.5375
2511.06318	12316.4375
2513.79462	12324.1375
2516.52435	12296.1375
2519.25237	12315.2375
2521.97867	12258.5375
2524.70327	12295.7375
2527.42616	12253.2375
2530.14734	12255.7375
2532.86681	12228.6375
2535.58458	12204.3375
2538.30065	12195.9375
2541.01501	12170.6375
2543.72768	12173.7375
2546.43864	12184.1375
2549.14791	12142.6375
2551.85548	12146.5375
2554.56136	12122.6375
2557.26554	12111.8375
2559.96803	12086.9375
2562.66883	12101.0375
2565.36794	12096.8375
2568.06536	12078.9375
2570.7611	12095.0375
2573.45514	12068.1375
2576.14751	12056.3375
2578.83819	12019.4375
2581.52719	12024.7375
2584.21451	12024.0375
2586.90015	12020.6375
2589.58411	12001.6375
2592.2664	11954.8375
2594.94701	11926.6375
2597.62594	11911.7375
2600.30321	11944.9375
2602.9788	11921.3375
2605.65273	11919.9375
2608.32498	11896.4375
2610.99557	11878.0375
2613.66449	11894.4375
2616.33175	11895.7375
2618.99734	11884.7375
2621.66128	11878.4375
2624.32355	11892.6375
2626.98416	11883.9375
2629.64311	11877.3375
2632.30041	11888.2375
2634.95605	11867.3375
2637.61004	11848.2375
2640.26238	11844.9375
2642.91306	11805.7375
2645.56209	11810.3375
2648.20948	11833.6375
2650.85521	11814.9375
2653.4993	11775.9375
2656.14175	11778.3375
2658.78255	11783.4375
2661.42171	11781.9375
2664.05923	11800.3375
2666.6951	11794.9375
2669.32934	11817.6375
2671.96194	11803.7375
2674.59291	11785.6375
2677.22224	11813.2375
2679.84993	11807.3375
2682.476	11803.2375
2685.10043	11811.6375
2687.72324	11822.3375
2690.34441	11805.0375
2692.96396	11808.7375
2695.58188	11801.8375
2698.19818	11780.0375
2700.81285	11805.6375
2703.4259	11781.8375
2706.03733	11846.5375
2708.64714	11809.4375
2711.25533	11831.4375
2713.86191	11808.4375
2716.46687	11826.7375
2719.07021	11822.3375
2721.67194	11837.7375
2724.27206	11772.9375
2726.87057	11812.7375
2729.46747	11814.6375
2732.06276	11847.9375
2734.65644	11803.3375
2737.24852	11823.8375
2739.83899	11811.7375
2742.42786	11821.0375
2745.01513	11786.6375
2747.60079	11787.4375
2750.18486	11788.6375
2752.76733	11787.7375
2755.3482	11784.4375
2757.92747	11776.0375
2760.50515	11765.2375
2763.08123	11770.7375
2765.65573	11738.2375
2768.22863	11749.4375
2770.79994	11726.5375
2773.36967	11722.7375
2775.9378	11714.6375
2778.50435	11706.2375
2781.06932	11666.9375
2783.6327	11692.0375
2786.1945	11673.0375
2788.75471	11653.3375
2791.31335	11632.8375
2793.87041	11628.1375
2796.42589	11595.5375
2798.97979	11580.0375
2801.53212	11579.6375
2804.08288	11554.1375
2806.63206	11526.1375
2809.17967	11509.1375
2811.72571	11485.7375
2814.27018	11482.0375
2816.81308	11468.8375
2819.35442	11477.7375
2821.89419	11439.2375
2824.43239	11426.8375
2826.96904	11414.3375
2829.50412	11416.8375
2832.03763	11400.3375
2834.56959	11400.4375
2837.1	11369.5375
2839.62884	11371.7375
2842.15613	11361.6375
2844.68186	11386.1375
2847.20604	11388.7375
2849.72867	11377.0375
2852.24974	11329.9375
2854.76927	11336.6375
2857.28724	11351.1375
2859.80367	11337.5375
2862.31855	11316.3375
2864.83189	11303.4375
2867.34368	11301.7375
2869.85393	11292.1375
2872.36264	11275.2375
2874.8698	11290.4375
2877.37543	11263.9375
2879.87952	11313.7375
2882.38207	11308.7375
2884.88308	11285.8375
2887.38256	11328.1375
2889.88051	11312.2375
2892.37692	11301.4375
2894.8718	11294.5375
2897.36515	11313.6375
2899.85698	11294.9375
2902.34727	11307.5375
2904.83604	11332.6375
2907.32328	11348.7375
2909.809	11317.8375
2912.29319	11340.2375
2914.77587	11338.6375
2917.25702	11318.8375
2919.73665	11301.0375
2922.21476	11311.4375
2924.69136	11323.8375
2927.16644	11328.9375
2929.64	11288.1375
2932.11205	11276.8375
2934.58258	11276.9375
2937.05161	11302.9375
2939.51912	11284.5375
2941.98513	11287.1375
2944.44962	11251.4375
2946.91261	11221.4375
2949.37409	11236.7375
2951.83407	11220.7375
2954.29254	11223.3375
2956.74951	11180.7375
2959.20498	11229.8375
2961.65895	11195.9375
2964.11142	11177.1375
2966.56239	11173.9375
2969.01186	11156.6375
2971.45984	11115.6375
2973.90632	11115.4375
2976.35131	11074.0375
2978.7948	11052.3375
2981.23681	11039.8375
2983.67732	11042.2375
2986.11635	11029.0375
2988.55388	10998.0375
2990.98993	10960.2375
2993.4245	10957.6375
2995.85758	10936.9375
2998.28917	10913.8375
3000.71928	10916.1375
3003.14791	10862.5375
3005.57506	10856.2375
3008.00073	10849.9375
3010.42493	10868.5375
3012.84764	10800.3375
3015.26888	10807.6375
3017.68865	10769.1375
3020.10694	10777.9375
3022.52376	10751.3375
3024.9391	10750.1375
3027.35298	10724.5375
3029.76539	10754.6375
3032.17632	10754.6375
3034.5858	10679.3375
3036.9938	10721.0375
3039.40034	10700.3375
3041.80542	10682.3375
3044.20903	10649.8375
3046.61118	10672.8375
3049.01187	10640.7375
3051.4111	10638.9375
3053.80888	10598.1375
3056.20519	10593.9375
3058.60005	10574.5375
3060.99345	10534.3375
3063.3854	10505.1375
3065.7759	10498.7375
3068.16494	10478.3375
3070.55254	10443.0375
3072.93868	10461.5375
3075.32338	10425.8375
3077.70662	10389.9375
3080.08842	10359.0375
3082.46878	10368.9375
3084.84769	10348.7375
3087.22515	10333.6375
3089.60118	10354.0375
3091.97576	10355.6375
3094.3489	10360.6375
3096.72061	10335.3375
3099.09087	10335.9375
3101.4597	10324.5375
3103.82709	10318.5375
3106.19305	10300.0375
3108.55757	10282.3375
3110.92066	10269.6375
3113.28232	10255.9375
3115.64255	10249.7375
3118.00134	10216.2375
3120.35871	10218.8375
3122.71466	10216.0375
3125.06917	10189.2375
3127.42226	10183.2375
3129.77393	10188.7375
3132.12417	10187.5375
3134.47299	10213.7375
3136.82039	10187.7375
3139.16636	10179.3375
3141.51092	10221.3375
3143.85406	10161.6375
3146.19579	10195.3375
3148.53609	10208.4375
3150.87499	10223.5375
3153.21246	10203.8375
3155.54853	10201.0375
3157.88318	10188.2375
3160.21642	10212.8375
3162.54826	10189.2375
3164.87868	10192.9375
3167.2077	10194.4375
3169.5353	10189.7375
3171.86151	10201.7375
3174.18631	10165.2375
3176.5097	10189.6375
3178.83169	10167.0375
3181.15228	10147.9375
3183.47147	10139.7375
3185.78926	10167.1375
3188.10565	10157.7375
3190.42065	10134.8375
3192.73424	10135.0375
3195.04645	10150.5375
3197.35725	10154.3375
3199.66667	10151.5375
3201.97469	10175.5375
3204.28132	10146.3375
3206.58656	10199.4375
3208.8904	10153.2375
3211.19287	10186.1375
3213.49394	10170.3375
3215.79363	10169.1375
3218.09193	10156.7375
3220.38884	10173.2375
3222.68438	10167.7375
3224.97853	10145.5375
3227.2713	10159.9375
3229.56269	10129.2375
3231.8527	10131.0375
3234.14133	10088.3375
3236.42858	10082.0375
3238.71446	10075.7375
3240.99896	10046.1375
3243.28209	10058.3375
3245.56384	10052.4375
3247.84423	10073.2375
3250.12324	10035.8375
3252.40088	10020.8375
3254.67715	10040.1375
3256.95205	10024.8375
3259.22558	10037.7375
3261.49775	10034.9375
3263.76855	10003.9375
3266.03799	9972.3375
3268.30606	9960.1375
3270.57277	9981.5375
3272.83812	9913.4375
3275.10211	9913.5375
3277.36474	9904.1375
3279.62601	9920.2375
3281.88593	9890.8375
3284.14448	9928.2375
3286.40168	9942.6375
3288.65753	9907.7375
3290.91202	9883.2375
3293.16516	9877.8375
3295.41695	9830.9375
3297.66738	9752.1375
3299.91647	9728.5375
3302.16421	9674.6375
3304.4106	9631.0375
3306.65564	9594.4375
3308.89933	9546.2375
3311.14169	9486.7375
3313.38269	9425.1375
3315.62236	9371.2375
3317.86068	9275.6375
3320.09766	9203.0375
3322.3333	9120.0375
3324.5676	9139.5375
3326.80056	9002.6375
3329.03219	8941.3375
3331.26248	4.4375
3333.49143	-0.0625
3335.71905	0.0375
