Data from AgNP_FTO_APTES_CRN_5uM_R6G_10uM_NaF_0.1M_Addition_RamanShift__34__16-05-37-940.txt Node

Date: Wed Dec 15 16:05:37 GMT 2021
User: TCL
Spectrometer: QEP01345
Trigger mode: 4
Integration Time (sec): 7.000000E0
Scans to average: 10
Electric dark correction enabled: true
Nonlinearity correction enabled: false
Boxcar width: 0
XAxis mode: Raman Shifts
Number of Pixels in Spectrum: 1044
>>>>>Begin Spectral Data<<<<<
46.04893	1.5625
50.45542	-0.3375
54.85868	-1.4375
59.25871	-0.7375
63.6555	62.3625
68.04907	70.5625
72.43941	72.6625
76.82654	76.9625
81.21044	80.2625
85.59113	84.1625
89.96862	90.9625
94.34289	88.8625
98.71396	91.5625
103.08183	96.8625
107.4465	101.1625
111.80798	99.1625
116.16626	105.5625
120.52136	107.8625
124.87327	104.6625
129.222	106.1625
133.56755	104.8625
137.90993	114.6625
142.24913	121.8625
146.58517	134.1625
150.91804	144.3625
155.24774	169.6625
159.57429	199.4625
163.89768	250.0625
168.21792	312.5625
172.53501	422.7625
176.84895	573.6625
181.15975	785.1625
185.46741	1092.2625
189.77193	1504.4625
194.07331	1998.2625
198.37157	2560.4625
202.6667	3151.2625
206.9587	3743.2625
211.24758	4336.0625
215.53334	4967.1625
219.81599	5662.2625
224.09553	6458.2625
228.37195	7354.0625
232.64527	8313.0625
236.91549	9255.8625
241.18261	10096.3625
245.44663	10774.5625
249.70755	11295.8625
253.96539	11752.0625
258.22014	12177.6625
262.4718	12619.9625
266.72039	12962.0625
270.96589	13154.0625
275.20832	13229.4625
279.44768	13121.6625
283.68397	12942.1625
287.91719	12839.5625
292.14735	12855.3625
296.37445	13166.5625
300.59849	13714.2625
304.81948	14343.2625
309.03742	14752.8625
313.25231	14694.8625
317.46415	13982.3625
321.67296	12858.5625
325.87872	11957.5625
330.08145	11528.3625
334.28114	11496.7625
338.47781	11700.0625
342.67145	12050.4625
346.86207	12586.2625
351.04966	13347.5625
355.23424	14253.6625
359.4158	14924.2625
363.59435	15254.9625
367.76989	15383.9625
371.94243	15324.5625
376.11196	15236.6625
380.27849	15150.3625
384.44203	14973.9625
388.60257	14776.1625
392.76012	14697.3625
396.91468	14801.5625
401.06626	15249.1625
405.21485	15488.6625
409.36047	15192.9625
413.50311	14398.8625
417.64277	13645.7625
421.77947	13212.8625
425.9132	13042.4625
430.04396	13038.2625
434.17176	13080.8625
438.2966	13259.8625
442.41849	13562.4625
446.53742	13934.1625
450.6534	14318.3625
454.76644	14577.0625
458.87653	14617.5625
462.98368	14507.7625
467.08789	14262.9625
471.18916	13940.9625
475.2875	13541.5625
479.38291	13242.9625
483.4754	13011.5625
487.56496	12827.1625
491.6516	12715.7625
495.73531	12683.4625
499.81612	12744.1625
503.89401	12887.8625
507.96899	13117.3625
512.04106	13369.2625
516.11023	13618.6625
520.1765	13818.3625
524.23987	13776.7625
528.30034	13462.6625
532.35792	13128.2625
536.41261	12801.1625
540.46441	12470.4625
544.51333	12325.1625
548.55936	12421.8625
552.60252	12719.0625
556.64279	13084.2625
560.6802	13210.3625
564.71473	13374.0625
568.7464	13926.1625
572.7752	14285.4625
576.80114	13967.1625
580.82422	13587.9625
584.84444	13379.4625
588.86181	13330.3625
592.87633	13310.4625
596.888	13491.5625
600.89682	14108.8625
604.9028	15965.3625
608.90594	20666.3625
612.90624	26479.4625
616.90371	25085.1625
620.89834	17366.0625
624.89015	13738.5625
628.87913	13068.3625
632.86528	13138.7625
636.84862	13365.1625
640.82913	13190.1625
644.80683	12602.6625
648.78172	12272.3625
652.75379	12323.8625
656.72306	12932.2625
660.68952	13600.2625
664.65319	13433.9625
668.61405	12718.3625
672.57211	12376.0625
676.52738	12321.2625
680.47986	12333.4625
684.42955	12240.9625
688.37646	12183.6625
692.32058	12231.0625
696.26192	12337.6625
700.20048	12535.9625
704.13626	12701.4625
708.06928	12704.3625
711.99952	12583.1625
715.927	12509.5625
719.85171	12534.9625
723.77365	12520.7625
727.69284	12364.4625
731.60928	12280.2625
735.52295	12242.8625
739.43388	12311.8625
743.34206	12387.0625
747.24749	12477.9625
751.15017	12628.6625
755.05012	12924.9625
758.94733	13596.8625
762.8418	15102.9625
766.73354	17702.1625
770.62254	20430.8625
774.50882	21721.0625
778.39237	20619.1625
782.27321	17755.3625
786.15132	15046.5625
790.02671	13567.7625
793.89938	12879.8625
797.76935	12580.6625
801.6366	12454.2625
805.50115	12359.9625
809.36299	12296.6625
813.22213	12254.2625
817.07857	12204.2625
820.93231	12200.8625
824.78336	12245.2625
828.63172	12306.0625
832.47738	12360.8625
836.32036	12364.2625
840.16066	12271.0625
843.99827	12222.7625
847.8332	12192.9625
851.66546	12158.7625
855.49504	12164.1625
859.32195	12126.3625
863.1462	12047.4625
866.96777	11998.1625
870.78668	11973.7625
874.60293	11995.1625
878.41652	12036.0625
882.22745	12152.8625
886.03573	12176.1625
889.84136	12163.1625
893.64433	12079.5625
897.44466	12043.6625
901.24235	12064.0625
905.0374	12053.9625
908.8298	12024.9625
912.61957	12012.9625
916.40671	12098.2625
920.19121	12234.6625
923.97308	12363.5625
927.75233	12476.2625
931.52895	12566.2625
935.30295	12411.5625
939.07433	12085.7625
942.84309	11778.7625
946.60924	11607.3625
950.37278	11532.8625
954.13371	11462.2625
957.89203	11414.9625
961.64774	11380.5625
965.40086	11361.2625
969.15137	11300.4625
972.89929	11287.2625
976.64461	11253.6625
980.38733	11271.2625
984.12747	11287.9625
987.86502	11360.3625
991.59999	11450.5625
995.33237	11582.0625
999.06217	11846.8625
1002.78939	12208.6625
1006.51404	12570.2625
1010.23611	12901.6625
1013.95561	13084.0625
1017.67255	13025.1625
1021.38692	12838.6625
1025.09872	12637.8625
1028.80796	12630.0625
1032.51465	12767.7625
1036.21877	13003.7625
1039.92035	13104.2625
1043.61937	13091.6625
1047.31584	12980.5625
1051.00976	12807.1625
1054.70114	12701.8625
1058.38998	12686.5625
1062.07627	12769.4625
1065.76003	12886.3625
1069.44126	13050.4625
1073.11995	13344.0625
1076.79611	13595.1625
1080.46974	13828.1625
1084.14085	14102.2625
1087.80943	14345.9625
1091.47549	14348.8625
1095.13903	14024.5625
1098.80005	13505.5625
1102.45857	13035.9625
1106.11456	12852.9625
1109.76805	12922.0625
1113.41903	13182.4625
1117.06751	13574.1625
1120.71348	14112.0625
1124.35696	14625.4625
1127.99793	15166.6625
1131.63641	15139.1625
1135.2724	14505.4625
1138.90589	13872.4625
1142.5369	13530.0625
1146.16542	13204.6625
1149.79145	13058.6625
1153.415	13076.9625
1157.03607	13206.4625
1160.65467	13488.0625
1164.27079	14031.8625
1167.88443	14728.0625
1171.49561	15948.7625
1175.10432	17979.4625
1178.71056	20638.0625
1182.31434	22637.3625
1185.91565	23094.9625
1189.51451	22403.7625
1193.11091	20825.8625
1196.70485	19053.6625
1200.29634	17774.7625
1203.88538	16857.4625
1207.47197	15908.7625
1211.05612	15097.9625
1214.63782	14627.3625
1218.21708	14494.8625
1221.79391	14542.9625
1225.36829	14614.3625
1228.94024	14756.6625
1232.50976	14845.2625
1236.07685	14922.8625
1239.6415	15013.7625
1243.20374	15072.1625
1246.76355	15112.6625
1250.32093	15359.8625
1253.8759	15677.5625
1257.42845	16177.7625
1260.97859	16685.5625
1264.52631	17156.1625
1268.07163	17590.8625
1271.61453	18044.4625
1275.15503	18441.2625
1278.69312	18608.8625
1282.22882	18734.3625
1285.76211	19077.0625
1289.29301	19689.5625
1292.82151	20224.3625
1296.34761	20775.4625
1299.87133	21697.5625
1303.39266	23305.6625
1306.9116	25857.8625
1310.42815	28801.5625
1313.94233	30581.1625
1317.45412	30197.5625
1320.96354	28308.4625
1324.47058	26149.6625
1327.97525	24297.5625
1331.47754	23188.0625
1334.97747	22821.8625
1338.47502	22986.2625
1341.97022	23505.3625
1345.46305	24279.7625
1348.95352	25358.7625
1352.44163	27055.6625
1355.92738	29586.7625
1359.41078	33711.9625
1362.89183	37984.1625
1366.37053	37321.0625
1369.84688	31856.9625
1373.32088	26144.7625
1376.79254	22530.0625
1380.26186	20715.7625
1383.72883	19766.1625
1387.19347	19080.3625
1390.65578	18334.2625
1394.11575	17679.2625
1397.57339	17330.4625
1401.0287	17331.6625
1404.48168	17599.8625
1407.93234	18011.0625
1411.38068	18364.9625
1414.82669	18471.8625
1418.27039	18211.8625
1421.71177	17761.5625
1425.15083	17332.5625
1428.58758	17046.5625
1432.02203	17007.2625
1435.45416	17117.5625
1438.88399	17205.6625
1442.31151	17241.7625
1445.73673	17336.7625
1449.15965	17465.1625
1452.58027	17399.4625
1455.9986	17261.3625
1459.41463	17154.6625
1462.82837	17309.3625
1466.23982	17605.3625
1469.64898	18041.5625
1473.05586	18388.3625
1476.46045	18654.4625
1479.86276	19009.7625
1483.26279	19538.9625
1486.66054	20048.6625
1490.05602	20785.6625
1493.44922	21706.6625
1496.84016	23037.4625
1500.22882	25112.6625
1503.61521	27866.0625
1506.99934	31151.3625
1510.38121	34184.8625
1513.76081	35590.0625
1517.13816	34062.5625
1520.51324	30208.6625
1523.88607	26231.8625
1527.25665	23414.4625
1530.62498	21743.9625
1533.99105	20688.8625
1537.35488	20055.8625
1540.71647	19656.3625
1544.07581	19459.7625
1547.4329	19316.1625
1550.78776	19180.5625
1554.14038	19132.7625
1557.49077	19286.7625
1560.83892	19587.4625
1564.18484	20144.0625
1567.52853	20722.6625
1570.86999	21264.3625
1574.20922	21772.2625
1577.54624	21828.2625
1580.88103	21001.3625
1584.2136	19840.5625
1587.54395	19082.9625
1590.87208	19188.6625
1594.19801	20084.1625
1597.52172	21379.9625
1600.84321	21901.3625
1604.16251	21158.0625
1607.47959	19717.7625
1610.79447	18331.0625
1614.10715	16883.2625
1617.41763	15794.3625
1620.7259	15060.2625
1624.03199	14758.5625
1627.33587	14769.9625
1630.63757	15128.5625
1633.93707	15779.2625
1637.23439	16887.7625
1640.52951	18370.1625
1643.82246	20298.1625
1647.11321	22607.8625
1650.40179	24403.4625
1653.68819	24042.2625
1656.97241	21186.2625
1660.25446	17789.5625
1663.53433	15305.2625
1666.81203	13814.0625
1670.08756	12954.6625
1673.36092	12444.4625
1676.63211	12070.7625
1679.90115	11853.0625
1683.16801	11672.2625
1686.43272	11550.8625
1689.69527	11487.5625
1692.95567	11411.3625
1696.2139	11403.9625
1699.46999	11395.0625
1702.72392	11363.4625
1705.97571	11319.0625
1709.22535	11300.3625
1712.47284	11276.4625
1715.71819	11300.5625
1718.96139	11270.5625
1722.20246	11250.2625
1725.44139	11204.8625
1728.67818	11146.2625
1731.91284	11013.7625
1735.14537	10974.4625
1738.37576	10924.9625
1741.60403	10852.8625
1744.83017	10843.5625
1748.05418	10779.1625
1751.27607	10771.4625
1754.49584	10758.9625
1757.71349	10740.6625
1760.92903	10733.8625
1764.14244	10735.5625
1767.35375	10745.8625
1770.56294	10705.6625
1773.77002	10664.9625
1776.97499	10657.7625
1780.17785	10606.8625
1783.37861	10587.7625
1786.57727	10565.5625
1789.77382	10528.0625
1792.96828	10498.8625
1796.16064	10518.8625
1799.3509	10506.3625
1802.53907	10482.5625
1805.72514	10449.6625
1808.90913	10421.5625
1812.09102	10387.6625
1815.27083	10378.0625
1818.44856	10353.3625
1821.6242	10323.5625
1824.79776	10343.2625
1827.96924	10318.3625
1831.13864	10326.3625
1834.30597	10313.2625
1837.47122	10326.9625
1840.6344	10314.8625
1843.7955	10295.7625
1846.95454	10294.4625
1850.11151	10300.5625
1853.26642	10331.5625
1856.41926	10286.8625
1859.57004	10329.0625
1862.71876	10281.1625
1865.86542	10298.4625
1869.01003	10323.2625
1872.15258	10331.9625
1875.29308	10341.7625
1878.43152	10336.2625
1881.56792	10345.3625
1884.70227	10337.1625
1887.83457	10330.5625
1890.96482	10358.6625
1894.09304	10330.5625
1897.21921	10349.8625
1900.34335	10332.7625
1903.46544	10314.3625
1906.58551	10316.9625
1909.70353	10320.3625
1912.81953	10318.7625
1915.93349	10292.5625
1919.04543	10283.2625
1922.15534	10269.3625
1925.26322	10251.9625
1928.36908	10221.7625
1931.47292	10186.1625
1934.57473	10145.5625
1937.67453	10083.8625
1940.77232	10060.2625
1943.86808	9995.8625
1946.96184	9968.9625
1950.05358	9926.3625
1953.14331	9892.9625
1956.23103	9870.3625
1959.31675	9853.3625
1962.40046	9816.2625
1965.48217	9745.8625
1968.56188	9760.9625
1971.63959	9741.3625
1974.7153	9709.0625
1977.78901	9680.8625
1980.86073	9639.9625
1983.93046	9602.0625
1986.99819	9573.9625
1990.06394	9563.3625
1993.1277	9509.6625
1996.18947	9482.7625
1999.24925	9448.8625
2002.30706	9413.6625
2005.36288	9388.2625
2008.41672	9356.1625
2011.46859	9343.4625
2014.51848	9311.8625
2017.56639	9311.9625
2020.61233	9266.7625
2023.6563	9246.4625
2026.6983	9214.3625
2029.73833	9213.6625
2032.7764	9172.6625
2035.8125	9161.2625
2038.84664	9119.4625
2041.87881	9095.4625
2044.90903	9112.3625
2047.93729	9088.2625
2050.96359	9079.6625
2053.98794	9060.8625
2057.01034	9045.9625
2060.03078	9038.5625
2063.04927	9035.3625
2066.06582	9019.7625
2069.08042	9021.7625
2072.09307	8997.3625
2075.10378	8997.2625
2078.11255	8969.0625
2081.11938	8991.4625
2084.12426	8983.0625
2087.12722	8971.0625
2090.12824	8972.4625
2093.12732	8996.1625
2096.12447	8971.3625
2099.11969	8946.7625
2102.11299	8953.6625
2105.10435	8956.5625
2108.09379	8966.1625
2111.08131	8982.8625
2114.0669	8997.4625
2117.05057	8967.1625
2120.03233	8962.6625
2123.01216	8983.5625
2125.99008	8990.3625
2128.96609	8983.4625
2131.94018	8990.2625
2134.91236	8993.7625
2137.88263	9017.4625
2140.851	9004.2625
2143.81746	9015.6625
2146.78201	9007.5625
2149.74466	9013.7625
2152.7054	9004.0625
2155.66425	8990.1625
2158.6212	8994.0625
2161.57625	8998.5625
2164.52941	8988.3625
2167.48067	8985.0625
2170.43004	8975.1625
2173.37752	8989.4625
2176.32311	8979.2625
2179.26681	8968.1625
2182.20863	8967.8625
2185.14856	8965.4625
2188.08661	8950.1625
2191.02278	8953.1625
2193.95707	8934.0625
2196.88948	8936.2625
2199.82001	8947.1625
2202.74867	8910.2625
2205.67545	8924.3625
2208.60037	8903.1625
2211.52341	8904.4625
2214.44458	8892.3625
2217.36388	8883.9625
2220.28132	8851.5625
2223.1969	8852.4625
2226.11061	8803.9625
2229.02246	8811.1625
2231.93245	8796.4625
2234.84058	8746.1625
2237.74686	8728.1625
2240.65128	8743.9625
2243.55385	8693.9625
2246.45456	8700.1625
2249.35343	8700.6625
2252.25044	8714.6625
2255.14561	8672.2625
2258.03893	8699.5625
2260.93041	8697.5625
2263.82004	8664.6625
2266.70783	8658.4625
2269.59378	8634.0625
2272.4779	8592.7625
2275.36017	8581.3625
2278.24061	8564.4625
2281.11922	8537.3625
2283.996	8526.1625
2286.87094	8517.8625
2289.74405	8504.0625
2292.61534	8479.2625
2295.4848	8433.9625
2298.35243	8453.3625
2301.21824	8423.4625
2304.08223	8414.8625
2306.94439	8450.1625
2309.80474	8432.5625
2312.66327	8435.5625
2315.51999	8425.8625
2318.37489	8430.1625
2321.22797	8409.8625
2324.07925	8406.1625
2326.92871	8395.4625
2329.77637	8377.2625
2332.62222	8391.0625
2335.46626	8367.8625
2338.3085	8354.3625
2341.14893	8369.9625
2343.98756	8379.0625
2346.8244	8366.7625
2349.65943	8385.4625
2352.49267	8380.5625
2355.32411	8379.8625
2358.15376	8365.2625
2360.98161	8405.0625
2363.80768	8401.7625
2366.63195	8414.1625
2369.45444	8394.2625
2372.27514	8381.9625
2375.09405	8360.2625
2377.91118	8346.4625
2380.72652	8311.5625
2383.54009	8285.0625
2386.35187	8257.9625
2389.16188	8224.4625
2391.97011	8210.0625
2394.77657	8192.5625
2397.58125	8167.3625
2400.38416	8156.3625
2403.18529	8130.7625
2405.98466	8122.2625
2408.78226	8098.4625
2411.57809	8075.8625
2414.37216	8054.4625
2417.16446	8055.3625
2419.955	8036.0625
2422.74378	8039.3625
2425.5308	8028.7625
2428.31606	8018.7625
2431.09956	8038.9625
2433.88131	8000.4625
2436.6613	8010.4625
2439.43954	8005.4625
2442.21603	7990.4625
2444.99077	8010.9625
2447.76377	7989.1625
2450.53501	8013.3625
2453.30451	7997.6625
2456.07226	7983.5625
2458.83827	7981.1625
2461.60254	7976.1625
2464.36507	7956.3625
2467.12586	7953.1625
2469.88492	7943.5625
2472.64224	7942.8625
2475.39782	7975.4625
2478.15167	7986.4625
2480.90379	7987.0625
2483.65417	7985.4625
2486.40283	7998.1625
2489.14976	8007.8625
2491.89497	7999.2625
2494.63845	8015.1625
2497.3802	8040.6625
2500.12024	8018.5625
2502.85855	8003.3625
2505.59514	7978.7625
2508.33002	7974.7625
2511.06318	7930.9625
2513.79462	7899.1625
2516.52435	7888.4625
2519.25237	7873.3625
2521.97867	7832.5625
2524.70327	7828.9625
2527.42616	7827.9625
2530.14734	7811.5625
2532.86681	7801.9625
2535.58458	7768.7625
2538.30065	7763.3625
2541.01501	7796.4625
2543.72768	7769.5625
2546.43864	7776.0625
2549.14791	7747.6625
2551.85548	7773.7625
2554.56136	7760.7625
2557.26554	7735.8625
2559.96803	7744.9625
2562.66883	7732.9625
2565.36794	7721.1625
2568.06536	7707.0625
2570.7611	7670.7625
2573.45514	7680.2625
2576.14751	7702.3625
2578.83819	7643.6625
2581.52719	7653.5625
2584.21451	7652.1625
2586.90015	7641.2625
2589.58411	7637.1625
2592.2664	7615.5625
2594.94701	7618.2625
2597.62594	7606.7625
2600.30321	7593.3625
2602.9788	7570.0625
2605.65273	7593.5625
2608.32498	7585.3625
2610.99557	7582.2625
2613.66449	7589.2625
2616.33175	7570.5625
2618.99734	7555.5625
2621.66128	7559.2625
2624.32355	7558.4625
2626.98416	7570.6625
2629.64311	7525.1625
2632.30041	7528.1625
2634.95605	7514.9625
2637.61004	7510.7625
2640.26238	7495.8625
2642.91306	7491.7625
2645.56209	7486.5625
2648.20948	7486.1625
2650.85521	7455.8625
2653.4993	7468.8625
2656.14175	7461.5625
2658.78255	7471.5625
2661.42171	7459.0625
2664.05923	7480.1625
2666.6951	7472.6625
2669.32934	7496.0625
2671.96194	7502.1625
2674.59291	7508.9625
2677.22224	7512.4625
2679.84993	7511.9625
2682.476	7485.6625
2685.10043	7503.4625
2687.72324	7501.2625
2690.34441	7493.8625
2692.96396	7485.5625
2695.58188	7499.8625
2698.19818	7477.5625
2700.81285	7495.6625
2703.4259	7508.8625
2706.03733	7570.4625
2708.64714	7525.5625
2711.25533	7517.1625
2713.86191	7497.8625
2716.46687	7509.6625
2719.07021	7505.5625
2721.67194	7516.3625
2724.27206	7485.9625
2726.87057	7500.2625
2729.46747	7510.0625
2732.06276	7494.9625
2734.65644	7479.0625
2737.24852	7500.6625
2739.83899	7479.6625
2742.42786	7501.2625
2745.01513	7467.0625
2747.60079	7455.6625
2750.18486	7451.7625
2752.76733	7443.5625
2755.3482	7470.6625
2757.92747	7463.7625
2760.50515	7437.8625
2763.08123	7431.2625
2765.65573	7406.5625
2768.22863	7407.1625
2770.79994	7397.2625
2773.36967	7380.9625
2775.9378	7380.8625
2778.50435	7365.2625
2781.06932	7373.3625
2783.6327	7377.0625
2786.1945	7368.7625
2788.75471	7366.2625
2791.31335	7329.5625
2793.87041	7331.3625
2796.42589	7317.6625
2798.97979	7308.3625
2801.53212	7312.8625
2804.08288	7313.3625
2806.63206	7286.8625
2809.17967	7271.7625
2811.72571	7289.0625
2814.27018	7299.3625
2816.81308	7293.5625
2819.35442	7276.0625
2821.89419	7288.5625
2824.43239	7292.7625
2826.96904	7288.4625
2829.50412	7296.1625
2832.03763	7289.6625
2834.56959	7288.6625
2837.1	7290.7625
2839.62884	7305.3625
2842.15613	7316.5625
2844.68186	7324.5625
2847.20604	7349.8625
2849.72867	7359.1625
2852.24974	7370.4625
2854.76927	7377.9625
2857.28724	7362.1625
2859.80367	7342.2625
2862.31855	7339.5625
2864.83189	7315.8625
2867.34368	7320.8625
2869.85393	7307.3625
2872.36264	7295.2625
2874.8698	7316.9625
2877.37543	7297.6625
2879.87952	7284.1625
2882.38207	7300.4625
2884.88308	7281.4625
2887.38256	7284.5625
2889.88051	7268.9625
2892.37692	7251.6625
2894.8718	7258.6625
2897.36515	7281.7625
2899.85698	7261.3625
2902.34727	7277.9625
2904.83604	7281.4625
2907.32328	7295.1625
2909.809	7281.9625
2912.29319	7299.9625
2914.77587	7286.7625
2917.25702	7280.4625
2919.73665	7279.7625
2922.21476	7288.4625
2924.69136	7277.8625
2927.16644	7288.7625
2929.64	7254.3625
2932.11205	7215.9625
2934.58258	7200.0625
2937.05161	7206.7625
2939.51912	7195.9625
2941.98513	7181.4625
2944.44962	7143.3625
2946.91261	7095.3625
2949.37409	7109.5625
2951.83407	7069.5625
2954.29254	7054.1625
2956.74951	7040.8625
2959.20498	7041.6625
2961.65895	7022.1625
2964.11142	7017.2625
2966.56239	7015.8625
2969.01186	6999.0625
2971.45984	6948.1625
2973.90632	6966.0625
2976.35131	6920.7625
2978.7948	6922.5625
2981.23681	6889.5625
2983.67732	6887.6625
2986.11635	6865.4625
2988.55388	6842.3625
2990.98993	6823.2625
2993.4245	6832.0625
2995.85758	6786.3625
2998.28917	6805.9625
3000.71928	6770.4625
3003.14791	6767.2625
3005.57506	6751.3625
3008.00073	6743.2625
3010.42493	6725.6625
3012.84764	6723.1625
3015.26888	6713.5625
3017.68865	6709.9625
3020.10694	6680.9625
3022.52376	6674.9625
3024.9391	6668.3625
3027.35298	6658.2625
3029.76539	6658.3625
3032.17632	6639.3625
3034.5858	6622.7625
3036.9938	6623.8625
3039.40034	6612.5625
3041.80542	6620.7625
3044.20903	6572.3625
3046.61118	6563.5625
3049.01187	6547.3625
3051.4111	6541.3625
3053.80888	6538.2625
3056.20519	6513.6625
3058.60005	6520.6625
3060.99345	6491.9625
3063.3854	6486.6625
3065.7759	6467.0625
3068.16494	6460.5625
3070.55254	6435.0625
3072.93868	6415.8625
3075.32338	6394.7625
3077.70662	6370.0625
3080.08842	6358.0625
3082.46878	6363.4625
3084.84769	6323.7625
3087.22515	6324.1625
3089.60118	6311.8625
3091.97576	6299.1625
3094.3489	6307.8625
3096.72061	6289.2625
3099.09087	6294.7625
3101.4597	6294.7625
3103.82709	6299.2625
3106.19305	6255.0625
3108.55757	6251.2625
3110.92066	6240.1625
3113.28232	6251.2625
3115.64255	6197.3625
3118.00134	6206.5625
3120.35871	6193.8625
3122.71466	6196.6625
3125.06917	6193.5625
3127.42226	6190.6625
3129.77393	6175.4625
3132.12417	6179.5625
3134.47299	6166.9625
3136.82039	6196.2625
3139.16636	6193.4625
3141.51092	6176.2625
3143.85406	6174.4625
3146.19579	6186.1625
3148.53609	6185.4625
3150.87499	6204.9625
3153.21246	6180.8625
3155.54853	6206.9625
3157.88318	6188.3625
3160.21642	6203.8625
3162.54826	6169.0625
3164.87868	6186.8625
3167.2077	6186.2625
3169.5353	6197.7625
3171.86151	6176.1625
3174.18631	6182.2625
3176.5097	6180.2625
3178.83169	6137.2625
3181.15228	6154.5625
3183.47147	6157.4625
3185.78926	6154.4625
3188.10565	6143.4625
3190.42065	6145.5625
3192.73424	6146.9625
3195.04645	6158.5625
3197.35725	6164.8625
3199.66667	6162.7625
3201.97469	6175.0625
3204.28132	6153.4625
3206.58656	6166.5625
3208.8904	6167.0625
3211.19287	6164.8625
3213.49394	6173.1625
3215.79363	6179.1625
3218.09193	6169.3625
3220.38884	6176.4625
3222.68438	6200.0625
3224.97853	6171.3625
3227.2713	6184.1625
3229.56269	6157.9625
3231.8527	6136.4625
3234.14133	6130.6625
3236.42858	6117.7625
3238.71446	6120.4625
3240.99896	6112.0625
3243.28209	6094.4625
3245.56384	6090.6625
3247.84423	6095.5625
3250.12324	6078.4625
3252.40088	6070.7625
3254.67715	6084.2625
3256.95205	6053.4625
3259.22558	6057.6625
3261.49775	6045.4625
3263.76855	6039.8625
3266.03799	6022.2625
3268.30606	6028.9625
3270.57277	6022.4625
3272.83812	5992.9625
3275.10211	5981.4625
3277.36474	5995.0625
3279.62601	5988.4625
3281.88593	5964.4625
3284.14448	5983.1625
3286.40168	5960.4625
3288.65753	5964.7625
3290.91202	5970.6625
3293.16516	5931.0625
3295.41695	5941.6625
3297.66738	5888.9625
3299.91647	5856.3625
3302.16421	5829.6625
3304.4106	5806.2625
3306.65564	5761.7625
3308.89933	5744.6625
3311.14169	5705.0625
3313.38269	5656.3625
3315.62236	5609.6625
3317.86068	5564.6625
3320.09766	5516.1625
3322.3333	5446.9625
3324.5676	5472.3625
3326.80056	5378.9625
3329.03219	5335.7625
3331.26248	1.9625
3333.49143	-0.5375
3335.71905	1.0625
