Data from AgNP_FTO_APTES_CRN_50uM_R6G_10uM_NaF_0.1M_Addition_RamanShift__7__17-54-08-063.txt Node

Date: Wed Dec 15 17:54:08 GMT 2021
User: TCL
Spectrometer: QEP01345
Trigger mode: 4
Integration Time (sec): 7.000000E0
Scans to average: 10
Electric dark correction enabled: true
Nonlinearity correction enabled: false
Boxcar width: 0
XAxis mode: Raman Shifts
Number of Pixels in Spectrum: 1044
>>>>>Begin Spectral Data<<<<<
46.04893	0.5
50.45542	-1.9
54.85868	-0.5
59.25871	0.2
63.6555	59.7
68.04907	66.8
72.43941	70.9
76.82654	74.1
81.21044	74.3
85.59113	79.8
89.96862	83.3
94.34289	78.8
98.71396	85.4
103.08183	91.9
107.4465	91.7
111.80798	92.8
116.16626	96.4
120.52136	102.4
124.87327	102.2
129.222	107.5
133.56755	107.6
137.90993	118.5
142.24913	134.2
146.58517	141.1
150.91804	160.7
155.24774	195.1
159.57429	237.9
163.89768	300.4
168.21792	394.1
172.53501	536.4
176.84895	745.3
181.15975	1042.8
185.46741	1452.4
189.77193	2015.1
194.07331	2693.6
198.37157	3463
202.6667	4281.6
206.9587	5083.3
211.24758	5880.5
215.53334	6666.2
219.81599	7495.4
224.09553	8403
228.37195	9421.4
232.64527	10494.9
236.91549	11715.5
241.18261	12910.1
245.44663	14053.9
249.70755	15088.1
253.96539	16019.4
258.22014	16785.2
262.4718	17405
266.72039	17854.7
270.96589	18039.3
275.20832	18105.8
279.44768	17986.7
283.68397	17810.2
287.91719	17674.4
292.14735	17554.4
296.37445	17528.7
300.59849	17538.2
304.81948	17518.2
309.03742	17484
313.25231	17410.5
317.46415	17197.4
321.67296	16910.7
325.87872	16646.3
330.08145	16503.9
334.28114	16478.1
338.47781	16574.3
342.67145	16768.2
346.86207	16985.8
351.04966	17246.6
355.23424	17489.2
359.4158	17677.4
363.59435	17857.1
367.76989	17914.1
371.94243	17990.3
376.11196	18088.3
380.27849	18134.6
384.44203	18239.4
388.60257	18392.6
392.76012	18603
396.91468	18806.8
401.06626	19115.2
405.21485	19303.9
409.36047	19289.1
413.50311	19198.1
417.64277	19141.9
421.77947	19194.6
425.9132	19308.9
430.04396	19441.7
434.17176	19507.8
438.2966	19607.3
442.41849	19795.9
446.53742	20210.9
450.6534	20624.6
454.76644	20972.3
458.87653	21100.7
462.98368	20997
467.08789	20857.7
471.18916	20627.9
475.2875	20411.5
479.38291	20275.6
483.4754	20166.4
487.56496	19957.2
491.6516	19643.9
495.73531	19466.1
499.81612	19421.5
503.89401	19557.1
507.96899	19672.9
512.04106	19681.4
516.11023	19571.8
520.1765	19439.9
524.23987	19263
528.30034	19159.4
532.35792	19054.7
536.41261	18843.1
540.46441	18742.9
544.51333	18704.6
548.55936	18874.8
552.60252	19215.1
556.64279	19584.1
560.6802	19856.3
564.71473	20003.9
568.7464	20192.2
572.7752	20669.4
576.80114	21173.1
580.82422	21839.4
584.84444	22634.6
588.86181	23499.6
592.87633	24141.4
596.888	23932.7
600.89682	23027.8
604.9028	22568.8
608.90594	23172
612.90624	23884.8
616.90371	22671.6
620.89834	20189.7
624.89015	19106.7
628.87913	19028.1
632.86528	19128.9
636.84862	19159.1
640.82913	18974.3
644.80683	18628.3
648.78172	18461.4
652.75379	18477.1
656.72306	18574
660.68952	18701.1
664.65319	18654.3
668.61405	18430.2
672.57211	18417.3
676.52738	18491.5
680.47986	18490.5
684.42955	18401.4
688.37646	18366.9
692.32058	18446.5
696.26192	18661.5
700.20048	18874.6
704.13626	19024.7
708.06928	19115.7
711.99952	19107.7
715.927	19077.9
719.85171	19092.8
723.77365	18974.5
727.69284	18769.6
731.60928	18558.1
735.52295	18488.8
739.43388	18471.5
743.34206	18485
747.24749	18635.9
751.15017	18799.8
755.05012	19036.7
758.94733	19449.6
762.8418	20176.2
766.73354	21162
770.62254	22035.6
774.50882	22074.6
778.39237	21266
782.27321	20193.9
786.15132	19319.7
790.02671	18792.6
793.89938	18508.8
797.76935	18397.9
801.6366	18358.6
805.50115	18325.9
809.36299	18269.6
813.22213	18195.4
817.07857	18162
820.93231	18096.6
824.78336	18022.8
828.63172	17993.8
832.47738	17992
836.32036	17985.4
840.16066	17985.8
843.99827	18005.6
847.8332	17956.3
851.66546	17957.3
855.49504	17961.9
859.32195	17959.9
863.1462	17894.2
866.96777	17889
870.78668	17848.5
874.60293	17881.8
878.41652	17899.8
882.22745	17942
886.03573	17957.6
889.84136	17991.1
893.64433	17930.9
897.44466	17885.6
901.24235	17845.5
905.0374	17815
908.8298	17774.7
912.61957	17869.4
916.40671	17990
920.19121	18176.9
923.97308	18271.7
927.75233	18254.4
931.52895	18110.3
935.30295	17869.5
939.07433	17643.7
942.84309	17490.8
946.60924	17388.7
950.37278	17342.1
954.13371	17308.1
957.89203	17325.4
961.64774	17311.6
965.40086	17289.5
969.15137	17257.6
972.89929	17166.6
976.64461	17150.8
980.38733	17092.1
984.12747	17142.1
987.86502	17177
991.59999	17261.7
995.33237	17390.8
999.06217	17574.7
1002.78939	17822.1
1006.51404	18111.1
1010.23611	18401.6
1013.95561	18572.3
1017.67255	18581.1
1021.38692	18419.6
1025.09872	18153.1
1028.80796	17980.5
1032.51465	17966.8
1036.21877	18033.4
1039.92035	18116.4
1043.61937	18168.6
1047.31584	18233.3
1051.00976	18217.5
1054.70114	18363
1058.38998	18561.7
1062.07627	18815.5
1065.76003	19207.4
1069.44126	19603.6
1073.11995	20005.2
1076.79611	20225.5
1080.46974	20162.3
1084.14085	19960.6
1087.80943	19806.7
1091.47549	19770.1
1095.13903	19762.7
1098.80005	19488
1102.45857	19109.8
1106.11456	18780.1
1109.76805	18593.3
1113.41903	18568.8
1117.06751	18618.7
1120.71348	18775.7
1124.35696	18908.7
1127.99793	19103.4
1131.63641	19259.4
1135.2724	19212
1138.90589	19187.8
1142.5369	19199
1146.16542	19352.5
1149.79145	19528.3
1153.415	19637.1
1157.03607	19857.5
1160.65467	20305.7
1164.27079	21061.6
1167.88443	21989.1
1171.49561	23049.9
1175.10432	24212.5
1178.71056	25613
1182.31434	26928.8
1185.91565	27476.9
1189.51451	27228.4
1193.11091	26585
1196.70485	25816.1
1200.29634	25053.4
1203.88538	24568.7
1207.47197	24357
1211.05612	24191.2
1214.63782	23825.7
1218.21708	23304.7
1221.79391	22635.2
1225.36829	22243.2
1228.94024	21975.4
1232.50976	21768.7
1236.07685	21563.2
1239.6415	21419.1
1243.20374	21435.2
1246.76355	21553.1
1250.32093	21830.9
1253.8759	22157.7
1257.42845	22667.7
1260.97859	23186.3
1264.52631	23651.3
1268.07163	24175.4
1271.61453	24673.1
1275.15503	25223.9
1278.69312	25779.6
1282.22882	26476.8
1285.76211	27281.3
1289.29301	28250.8
1292.82151	29388.3
1296.34761	30756.1
1299.87133	32314.2
1303.39266	33831.3
1306.9116	35043.3
1310.42815	36067
1313.94233	36599
1317.45412	36574.9
1320.96354	36181.4
1324.47058	35776.2
1327.97525	35549.8
1331.47754	35361.9
1334.97747	35229.2
1338.47502	34982.4
1341.97022	34645.3
1345.46305	34225.3
1348.95352	33826.3
1352.44163	33768.5
1355.92738	34228.8
1359.41078	35198
1362.89183	35951.8
1366.37053	35439.5
1369.84688	33319.3
1373.32088	30477
1376.79254	28404.8
1380.26186	27615.4
1383.72883	27587.7
1387.19347	27662.9
1390.65578	27376.4
1394.11575	27243.8
1397.57339	27452.4
1401.0287	27823.2
1404.48168	28113.8
1407.93234	28082.7
1411.38068	27566.7
1414.82669	26732.8
1418.27039	25719.5
1421.71177	24690.4
1425.15083	23862.1
1428.58758	23487.2
1432.02203	23608.5
1435.45416	24161.7
1438.88399	24828.5
1442.31151	25330.9
1445.73673	25655.9
1449.15965	25791
1452.58027	25929.8
1455.9986	25874.6
1459.41463	25981.4
1462.82837	26335.5
1466.23982	26787.3
1469.64898	27211.8
1473.05586	27552.8
1476.46045	27673.4
1479.86276	27600.2
1483.26279	27395.6
1486.66054	27306
1490.05602	27391.1
1493.44922	27600.9
1496.84016	27840.4
1500.22882	28183.2
1503.61521	28663.7
1506.99934	29269.6
1510.38121	29675
1513.76081	29649.5
1517.13816	29264.5
1520.51324	28746.6
1523.88607	28336.3
1527.25665	28210.5
1530.62498	28308.1
1533.99105	28206.6
1537.35488	27935.2
1540.71647	27315.4
1544.07581	26650.1
1547.4329	25985.8
1550.78776	25349.2
1554.14038	24882.2
1557.49077	24655.1
1560.83892	24567.7
1564.18484	24617.5
1567.52853	24840.9
1570.86999	25240.3
1574.20922	25910
1577.54624	26602.7
1580.88103	27059.3
1584.2136	27328.6
1587.54395	27674.4
1590.87208	28301.9
1594.19801	29358.2
1597.52172	30502.4
1600.84321	30794.7
1604.16251	29695.3
1607.47959	27642.2
1610.79447	25549.4
1614.10715	23643.1
1617.41763	22105.2
1620.7259	21090.8
1624.03199	20552.5
1627.33587	20534.4
1630.63757	21040.9
1633.93707	22085.5
1637.23439	24019.5
1640.52951	26780.4
1643.82246	30132.8
1647.11321	32706.9
1650.40179	33119.2
1653.68819	30970.3
1656.97241	27361.8
1660.25446	23863.6
1663.53433	21273.8
1666.81203	19559.1
1670.08756	18413.8
1673.36092	17692.8
1676.63211	17244.3
1679.90115	16933.6
1683.16801	16688.9
1686.43272	16504.4
1689.69527	16382.1
1692.95567	16234.1
1696.2139	16201.8
1699.46999	16186.9
1702.72392	16127.5
1705.97571	16077.8
1709.22535	16030.4
1712.47284	16002.2
1715.71819	15950.2
1718.96139	15917.2
1722.20246	15866.5
1725.44139	15855.9
1728.67818	15760.2
1731.91284	15697.3
1735.14537	15617.8
1738.37576	15555.9
1741.60403	15500.1
1744.83017	15482.7
1748.05418	15412.3
1751.27607	15416
1754.49584	15364.5
1757.71349	15378.9
1760.92903	15355.5
1764.14244	15380.9
1767.35375	15365.1
1770.56294	15341.6
1773.77002	15326.5
1776.97499	15284.1
1780.17785	15270.2
1783.37861	15201
1786.57727	15184.6
1789.77382	15130.6
1792.96828	15116.5
1796.16064	15084.6
1799.3509	15040.3
1802.53907	15020.9
1805.72514	14983.8
1808.90913	14950.2
1812.09102	14948.4
1815.27083	14887.6
1818.44856	14900.7
1821.6242	14877.2
1824.79776	14867.5
1827.96924	14862.6
1831.13864	14845.1
1834.30597	14819.7
1837.47122	14847.8
1840.6344	14857.6
1843.7955	14818.7
1846.95454	14813.8
1850.11151	14799.8
1853.26642	14813.4
1856.41926	14788.9
1859.57004	14778.9
1862.71876	14789.4
1865.86542	14717.6
1869.01003	14704
1872.15258	14695.2
1875.29308	14703.2
1878.43152	14652.5
1881.56792	14635.8
1884.70227	14605.8
1887.83457	14599
1890.96482	14574.7
1894.09304	14573.3
1897.21921	14558.2
1900.34335	14561.5
1903.46544	14503.5
1906.58551	14497.8
1909.70353	14483.1
1912.81953	14454.8
1915.93349	14423.4
1919.04543	14387.8
1922.15534	14368.9
1925.26322	14360.4
1928.36908	14311
1931.47292	14277.7
1934.57473	14238.2
1937.67453	14210.1
1940.77232	14212.7
1943.86808	14151.9
1946.96184	14142.5
1950.05358	14139
1953.14331	14068.2
1956.23103	14028.4
1959.31675	14000.9
1962.40046	13964.6
1965.48217	13912.7
1968.56188	13868.3
1971.63959	13793.1
1974.7153	13784.9
1977.78901	13728.1
1980.86073	13672.9
1983.93046	13662.7
1986.99819	13636
1990.06394	13590.9
1993.1277	13554
1996.18947	13518.6
1999.24925	13453.6
2002.30706	13433.7
2005.36288	13368.1
2008.41672	13364
2011.46859	13302
2014.51848	13299.6
2017.56639	13236
2020.61233	13221.8
2023.6563	13189.7
2026.6983	13155.5
2029.73833	13170.9
2032.7764	13134.3
2035.8125	13100.8
2038.84664	13064.7
2041.87881	13027.7
2044.90903	12989.4
2047.93729	12992.6
2050.96359	12971.2
2053.98794	12965.8
2057.01034	12960.3
2060.03078	12937.8
2063.04927	12902.8
2066.06582	12911.1
2069.08042	12900.5
2072.09307	12899.6
2075.10378	12883.9
2078.11255	12861.4
2081.11938	12873.3
2084.12426	12875
2087.12722	12884.8
2090.12824	12867.4
2093.12732	12875.5
2096.12447	12895.1
2099.11969	12848.8
2102.11299	12870.7
2105.10435	12901.2
2108.09379	12918.5
2111.08131	12920.2
2114.0669	12926.2
2117.05057	12906.3
2120.03233	12922.8
2123.01216	12927.8
2125.99008	12931.6
2128.96609	12941.2
2131.94018	12958.2
2134.91236	12927.6
2137.88263	12980.9
2140.851	12949.2
2143.81746	12996.9
2146.78201	12992.4
2149.74466	12975.8
2152.7054	12976.6
2155.66425	12970.1
2158.6212	12985
2161.57625	12996.8
2164.52941	12986.1
2167.48067	12957.7
2170.43004	12973.5
2173.37752	12943.8
2176.32311	12941.6
2179.26681	12941.1
2182.20863	12959.3
2185.14856	12938.8
2188.08661	12932.5
2191.02278	12931.4
2193.95707	12929.5
2196.88948	12938.4
2199.82001	12897.4
2202.74867	12897.3
2205.67545	12883.9
2208.60037	12878.7
2211.52341	12865.3
2214.44458	12832.9
2217.36388	12788.6
2220.28132	12766.6
2223.1969	12785.8
2226.11061	12726.5
2229.02246	12732.5
2231.93245	12694.5
2234.84058	12696.4
2237.74686	12672.9
2240.65128	12650.4
2243.55385	12647.6
2246.45456	12614.3
2249.35343	12610.3
2252.25044	12587.2
2255.14561	12534.9
2258.03893	12551.9
2260.93041	12528.4
2263.82004	12473.4
2266.70783	12477.1
2269.59378	12413
2272.4779	12385.7
2275.36017	12359.9
2278.24061	12332.7
2281.11922	12317.1
2283.996	12302.5
2286.87094	12297.3
2289.74405	12242.6
2292.61534	12226.3
2295.4848	12252.9
2298.35243	12253.7
2301.21824	12219.9
2304.08223	12219.2
2306.94439	12195.4
2309.80474	12218.3
2312.66327	12190.7
2315.51999	12200.1
2318.37489	12152
2321.22797	12140.6
2324.07925	12109
2326.92871	12125
2329.77637	12100.1
2332.62222	12105.8
2335.46626	12065.6
2338.3085	12053.8
2341.14893	12055.9
2343.98756	12048.2
2346.8244	12029.2
2349.65943	12021.3
2352.49267	12027.9
2355.32411	12026.8
2358.15376	11995.5
2360.98161	12010.7
2363.80768	12016.2
2366.63195	12005.3
2369.45444	11945.1
2372.27514	11943.2
2375.09405	11944
2377.91118	11960.9
2380.72652	11917.2
2383.54009	11896.2
2386.35187	11871.2
2389.16188	11833.5
2391.97011	11813
2394.77657	11782.6
2397.58125	11788.6
2400.38416	11778.1
2403.18529	11775.6
2405.98466	11696.2
2408.78226	11727.9
2411.57809	11694.9
2414.37216	11673.1
2417.16446	11692.1
2419.955	11684.4
2422.74378	11660.4
2425.5308	11632.1
2428.31606	11599.8
2431.09956	11620.5
2433.88131	11592.6
2436.6613	11614.4
2439.43954	11601.1
2442.21603	11586.1
2444.99077	11548.4
2447.76377	11583.5
2450.53501	11563.3
2453.30451	11531.6
2456.07226	11512.5
2458.83827	11518
2461.60254	11513.6
2464.36507	11506
2467.12586	11490.9
2469.88492	11517.5
2472.64224	11483.1
2475.39782	11474.9
2478.15167	11518.1
2480.90379	11472.2
2483.65417	11485.1
2486.40283	11501.7
2489.14976	11459.8
2491.89497	11492.8
2494.63845	11518.1
2497.3802	11460.2
2500.12024	11464.2
2502.85855	11469.8
2505.59514	11453.1
2508.33002	11434
2511.06318	11419.7
2513.79462	11412.2
2516.52435	11410
2519.25237	11398.7
2521.97867	11382
2524.70327	11380.3
2527.42616	11380
2530.14734	11342.9
2532.86681	11327.8
2535.58458	11319.1
2538.30065	11316.7
2541.01501	11283.6
2543.72768	11276.8
2546.43864	11296.6
2549.14791	11277.6
2551.85548	11257
2554.56136	11215.1
2557.26554	11211.4
2559.96803	11226.8
2562.66883	11205
2565.36794	11197.1
2568.06536	11193.3
2570.7611	11148.8
2573.45514	11164.8
2576.14751	11135.6
2578.83819	11130.8
2581.52719	11137.4
2584.21451	11092
2586.90015	11076.7
2589.58411	11056.7
2592.2664	11046
2594.94701	11022.5
2597.62594	11029.4
2600.30321	11002.8
2602.9788	10980.7
2605.65273	10972.5
2608.32498	10963.8
2610.99557	10956.5
2613.66449	10966.6
2616.33175	10945.6
2618.99734	10917.8
2621.66128	10911.2
2624.32355	10923.7
2626.98416	10894.1
2629.64311	10916.1
2632.30041	10881.3
2634.95605	10905.4
2637.61004	10884.1
2640.26238	10866.6
2642.91306	10863.8
2645.56209	10855.9
2648.20948	10872.2
2650.85521	10834.7
2653.4993	10843.2
2656.14175	10834
2658.78255	10849
2661.42171	10847.1
2664.05923	10859.3
2666.6951	10850.7
2669.32934	10849.8
2671.96194	10831.8
2674.59291	10833.9
2677.22224	10827.4
2679.84993	10842
2682.476	10828.1
2685.10043	10854.4
2687.72324	10852.7
2690.34441	10869.2
2692.96396	10858.5
2695.58188	10833
2698.19818	10828.3
2700.81285	10885.2
2703.4259	10856.9
2706.03733	10898.9
2708.64714	10911.5
2711.25533	10896.1
2713.86191	10876
2716.46687	10887.2
2719.07021	10881
2721.67194	10884.1
2724.27206	10860.8
2726.87057	10858.7
2729.46747	10869.4
2732.06276	10878
2734.65644	10850.5
2737.24852	10874.6
2739.83899	10837.9
2742.42786	10868.6
2745.01513	10852.7
2747.60079	10835.2
2750.18486	10816.1
2752.76733	10847
2755.3482	10819.9
2757.92747	10827.5
2760.50515	10809.5
2763.08123	10801.6
2765.65573	10757.2
2768.22863	10773.3
2770.79994	10755.7
2773.36967	10766
2775.9378	10754.8
2778.50435	10734.9
2781.06932	10712
2783.6327	10730.6
2786.1945	10690.3
2788.75471	10670.7
2791.31335	10671.4
2793.87041	10640.6
2796.42589	10634.9
2798.97979	10613.8
2801.53212	10616.6
2804.08288	10619.2
2806.63206	10591.2
2809.17967	10527.4
2811.72571	10508.8
2814.27018	10515.8
2816.81308	10493.2
2819.35442	10507
2821.89419	10465.9
2824.43239	10479.1
2826.96904	10468.1
2829.50412	10448.9
2832.03763	10410.8
2834.56959	10409.9
2837.1	10393.7
2839.62884	10423.6
2842.15613	10401.3
2844.68186	10427.9
2847.20604	10398.8
2849.72867	10403.5
2852.24974	10371.3
2854.76927	10387.6
2857.28724	10392.3
2859.80367	10360.8
2862.31855	10339.4
2864.83189	10347.8
2867.34368	10321.9
2869.85393	10316.9
2872.36264	10293
2874.8698	10287.4
2877.37543	10312.6
2879.87952	10313.5
2882.38207	10290.1
2884.88308	10304
2887.38256	10290.4
2889.88051	10308.9
2892.37692	10300.1
2894.8718	10278.1
2897.36515	10298.2
2899.85698	10279.2
2902.34727	10315.4
2904.83604	10289.4
2907.32328	10309.6
2909.809	10306.7
2912.29319	10305
2914.77587	10314.9
2917.25702	10287.7
2919.73665	10304.3
2922.21476	10303.7
2924.69136	10302
2927.16644	10311.3
2929.64	10280.9
2932.11205	10291.4
2934.58258	10258.6
2937.05161	10275.1
2939.51912	10269.3
2941.98513	10269.4
2944.44962	10247.9
2946.91261	10186
2949.37409	10214
2951.83407	10200.8
2954.29254	10208.7
2956.74951	10189
2959.20498	10173.7
2961.65895	10189.4
2964.11142	10182.9
2966.56239	10144.4
2969.01186	10156.5
2971.45984	10115.5
2973.90632	10093.7
2976.35131	10063.7
2978.7948	10052.1
2981.23681	10037.3
2983.67732	10025.1
2986.11635	10033.1
2988.55388	10002.8
2990.98993	9952.3
2993.4245	9926.7
2995.85758	9903.4
2998.28917	9898.6
3000.71928	9896.5
3003.14791	9872
3005.57506	9874.4
3008.00073	9835
3010.42493	9821
3012.84764	9793.7
3015.26888	9778.6
3017.68865	9748.5
3020.10694	9783.2
3022.52376	9740.6
3024.9391	9745.7
3027.35298	9737.9
3029.76539	9716.9
3032.17632	9729.3
3034.5858	9684.1
3036.9938	9702.5
3039.40034	9690.3
3041.80542	9665.1
3044.20903	9644.7
3046.61118	9642
3049.01187	9597.8
3051.4111	9610.2
3053.80888	9603.7
3056.20519	9578.7
3058.60005	9567.9
3060.99345	9532.2
3063.3854	9505.3
3065.7759	9498
3068.16494	9485.2
3070.55254	9452.8
3072.93868	9446.3
3075.32338	9421.2
3077.70662	9414
3080.08842	9348.9
3082.46878	9371.4
3084.84769	9368.5
3087.22515	9361.1
3089.60118	9361.6
3091.97576	9346.9
3094.3489	9337.3
3096.72061	9322.6
3099.09087	9342.4
3101.4597	9322.1
3103.82709	9307.5
3106.19305	9310
3108.55757	9308.4
3110.92066	9281.4
3113.28232	9251.6
3115.64255	9221.9
3118.00134	9199.7
3120.35871	9203.2
3122.71466	9179.8
3125.06917	9164.6
3127.42226	9178.1
3129.77393	9184.3
3132.12417	9182.5
3134.47299	9175.4
3136.82039	9151.1
3139.16636	9157.3
3141.51092	9166.3
3143.85406	9183.7
3146.19579	9159.7
3148.53609	9167.3
3150.87499	9159
3153.21246	9166.7
3155.54853	9195.8
3157.88318	9166.7
3160.21642	9162.6
3162.54826	9132.8
3164.87868	9152.8
3167.2077	9161.8
3169.5353	9155.3
3171.86151	9168
3174.18631	9152.5
3176.5097	9157.3
3178.83169	9118.6
3181.15228	9133.8
3183.47147	9127.1
3185.78926	9125.6
3188.10565	9089.3
3190.42065	9105.2
3192.73424	9081.5
3195.04645	9091
3197.35725	9099.1
3199.66667	9083.3
3201.97469	9101.1
3204.28132	9076.7
3206.58656	9107.4
3208.8904	9096.1
3211.19287	9106.4
3213.49394	9059.2
3215.79363	9085.9
3218.09193	9087.4
3220.38884	9097.6
3222.68438	9082.7
3224.97853	9076.5
3227.2713	9058.2
3229.56269	9040.9
3231.8527	9050.2
3234.14133	9018.3
3236.42858	9004.3
3238.71446	9002.4
3240.99896	8978.6
3243.28209	8990.5
3245.56384	8973.9
3247.84423	8970
3250.12324	8948.6
3252.40088	8948.5
3254.67715	8944.5
3256.95205	8922.3
3259.22558	8929.8
3261.49775	8933.8
3263.76855	8925.4
3266.03799	8866.8
3268.30606	8876
3270.57277	8846.8
3272.83812	8853.3
3275.10211	8829.3
3277.36474	8814.2
3279.62601	8807.9
3281.88593	8792.5
3284.14448	8792.5
3286.40168	8806.5
3288.65753	8788
3290.91202	8787.3
3293.16516	8744.3
3295.41695	8743.9
3297.66738	8669
3299.91647	8614.4
3302.16421	8597.9
3304.4106	8546.6
3306.65564	8510.4
3308.89933	8438.1
3311.14169	8393.9
3313.38269	8332.2
3315.62236	8292.3
3317.86068	8212.2
3320.09766	8138
3322.3333	8052.8
3324.5676	8069.1
3326.80056	7940.4
3329.03219	7912.4
3331.26248	3.1
3333.49143	-0.7
3335.71905	-0.4
