Data from AgNP_FTO_APTES_CRN_0uM_R6G_10uM_NaF_0.1M_Addition_RamanShift__7__11-37-52-902.txt Node

Date: Wed Dec 15 11:37:52 GMT 2021
User: TCL
Spectrometer: QEP01345
Trigger mode: 4
Integration Time (sec): 7.000000E0
Scans to average: 10
Electric dark correction enabled: true
Nonlinearity correction enabled: false
Boxcar width: 0
XAxis mode: Raman Shifts
Number of Pixels in Spectrum: 1044
>>>>>Begin Spectral Data<<<<<
46.04893	1.2375
50.45542	-1.7625
54.85868	-0.6625
59.25871	0.1375
63.6555	72.6375
68.04907	78.7375
72.43941	88.7375
76.82654	96.3375
81.21044	99.7375
85.59113	108.3375
89.96862	117.0375
94.34289	119.3375
98.71396	123.9375
103.08183	128.2375
107.4465	128.1375
111.80798	124.8375
116.16626	127.5375
120.52136	128.0375
124.87327	124.1375
129.222	125.9375
133.56755	124.2375
137.90993	127.4375
142.24913	123.1375
146.58517	127.6375
150.91804	132.1375
155.24774	137.5375
159.57429	152.7375
163.89768	172.4375
168.21792	194.3375
172.53501	229.3375
176.84895	290.4375
181.15975	375.0375
185.46741	505.0375
189.77193	683.3375
194.07331	911.2375
198.37157	1183.0375
202.6667	1478.9375
206.9587	1785.2375
211.24758	2108.0375
215.53334	2418.0375
219.81599	2741.7375
224.09553	3084.8375
228.37195	3471.6375
232.64527	3857.6375
236.91549	4277.4375
241.18261	4692.3375
245.44663	5054.9375
249.70755	5398.6375
253.96539	5636.7375
258.22014	5800.5375
262.4718	5865.1375
266.72039	5848.3375
270.96589	5754.6375
275.20832	5625.4375
279.44768	5397.8375
283.68397	5181.1375
287.91719	4984.6375
292.14735	4814.7375
296.37445	4665.3375
300.59849	4575.3375
304.81948	4531.1375
309.03742	4489.0375
313.25231	4450.1375
317.46415	4413.2375
321.67296	4361.2375
325.87872	4333.3375
330.08145	4318.8375
334.28114	4294.3375
338.47781	4286.4375
342.67145	4268.6375
346.86207	4217.0375
351.04966	4179.5375
355.23424	4124.4375
359.4158	4060.8375
363.59435	3995.3375
367.76989	3925.5375
371.94243	3867.5375
376.11196	3803.2375
380.27849	3748.5375
384.44203	3713.7375
388.60257	3688.2375
392.76012	3662.6375
396.91468	3657.1375
401.06626	3673.8375
405.21485	3683.6375
409.36047	3675.6375
413.50311	3654.4375
417.64277	3623.5375
421.77947	3603.5375
425.9132	3619.4375
430.04396	3634.8375
434.17176	3668.6375
438.2966	3700.7375
442.41849	3721.3375
446.53742	3768.0375
450.6534	3785.0375
454.76644	3805.6375
458.87653	3826.9375
462.98368	3820.4375
467.08789	3811.1375
471.18916	3809.8375
475.2875	3774.0375
479.38291	3775.7375
483.4754	3757.7375
487.56496	3745.1375
491.6516	3735.9375
495.73531	3740.4375
499.81612	3753.8375
503.89401	3781.1375
507.96899	3808.0375
512.04106	3833.5375
516.11023	3873.8375
520.1765	3891.1375
524.23987	3902.8375
528.30034	3884.0375
532.35792	3882.2375
536.41261	3867.1375
540.46441	3858.3375
544.51333	3841.6375
548.55936	3868.0375
552.60252	3902.9375
556.64279	3947.4375
560.6802	3971.2375
564.71473	3966.0375
568.7464	3944.2375
572.7752	3929.4375
576.80114	3881.3375
580.82422	3837.7375
584.84444	3842.9375
588.86181	3891.3375
592.87633	3983.0375
596.888	4112.4375
600.89682	4296.4375
604.9028	4589.9375
608.90594	5028.6375
612.90624	5478.4375
616.90371	5388.4375
620.89834	4749.5375
624.89015	4248.7375
628.87913	3950.6375
632.86528	3783.7375
636.84862	3691.9375
640.82913	3628.4375
644.80683	3579.8375
648.78172	3536.2375
652.75379	3551.6375
656.72306	3601.4375
660.68952	3628.6375
664.65319	3649.9375
668.61405	3637.0375
672.57211	3629.8375
676.52738	3637.3375
680.47986	3683.5375
684.42955	3698.4375
688.37646	3693.8375
692.32058	3697.2375
696.26192	3687.2375
700.20048	3728.6375
704.13626	3752.1375
708.06928	3802.3375
711.99952	3833.0375
715.927	3854.9375
719.85171	3883.4375
723.77365	3891.9375
727.69284	3888.8375
731.60928	3875.7375
735.52295	3880.5375
739.43388	3861.2375
743.34206	3872.6375
747.24749	3884.8375
751.15017	3880.7375
755.05012	3910.6375
758.94733	3936.8375
762.8418	4002.2375
766.73354	4124.1375
770.62254	4290.5375
774.50882	4389.8375
778.39237	4306.1375
782.27321	4133.4375
786.15132	3963.8375
790.02671	3869.8375
793.89938	3830.1375
797.76935	3797.3375
801.6366	3793.0375
805.50115	3772.5375
809.36299	3772.2375
813.22213	3739.8375
817.07857	3739.1375
820.93231	3735.3375
824.78336	3719.3375
828.63172	3735.1375
832.47738	3731.3375
836.32036	3735.5375
840.16066	3762.9375
843.99827	3769.1375
847.8332	3780.3375
851.66546	3791.7375
855.49504	3777.8375
859.32195	3768.4375
863.1462	3787.3375
866.96777	3818.5375
870.78668	3832.0375
874.60293	3864.4375
878.41652	3879.8375
882.22745	3937.6375
886.03573	4011.0375
889.84136	4107.8375
893.64433	4185.8375
897.44466	4310.5375
901.24235	4424.2375
905.0374	4571.6375
908.8298	4737.5375
912.61957	4906.9375
916.40671	5107.8375
920.19121	5308.7375
923.97308	5444.4375
927.75233	5490.0375
931.52895	5452.9375
935.30295	5301.1375
939.07433	5075.3375
942.84309	4857.3375
946.60924	4655.8375
950.37278	4489.0375
954.13371	4353.2375
957.89203	4230.2375
961.64774	4105.7375
965.40086	3988.5375
969.15137	3904.3375
972.89929	3835.3375
976.64461	3768.5375
980.38733	3733.1375
984.12747	3708.2375
987.86502	3715.1375
991.59999	3740.1375
995.33237	3776.9375
999.06217	3839.6375
1002.78939	3889.1375
1006.51404	3946.0375
1010.23611	3974.9375
1013.95561	3960.7375
1017.67255	3920.0375
1021.38692	3863.4375
1025.09872	3802.3375
1028.80796	3794.3375
1032.51465	3834.3375
1036.21877	3879.5375
1039.92035	3959.6375
1043.61937	4039.3375
1047.31584	4152.0375
1051.00976	4250.6375
1054.70114	4357.8375
1058.38998	4430.2375
1062.07627	4471.6375
1065.76003	4498.0375
1069.44126	4467.4375
1073.11995	4448.9375
1076.79611	4450.7375
1080.46974	4419.9375
1084.14085	4397.8375
1087.80943	4345.1375
1091.47549	4289.6375
1095.13903	4229.8375
1098.80005	4131.2375
1102.45857	4063.5375
1106.11456	3992.5375
1109.76805	3945.6375
1113.41903	3945.0375
1117.06751	3924.5375
1120.71348	3934.7375
1124.35696	3931.4375
1127.99793	3930.9375
1131.63641	3900.6375
1135.2724	3810.5375
1138.90589	3692.0375
1142.5369	3625.1375
1146.16542	3523.8375
1149.79145	3463.2375
1153.415	3402.8375
1157.03607	3373.6375
1160.65467	3366.2375
1164.27079	3399.5375
1167.88443	3482.8375
1171.49561	3625.8375
1175.10432	3852.9375
1178.71056	4183.4375
1182.31434	4569.7375
1185.91565	4917.6375
1189.51451	5102.1375
1193.11091	5061.5375
1196.70485	4878.0375
1200.29634	4602.2375
1203.88538	4292.9375
1207.47197	4023.8375
1211.05612	3781.9375
1214.63782	3655.4375
1218.21708	3606.6375
1221.79391	3610.9375
1225.36829	3648.5375
1228.94024	3704.4375
1232.50976	3701.5375
1236.07685	3652.4375
1239.6415	3572.4375
1243.20374	3490.9375
1246.76355	3436.6375
1250.32093	3409.7375
1253.8759	3396.0375
1257.42845	3418.5375
1260.97859	3462.8375
1264.52631	3520.5375
1268.07163	3579.4375
1271.61453	3644.3375
1275.15503	3669.7375
1278.69312	3721.3375
1282.22882	3768.6375
1285.76211	3851.4375
1289.29301	3962.0375
1292.82151	4057.0375
1296.34761	4116.7375
1299.87133	4184.7375
1303.39266	4238.3375
1306.9116	4325.4375
1310.42815	4431.1375
1313.94233	4451.9375
1317.45412	4373.2375
1320.96354	4212.0375
1324.47058	4058.5375
1327.97525	3940.1375
1331.47754	3870.6375
1334.97747	3865.6375
1338.47502	3873.1375
1341.97022	3892.1375
1345.46305	3978.1375
1348.95352	4104.9375
1352.44163	4304.9375
1355.92738	4546.4375
1359.41078	4851.6375
1362.89183	5168.6375
1366.37053	5231.5375
1369.84688	4968.4375
1373.32088	4567.6375
1376.79254	4301.6375
1380.26186	4142.2375
1383.72883	4082.4375
1387.19347	4042.4375
1390.65578	3998.0375
1394.11575	3951.9375
1397.57339	3916.2375
1401.0287	3879.6375
1404.48168	3851.1375
1407.93234	3813.8375
1411.38068	3792.7375
1414.82669	3775.1375
1418.27039	3723.0375
1421.71177	3660.5375
1425.15083	3593.8375
1428.58758	3517.4375
1432.02203	3481.3375
1435.45416	3472.4375
1438.88399	3490.7375
1442.31151	3514.9375
1445.73673	3547.9375
1449.15965	3521.9375
1452.58027	3516.5375
1455.9986	3452.3375
1459.41463	3404.7375
1462.82837	3386.8375
1466.23982	3380.4375
1469.64898	3381.6375
1473.05586	3384.0375
1476.46045	3398.1375
1479.86276	3411.6375
1483.26279	3425.0375
1486.66054	3466.9375
1490.05602	3462.3375
1493.44922	3488.4375
1496.84016	3554.9375
1500.22882	3652.3375
1503.61521	3807.0375
1506.99934	3981.8375
1510.38121	4179.0375
1513.76081	4240.4375
1517.13816	4113.3375
1520.51324	3875.8375
1523.88607	3634.2375
1527.25665	3479.1375
1530.62498	3380.1375
1533.99105	3316.9375
1537.35488	3283.7375
1540.71647	3252.2375
1544.07581	3233.1375
1547.4329	3223.3375
1550.78776	3220.2375
1554.14038	3215.0375
1557.49077	3207.0375
1560.83892	3222.1375
1564.18484	3236.3375
1567.52853	3248.4375
1570.86999	3279.9375
1574.20922	3311.8375
1577.54624	3325.1375
1580.88103	3298.8375
1584.2136	3211.1375
1587.54395	3145.1375
1590.87208	3096.3375
1594.19801	3082.3375
1597.52172	3131.1375
1600.84321	3136.5375
1604.16251	3098.5375
1607.47959	3049.5375
1610.79447	3008.5375
1614.10715	2969.9375
1617.41763	2934.9375
1620.7259	2895.8375
1624.03199	2887.7375
1627.33587	2884.6375
1630.63757	2904.3375
1633.93707	2917.6375
1637.23439	2946.9375
1640.52951	2996.5375
1643.82246	3088.2375
1647.11321	3207.4375
1650.40179	3309.7375
1653.68819	3256.4375
1656.97241	3063.9375
1660.25446	2855.3375
1663.53433	2677.2375
1666.81203	2552.8375
1670.08756	2482.0375
1673.36092	2426.6375
1676.63211	2389.1375
1679.90115	2348.0375
1683.16801	2332.2375
1686.43272	2302.2375
1689.69527	2282.8375
1692.95567	2262.4375
1696.2139	2238.7375
1699.46999	2206.4375
1702.72392	2198.3375
1705.97571	2193.2375
1709.22535	2192.5375
1712.47284	2175.6375
1715.71819	2178.3375
1718.96139	2171.1375
1722.20246	2146.3375
1725.44139	2141.5375
1728.67818	2117.5375
1731.91284	2106.0375
1735.14537	2102.1375
1738.37576	2091.2375
1741.60403	2080.6375
1744.83017	2068.8375
1748.05418	2060.4375
1751.27607	2054.1375
1754.49584	2045.5375
1757.71349	2029.5375
1760.92903	2025.1375
1764.14244	2013.8375
1767.35375	2016.3375
1770.56294	2011.1375
1773.77002	2004.7375
1776.97499	2013.0375
1780.17785	2011.9375
1783.37861	2009.1375
1786.57727	2004.3375
1789.77382	1994.7375
1792.96828	1990.9375
1796.16064	1995.3375
1799.3509	1984.6375
1802.53907	1984.6375
1805.72514	1979.4375
1808.90913	1952.4375
1812.09102	1962.7375
1815.27083	1955.8375
1818.44856	1956.9375
1821.6242	1960.1375
1824.79776	1945.2375
1827.96924	1939.0375
1831.13864	1941.8375
1834.30597	1940.0375
1837.47122	1937.5375
1840.6344	1934.6375
1843.7955	1927.0375
1846.95454	1928.7375
1850.11151	1915.7375
1853.26642	1927.9375
1856.41926	1913.7375
1859.57004	1910.4375
1862.71876	1906.7375
1865.86542	1903.9375
1869.01003	1890.4375
1872.15258	1884.1375
1875.29308	1888.8375
1878.43152	1867.3375
1881.56792	1885.4375
1884.70227	1881.4375
1887.83457	1871.9375
1890.96482	1864.0375
1894.09304	1860.6375
1897.21921	1862.1375
1900.34335	1856.9375
1903.46544	1854.2375
1906.58551	1859.3375
1909.70353	1841.0375
1912.81953	1846.7375
1915.93349	1838.7375
1919.04543	1825.4375
1922.15534	1823.3375
1925.26322	1827.0375
1928.36908	1823.0375
1931.47292	1808.1375
1934.57473	1804.5375
1937.67453	1812.0375
1940.77232	1797.7375
1943.86808	1787.5375
1946.96184	1784.1375
1950.05358	1785.9375
1953.14331	1777.3375
1956.23103	1769.4375
1959.31675	1770.0375
1962.40046	1760.5375
1965.48217	1749.3375
1968.56188	1753.8375
1971.63959	1744.1375
1974.7153	1749.0375
1977.78901	1732.1375
1980.86073	1731.3375
1983.93046	1725.9375
1986.99819	1716.9375
1990.06394	1710.3375
1993.1277	1695.5375
1996.18947	1700.6375
1999.24925	1700.0375
2002.30706	1686.1375
2005.36288	1677.6375
2008.41672	1676.1375
2011.46859	1675.6375
2014.51848	1667.4375
2017.56639	1662.8375
2020.61233	1650.0375
2023.6563	1648.5375
2026.6983	1644.6375
2029.73833	1640.2375
2032.7764	1633.8375
2035.8125	1633.2375
2038.84664	1621.6375
2041.87881	1626.3375
2044.90903	1620.1375
2047.93729	1613.3375
2050.96359	1613.3375
2053.98794	1602.0375
2057.01034	1619.5375
2060.03078	1600.0375
2063.04927	1610.7375
2066.06582	1601.2375
2069.08042	1604.6375
2072.09307	1601.6375
2075.10378	1594.9375
2078.11255	1604.5375
2081.11938	1607.0375
2084.12426	1605.3375
2087.12722	1600.7375
2090.12824	1597.2375
2093.12732	1597.6375
2096.12447	1587.3375
2099.11969	1588.4375
2102.11299	1594.5375
2105.10435	1595.0375
2108.09379	1594.4375
2111.08131	1599.9375
2114.0669	1596.4375
2117.05057	1594.1375
2120.03233	1598.8375
2123.01216	1600.5375
2125.99008	1600.8375
2128.96609	1592.5375
2131.94018	1588.1375
2134.91236	1592.6375
2137.88263	1588.2375
2140.851	1591.4375
2143.81746	1584.7375
2146.78201	1590.3375
2149.74466	1580.7375
2152.7054	1585.9375
2155.66425	1585.6375
2158.6212	1581.2375
2161.57625	1585.6375
2164.52941	1570.7375
2167.48067	1568.9375
2170.43004	1573.5375
2173.37752	1571.7375
2176.32311	1566.5375
2179.26681	1564.6375
2182.20863	1558.5375
2185.14856	1562.1375
2188.08661	1562.6375
2191.02278	1562.1375
2193.95707	1556.3375
2196.88948	1562.3375
2199.82001	1554.7375
2202.74867	1557.7375
2205.67545	1546.7375
2208.60037	1548.5375
2211.52341	1548.1375
2214.44458	1550.7375
2217.36388	1549.4375
2220.28132	1547.1375
2223.1969	1526.3375
2226.11061	1521.8375
2229.02246	1524.5375
2231.93245	1523.9375
2234.84058	1515.7375
2237.74686	1510.2375
2240.65128	1511.2375
2243.55385	1501.5375
2246.45456	1501.2375
2249.35343	1508.9375
2252.25044	1497.7375
2255.14561	1496.7375
2258.03893	1495.0375
2260.93041	1485.7375
2263.82004	1490.3375
2266.70783	1476.3375
2269.59378	1470.1375
2272.4779	1473.6375
2275.36017	1476.6375
2278.24061	1467.5375
2281.11922	1460.8375
2283.996	1453.7375
2286.87094	1454.6375
2289.74405	1441.2375
2292.61534	1449.9375
2295.4848	1438.4375
2298.35243	1445.9375
2301.21824	1448.0375
2304.08223	1433.4375
2306.94439	1427.9375
2309.80474	1435.7375
2312.66327	1441.5375
2315.51999	1421.5375
2318.37489	1416.3375
2321.22797	1424.0375
2324.07925	1420.3375
2326.92871	1417.0375
2329.77637	1419.3375
2332.62222	1412.2375
2335.46626	1409.7375
2338.3085	1411.3375
2341.14893	1413.6375
2343.98756	1406.4375
2346.8244	1390.4375
2349.65943	1396.2375
2352.49267	1394.2375
2355.32411	1391.0375
2358.15376	1394.5375
2360.98161	1401.9375
2363.80768	1390.6375
2366.63195	1402.4375
2369.45444	1389.1375
2372.27514	1391.8375
2375.09405	1393.8375
2377.91118	1382.3375
2380.72652	1386.5375
2383.54009	1379.8375
2386.35187	1375.6375
2389.16188	1372.3375
2391.97011	1366.8375
2394.77657	1369.4375
2397.58125	1360.4375
2400.38416	1370.7375
2403.18529	1354.5375
2405.98466	1340.7375
2408.78226	1343.7375
2411.57809	1340.2375
2414.37216	1333.6375
2417.16446	1342.4375
2419.955	1339.7375
2422.74378	1331.5375
2425.5308	1325.1375
2428.31606	1324.0375
2431.09956	1327.1375
2433.88131	1320.2375
2436.6613	1325.1375
2439.43954	1316.4375
2442.21603	1318.1375
2444.99077	1310.3375
2447.76377	1319.5375
2450.53501	1311.5375
2453.30451	1305.3375
2456.07226	1294.5375
2458.83827	1303.7375
2461.60254	1295.4375
2464.36507	1295.0375
2467.12586	1294.7375
2469.88492	1285.2375
2472.64224	1283.7375
2475.39782	1282.8375
2478.15167	1289.6375
2480.90379	1284.8375
2483.65417	1280.1375
2486.40283	1285.7375
2489.14976	1277.5375
2491.89497	1278.0375
2494.63845	1275.9375
2497.3802	1271.8375
2500.12024	1278.3375
2502.85855	1278.1375
2505.59514	1272.6375
2508.33002	1271.7375
2511.06318	1261.7375
2513.79462	1258.2375
2516.52435	1262.8375
2519.25237	1257.5375
2521.97867	1249.4375
2524.70327	1254.0375
2527.42616	1249.7375
2530.14734	1242.3375
2532.86681	1251.9375
2535.58458	1243.0375
2538.30065	1234.0375
2541.01501	1236.3375
2543.72768	1240.8375
2546.43864	1230.7375
2549.14791	1230.7375
2551.85548	1235.2375
2554.56136	1225.1375
2557.26554	1222.1375
2559.96803	1224.2375
2562.66883	1216.7375
2565.36794	1222.6375
2568.06536	1218.3375
2570.7611	1214.5375
2573.45514	1215.1375
2576.14751	1209.9375
2578.83819	1213.5375
2581.52719	1211.1375
2584.21451	1213.0375
2586.90015	1205.4375
2589.58411	1201.7375
2592.2664	1195.8375
2594.94701	1193.0375
2597.62594	1194.3375
2600.30321	1192.3375
2602.9788	1188.0375
2605.65273	1188.8375
2608.32498	1186.7375
2610.99557	1176.7375
2613.66449	1179.6375
2616.33175	1173.3375
2618.99734	1173.0375
2621.66128	1173.9375
2624.32355	1184.0375
2626.98416	1168.0375
2629.64311	1168.8375
2632.30041	1167.6375
2634.95605	1176.1375
2637.61004	1173.8375
2640.26238	1174.1375
2642.91306	1163.6375
2645.56209	1166.9375
2648.20948	1164.0375
2650.85521	1162.2375
2653.4993	1175.5375
2656.14175	1168.1375
2658.78255	1172.8375
2661.42171	1172.5375
2664.05923	1172.9375
2666.6951	1171.7375
2669.32934	1177.7375
2671.96194	1165.9375
2674.59291	1169.2375
2677.22224	1162.8375
2679.84993	1174.7375
2682.476	1176.7375
2685.10043	1179.0375
2687.72324	1170.0375
2690.34441	1170.8375
2692.96396	1177.4375
2695.58188	1183.3375
2698.19818	1166.4375
2700.81285	1176.3375
2703.4259	1175.7375
2706.03733	1167.1375
2708.64714	1171.3375
2711.25533	1182.6375
2713.86191	1171.8375
2716.46687	1181.9375
2719.07021	1183.3375
2721.67194	1187.2375
2724.27206	1178.6375
2726.87057	1207.5375
2729.46747	1196.1375
2732.06276	1193.4375
2734.65644	1184.9375
2737.24852	1196.2375
2739.83899	1198.2375
2742.42786	1199.6375
2745.01513	1195.5375
2747.60079	1201.1375
2750.18486	1200.3375
2752.76733	1208.9375
2755.3482	1222.2375
2757.92747	1226.9375
2760.50515	1219.5375
2763.08123	1227.8375
2765.65573	1235.0375
2768.22863	1235.1375
2770.79994	1233.3375
2773.36967	1238.0375
2775.9378	1235.5375
2778.50435	1228.6375
2781.06932	1228.4375
2783.6327	1236.3375
2786.1945	1232.3375
2788.75471	1232.6375
2791.31335	1236.5375
2793.87041	1238.0375
2796.42589	1235.6375
2798.97979	1238.7375
2801.53212	1241.7375
2804.08288	1249.4375
2806.63206	1241.8375
2809.17967	1251.6375
2811.72571	1241.7375
2814.27018	1236.3375
2816.81308	1241.4375
2819.35442	1232.2375
2821.89419	1242.0375
2824.43239	1230.6375
2826.96904	1237.4375
2829.50412	1229.5375
2832.03763	1231.5375
2834.56959	1245.5375
2837.1	1238.6375
2839.62884	1254.7375
2842.15613	1264.3375
2844.68186	1278.3375
2847.20604	1305.3375
2849.72867	1324.5375
2852.24974	1345.8375
2854.76927	1367.9375
2857.28724	1397.2375
2859.80367	1433.0375
2862.31855	1471.0375
2864.83189	1505.3375
2867.34368	1539.7375
2869.85393	1579.7375
2872.36264	1604.4375
2874.8698	1628.7375
2877.37543	1670.5375
2879.87952	1705.4375
2882.38207	1744.7375
2884.88308	1763.7375
2887.38256	1791.7375
2889.88051	1805.6375
2892.37692	1842.5375
2894.8718	1845.1375
2897.36515	1849.8375
2899.85698	1857.5375
2902.34727	1865.8375
2904.83604	1862.1375
2907.32328	1868.5375
2909.809	1859.3375
2912.29319	1857.5375
2914.77587	1848.4375
2917.25702	1847.8375
2919.73665	1859.8375
2922.21476	1855.8375
2924.69136	1855.8375
2927.16644	1855.3375
2929.64	1846.4375
2932.11205	1831.5375
2934.58258	1817.8375
2937.05161	1815.2375
2939.51912	1795.2375
2941.98513	1778.3375
2944.44962	1736.9375
2946.91261	1707.5375
2949.37409	1677.2375
2951.83407	1644.5375
2954.29254	1621.1375
2956.74951	1583.3375
2959.20498	1561.3375
2961.65895	1537.5375
2964.11142	1514.5375
2966.56239	1482.5375
2969.01186	1458.3375
2971.45984	1437.3375
2973.90632	1420.9375
2976.35131	1392.9375
2978.7948	1369.8375
2981.23681	1340.9375
2983.67732	1326.4375
2986.11635	1305.2375
2988.55388	1282.9375
2990.98993	1286.9375
2993.4245	1261.3375
2995.85758	1246.7375
2998.28917	1236.9375
3000.71928	1226.2375
3003.14791	1219.9375
3005.57506	1210.1375
3008.00073	1206.1375
3010.42493	1201.6375
3012.84764	1195.5375
3015.26888	1191.7375
3017.68865	1183.7375
3020.10694	1185.9375
3022.52376	1196.1375
3024.9391	1183.8375
3027.35298	1177.7375
3029.76539	1178.6375
3032.17632	1177.3375
3034.5858	1172.2375
3036.9938	1173.9375
3039.40034	1172.9375
3041.80542	1169.8375
3044.20903	1176.0375
3046.61118	1173.7375
3049.01187	1176.6375
3051.4111	1176.9375
3053.80888	1169.7375
3056.20519	1169.9375
3058.60005	1175.3375
3060.99345	1178.5375
3063.3854	1188.7375
3065.7759	1189.3375
3068.16494	1182.9375
3070.55254	1192.3375
3072.93868	1195.2375
3075.32338	1190.4375
3077.70662	1187.0375
3080.08842	1203.4375
3082.46878	1203.4375
3084.84769	1212.0375
3087.22515	1209.5375
3089.60118	1227.7375
3091.97576	1218.2375
3094.3489	1229.6375
3096.72061	1232.4375
3099.09087	1239.6375
3101.4597	1248.1375
3103.82709	1250.9375
3106.19305	1256.2375
3108.55757	1266.5375
3110.92066	1266.6375
3113.28232	1278.1375
3115.64255	1289.0375
3118.00134	1283.1375
3120.35871	1281.5375
3122.71466	1296.0375
3125.06917	1299.9375
3127.42226	1309.1375
3129.77393	1331.7375
3132.12417	1329.3375
3134.47299	1341.6375
3136.82039	1340.6375
3139.16636	1351.6375
3141.51092	1364.6375
3143.85406	1371.0375
3146.19579	1379.0375
3148.53609	1389.3375
3150.87499	1399.9375
3153.21246	1413.3375
3155.54853	1418.7375
3157.88318	1418.9375
3160.21642	1433.8375
3162.54826	1446.9375
3164.87868	1442.2375
3167.2077	1446.5375
3169.5353	1456.3375
3171.86151	1462.6375
3174.18631	1484.0375
3176.5097	1491.8375
3178.83169	1489.0375
3181.15228	1491.4375
3183.47147	1500.2375
3185.78926	1506.6375
3188.10565	1520.9375
3190.42065	1520.6375
3192.73424	1522.6375
3195.04645	1528.0375
3197.35725	1543.3375
3199.66667	1544.0375
3201.97469	1552.5375
3204.28132	1560.5375
3206.58656	1565.9375
3208.8904	1574.1375
3211.19287	1576.8375
3213.49394	1596.6375
3215.79363	1593.3375
3218.09193	1593.8375
3220.38884	1595.8375
3222.68438	1603.8375
3224.97853	1608.6375
3227.2713	1614.3375
3229.56269	1616.7375
3231.8527	1623.6375
3234.14133	1621.4375
3236.42858	1626.8375
3238.71446	1619.9375
3240.99896	1630.8375
3243.28209	1636.6375
3245.56384	1638.6375
3247.84423	1659.2375
3250.12324	1660.2375
3252.40088	1663.5375
3254.67715	1665.1375
3256.95205	1671.7375
3259.22558	1663.8375
3261.49775	1668.3375
3263.76855	1674.4375
3266.03799	1677.5375
3268.30606	1662.2375
3270.57277	1669.9375
3272.83812	1673.4375
3275.10211	1665.6375
3277.36474	1662.0375
3279.62601	1659.4375
3281.88593	1645.8375
3284.14448	1646.3375
3286.40168	1641.5375
3288.65753	1652.3375
3290.91202	1646.9375
3293.16516	1622.6375
3295.41695	1618.8375
3297.66738	1618.4375
3299.91647	1610.5375
3302.16421	1595.0375
3304.4106	1595.3375
3306.65564	1578.0375
3308.89933	1581.7375
3311.14169	1568.1375
3313.38269	1553.9375
3315.62236	1536.7375
3317.86068	1537.9375
3320.09766	1525.9375
3322.3333	1507.0375
3324.5676	1514.4375
3326.80056	1481.2375
3329.03219	1479.0375
3331.26248	1.4375
3333.49143	-0.3625
3335.71905	-0.0625
