Data from AgNP_FTO_APTES_CRN_5uM_R6G_10uM_NaF_0.1M_Addition_RamanShift__5__15-31-47-902.txt Node

Date: Wed Dec 15 15:31:47 GMT 2021
User: TCL
Spectrometer: QEP01345
Trigger mode: 4
Integration Time (sec): 7.000000E0
Scans to average: 10
Electric dark correction enabled: true
Nonlinearity correction enabled: false
Boxcar width: 0
XAxis mode: Raman Shifts
Number of Pixels in Spectrum: 1044
>>>>>Begin Spectral Data<<<<<
46.04893	-0.175
50.45542	-2.675
54.85868	-0.775
59.25871	-2.575
63.6555	136.525
68.04907	146.525
72.43941	152.225
76.82654	157.425
81.21044	161.425
85.59113	163.925
89.96862	176.025
94.34289	175.325
98.71396	185.525
103.08183	192.825
107.4465	195.225
111.80798	197.625
116.16626	209.825
120.52136	214.225
124.87327	220.625
129.222	236.825
133.56755	248.725
137.90993	265.325
142.24913	295.525
146.58517	330.125
150.91804	379.225
155.24774	453.525
159.57429	558.825
163.89768	714.625
168.21792	945.025
172.53501	1277.725
176.84895	1790.925
181.15975	2509.025
185.46741	3508.725
189.77193	4830.625
194.07331	6455.425
198.37157	8273.425
202.6667	10207.125
206.9587	12173.725
211.24758	14022.625
215.53334	15922.825
219.81599	17912.325
224.09553	20116.525
228.37195	22557.625
232.64527	25216.825
236.91549	28052.425
241.18261	30868.325
245.44663	33543.725
249.70755	35993.225
253.96539	38124.125
258.22014	39966.425
262.4718	41398.025
266.72039	42382.625
270.96589	42888.225
275.20832	42972.125
279.44768	42722.625
283.68397	42339.525
287.91719	41971.925
292.14735	41721.125
296.37445	41588.325
300.59849	41587.525
304.81948	41639.225
309.03742	41636.125
313.25231	41370.725
317.46415	40868.325
321.67296	40254.325
325.87872	39765.125
330.08145	39433.825
334.28114	39526.725
338.47781	39792.925
342.67145	40246.525
346.86207	40791.025
351.04966	41502.125
355.23424	42333.225
359.4158	42991.625
363.59435	43647.325
367.76989	44130.225
371.94243	44456.225
376.11196	44644.425
380.27849	44783.825
384.44203	44938.325
388.60257	45349.825
392.76012	45788.325
396.91468	46380.025
401.06626	47159.125
405.21485	47589.325
409.36047	47695.925
413.50311	47637.225
417.64277	47655.125
421.77947	48042.925
425.9132	48350.525
430.04396	48625.625
434.17176	48735.625
438.2966	48834.725
442.41849	49298.825
446.53742	50403.425
450.6534	51697.425
454.76644	52697.325
458.87653	53020.925
462.98368	52756.525
467.08789	52024.625
471.18916	51064.425
475.2875	49999.625
479.38291	49302.725
483.4754	48793.925
487.56496	48395.225
491.6516	48046.525
495.73531	47845.725
499.81612	48030.725
503.89401	48599.925
507.96899	49062.925
512.04106	49162.825
516.11023	48911.925
520.1765	48360.025
524.23987	47823.125
528.30034	47371.025
532.35792	46843.625
536.41261	46315.825
540.46441	45855.225
544.51333	45869.325
548.55936	46225.125
552.60252	47073.025
556.64279	47927.925
560.6802	48527.925
564.71473	48911.725
568.7464	49606.025
572.7752	50843.825
576.80114	52442.825
580.82422	54451.125
584.84444	56754.125
588.86181	59025.225
592.87633	60022.725
596.888	58862.925
600.89682	56792.725
604.9028	56883.325
608.90594	59480.025
612.90624	61666.325
616.90371	57908.325
620.89834	51232.525
624.89015	48360.625
628.87913	48035.925
632.86528	48039.425
636.84862	47660.325
640.82913	46932.825
644.80683	46092.325
648.78172	45625.525
652.75379	45756.325
656.72306	46269.425
660.68952	46637.025
664.65319	46369.525
668.61405	45786.125
672.57211	45849.225
676.52738	46115.225
680.47986	45988.125
684.42955	45714.525
688.37646	45622.125
692.32058	46022.125
696.26192	46677.525
700.20048	47354.925
704.13626	47677.025
708.06928	47664.425
711.99952	47394.325
715.927	47502.825
719.85171	47790.525
723.77365	47652.625
727.69284	46957.225
731.60928	46240.325
735.52295	45958.025
739.43388	45838.825
743.34206	45968.825
747.24749	46309.625
751.15017	46787.725
755.05012	47484.025
758.94733	48626.525
762.8418	50444.425
766.73354	52894.625
770.62254	54895.225
774.50882	54773.225
778.39237	52654.325
782.27321	50057.125
786.15132	48076.025
790.02671	46865.725
793.89938	46307.025
797.76935	46116.525
801.6366	46217.625
805.50115	46202.625
809.36299	45997.625
813.22213	45565.725
817.07857	45126.925
820.93231	44777.325
824.78336	44566.925
828.63172	44491.025
832.47738	44560.525
836.32036	44670.125
840.16066	44912.025
843.99827	44998.625
847.8332	44904.325
851.66546	44778.525
855.49504	44838.325
859.32195	44798.125
863.1462	44697.425
866.96777	44597.225
870.78668	44590.625
874.60293	44594.825
878.41652	44666.725
882.22745	44780.125
886.03573	44934.225
889.84136	44947.325
893.64433	44794.225
897.44466	44598.325
901.24235	44459.825
905.0374	44399.225
908.8298	44291.425
912.61957	44488.525
916.40671	44813.425
920.19121	45431.925
923.97308	45968.625
927.75233	45992.825
931.52895	45558.325
935.30295	45003.225
939.07433	44387.125
942.84309	44014.525
946.60924	43912.525
950.37278	43986.125
954.13371	43912.225
957.89203	43745.225
961.64774	43672.425
965.40086	43676.825
969.15137	43630.225
972.89929	43451.225
976.64461	43435.025
980.38733	43586.125
984.12747	43740.925
987.86502	44004.125
991.59999	44453.725
995.33237	45064.425
999.06217	46191.825
1002.78939	47528.425
1006.51404	48678.925
1010.23611	49501.725
1013.95561	50024.025
1017.67255	49859.725
1021.38692	49159.325
1025.09872	48535.225
1028.80796	48509.025
1032.51465	49282.625
1036.21877	50271.725
1039.92035	50637.325
1043.61937	50206.225
1047.31584	49444.125
1051.00976	48564.125
1054.70114	48123.825
1058.38998	48205.925
1062.07627	48703.925
1065.76003	49493.025
1069.44126	50483.325
1073.11995	51737.925
1076.79611	52759.525
1080.46974	53003.625
1084.14085	52864.725
1087.80943	52748.925
1091.47549	52547.625
1095.13903	52179.725
1098.80005	51351.825
1102.45857	50298.325
1106.11456	49620.525
1109.76805	49176.825
1113.41903	49135.125
1117.06751	49143.625
1120.71348	49321.525
1124.35696	49612.525
1127.99793	49893.425
1131.63641	50223.125
1135.2724	50369.525
1138.90589	50585.325
1142.5369	50762.425
1146.16542	50999.125
1149.79145	51252.325
1153.415	51665.725
1157.03607	52628.425
1160.65467	54300.425
1164.27079	57044.825
1167.88443	59996.525
1171.49561	62713.625
1175.10432	65765.725
1178.71056	69750.725
1182.31434	73864.225
1185.91565	76311.725
1189.51451	76166.125
1193.11091	74437.625
1196.70485	72073.125
1200.29634	69718.425
1203.88538	68329.825
1207.47197	67922.025
1211.05612	67512.525
1214.63782	66514.525
1218.21708	64945.825
1221.79391	63254.925
1225.36829	61945.425
1228.94024	60967.525
1232.50976	60042.525
1236.07685	59291.325
1239.6415	58959.125
1243.20374	58929.025
1246.76355	59443.125
1250.32093	60431.025
1253.8759	61842.125
1257.42845	63545.625
1260.97859	65340.125
1264.52631	67346.225
1268.07163	69355.225
1271.61453	71510.325
1275.15503	73653.525
1278.69312	75794.825
1282.22882	77522.925
1285.76211	79312.025
1289.29301	81430.125
1292.82151	84174.725
1296.34761	87836.925
1299.87133	92808.425
1303.39266	98163.625
1306.9116	103168.125
1310.42815	106610.425
1313.94233	107659.425
1317.45412	106838.725
1320.96354	105410.125
1324.47058	104571.725
1327.97525	104480.825
1331.47754	104782.725
1334.97747	104938.525
1338.47502	104672.125
1341.97022	103398.125
1345.46305	101273.425
1348.95352	98988.025
1352.44163	97687.625
1355.92738	98674.325
1359.41078	101320.825
1362.89183	103278.425
1366.37053	101459.925
1369.84688	94982.825
1373.32088	86483.225
1376.79254	80313.825
1380.26186	77882.425
1383.72883	77967.825
1387.19347	78206.225
1390.65578	77360.325
1394.11575	76862.925
1397.57339	77608.425
1401.0287	79404.025
1404.48168	81379.225
1407.93234	82340.325
1411.38068	81738.525
1414.82669	79671.025
1418.27039	76684.125
1421.71177	73501.525
1425.15083	70991.325
1428.58758	70034.525
1432.02203	70852.925
1435.45416	72948.425
1438.88399	75350.825
1442.31151	77274.625
1445.73673	78043.725
1449.15965	78233.225
1452.58027	77791.825
1455.9986	77202.525
1459.41463	77302.125
1462.82837	78388.825
1466.23982	79996.625
1469.64898	81560.325
1473.05586	82499.525
1476.46045	82771.625
1479.86276	82202.125
1483.26279	81131.725
1486.66054	80486.325
1490.05602	80389.325
1493.44922	80509.725
1496.84016	80329.125
1500.22882	80251.225
1503.61521	80833.125
1506.99934	81626.925
1510.38121	82114.825
1513.76081	81911.625
1517.13816	80786.625
1520.51324	79484.025
1523.88607	78839.925
1527.25665	79159.325
1530.62498	79814.825
1533.99105	80204.425
1537.35488	79784.425
1540.71647	78731.925
1544.07581	77241.425
1547.4329	75477.325
1550.78776	73822.125
1554.14038	72416.125
1557.49077	71461.925
1560.83892	70660.325
1564.18484	70168.625
1567.52853	69919.225
1570.86999	70571.225
1574.20922	72081.125
1577.54624	74133.025
1580.88103	75943.125
1584.2136	78048.025
1587.54395	81073.025
1590.87208	85271.725
1594.19801	90195.625
1597.52172	94664.825
1600.84321	95340.825
1604.16251	90823.225
1607.47959	83401.325
1610.79447	75815.825
1614.10715	69157.925
1617.41763	63914.125
1620.7259	60405.225
1624.03199	58670.425
1627.33587	58841.125
1630.63757	60766.625
1633.93707	64664.325
1637.23439	71113.225
1640.52951	80006.925
1643.82246	89434.225
1647.11321	95665.225
1650.40179	94519.625
1653.68819	86197.425
1656.97241	74639.925
1660.25446	64458.225
1663.53433	57262.525
1666.81203	52743.725
1670.08756	49921.025
1673.36092	48065.325
1676.63211	46862.725
1679.90115	45967.925
1683.16801	45300.225
1686.43272	44806.325
1689.69527	44486.025
1692.95567	44216.325
1696.2139	44014.825
1699.46999	43959.825
1702.72392	43784.325
1705.97571	43667.525
1709.22535	43602.525
1712.47284	43489.825
1715.71819	43498.525
1718.96139	43357.725
1722.20246	43208.325
1725.44139	43052.325
1728.67818	42834.225
1731.91284	42598.725
1735.14537	42402.325
1738.37576	42208.825
1741.60403	42054.025
1744.83017	41952.025
1748.05418	41869.525
1751.27607	41759.625
1754.49584	41724.725
1757.71349	41644.325
1760.92903	41661.325
1764.14244	41638.925
1767.35375	41625.825
1770.56294	41577.925
1773.77002	41523.525
1776.97499	41511.125
1780.17785	41452.925
1783.37861	41372.525
1786.57727	41294.525
1789.77382	41236.525
1792.96828	41168.125
1796.16064	41126.525
1799.3509	41093.825
1802.53907	41052.825
1805.72514	40932.725
1808.90913	40800.125
1812.09102	40777.425
1815.27083	40710.525
1818.44856	40654.925
1821.6242	40621.825
1824.79776	40654.325
1827.96924	40639.125
1831.13864	40618.625
1834.30597	40724.225
1837.47122	40733.925
1840.6344	40715.225
1843.7955	40711.225
1846.95454	40715.125
1850.11151	40775.425
1853.26642	40676.125
1856.41926	40772.625
1859.57004	40759.125
1862.71876	40657.425
1865.86542	40660.425
1869.01003	40627.125
1872.15258	40599.125
1875.29308	40582.325
1878.43152	40476.025
1881.56792	40488.425
1884.70227	40458.325
1887.83457	40405.925
1890.96482	40397.625
1894.09304	40357.725
1897.21921	40382.625
1900.34335	40209.025
1903.46544	40139.725
1906.58551	40110.325
1909.70353	40079.825
1912.81953	40055.225
1915.93349	39924.625
1919.04543	39835.825
1922.15534	39784.225
1925.26322	39749.825
1928.36908	39655.225
1931.47292	39564.825
1934.57473	39484.325
1937.67453	39365.325
1940.77232	39284.625
1943.86808	39122.925
1946.96184	39098.025
1950.05358	38978.025
1953.14331	38907.425
1956.23103	38853.425
1959.31675	38755.025
1962.40046	38573.925
1965.48217	38502.925
1968.56188	38407.925
1971.63959	38294.825
1974.7153	38209.925
1977.78901	38055.625
1980.86073	38017.025
1983.93046	37922.925
1986.99819	37787.325
1990.06394	37751.025
1993.1277	37682.725
1996.18947	37501.025
1999.24925	37464.625
2002.30706	37325.525
2005.36288	37225.425
2008.41672	37151.725
2011.46859	37067.525
2014.51848	36982.525
2017.56639	36950.825
2020.61233	36897.825
2023.6563	36781.725
2026.6983	36756.625
2029.73833	36734.625
2032.7764	36629.725
2035.8125	36546.725
2038.84664	36469.925
2041.87881	36421.025
2044.90903	36424.425
2047.93729	36351.425
2050.96359	36309.425
2053.98794	36311.825
2057.01034	36292.525
2060.03078	36225.925
2063.04927	36232.225
2066.06582	36247.425
2069.08042	36214.825
2072.09307	36146.925
2075.10378	36099.925
2078.11255	36041.925
2081.11938	36167.725
2084.12426	36117.125
2087.12722	36082.925
2090.12824	36067.025
2093.12732	36129.525
2096.12447	36096.425
2099.11969	36092.825
2102.11299	36118.125
2105.10435	36142.025
2108.09379	36178.125
2111.08131	36290.025
2114.0669	36272.225
2117.05057	36295.625
2120.03233	36253.725
2123.01216	36303.325
2125.99008	36287.825
2128.96609	36329.725
2131.94018	36334.425
2134.91236	36366.425
2137.88263	36426.925
2140.851	36405.625
2143.81746	36464.625
2146.78201	36510.725
2149.74466	36531.625
2152.7054	36514.325
2155.66425	36520.225
2158.6212	36526.025
2161.57625	36542.825
2164.52941	36552.025
2167.48067	36553.325
2170.43004	36552.825
2173.37752	36547.625
2176.32311	36564.525
2179.26681	36499.225
2182.20863	36529.125
2185.14856	36551.625
2188.08661	36567.125
2191.02278	36579.725
2193.95707	36521.925
2196.88948	36530.025
2199.82001	36578.425
2202.74867	36567.325
2205.67545	36488.425
2208.60037	36497.225
2211.52341	36431.425
2214.44458	36394.125
2217.36388	36351.725
2220.28132	36318.925
2223.1969	36351.425
2226.11061	36318.425
2229.02246	36190.825
2231.93245	36108.025
2234.84058	36035.425
2237.74686	36004.925
2240.65128	35991.025
2243.55385	35929.725
2246.45456	35854.525
2249.35343	35863.325
2252.25044	35776.825
2255.14561	35673.325
2258.03893	35683.225
2260.93041	35649.125
2263.82004	35604.225
2266.70783	35503.925
2269.59378	35447.825
2272.4779	35330.725
2275.36017	35245.125
2278.24061	35211.025
2281.11922	35141.825
2283.996	35102.425
2286.87094	35093.525
2289.74405	35065.725
2292.61534	35072.025
2295.4848	34993.025
2298.35243	35043.125
2301.21824	35029.025
2304.08223	35051.425
2306.94439	35052.125
2309.80474	35091.325
2312.66327	35112.525
2315.51999	35050.725
2318.37489	35037.025
2321.22797	34996.225
2324.07925	35007.825
2326.92871	34971.925
2329.77637	34942.725
2332.62222	34978.625
2335.46626	34953.825
2338.3085	34941.025
2341.14893	34941.825
2343.98756	34945.225
2346.8244	34970.425
2349.65943	34889.925
2352.49267	34874.725
2355.32411	34870.925
2358.15376	34809.625
2360.98161	34801.725
2363.80768	34800.125
2366.63195	34798.625
2369.45444	34717.925
2372.27514	34642.425
2375.09405	34577.925
2377.91118	34559.225
2380.72652	34530.625
2383.54009	34511.725
2386.35187	34475.125
2389.16188	34393.125
2391.97011	34335.225
2394.77657	34338.425
2397.58125	34299.725
2400.38416	34287.725
2403.18529	34183.625
2405.98466	34120.725
2408.78226	34102.125
2411.57809	34017.125
2414.37216	34034.225
2417.16446	34015.525
2419.955	33990.225
2422.74378	33948.625
2425.5308	33945.525
2428.31606	33871.925
2431.09956	33909.125
2433.88131	33868.725
2436.6613	33880.925
2439.43954	33848.225
2442.21603	33794.625
2444.99077	33791.125
2447.76377	33804.525
2450.53501	33800.825
2453.30451	33821.725
2456.07226	33801.525
2458.83827	33817.325
2461.60254	33821.225
2464.36507	33787.225
2467.12586	33773.125
2469.88492	33771.225
2472.64224	33774.825
2475.39782	33797.025
2478.15167	33849.625
2480.90379	33844.625
2483.65417	33839.525
2486.40283	33847.125
2489.14976	33856.125
2491.89497	33812.225
2494.63845	33837.525
2497.3802	33881.325
2500.12024	33902.225
2502.85855	33940.525
2505.59514	33897.525
2508.33002	33919.425
2511.06318	33855.825
2513.79462	33828.425
2516.52435	33846.725
2519.25237	33854.425
2521.97867	33795.225
2524.70327	33807.425
2527.42616	33752.425
2530.14734	33792.725
2532.86681	33694.425
2535.58458	33752.125
2538.30065	33689.925
2541.01501	33699.225
2543.72768	33694.125
2546.43864	33654.225
2549.14791	33576.125
2551.85548	33595.825
2554.56136	33595.825
2557.26554	33558.325
2559.96803	33538.525
2562.66883	33516.125
2565.36794	33577.325
2568.06536	33559.425
2570.7611	33535.125
2573.45514	33526.625
2576.14751	33511.125
2578.83819	33464.525
2581.52719	33505.325
2584.21451	33432.025
2586.90015	33389.825
2589.58411	33375.525
2592.2664	33389.325
2594.94701	33411.425
2597.62594	33386.125
2600.30321	33316.925
2602.9788	33304.725
2605.65273	33280.125
2608.32498	33269.925
2610.99557	33290.325
2613.66449	33269.625
2616.33175	33268.125
2618.99734	33244.425
2621.66128	33244.125
2624.32355	33276.525
2626.98416	33192.625
2629.64311	33203.825
2632.30041	33169.725
2634.95605	33165.125
2637.61004	33152.225
2640.26238	33131.525
2642.91306	33111.825
2645.56209	33145.625
2648.20948	33148.425
2650.85521	33093.125
2653.4993	33123.825
2656.14175	33145.125
2658.78255	33131.825
2661.42171	33148.825
2664.05923	33202.325
2666.6951	33243.125
2669.32934	33220.025
2671.96194	33243.025
2674.59291	33229.825
2677.22224	33256.825
2679.84993	33233.525
2682.476	33203.325
2685.10043	33188.425
2687.72324	33137.425
2690.34441	33265.525
2692.96396	33241.725
2695.58188	33261.625
2698.19818	33193.725
2700.81285	33200.725
2703.4259	33205.225
2706.03733	33312.725
2708.64714	33323.925
2711.25533	33373.625
2713.86191	33352.625
2716.46687	33446.925
2719.07021	33386.725
2721.67194	33423.025
2724.27206	33393.225
2726.87057	33412.025
2729.46747	33427.525
2732.06276	33532.725
2734.65644	33499.725
2737.24852	33547.725
2739.83899	33476.025
2742.42786	33519.725
2745.01513	33477.825
2747.60079	33470.525
2750.18486	33467.025
2752.76733	33484.825
2755.3482	33509.025
2757.92747	33503.925
2760.50515	33427.725
2763.08123	33471.525
2765.65573	33407.325
2768.22863	33419.625
2770.79994	33342.225
2773.36967	33361.525
2775.9378	33318.925
2778.50435	33252.825
2781.06932	33301.125
2783.6327	33381.425
2786.1945	33330.325
2788.75471	33253.125
2791.31335	33200.825
2793.87041	33168.825
2796.42589	33092.025
2798.97979	33143.925
2801.53212	33023.625
2804.08288	33012.825
2806.63206	32915.525
2809.17967	32876.225
2811.72571	32800.625
2814.27018	32751.425
2816.81308	32702.925
2819.35442	32733.725
2821.89419	32644.425
2824.43239	32610.025
2826.96904	32572.425
2829.50412	32542.825
2832.03763	32505.125
2834.56959	32515.225
2837.1	32423.025
2839.62884	32448.025
2842.15613	32408.725
2844.68186	32445.325
2847.20604	32365.325
2849.72867	32348.625
2852.24974	32307.725
2854.76927	32291.725
2857.28724	32280.125
2859.80367	32246.825
2862.31855	32208.425
2864.83189	32186.225
2867.34368	32112.425
2869.85393	32143.125
2872.36264	32140.525
2874.8698	32147.125
2877.37543	32146.725
2879.87952	32164.925
2882.38207	32176.325
2884.88308	32181.225
2887.38256	32162.825
2889.88051	32156.125
2892.37692	32185.925
2894.8718	32229.025
2897.36515	32192.325
2899.85698	32233.625
2902.34727	32347.325
2904.83604	32361.025
2907.32328	32379.925
2909.809	32464.325
2912.29319	32440.325
2914.77587	32469.625
2917.25702	32445.425
2919.73665	32441.325
2922.21476	32451.525
2924.69136	32397.825
2927.16644	32411.925
2929.64	32363.225
2932.11205	32297.925
2934.58258	32195.425
2937.05161	32282.525
2939.51912	32343.325
2941.98513	32338.925
2944.44962	32240.225
2946.91261	32125.425
2949.37409	32188.825
2951.83407	32213.025
2954.29254	32201.125
2956.74951	32088.325
2959.20498	32097.725
2961.65895	32026.625
2964.11142	32097.225
2966.56239	31969.125
2969.01186	31991.625
2971.45984	31920.425
2973.90632	31865.825
2976.35131	31886.325
2978.7948	31819.025
2981.23681	31762.725
2983.67732	31723.525
2986.11635	31679.525
2988.55388	31583.325
2990.98993	31523.625
2993.4245	31459.225
2995.85758	31383.625
2998.28917	31314.225
3000.71928	31316.525
3003.14791	31252.225
3005.57506	31197.925
3008.00073	31130.925
3010.42493	31143.325
3012.84764	31082.725
3015.26888	31080.125
3017.68865	31014.025
3020.10694	30964.525
3022.52376	30890.825
3024.9391	30904.325
3027.35298	30882.825
3029.76539	30862.025
3032.17632	30799.625
3034.5858	30792.925
3036.9938	30732.525
3039.40034	30704.625
3041.80542	30676.625
3044.20903	30599.825
3046.61118	30638.225
3049.01187	30525.325
3051.4111	30511.825
3053.80888	30452.325
3056.20519	30389.325
3058.60005	30321.625
3060.99345	30295.425
3063.3854	30202.425
3065.7759	30112.525
3068.16494	30064.325
3070.55254	30021.225
3072.93868	29971.425
3075.32338	29845.425
3077.70662	29837.125
3080.08842	29748.525
3082.46878	29775.825
3084.84769	29679.825
3087.22515	29676.925
3089.60118	29657.525
3091.97576	29644.625
3094.3489	29652.425
3096.72061	29604.625
3099.09087	29616.025
3101.4597	29573.225
3103.82709	29538.625
3106.19305	29476.825
3108.55757	29489.225
3110.92066	29380.525
3113.28232	29330.525
3115.64255	29243.225
3118.00134	29217.925
3120.35871	29172.325
3122.71466	29191.825
3125.06917	29129.125
3127.42226	29109.525
3129.77393	29101.725
3132.12417	29003.625
3134.47299	29006.225
3136.82039	29033.225
3139.16636	29023.225
3141.51092	28959.425
3143.85406	28975.025
3146.19579	28996.025
3148.53609	28971.025
3150.87499	28962.325
3153.21246	29000.225
3155.54853	29022.925
3157.88318	28942.925
3160.21642	28985.725
3162.54826	28907.625
3164.87868	28855.325
3167.2077	28861.025
3169.5353	28866.125
3171.86151	28846.625
3174.18631	28757.925
3176.5097	28739.725
3178.83169	28688.825
3181.15228	28705.225
3183.47147	28687.425
3185.78926	28731.225
3188.10565	28605.725
3190.42065	28631.325
3192.73424	28601.125
3195.04645	28607.425
3197.35725	28605.925
3199.66667	28604.925
3201.97469	28584.325
3204.28132	28522.425
3206.58656	28529.525
3208.8904	28555.925
3211.19287	28529.025
3213.49394	28522.625
3215.79363	28493.125
3218.09193	28558.425
3220.38884	28574.725
3222.68438	28610.825
3224.97853	28554.825
3227.2713	28531.625
3229.56269	28469.225
3231.8527	28449.625
3234.14133	28392.825
3236.42858	28333.825
3238.71446	28317.625
3240.99896	28238.225
3243.28209	28246.825
3245.56384	28190.025
3247.84423	28255.125
3250.12324	28147.925
3252.40088	28087.225
3254.67715	28149.225
3256.95205	28039.925
3259.22558	28035.125
3261.49775	27973.125
3263.76855	27917.925
3266.03799	27906.025
3268.30606	27870.625
3270.57277	27828.625
3272.83812	27819.325
3275.10211	27762.025
3277.36474	27730.625
3279.62601	27767.925
3281.88593	27754.625
3284.14448	27718.425
3286.40168	27708.325
3288.65753	27688.225
3290.91202	27673.825
3293.16516	27573.025
3295.41695	27510.425
3297.66738	27393.925
3299.91647	27236.625
3302.16421	27082.925
3304.4106	26972.625
3306.65564	26830.025
3308.89933	26683.225
3311.14169	26466.425
3313.38269	26280.925
3315.62236	26112.725
3317.86068	25898.425
3320.09766	25623.125
3322.3333	25424.125
3324.5676	25449.925
3326.80056	25046.425
3329.03219	24889.025
3331.26248	7.225
3333.49143	-0.375
3335.71905	0.725
