Data from AgNP_FTO_APTES_CRN_100uM_R6G_10uM_NaF_0.1M_Addition_RamanShift__36__19-13-28-153.txt Node

Date: Wed Dec 15 19:13:28 GMT 2021
User: TCL
Spectrometer: QEP01345
Trigger mode: 4
Integration Time (sec): 7.000000E0
Scans to average: 10
Electric dark correction enabled: true
Nonlinearity correction enabled: false
Boxcar width: 0
XAxis mode: Raman Shifts
Number of Pixels in Spectrum: 1044
>>>>>Begin Spectral Data<<<<<
46.04893	1.725
50.45542	-1.475
54.85868	-0.675
59.25871	-0.275
63.6555	34.425
68.04907	43.525
72.43941	44.225
76.82654	52.425
81.21044	51.325
85.59113	53.925
89.96862	60.425
94.34289	57.325
98.71396	57.525
103.08183	66.125
107.4465	65.225
111.80798	62.525
116.16626	66.125
120.52136	66.225
124.87327	63.425
129.222	68.125
133.56755	67.325
137.90993	75.625
142.24913	78.425
146.58517	80.925
150.91804	91.725
155.24774	105.525
159.57429	124.425
163.89768	154.125
168.21792	193.725
172.53501	261.125
176.84895	356.525
181.15975	490.125
185.46741	675.125
189.77193	931.225
194.07331	1241.325
198.37157	1585.625
202.6667	1959.725
206.9587	2325.925
211.24758	2701.225
215.53334	3080.325
219.81599	3503.625
224.09553	4001.325
228.37195	4537.525
232.64527	5101.525
236.91549	5674.625
241.18261	6192.725
245.44663	6579.225
249.70755	6903.225
253.96539	7148.725
258.22014	7409.825
262.4718	7615.225
266.72039	7793.325
270.96589	7889.425
275.20832	7906.725
279.44768	7830.025
283.68397	7691.925
287.91719	7644.925
292.14735	7670.825
296.37445	7843.125
300.59849	8126.325
304.81948	8519.725
309.03742	8806.825
313.25231	8790.625
317.46415	8375.125
321.67296	7725.025
325.87872	7193.825
330.08145	6908.525
334.28114	6880.925
338.47781	7011.325
342.67145	7221.625
346.86207	7529.625
351.04966	8024.225
355.23424	8593.025
359.4158	8981.025
363.59435	9144.025
367.76989	9181.825
371.94243	9135.525
376.11196	9072.125
380.27849	8991.225
384.44203	8891.825
388.60257	8740.325
392.76012	8662.325
396.91468	8756.725
401.06626	8971.025
405.21485	9173.325
409.36047	9000.825
413.50311	8484.125
417.64277	8059.825
421.77947	7771.625
425.9132	7665.425
430.04396	7658.525
434.17176	7714.825
438.2966	7834.525
442.41849	8072.825
446.53742	8319.025
450.6534	8585.125
454.76644	8727.425
458.87653	8721.025
462.98368	8618.125
467.08789	8476.525
471.18916	8261.225
475.2875	8061.125
479.38291	7893.125
483.4754	7707.925
487.56496	7603.925
491.6516	7538.825
495.73531	7507.425
499.81612	7525.225
503.89401	7622.125
507.96899	7735.625
512.04106	7923.925
516.11023	8066.825
520.1765	8239.825
524.23987	8247.225
528.30034	8105.425
532.35792	7919.025
536.41261	7697.425
540.46441	7482.325
544.51333	7378.525
548.55936	7410.525
552.60252	7564.325
556.64279	7793.925
560.6802	7924.025
564.71473	8044.125
568.7464	8378.325
572.7752	8573.625
576.80114	8311.025
580.82422	7945.325
584.84444	7774.125
588.86181	7822.225
592.87633	7927.525
596.888	8072.025
600.89682	8337.025
604.9028	9272.525
608.90594	11928.025
612.90624	15470.525
616.90371	14823.925
620.89834	10266.525
624.89015	8072.125
628.87913	7616.525
632.86528	7654.725
636.84862	7786.325
640.82913	7697.225
644.80683	7405.825
648.78172	7202.425
652.75379	7268.525
656.72306	7588.925
660.68952	8005.225
664.65319	7912.725
668.61405	7507.425
672.57211	7313.425
676.52738	7288.625
680.47986	7313.025
684.42955	7256.625
688.37646	7233.225
692.32058	7252.925
696.26192	7324.925
700.20048	7414.325
704.13626	7470.625
708.06928	7468.525
711.99952	7378.725
715.927	7331.225
719.85171	7355.925
723.77365	7319.925
727.69284	7236.925
731.60928	7156.425
735.52295	7144.825
739.43388	7170.625
743.34206	7185.525
747.24749	7176.525
751.15017	7252.025
755.05012	7381.725
758.94733	7783.525
762.8418	8631.125
766.73354	10160.025
770.62254	11776.425
774.50882	12631.125
778.39237	12090.825
782.27321	10460.525
786.15132	8783.125
790.02671	7819.525
793.89938	7381.925
797.76935	7203.425
801.6366	7119.825
805.50115	7074.425
809.36299	7027.225
813.22213	6998.325
817.07857	7009.225
820.93231	6999.325
824.78336	7025.925
828.63172	7055.825
832.47738	7092.125
836.32036	7075.425
840.16066	7032.425
843.99827	6975.125
847.8332	6921.725
851.66546	6920.025
855.49504	6909.625
859.32195	6886.725
863.1462	6849.225
866.96777	6831.925
870.78668	6805.625
874.60293	6803.725
878.41652	6836.325
882.22745	6854.725
886.03573	6901.525
889.84136	6877.025
893.64433	6820.225
897.44466	6829.825
901.24235	6816.525
905.0374	6794.225
908.8298	6785.825
912.61957	6756.425
916.40671	6800.725
920.19121	6853.225
923.97308	6886.825
927.75233	6964.625
931.52895	7037.925
935.30295	6971.725
939.07433	6781.525
942.84309	6589.125
946.60924	6459.025
950.37278	6396.825
954.13371	6357.525
957.89203	6351.025
961.64774	6311.125
965.40086	6304.225
969.15137	6258.125
972.89929	6254.325
976.64461	6230.725
980.38733	6226.225
984.12747	6248.925
987.86502	6266.125
991.59999	6287.925
995.33237	6362.325
999.06217	6452.025
1002.78939	6596.725
1006.51404	6721.625
1010.23611	6859.725
1013.95561	6971.225
1017.67255	6929.525
1021.38692	6819.725
1025.09872	6697.725
1028.80796	6625.125
1032.51465	6609.425
1036.21877	6710.825
1039.92035	6787.025
1043.61937	6870.125
1047.31584	6881.425
1051.00976	6880.425
1054.70114	6882.425
1058.38998	6868.125
1062.07627	6912.325
1065.76003	7020.325
1069.44126	7108.725
1073.11995	7310.925
1076.79611	7506.525
1080.46974	7662.825
1084.14085	7781.525
1087.80943	7862.825
1091.47549	7836.325
1095.13903	7584.625
1098.80005	7254.825
1102.45857	7031.425
1106.11456	6935.425
1109.76805	6970.525
1113.41903	7127.525
1117.06751	7389.725
1120.71348	7738.925
1124.35696	8102.625
1127.99793	8432.925
1131.63641	8413.625
1135.2724	7942.325
1138.90589	7528.725
1142.5369	7300.225
1146.16542	7130.425
1149.79145	7047.825
1153.415	7046.325
1157.03607	7103.325
1160.65467	7258.025
1164.27079	7507.325
1167.88443	7952.825
1171.49561	8680.425
1175.10432	9903.825
1178.71056	11392.925
1182.31434	12379.825
1185.91565	12386.625
1189.51451	11916.225
1193.11091	11123.025
1196.70485	10224.325
1200.29634	9595.325
1203.88538	9104.325
1207.47197	8531.725
1211.05612	8028.925
1214.63782	7779.425
1218.21708	7701.425
1221.79391	7719.425
1225.36829	7740.625
1228.94024	7761.725
1232.50976	7777.925
1236.07685	7770.025
1239.6415	7821.225
1243.20374	7876.725
1246.76355	7935.525
1250.32093	8035.125
1253.8759	8187.625
1257.42845	8429.125
1260.97859	8675.025
1264.52631	8960.225
1268.07163	9225.525
1271.61453	9480.025
1275.15503	9576.825
1278.69312	9601.825
1282.22882	9612.525
1285.76211	9810.325
1289.29301	10177.425
1292.82151	10511.425
1296.34761	10875.925
1299.87133	11408.525
1303.39266	12301.325
1306.9116	13734.725
1310.42815	15459.925
1313.94233	16476.125
1317.45412	16156.225
1320.96354	14901.825
1324.47058	13526.825
1327.97525	12383.025
1331.47754	11690.125
1334.97747	11497.825
1338.47502	11591.125
1341.97022	11877.525
1345.46305	12370.225
1348.95352	13210.125
1352.44163	14399.625
1355.92738	16090.625
1359.41078	18551.025
1362.89183	20940.125
1366.37053	20415.425
1369.84688	17202.225
1373.32088	14016.625
1376.79254	11963.225
1380.26186	10933.925
1383.72883	10398.925
1387.19347	9944.825
1390.65578	9485.525
1394.11575	9121.125
1397.57339	8920.425
1401.0287	8911.125
1404.48168	8981.325
1407.93234	9060.525
1411.38068	9136.225
1414.82669	9100.925
1418.27039	8985.825
1421.71177	8788.225
1425.15083	8652.325
1428.58758	8572.625
1432.02203	8632.425
1435.45416	8704.325
1438.88399	8751.725
1442.31151	8726.225
1445.73673	8765.425
1449.15965	8809.925
1452.58027	8773.625
1455.9986	8675.825
1459.41463	8617.825
1462.82837	8705.625
1466.23982	8917.625
1469.64898	9148.125
1473.05586	9329.925
1476.46045	9457.925
1479.86276	9634.525
1483.26279	9882.425
1486.66054	10157.825
1490.05602	10503.425
1493.44922	10967.625
1496.84016	11673.425
1500.22882	12846.625
1503.61521	14396.325
1506.99934	16189.025
1510.38121	17942.225
1513.76081	18866.725
1517.13816	18019.625
1520.51324	15758.725
1523.88607	13380.725
1527.25665	11769.125
1530.62498	10893.225
1533.99105	10412.125
1537.35488	10122.225
1540.71647	9896.325
1544.07581	9826.625
1547.4329	9739.525
1550.78776	9679.825
1554.14038	9642.825
1557.49077	9693.425
1560.83892	9874.025
1564.18484	10167.025
1567.52853	10583.425
1570.86999	10970.525
1574.20922	11303.625
1577.54624	11390.625
1580.88103	10945.325
1584.2136	10135.925
1587.54395	9567.425
1590.87208	9429.625
1594.19801	9760.225
1597.52172	10459.025
1600.84321	10801.525
1604.16251	10490.925
1607.47959	9821.325
1610.79447	9067.225
1614.10715	8323.225
1617.41763	7748.925
1620.7259	7440.625
1624.03199	7265.825
1627.33587	7266.525
1630.63757	7400.125
1633.93707	7698.925
1637.23439	8201.225
1640.52951	8998.625
1643.82246	10201.325
1647.11321	11631.525
1650.40179	12758.825
1653.68819	12535.925
1656.97241	10971.125
1660.25446	9111.425
1663.53433	7773.125
1666.81203	6996.025
1670.08756	6529.825
1673.36092	6265.025
1676.63211	6102.125
1679.90115	5961.825
1683.16801	5879.325
1686.43272	5821.525
1689.69527	5774.125
1692.95567	5739.525
1696.2139	5718.625
1699.46999	5712.325
1702.72392	5689.325
1705.97571	5678.825
1709.22535	5644.225
1712.47284	5630.625
1715.71819	5640.725
1718.96139	5653.425
1722.20246	5639.325
1725.44139	5617.925
1728.67818	5577.525
1731.91284	5521.225
1735.14537	5473.825
1738.37576	5440.025
1741.60403	5409.425
1744.83017	5395.725
1748.05418	5390.525
1751.27607	5376.925
1754.49584	5372.125
1757.71349	5364.025
1760.92903	5359.525
1764.14244	5356.525
1767.35375	5334.325
1770.56294	5308.125
1773.77002	5274.325
1776.97499	5248.425
1780.17785	5243.825
1783.37861	5220.825
1786.57727	5219.125
1789.77382	5191.125
1792.96828	5176.325
1796.16064	5153.725
1799.3509	5163.525
1802.53907	5147.625
1805.72514	5125.425
1808.90913	5110.225
1812.09102	5102.325
1815.27083	5082.625
1818.44856	5063.725
1821.6242	5063.025
1824.79776	5044.425
1827.96924	5051.525
1831.13864	5040.325
1834.30597	5038.525
1837.47122	5022.625
1840.6344	5008.625
1843.7955	5012.025
1846.95454	5011.025
1850.11151	4990.025
1853.26642	4988.725
1856.41926	4980.425
1859.57004	5004.025
1862.71876	4998.925
1865.86542	4986.725
1869.01003	4983.625
1872.15258	4978.625
1875.29308	4990.425
1878.43152	4978.425
1881.56792	4948.825
1884.70227	4968.225
1887.83457	4937.225
1890.96482	4954.425
1894.09304	4960.125
1897.21921	4961.125
1900.34335	4948.625
1903.46544	4955.525
1906.58551	4930.125
1909.70353	4935.325
1912.81953	4930.325
1915.93349	4922.125
1919.04543	4916.125
1922.15534	4892.425
1925.26322	4887.725
1928.36908	4897.925
1931.47292	4862.725
1934.57473	4851.225
1937.67453	4829.725
1940.77232	4824.225
1943.86808	4814.425
1946.96184	4786.425
1950.05358	4764.325
1953.14331	4769.225
1956.23103	4728.225
1959.31675	4732.725
1962.40046	4717.625
1965.48217	4686.025
1968.56188	4681.525
1971.63959	4682.425
1974.7153	4665.625
1977.78901	4644.925
1980.86073	4637.725
1983.93046	4608.525
1986.99819	4584.325
1990.06394	4580.325
1993.1277	4566.625
1996.18947	4535.325
1999.24925	4529.225
2002.30706	4505.825
2005.36288	4499.925
2008.41672	4494.825
2011.46859	4471.225
2014.51848	4460.625
2017.56639	4450.525
2020.61233	4431.025
2023.6563	4439.825
2026.6983	4413.225
2029.73833	4391.325
2032.7764	4385.725
2035.8125	4389.725
2038.84664	4353.325
2041.87881	4361.225
2044.90903	4347.925
2047.93729	4333.825
2050.96359	4328.725
2053.98794	4329.725
2057.01034	4310.325
2060.03078	4317.025
2063.04927	4316.325
2066.06582	4310.525
2069.08042	4287.425
2072.09307	4296.925
2075.10378	4301.425
2078.11255	4269.325
2081.11938	4286.625
2084.12426	4275.825
2087.12722	4294.225
2090.12824	4271.725
2093.12732	4277.725
2096.12447	4274.225
2099.11969	4255.425
2102.11299	4284.025
2105.10435	4286.625
2108.09379	4283.725
2111.08131	4278.725
2114.0669	4292.825
2117.05057	4285.125
2120.03233	4279.625
2123.01216	4299.125
2125.99008	4279.325
2128.96609	4296.325
2131.94018	4289.625
2134.91236	4285.725
2137.88263	4291.625
2140.851	4298.425
2143.81746	4300.825
2146.78201	4285.425
2149.74466	4276.125
2152.7054	4285.625
2155.66425	4278.625
2158.6212	4281.225
2161.57625	4262.725
2164.52941	4274.625
2167.48067	4266.825
2170.43004	4276.925
2173.37752	4276.625
2176.32311	4270.625
2179.26681	4258.525
2182.20863	4260.125
2185.14856	4240.925
2188.08661	4248.125
2191.02278	4238.325
2193.95707	4245.025
2196.88948	4227.925
2199.82001	4231.025
2202.74867	4225.025
2205.67545	4210.525
2208.60037	4212.925
2211.52341	4193.325
2214.44458	4191.525
2217.36388	4187.525
2220.28132	4194.225
2223.1969	4146.325
2226.11061	4149.325
2229.02246	4158.025
2231.93245	4126.525
2234.84058	4129.225
2237.74686	4127.725
2240.65128	4122.425
2243.55385	4120.225
2246.45456	4110.225
2249.35343	4087.525
2252.25044	4091.825
2255.14561	4090.825
2258.03893	4105.925
2260.93041	4099.425
2263.82004	4072.325
2266.70783	4082.025
2269.59378	4064.425
2272.4779	4049.425
2275.36017	4033.525
2278.24061	4043.225
2281.11922	4017.025
2283.996	4013.325
2286.87094	3999.925
2289.74405	3996.725
2292.61534	3971.725
2295.4848	3966.925
2298.35243	3969.125
2301.21824	3962.325
2304.08223	3952.325
2306.94439	3949.925
2309.80474	3944.625
2312.66327	3943.225
2315.51999	3943.725
2318.37489	3933.725
2321.22797	3917.525
2324.07925	3920.525
2326.92871	3906.725
2329.77637	3923.225
2332.62222	3904.325
2335.46626	3882.325
2338.3085	3900.725
2341.14893	3893.425
2343.98756	3887.825
2346.8244	3889.525
2349.65943	3886.225
2352.49267	3884.625
2355.32411	3909.025
2358.15376	3885.725
2360.98161	3883.325
2363.80768	3916.625
2366.63195	3910.325
2369.45444	3914.325
2372.27514	3921.025
2375.09405	3897.325
2377.91118	3902.925
2380.72652	3890.625
2383.54009	3843.725
2386.35187	3824.025
2389.16188	3827.425
2391.97011	3806.625
2394.77657	3796.225
2397.58125	3780.725
2400.38416	3781.225
2403.18529	3766.325
2405.98466	3757.225
2408.78226	3756.525
2411.57809	3747.625
2414.37216	3740.425
2417.16446	3733.125
2419.955	3721.925
2422.74378	3723.025
2425.5308	3712.625
2428.31606	3715.025
2431.09956	3720.925
2433.88131	3717.425
2436.6613	3716.925
2439.43954	3713.525
2442.21603	3710.625
2444.99077	3718.425
2447.76377	3711.225
2450.53501	3709.025
2453.30451	3701.725
2456.07226	3701.825
2458.83827	3696.025
2461.60254	3686.825
2464.36507	3686.825
2467.12586	3692.025
2469.88492	3686.125
2472.64224	3687.025
2475.39782	3691.225
2478.15167	3699.725
2480.90379	3697.225
2483.65417	3703.425
2486.40283	3698.125
2489.14976	3719.425
2491.89497	3722.625
2494.63845	3738.025
2497.3802	3710.225
2500.12024	3703.225
2502.85855	3701.225
2505.59514	3681.725
2508.33002	3679.725
2511.06318	3653.425
2513.79462	3642.925
2516.52435	3634.525
2519.25237	3614.025
2521.97867	3604.525
2524.70327	3588.125
2527.42616	3586.225
2530.14734	3585.625
2532.86681	3567.825
2535.58458	3566.825
2538.30065	3557.825
2541.01501	3563.025
2543.72768	3567.325
2546.43864	3568.425
2549.14791	3556.425
2551.85548	3558.925
2554.56136	3543.325
2557.26554	3532.825
2559.96803	3542.025
2562.66883	3536.825
2565.36794	3532.925
2568.06536	3530.225
2570.7611	3510.425
2573.45514	3510.825
2576.14751	3500.225
2578.83819	3502.025
2581.52719	3493.725
2584.21451	3484.925
2586.90015	3486.625
2589.58411	3460.925
2592.2664	3461.825
2594.94701	3448.725
2597.62594	3456.125
2600.30321	3437.325
2602.9788	3431.825
2605.65273	3427.825
2608.32498	3425.625
2610.99557	3431.625
2613.66449	3425.625
2616.33175	3434.625
2618.99734	3418.025
2621.66128	3408.425
2624.32355	3410.325
2626.98416	3397.025
2629.64311	3413.225
2632.30041	3396.325
2634.95605	3381.525
2637.61004	3383.625
2640.26238	3373.425
2642.91306	3371.825
2645.56209	3365.725
2648.20948	3376.125
2650.85521	3370.425
2653.4993	3361.425
2656.14175	3353.025
2658.78255	3351.625
2661.42171	3365.425
2664.05923	3372.625
2666.6951	3378.325
2669.32934	3378.925
2671.96194	3371.625
2674.59291	3364.625
2677.22224	3374.725
2679.84993	3374.925
2682.476	3375.225
2685.10043	3368.025
2687.72324	3372.925
2690.34441	3380.425
2692.96396	3366.725
2695.58188	3376.725
2698.19818	3372.025
2700.81285	3377.325
2703.4259	3401.325
2706.03733	3427.925
2708.64714	3405.325
2711.25533	3398.125
2713.86191	3401.225
2716.46687	3400.925
2719.07021	3383.925
2721.67194	3397.225
2724.27206	3388.625
2726.87057	3388.725
2729.46747	3380.825
2732.06276	3385.225
2734.65644	3396.025
2737.24852	3391.125
2739.83899	3363.025
2742.42786	3361.125
2745.01513	3344.225
2747.60079	3357.825
2750.18486	3345.425
2752.76733	3352.125
2755.3482	3345.425
2757.92747	3337.825
2760.50515	3324.925
2763.08123	3306.525
2765.65573	3312.825
2768.22863	3301.425
2770.79994	3314.825
2773.36967	3317.425
2775.9378	3306.725
2778.50435	3292.625
2781.06932	3288.625
2783.6327	3279.525
2786.1945	3293.425
2788.75471	3288.925
2791.31335	3284.625
2793.87041	3284.325
2796.42589	3272.325
2798.97979	3285.225
2801.53212	3281.125
2804.08288	3282.125
2806.63206	3279.125
2809.17967	3274.625
2811.72571	3283.625
2814.27018	3278.925
2816.81308	3282.025
2819.35442	3285.025
2821.89419	3285.625
2824.43239	3289.425
2826.96904	3286.525
2829.50412	3293.925
2832.03763	3279.725
2834.56959	3306.225
2837.1	3304.725
2839.62884	3335.525
2842.15613	3349.125
2844.68186	3390.825
2847.20604	3443.225
2849.72867	3486.825
2852.24974	3502.725
2854.76927	3503.325
2857.28724	3508.125
2859.80367	3489.825
2862.31855	3481.025
2864.83189	3462.625
2867.34368	3445.325
2869.85393	3441.825
2872.36264	3433.625
2874.8698	3448.425
2877.37543	3437.125
2879.87952	3440.125
2882.38207	3429.725
2884.88308	3437.725
2887.38256	3436.125
2889.88051	3429.425
2892.37692	3427.325
2894.8718	3413.925
2897.36515	3423.625
2899.85698	3439.225
2902.34727	3438.425
2904.83604	3437.025
2907.32328	3446.825
2909.809	3457.225
2912.29319	3438.925
2914.77587	3436.325
2917.25702	3434.025
2919.73665	3435.225
2922.21476	3415.125
2924.69136	3419.425
2927.16644	3402.025
2929.64	3387.925
2932.11205	3387.825
2934.58258	3366.925
2937.05161	3360.425
2939.51912	3337.125
2941.98513	3327.125
2944.44962	3290.225
2946.91261	3258.025
2949.37409	3249.625
2951.83407	3224.925
2954.29254	3213.125
2956.74951	3191.325
2959.20498	3198.225
2961.65895	3186.225
2964.11142	3177.325
2966.56239	3155.725
2969.01186	3147.625
2971.45984	3141.025
2973.90632	3122.825
2976.35131	3114.625
2978.7948	3100.925
2981.23681	3088.225
2983.67732	3073.325
2986.11635	3071.525
2988.55388	3064.825
2990.98993	3062.925
2993.4245	3046.625
2995.85758	3046.825
2998.28917	3037.025
3000.71928	3030.025
3003.14791	3021.825
3005.57506	3025.525
3008.00073	3022.425
3010.42493	3013.125
3012.84764	3004.625
3015.26888	2997.825
3017.68865	3004.325
3020.10694	3012.725
3022.52376	2989.825
3024.9391	2991.825
3027.35298	2981.225
3029.76539	2986.225
3032.17632	2987.525
3034.5858	2987.025
3036.9938	2981.625
3039.40034	2980.325
3041.80542	2972.125
3044.20903	2959.625
3046.61118	2956.225
3049.01187	2950.825
3051.4111	2948.625
3053.80888	2953.425
3056.20519	2941.925
3058.60005	2943.825
3060.99345	2938.925
3063.3854	2933.425
3065.7759	2932.525
3068.16494	2935.325
3070.55254	2924.125
3072.93868	2923.125
3075.32338	2912.625
3077.70662	2913.725
3080.08842	2894.025
3082.46878	2893.125
3084.84769	2896.325
3087.22515	2895.625
3089.60118	2894.125
3091.97576	2887.725
3094.3489	2884.625
3096.72061	2902.725
3099.09087	2883.925
3101.4597	2890.725
3103.82709	2888.025
3106.19305	2886.225
3108.55757	2877.225
3110.92066	2870.325
3113.28232	2876.325
3115.64255	2864.725
3118.00134	2861.525
3120.35871	2852.125
3122.71466	2869.425
3125.06917	2861.425
3127.42226	2863.025
3129.77393	2872.825
3132.12417	2868.325
3134.47299	2885.525
3136.82039	2905.325
3139.16636	2904.125
3141.51092	2903.525
3143.85406	2909.225
3146.19579	2897.525
3148.53609	2924.925
3150.87499	2924.825
3153.21246	2920.625
3155.54853	2943.825
3157.88318	2925.625
3160.21642	2932.225
3162.54826	2946.625
3164.87868	2946.825
3167.2077	2939.825
3169.5353	2950.225
3171.86151	2944.625
3174.18631	2951.325
3176.5097	2954.525
3178.83169	2953.725
3181.15228	2956.325
3183.47147	2958.225
3185.78926	2964.925
3188.10565	2961.525
3190.42065	2980.425
3192.73424	2970.225
3195.04645	2972.125
3197.35725	2986.725
3199.66667	2990.325
3201.97469	3000.025
3204.28132	2994.525
3206.58656	2995.125
3208.8904	2994.625
3211.19287	3008.425
3213.49394	3016.425
3215.79363	3005.825
3218.09193	3016.325
3220.38884	3019.225
3222.68438	3023.525
3224.97853	3025.825
3227.2713	3015.625
3229.56269	3015.625
3231.8527	3018.825
3234.14133	2993.625
3236.42858	3000.125
3238.71446	3004.925
3240.99896	2981.825
3243.28209	2994.025
3245.56384	2981.025
3247.84423	2997.325
3250.12324	2991.625
3252.40088	2995.125
3254.67715	3002.225
3256.95205	2976.425
3259.22558	2985.025
3261.49775	2986.225
3263.76855	2988.425
3266.03799	2976.925
3268.30606	2971.025
3270.57277	2962.425
3272.83812	2960.325
3275.10211	2955.125
3277.36474	2944.325
3279.62601	2946.325
3281.88593	2954.625
3284.14448	2941.225
3286.40168	2946.325
3288.65753	2946.825
3290.91202	2938.925
3293.16516	2938.225
3295.41695	2936.725
3297.66738	2915.825
3299.91647	2908.225
3302.16421	2888.125
3304.4106	2867.925
3306.65564	2867.525
3308.89933	2837.425
3311.14169	2830.125
3313.38269	2816.025
3315.62236	2791.725
3317.86068	2760.925
3320.09766	2741.025
3322.3333	2716.725
3324.5676	2724.425
3326.80056	2693.425
3329.03219	2662.525
3331.26248	0.825
3333.49143	-0.175
3335.71905	0.225
