Data from AgNP_FTO_APTES_CRN_0uM_R6G_10uM_NaF_0.1M_Addition_RamanShift__60__12-39-42-972.txt Node

Date: Wed Dec 15 12:39:42 GMT 2021
User: TCL
Spectrometer: QEP01345
Trigger mode: 4
Integration Time (sec): 7.000000E0
Scans to average: 10
Electric dark correction enabled: true
Nonlinearity correction enabled: false
Boxcar width: 0
XAxis mode: Raman Shifts
Number of Pixels in Spectrum: 1044
>>>>>Begin Spectral Data<<<<<
46.04893	1.3875
50.45542	-2.3125
54.85868	-1.2125
59.25871	-1.1125
63.6555	135.1875
68.04907	146.2875
72.43941	152.5875
76.82654	160.3875
81.21044	168.0875
85.59113	174.4875
89.96862	180.9875
94.34289	185.1875
98.71396	188.5875
103.08183	195.2875
107.4465	206.7875
111.80798	207.5875
116.16626	209.9875
120.52136	218.2875
124.87327	225.8875
129.222	236.7875
133.56755	248.8875
137.90993	262.5875
142.24913	287.7875
146.58517	313.4875
150.91804	360.0875
155.24774	421.1875
159.57429	523.1875
163.89768	654.9875
168.21792	863.0875
172.53501	1165.6875
176.84895	1612.7875
181.15975	2243.8875
185.46741	3138.9875
189.77193	4302.4875
194.07331	5760.9875
198.37157	7390.3875
202.6667	9106.6875
206.9587	10827.5875
211.24758	12469.0875
215.53334	14183.8875
219.81599	15992.4875
224.09553	18062.0875
228.37195	20282.4875
232.64527	22759.0875
236.91549	25370.0875
241.18261	27858.3875
245.44663	30104.6875
249.70755	32106.8875
253.96539	33770.5875
258.22014	35204.9875
262.4718	36453.9875
266.72039	37326.2875
270.96589	37737.7875
275.20832	37758.9875
279.44768	37467.7875
283.68397	37062.0875
287.91719	36708.8875
292.14735	36499.5875
296.37445	36511.7875
300.59849	36688.7875
304.81948	37083.6875
309.03742	37284.4875
313.25231	37122.7875
317.46415	36333.3875
321.67296	35171.4875
325.87872	34192.2875
330.08145	33771.5875
334.28114	33721.2875
338.47781	34058.6875
342.67145	34515.6875
346.86207	35215.9875
351.04966	36171.7875
355.23424	37190.8875
359.4158	38085.4875
363.59435	38646.2875
367.76989	38962.0875
371.94243	39017.6875
376.11196	39119.3875
380.27849	39163.5875
384.44203	39224.4875
388.60257	39391.1875
392.76012	39631.6875
396.91468	40181.4875
401.06626	40943.5875
405.21485	41544.1875
409.36047	41356.5875
413.50311	40564.7875
417.64277	39962.5875
421.77947	39711.9875
425.9132	39760.1875
430.04396	39992.0875
434.17176	40201.2875
438.2966	40603.5875
442.41849	41354.8875
446.53742	42469.1875
450.6534	43827.1875
454.76644	44860.1875
458.87653	45162.7875
462.98368	44937.5875
467.08789	44234.9875
471.18916	43326.8875
475.2875	42440.7875
479.38291	41892.1875
483.4754	41457.2875
487.56496	41073.9875
491.6516	40512.5875
495.73531	40163.3875
499.81612	40038.2875
503.89401	40309.0875
507.96899	40590.1875
512.04106	40650.5875
516.11023	40683.5875
520.1765	40559.3875
524.23987	40474.1875
528.30034	40063.0875
532.35792	39623.8875
536.41261	38894.5875
540.46441	38251.2875
544.51333	38078.0875
548.55936	38367.5875
552.60252	39149.7875
556.64279	39980.6875
560.6802	40456.1875
564.71473	40731.5875
568.7464	41473.1875
572.7752	42427.4875
576.80114	43173.0875
580.82422	43899.1875
584.84444	44828.2875
588.86181	45785.8875
592.87633	46814.6875
596.888	47819.6875
600.89682	48437.5875
604.9028	50627.6875
608.90594	55765.1875
612.90624	60434.2875
616.90371	56264.8875
620.89834	46147.0875
624.89015	41864.6875
628.87913	41485.5875
632.86528	41449.6875
636.84862	40915.0875
640.82913	39978.4875
644.80683	38577.9875
648.78172	37637.6875
652.75379	37520.0875
656.72306	38190.7875
660.68952	39047.8875
664.65319	38875.1875
668.61405	37977.0875
672.57211	37659.3875
676.52738	37609.7875
680.47986	37459.9875
684.42955	37276.3875
688.37646	37182.2875
692.32058	37380.6875
696.26192	37868.0875
700.20048	38402.4875
704.13626	38701.6875
708.06928	38578.1875
711.99952	38296.1875
715.927	38311.9875
719.85171	38520.3875
723.77365	38213.3875
727.69284	37609.8875
731.60928	37044.2875
735.52295	36911.2875
739.43388	36972.9875
743.34206	37123.6875
747.24749	37410.7875
751.15017	37744.2875
755.05012	38503.4875
758.94733	39752.1875
762.8418	42195.2875
766.73354	45920.1875
770.62254	49526.0875
774.50882	50452.4875
778.39237	47910.0875
782.27321	43874.4875
786.15132	40623.1875
790.02671	38664.0875
793.89938	37829.8875
797.76935	37526.1875
801.6366	37378.6875
805.50115	37218.8875
809.36299	36943.7875
813.22213	36612.6875
817.07857	36444.3875
820.93231	36372.5875
824.78336	36254.1875
828.63172	36242.1875
832.47738	36316.5875
836.32036	36528.6875
840.16066	36806.5875
843.99827	37035.7875
847.8332	36936.6875
851.66546	36612.8875
855.49504	36511.6875
859.32195	36466.3875
863.1462	36293.3875
866.96777	36048.8875
870.78668	35920.8875
874.60293	35897.8875
878.41652	35868.8875
882.22745	36049.9875
886.03573	36216.4875
889.84136	36186.6875
893.64433	35976.6875
897.44466	35766.2875
901.24235	35677.3875
905.0374	35608.9875
908.8298	35574.5875
912.61957	35649.1875
916.40671	36080.9875
920.19121	36691.3875
923.97308	37416.1875
927.75233	37855.4875
931.52895	37793.2875
935.30295	37232.2875
939.07433	36343.3875
942.84309	35715.1875
946.60924	35446.2875
950.37278	35400.6875
954.13371	35148.9875
957.89203	34912.6875
961.64774	34753.8875
965.40086	34647.7875
969.15137	34542.7875
972.89929	34445.9875
976.64461	34454.4875
980.38733	34563.5875
984.12747	34797.9875
987.86502	35317.6875
991.59999	35996.0875
995.33237	37002.1875
999.06217	38611.8875
1002.78939	40405.6875
1006.51404	41472.5875
1010.23611	42040.0875
1013.95561	42323.3875
1017.67255	42079.7875
1021.38692	41278.4875
1025.09872	40939.5875
1028.80796	41621.3875
1032.51465	43542.9875
1036.21877	45296.2875
1039.92035	45537.0875
1043.61937	44516.7875
1047.31584	42740.3875
1051.00976	40975.5875
1054.70114	39958.2875
1058.38998	39842.8875
1062.07627	40131.2875
1065.76003	40582.0875
1069.44126	41347.2875
1073.11995	42542.3875
1076.79611	43597.4875
1080.46974	44049.5875
1084.14085	44080.2875
1087.80943	44058.3875
1091.47549	43980.6875
1095.13903	43427.7875
1098.80005	42488.7875
1102.45857	41325.5875
1106.11456	40564.3875
1109.76805	40288.0875
1113.41903	40443.4875
1117.06751	40674.3875
1120.71348	41090.0875
1124.35696	41412.8875
1127.99793	41914.6875
1131.63641	42199.9875
1135.2724	41982.6875
1138.90589	41694.7875
1142.5369	41408.8875
1146.16542	41312.3875
1149.79145	41242.0875
1153.415	41535.4875
1157.03607	42042.7875
1160.65467	43067.2875
1164.27079	44878.9875
1167.88443	47454.6875
1171.49561	50871.9875
1175.10432	55420.3875
1178.71056	61216.0875
1182.31434	66591.8875
1185.91565	69249.2875
1189.51451	68463.3875
1193.11091	65317.3875
1196.70485	61508.6875
1200.29634	58338.3875
1203.88538	55998.2875
1207.47197	54435.0875
1211.05612	53290.8875
1214.63782	52523.0875
1218.21708	52155.3875
1221.79391	52089.9875
1225.36829	52105.5875
1228.94024	51606.9875
1232.50976	50492.6875
1236.07685	49337.2875
1239.6415	48685.5875
1243.20374	48551.6875
1246.76355	48842.4875
1250.32093	49764.8875
1253.8759	51145.6875
1257.42845	52827.6875
1260.97859	54554.5875
1264.52631	56269.0875
1268.07163	58015.3875
1271.61453	60096.3875
1275.15503	62321.6875
1278.69312	64616.1875
1282.22882	66543.6875
1285.76211	68326.4875
1289.29301	69930.3875
1292.82151	71907.2875
1296.34761	74721.8875
1299.87133	78770.0875
1303.39266	84147.8875
1306.9116	90534.1875
1310.42815	96944.9875
1313.94233	100957.7875
1317.45412	100901.5875
1320.96354	98227.6875
1324.47058	94556.1875
1327.97525	91356.4875
1331.47754	89071.8875
1334.97747	87487.8875
1338.47502	86403.9875
1341.97022	85195.0875
1345.46305	83645.7875
1348.95352	82361.7875
1352.44163	82454.9875
1355.92738	85364.5875
1359.41078	91058.2875
1362.89183	96608.1875
1366.37053	95964.9875
1369.84688	87917.9875
1373.32088	77728.2875
1376.79254	70349.7875
1380.26186	67063.9875
1383.72883	66119.3875
1387.19347	65468.7875
1390.65578	64293.9875
1394.11575	63471.5875
1397.57339	63795.0875
1401.0287	64978.2875
1404.48168	66263.2875
1407.93234	66751.8875
1411.38068	66177.8875
1414.82669	64501.0875
1418.27039	62098.8875
1421.71177	59621.4875
1425.15083	57552.9875
1428.58758	56456.3875
1432.02203	56756.6875
1435.45416	58019.8875
1438.88399	59690.5875
1442.31151	61058.5875
1445.73673	62016.6875
1449.15965	62748.4875
1452.58027	62980.4875
1455.9986	62733.0875
1459.41463	62969.4875
1462.82837	63944.1875
1466.23982	65649.5875
1469.64898	67200.7875
1473.05586	68099.4875
1476.46045	68318.0875
1479.86276	68115.1875
1483.26279	67502.8875
1486.66054	67102.7875
1490.05602	67222.4875
1493.44922	67623.6875
1496.84016	68251.9875
1500.22882	69510.0875
1503.61521	71694.7875
1506.99934	74562.4875
1510.38121	77302.3875
1513.76081	78268.0875
1517.13816	76617.3875
1520.51324	73005.5875
1523.88607	69419.0875
1527.25665	67233.9875
1530.62498	66171.4875
1533.99105	65537.0875
1537.35488	64938.1875
1540.71647	64283.1875
1544.07581	63319.5875
1547.4329	62149.3875
1550.78776	61018.9875
1554.14038	60177.2875
1557.49077	59646.7875
1560.83892	59348.8875
1564.18484	59338.2875
1567.52853	59737.8875
1570.86999	60537.1875
1574.20922	61921.4875
1577.54624	63381.0875
1580.88103	64115.5875
1584.2136	64581.2875
1587.54395	65924.6875
1590.87208	68808.7875
1594.19801	73218.1875
1597.52172	77965.6875
1600.84321	79542.7875
1604.16251	75634.7875
1607.47959	68580.9875
1610.79447	61417.8875
1614.10715	55380.1875
1617.41763	50885.3875
1620.7259	48028.2875
1624.03199	46689.5875
1627.33587	46939.7875
1630.63757	48581.3875
1633.93707	51925.8875
1637.23439	57274.5875
1640.52951	64392.9875
1643.82246	72361.6875
1647.11321	78404.7875
1650.40179	79271.2875
1653.68819	73560.2875
1656.97241	63687.1875
1660.25446	53903.3875
1663.53433	46814.2875
1666.81203	42224.0875
1670.08756	39416.9875
1673.36092	37679.2875
1676.63211	36529.0875
1679.90115	35679.2875
1683.16801	35031.2875
1686.43272	34688.0875
1689.69527	34381.1875
1692.95567	34169.1875
1696.2139	33988.7875
1699.46999	33841.8875
1702.72392	33811.9875
1705.97571	33703.0875
1709.22535	33638.5875
1712.47284	33577.2875
1715.71819	33530.8875
1718.96139	33442.4875
1722.20246	33298.1875
1725.44139	33183.2875
1728.67818	32985.7875
1731.91284	32773.8875
1735.14537	32588.3875
1738.37576	32397.6875
1741.60403	32327.3875
1744.83017	32219.1875
1748.05418	32132.3875
1751.27607	32039.9875
1754.49584	31993.3875
1757.71349	31926.0875
1760.92903	31894.0875
1764.14244	31882.6875
1767.35375	31856.2875
1770.56294	31839.8875
1773.77002	31784.3875
1776.97499	31762.1875
1780.17785	31736.5875
1783.37861	31696.0875
1786.57727	31667.3875
1789.77382	31575.7875
1792.96828	31491.8875
1796.16064	31459.7875
1799.3509	31405.0875
1802.53907	31368.8875
1805.72514	31305.3875
1808.90913	31205.1875
1812.09102	31187.3875
1815.27083	31093.7875
1818.44856	31024.6875
1821.6242	31027.7875
1824.79776	30935.0875
1827.96924	31003.6875
1831.13864	30986.7875
1834.30597	30991.5875
1837.47122	30954.7875
1840.6344	30968.8875
1843.7955	31002.9875
1846.95454	30992.9875
1850.11151	30984.1875
1853.26642	30948.8875
1856.41926	30918.4875
1859.57004	30940.8875
1862.71876	30895.5875
1865.86542	30932.6875
1869.01003	30874.7875
1872.15258	30916.1875
1875.29308	30873.3875
1878.43152	30879.2875
1881.56792	30879.4875
1884.70227	30932.9875
1887.83457	30894.4875
1890.96482	30894.9875
1894.09304	30854.0875
1897.21921	30902.4875
1900.34335	30849.8875
1903.46544	30877.4875
1906.58551	30892.9875
1909.70353	30854.3875
1912.81953	30870.6875
1915.93349	30756.3875
1919.04543	30687.0875
1922.15534	30641.2875
1925.26322	30543.3875
1928.36908	30445.7875
1931.47292	30415.0875
1934.57473	30307.2875
1937.67453	30230.6875
1940.77232	30154.3875
1943.86808	30014.9875
1946.96184	29891.7875
1950.05358	29821.2875
1953.14331	29695.9875
1956.23103	29619.0875
1959.31675	29572.5875
1962.40046	29481.4875
1965.48217	29448.4875
1968.56188	29341.3875
1971.63959	29266.5875
1974.7153	29136.6875
1977.78901	29076.1875
1980.86073	29021.0875
1983.93046	28905.8875
1986.99819	28853.4875
1990.06394	28756.4875
1993.1277	28689.0875
1996.18947	28606.1875
1999.24925	28520.1875
2002.30706	28420.0875
2005.36288	28358.8875
2008.41672	28317.0875
2011.46859	28221.1875
2014.51848	28177.1875
2017.56639	28173.2875
2020.61233	28073.1875
2023.6563	27999.2875
2026.6983	27972.9875
2029.73833	27938.5875
2032.7764	27876.9875
2035.8125	27867.3875
2038.84664	27821.6875
2041.87881	27796.7875
2044.90903	27790.1875
2047.93729	27766.5875
2050.96359	27737.4875
2053.98794	27644.4875
2057.01034	27679.7875
2060.03078	27625.1875
2063.04927	27626.1875
2066.06582	27607.0875
2069.08042	27625.7875
2072.09307	27574.3875
2075.10378	27552.1875
2078.11255	27508.6875
2081.11938	27565.1875
2084.12426	27505.7875
2087.12722	27445.3875
2090.12824	27459.2875
2093.12732	27462.6875
2096.12447	27410.8875
2099.11969	27418.0875
2102.11299	27461.4875
2105.10435	27441.7875
2108.09379	27547.5875
2111.08131	27497.8875
2114.0669	27487.0875
2117.05057	27527.3875
2120.03233	27516.2875
2123.01216	27555.4875
2125.99008	27583.8875
2128.96609	27612.9875
2131.94018	27603.6875
2134.91236	27653.1875
2137.88263	27693.6875
2140.851	27727.8875
2143.81746	27740.8875
2146.78201	27713.8875
2149.74466	27765.7875
2152.7054	27763.7875
2155.66425	27752.5875
2158.6212	27731.7875
2161.57625	27764.1875
2164.52941	27743.0875
2167.48067	27732.1875
2170.43004	27729.3875
2173.37752	27713.2875
2176.32311	27707.1875
2179.26681	27719.6875
2182.20863	27758.6875
2185.14856	27767.2875
2188.08661	27800.1875
2191.02278	27775.5875
2193.95707	27804.3875
2196.88948	27793.0875
2199.82001	27851.4875
2202.74867	27866.9875
2205.67545	27862.5875
2208.60037	27794.6875
2211.52341	27824.8875
2214.44458	27853.6875
2217.36388	27787.4875
2220.28132	27760.4875
2223.1969	27694.2875
2226.11061	27738.6875
2229.02246	27676.6875
2231.93245	27573.0875
2234.84058	27500.5875
2237.74686	27510.9875
2240.65128	27458.9875
2243.55385	27387.0875
2246.45456	27325.0875
2249.35343	27322.6875
2252.25044	27298.4875
2255.14561	27217.9875
2258.03893	27212.1875
2260.93041	27216.7875
2263.82004	27182.2875
2266.70783	27092.9875
2269.59378	26989.2875
2272.4779	26978.9875
2275.36017	26838.8875
2278.24061	26851.5875
2281.11922	26784.5875
2283.996	26816.4875
2286.87094	26784.3875
2289.74405	26686.3875
2292.61534	26697.9875
2295.4848	26667.1875
2298.35243	26719.4875
2301.21824	26739.0875
2304.08223	26810.1875
2306.94439	26825.7875
2309.80474	26831.4875
2312.66327	26869.4875
2315.51999	26876.4875
2318.37489	26880.3875
2321.22797	26890.4875
2324.07925	26883.3875
2326.92871	26861.7875
2329.77637	26852.7875
2332.62222	26862.9875
2335.46626	26864.7875
2338.3085	26887.0875
2341.14893	26949.2875
2343.98756	27002.6875
2346.8244	26966.9875
2349.65943	26933.0875
2352.49267	26969.0875
2355.32411	26964.2875
2358.15376	26910.8875
2360.98161	26852.6875
2363.80768	26799.0875
2366.63195	26831.9875
2369.45444	26759.6875
2372.27514	26683.1875
2375.09405	26607.3875
2377.91118	26513.3875
2380.72652	26485.3875
2383.54009	26428.7875
2386.35187	26410.3875
2389.16188	26394.3875
2391.97011	26399.6875
2394.77657	26369.7875
2397.58125	26329.5875
2400.38416	26271.5875
2403.18529	26225.5875
2405.98466	26147.6875
2408.78226	26083.8875
2411.57809	26054.4875
2414.37216	25975.2875
2417.16446	25961.7875
2419.955	25905.5875
2422.74378	25886.2875
2425.5308	25821.6875
2428.31606	25869.1875
2431.09956	25836.1875
2433.88131	25761.1875
2436.6613	25803.5875
2439.43954	25815.7875
2442.21603	25830.5875
2444.99077	25807.2875
2447.76377	25780.1875
2450.53501	25754.2875
2453.30451	25782.6875
2456.07226	25798.8875
2458.83827	25764.6875
2461.60254	25792.4875
2464.36507	25781.7875
2467.12586	25784.5875
2469.88492	25811.0875
2472.64224	25826.3875
2475.39782	25839.2875
2478.15167	25873.1875
2480.90379	25903.4875
2483.65417	25921.3875
2486.40283	25940.0875
2489.14976	25963.2875
2491.89497	25959.9875
2494.63845	26019.6875
2497.3802	26028.8875
2500.12024	26030.0875
2502.85855	26034.7875
2505.59514	25992.4875
2508.33002	25951.0875
2511.06318	25902.4875
2513.79462	25874.7875
2516.52435	25816.0875
2519.25237	25788.6875
2521.97867	25814.2875
2524.70327	25832.2875
2527.42616	25799.8875
2530.14734	25816.0875
2532.86681	25814.7875
2535.58458	25852.8875
2538.30065	25796.3875
2541.01501	25790.8875
2543.72768	25769.2875
2546.43864	25774.9875
2549.14791	25774.9875
2551.85548	25764.0875
2554.56136	25750.7875
2557.26554	25687.9875
2559.96803	25662.7875
2562.66883	25688.1875
2565.36794	25648.2875
2568.06536	25643.8875
2570.7611	25674.8875
2573.45514	25643.6875
2576.14751	25654.5875
2578.83819	25635.5875
2581.52719	25655.8875
2584.21451	25612.0875
2586.90015	25660.7875
2589.58411	25604.0875
2592.2664	25611.2875
2594.94701	25577.3875
2597.62594	25570.4875
2600.30321	25578.2875
2602.9788	25568.0875
2605.65273	25512.4875
2608.32498	25590.6875
2610.99557	25550.7875
2613.66449	25560.2875
2616.33175	25552.8875
2618.99734	25585.2875
2621.66128	25591.2875
2624.32355	25548.4875
2626.98416	25630.7875
2629.64311	25605.7875
2632.30041	25636.9875
2634.95605	25625.1875
2637.61004	25580.4875
2640.26238	25603.0875
2642.91306	25562.7875
2645.56209	25489.9875
2648.20948	25448.0875
2650.85521	25438.4875
2653.4993	25429.8875
2656.14175	25470.2875
2658.78255	25513.4875
2661.42171	25460.7875
2664.05923	25521.6875
2666.6951	25509.2875
2669.32934	25549.2875
2671.96194	25562.8875
2674.59291	25517.0875
2677.22224	25503.5875
2679.84993	25508.1875
2682.476	25481.8875
2685.10043	25429.1875
2687.72324	25410.1875
2690.34441	25374.6875
2692.96396	25375.2875
2695.58188	25400.4875
2698.19818	25336.7875
2700.81285	25368.1875
2703.4259	25300.2875
2706.03733	25308.5875
2708.64714	25289.6875
2711.25533	25346.2875
2713.86191	25338.5875
2716.46687	25386.2875
2719.07021	25365.6875
2721.67194	25412.5875
2724.27206	25363.3875
2726.87057	25401.7875
2729.46747	25428.0875
2732.06276	25460.1875
2734.65644	25444.0875
2737.24852	25469.9875
2739.83899	25396.6875
2742.42786	25398.9875
2745.01513	25361.5875
2747.60079	25366.8875
2750.18486	25356.5875
2752.76733	25374.3875
2755.3482	25363.3875
2757.92747	25370.6875
2760.50515	25371.3875
2763.08123	25325.2875
2765.65573	25332.7875
2768.22863	25340.3875
2770.79994	25316.9875
2773.36967	25310.2875
2775.9378	25295.3875
2778.50435	25281.1875
2781.06932	25302.2875
2783.6327	25269.6875
2786.1945	25261.4875
2788.75471	25246.0875
2791.31335	25189.2875
2793.87041	25166.4875
2796.42589	25078.9875
2798.97979	25076.8875
2801.53212	25022.9875
2804.08288	24966.5875
2806.63206	24935.6875
2809.17967	24866.7875
2811.72571	24865.3875
2814.27018	24843.6875
2816.81308	24786.9875
2819.35442	24825.1875
2821.89419	24736.9875
2824.43239	24750.9875
2826.96904	24734.3875
2829.50412	24709.5875
2832.03763	24709.3875
2834.56959	24702.1875
2837.1	24662.7875
2839.62884	24672.4875
2842.15613	24612.1875
2844.68186	24616.3875
2847.20604	24603.1875
2849.72867	24613.9875
2852.24974	24604.2875
2854.76927	24590.9875
2857.28724	24559.1875
2859.80367	24518.1875
2862.31855	24528.1875
2864.83189	24528.5875
2867.34368	24503.6875
2869.85393	24481.0875
2872.36264	24487.4875
2874.8698	24458.5875
2877.37543	24513.3875
2879.87952	24528.3875
2882.38207	24548.5875
2884.88308	24541.1875
2887.38256	24537.7875
2889.88051	24564.4875
2892.37692	24593.3875
2894.8718	24608.8875
2897.36515	24627.1875
2899.85698	24606.4875
2902.34727	24695.7875
2904.83604	24726.8875
2907.32328	24725.8875
2909.809	24738.9875
2912.29319	24781.8875
2914.77587	24771.4875
2917.25702	24754.9875
2919.73665	24760.1875
2922.21476	24718.8875
2924.69136	24688.2875
2927.16644	24681.8875
2929.64	24626.1875
2932.11205	24579.6875
2934.58258	24496.6875
2937.05161	24542.6875
2939.51912	24555.3875
2941.98513	24495.0875
2944.44962	24444.3875
2946.91261	24332.8875
2949.37409	24376.9875
2951.83407	24375.6875
2954.29254	24380.2875
2956.74951	24333.0875
2959.20498	24333.8875
2961.65895	24271.7875
2964.11142	24275.9875
2966.56239	24170.8875
2969.01186	24129.7875
2971.45984	24081.2875
2973.90632	24035.5875
2976.35131	23999.8875
2978.7948	23947.9875
2981.23681	23900.9875
2983.67732	23815.4875
2986.11635	23750.7875
2988.55388	23685.3875
2990.98993	23674.0875
2993.4245	23607.5875
2995.85758	23542.7875
2998.28917	23479.3875
3000.71928	23457.2875
3003.14791	23384.0875
3005.57506	23363.5875
3008.00073	23298.6875
3010.42493	23345.6875
3012.84764	23273.6875
3015.26888	23253.4875
3017.68865	23225.7875
3020.10694	23197.5875
3022.52376	23127.8875
3024.9391	23084.5875
3027.35298	23082.7875
3029.76539	23033.4875
3032.17632	23031.4875
3034.5858	22969.3875
3036.9938	22960.2875
3039.40034	22954.4875
3041.80542	22928.1875
3044.20903	22871.4875
3046.61118	22851.9875
3049.01187	22818.8875
3051.4111	22780.8875
3053.80888	22720.0875
3056.20519	22681.5875
3058.60005	22645.4875
3060.99345	22636.9875
3063.3854	22562.1875
3065.7759	22482.4875
3068.16494	22494.9875
3070.55254	22409.9875
3072.93868	22347.4875
3075.32338	22324.4875
3077.70662	22228.4875
3080.08842	22201.8875
3082.46878	22179.4875
3084.84769	22112.5875
3087.22515	22121.0875
3089.60118	22164.0875
3091.97576	22156.4875
3094.3489	22097.3875
3096.72061	22103.9875
3099.09087	22072.9875
3101.4597	22006.8875
3103.82709	22021.6875
3106.19305	22000.1875
3108.55757	22023.5875
3110.92066	21949.1875
3113.28232	21923.0875
3115.64255	21857.9875
3118.00134	21796.4875
3120.35871	21795.5875
3122.71466	21733.2875
3125.06917	21705.4875
3127.42226	21657.1875
3129.77393	21655.0875
3132.12417	21644.3875
3134.47299	21636.0875
3136.82039	21649.5875
3139.16636	21652.7875
3141.51092	21589.5875
3143.85406	21632.3875
3146.19579	21588.8875
3148.53609	21600.7875
3150.87499	21589.6875
3153.21246	21610.8875
3155.54853	21660.2875
3157.88318	21612.7875
3160.21642	21620.9875
3162.54826	21568.9875
3164.87868	21562.9875
3167.2077	21527.1875
3169.5353	21551.6875
3171.86151	21527.6875
3174.18631	21468.3875
3176.5097	21471.5875
3178.83169	21457.2875
3181.15228	21445.9875
3183.47147	21408.3875
3185.78926	21428.1875
3188.10565	21421.6875
3190.42065	21424.2875
3192.73424	21397.6875
3195.04645	21402.3875
3197.35725	21421.0875
3199.66667	21357.5875
3201.97469	21398.3875
3204.28132	21341.6875
3206.58656	21391.1875
3208.8904	21368.0875
3211.19287	21371.4875
3213.49394	21357.3875
3215.79363	21381.3875
3218.09193	21378.8875
3220.38884	21407.4875
3222.68438	21389.6875
3224.97853	21341.0875
3227.2713	21329.6875
3229.56269	21322.5875
3231.8527	21306.0875
3234.14133	21255.0875
3236.42858	21202.3875
3238.71446	21207.5875
3240.99896	21166.5875
3243.28209	21146.5875
3245.56384	21149.2875
3247.84423	21204.9875
3250.12324	21144.8875
3252.40088	21160.7875
3254.67715	21101.0875
3256.95205	21089.4875
3259.22558	21039.9875
3261.49775	20988.0875
3263.76855	20984.3875
3266.03799	20908.6875
3268.30606	20934.9875
3270.57277	20913.7875
3272.83812	20872.9875
3275.10211	20849.7875
3277.36474	20808.7875
3279.62601	20850.7875
3281.88593	20848.4875
3284.14448	20885.2875
3286.40168	20855.9875
3288.65753	20797.4875
3290.91202	20780.0875
3293.16516	20750.3875
3295.41695	20715.5875
3297.66738	20584.9875
3299.91647	20521.5875
3302.16421	20385.3875
3304.4106	20326.8875
3306.65564	20215.3875
3308.89933	20095.1875
3311.14169	19951.5875
3313.38269	19818.7875
3315.62236	19712.1875
3317.86068	19548.2875
3320.09766	19370.7875
3322.3333	19218.7875
3324.5676	19178.2875
3326.80056	18926.2875
3329.03219	18773.4875
3331.26248	4.6875
3333.49143	-0.6125
3335.71905	-0.2125
