Data from AgNP_FTO_APTES_CRN_50uM_R6G_10uM_NaF_0.1M_Addition_RamanShift__29__18-19-48-091.txt Node

Date: Wed Dec 15 18:19:48 GMT 2021
User: TCL
Spectrometer: QEP01345
Trigger mode: 4
Integration Time (sec): 7.000000E0
Scans to average: 10
Electric dark correction enabled: true
Nonlinearity correction enabled: false
Boxcar width: 0
XAxis mode: Raman Shifts
Number of Pixels in Spectrum: 1044
>>>>>Begin Spectral Data<<<<<
46.04893	-0.1
50.45542	-1.7
54.85868	-0.1
59.25871	-0.2
63.6555	61.3
68.04907	68.6
72.43941	73.3
76.82654	76.6
81.21044	79.3
85.59113	76.6
89.96862	83.4
94.34289	80.3
98.71396	91.9
103.08183	95.9
107.4465	96.1
111.80798	99.1
116.16626	98.6
120.52136	100.9
124.87327	102.5
129.222	106.9
133.56755	110.4
137.90993	118.7
142.24913	132.3
146.58517	145.9
150.91804	161.6
155.24774	191
159.57429	238.5
163.89768	303.5
168.21792	397.8
172.53501	539.8
176.84895	747.6
181.15975	1046.9
185.46741	1464.5
189.77193	2016.8
194.07331	2711.4
198.37157	3482.7
202.6667	4316.1
206.9587	5142.7
211.24758	5950
215.53334	6754.4
219.81599	7632.7
224.09553	8625.7
228.37195	9684.4
232.64527	10867.9
236.91549	12082.1
241.18261	13283.1
245.44663	14399.5
249.70755	15371
253.96539	16189.1
258.22014	16943.6
262.4718	17544.4
266.72039	18024.7
270.96589	18275
275.20832	18337.7
279.44768	18237.5
283.68397	18032
287.91719	17882.1
292.14735	17840.2
296.37445	17942.1
300.59849	18171.5
304.81948	18445.6
309.03742	18570
313.25231	18466.4
317.46415	17897.8
321.67296	17106.9
325.87872	16478.6
330.08145	16190
334.28114	16173.3
338.47781	16386
342.67145	16707.3
346.86207	17128.6
351.04966	17699.1
355.23424	18388.7
359.4158	18906.4
363.59435	19203.2
367.76989	19375.2
371.94243	19445.3
376.11196	19502.6
380.27849	19536.5
384.44203	19484.9
388.60257	19448.6
392.76012	19502.3
396.91468	19633.1
401.06626	20013.1
405.21485	20295.4
409.36047	20171.1
413.50311	19644.8
417.64277	19137.6
421.77947	18891.9
425.9132	18783.9
430.04396	18847.9
434.17176	18985.3
438.2966	19186.5
442.41849	19478.8
446.53742	19963.4
450.6534	20386.1
454.76644	20799
458.87653	20956.6
462.98368	20886.4
467.08789	20679.9
471.18916	20358.9
475.2875	20049.1
479.38291	19786.5
483.4754	19552.6
487.56496	19302.9
491.6516	19149.9
495.73531	19024.2
499.81612	18958.3
503.89401	19106.2
507.96899	19203.1
512.04106	19377.1
516.11023	19539.3
520.1765	19685.5
524.23987	19717.8
528.30034	19519.3
532.35792	19318
536.41261	19067.7
540.46441	18820.9
544.51333	18705.8
548.55936	18831.9
552.60252	19095.4
556.64279	19374.2
560.6802	19553.6
564.71473	19665
568.7464	20022
572.7752	20297.2
576.80114	20167.6
580.82422	19885.9
584.84444	19797.8
588.86181	19893.8
592.87633	20071.3
596.888	20351.7
600.89682	20774.2
604.9028	22046
608.90594	25252.7
612.90624	29261.5
616.90371	28175.5
620.89834	22508.1
624.89015	19952
628.87913	19445.6
632.86528	19462.7
636.84862	19549.4
640.82913	19313.2
644.80683	18830.2
648.78172	18518.6
652.75379	18555.2
656.72306	18904.8
660.68952	19400.3
664.65319	19345.3
668.61405	18910.3
672.57211	18650.6
676.52738	18637.3
680.47986	18653.8
684.42955	18604.6
688.37646	18619.6
692.32058	18665.3
696.26192	18799.9
700.20048	18945
704.13626	19049.6
708.06928	19025.2
711.99952	18908.5
715.927	18873
719.85171	18868.9
723.77365	18855.7
727.69284	18705.2
731.60928	18588.4
735.52295	18594.3
739.43388	18615.7
743.34206	18680.3
747.24749	18754.5
751.15017	18871.1
755.05012	19107.3
758.94733	19626.6
762.8418	20741.7
766.73354	22628.9
770.62254	24668.2
774.50882	25521.8
778.39237	24622.7
782.27321	22422.2
786.15132	20481.3
790.02671	19346.2
793.89938	18816.6
797.76935	18641.7
801.6366	18556.2
805.50115	18511.9
809.36299	18449.4
813.22213	18371.6
817.07857	18384.7
820.93231	18398.6
824.78336	18400.8
828.63172	18487.8
832.47738	18519.3
836.32036	18552.5
840.16066	18535.9
843.99827	18523.2
847.8332	18476.5
851.66546	18421.4
855.49504	18423.1
859.32195	18366.3
863.1462	18324.2
866.96777	18250.8
870.78668	18249.8
874.60293	18241
878.41652	18245.5
882.22745	18343.4
886.03573	18357.1
889.84136	18331
893.64433	18246.5
897.44466	18223.2
901.24235	18207.8
905.0374	18183.3
908.8298	18140.6
912.61957	18179.7
916.40671	18267.4
920.19121	18373
923.97308	18486.7
927.75233	18614.1
931.52895	18678.5
935.30295	18539.2
939.07433	18252.5
942.84309	17986.5
946.60924	17847.4
950.37278	17736.1
954.13371	17640.6
957.89203	17578.5
961.64774	17507.9
965.40086	17464.8
969.15137	17408.7
972.89929	17350.8
976.64461	17352
980.38733	17327.2
984.12747	17389.4
987.86502	17514.7
991.59999	17681.4
995.33237	17893.4
999.06217	18284.6
1002.78939	18687.2
1006.51404	18974.3
1010.23611	19177.9
1013.95561	19321.6
1017.67255	19285.7
1021.38692	19147.6
1025.09872	19009.2
1028.80796	19150.6
1032.51465	19452.9
1036.21877	19759.1
1039.92035	19810.3
1043.61937	19662.5
1047.31584	19371.9
1051.00976	19075.6
1054.70114	18928.4
1058.38998	18923.8
1062.07627	19028.2
1065.76003	19223.2
1069.44126	19453.4
1073.11995	19751
1076.79611	20019.4
1080.46974	20216.2
1084.14085	20272.3
1087.80943	20302
1091.47549	20181.9
1095.13903	19833.4
1098.80005	19404
1102.45857	19041.7
1106.11456	18871.4
1109.76805	18888.5
1113.41903	19091.9
1117.06751	19381.5
1120.71348	19710.7
1124.35696	20112.3
1127.99793	20446.7
1131.63641	20437
1135.2724	20017.8
1138.90589	19591
1142.5369	19266.7
1146.16542	19068.3
1149.79145	18982.6
1153.415	19044.6
1157.03607	19136.9
1160.65467	19356.8
1164.27079	19850.9
1167.88443	20489.8
1171.49561	21615.4
1175.10432	23305.2
1178.71056	25487.7
1182.31434	27189.6
1185.91565	27813.8
1189.51451	27378.9
1193.11091	26246.9
1196.70485	24799.4
1200.29634	23656.7
1203.88538	22872.9
1207.47197	22080.1
1211.05612	21427.5
1214.63782	21056.3
1218.21708	20973.1
1221.79391	20953.7
1225.36829	20965.6
1228.94024	20985.1
1232.50976	20866.9
1236.07685	20795.6
1239.6415	20871.8
1243.20374	20981.3
1246.76355	21124.4
1250.32093	21366.3
1253.8759	21808.8
1257.42845	22282
1260.97859	22728.5
1264.52631	23110.9
1268.07163	23448.7
1271.61453	23901.2
1275.15503	24301.3
1278.69312	24626.3
1282.22882	24874.5
1285.76211	25198.2
1289.29301	25690.4
1292.82151	26279.7
1296.34761	26908.6
1299.87133	27864.2
1303.39266	29314.3
1306.9116	31425.9
1310.42815	33760.5
1313.94233	35219.1
1317.45412	35046
1320.96354	33757.4
1324.47058	32198.5
1327.97525	30740.2
1331.47754	29883
1334.97747	29626.9
1338.47502	29882.6
1341.97022	30401.7
1345.46305	30727.7
1348.95352	31216.8
1352.44163	32042.1
1355.92738	33643.1
1359.41078	36464.8
1362.89183	39441.3
1366.37053	38918.2
1369.84688	34774.6
1373.32088	30384
1376.79254	27589.3
1380.26186	26137.5
1383.72883	25485.5
1387.19347	25011.1
1390.65578	24518.8
1394.11575	24127
1397.57339	23997.9
1401.0287	24175.7
1404.48168	24493.3
1407.93234	24754.6
1411.38068	25019.1
1414.82669	24920.3
1418.27039	24427.6
1421.71177	23882.6
1425.15083	23320.7
1428.58758	23012.5
1432.02203	23050.9
1435.45416	23172
1438.88399	23351.9
1442.31151	23463.8
1445.73673	23612.6
1449.15965	23758
1452.58027	23817.5
1455.9986	23686.7
1459.41463	23637
1462.82837	23796.8
1466.23982	24145.5
1469.64898	24593.1
1473.05586	24915.9
1476.46045	25176.3
1479.86276	25409.1
1483.26279	25748.3
1486.66054	26097.9
1490.05602	26615.8
1493.44922	27193.8
1496.84016	27805.7
1500.22882	28861.5
1503.61521	30341.7
1506.99934	32284.1
1510.38121	34257.8
1513.76081	35370.7
1517.13816	34611.5
1520.51324	32170.8
1523.88607	29512.3
1527.25665	27596.2
1530.62498	26457.2
1533.99105	25819.9
1537.35488	25447
1540.71647	25222.5
1544.07581	25035.5
1547.4329	24903.9
1550.78776	24752.7
1554.14038	24655.4
1557.49077	24714.8
1560.83892	24842.2
1564.18484	25206.7
1567.52853	25504
1570.86999	25791.7
1574.20922	26258.4
1577.54624	26515.7
1580.88103	26274
1584.2136	25672
1587.54395	25298.6
1590.87208	25470.7
1594.19801	26355.5
1597.52172	27648.3
1600.84321	28313.8
1604.16251	27605.3
1607.47959	26095.7
1610.79447	24390.1
1614.10715	22814.5
1617.41763	21549.3
1620.7259	20775.6
1624.03199	20394.5
1627.33587	20435.3
1630.63757	20747.5
1633.93707	21459.7
1637.23439	22567.9
1640.52951	24063.2
1643.82246	25859.4
1647.11321	27724.9
1650.40179	28924
1653.68819	28266.9
1656.97241	25652.8
1660.25446	22736.3
1663.53433	20602.8
1666.81203	19219.5
1670.08756	18390.8
1673.36092	17879.2
1676.63211	17545.2
1679.90115	17326.1
1683.16801	17100.9
1686.43272	16978.3
1689.69527	16862.3
1692.95567	16823.7
1696.2139	16798.5
1699.46999	16789.3
1702.72392	16758.2
1705.97571	16718.5
1709.22535	16709
1712.47284	16713.5
1715.71819	16678
1718.96139	16662.4
1722.20246	16654.9
1725.44139	16604.4
1728.67818	16582.6
1731.91284	16447.6
1735.14537	16401.6
1738.37576	16330.1
1741.60403	16293.9
1744.83017	16276.3
1748.05418	16227.7
1751.27607	16200.2
1754.49584	16178.6
1757.71349	16189.1
1760.92903	16149.6
1764.14244	16187.2
1767.35375	16171
1770.56294	16169.8
1773.77002	16158
1776.97499	16142
1780.17785	16088.4
1783.37861	16030.6
1786.57727	16027.9
1789.77382	15978.1
1792.96828	15986.4
1796.16064	15985.1
1799.3509	15963
1802.53907	15934
1805.72514	15884.5
1808.90913	15872.1
1812.09102	15835.1
1815.27083	15808.8
1818.44856	15791.9
1821.6242	15768.2
1824.79776	15733.1
1827.96924	15728.2
1831.13864	15755.9
1834.30597	15742.5
1837.47122	15719
1840.6344	15695
1843.7955	15733.2
1846.95454	15696.4
1850.11151	15669.7
1853.26642	15702.1
1856.41926	15679
1859.57004	15677.6
1862.71876	15682.6
1865.86542	15672.2
1869.01003	15688
1872.15258	15681
1875.29308	15667
1878.43152	15639.7
1881.56792	15615.6
1884.70227	15628.8
1887.83457	15582.2
1890.96482	15584.8
1894.09304	15600.6
1897.21921	15611.2
1900.34335	15587.1
1903.46544	15580.6
1906.58551	15568.4
1909.70353	15539.4
1912.81953	15548.6
1915.93349	15526
1919.04543	15498
1922.15534	15462.4
1925.26322	15467.3
1928.36908	15415
1931.47292	15365.6
1934.57473	15377.4
1937.67453	15353.5
1940.77232	15257.2
1943.86808	15283
1946.96184	15247.3
1950.05358	15206.3
1953.14331	15147.4
1956.23103	15097.4
1959.31675	15087.4
1962.40046	15049.9
1965.48217	15008
1968.56188	14958.9
1971.63959	14906
1974.7153	14865.2
1977.78901	14807
1980.86073	14744.1
1983.93046	14763.7
1986.99819	14685.7
1990.06394	14676
1993.1277	14621.1
1996.18947	14579.2
1999.24925	14518
2002.30706	14486.8
2005.36288	14433.3
2008.41672	14418.6
2011.46859	14356
2014.51848	14361
2017.56639	14318.9
2020.61233	14279.1
2023.6563	14253.1
2026.6983	14220.1
2029.73833	14186.6
2032.7764	14169.8
2035.8125	14138.9
2038.84664	14111.5
2041.87881	14093.6
2044.90903	14047.8
2047.93729	14029.6
2050.96359	14061.7
2053.98794	14022.1
2057.01034	14005.9
2060.03078	13987.4
2063.04927	13993.4
2066.06582	13992.7
2069.08042	13970.1
2072.09307	13945
2075.10378	13925.7
2078.11255	13918.7
2081.11938	13933.8
2084.12426	13914.4
2087.12722	13909.2
2090.12824	13893.6
2093.12732	13914.3
2096.12447	13903.5
2099.11969	13887.3
2102.11299	13917.5
2105.10435	13893
2108.09379	13933.8
2111.08131	13954.2
2114.0669	13952.5
2117.05057	13952.5
2120.03233	13975.5
2123.01216	13995.6
2125.99008	13954.8
2128.96609	13990.7
2131.94018	14015
2134.91236	14041
2137.88263	14020.7
2140.851	14009
2143.81746	14059.4
2146.78201	14021.9
2149.74466	14039.8
2152.7054	14038.4
2155.66425	14063.7
2158.6212	14069.8
2161.57625	14052.6
2164.52941	14067.3
2167.48067	14062.5
2170.43004	14060.9
2173.37752	14047.1
2176.32311	14047.5
2179.26681	14050.1
2182.20863	14052.9
2185.14856	14045.1
2188.08661	14018.2
2191.02278	14042.2
2193.95707	14020.7
2196.88948	13992.3
2199.82001	13994.5
2202.74867	13991.7
2205.67545	14004.2
2208.60037	13989.6
2211.52341	14005.2
2214.44458	13981.3
2217.36388	13948
2220.28132	13915.7
2223.1969	13913.8
2226.11061	13901.3
2229.02246	13916.4
2231.93245	13827.3
2234.84058	13803.3
2237.74686	13785.8
2240.65128	13778.6
2243.55385	13754
2246.45456	13715.3
2249.35343	13713.1
2252.25044	13716.9
2255.14561	13688.6
2258.03893	13694.3
2260.93041	13654.5
2263.82004	13649.7
2266.70783	13627.3
2269.59378	13604.7
2272.4779	13550.6
2275.36017	13515.6
2278.24061	13477.2
2281.11922	13439.3
2283.996	13434.1
2286.87094	13430.3
2289.74405	13387.9
2292.61534	13409.1
2295.4848	13363.1
2298.35243	13395.2
2301.21824	13385.2
2304.08223	13373.3
2306.94439	13361.8
2309.80474	13343.3
2312.66327	13353.3
2315.51999	13357.1
2318.37489	13361.6
2321.22797	13361.9
2324.07925	13309.7
2326.92871	13319.2
2329.77637	13297.4
2332.62222	13310
2335.46626	13300
2338.3085	13262.4
2341.14893	13260.3
2343.98756	13261.2
2346.8244	13273.8
2349.65943	13265.9
2352.49267	13238.9
2355.32411	13288
2358.15376	13240.8
2360.98161	13240
2363.80768	13256.2
2366.63195	13219.6
2369.45444	13197.1
2372.27514	13157
2375.09405	13153.8
2377.91118	13147.1
2380.72652	13125.5
2383.54009	13072
2386.35187	13052.2
2389.16188	13011.2
2391.97011	13005.5
2394.77657	12987.8
2397.58125	12962.6
2400.38416	12940.9
2403.18529	12903.7
2405.98466	12911.7
2408.78226	12871.3
2411.57809	12864.5
2414.37216	12805.4
2417.16446	12832.4
2419.955	12791.3
2422.74378	12796.1
2425.5308	12753.7
2428.31606	12742.7
2431.09956	12731.4
2433.88131	12720.7
2436.6613	12690.1
2439.43954	12698.3
2442.21603	12689.2
2444.99077	12697.4
2447.76377	12684.1
2450.53501	12699.2
2453.30451	12686.3
2456.07226	12646.9
2458.83827	12629
2461.60254	12643.8
2464.36507	12646.7
2467.12586	12631.1
2469.88492	12624.7
2472.64224	12621.8
2475.39782	12606.2
2478.15167	12655
2480.90379	12635.1
2483.65417	12658.3
2486.40283	12654.4
2489.14976	12651.8
2491.89497	12672.3
2494.63845	12687.2
2497.3802	12637.1
2500.12024	12665.1
2502.85855	12628.6
2505.59514	12637.2
2508.33002	12599.1
2511.06318	12570.2
2513.79462	12541.3
2516.52435	12546.1
2519.25237	12519.3
2521.97867	12486.8
2524.70327	12508.5
2527.42616	12480.3
2530.14734	12474.6
2532.86681	12424.4
2535.58458	12423
2538.30065	12416
2541.01501	12419
2543.72768	12417.2
2546.43864	12416.5
2549.14791	12367
2551.85548	12377.9
2554.56136	12315.7
2557.26554	12315.4
2559.96803	12304.6
2562.66883	12315.6
2565.36794	12320.8
2568.06536	12311.9
2570.7611	12284.4
2573.45514	12284
2576.14751	12254.8
2578.83819	12223.4
2581.52719	12227.9
2584.21451	12196.4
2586.90015	12197.7
2589.58411	12163.2
2592.2664	12179.3
2594.94701	12142.9
2597.62594	12134
2600.30321	12117.7
2602.9788	12122.9
2605.65273	12094.5
2608.32498	12073.7
2610.99557	12069.1
2613.66449	12069.9
2616.33175	12064.3
2618.99734	12073.3
2621.66128	12047.8
2624.32355	12060.6
2626.98416	12052.5
2629.64311	12040.3
2632.30041	12058.8
2634.95605	12046.6
2637.61004	12014.8
2640.26238	11983.4
2642.91306	11972.9
2645.56209	11972.2
2648.20948	11952.8
2650.85521	11933.3
2653.4993	11935.9
2656.14175	11924.6
2658.78255	11917.8
2661.42171	11910
2664.05923	11941.6
2666.6951	11951.1
2669.32934	11973.6
2671.96194	11937
2674.59291	11936.5
2677.22224	11955
2679.84993	11960
2682.476	11951
2685.10043	11942.4
2687.72324	11942
2690.34441	11941.8
2692.96396	11925.4
2695.58188	11934.3
2698.19818	11930.8
2700.81285	11942
2703.4259	11941.2
2706.03733	11983.8
2708.64714	11970.1
2711.25533	11992.4
2713.86191	11940.8
2716.46687	11979.4
2719.07021	11953.7
2721.67194	11964.7
2724.27206	11903.3
2726.87057	11942.1
2729.46747	11953.2
2732.06276	11952.7
2734.65644	11936.7
2737.24852	11957.5
2739.83899	11911.1
2742.42786	11946.8
2745.01513	11880.1
2747.60079	11884.9
2750.18486	11877.4
2752.76733	11897.1
2755.3482	11914
2757.92747	11878.5
2760.50515	11870
2763.08123	11868.8
2765.65573	11816.9
2768.22863	11803.6
2770.79994	11821.1
2773.36967	11829.5
2775.9378	11795.7
2778.50435	11766
2781.06932	11769.6
2783.6327	11773.6
2786.1945	11741.3
2788.75471	11722.4
2791.31335	11716.3
2793.87041	11682.6
2796.42589	11667.9
2798.97979	11662.7
2801.53212	11650.1
2804.08288	11627.1
2806.63206	11620.1
2809.17967	11590.1
2811.72571	11561
2814.27018	11578.7
2816.81308	11544.8
2819.35442	11543.8
2821.89419	11523.2
2824.43239	11507.7
2826.96904	11534.3
2829.50412	11532.9
2832.03763	11484.3
2834.56959	11509.2
2837.1	11472.7
2839.62884	11481
2842.15613	11486.1
2844.68186	11507.9
2847.20604	11503.8
2849.72867	11545.8
2852.24974	11495.5
2854.76927	11507.1
2857.28724	11482.4
2859.80367	11458.8
2862.31855	11447.1
2864.83189	11464.5
2867.34368	11421.2
2869.85393	11419.7
2872.36264	11422.6
2874.8698	11421
2877.37543	11430.6
2879.87952	11410.8
2882.38207	11413.6
2884.88308	11419.4
2887.38256	11413.5
2889.88051	11427.5
2892.37692	11415.9
2894.8718	11414.9
2897.36515	11434.2
2899.85698	11404.6
2902.34727	11425.5
2904.83604	11425.5
2907.32328	11462
2909.809	11444.8
2912.29319	11444.3
2914.77587	11443.9
2917.25702	11430.1
2919.73665	11392.3
2922.21476	11435.6
2924.69136	11405.1
2927.16644	11423.5
2929.64	11390.2
2932.11205	11388.5
2934.58258	11352.6
2937.05161	11398.2
2939.51912	11373.5
2941.98513	11340.9
2944.44962	11325
2946.91261	11277.2
2949.37409	11293.2
2951.83407	11304.5
2954.29254	11310.1
2956.74951	11223.1
2959.20498	11264.2
2961.65895	11257.3
2964.11142	11259.2
2966.56239	11223.5
2969.01186	11200.5
2971.45984	11163.6
2973.90632	11163.8
2976.35131	11116.9
2978.7948	11098.9
2981.23681	11081.6
2983.67732	11083.3
2986.11635	11072.6
2988.55388	11054.3
2990.98993	11015.4
2993.4245	11017.4
2995.85758	10999.5
2998.28917	10941.8
3000.71928	10943.4
3003.14791	10929.7
3005.57506	10934
3008.00073	10905.7
3010.42493	10888.9
3012.84764	10885.1
3015.26888	10850.3
3017.68865	10810.8
3020.10694	10807.9
3022.52376	10804.3
3024.9391	10774.7
3027.35298	10761.1
3029.76539	10782.2
3032.17632	10786.7
3034.5858	10767
3036.9938	10761.3
3039.40034	10732.9
3041.80542	10723.4
3044.20903	10700.4
3046.61118	10698
3049.01187	10660.2
3051.4111	10639.8
3053.80888	10626.4
3056.20519	10638.5
3058.60005	10594.6
3060.99345	10557.7
3063.3854	10544.9
3065.7759	10512.1
3068.16494	10504.1
3070.55254	10478.3
3072.93868	10452.5
3075.32338	10422.1
3077.70662	10410.2
3080.08842	10386.2
3082.46878	10372.7
3084.84769	10370.2
3087.22515	10371.8
3089.60118	10318.8
3091.97576	10382.2
3094.3489	10348.1
3096.72061	10333.3
3099.09087	10327.3
3101.4597	10334.7
3103.82709	10326.6
3106.19305	10300.5
3108.55757	10306.9
3110.92066	10262.8
3113.28232	10251.5
3115.64255	10226.9
3118.00134	10194.9
3120.35871	10214.3
3122.71466	10205.5
3125.06917	10176
3127.42226	10148.8
3129.77393	10179
3132.12417	10187.1
3134.47299	10176.6
3136.82039	10173.2
3139.16636	10189.6
3141.51092	10173.1
3143.85406	10183.5
3146.19579	10170.4
3148.53609	10190.2
3150.87499	10192.8
3153.21246	10180.3
3155.54853	10210.9
3157.88318	10184.7
3160.21642	10189.8
3162.54826	10184.5
3164.87868	10203.6
3167.2077	10182.8
3169.5353	10178.9
3171.86151	10169.5
3174.18631	10160
3176.5097	10160.1
3178.83169	10151.8
3181.15228	10138.8
3183.47147	10122.6
3185.78926	10153.7
3188.10565	10120.5
3190.42065	10109.5
3192.73424	10110.3
3195.04645	10116.5
3197.35725	10120.2
3199.66667	10120.8
3201.97469	10140.5
3204.28132	10159.2
3206.58656	10157.1
3208.8904	10153.8
3211.19287	10166.7
3213.49394	10143.1
3215.79363	10126.8
3218.09193	10138.3
3220.38884	10154.5
3222.68438	10138.5
3224.97853	10149.5
3227.2713	10142.3
3229.56269	10103
3231.8527	10098.3
3234.14133	10057.7
3236.42858	10054
3238.71446	10044.8
3240.99896	10051.2
3243.28209	10029.8
3245.56384	10007.3
3247.84423	10031.2
3250.12324	10024.8
3252.40088	9996.8
3254.67715	10013.2
3256.95205	9985.9
3259.22558	9996.6
3261.49775	9987.4
3263.76855	10004.2
3266.03799	9933.1
3268.30606	9925.4
3270.57277	9930.4
3272.83812	9895
3275.10211	9903.9
3277.36474	9861.9
3279.62601	9869.2
3281.88593	9861.9
3284.14448	9884.3
3286.40168	9903.5
3288.65753	9865
3290.91202	9848.7
3293.16516	9816.7
3295.41695	9787.4
3297.66738	9721.3
3299.91647	9716.9
3302.16421	9640.8
3304.4106	9612.7
3306.65564	9563.5
3308.89933	9486.8
3311.14169	9469.2
3313.38269	9371
3315.62236	9341.5
3317.86068	9242.5
3320.09766	9156.5
3322.3333	9105.3
3324.5676	9116.4
3326.80056	8948.4
3329.03219	8898.5
3331.26248	2.6
3333.49143	-0.4
3335.71905	-0.2
