Data from AgNP_FTO_APTES_CRN_0uM_R6G_10uM_NaF_0.1M_Addition_RamanShift__28__12-02-22-929.txt Node

Date: Wed Dec 15 12:02:22 GMT 2021
User: TCL
Spectrometer: QEP01345
Trigger mode: 4
Integration Time (sec): 7.000000E0
Scans to average: 10
Electric dark correction enabled: true
Nonlinearity correction enabled: false
Boxcar width: 0
XAxis mode: Raman Shifts
Number of Pixels in Spectrum: 1044
>>>>>Begin Spectral Data<<<<<
46.04893	2.1
50.45542	-1.1
54.85868	0.3
59.25871	-0.3
63.6555	55.9
68.04907	63.6
72.43941	64.4
76.82654	72.1
81.21044	73.2
85.59113	81.8
89.96862	86.5
94.34289	84.6
98.71396	88.8
103.08183	94.9
107.4465	98
111.80798	94.4
116.16626	99.5
120.52136	97.4
124.87327	96.4
129.222	99
133.56755	98.3
137.90993	100.9
142.24913	101.5
146.58517	105.2
150.91804	113.5
155.24774	118.8
159.57429	142.1
163.89768	162
168.21792	196.9
172.53501	251.8
176.84895	323.7
181.15975	438.1
185.46741	575.2
189.77193	791.8
194.07331	1038.3
198.37157	1315.8
202.6667	1617.4
206.9587	1901.3
211.24758	2188
215.53334	2476.5
219.81599	2784.3
224.09553	3123.6
228.37195	3510.3
232.64527	3915.7
236.91549	4343.2
241.18261	4753.7
245.44663	5076.9
249.70755	5363.1
253.96539	5605.1
258.22014	5769.3
262.4718	5928.2
266.72039	6036.7
270.96589	6062.2
275.20832	6030.2
279.44768	5940.1
283.68397	5817
287.91719	5703.5
292.14735	5645.4
296.37445	5680.7
300.59849	5798.9
304.81948	5987.7
309.03742	6101.5
313.25231	6117.9
317.46415	5942.4
321.67296	5675.3
325.87872	5407.9
330.08145	5328.5
334.28114	5333.9
338.47781	5363.1
342.67145	5463.5
346.86207	5600.4
351.04966	5805.8
355.23424	6070.3
359.4158	6295.6
363.59435	6429.3
367.76989	6482.4
371.94243	6493.7
376.11196	6480
380.27849	6482.9
384.44203	6470.4
388.60257	6383.4
392.76012	6358.7
396.91468	6369.2
401.06626	6482.5
405.21485	6589.6
409.36047	6528.5
413.50311	6407.3
417.64277	6379.8
421.77947	6329.4
425.9132	6020.4
430.04396	5905.4
434.17176	5957.4
438.2966	6100.6
442.41849	6327.1
446.53742	6635.2
450.6534	6883
454.76644	6974.2
458.87653	6885.2
462.98368	6698.4
467.08789	6509.4
471.18916	6314.9
475.2875	6149.3
479.38291	6010.3
483.4754	5896.9
487.56496	5828.9
491.6516	5790.5
495.73531	5780.6
499.81612	5775.1
503.89401	5852.7
507.96899	5929.3
512.04106	6040.6
516.11023	6178.3
520.1765	6268.2
524.23987	6333.8
528.30034	6290.8
532.35792	6226.7
536.41261	6113.9
540.46441	5922.9
544.51333	5834.4
548.55936	5845.2
552.60252	5954.6
556.64279	6092.4
560.6802	6207.5
564.71473	6202.9
568.7464	6283.6
572.7752	6323.5
576.80114	6178.4
580.82422	6027.4
584.84444	6056.4
588.86181	6309.3
592.87633	6729.4
596.888	7020.8
600.89682	6958.7
604.9028	7151.7
608.90594	8304.7
612.90624	9993.3
616.90371	9686.7
620.89834	7246.3
624.89015	5997.3
628.87913	5708.4
632.86528	5696
636.84862	5715.2
640.82913	5672.8
644.80683	5498.9
648.78172	5393
652.75379	5413.6
656.72306	5599
660.68952	5795.4
664.65319	5742.4
668.61405	5505.9
672.57211	5384.7
676.52738	5399.7
680.47986	5393.4
684.42955	5355.8
688.37646	5320.4
692.32058	5345.8
696.26192	5401.7
700.20048	5512.7
704.13626	5587.3
708.06928	5595.6
711.99952	5543.3
715.927	5526.5
719.85171	5553.2
723.77365	5516.9
727.69284	5475.7
731.60928	5434.7
735.52295	5432.9
739.43388	5484.9
743.34206	5505
747.24749	5524.6
751.15017	5547.6
755.05012	5590.8
758.94733	5774.1
762.8418	6200.4
766.73354	6979.7
770.62254	7962.2
774.50882	8510.5
778.39237	8238
782.27321	7305.3
786.15132	6365.4
790.02671	5808.9
793.89938	5550.1
797.76935	5405.7
801.6366	5365.8
805.50115	5307.8
809.36299	5264.2
813.22213	5226.3
817.07857	5222.5
820.93231	5211.4
824.78336	5223.6
828.63172	5232
832.47738	5270.9
836.32036	5289.2
840.16066	5277.6
843.99827	5270.2
847.8332	5255.1
851.66546	5243.1
855.49504	5249.8
859.32195	5226.3
863.1462	5197.3
866.96777	5157.6
870.78668	5139.8
874.60293	5140.4
878.41652	5139.7
882.22745	5174
886.03573	5196.4
889.84136	5210.4
893.64433	5208.5
897.44466	5220.7
901.24235	5252.1
905.0374	5277.1
908.8298	5304.2
912.61957	5357
916.40671	5445.2
920.19121	5512.7
923.97308	5589.5
927.75233	5677.8
931.52895	5705
935.30295	5624.7
939.07433	5498.4
942.84309	5354.3
946.60924	5257.8
950.37278	5198.8
954.13371	5138.7
957.89203	5091.9
961.64774	5058.2
965.40086	5037.9
969.15137	4998.2
972.89929	4974.2
976.64461	4982.5
980.38733	4976.3
984.12747	4967.5
987.86502	4992.7
991.59999	5037.4
995.33237	5112.1
999.06217	5192.4
1002.78939	5319.5
1006.51404	5419.6
1010.23611	5488.3
1013.95561	5542.8
1017.67255	5486
1021.38692	5372.7
1025.09872	5229.4
1028.80796	5150.7
1032.51465	5141.8
1036.21877	5202.9
1039.92035	5290.5
1043.61937	5345.5
1047.31584	5371.3
1051.00976	5385.8
1054.70114	5384.8
1058.38998	5383.6
1062.07627	5403.1
1065.76003	5441
1069.44126	5474.6
1073.11995	5609.2
1076.79611	5768.1
1080.46974	5859.8
1084.14085	5895.4
1087.80943	5858.9
1091.47549	5744.9
1095.13903	5576.2
1098.80005	5343.4
1102.45857	5147.9
1106.11456	5071.2
1109.76805	5102.8
1113.41903	5190.5
1117.06751	5313.9
1120.71348	5481.1
1124.35696	5648.8
1127.99793	5797.2
1131.63641	5810.5
1135.2724	5584.1
1138.90589	5361.3
1142.5369	5205.7
1146.16542	5094.3
1149.79145	5049.4
1153.415	5035.4
1157.03607	5050.9
1160.65467	5164.1
1164.27079	5361.9
1167.88443	5690.2
1171.49561	6238.2
1175.10432	7074.1
1178.71056	8149
1182.31434	9022.7
1185.91565	9252.4
1189.51451	8949.3
1193.11091	8368.8
1196.70485	7715.3
1200.29634	7145.6
1203.88538	6629.6
1207.47197	6104.1
1211.05612	5768.9
1214.63782	5642.8
1218.21708	5686.7
1221.79391	5810.4
1225.36829	5884.8
1228.94024	5849.6
1232.50976	5728.3
1236.07685	5598.4
1239.6415	5504
1243.20374	5467
1246.76355	5425.9
1250.32093	5457.4
1253.8759	5546.7
1257.42845	5695.8
1260.97859	5876.9
1264.52631	6091.4
1268.07163	6278.2
1271.61453	6441.2
1275.15503	6561.6
1278.69312	6645.9
1282.22882	6753.5
1285.76211	6980.7
1289.29301	7281.6
1292.82151	7622.8
1296.34761	8011.2
1299.87133	8436.5
1303.39266	9047.7
1306.9116	9932.3
1310.42815	11082.4
1313.94233	11849.9
1317.45412	11711.1
1320.96354	10846.4
1324.47058	9794.5
1327.97525	8856.7
1331.47754	8299.8
1334.97747	8112
1338.47502	8162.2
1341.97022	8276.4
1345.46305	8491.8
1348.95352	8974.9
1352.44163	9863.7
1355.92738	11075.1
1359.41078	12620.3
1362.89183	13999.5
1366.37053	14000.2
1369.84688	12273.5
1373.32088	10197.8
1376.79254	8737.5
1380.26186	7942.8
1383.72883	7546.9
1387.19347	7261.4
1390.65578	6990.4
1394.11575	6784.2
1397.57339	6744.3
1401.0287	6758.7
1404.48168	6795.9
1407.93234	6797.3
1411.38068	6762.2
1414.82669	6690
1418.27039	6532.3
1421.71177	6348.6
1425.15083	6244.2
1428.58758	6178.9
1432.02203	6271.2
1435.45416	6390.4
1438.88399	6482.6
1442.31151	6515.2
1445.73673	6488.2
1449.15965	6474.8
1452.58027	6391.7
1455.9986	6247.3
1459.41463	6156.2
1462.82837	6182
1466.23982	6361.2
1469.64898	6532.5
1473.05586	6665.8
1476.46045	6734
1479.86276	6780.1
1483.26279	6843.5
1486.66054	6884
1490.05602	6948.1
1493.44922	7067.8
1496.84016	7287.9
1500.22882	7726.4
1503.61521	8444.4
1506.99934	9393.1
1510.38121	10286.3
1513.76081	10767.6
1517.13816	10399.2
1520.51324	9296
1523.88607	8157.3
1527.25665	7454.5
1530.62498	7104.5
1533.99105	6951.5
1537.35488	6825.2
1540.71647	6713.9
1544.07581	6604.8
1547.4329	6489.8
1550.78776	6371
1554.14038	6262
1557.49077	6205.8
1560.83892	6221.5
1564.18484	6358.6
1567.52853	6577.2
1570.86999	6874.6
1574.20922	7197
1577.54624	7446.9
1580.88103	7335.7
1584.2136	6909.6
1587.54395	6527.8
1590.87208	6470.2
1594.19801	6767.9
1597.52172	7375.3
1600.84321	7825.1
1604.16251	7669.3
1607.47959	7062.4
1610.79447	6321.9
1614.10715	5641.2
1617.41763	5166.4
1620.7259	4880.1
1624.03199	4772.5
1627.33587	4761.3
1630.63757	4854.6
1633.93707	5072.5
1637.23439	5549.4
1640.52951	6261.7
1643.82246	7264.1
1647.11321	8228.4
1650.40179	8748.3
1653.68819	8306.6
1656.97241	7121.4
1660.25446	5869.7
1663.53433	4976.1
1666.81203	4471.5
1670.08756	4173.9
1673.36092	3999.8
1676.63211	3884
1679.90115	3798.1
1683.16801	3735.6
1686.43272	3691.6
1689.69527	3669.9
1692.95567	3629.8
1696.2139	3604
1699.46999	3582.9
1702.72392	3575.2
1705.97571	3549.3
1709.22535	3548
1712.47284	3552.6
1715.71819	3557.2
1718.96139	3534.4
1722.20246	3521.6
1725.44139	3502.4
1728.67818	3480.8
1731.91284	3442.9
1735.14537	3406.7
1738.37576	3389.9
1741.60403	3367.1
1744.83017	3346
1748.05418	3345
1751.27607	3323.7
1754.49584	3305.4
1757.71349	3290.5
1760.92903	3278.9
1764.14244	3279.8
1767.35375	3268
1770.56294	3261.5
1773.77002	3244.5
1776.97499	3238.9
1780.17785	3249.3
1783.37861	3227.2
1786.57727	3219.9
1789.77382	3213
1792.96828	3198
1796.16064	3192.4
1799.3509	3187
1802.53907	3191.4
1805.72514	3166.3
1808.90913	3162.3
1812.09102	3133.6
1815.27083	3130.6
1818.44856	3122.5
1821.6242	3132.2
1824.79776	3119.4
1827.96924	3108.3
1831.13864	3095.7
1834.30597	3103.6
1837.47122	3091.2
1840.6344	3078.3
1843.7955	3099
1846.95454	3076.9
1850.11151	3072.5
1853.26642	3059.1
1856.41926	3061.8
1859.57004	3079.7
1862.71876	3046.6
1865.86542	3057.9
1869.01003	3057.3
1872.15258	3058.8
1875.29308	3060
1878.43152	3046.5
1881.56792	3050.2
1884.70227	3039.5
1887.83457	3039.6
1890.96482	3047.1
1894.09304	3053.7
1897.21921	3048.5
1900.34335	3052.5
1903.46544	3058.6
1906.58551	3058.7
1909.70353	3048.5
1912.81953	3057.1
1915.93349	3048.2
1919.04543	3043.6
1922.15534	3021.4
1925.26322	3012.5
1928.36908	3006
1931.47292	2992
1934.57473	2977.3
1937.67453	2971.4
1940.77232	2955.6
1943.86808	2938.4
1946.96184	2907
1950.05358	2910
1953.14331	2894.3
1956.23103	2883.9
1959.31675	2878.9
1962.40046	2874.8
1965.48217	2862.2
1968.56188	2855.5
1971.63959	2834.8
1974.7153	2829
1977.78901	2821.8
1980.86073	2818.3
1983.93046	2804.7
1986.99819	2778.2
1990.06394	2771.2
1993.1277	2783.8
1996.18947	2753.9
1999.24925	2751.7
2002.30706	2732.3
2005.36288	2730
2008.41672	2722.8
2011.46859	2715.5
2014.51848	2707.2
2017.56639	2693.9
2020.61233	2693.1
2023.6563	2676.7
2026.6983	2658.3
2029.73833	2655.1
2032.7764	2644.8
2035.8125	2654.5
2038.84664	2636.6
2041.87881	2634.3
2044.90903	2630.1
2047.93729	2632.7
2050.96359	2612.2
2053.98794	2613.7
2057.01034	2598.2
2060.03078	2605.2
2063.04927	2604.5
2066.06582	2602.2
2069.08042	2611.9
2072.09307	2607.3
2075.10378	2592.4
2078.11255	2585.1
2081.11938	2596
2084.12426	2589.2
2087.12722	2579.3
2090.12824	2570.2
2093.12732	2586.7
2096.12447	2581.4
2099.11969	2579.9
2102.11299	2588.8
2105.10435	2592.6
2108.09379	2586
2111.08131	2578.6
2114.0669	2585.3
2117.05057	2575.2
2120.03233	2569.2
2123.01216	2568.3
2125.99008	2572.7
2128.96609	2578.6
2131.94018	2577.9
2134.91236	2573.9
2137.88263	2586.6
2140.851	2581.5
2143.81746	2579.8
2146.78201	2582.8
2149.74466	2578.8
2152.7054	2570.9
2155.66425	2576.4
2158.6212	2563.7
2161.57625	2582.3
2164.52941	2569.2
2167.48067	2576.7
2170.43004	2568.7
2173.37752	2555.6
2176.32311	2561.5
2179.26681	2568.6
2182.20863	2559.9
2185.14856	2561
2188.08661	2559.1
2191.02278	2569.6
2193.95707	2549.3
2196.88948	2552.4
2199.82001	2554.5
2202.74867	2554.1
2205.67545	2548.7
2208.60037	2536.7
2211.52341	2539
2214.44458	2509.8
2217.36388	2516.4
2220.28132	2522
2223.1969	2507.2
2226.11061	2492.5
2229.02246	2486.7
2231.93245	2482.9
2234.84058	2471.3
2237.74686	2479.7
2240.65128	2475.3
2243.55385	2477
2246.45456	2469.7
2249.35343	2457.1
2252.25044	2465.9
2255.14561	2454.2
2258.03893	2462.9
2260.93041	2452.8
2263.82004	2444.8
2266.70783	2441.2
2269.59378	2432.5
2272.4779	2417.2
2275.36017	2422.7
2278.24061	2412.4
2281.11922	2400.5
2283.996	2395.2
2286.87094	2391.3
2289.74405	2390.1
2292.61534	2373.8
2295.4848	2365
2298.35243	2378.3
2301.21824	2360.3
2304.08223	2363.7
2306.94439	2369.3
2309.80474	2359.4
2312.66327	2357
2315.51999	2354.4
2318.37489	2339.4
2321.22797	2347.6
2324.07925	2345.6
2326.92871	2342.9
2329.77637	2336.4
2332.62222	2338.4
2335.46626	2327
2338.3085	2328.2
2341.14893	2330.1
2343.98756	2322.6
2346.8244	2318.8
2349.65943	2329.9
2352.49267	2320.1
2355.32411	2325.5
2358.15376	2325.5
2360.98161	2314.6
2363.80768	2320
2366.63195	2326.2
2369.45444	2328.2
2372.27514	2323.8
2375.09405	2324.2
2377.91118	2318.6
2380.72652	2304.2
2383.54009	2292.4
2386.35187	2297.5
2389.16188	2279.4
2391.97011	2272.9
2394.77657	2267.4
2397.58125	2263.1
2400.38416	2259.5
2403.18529	2238.1
2405.98466	2250.7
2408.78226	2237.9
2411.57809	2243.3
2414.37216	2243.5
2417.16446	2230.2
2419.955	2228.5
2422.74378	2224.1
2425.5308	2220.9
2428.31606	2221.4
2431.09956	2220.4
2433.88131	2204.4
2436.6613	2216.5
2439.43954	2222
2442.21603	2210.2
2444.99077	2212.9
2447.76377	2209
2450.53501	2204.2
2453.30451	2212
2456.07226	2207.2
2458.83827	2210.4
2461.60254	2206.5
2464.36507	2195.9
2467.12586	2207.4
2469.88492	2195.5
2472.64224	2189.2
2475.39782	2194.2
2478.15167	2188.5
2480.90379	2196.1
2483.65417	2207.1
2486.40283	2211.9
2489.14976	2208.2
2491.89497	2214.3
2494.63845	2196.9
2497.3802	2203.5
2500.12024	2202.6
2502.85855	2206.9
2505.59514	2192.2
2508.33002	2188.7
2511.06318	2181.6
2513.79462	2166
2516.52435	2159.8
2519.25237	2160.1
2521.97867	2149.6
2524.70327	2143.5
2527.42616	2149.8
2530.14734	2143.1
2532.86681	2140.1
2535.58458	2141.3
2538.30065	2136.2
2541.01501	2127
2543.72768	2137.7
2546.43864	2136.8
2549.14791	2129.1
2551.85548	2135.7
2554.56136	2135
2557.26554	2135.3
2559.96803	2122.8
2562.66883	2125.7
2565.36794	2120.8
2568.06536	2120
2570.7611	2116.2
2573.45514	2111
2576.14751	2122.3
2578.83819	2109.6
2581.52719	2107.6
2584.21451	2110.7
2586.90015	2144.7
2589.58411	2090.8
2592.2664	2101.8
2594.94701	2089.4
2597.62594	2077.4
2600.30321	2085.1
2602.9788	2088.8
2605.65273	2075.8
2608.32498	2078.9
2610.99557	2067.6
2613.66449	2087.7
2616.33175	2081.2
2618.99734	2070.9
2621.66128	2069.3
2624.32355	2071.9
2626.98416	2073.6
2629.64311	2076.9
2632.30041	2067.4
2634.95605	2074.8
2637.61004	2075.9
2640.26238	2064.7
2642.91306	2066.3
2645.56209	2061.5
2648.20948	2060.5
2650.85521	2071.1
2653.4993	2072
2656.14175	2060.9
2658.78255	2076.6
2661.42171	2079.7
2664.05923	2091.5
2666.6951	2077.2
2669.32934	2090.4
2671.96194	2091.8
2674.59291	2108.5
2677.22224	2102.3
2679.84993	2095.1
2682.476	2090.5
2685.10043	2101.7
2687.72324	2088.2
2690.34441	2094.5
2692.96396	2096.7
2695.58188	2103
2698.19818	2098.9
2700.81285	2105.8
2703.4259	2112
2706.03733	2113
2708.64714	2117.3
2711.25533	2132.7
2713.86191	2138.7
2716.46687	2150
2719.07021	2159.1
2721.67194	2166
2724.27206	2162.4
2726.87057	2172
2729.46747	2183.3
2732.06276	2201
2734.65644	2208.1
2737.24852	2218.6
2739.83899	2232.5
2742.42786	2230.8
2745.01513	2249.5
2747.60079	2259.1
2750.18486	2266
2752.76733	2288.5
2755.3482	2288.5
2757.92747	2294.6
2760.50515	2308
2763.08123	2309.1
2765.65573	2334.5
2768.22863	2333.4
2770.79994	2349.9
2773.36967	2354.5
2775.9378	2361
2778.50435	2374
2781.06932	2379.3
2783.6327	2395.8
2786.1945	2401
2788.75471	2421.7
2791.31335	2434
2793.87041	2444
2796.42589	2441.4
2798.97979	2466.9
2801.53212	2475.8
2804.08288	2482.4
2806.63206	2498.7
2809.17967	2513.1
2811.72571	2508.9
2814.27018	2534.7
2816.81308	2552
2819.35442	2548.6
2821.89419	2566.9
2824.43239	2581.2
2826.96904	2573.2
2829.50412	2572.5
2832.03763	2578.1
2834.56959	2579.7
2837.1	2591.3
2839.62884	2609.7
2842.15613	2626.6
2844.68186	2674.3
2847.20604	2725.4
2849.72867	2764.4
2852.24974	2787.5
2854.76927	2799
2857.28724	2806.5
2859.80367	2815.8
2862.31855	2819.7
2864.83189	2818.7
2867.34368	2826.6
2869.85393	2814.5
2872.36264	2824.7
2874.8698	2810.3
2877.37543	2817.8
2879.87952	2811.1
2882.38207	2819.7
2884.88308	2805.1
2887.38256	2806
2889.88051	2799.1
2892.37692	2797.6
2894.8718	2791.8
2897.36515	2784.9
2899.85698	2776.5
2902.34727	2792.1
2904.83604	2758.7
2907.32328	2775.5
2909.809	2759.1
2912.29319	2755.2
2914.77587	2741
2917.25702	2739.4
2919.73665	2741.3
2922.21476	2738.3
2924.69136	2738.4
2927.16644	2714.7
2929.64	2700.4
2932.11205	2686.2
2934.58258	2660.9
2937.05161	2640.3
2939.51912	2606.8
2941.98513	2566.3
2944.44962	2513.2
2946.91261	2450
2949.37409	2418.6
2951.83407	2379.9
2954.29254	2334.6
2956.74951	2294.4
2959.20498	2272.2
2961.65895	2240.5
2964.11142	2223.1
2966.56239	2190.6
2969.01186	2155.8
2971.45984	2136
2973.90632	2117.9
2976.35131	2096
2978.7948	2069.4
2981.23681	2051.4
2983.67732	2031.2
2986.11635	2023.2
2988.55388	1986.9
2990.98993	1989.8
2993.4245	1975.5
2995.85758	1961.2
2998.28917	1955.8
3000.71928	1944.6
3003.14791	1933.8
3005.57506	1925.7
3008.00073	1922.9
3010.42493	1919.1
3012.84764	1908
3015.26888	1913.4
3017.68865	1904.6
3020.10694	1905.1
3022.52376	1903.1
3024.9391	1881.9
3027.35298	1881.2
3029.76539	1884.7
3032.17632	1882.3
3034.5858	1880.6
3036.9938	1876.9
3039.40034	1873.9
3041.80542	1873.2
3044.20903	1863.5
3046.61118	1867.3
3049.01187	1874.6
3051.4111	1854.8
3053.80888	1856.5
3056.20519	1860.3
3058.60005	1866.4
3060.99345	1863
3063.3854	1858.5
3065.7759	1866
3068.16494	1863.9
3070.55254	1862.2
3072.93868	1874.7
3075.32338	1859
3077.70662	1858
3080.08842	1850.1
3082.46878	1846.7
3084.84769	1852.9
3087.22515	1855.7
3089.60118	1865.8
3091.97576	1863.3
3094.3489	1863.5
3096.72061	1856.1
3099.09087	1858.1
3101.4597	1864.6
3103.82709	1863.1
3106.19305	1871.8
3108.55757	1874.7
3110.92066	1884
3113.28232	1875.4
3115.64255	1880.8
3118.00134	1875.4
3120.35871	1872.2
3122.71466	1887.6
3125.06917	1893.2
3127.42226	1884.4
3129.77393	1904.3
3132.12417	1903.3
3134.47299	1915.6
3136.82039	1915.6
3139.16636	1924.3
3141.51092	1939.4
3143.85406	1929.7
3146.19579	1949.6
3148.53609	1944.1
3150.87499	1961.7
3153.21246	1964.8
3155.54853	1974.7
3157.88318	1978
3160.21642	1985
3162.54826	1996.9
3164.87868	1999.5
3167.2077	1989.3
3169.5353	1998.2
3171.86151	1995.6
3174.18631	2011.3
3176.5097	2027.1
3178.83169	2017.2
3181.15228	2022.8
3183.47147	2013.5
3185.78926	2029
3188.10565	2031.7
3190.42065	2042.6
3192.73424	2048.4
3195.04645	2045.2
3197.35725	2057.8
3199.66667	2070.6
3201.97469	2071.2
3204.28132	2072.1
3206.58656	2069.8
3208.8904	2083.6
3211.19287	2078.5
3213.49394	2089.3
3215.79363	2091.4
3218.09193	2101
3220.38884	2100.4
3222.68438	2096.1
3224.97853	2112.4
3227.2713	2109.4
3229.56269	2099.7
3231.8527	2102.3
3234.14133	2110.5
3236.42858	2105.3
3238.71446	2110.5
3240.99896	2100.1
3243.28209	2110
3245.56384	2116.8
3247.84423	2119.9
3250.12324	2137.2
3252.40088	2134.6
3254.67715	2131
3256.95205	2136.1
3259.22558	2139
3261.49775	2137
3263.76855	2136.7
3266.03799	2143.3
3268.30606	2145.1
3270.57277	2149.2
3272.83812	2136
3275.10211	2140
3277.36474	2147.7
3279.62601	2140.2
3281.88593	2144.7
3284.14448	2141.6
3286.40168	2142
3288.65753	2143.4
3290.91202	2124.6
3293.16516	2117.9
3295.41695	2116.2
3297.66738	2100.4
3299.91647	2090.7
3302.16421	2075.8
3304.4106	2060.7
3306.65564	2056.5
3308.89933	2039.1
3311.14169	2022.8
3313.38269	2000.2
3315.62236	1987.2
3317.86068	1979
3320.09766	1954.8
3322.3333	1946.1
3324.5676	1940.6
3326.80056	1908.5
3329.03219	1901.6
3331.26248	0.8
3333.49143	-0.9
3335.71905	-0
