Data from AgNP_FTO_APTES_CRN_0uM_R6G_10uM_NaF_0.1M_Addition_RamanShift__58__12-37-22-969.txt Node

Date: Wed Dec 15 12:37:22 GMT 2021
User: TCL
Spectrometer: QEP01345
Trigger mode: 4
Integration Time (sec): 7.000000E0
Scans to average: 10
Electric dark correction enabled: true
Nonlinearity correction enabled: false
Boxcar width: 0
XAxis mode: Raman Shifts
Number of Pixels in Spectrum: 1044
>>>>>Begin Spectral Data<<<<<
46.04893	-0.3875
50.45542	-2.2875
54.85868	-2.6875
59.25871	-0.2875
63.6555	136.3125
68.04907	141.0125
72.43941	152.3125
76.82654	157.3125
81.21044	165.8125
85.59113	172.8125
89.96862	181.3125
94.34289	178.8125
98.71396	186.1125
103.08183	194.1125
107.4465	203.6125
111.80798	203.6125
116.16626	207.8125
120.52136	217.9125
124.87327	221.9125
129.222	230.5125
133.56755	245.0125
137.90993	257.0125
142.24913	283.4125
146.58517	314.2125
150.91804	357.2125
155.24774	420.4125
159.57429	522.8125
163.89768	657.2125
168.21792	860.4125
172.53501	1168.1125
176.84895	1626.6125
181.15975	2259.6125
185.46741	3156.5125
189.77193	4336.9125
194.07331	5788.1125
198.37157	7460.4125
202.6667	9174.0125
206.9587	10890.7125
211.24758	12586.4125
215.53334	14302.4125
219.81599	16114.1125
224.09553	18157.1125
228.37195	20390.5125
232.64527	22907.7125
236.91549	25432.7125
241.18261	27974.7125
245.44663	30342.3125
249.70755	32364.7125
253.96539	34101.1125
258.22014	35630.1125
262.4718	36843.8125
266.72039	37712.5125
270.96589	38173.6125
275.20832	38181.9125
279.44768	37945.2125
283.68397	37498.4125
287.91719	37131.8125
292.14735	36887.8125
296.37445	36809.5125
300.59849	36985.8125
304.81948	37331.8125
309.03742	37542.3125
313.25231	37285.8125
317.46415	36517.9125
321.67296	35417.7125
325.87872	34508.2125
330.08145	34019.0125
334.28114	34058.6125
338.47781	34382.4125
342.67145	34889.2125
346.86207	35497.3125
351.04966	36453.2125
355.23424	37461.7125
359.4158	38291.6125
363.59435	38964.3125
367.76989	39219.8125
371.94243	39372.5125
376.11196	39433.1125
380.27849	39544.8125
384.44203	39621.3125
388.60257	39803.3125
392.76012	40017.9125
396.91468	40554.7125
401.06626	41277.4125
405.21485	41889.1125
409.36047	41769.4125
413.50311	41019.7125
417.64277	40431.5125
421.77947	40261.4125
425.9132	40285.0125
430.04396	40469.9125
434.17176	40786.7125
438.2966	41096.7125
442.41849	41821.5125
446.53742	42898.3125
450.6534	44154.3125
454.76644	45107.6125
458.87653	45477.6125
462.98368	45244.4125
467.08789	44620.2125
471.18916	43809.9125
475.2875	42979.9125
479.38291	42460.5125
483.4754	42137.3125
487.56496	41734.7125
491.6516	41225.5125
495.73531	40830.6125
499.81612	40746.5125
503.89401	41003.3125
507.96899	41242.6125
512.04106	41334.6125
516.11023	41286.0125
520.1765	41142.4125
524.23987	40954.8125
528.30034	40696.4125
532.35792	40198.3125
536.41261	39547.8125
540.46441	38922.6125
544.51333	38755.3125
548.55936	39096.7125
552.60252	39840.5125
556.64279	40651.2125
560.6802	41097.1125
564.71473	41399.6125
568.7464	42147.7125
572.7752	43103.2125
576.80114	43764.1125
580.82422	44455.9125
584.84444	45309.1125
588.86181	46282.0125
592.87633	47233.5125
596.888	48119.0125
600.89682	48825.4125
604.9028	50928.1125
608.90594	55809.9125
612.90624	60158.0125
616.90371	56106.4125
620.89834	46502.8125
624.89015	42365.9125
628.87913	41990.2125
632.86528	41988.9125
636.84862	41672.5125
640.82913	40815.6125
644.80683	39517.0125
648.78172	38590.2125
652.75379	38425.7125
656.72306	39161.2125
660.68952	39955.5125
664.65319	39784.5125
668.61405	38889.7125
672.57211	38607.3125
676.52738	38496.1125
680.47986	38425.0125
684.42955	38161.8125
688.37646	38068.6125
692.32058	38270.2125
696.26192	38766.1125
700.20048	39351.1125
704.13626	39574.3125
708.06928	39485.8125
711.99952	39146.9125
715.927	39203.4125
719.85171	39395.9125
723.77365	39206.8125
727.69284	38612.6125
731.60928	38114.6125
735.52295	37911.3125
739.43388	37954.6125
743.34206	38091.0125
747.24749	38397.3125
751.15017	38735.5125
755.05012	39424.5125
758.94733	40633.8125
762.8418	42876.1125
766.73354	46497.9125
770.62254	49935.8125
774.50882	50832.6125
778.39237	48436.3125
782.27321	44605.1125
786.15132	41414.6125
790.02671	39550.1125
793.89938	38701.5125
797.76935	38391.5125
801.6366	38310.4125
805.50115	38162.0125
809.36299	37902.6125
813.22213	37595.3125
817.07857	37437.9125
820.93231	37340.7125
824.78336	37198.7125
828.63172	37232.1125
832.47738	37294.5125
836.32036	37464.2125
840.16066	37720.6125
843.99827	37933.2125
847.8332	37816.0125
851.66546	37586.4125
855.49504	37490.4125
859.32195	37510.2125
863.1462	37362.2125
866.96777	37152.0125
870.78668	37057.2125
874.60293	36970.5125
878.41652	37023.5125
882.22745	37163.2125
886.03573	37294.8125
889.84136	37262.5125
893.64433	37066.9125
897.44466	36924.7125
901.24235	36845.3125
905.0374	36663.9125
908.8298	36667.5125
912.61957	36745.0125
916.40671	37106.8125
920.19121	37706.5125
923.97308	38318.6125
927.75233	38755.2125
931.52895	38742.5125
935.30295	38118.1125
939.07433	37317.7125
942.84309	36722.3125
946.60924	36484.5125
950.37278	36430.8125
954.13371	36282.4125
957.89203	36074.0125
961.64774	35898.3125
965.40086	35870.6125
969.15137	35694.0125
972.89929	35622.2125
976.64461	35631.0125
980.38733	35723.0125
984.12747	36017.3125
987.86502	36564.3125
991.59999	37179.9125
995.33237	38097.6125
999.06217	39482.7125
1002.78939	41057.9125
1006.51404	42028.2125
1010.23611	42619.8125
1013.95561	42858.8125
1017.67255	42629.3125
1021.38692	41894.7125
1025.09872	41355.3125
1028.80796	41808.0125
1032.51465	43330.4125
1036.21877	44837.3125
1039.92035	45017.1125
1043.61937	44272.9125
1047.31584	42812.5125
1051.00976	41366.0125
1054.70114	40591.3125
1058.38998	40512.3125
1062.07627	40841.0125
1065.76003	41339.6125
1069.44126	42117.9125
1073.11995	43281.3125
1076.79611	44276.1125
1080.46974	44662.7125
1084.14085	44741.4125
1087.80943	44850.2125
1091.47549	44836.8125
1095.13903	44551.4125
1098.80005	43684.2125
1102.45857	42544.6125
1106.11456	41784.0125
1109.76805	41499.4125
1113.41903	41558.4125
1117.06751	41745.5125
1120.71348	42045.6125
1124.35696	42521.0125
1127.99793	42934.3125
1131.63641	43204.4125
1135.2724	43029.1125
1138.90589	42648.1125
1142.5369	42437.7125
1146.16542	42269.3125
1149.79145	42275.3125
1153.415	42514.0125
1157.03607	42925.2125
1160.65467	43954.7125
1164.27079	45638.1125
1167.88443	48109.5125
1171.49561	51256.9125
1175.10432	55554.7125
1178.71056	60935.8125
1182.31434	65829.2125
1185.91565	68213.7125
1189.51451	67641.9125
1193.11091	64901.2125
1196.70485	61371.9125
1200.29634	58380.7125
1203.88538	56271.1125
1207.47197	54848.3125
1211.05612	53815.8125
1214.63782	53087.4125
1218.21708	52693.1125
1221.79391	52437.4125
1225.36829	52390.2125
1228.94024	51937.9125
1232.50976	50983.4125
1236.07685	50001.7125
1239.6415	49496.7125
1243.20374	49337.6125
1246.76355	49661.8125
1250.32093	50438.3125
1253.8759	51730.8125
1257.42845	53328.8125
1260.97859	54915.9125
1264.52631	56501.6125
1268.07163	58209.4125
1271.61453	60113.1125
1275.15503	62101.4125
1278.69312	64154.5125
1282.22882	66015.1125
1285.76211	67609.6125
1289.29301	69257.5125
1292.82151	71204.5125
1296.34761	73890.6125
1299.87133	77703.0125
1303.39266	82617.4125
1306.9116	88402.6125
1310.42815	94037.8125
1313.94233	97727.0125
1317.45412	97917.6125
1320.96354	95582.1125
1324.47058	92540.3125
1327.97525	89878.4125
1331.47754	87889.2125
1334.97747	86609.0125
1338.47502	85646.4125
1341.97022	84390.6125
1345.46305	82813.7125
1348.95352	81502.1125
1352.44163	81396.9125
1355.92738	83764.5125
1359.41078	88937.6125
1362.89183	93991.6125
1366.37053	93448.8125
1369.84688	86117.1125
1373.32088	76476.9125
1376.79254	69589.5125
1380.26186	66467.6125
1383.72883	65693.1125
1387.19347	65118.7125
1390.65578	63962.4125
1394.11575	63188.1125
1397.57339	63569.6125
1401.0287	64741.9125
1404.48168	66009.3125
1407.93234	66502.7125
1411.38068	65998.4125
1414.82669	64383.6125
1418.27039	62090.3125
1421.71177	59644.8125
1425.15083	57692.6125
1428.58758	56641.5125
1432.02203	56893.2125
1435.45416	58202.3125
1438.88399	59772.5125
1442.31151	61090.0125
1445.73673	62063.6125
1449.15965	62742.6125
1452.58027	63045.9125
1455.9986	62847.5125
1459.41463	63072.2125
1462.82837	64095.5125
1466.23982	65756.3125
1469.64898	67277.3125
1473.05586	68027.0125
1476.46045	68180.2125
1479.86276	67956.5125
1483.26279	67338.6125
1486.66054	66904.1125
1490.05602	67007.1125
1493.44922	67416.3125
1496.84016	67954.0125
1500.22882	69228.4125
1503.61521	71316.0125
1506.99934	74025.6125
1510.38121	76560.7125
1513.76081	77485.1125
1517.13816	75964.8125
1520.51324	72500.1125
1523.88607	69090.6125
1527.25665	66866.8125
1530.62498	65824.9125
1533.99105	65134.8125
1537.35488	64638.5125
1540.71647	63937.0125
1544.07581	63059.2125
1547.4329	61989.9125
1550.78776	60979.3125
1554.14038	60145.1125
1557.49077	59723.5125
1560.83892	59478.2125
1564.18484	59533.7125
1567.52853	59861.6125
1570.86999	60539.4125
1574.20922	61838.3125
1577.54624	63176.4125
1580.88103	63690.6125
1584.2136	64117.8125
1587.54395	65323.0125
1590.87208	68209.1125
1594.19801	72413.8125
1597.52172	76896.1125
1600.84321	78360.6125
1604.16251	74574.0125
1607.47959	67942.1125
1610.79447	61316.9125
1614.10715	55597.7125
1617.41763	51330.1125
1620.7259	48583.3125
1624.03199	47333.5125
1627.33587	47427.0125
1630.63757	49031.6125
1633.93707	52167.2125
1637.23439	57226.7125
1640.52951	64142.4125
1643.82246	71836.0125
1647.11321	77704.0125
1650.40179	78490.4125
1653.68819	73100.9125
1656.97241	63611.3125
1660.25446	54233.4125
1663.53433	47442.9125
1666.81203	43033.4125
1670.08756	40313.8125
1673.36092	38657.4125
1676.63211	37568.9125
1679.90115	36747.7125
1683.16801	36169.9125
1686.43272	35756.8125
1689.69527	35447.2125
1692.95567	35250.9125
1696.2139	35122.8125
1699.46999	34973.7125
1702.72392	34894.1125
1705.97571	34847.3125
1709.22535	34718.8125
1712.47284	34693.5125
1715.71819	34647.9125
1718.96139	34581.6125
1722.20246	34466.7125
1725.44139	34275.2125
1728.67818	34156.4125
1731.91284	33896.3125
1735.14537	33724.0125
1738.37576	33580.2125
1741.60403	33440.1125
1744.83017	33351.3125
1748.05418	33265.3125
1751.27607	33170.3125
1754.49584	33125.4125
1757.71349	33085.2125
1760.92903	33066.6125
1764.14244	33022.0125
1767.35375	32995.4125
1770.56294	32944.4125
1773.77002	32965.3125
1776.97499	32900.3125
1780.17785	32907.6125
1783.37861	32854.8125
1786.57727	32823.3125
1789.77382	32738.7125
1792.96828	32659.6125
1796.16064	32624.1125
1799.3509	32588.4125
1802.53907	32510.3125
1805.72514	32443.9125
1808.90913	32360.3125
1812.09102	32307.2125
1815.27083	32238.2125
1818.44856	32221.1125
1821.6242	32166.0125
1824.79776	32130.3125
1827.96924	32134.5125
1831.13864	32102.9125
1834.30597	32106.9125
1837.47122	32126.2125
1840.6344	32130.7125
1843.7955	32126.4125
1846.95454	32106.7125
1850.11151	32071.4125
1853.26642	32094.6125
1856.41926	32085.3125
1859.57004	32068.5125
1862.71876	32042.6125
1865.86542	32021.1125
1869.01003	31981.1125
1872.15258	32036.7125
1875.29308	31979.7125
1878.43152	31943.1125
1881.56792	32003.5125
1884.70227	31989.5125
1887.83457	32031.8125
1890.96482	31966.3125
1894.09304	31936.2125
1897.21921	31936.5125
1900.34335	31922.3125
1903.46544	31890.1125
1906.58551	31961.7125
1909.70353	31945.6125
1912.81953	31923.7125
1915.93349	31854.7125
1919.04543	31740.8125
1922.15534	31706.6125
1925.26322	31645.3125
1928.36908	31502.0125
1931.47292	31440.1125
1934.57473	31359.5125
1937.67453	31266.3125
1940.77232	31218.3125
1943.86808	31104.5125
1946.96184	30965.3125
1950.05358	30824.2125
1953.14331	30755.9125
1956.23103	30647.8125
1959.31675	30614.3125
1962.40046	30567.3125
1965.48217	30505.6125
1968.56188	30366.3125
1971.63959	30307.6125
1974.7153	30230.0125
1977.78901	30160.2125
1980.86073	30029.4125
1983.93046	29942.1125
1986.99819	29829.8125
1990.06394	29727.9125
1993.1277	29713.7125
1996.18947	29627.4125
1999.24925	29531.4125
2002.30706	29415.7125
2005.36288	29399.2125
2008.41672	29361.2125
2011.46859	29227.3125
2014.51848	29156.2125
2017.56639	29130.9125
2020.61233	29061.4125
2023.6563	28955.6125
2026.6983	28915.1125
2029.73833	28897.6125
2032.7764	28839.2125
2035.8125	28772.8125
2038.84664	28756.7125
2041.87881	28763.4125
2044.90903	28720.2125
2047.93729	28654.8125
2050.96359	28685.1125
2053.98794	28634.3125
2057.01034	28605.9125
2060.03078	28581.3125
2063.04927	28531.7125
2066.06582	28523.1125
2069.08042	28534.5125
2072.09307	28531.1125
2075.10378	28504.5125
2078.11255	28427.3125
2081.11938	28448.2125
2084.12426	28433.4125
2087.12722	28371.5125
2090.12824	28380.7125
2093.12732	28432.7125
2096.12447	28364.7125
2099.11969	28375.7125
2102.11299	28360.6125
2105.10435	28430.2125
2108.09379	28433.8125
2111.08131	28429.8125
2114.0669	28431.4125
2117.05057	28465.3125
2120.03233	28414.7125
2123.01216	28475.3125
2125.99008	28521.0125
2128.96609	28534.6125
2131.94018	28556.2125
2134.91236	28559.5125
2137.88263	28604.8125
2140.851	28605.9125
2143.81746	28684.5125
2146.78201	28678.0125
2149.74466	28688.9125
2152.7054	28683.6125
2155.66425	28653.2125
2158.6212	28685.5125
2161.57625	28657.7125
2164.52941	28678.8125
2167.48067	28701.6125
2170.43004	28661.8125
2173.37752	28652.4125
2176.32311	28599.3125
2179.26681	28622.5125
2182.20863	28698.3125
2185.14856	28681.2125
2188.08661	28715.7125
2191.02278	28711.8125
2193.95707	28705.5125
2196.88948	28710.0125
2199.82001	28744.5125
2202.74867	28718.1125
2205.67545	28695.0125
2208.60037	28691.0125
2211.52341	28705.9125
2214.44458	28684.5125
2217.36388	28639.7125
2220.28132	28616.2125
2223.1969	28562.3125
2226.11061	28568.0125
2229.02246	28481.1125
2231.93245	28416.4125
2234.84058	28352.8125
2237.74686	28287.1125
2240.65128	28300.3125
2243.55385	28218.3125
2246.45456	28198.0125
2249.35343	28184.2125
2252.25044	28115.8125
2255.14561	28052.8125
2258.03893	28089.7125
2260.93041	28055.5125
2263.82004	27976.8125
2266.70783	27916.6125
2269.59378	27836.0125
2272.4779	27791.3125
2275.36017	27737.4125
2278.24061	27663.8125
2281.11922	27649.4125
2283.996	27603.6125
2286.87094	27567.4125
2289.74405	27525.1125
2292.61534	27465.5125
2295.4848	27487.9125
2298.35243	27549.9125
2301.21824	27535.6125
2304.08223	27574.1125
2306.94439	27591.1125
2309.80474	27586.5125
2312.66327	27610.0125
2315.51999	27580.3125
2318.37489	27615.8125
2321.22797	27627.4125
2324.07925	27596.4125
2326.92871	27574.5125
2329.77637	27557.1125
2332.62222	27581.9125
2335.46626	27568.9125
2338.3085	27592.1125
2341.14893	27589.0125
2343.98756	27623.0125
2346.8244	27621.4125
2349.65943	27627.4125
2352.49267	27587.9125
2355.32411	27527.6125
2358.15376	27536.4125
2360.98161	27518.2125
2363.80768	27466.7125
2366.63195	27430.2125
2369.45444	27350.2125
2372.27514	27314.1125
2375.09405	27284.8125
2377.91118	27224.8125
2380.72652	27150.2125
2383.54009	27113.1125
2386.35187	27081.6125
2389.16188	27028.0125
2391.97011	27074.0125
2394.77657	27020.6125
2397.58125	26981.1125
2400.38416	26899.1125
2403.18529	26859.0125
2405.98466	26828.6125
2408.78226	26738.4125
2411.57809	26693.0125
2414.37216	26639.7125
2417.16446	26626.9125
2419.955	26571.9125
2422.74378	26570.9125
2425.5308	26533.6125
2428.31606	26539.3125
2431.09956	26519.9125
2433.88131	26462.4125
2436.6613	26450.5125
2439.43954	26470.8125
2442.21603	26446.1125
2444.99077	26423.8125
2447.76377	26408.8125
2450.53501	26381.2125
2453.30451	26413.6125
2456.07226	26407.1125
2458.83827	26429.9125
2461.60254	26425.7125
2464.36507	26434.0125
2467.12586	26419.2125
2469.88492	26450.7125
2472.64224	26459.0125
2475.39782	26451.2125
2478.15167	26504.4125
2480.90379	26461.8125
2483.65417	26537.3125
2486.40283	26545.9125
2489.14976	26553.2125
2491.89497	26528.2125
2494.63845	26519.0125
2497.3802	26565.2125
2500.12024	26608.5125
2502.85855	26550.9125
2505.59514	26529.1125
2508.33002	26468.0125
2511.06318	26461.8125
2513.79462	26421.7125
2516.52435	26397.1125
2519.25237	26360.8125
2521.97867	26379.1125
2524.70327	26373.0125
2527.42616	26349.7125
2530.14734	26375.9125
2532.86681	26316.3125
2535.58458	26305.3125
2538.30065	26290.5125
2541.01501	26274.7125
2543.72768	26288.5125
2546.43864	26264.7125
2549.14791	26273.1125
2551.85548	26276.7125
2554.56136	26219.3125
2557.26554	26197.7125
2559.96803	26162.3125
2562.66883	26143.7125
2565.36794	26174.4125
2568.06536	26136.7125
2570.7611	26165.6125
2573.45514	26130.6125
2576.14751	26129.9125
2578.83819	26165.1125
2581.52719	26096.9125
2584.21451	26090.0125
2586.90015	26077.6125
2589.58411	26067.7125
2592.2664	26043.1125
2594.94701	25995.1125
2597.62594	26010.1125
2600.30321	25976.8125
2602.9788	25974.9125
2605.65273	25984.6125
2608.32498	25987.0125
2610.99557	25918.4125
2613.66449	25930.8125
2616.33175	25970.7125
2618.99734	25976.1125
2621.66128	25935.7125
2624.32355	25992.6125
2626.98416	26013.5125
2629.64311	25982.4125
2632.30041	25991.6125
2634.95605	25966.3125
2637.61004	25946.4125
2640.26238	25928.6125
2642.91306	25891.5125
2645.56209	25860.7125
2648.20948	25827.6125
2650.85521	25853.4125
2653.4993	25824.3125
2656.14175	25853.4125
2658.78255	25841.6125
2661.42171	25831.8125
2664.05923	25894.8125
2666.6951	25887.1125
2669.32934	25907.1125
2671.96194	25884.2125
2674.59291	25868.6125
2677.22224	25854.8125
2679.84993	25871.0125
2682.476	25839.2125
2685.10043	25839.2125
2687.72324	25759.4125
2690.34441	25775.6125
2692.96396	25747.1125
2695.58188	25778.4125
2698.19818	25747.7125
2700.81285	25735.0125
2703.4259	25730.7125
2706.03733	25731.3125
2708.64714	25694.8125
2711.25533	25720.4125
2713.86191	25756.5125
2716.46687	25781.1125
2719.07021	25776.1125
2721.67194	25764.0125
2724.27206	25745.3125
2726.87057	25792.4125
2729.46747	25827.0125
2732.06276	25840.2125
2734.65644	25825.2125
2737.24852	25823.3125
2739.83899	25742.2125
2742.42786	25740.8125
2745.01513	25747.3125
2747.60079	25757.6125
2750.18486	25703.9125
2752.76733	25693.5125
2755.3482	25732.7125
2757.92747	25694.2125
2760.50515	25703.3125
2763.08123	25695.5125
2765.65573	25662.3125
2768.22863	25666.6125
2770.79994	25706.0125
2773.36967	25661.5125
2775.9378	25616.1125
2778.50435	25616.8125
2781.06932	25621.9125
2783.6327	25645.8125
2786.1945	25600.5125
2788.75471	25588.4125
2791.31335	25515.1125
2793.87041	25493.9125
2796.42589	25405.1125
2798.97979	25393.7125
2801.53212	25303.3125
2804.08288	25293.8125
2806.63206	25228.7125
2809.17967	25216.0125
2811.72571	25165.5125
2814.27018	25190.5125
2816.81308	25121.7125
2819.35442	25112.5125
2821.89419	25045.5125
2824.43239	25050.5125
2826.96904	25039.5125
2829.50412	25049.2125
2832.03763	25023.4125
2834.56959	24961.4125
2837.1	24948.5125
2839.62884	24885.4125
2842.15613	24855.3125
2844.68186	24878.6125
2847.20604	24894.9125
2849.72867	24876.5125
2852.24974	24839.3125
2854.76927	24828.1125
2857.28724	24798.3125
2859.80367	24823.7125
2862.31855	24766.0125
2864.83189	24786.1125
2867.34368	24783.6125
2869.85393	24771.2125
2872.36264	24724.9125
2874.8698	24690.0125
2877.37543	24765.8125
2879.87952	24776.3125
2882.38207	24782.8125
2884.88308	24753.9125
2887.38256	24789.8125
2889.88051	24784.0125
2892.37692	24847.2125
2894.8718	24852.0125
2897.36515	24836.0125
2899.85698	24868.7125
2902.34727	24919.4125
2904.83604	24902.3125
2907.32328	24976.0125
2909.809	24966.8125
2912.29319	24969.7125
2914.77587	24957.8125
2917.25702	24941.9125
2919.73665	24925.3125
2922.21476	24945.9125
2924.69136	24921.8125
2927.16644	24906.2125
2929.64	24800.9125
2932.11205	24800.5125
2934.58258	24741.2125
2937.05161	24755.9125
2939.51912	24748.6125
2941.98513	24723.9125
2944.44962	24643.7125
2946.91261	24579.8125
2949.37409	24579.6125
2951.83407	24541.6125
2954.29254	24579.5125
2956.74951	24538.0125
2959.20498	24547.6125
2961.65895	24505.1125
2964.11142	24487.3125
2966.56239	24396.4125
2969.01186	24360.5125
2971.45984	24270.5125
2973.90632	24235.3125
2976.35131	24159.9125
2978.7948	24144.0125
2981.23681	24075.1125
2983.67732	24022.6125
2986.11635	23977.7125
2988.55388	23930.2125
2990.98993	23880.0125
2993.4245	23840.1125
2995.85758	23730.8125
2998.28917	23735.9125
3000.71928	23647.5125
3003.14791	23580.6125
3005.57506	23550.8125
3008.00073	23512.5125
3010.42493	23545.3125
3012.84764	23481.7125
3015.26888	23490.6125
3017.68865	23445.8125
3020.10694	23381.8125
3022.52376	23366.8125
3024.9391	23296.8125
3027.35298	23287.2125
3029.76539	23271.6125
3032.17632	23207.3125
3034.5858	23192.2125
3036.9938	23147.2125
3039.40034	23143.0125
3041.80542	23111.1125
3044.20903	23065.0125
3046.61118	23060.6125
3049.01187	22999.0125
3051.4111	22964.9125
3053.80888	22889.9125
3056.20519	22889.9125
3058.60005	22789.7125
3060.99345	22801.1125
3063.3854	22753.1125
3065.7759	22674.1125
3068.16494	22650.1125
3070.55254	22590.2125
3072.93868	22587.6125
3075.32338	22491.9125
3077.70662	22405.5125
3080.08842	22325.4125
3082.46878	22381.2125
3084.84769	22295.5125
3087.22515	22309.6125
3089.60118	22322.8125
3091.97576	22360.6125
3094.3489	22236.8125
3096.72061	22246.7125
3099.09087	22225.6125
3101.4597	22154.7125
3103.82709	22219.3125
3106.19305	22199.6125
3108.55757	22146.4125
3110.92066	22077.1125
3113.28232	22059.5125
3115.64255	21963.1125
3118.00134	21950.8125
3120.35871	21903.2125
3122.71466	21831.4125
3125.06917	21829.5125
3127.42226	21725.8125
3129.77393	21800.7125
3132.12417	21775.8125
3134.47299	21770.1125
3136.82039	21755.4125
3139.16636	21767.6125
3141.51092	21749.5125
3143.85406	21797.0125
3146.19579	21728.6125
3148.53609	21687.7125
3150.87499	21723.5125
3153.21246	21757.7125
3155.54853	21752.6125
3157.88318	21707.7125
3160.21642	21708.9125
3162.54826	21701.0125
3164.87868	21679.1125
3167.2077	21665.6125
3169.5353	21610.6125
3171.86151	21639.7125
3174.18631	21564.3125
3176.5097	21572.0125
3178.83169	21553.9125
3181.15228	21549.9125
3183.47147	21492.8125
3185.78926	21530.9125
3188.10565	21508.4125
3190.42065	21505.7125
3192.73424	21485.6125
3195.04645	21468.5125
3197.35725	21506.3125
3199.66667	21488.2125
3201.97469	21492.9125
3204.28132	21451.3125
3206.58656	21471.8125
3208.8904	21437.2125
3211.19287	21475.9125
3213.49394	21417.3125
3215.79363	21438.4125
3218.09193	21456.9125
3220.38884	21422.6125
3222.68438	21423.2125
3224.97853	21407.8125
3227.2713	21381.6125
3229.56269	21376.6125
3231.8527	21350.9125
3234.14133	21307.3125
3236.42858	21243.0125
3238.71446	21272.0125
3240.99896	21197.3125
3243.28209	21156.3125
3245.56384	21234.2125
3247.84423	21227.6125
3250.12324	21197.0125
3252.40088	21190.0125
3254.67715	21156.4125
3256.95205	21115.0125
3259.22558	21097.5125
3261.49775	21056.6125
3263.76855	21001.3125
3266.03799	20960.0125
3268.30606	20963.1125
3270.57277	20945.8125
3272.83812	20901.4125
3275.10211	20853.2125
3277.36474	20880.4125
3279.62601	20868.3125
3281.88593	20882.8125
3284.14448	20898.0125
3286.40168	20858.1125
3288.65753	20835.3125
3290.91202	20830.9125
3293.16516	20736.8125
3295.41695	20696.4125
3297.66738	20606.6125
3299.91647	20484.5125
3302.16421	20406.5125
3304.4106	20308.3125
3306.65564	20236.8125
3308.89933	20097.9125
3311.14169	19974.5125
3313.38269	19838.3125
3315.62236	19699.4125
3317.86068	19536.8125
3320.09766	19356.1125
3322.3333	19188.1125
3324.5676	19204.9125
3326.80056	18894.3125
3329.03219	18814.6125
3331.26248	6.1125
3333.49143	0.6125
3335.71905	0.3125
