Data from AgNP_FTO_APTES_CRN_100uM_R6G_10uM_NaF_0.1M_Addition_RamanShift__18__18-52-28-129.txt Node

Date: Wed Dec 15 18:52:28 GMT 2021
User: TCL
Spectrometer: QEP01345
Trigger mode: 4
Integration Time (sec): 7.000000E0
Scans to average: 10
Electric dark correction enabled: true
Nonlinearity correction enabled: false
Boxcar width: 0
XAxis mode: Raman Shifts
Number of Pixels in Spectrum: 1044
>>>>>Begin Spectral Data<<<<<
46.04893	1.6
50.45542	-1.6
54.85868	-2.4
59.25871	-0.7
63.6555	55.4
68.04907	63.2
72.43941	65.3
76.82654	69.7
81.21044	71
85.59113	73.4
89.96862	76.8
94.34289	73.4
98.71396	83.8
103.08183	83.9
107.4465	88.5
111.80798	84.2
116.16626	88.1
120.52136	95.8
124.87327	92.6
129.222	102.5
133.56755	100.6
137.90993	106.5
142.24913	118.8
146.58517	129.3
150.91804	151.7
155.24774	174.2
159.57429	215.8
163.89768	268
168.21792	351.4
172.53501	477.1
176.84895	660.1
181.15975	931.6
185.46741	1302.7
189.77193	1796
194.07331	2412
198.37157	3083.8
202.6667	3817
206.9587	4529.6
211.24758	5228
215.53334	5941
219.81599	6683.8
224.09553	7510.2
228.37195	8399.2
232.64527	9400.8
236.91549	10439.9
241.18261	11494.6
245.44663	12549.6
249.70755	13445.4
253.96539	14257.9
258.22014	14917.9
262.4718	15504.3
266.72039	15872.2
270.96589	16101.8
275.20832	16117.6
279.44768	16004.6
283.68397	15860.1
287.91719	15681.6
292.14735	15579.1
296.37445	15549.2
300.59849	15554.3
304.81948	15561
309.03742	15511.2
313.25231	15356.8
317.46415	15109.7
321.67296	14799.1
325.87872	14552.3
330.08145	14441.3
334.28114	14435.3
338.47781	14566.4
342.67145	14708.6
346.86207	14923.5
351.04966	15183.3
355.23424	15454.8
359.4158	15668.6
363.59435	15864.5
367.76989	15986.9
371.94243	16064.4
376.11196	16162.3
380.27849	16276.7
384.44203	16381.1
388.60257	16529.2
392.76012	16665.2
396.91468	16849
401.06626	17064.7
405.21485	17206.9
409.36047	17174.2
413.50311	16994.2
417.64277	16779.2
421.77947	16717.1
425.9132	16760.9
430.04396	16862.9
434.17176	16994.7
438.2966	17179.9
442.41849	17507
446.53742	17955.2
450.6534	18430.9
454.76644	18750.4
458.87653	18863.2
462.98368	18722.6
467.08789	18559.1
471.18916	18434.4
475.2875	18337.9
479.38291	18270.4
483.4754	18205.6
487.56496	17995.7
491.6516	17715.7
495.73531	17477.3
499.81612	17336.9
503.89401	17373.4
507.96899	17405.4
512.04106	17427.6
516.11023	17432.8
520.1765	17395
524.23987	17370.9
528.30034	17315.5
532.35792	17278.5
536.41261	17070.5
540.46441	16933.9
544.51333	16931.1
548.55936	17068.2
552.60252	17364.1
556.64279	17708.2
560.6802	17978.8
564.71473	18103.7
568.7464	18279.9
572.7752	18550
576.80114	18703.2
580.82422	18835.9
584.84444	19012.4
588.86181	19469.4
592.87633	19990.9
596.888	20315.9
600.89682	20151.5
604.9028	20261.6
608.90594	21287
612.90624	22426.3
616.90371	21370
620.89834	18651.1
624.89015	17438.6
628.87913	17354.2
632.86528	17442.4
636.84862	17490.4
640.82913	17349.7
644.80683	16988.7
648.78172	16766.8
652.75379	16721.1
656.72306	16809.2
660.68952	16983
664.65319	16922.3
668.61405	16738.1
672.57211	16681.9
676.52738	16729.2
680.47986	16723.8
684.42955	16664.8
688.37646	16657.6
692.32058	16691.4
696.26192	16808.6
700.20048	16949
704.13626	17020.6
708.06928	17039.8
711.99952	16991.8
715.927	16964.6
719.85171	16968.8
723.77365	16958.7
727.69284	16855.4
731.60928	16720.2
735.52295	16707.6
739.43388	16694.1
743.34206	16725.6
747.24749	16776.8
751.15017	16816.3
755.05012	17058.6
758.94733	17405.1
762.8418	18068.2
766.73354	19054.6
770.62254	20101.9
774.50882	20383.8
778.39237	19653.9
782.27321	18517.1
786.15132	17551.8
790.02671	16942.9
793.89938	16659
797.76935	16546.1
801.6366	16527.2
805.50115	16496.6
809.36299	16453.7
813.22213	16422.6
817.07857	16392.5
820.93231	16374.5
824.78336	16345.5
828.63172	16327.2
832.47738	16331.4
836.32036	16346.8
840.16066	16368.8
843.99827	16378.7
847.8332	16334
851.66546	16305.7
855.49504	16254.4
859.32195	16274
863.1462	16273.8
866.96777	16241.3
870.78668	16232.8
874.60293	16200.1
878.41652	16234.5
882.22745	16251.9
886.03573	16302.5
889.84136	16308
893.64433	16243.6
897.44466	16196.5
901.24235	16150.2
905.0374	16084.6
908.8298	16056.1
912.61957	16094.6
916.40671	16236.6
920.19121	16353.2
923.97308	16420.6
927.75233	16477.2
931.52895	16448.2
935.30295	16300.9
939.07433	16078
942.84309	15895.8
946.60924	15809.2
950.37278	15723.5
954.13371	15733
957.89203	15697.4
961.64774	15716.1
965.40086	15666.7
969.15137	15619.8
972.89929	15547.2
976.64461	15495.8
980.38733	15522.9
984.12747	15553
987.86502	15672.1
991.59999	15769.9
995.33237	15944
999.06217	16215
1002.78939	16512.6
1006.51404	16687.6
1010.23611	16828
1013.95561	16980.4
1017.67255	16936.5
1021.38692	16803.6
1025.09872	16630.7
1028.80796	16570.3
1032.51465	16726.5
1036.21877	16907.6
1039.92035	16986.1
1043.61937	16920.8
1047.31584	16806
1051.00976	16728.5
1054.70114	16734.2
1058.38998	16835.9
1062.07627	17070.4
1065.76003	17306.9
1069.44126	17627
1073.11995	17968.4
1076.79611	18197.5
1080.46974	18176.5
1084.14085	17999.5
1087.80943	17863.3
1091.47549	17794.2
1095.13903	17688
1098.80005	17482.1
1102.45857	17160.1
1106.11456	16957
1109.76805	16860.8
1113.41903	16901.5
1117.06751	17018.4
1120.71348	17167.3
1124.35696	17330.6
1127.99793	17519.5
1131.63641	17625.4
1135.2724	17537.3
1138.90589	17368.3
1142.5369	17314.3
1146.16542	17323.2
1149.79145	17391.9
1153.415	17489.6
1157.03607	17668.1
1160.65467	17963.9
1164.27079	18486.3
1167.88443	19271.7
1171.49561	20249.7
1175.10432	21586
1178.71056	23178.9
1182.31434	24518.8
1185.91565	24974.8
1189.51451	24512.8
1193.11091	23697.9
1196.70485	22798.1
1200.29634	22006.4
1203.88538	21451
1207.47197	21092.1
1211.05612	20781.3
1214.63782	20550.1
1218.21708	20310.7
1221.79391	20154.1
1225.36829	20017.2
1228.94024	19885.5
1232.50976	19592.9
1236.07685	19325.5
1239.6415	19257.9
1243.20374	19257.2
1246.76355	19374.3
1250.32093	19548
1253.8759	19873.2
1257.42845	20264.4
1260.97859	20640.4
1264.52631	21022.6
1268.07163	21447.1
1271.61453	21816.9
1275.15503	22338.3
1278.69312	22812.6
1282.22882	23331.6
1285.76211	23917.8
1289.29301	24641.9
1292.82151	25565.2
1296.34761	26579.8
1299.87133	27835.8
1303.39266	29167.9
1306.9116	30592.3
1310.42815	32048.8
1313.94233	33106.3
1317.45412	33318.7
1320.96354	32869.7
1324.47058	32101.4
1327.97525	31345.6
1331.47754	30746.3
1334.97747	30373.7
1338.47502	30144.1
1341.97022	29855
1345.46305	29407.5
1348.95352	29030.1
1352.44163	29117.6
1355.92738	29795
1359.41078	31143.1
1362.89183	32412.3
1366.37053	32105.7
1369.84688	29974.4
1373.32088	27198.6
1376.79254	25240.7
1380.26186	24427.8
1383.72883	24282.1
1387.19347	24234.2
1390.65578	24088.3
1394.11575	24090.5
1397.57339	24340.7
1401.0287	24813.4
1404.48168	25154.8
1407.93234	25125.2
1411.38068	24671.6
1414.82669	23958.6
1418.27039	23123.1
1421.71177	22192.1
1425.15083	21455
1428.58758	21045.4
1432.02203	21074.2
1435.45416	21474.6
1438.88399	21993.4
1442.31151	22401.1
1445.73673	22763.6
1449.15965	23108.1
1452.58027	23330.6
1455.9986	23423.8
1459.41463	23544.4
1462.82837	23832.7
1466.23982	24252.7
1469.64898	24581.7
1473.05586	24786.3
1476.46045	24803.1
1479.86276	24676.8
1483.26279	24526.8
1486.66054	24382.6
1490.05602	24388.2
1493.44922	24470.2
1496.84016	24563.4
1500.22882	24901.3
1503.61521	25536.9
1506.99934	26341.4
1510.38121	27037.7
1513.76081	27261.6
1517.13816	26729.6
1520.51324	25727.6
1523.88607	24821.3
1527.25665	24266.1
1530.62498	24088.5
1533.99105	24022.1
1537.35488	23919.9
1540.71647	23644.4
1544.07581	23272.1
1547.4329	22912.5
1550.78776	22541.1
1554.14038	22337.3
1557.49077	22194.7
1560.83892	22218.7
1564.18484	22294.7
1567.52853	22542.7
1570.86999	22964.8
1574.20922	23546.9
1577.54624	24109.6
1580.88103	24381
1584.2136	24454.3
1587.54395	24449.3
1590.87208	24842.8
1594.19801	25646.2
1597.52172	26669.5
1600.84321	27094
1604.16251	26259.6
1607.47959	24610.6
1610.79447	22775.3
1614.10715	21124.2
1617.41763	19803.6
1620.7259	18971.1
1624.03199	18552.7
1627.33587	18535.4
1630.63757	18939.3
1633.93707	19801.4
1637.23439	21275.7
1640.52951	23450.6
1643.82246	25976.3
1647.11321	28117.2
1650.40179	28600.5
1653.68819	27001.4
1656.97241	24061
1660.25446	21191.6
1663.53433	18977.7
1666.81203	17562
1670.08756	16659.9
1673.36092	16112.9
1676.63211	15720.1
1679.90115	15489.5
1683.16801	15271.1
1686.43272	15112.6
1689.69527	15009.6
1692.95567	14966.9
1696.2139	14917.6
1699.46999	14874.9
1702.72392	14847.1
1705.97571	14797.5
1709.22535	14753.7
1712.47284	14696.2
1715.71819	14728.5
1718.96139	14654.6
1722.20246	14649.4
1725.44139	14598.6
1728.67818	14556
1731.91284	14477.3
1735.14537	14429.5
1738.37576	14344.9
1741.60403	14308.1
1744.83017	14303.8
1748.05418	14274.8
1751.27607	14241.7
1754.49584	14232.8
1757.71349	14236
1760.92903	14203.7
1764.14244	14210.6
1767.35375	14200
1770.56294	14176.7
1773.77002	14160.9
1776.97499	14142
1780.17785	14100.6
1783.37861	14078
1786.57727	14063.7
1789.77382	14029.1
1792.96828	14018
1796.16064	13968.1
1799.3509	13952.8
1802.53907	13924.1
1805.72514	13874.9
1808.90913	13866.7
1812.09102	13827.7
1815.27083	13805.4
1818.44856	13778.4
1821.6242	13778
1824.79776	13767.8
1827.96924	13755.5
1831.13864	13746
1834.30597	13755.5
1837.47122	13738.5
1840.6344	13712
1843.7955	13709.7
1846.95454	13704.2
1850.11151	13674
1853.26642	13694.3
1856.41926	13662.9
1859.57004	13683.4
1862.71876	13649.1
1865.86542	13643.5
1869.01003	13650.9
1872.15258	13665.5
1875.29308	13630.3
1878.43152	13592.8
1881.56792	13609.1
1884.70227	13564.6
1887.83457	13567.7
1890.96482	13554.3
1894.09304	13552.6
1897.21921	13566.9
1900.34335	13543.8
1903.46544	13514.7
1906.58551	13532.1
1909.70353	13507.6
1912.81953	13487.3
1915.93349	13474.6
1919.04543	13450.4
1922.15534	13428.8
1925.26322	13402.3
1928.36908	13376.2
1931.47292	13345
1934.57473	13335.8
1937.67453	13303.1
1940.77232	13244.1
1943.86808	13211.7
1946.96184	13216.9
1950.05358	13198.2
1953.14331	13140.3
1956.23103	13091.5
1959.31675	13073.7
1962.40046	13034.3
1965.48217	12996.5
1968.56188	12981.3
1971.63959	12929.8
1974.7153	12873.9
1977.78901	12859.4
1980.86073	12803.4
1983.93046	12788.6
1986.99819	12747.8
1990.06394	12694.2
1993.1277	12680
1996.18947	12636.7
1999.24925	12587
2002.30706	12551.1
2005.36288	12530.1
2008.41672	12489.9
2011.46859	12440.9
2014.51848	12444.7
2017.56639	12392.8
2020.61233	12373.7
2023.6563	12380.2
2026.6983	12322
2029.73833	12322.1
2032.7764	12271.1
2035.8125	12260.5
2038.84664	12220.5
2041.87881	12222.6
2044.90903	12196.1
2047.93729	12181.8
2050.96359	12165.1
2053.98794	12135.4
2057.01034	12162.7
2060.03078	12147.2
2063.04927	12129.9
2066.06582	12120.4
2069.08042	12130
2072.09307	12140.6
2075.10378	12081.7
2078.11255	12084.5
2081.11938	12069.9
2084.12426	12079.7
2087.12722	12077.6
2090.12824	12053.5
2093.12732	12085.6
2096.12447	12110.6
2099.11969	12061.7
2102.11299	12055
2105.10435	12089.2
2108.09379	12098.7
2111.08131	12114
2114.0669	12127.4
2117.05057	12106
2120.03233	12138.9
2123.01216	12137.8
2125.99008	12126.3
2128.96609	12156.1
2131.94018	12168.5
2134.91236	12168
2137.88263	12179.5
2140.851	12193.3
2143.81746	12211.9
2146.78201	12185.7
2149.74466	12191.1
2152.7054	12226.2
2155.66425	12214.5
2158.6212	12235.3
2161.57625	12217.9
2164.52941	12198.8
2167.48067	12217.9
2170.43004	12186.3
2173.37752	12209.6
2176.32311	12188.5
2179.26681	12200.2
2182.20863	12222.7
2185.14856	12173.2
2188.08661	12194.2
2191.02278	12188.2
2193.95707	12176.3
2196.88948	12186.1
2199.82001	12136.9
2202.74867	12129.1
2205.67545	12152.2
2208.60037	12151.5
2211.52341	12111.3
2214.44458	12099
2217.36388	12084.9
2220.28132	12069.8
2223.1969	12048.2
2226.11061	12039.3
2229.02246	12032.9
2231.93245	12020.5
2234.84058	11965.3
2237.74686	11972.1
2240.65128	11961.5
2243.55385	11923.1
2246.45456	11901.4
2249.35343	11897.8
2252.25044	11887.6
2255.14561	11861
2258.03893	11848.1
2260.93041	11832.7
2263.82004	11806.7
2266.70783	11770.8
2269.59378	11745.7
2272.4779	11733.7
2275.36017	11695.2
2278.24061	11680.6
2281.11922	11641
2283.996	11631.1
2286.87094	11630.3
2289.74405	11598.8
2292.61534	11586.3
2295.4848	11601.3
2298.35243	11551.2
2301.21824	11560.4
2304.08223	11579.9
2306.94439	11582.4
2309.80474	11537.6
2312.66327	11530.1
2315.51999	11546.6
2318.37489	11544.4
2321.22797	11521.9
2324.07925	11514.4
2326.92871	11491
2329.77637	11497.7
2332.62222	11488.7
2335.46626	11476.8
2338.3085	11444.2
2341.14893	11451.6
2343.98756	11438.1
2346.8244	11438.5
2349.65943	11424.6
2352.49267	11405.1
2355.32411	11435.5
2358.15376	11416.2
2360.98161	11401.8
2363.80768	11394.6
2366.63195	11415.6
2369.45444	11387.7
2372.27514	11356.8
2375.09405	11363.4
2377.91118	11345.8
2380.72652	11311.7
2383.54009	11307.1
2386.35187	11277.3
2389.16188	11261.8
2391.97011	11217.6
2394.77657	11209.6
2397.58125	11212.6
2400.38416	11174.7
2403.18529	11170.1
2405.98466	11140.3
2408.78226	11140.1
2411.57809	11140.7
2414.37216	11100.1
2417.16446	11074.1
2419.955	11085.7
2422.74378	11054.6
2425.5308	11041.1
2428.31606	11013.8
2431.09956	11022.1
2433.88131	11028.2
2436.6613	11042.9
2439.43954	11041.4
2442.21603	10993.5
2444.99077	10989.3
2447.76377	11009.4
2450.53501	11003.5
2453.30451	10961
2456.07226	10955.3
2458.83827	10944.4
2461.60254	10942.4
2464.36507	10930.5
2467.12586	10953.4
2469.88492	10939.3
2472.64224	10942.4
2475.39782	10939.8
2478.15167	10937.3
2480.90379	10938.2
2483.65417	10930
2486.40283	10930.9
2489.14976	10946.8
2491.89497	10916.5
2494.63845	10946.1
2497.3802	10933.7
2500.12024	10910.4
2502.85855	10893.4
2505.59514	10905.4
2508.33002	10904.1
2511.06318	10872.6
2513.79462	10865.5
2516.52435	10879.6
2519.25237	10837
2521.97867	10827.4
2524.70327	10825.5
2527.42616	10791.6
2530.14734	10815
2532.86681	10780.8
2535.58458	10798.4
2538.30065	10779.3
2541.01501	10770.8
2543.72768	10765.7
2546.43864	10761
2549.14791	10734.8
2551.85548	10726.6
2554.56136	10681.7
2557.26554	10680.1
2559.96803	10704.3
2562.66883	10677
2565.36794	10645.7
2568.06536	10665.5
2570.7611	10650.4
2573.45514	10632.3
2576.14751	10628.6
2578.83819	10593.1
2581.52719	10596
2584.21451	10564.1
2586.90015	10584.6
2589.58411	10560.5
2592.2664	10553.1
2594.94701	10531.9
2597.62594	10509.5
2600.30321	10518.4
2602.9788	10521.9
2605.65273	10505.1
2608.32498	10467.4
2610.99557	10463.2
2613.66449	10448.2
2616.33175	10450.2
2618.99734	10435
2621.66128	10456.9
2624.32355	10455.2
2626.98416	10436.9
2629.64311	10435.8
2632.30041	10425.7
2634.95605	10415.3
2637.61004	10405.6
2640.26238	10389.1
2642.91306	10392.2
2645.56209	10394.7
2648.20948	10388.4
2650.85521	10386
2653.4993	10380.7
2656.14175	10376.3
2658.78255	10365.3
2661.42171	10374.2
2664.05923	10387.1
2666.6951	10382
2669.32934	10381.7
2671.96194	10349.6
2674.59291	10352.8
2677.22224	10375.7
2679.84993	10355
2682.476	10338.2
2685.10043	10373.4
2687.72324	10355.7
2690.34441	10354.8
2692.96396	10351.1
2695.58188	10353
2698.19818	10349.9
2700.81285	10372.5
2703.4259	10366.2
2706.03733	10410.9
2708.64714	10404.5
2711.25533	10395.4
2713.86191	10380.9
2716.46687	10400.3
2719.07021	10385.3
2721.67194	10411.8
2724.27206	10342.2
2726.87057	10374.2
2729.46747	10382.7
2732.06276	10383.1
2734.65644	10390.1
2737.24852	10365.1
2739.83899	10366.2
2742.42786	10352.1
2745.01513	10349.2
2747.60079	10339
2750.18486	10332.3
2752.76733	10356.7
2755.3482	10343.8
2757.92747	10363.3
2760.50515	10327
2763.08123	10336.6
2765.65573	10288
2768.22863	10293
2770.79994	10283.6
2773.36967	10276.2
2775.9378	10284.2
2778.50435	10274.1
2781.06932	10245.8
2783.6327	10271.4
2786.1945	10247
2788.75471	10231.7
2791.31335	10203.1
2793.87041	10214.9
2796.42589	10171.6
2798.97979	10172.4
2801.53212	10151.7
2804.08288	10151.1
2806.63206	10113.4
2809.17967	10096.3
2811.72571	10086.2
2814.27018	10062.3
2816.81308	10067.4
2819.35442	10047.2
2821.89419	10027.5
2824.43239	10019.7
2826.96904	9997.1
2829.50412	10010.5
2832.03763	9968.7
2834.56959	9995.2
2837.1	9957.2
2839.62884	9981.5
2842.15613	9980.5
2844.68186	9984.3
2847.20604	9978.5
2849.72867	9984.7
2852.24974	9984.4
2854.76927	9983.5
2857.28724	9959.5
2859.80367	9934.6
2862.31855	9915.9
2864.83189	9900.2
2867.34368	9924.5
2869.85393	9895.4
2872.36264	9904.3
2874.8698	9887.6
2877.37543	9915.7
2879.87952	9923.9
2882.38207	9899.6
2884.88308	9914.2
2887.38256	9913.6
2889.88051	9906.6
2892.37692	9908.9
2894.8718	9870.2
2897.36515	9901.8
2899.85698	9890.6
2902.34727	9917.7
2904.83604	9923.5
2907.32328	9934
2909.809	9923.2
2912.29319	9945.6
2914.77587	9956.9
2917.25702	9927.1
2919.73665	9932.2
2922.21476	9938.1
2924.69136	9920
2927.16644	9923.7
2929.64	9930.6
2932.11205	9899
2934.58258	9885.8
2937.05161	9895.3
2939.51912	9885.1
2941.98513	9897
2944.44962	9853.2
2946.91261	9839.5
2949.37409	9845.6
2951.83407	9870
2954.29254	9843.4
2956.74951	9814.2
2959.20498	9817.5
2961.65895	9817.5
2964.11142	9838.7
2966.56239	9778.3
2969.01186	9773.8
2971.45984	9753
2973.90632	9731.6
2976.35131	9695.3
2978.7948	9685.8
2981.23681	9661.6
2983.67732	9697.1
2986.11635	9669.9
2988.55388	9598.9
2990.98993	9607.2
2993.4245	9594.9
2995.85758	9555.9
2998.28917	9536.2
3000.71928	9537.3
3003.14791	9498.3
3005.57506	9519.4
3008.00073	9500
3010.42493	9517.9
3012.84764	9474.2
3015.26888	9454.1
3017.68865	9439.2
3020.10694	9406.5
3022.52376	9398
3024.9391	9412.9
3027.35298	9394.8
3029.76539	9412.1
3032.17632	9407.1
3034.5858	9388.5
3036.9938	9371.8
3039.40034	9327.9
3041.80542	9343.7
3044.20903	9328.2
3046.61118	9322.8
3049.01187	9312.6
3051.4111	9311.3
3053.80888	9283.7
3056.20519	9266.6
3058.60005	9266.5
3060.99345	9235.1
3063.3854	9207.8
3065.7759	9222.4
3068.16494	9191.6
3070.55254	9178.7
3072.93868	9169.7
3075.32338	9134.2
3077.70662	9111.6
3080.08842	9066
3082.46878	9091.2
3084.84769	9072.7
3087.22515	9066
3089.60118	9088.8
3091.97576	9075.4
3094.3489	9095.2
3096.72061	9073.5
3099.09087	9087.8
3101.4597	9067.1
3103.82709	9053.4
3106.19305	9048.3
3108.55757	9056.1
3110.92066	9049.3
3113.28232	9020
3115.64255	8985.4
3118.00134	8985.4
3120.35871	8992
3122.71466	8972.9
3125.06917	8941.6
3127.42226	8940.5
3129.77393	8955.5
3132.12417	8946
3134.47299	8977.8
3136.82039	8949.2
3139.16636	8953.6
3141.51092	8966.2
3143.85406	8947
3146.19579	8955.6
3148.53609	8962.1
3150.87499	8989.6
3153.21246	8955.8
3155.54853	8989.7
3157.88318	8955
3160.21642	8976.1
3162.54826	8984.9
3164.87868	8975.6
3167.2077	8983.3
3169.5353	8978.7
3171.86151	8975.8
3174.18631	8979.2
3176.5097	8977.5
3178.83169	8972.3
3181.15228	8949.7
3183.47147	8940
3185.78926	8958
3188.10565	8919.7
3190.42065	8957.4
3192.73424	8937.2
3195.04645	8928.1
3197.35725	8940.4
3199.66667	8952.1
3201.97469	8972.7
3204.28132	8968.7
3206.58656	8965.1
3208.8904	8975.1
3211.19287	8963.8
3213.49394	8960
3215.79363	8957.4
3218.09193	8958.9
3220.38884	8987
3222.68438	8981.9
3224.97853	8961.9
3227.2713	8962.6
3229.56269	8947.9
3231.8527	8947.6
3234.14133	8912.5
3236.42858	8899.9
3238.71446	8906.9
3240.99896	8888.8
3243.28209	8874.6
3245.56384	8868.9
3247.84423	8854.4
3250.12324	8859
3252.40088	8864.3
3254.67715	8889.5
3256.95205	8875.3
3259.22558	8867.1
3261.49775	8839.9
3263.76855	8848.7
3266.03799	8796.6
3268.30606	8803.6
3270.57277	8791.5
3272.83812	8759.5
3275.10211	8749
3277.36474	8734.4
3279.62601	8755.2
3281.88593	8732.2
3284.14448	8737.2
3286.40168	8742.9
3288.65753	8732.7
3290.91202	8740.9
3293.16516	8694.6
3295.41695	8674.4
3297.66738	8622.3
3299.91647	8579.5
3302.16421	8544
3304.4106	8505.8
3306.65564	8455.8
3308.89933	8399.5
3311.14169	8367.6
3313.38269	8301.8
3315.62236	8278.2
3317.86068	8197.6
3320.09766	8096.5
3322.3333	8016.1
3324.5676	8050.9
3326.80056	7916.8
3329.03219	7882.4
3331.26248	3.2
3333.49143	0.7
3335.71905	-0.3
