Data from AgNP_FTO_APTES_CRN_5uM_R6G_10uM_NaF_0.1M_Addition_RamanShift__9__15-36-27-907.txt Node

Date: Wed Dec 15 15:36:27 GMT 2021
User: TCL
Spectrometer: QEP01345
Trigger mode: 4
Integration Time (sec): 7.000000E0
Scans to average: 10
Electric dark correction enabled: true
Nonlinearity correction enabled: false
Boxcar width: 0
XAxis mode: Raman Shifts
Number of Pixels in Spectrum: 1044
>>>>>Begin Spectral Data<<<<<
46.04893	0.6375
50.45542	-2.3625
54.85868	-1.4625
59.25871	-0.8625
63.6555	125.8375
68.04907	134.2375
72.43941	139.6375
76.82654	145.3375
81.21044	150.9375
85.59113	155.0375
89.96862	161.3375
94.34289	162.7375
98.71396	176.2375
103.08183	181.8375
107.4465	184.7375
111.80798	187.4375
116.16626	191.6375
120.52136	202.8375
124.87327	205.6375
129.222	216.6375
133.56755	231.3375
137.90993	248.8375
142.24913	273.8375
146.58517	306.2375
150.91804	353.2375
155.24774	424.5375
159.57429	531.2375
163.89768	674.4375
168.21792	893.4375
172.53501	1224.7375
176.84895	1688.2375
181.15975	2376.0375
185.46741	3316.5375
189.77193	4573.1375
194.07331	6101.9375
198.37157	7849.5375
202.6667	9682.1375
206.9587	11543.7375
211.24758	13289.8375
215.53334	15077.4375
219.81599	16938.9375
224.09553	18950.5375
228.37195	21239.4375
232.64527	23755.8375
236.91549	26407.5375
241.18261	29105.2375
245.44663	31645.6375
249.70755	34031.4375
253.96539	36053.3375
258.22014	37798.4375
262.4718	39163.3375
266.72039	40107.7375
270.96589	40596.9375
275.20832	40673.6375
279.44768	40473.4375
283.68397	40190.6375
287.91719	39834.0375
292.14735	39610.6375
296.37445	39494.0375
300.59849	39507.1375
304.81948	39519.3375
309.03742	39529.8375
313.25231	39309.9375
317.46415	38818.9375
321.67296	38271.0375
325.87872	37766.9375
330.08145	37559.5375
334.28114	37605.3375
338.47781	37938.0375
342.67145	38350.9375
346.86207	38853.5375
351.04966	39458.7375
355.23424	40050.8375
359.4158	40644.3375
363.59435	41176.4375
367.76989	41601.3375
371.94243	41825.4375
376.11196	41977.2375
380.27849	42053.9375
384.44203	42170.5375
388.60257	42469.4375
392.76012	42909.0375
396.91468	43569.1375
401.06626	44189.5375
405.21485	44651.8375
409.36047	44652.2375
413.50311	44530.8375
417.64277	44627.1375
421.77947	44952.4375
425.9132	45289.5375
430.04396	45573.6375
434.17176	45674.0375
438.2966	45686.6375
442.41849	45946.0375
446.53742	46761.0375
450.6534	47795.1375
454.76644	48629.1375
458.87653	48921.3375
462.98368	48816.9375
467.08789	48322.2375
471.18916	47672.2375
475.2875	46940.9375
479.38291	46441.3375
483.4754	46011.0375
487.56496	45672.8375
491.6516	45209.1375
495.73531	44965.2375
499.81612	45013.7375
503.89401	45516.7375
507.96899	45988.0375
512.04106	46158.1375
516.11023	46039.8375
520.1765	45508.0375
524.23987	44954.6375
528.30034	44479.4375
532.35792	44013.2375
536.41261	43573.8375
540.46441	43236.1375
544.51333	43323.4375
548.55936	43690.5375
552.60252	44410.4375
556.64279	45226.7375
560.6802	45758.1375
564.71473	46166.8375
568.7464	46832.7375
572.7752	48055.5375
576.80114	49752.1375
580.82422	51723.8375
584.84444	53926.2375
588.86181	56317.2375
592.87633	57682.2375
596.888	56430.3375
600.89682	53966.4375
604.9028	53379.6375
608.90594	55150.6375
612.90624	56623.1375
616.90371	53364.6375
620.89834	47694.5375
624.89015	45264.0375
628.87913	45192.0375
632.86528	45436.5375
636.84862	45369.1375
640.82913	44635.4375
644.80683	43827.3375
648.78172	43341.1375
652.75379	43478.7375
656.72306	43921.0375
660.68952	44321.4375
664.65319	44061.0375
668.61405	43534.8375
672.57211	43538.1375
676.52738	43726.5375
680.47986	43693.3375
684.42955	43462.1375
688.37646	43366.3375
692.32058	43692.2375
696.26192	44201.5375
700.20048	44798.8375
704.13626	45146.4375
708.06928	45203.9375
711.99952	45169.4375
715.927	45133.0375
719.85171	45235.7375
723.77365	45110.8375
727.69284	44432.8375
731.60928	43785.1375
735.52295	43437.0375
739.43388	43302.1375
743.34206	43432.2375
747.24749	43789.1375
751.15017	44217.8375
755.05012	44883.4375
758.94733	45944.2375
762.8418	47599.1375
766.73354	49960.2375
770.62254	51812.1375
774.50882	51669.4375
778.39237	49760.0375
782.27321	47444.0375
786.15132	45606.4375
790.02671	44476.3375
793.89938	43838.0375
797.76935	43623.7375
801.6366	43517.1375
805.50115	43550.0375
809.36299	43413.8375
813.22213	42966.0375
817.07857	42716.4375
820.93231	42502.3375
824.78336	42268.7375
828.63172	42166.3375
832.47738	42120.1375
836.32036	42165.9375
840.16066	42167.6375
843.99827	42253.6375
847.8332	42196.1375
851.66546	42257.0375
855.49504	42351.6375
859.32195	42389.1375
863.1462	42266.8375
866.96777	42269.4375
870.78668	42240.7375
874.60293	42279.0375
878.41652	42272.6375
882.22745	42444.0375
886.03573	42538.6375
889.84136	42571.1375
893.64433	42446.4375
897.44466	42328.5375
901.24235	42286.2375
905.0374	42264.8375
908.8298	42219.0375
912.61957	42203.7375
916.40671	42636.8375
920.19121	43202.0375
923.97308	43595.5375
927.75233	43464.4375
931.52895	42958.0375
935.30295	42381.2375
939.07433	41895.4375
942.84309	41449.3375
946.60924	41309.2375
950.37278	41320.6375
954.13371	41278.1375
957.89203	41260.6375
961.64774	41256.2375
965.40086	41239.2375
969.15137	41174.3375
972.89929	41029.1375
976.64461	40913.0375
980.38733	41002.7375
984.12747	41023.2375
987.86502	41170.3375
991.59999	41371.0375
995.33237	41678.0375
999.06217	42261.6375
1002.78939	43079.6375
1006.51404	43953.5375
1010.23611	44853.5375
1013.95561	45383.5375
1017.67255	45317.4375
1021.38692	44798.5375
1025.09872	44152.3375
1028.80796	43634.6375
1032.51465	43604.9375
1036.21877	43806.9375
1039.92035	43951.0375
1043.61937	44031.0375
1047.31584	44046.7375
1051.00976	44060.5375
1054.70114	44208.8375
1058.38998	44511.9375
1062.07627	45280.3375
1065.76003	46217.3375
1069.44126	47248.3375
1073.11995	48419.1375
1076.79611	49239.0375
1080.46974	49410.7375
1084.14085	49117.2375
1087.80943	49091.5375
1091.47549	49008.8375
1095.13903	48903.6375
1098.80005	48196.2375
1102.45857	47183.7375
1106.11456	46337.7375
1109.76805	45803.7375
1113.41903	45628.9375
1117.06751	45702.6375
1120.71348	45896.3375
1124.35696	46167.6375
1127.99793	46543.7375
1131.63641	46833.8375
1135.2724	47031.1375
1138.90589	47208.7375
1142.5369	47392.7375
1146.16542	47635.2375
1149.79145	47910.0375
1153.415	48380.1375
1157.03607	49064.3375
1160.65467	50476.1375
1164.27079	52729.8375
1167.88443	55180.7375
1171.49561	57480.3375
1175.10432	59938.1375
1178.71056	63029.1375
1182.31434	66239.8375
1185.91565	68250.8375
1189.51451	68612.3375
1193.11091	67822.8375
1196.70485	66194.7375
1200.29634	64153.2375
1203.88538	62835.3375
1207.47197	62402.4375
1211.05612	62167.1375
1214.63782	61408.0375
1218.21708	59817.7375
1221.79391	57932.7375
1225.36829	56403.8375
1228.94024	55532.7375
1232.50976	54987.4375
1236.07685	54557.1375
1239.6415	54358.5375
1243.20374	54460.5375
1246.76355	54692.6375
1250.32093	55378.2375
1253.8759	56515.4375
1257.42845	57920.6375
1260.97859	59495.7375
1264.52631	61149.4375
1268.07163	62814.3375
1271.61453	64362.7375
1275.15503	65978.8375
1278.69312	67598.7375
1282.22882	69269.5375
1285.76211	70989.3375
1289.29301	73114.5375
1292.82151	75562.3375
1296.34761	78746.4375
1299.87133	82663.0375
1303.39266	86640.1375
1306.9116	90058.0375
1310.42815	92238.0375
1313.94233	92976.0375
1317.45412	92533.5375
1320.96354	92024.3375
1324.47058	91972.3375
1327.97525	92606.5375
1331.47754	93312.7375
1334.97747	93787.8375
1338.47502	93996.6375
1341.97022	93737.9375
1345.46305	92891.0375
1348.95352	91606.1375
1352.44163	90249.0375
1355.92738	89813.2375
1359.41078	90450.4375
1362.89183	91092.6375
1366.37053	89288.6375
1369.84688	84386.9375
1373.32088	77749.7375
1376.79254	72608.8375
1380.26186	70594.8375
1383.72883	70674.5375
1387.19347	71016.3375
1390.65578	70451.4375
1394.11575	70188.1375
1397.57339	70769.4375
1401.0287	72153.4375
1404.48168	73534.9375
1407.93234	73768.3375
1411.38068	72801.0375
1414.82669	70691.7375
1418.27039	67962.6375
1421.71177	65309.4375
1425.15083	63292.3375
1428.58758	62550.3375
1432.02203	63293.7375
1435.45416	65053.4375
1438.88399	67135.7375
1442.31151	68655.5375
1445.73673	69315.5375
1449.15965	69408.3375
1452.58027	69141.6375
1455.9986	68877.8375
1459.41463	69229.1375
1462.82837	70228.8375
1466.23982	71460.9375
1469.64898	72462.4375
1473.05586	72848.3375
1476.46045	72772.2375
1479.86276	72215.7375
1483.26279	71412.8375
1486.66054	70868.6375
1490.05602	70972.3375
1493.44922	71282.3375
1496.84016	71558.4375
1500.22882	72154.7375
1503.61521	73183.0375
1506.99934	74229.2375
1510.38121	74973.4375
1513.76081	74965.6375
1517.13816	74326.3375
1520.51324	73657.8375
1523.88607	73501.6375
1527.25665	73906.5375
1530.62498	74441.4375
1533.99105	74454.6375
1537.35488	73659.6375
1540.71647	72352.1375
1544.07581	70643.7375
1547.4329	68843.3375
1550.78776	67327.3375
1554.14038	66134.6375
1557.49077	65348.5375
1560.83892	64687.0375
1564.18484	64330.5375
1567.52853	64158.8375
1570.86999	64743.3375
1574.20922	66298.8375
1577.54624	68145.6375
1580.88103	69599.8375
1584.2136	71296.0375
1587.54395	73496.6375
1590.87208	76283.7375
1594.19801	79671.6375
1597.52172	82580.3375
1600.84321	82734.6375
1604.16251	79068.1375
1607.47959	73593.7375
1610.79447	68172.6375
1614.10715	62962.1375
1617.41763	58542.3375
1620.7259	55348.2375
1624.03199	53658.1375
1627.33587	53573.4375
1630.63757	55001.9375
1633.93707	58258.3375
1637.23439	63944.4375
1640.52951	71839.3375
1643.82246	80368.6375
1647.11321	86058.7375
1650.40179	85662.3375
1653.68819	78773.1375
1656.97241	68780.1375
1660.25446	59772.1375
1663.53433	53210.5375
1666.81203	48904.6375
1670.08756	46201.4375
1673.36092	44503.4375
1676.63211	43362.5375
1679.90115	42511.9375
1683.16801	41873.7375
1686.43272	41385.6375
1689.69527	41081.3375
1692.95567	40795.1375
1696.2139	40665.8375
1699.46999	40547.4375
1702.72392	40442.7375
1705.97571	40319.8375
1709.22535	40222.3375
1712.47284	40121.1375
1715.71819	40060.5375
1718.96139	39922.3375
1722.20246	39813.7375
1725.44139	39655.0375
1728.67818	39450.9375
1731.91284	39211.6375
1735.14537	39043.5375
1738.37576	38848.3375
1741.60403	38727.8375
1744.83017	38626.5375
1748.05418	38547.4375
1751.27607	38433.2375
1754.49584	38309.4375
1757.71349	38306.9375
1760.92903	38324.6375
1764.14244	38307.5375
1767.35375	38206.5375
1770.56294	38197.8375
1773.77002	38159.0375
1776.97499	38156.2375
1780.17785	38073.8375
1783.37861	38001.2375
1786.57727	37915.5375
1789.77382	37856.3375
1792.96828	37737.4375
1796.16064	37668.4375
1799.3509	37619.1375
1802.53907	37575.6375
1805.72514	37422.6375
1808.90913	37434.1375
1812.09102	37355.9375
1815.27083	37244.4375
1818.44856	37211.7375
1821.6242	37189.0375
1824.79776	37193.9375
1827.96924	37203.3375
1831.13864	37216.2375
1834.30597	37281.9375
1837.47122	37276.5375
1840.6344	37295.0375
1843.7955	37306.3375
1846.95454	37236.0375
1850.11151	37250.5375
1853.26642	37234.2375
1856.41926	37209.5375
1859.57004	37244.7375
1862.71876	37094.9375
1865.86542	37095.7375
1869.01003	37052.1375
1872.15258	36990.8375
1875.29308	36990.3375
1878.43152	36873.7375
1881.56792	36792.6375
1884.70227	36777.2375
1887.83457	36737.2375
1890.96482	36691.6375
1894.09304	36665.4375
1897.21921	36622.7375
1900.34335	36547.0375
1903.46544	36483.4375
1906.58551	36451.1375
1909.70353	36379.4375
1912.81953	36323.1375
1915.93349	36253.5375
1919.04543	36134.7375
1922.15534	36100.1375
1925.26322	36002.8375
1928.36908	35966.7375
1931.47292	35886.6375
1934.57473	35783.3375
1937.67453	35650.4375
1940.77232	35638.4375
1943.86808	35509.5375
1946.96184	35403.8375
1950.05358	35308.5375
1953.14331	35259.3375
1956.23103	35167.9375
1959.31675	35090.4375
1962.40046	34979.1375
1965.48217	34871.2375
1968.56188	34794.4375
1971.63959	34704.8375
1974.7153	34551.4375
1977.78901	34435.4375
1980.86073	34372.6375
1983.93046	34326.9375
1986.99819	34189.7375
1990.06394	34142.2375
1993.1277	34035.6375
1996.18947	33936.8375
1999.24925	33805.8375
2002.30706	33683.5375
2005.36288	33601.2375
2008.41672	33584.3375
2011.46859	33467.7375
2014.51848	33424.6375
2017.56639	33352.2375
2020.61233	33245.7375
2023.6563	33240.2375
2026.6983	33143.0375
2029.73833	33086.9375
2032.7764	33019.6375
2035.8125	32893.5375
2038.84664	32811.2375
2041.87881	32780.4375
2044.90903	32729.2375
2047.93729	32688.6375
2050.96359	32658.7375
2053.98794	32625.8375
2057.01034	32613.1375
2060.03078	32571.0375
2063.04927	32524.6375
2066.06582	32561.5375
2069.08042	32485.4375
2072.09307	32521.5375
2075.10378	32489.6375
2078.11255	32424.2375
2081.11938	32433.4375
2084.12426	32372.2375
2087.12722	32409.0375
2090.12824	32383.3375
2093.12732	32411.3375
2096.12447	32440.9375
2099.11969	32362.0375
2102.11299	32410.2375
2105.10435	32420.9375
2108.09379	32526.5375
2111.08131	32515.5375
2114.0669	32500.8375
2117.05057	32461.3375
2120.03233	32531.5375
2123.01216	32503.9375
2125.99008	32558.7375
2128.96609	32600.0375
2131.94018	32565.0375
2134.91236	32586.6375
2137.88263	32595.5375
2140.851	32642.9375
2143.81746	32651.8375
2146.78201	32642.3375
2149.74466	32646.6375
2152.7054	32683.7375
2155.66425	32660.4375
2158.6212	32712.9375
2161.57625	32640.3375
2164.52941	32669.5375
2167.48067	32688.7375
2170.43004	32672.6375
2173.37752	32642.6375
2176.32311	32635.6375
2179.26681	32589.5375
2182.20863	32585.6375
2185.14856	32617.2375
2188.08661	32632.8375
2191.02278	32633.3375
2193.95707	32586.6375
2196.88948	32550.0375
2199.82001	32530.4375
2202.74867	32496.5375
2205.67545	32474.6375
2208.60037	32410.4375
2211.52341	32374.2375
2214.44458	32345.1375
2217.36388	32312.7375
2220.28132	32244.9375
2223.1969	32223.5375
2226.11061	32184.8375
2229.02246	32054.9375
2231.93245	32043.3375
2234.84058	31958.5375
2237.74686	31939.1375
2240.65128	31922.5375
2243.55385	31853.3375
2246.45456	31813.2375
2249.35343	31810.2375
2252.25044	31732.4375
2255.14561	31640.4375
2258.03893	31629.0375
2260.93041	31603.2375
2263.82004	31526.4375
2266.70783	31444.6375
2269.59378	31321.8375
2272.4779	31292.9375
2275.36017	31176.3375
2278.24061	31136.2375
2281.11922	31044.5375
2283.996	31034.5375
2286.87094	31029.2375
2289.74405	30974.8375
2292.61534	30922.5375
2295.4848	30864.9375
2298.35243	30871.1375
2301.21824	30826.8375
2304.08223	30827.7375
2306.94439	30835.4375
2309.80474	30815.1375
2312.66327	30783.7375
2315.51999	30739.5375
2318.37489	30747.9375
2321.22797	30697.4375
2324.07925	30677.1375
2326.92871	30648.0375
2329.77637	30558.7375
2332.62222	30601.5375
2335.46626	30558.5375
2338.3085	30512.1375
2341.14893	30518.1375
2343.98756	30518.6375
2346.8244	30471.3375
2349.65943	30465.6375
2352.49267	30448.5375
2355.32411	30446.2375
2358.15376	30404.8375
2360.98161	30421.2375
2363.80768	30346.3375
2366.63195	30379.5375
2369.45444	30317.6375
2372.27514	30274.6375
2375.09405	30298.8375
2377.91118	30210.6375
2380.72652	30186.7375
2383.54009	30134.7375
2386.35187	30130.5375
2389.16188	30033.8375
2391.97011	29959.5375
2394.77657	29938.1375
2397.58125	29868.6375
2400.38416	29862.4375
2403.18529	29820.8375
2405.98466	29769.0375
2408.78226	29714.0375
2411.57809	29700.7375
2414.37216	29668.9375
2417.16446	29647.7375
2419.955	29595.1375
2422.74378	29612.9375
2425.5308	29587.8375
2428.31606	29529.1375
2431.09956	29505.5375
2433.88131	29499.3375
2436.6613	29498.3375
2439.43954	29475.9375
2442.21603	29435.9375
2444.99077	29426.3375
2447.76377	29426.1375
2450.53501	29410.7375
2453.30451	29432.4375
2456.07226	29372.9375
2458.83827	29360.6375
2461.60254	29332.8375
2464.36507	29276.7375
2467.12586	29293.3375
2469.88492	29304.6375
2472.64224	29288.7375
2475.39782	29258.6375
2478.15167	29308.0375
2480.90379	29285.1375
2483.65417	29309.1375
2486.40283	29257.3375
2489.14976	29228.9375
2491.89497	29225.0375
2494.63845	29249.5375
2497.3802	29242.0375
2500.12024	29275.5375
2502.85855	29247.8375
2505.59514	29250.1375
2508.33002	29260.8375
2511.06318	29205.2375
2513.79462	29159.2375
2516.52435	29148.5375
2519.25237	29119.9375
2521.97867	29122.0375
2524.70327	29113.9375
2527.42616	29082.4375
2530.14734	29076.1375
2532.86681	29019.5375
2535.58458	29016.5375
2538.30065	28987.6375
2541.01501	28991.8375
2543.72768	28996.1375
2546.43864	28945.4375
2549.14791	28875.0375
2551.85548	28893.9375
2554.56136	28796.1375
2557.26554	28796.3375
2559.96803	28773.2375
2562.66883	28760.8375
2565.36794	28716.5375
2568.06536	28701.4375
2570.7611	28708.5375
2573.45514	28646.3375
2576.14751	28649.3375
2578.83819	28601.9375
2581.52719	28573.5375
2584.21451	28517.6375
2586.90015	28552.8375
2589.58411	28455.0375
2592.2664	28437.3375
2594.94701	28419.3375
2597.62594	28425.7375
2600.30321	28360.9375
2602.9788	28366.5375
2605.65273	28311.1375
2608.32498	28309.6375
2610.99557	28239.2375
2613.66449	28254.0375
2616.33175	28230.0375
2618.99734	28252.3375
2621.66128	28187.5375
2624.32355	28188.5375
2626.98416	28156.4375
2629.64311	28150.7375
2632.30041	28112.6375
2634.95605	28080.1375
2637.61004	28038.2375
2640.26238	28100.6375
2642.91306	28021.9375
2645.56209	28068.6375
2648.20948	28062.6375
2650.85521	28051.1375
2653.4993	28035.2375
2656.14175	28039.5375
2658.78255	28085.5375
2661.42171	28079.4375
2664.05923	28077.4375
2666.6951	28142.9375
2669.32934	28100.9375
2671.96194	28070.0375
2674.59291	28113.4375
2677.22224	28097.5375
2679.84993	28103.7375
2682.476	28038.1375
2685.10043	28060.1375
2687.72324	28048.1375
2690.34441	28066.6375
2692.96396	28121.5375
2695.58188	28109.6375
2698.19818	28112.2375
2700.81285	28080.9375
2703.4259	28074.1375
2706.03733	28178.9375
2708.64714	28149.7375
2711.25533	28199.3375
2713.86191	28196.1375
2716.46687	28213.6375
2719.07021	28184.7375
2721.67194	28179.9375
2724.27206	28163.2375
2726.87057	28195.4375
2729.46747	28236.0375
2732.06276	28221.0375
2734.65644	28243.7375
2737.24852	28280.2375
2739.83899	28215.6375
2742.42786	28242.2375
2745.01513	28198.3375
2747.60079	28229.0375
2750.18486	28168.9375
2752.76733	28190.4375
2755.3482	28189.1375
2757.92747	28162.4375
2760.50515	28137.7375
2763.08123	28084.9375
2765.65573	28030.3375
2768.22863	28015.7375
2770.79994	28000.0375
2773.36967	27973.1375
2775.9378	27984.1375
2778.50435	27904.3375
2781.06932	27907.6375
2783.6327	27909.2375
2786.1945	27895.6375
2788.75471	27834.7375
2791.31335	27813.7375
2793.87041	27767.9375
2796.42589	27664.8375
2798.97979	27661.4375
2801.53212	27626.1375
2804.08288	27631.8375
2806.63206	27541.4375
2809.17967	27487.1375
2811.72571	27373.2375
2814.27018	27380.9375
2816.81308	27311.3375
2819.35442	27287.5375
2821.89419	27238.2375
2824.43239	27199.9375
2826.96904	27157.3375
2829.50412	27141.1375
2832.03763	27076.8375
2834.56959	27104.6375
2837.1	27020.2375
2839.62884	26988.1375
2842.15613	26963.6375
2844.68186	26941.4375
2847.20604	26867.6375
2849.72867	26921.1375
2852.24974	26885.6375
2854.76927	26836.8375
2857.28724	26819.0375
2859.80367	26810.0375
2862.31855	26726.0375
2864.83189	26712.7375
2867.34368	26720.7375
2869.85393	26705.7375
2872.36264	26650.7375
2874.8698	26634.3375
2877.37543	26648.9375
2879.87952	26648.3375
2882.38207	26657.2375
2884.88308	26654.5375
2887.38256	26658.8375
2889.88051	26621.6375
2892.37692	26634.2375
2894.8718	26588.9375
2897.36515	26604.7375
2899.85698	26630.0375
2902.34727	26722.7375
2904.83604	26661.6375
2907.32328	26714.3375
2909.809	26724.3375
2912.29319	26796.0375
2914.77587	26729.2375
2917.25702	26728.9375
2919.73665	26708.2375
2922.21476	26728.0375
2924.69136	26704.7375
2927.16644	26695.6375
2929.64	26665.2375
2932.11205	26630.4375
2934.58258	26514.3375
2937.05161	26607.4375
2939.51912	26623.4375
2941.98513	26648.7375
2944.44962	26525.5375
2946.91261	26424.9375
2949.37409	26470.4375
2951.83407	26464.3375
2954.29254	26449.0375
2956.74951	26365.0375
2959.20498	26371.0375
2961.65895	26333.2375
2964.11142	26368.2375
2966.56239	26266.2375
2969.01186	26265.2375
2971.45984	26206.9375
2973.90632	26174.5375
2976.35131	26143.1375
2978.7948	26109.9375
2981.23681	26069.9375
2983.67732	26010.7375
2986.11635	25935.9375
2988.55388	25855.8375
2990.98993	25829.2375
2993.4245	25802.7375
2995.85758	25708.8375
2998.28917	25631.9375
3000.71928	25603.9375
3003.14791	25559.3375
3005.57506	25525.7375
3008.00073	25405.8375
3010.42493	25434.5375
3012.84764	25398.0375
3015.26888	25403.9375
3017.68865	25334.3375
3020.10694	25297.7375
3022.52376	25210.6375
3024.9391	25185.2375
3027.35298	25161.3375
3029.76539	25167.2375
3032.17632	25164.7375
3034.5858	25129.3375
3036.9938	25066.2375
3039.40034	25034.5375
3041.80542	25025.5375
3044.20903	24915.4375
3046.61118	24922.9375
3049.01187	24845.5375
3051.4111	24806.6375
3053.80888	24744.9375
3056.20519	24735.6375
3058.60005	24643.1375
3060.99345	24627.3375
3063.3854	24531.5375
3065.7759	24435.2375
3068.16494	24397.5375
3070.55254	24358.6375
3072.93868	24309.0375
3075.32338	24228.6375
3077.70662	24188.6375
3080.08842	24065.0375
3082.46878	24094.0375
3084.84769	24033.4375
3087.22515	24012.1375
3089.60118	24019.5375
3091.97576	24007.9375
3094.3489	23897.9375
3096.72061	23958.0375
3099.09087	23910.5375
3101.4597	23885.6375
3103.82709	23832.2375
3106.19305	23745.9375
3108.55757	23717.4375
3110.92066	23679.4375
3113.28232	23661.1375
3115.64255	23613.0375
3118.00134	23532.0375
3120.35871	23515.5375
3122.71466	23465.9375
3125.06917	23417.1375
3127.42226	23412.2375
3129.77393	23404.8375
3132.12417	23343.5375
3134.47299	23334.4375
3136.82039	23295.8375
3139.16636	23297.8375
3141.51092	23265.1375
3143.85406	23262.6375
3146.19579	23288.8375
3148.53609	23238.8375
3150.87499	23251.1375
3153.21246	23255.4375
3155.54853	23283.0375
3157.88318	23210.0375
3160.21642	23211.0375
3162.54826	23166.3375
3164.87868	23183.7375
3167.2077	23128.9375
3169.5353	23106.4375
3171.86151	23057.2375
3174.18631	23037.1375
3176.5097	23012.7375
3178.83169	22981.8375
3181.15228	22971.3375
3183.47147	22939.9375
3185.78926	22972.7375
3188.10565	22881.4375
3190.42065	22822.0375
3192.73424	22839.5375
3195.04645	22804.8375
3197.35725	22827.3375
3199.66667	22776.3375
3201.97469	22803.7375
3204.28132	22749.4375
3206.58656	22749.5375
3208.8904	22715.0375
3211.19287	22747.5375
3213.49394	22696.7375
3215.79363	22673.5375
3218.09193	22691.2375
3220.38884	22700.0375
3222.68438	22742.2375
3224.97853	22716.3375
3227.2713	22661.6375
3229.56269	22627.1375
3231.8527	22544.3375
3234.14133	22560.7375
3236.42858	22499.6375
3238.71446	22503.0375
3240.99896	22405.5375
3243.28209	22387.9375
3245.56384	22372.4375
3247.84423	22382.2375
3250.12324	22329.2375
3252.40088	22261.6375
3254.67715	22266.7375
3256.95205	22194.6375
3259.22558	22178.3375
3261.49775	22132.7375
3263.76855	22101.4375
3266.03799	22069.1375
3268.30606	22022.5375
3270.57277	21989.9375
3272.83812	21975.0375
3275.10211	21919.1375
3277.36474	21899.3375
3279.62601	21909.6375
3281.88593	21899.9375
3284.14448	21871.3375
3286.40168	21843.7375
3288.65753	21807.7375
3290.91202	21770.0375
3293.16516	21699.5375
3295.41695	21662.2375
3297.66738	21534.7375
3299.91647	21435.1375
3302.16421	21323.5375
3304.4106	21210.4375
3306.65564	21133.4375
3308.89933	20932.6375
3311.14169	20783.1375
3313.38269	20580.2375
3315.62236	20480.6375
3317.86068	20293.6375
3320.09766	20099.5375
3322.3333	19893.1375
3324.5676	19947.6375
3326.80056	19613.5375
3329.03219	19498.6375
3331.26248	5.2375
3333.49143	-1.0625
3335.71905	0.1375
