Data from AgNP_FTO_APTES_CRN_500uM_R6G_10uM_NaF_0.1M_Addition_RamanShift__38__20-47-58-260.txt Node

Date: Wed Dec 15 20:47:58 GMT 2021
User: TCL
Spectrometer: QEP01345
Trigger mode: 4
Integration Time (sec): 7.000000E0
Scans to average: 10
Electric dark correction enabled: true
Nonlinearity correction enabled: false
Boxcar width: 0
XAxis mode: Raman Shifts
Number of Pixels in Spectrum: 1044
>>>>>Begin Spectral Data<<<<<
46.04893	2.2125
50.45542	-1.9875
54.85868	-0.3875
59.25871	-1.7875
63.6555	30.3125
68.04907	34.2125
72.43941	35.1125
76.82654	38.1125
81.21044	42.8125
85.59113	39.6125
89.96862	45.1125
94.34289	40.8125
98.71396	46.4125
103.08183	49.7125
107.4465	50.9125
111.80798	50.4125
116.16626	53.3125
120.52136	51.8125
124.87327	54.1125
129.222	53.8125
133.56755	53.0125
137.90993	56.0125
142.24913	61.7125
146.58517	67.1125
150.91804	76.5125
155.24774	86.3125
159.57429	104.7125
163.89768	133.0125
168.21792	173.6125
172.53501	230.4125
176.84895	312.2125
181.15975	431.8125
185.46741	601.3125
189.77193	817.8125
194.07331	1100.5125
198.37157	1416.9125
202.6667	1735.0125
206.9587	2061.6125
211.24758	2391.7125
215.53334	2724.6125
219.81599	3106.3125
224.09553	3526.1125
228.37195	3994.8125
232.64527	4494.8125
236.91549	4998.4125
241.18261	5447.8125
245.44663	5790.6125
249.70755	6078.9125
253.96539	6301.0125
258.22014	6486.5125
262.4718	6675.0125
266.72039	6826.1125
270.96589	6895.4125
275.20832	6866.8125
279.44768	6802.7125
283.68397	6679.7125
287.91719	6614.7125
292.14735	6619.6125
296.37445	6766.2125
300.59849	7020.6125
304.81948	7366.1125
309.03742	7605.3125
313.25231	7642.8125
317.46415	7297.5125
321.67296	6727.1125
325.87872	6244.7125
330.08145	6026.2125
334.28114	5992.3125
338.47781	6088.3125
342.67145	6262.9125
346.86207	6581.6125
351.04966	6983.5125
355.23424	7476.6125
359.4158	7856.5125
363.59435	7991.1125
367.76989	8031.7125
371.94243	7989.7125
376.11196	7954.8125
380.27849	7899.4125
384.44203	7791.0125
388.60257	7647.4125
392.76012	7591.3125
396.91468	7641.8125
401.06626	7851.4125
405.21485	8004.6125
409.36047	7871.2125
413.50311	7462.1125
417.64277	7132.1125
421.77947	6959.7125
425.9132	6990.9125
430.04396	7043.9125
434.17176	7091.2125
438.2966	7124.9125
442.41849	7264.2125
446.53742	7470.5125
450.6534	7680.9125
454.76644	7808.1125
458.87653	7808.9125
462.98368	7676.7125
467.08789	7486.0125
471.18916	7307.7125
475.2875	7140.7125
479.38291	6975.9125
483.4754	6858.6125
487.56496	6762.8125
491.6516	6703.7125
495.73531	6681.4125
499.81612	6674.8125
503.89401	6754.3125
507.96899	6843.4125
512.04106	7010.8125
516.11023	7194.6125
520.1765	7357.0125
524.23987	7383.9125
528.30034	7272.2125
532.35792	7101.1125
536.41261	6896.7125
540.46441	6698.4125
544.51333	6617.2125
548.55936	6634.2125
552.60252	6760.6125
556.64279	6936.2125
560.6802	7032.9125
564.71473	7133.5125
568.7464	7445.6125
572.7752	7609.1125
576.80114	7344.2125
580.82422	6994.1125
584.84444	6853.0125
588.86181	6891.9125
592.87633	7030.3125
596.888	7156.6125
600.89682	7417.9125
604.9028	8253.1125
608.90594	10612.0125
612.90624	13761.3125
616.90371	13250.9125
620.89834	9144.6125
624.89015	7198.2125
628.87913	6777.0125
632.86528	6807.2125
636.84862	6927.7125
640.82913	6874.3125
644.80683	6617.7125
648.78172	6465.8125
652.75379	6546.7125
656.72306	6839.0125
660.68952	7188.2125
664.65319	7110.7125
668.61405	6749.0125
672.57211	6591.8125
676.52738	6610.4125
680.47986	6628.8125
684.42955	6568.0125
688.37646	6554.5125
692.32058	6594.0125
696.26192	6718.3125
700.20048	6821.5125
704.13626	6931.6125
708.06928	6907.1125
711.99952	6810.1125
715.927	6653.3125
719.85171	6607.8125
723.77365	6505.6125
727.69284	6397.3125
731.60928	6300.3125
735.52295	6264.2125
739.43388	6244.7125
743.34206	6267.9125
747.24749	6255.1125
751.15017	6252.4125
755.05012	6351.7125
758.94733	6694.3125
762.8418	7462.3125
766.73354	8761.5125
770.62254	10182.8125
774.50882	10944.1125
778.39237	10527.3125
782.27321	9042.0125
786.15132	7539.8125
790.02671	6660.8125
793.89938	6295.3125
797.76935	6132.3125
801.6366	6064.1125
805.50115	6011.3125
809.36299	5989.2125
813.22213	5936.5125
817.07857	5934.5125
820.93231	5941.3125
824.78336	5989.1125
828.63172	5999.2125
832.47738	6021.0125
836.32036	6015.6125
840.16066	5949.8125
843.99827	5880.5125
847.8332	5855.3125
851.66546	5834.4125
855.49504	5835.5125
859.32195	5815.9125
863.1462	5775.1125
866.96777	5723.8125
870.78668	5697.3125
874.60293	5711.1125
878.41652	5711.9125
882.22745	5735.9125
886.03573	5764.2125
889.84136	5728.2125
893.64433	5701.1125
897.44466	5687.0125
901.24235	5691.8125
905.0374	5672.3125
908.8298	5650.1125
912.61957	5635.1125
916.40671	5665.3125
920.19121	5689.6125
923.97308	5738.7125
927.75233	5824.8125
931.52895	5890.8125
935.30295	5816.7125
939.07433	5633.7125
942.84309	5466.8125
946.60924	5359.7125
950.37278	5292.7125
954.13371	5251.7125
957.89203	5230.7125
961.64774	5217.8125
965.40086	5184.3125
969.15137	5177.4125
972.89929	5159.2125
976.64461	5148.0125
980.38733	5122.4125
984.12747	5137.3125
987.86502	5163.3125
991.59999	5191.2125
995.33237	5224.6125
999.06217	5309.4125
1002.78939	5418.8125
1006.51404	5544.5125
1010.23611	5678.3125
1013.95561	5777.5125
1017.67255	5721.5125
1021.38692	5614.5125
1025.09872	5526.1125
1028.80796	5452.5125
1032.51465	5449.0125
1036.21877	5516.9125
1039.92035	5609.5125
1043.61937	5668.0125
1047.31584	5689.2125
1051.00976	5711.2125
1054.70114	5695.4125
1058.38998	5682.2125
1062.07627	5740.9125
1065.76003	5829.0125
1069.44126	5987.3125
1073.11995	6207.1125
1076.79611	6454.7125
1080.46974	6584.5125
1084.14085	6661.5125
1087.80943	6652.0125
1091.47549	6576.4125
1095.13903	6325.6125
1098.80005	6018.3125
1102.45857	5829.3125
1106.11456	5752.4125
1109.76805	5829.5125
1113.41903	5978.6125
1117.06751	6198.1125
1120.71348	6494.8125
1124.35696	6848.3125
1127.99793	7131.7125
1131.63641	7085.6125
1135.2724	6679.2125
1138.90589	6320.0125
1142.5369	6089.6125
1146.16542	5926.0125
1149.79145	5860.4125
1153.415	5836.4125
1157.03607	5880.2125
1160.65467	6012.0125
1164.27079	6272.4125
1167.88443	6684.5125
1171.49561	7349.4125
1175.10432	8443.1125
1178.71056	9801.0125
1182.31434	10670.3125
1185.91565	10669.5125
1189.51451	10224.8125
1193.11091	9515.0125
1196.70485	8711.0125
1200.29634	8144.0125
1203.88538	7705.0125
1207.47197	7185.8125
1211.05612	6781.3125
1214.63782	6569.6125
1218.21708	6517.1125
1221.79391	6544.2125
1225.36829	6566.9125
1228.94024	6569.4125
1232.50976	6575.4125
1236.07685	6612.4125
1239.6415	6708.3125
1243.20374	6768.7125
1246.76355	6857.1125
1250.32093	6958.9125
1253.8759	7133.3125
1257.42845	7377.6125
1260.97859	7611.9125
1264.52631	7887.0125
1268.07163	8137.6125
1271.61453	8282.9125
1275.15503	8344.7125
1278.69312	8283.0125
1282.22882	8255.2125
1285.76211	8386.2125
1289.29301	8654.7125
1292.82151	8956.4125
1296.34761	9268.2125
1299.87133	9728.9125
1303.39266	10538.2125
1306.9116	11835.8125
1310.42815	13303.2125
1313.94233	14120.8125
1317.45412	13768.3125
1320.96354	12714.0125
1324.47058	11549.0125
1327.97525	10602.2125
1331.47754	9916.6125
1334.97747	9703.4125
1338.47502	9811.5125
1341.97022	10097.6125
1345.46305	10556.9125
1348.95352	11347.7125
1352.44163	12503.0125
1355.92738	14134.4125
1359.41078	16374.1125
1362.89183	18407.6125
1366.37053	17816.1125
1369.84688	14961.7125
1373.32088	12137.4125
1376.79254	10411.9125
1380.26186	9574.6125
1383.72883	9182.0125
1387.19347	8851.6125
1390.65578	8436.4125
1394.11575	7999.9125
1397.57339	7702.2125
1401.0287	7573.3125
1404.48168	7566.3125
1407.93234	7638.7125
1411.38068	7652.3125
1414.82669	7630.1125
1418.27039	7517.4125
1421.71177	7406.5125
1425.15083	7250.2125
1428.58758	7202.9125
1432.02203	7237.6125
1435.45416	7334.3125
1438.88399	7370.1125
1442.31151	7371.7125
1445.73673	7407.5125
1449.15965	7488.0125
1452.58027	7367.5125
1455.9986	7255.0125
1459.41463	7204.3125
1462.82837	7260.8125
1466.23982	7455.7125
1469.64898	7666.6125
1473.05586	7826.9125
1476.46045	7949.7125
1479.86276	8081.7125
1483.26279	8260.5125
1486.66054	8476.3125
1490.05602	8758.8125
1493.44922	9150.3125
1496.84016	9766.4125
1500.22882	10784.1125
1503.61521	12141.3125
1506.99934	13755.6125
1510.38121	15270.6125
1513.76081	15966.7125
1517.13816	15240.2125
1520.51324	13188.7125
1523.88607	11143.0125
1527.25665	9794.7125
1530.62498	9059.7125
1533.99105	8673.7125
1537.35488	8436.6125
1540.71647	8308.3125
1544.07581	8241.7125
1547.4329	8184.2125
1550.78776	8136.1125
1554.14038	8104.9125
1557.49077	8134.1125
1560.83892	8276.8125
1564.18484	8550.0125
1567.52853	8903.3125
1570.86999	9318.7125
1574.20922	9683.4125
1577.54624	9866.8125
1580.88103	9484.0125
1584.2136	8759.8125
1587.54395	8153.9125
1590.87208	7986.2125
1594.19801	8282.2125
1597.52172	8899.2125
1600.84321	9196.7125
1604.16251	8953.1125
1607.47959	8339.0125
1610.79447	7648.1125
1614.10715	6996.3125
1617.41763	6513.1125
1620.7259	6221.0125
1624.03199	6121.1125
1627.33587	6152.1125
1630.63757	6283.8125
1633.93707	6606.9125
1637.23439	7118.9125
1640.52951	7913.9125
1643.82246	9046.0125
1647.11321	10378.7125
1650.40179	11420.6125
1653.68819	11312.1125
1656.97241	9944.7125
1660.25446	8331.4125
1663.53433	7161.8125
1666.81203	6433.0125
1670.08756	5960.9125
1673.36092	5613.5125
1676.63211	5349.4125
1679.90115	5162.2125
1683.16801	5066.5125
1686.43272	5034.2125
1689.69527	5097.0125
1692.95567	5289.1125
1696.2139	5677.7125
1699.46999	6032.3125
1702.72392	6034.2125
1705.97571	5669.4125
1709.22535	5229.7125
1712.47284	4932.0125
1715.71819	4784.2125
1718.96139	4692.9125
1722.20246	4640.7125
1725.44139	4590.5125
1728.67818	4545.3125
1731.91284	4488.0125
1735.14537	4462.8125
1738.37576	4464.4125
1741.60403	4464.2125
1744.83017	4494.8125
1748.05418	4551.3125
1751.27607	4648.8125
1754.49584	4849.2125
1757.71349	5068.3125
1760.92903	5201.8125
1764.14244	5157.7125
1767.35375	5128.3125
1770.56294	5121.7125
1773.77002	4982.5125
1776.97499	4734.4125
1780.17785	4487.7125
1783.37861	4341.1125
1786.57727	4246.7125
1789.77382	4179.2125
1792.96828	4138.3125
1796.16064	4114.2125
1799.3509	4089.2125
1802.53907	4069.6125
1805.72514	4053.2125
1808.90913	4024.4125
1812.09102	4011.4125
1815.27083	3999.6125
1818.44856	3982.6125
1821.6242	3964.1125
1824.79776	3955.3125
1827.96924	3941.3125
1831.13864	3934.2125
1834.30597	3934.9125
1837.47122	3911.5125
1840.6344	3910.7125
1843.7955	3900.6125
1846.95454	3894.5125
1850.11151	3886.9125
1853.26642	3879.9125
1856.41926	3879.7125
1859.57004	3889.1125
1862.71876	3874.4125
1865.86542	3881.5125
1869.01003	3876.0125
1872.15258	3855.6125
1875.29308	3872.0125
1878.43152	3855.4125
1881.56792	3873.7125
1884.70227	3955.8125
1887.83457	3872.5125
1890.96482	3855.0125
1894.09304	3845.5125
1897.21921	3860.3125
1900.34335	3839.0125
1903.46544	3836.2125
1906.58551	3828.9125
1909.70353	3830.9125
1912.81953	3837.1125
1915.93349	3824.1125
1919.04543	3820.1125
1922.15534	3793.1125
1925.26322	3791.3125
1928.36908	3791.0125
1931.47292	3779.4125
1934.57473	3758.2125
1937.67453	3741.4125
1940.77232	3722.4125
1943.86808	3708.9125
1946.96184	3694.2125
1950.05358	3704.0125
1953.14331	3689.6125
1956.23103	3667.7125
1959.31675	3652.4125
1962.40046	3638.3125
1965.48217	3639.3125
1968.56188	3628.9125
1971.63959	3612.0125
1974.7153	3600.2125
1977.78901	3597.5125
1980.86073	3583.7125
1983.93046	3568.8125
1986.99819	3548.5125
1990.06394	3537.8125
1993.1277	3515.9125
1996.18947	3518.4125
1999.24925	3511.2125
2002.30706	3484.3125
2005.36288	3476.5125
2008.41672	3469.7125
2011.46859	3441.9125
2014.51848	3443.2125
2017.56639	3441.5125
2020.61233	3416.3125
2023.6563	3416.9125
2026.6983	3415.1125
2029.73833	3396.6125
2032.7764	3392.0125
2035.8125	3384.5125
2038.84664	3364.1125
2041.87881	3362.2125
2044.90903	3360.3125
2047.93729	3356.6125
2050.96359	3348.4125
2053.98794	3355.3125
2057.01034	3344.9125
2060.03078	3325.4125
2063.04927	3329.7125
2066.06582	3318.6125
2069.08042	3310.0125
2072.09307	3304.3125
2075.10378	3306.7125
2078.11255	3291.9125
2081.11938	3296.7125
2084.12426	3301.5125
2087.12722	3283.7125
2090.12824	3294.1125
2093.12732	3291.3125
2096.12447	3293.3125
2099.11969	3284.6125
2102.11299	3290.2125
2105.10435	3294.2125
2108.09379	3300.8125
2111.08131	3288.8125
2114.0669	3289.1125
2117.05057	3291.9125
2120.03233	3291.5125
2123.01216	3291.4125
2125.99008	3298.3125
2128.96609	3289.2125
2131.94018	3294.4125
2134.91236	3292.7125
2137.88263	3286.6125
2140.851	3285.2125
2143.81746	3303.0125
2146.78201	3285.7125
2149.74466	3287.6125
2152.7054	3283.5125
2155.66425	3300.2125
2158.6212	3279.3125
2161.57625	3285.4125
2164.52941	3266.5125
2167.48067	3268.6125
2170.43004	3262.0125
2173.37752	3266.7125
2176.32311	3258.0125
2179.26681	3259.8125
2182.20863	3259.6125
2185.14856	3260.6125
2188.08661	3239.7125
2191.02278	3248.7125
2193.95707	3222.6125
2196.88948	3227.1125
2199.82001	3223.5125
2202.74867	3234.7125
2205.67545	3216.9125
2208.60037	3217.6125
2211.52341	3209.1125
2214.44458	3208.4125
2217.36388	3193.9125
2220.28132	3188.0125
2223.1969	3177.6125
2226.11061	3164.8125
2229.02246	3162.6125
2231.93245	3148.4125
2234.84058	3139.2125
2237.74686	3143.6125
2240.65128	3140.4125
2243.55385	3131.4125
2246.45456	3133.2125
2249.35343	3133.4125
2252.25044	3123.8125
2255.14561	3126.9125
2258.03893	3167.9125
2260.93041	3254.4125
2263.82004	3184.7125
2266.70783	3136.3125
2269.59378	3118.0125
2272.4779	3098.3125
2275.36017	3080.8125
2278.24061	3063.8125
2281.11922	3065.5125
2283.996	3050.6125
2286.87094	3048.2125
2289.74405	3039.1125
2292.61534	3028.2125
2295.4848	3019.4125
2298.35243	3028.6125
2301.21824	3005.3125
2304.08223	3003.2125
2306.94439	3004.7125
2309.80474	3001.3125
2312.66327	3007.4125
2315.51999	3000.2125
2318.37489	2997.2125
2321.22797	3007.0125
2324.07925	3005.1125
2326.92871	3000.3125
2329.77637	3002.8125
2332.62222	3007.1125
2335.46626	2998.4125
2338.3085	2994.7125
2341.14893	2994.6125
2343.98756	2998.2125
2346.8244	2983.3125
2349.65943	2979.7125
2352.49267	2987.2125
2355.32411	2976.0125
2358.15376	2994.2125
2360.98161	2978.8125
2363.80768	2983.1125
2366.63195	2974.4125
2369.45444	2989.2125
2372.27514	2982.9125
2375.09405	2976.0125
2377.91118	2972.7125
2380.72652	2955.1125
2383.54009	2932.8125
2386.35187	2933.3125
2389.16188	2908.2125
2391.97011	2915.0125
2394.77657	2894.7125
2397.58125	2889.2125
2400.38416	2881.7125
2403.18529	2890.1125
2405.98466	2872.2125
2408.78226	2857.6125
2411.57809	2877.7125
2414.37216	2857.7125
2417.16446	2852.5125
2419.955	2856.9125
2422.74378	2837.1125
2425.5308	2826.5125
2428.31606	2835.9125
2431.09956	2838.7125
2433.88131	2835.1125
2436.6613	2834.3125
2439.43954	2819.4125
2442.21603	2836.1125
2444.99077	2824.0125
2447.76377	2823.4125
2450.53501	2822.9125
2453.30451	2823.9125
2456.07226	2811.2125
2458.83827	2814.1125
2461.60254	2810.4125
2464.36507	2799.8125
2467.12586	2801.9125
2469.88492	2799.4125
2472.64224	2811.6125
2475.39782	2878.4125
2478.15167	2907.8125
2480.90379	2850.0125
2483.65417	2840.6125
2486.40283	2838.6125
2489.14976	2848.0125
2491.89497	2846.4125
2494.63845	2937.7125
2497.3802	2937.8125
2500.12024	2866.7125
2502.85855	2825.8125
2505.59514	2827.3125
2508.33002	2786.7125
2511.06318	2774.5125
2513.79462	2769.2125
2516.52435	2762.9125
2519.25237	2752.2125
2521.97867	2732.3125
2524.70327	2735.5125
2527.42616	2727.2125
2530.14734	2711.1125
2532.86681	2720.4125
2535.58458	2714.4125
2538.30065	2714.1125
2541.01501	2704.8125
2543.72768	2722.8125
2546.43864	2695.6125
2549.14791	2707.1125
2551.85548	2687.2125
2554.56136	2701.3125
2557.26554	2672.7125
2559.96803	2686.5125
2562.66883	2687.9125
2565.36794	2681.6125
2568.06536	2677.3125
2570.7611	2682.1125
2573.45514	2666.3125
2576.14751	2663.6125
2578.83819	2647.5125
2581.52719	2649.6125
2584.21451	2631.3125
2586.90015	2634.1125
2589.58411	2625.3125
2592.2664	2622.5125
2594.94701	2626.4125
2597.62594	2614.9125
2600.30321	2621.6125
2602.9788	2613.3125
2605.65273	2607.8125
2608.32498	2615.0125
2610.99557	2602.8125
2613.66449	2609.2125
2616.33175	2598.8125
2618.99734	2606.1125
2621.66128	2603.0125
2624.32355	2605.6125
2626.98416	2603.2125
2629.64311	2588.3125
2632.30041	2572.5125
2634.95605	2568.0125
2637.61004	2570.9125
2640.26238	2560.6125
2642.91306	2555.3125
2645.56209	2566.1125
2648.20948	2597.9125
2650.85521	2570.2125
2653.4993	2559.5125
2656.14175	2555.8125
2658.78255	2563.1125
2661.42171	2557.3125
2664.05923	2567.9125
2666.6951	2567.0125
2669.32934	2574.8125
2671.96194	2565.5125
2674.59291	2564.1125
2677.22224	2569.3125
2679.84993	2572.5125
2682.476	2579.6125
2685.10043	2575.3125
2687.72324	2570.9125
2690.34441	2577.9125
2692.96396	2585.3125
2695.58188	2568.2125
2698.19818	2566.2125
2700.81285	2594.2125
2703.4259	2794.0125
2706.03733	3150.7125
2708.64714	2894.5125
2711.25533	2762.7125
2713.86191	2689.1125
2716.46687	2679.6125
2719.07021	2635.6125
2721.67194	2613.6125
2724.27206	2599.5125
2726.87057	2602.8125
2729.46747	2592.5125
2732.06276	2574.4125
2734.65644	2586.1125
2737.24852	2570.0125
2739.83899	2573.2125
2742.42786	2569.3125
2745.01513	2561.2125
2747.60079	2567.0125
2750.18486	2547.9125
2752.76733	2543.9125
2755.3482	2537.7125
2757.92747	2545.9125
2760.50515	2535.8125
2763.08123	2537.7125
2765.65573	2522.1125
2768.22863	2522.8125
2770.79994	2525.2125
2773.36967	2518.0125
2775.9378	2527.2125
2778.50435	2509.4125
2781.06932	2506.4125
2783.6327	2517.8125
2786.1945	2518.0125
2788.75471	2523.2125
2791.31335	2522.7125
2793.87041	2519.6125
2796.42589	2508.3125
2798.97979	2526.9125
2801.53212	2525.8125
2804.08288	2522.6125
2806.63206	2525.2125
2809.17967	2507.6125
2811.72571	2519.5125
2814.27018	2542.4125
2816.81308	2532.4125
2819.35442	2535.4125
2821.89419	2537.6125
2824.43239	2528.1125
2826.96904	2533.8125
2829.50412	2538.7125
2832.03763	2549.9125
2834.56959	2554.5125
2837.1	2566.4125
2839.62884	2580.4125
2842.15613	2605.2125
2844.68186	2648.2125
2847.20604	2700.2125
2849.72867	2737.6125
2852.24974	2755.6125
2854.76927	2849.7125
2857.28724	2923.4125
2859.80367	2817.9125
2862.31855	2773.7125
2864.83189	2759.2125
2867.34368	2743.5125
2869.85393	2726.8125
2872.36264	2704.2125
2874.8698	2695.2125
2877.37543	2697.1125
2879.87952	2688.2125
2882.38207	2696.0125
2884.88308	2691.4125
2887.38256	2680.3125
2889.88051	2689.8125
2892.37692	2692.1125
2894.8718	2689.1125
2897.36515	2696.9125
2899.85698	2695.0125
2902.34727	2701.6125
2904.83604	2713.6125
2907.32328	2705.3125
2909.809	2705.8125
2912.29319	2708.6125
2914.77587	2710.0125
2917.25702	2687.6125
2919.73665	2687.9125
2922.21476	2684.9125
2924.69136	2679.1125
2927.16644	2687.1125
2929.64	2669.0125
2932.11205	2658.5125
2934.58258	2641.8125
2937.05161	2632.5125
2939.51912	2610.9125
2941.98513	2598.3125
2944.44962	2552.5125
2946.91261	2526.8125
2949.37409	2510.0125
2951.83407	2495.2125
2954.29254	2466.5125
2956.74951	2449.9125
2959.20498	2444.4125
2961.65895	2433.4125
2964.11142	2430.1125
2966.56239	2413.0125
2969.01186	2415.5125
2971.45984	2407.0125
2973.90632	2403.9125
2976.35131	2381.0125
2978.7948	2372.6125
2981.23681	2365.7125
2983.67732	2354.9125
2986.11635	2341.3125
2988.55388	2336.6125
2990.98993	2326.9125
2993.4245	2336.3125
2995.85758	2326.5125
2998.28917	2321.6125
3000.71928	2308.0125
3003.14791	2307.2125
3005.57506	2304.5125
3008.00073	2299.3125
3010.42493	2288.2125
3012.84764	2300.6125
3015.26888	2291.9125
3017.68865	2281.1125
3020.10694	2285.5125
3022.52376	2278.8125
3024.9391	2266.7125
3027.35298	2274.2125
3029.76539	2272.3125
3032.17632	2263.4125
3034.5858	2266.2125
3036.9938	2252.6125
3039.40034	2255.9125
3041.80542	2255.3125
3044.20903	2245.0125
3046.61118	2248.4125
3049.01187	2245.4125
3051.4111	2241.6125
3053.80888	2245.6125
3056.20519	2235.6125
3058.60005	2240.8125
3060.99345	2223.3125
3063.3854	2222.5125
3065.7759	2232.0125
3068.16494	2235.3125
3070.55254	2229.9125
3072.93868	2230.5125
3075.32338	2220.5125
3077.70662	2222.4125
3080.08842	2214.0125
3082.46878	2202.8125
3084.84769	2182.5125
3087.22515	2205.6125
3089.60118	2196.7125
3091.97576	2199.0125
3094.3489	2202.2125
3096.72061	2199.0125
3099.09087	2185.7125
3101.4597	2178.4125
3103.82709	2184.4125
3106.19305	2179.4125
3108.55757	2177.2125
3110.92066	2172.8125
3113.28232	2179.5125
3115.64255	2172.9125
3118.00134	2176.5125
3120.35871	2185.1125
3122.71466	2174.5125
3125.06917	2174.2125
3127.42226	2164.9125
3129.77393	2182.3125
3132.12417	2176.5125
3134.47299	2187.8125
3136.82039	2187.3125
3139.16636	2193.7125
3141.51092	2196.0125
3143.85406	2202.7125
3146.19579	2200.6125
3148.53609	2210.3125
3150.87499	2214.3125
3153.21246	2214.5125
3155.54853	2226.4125
3157.88318	2221.1125
3160.21642	2228.2125
3162.54826	2234.4125
3164.87868	2231.4125
3167.2077	2232.4125
3169.5353	2218.6125
3171.86151	2240.5125
3174.18631	2224.6125
3176.5097	2243.4125
3178.83169	2220.1125
3181.15228	2235.0125
3183.47147	2244.6125
3185.78926	2245.5125
3188.10565	2248.0125
3190.42065	2235.0125
3192.73424	2250.1125
3195.04645	2252.9125
3197.35725	2255.7125
3199.66667	2265.5125
3201.97469	2262.5125
3204.28132	2265.1125
3206.58656	2280.0125
3208.8904	2278.7125
3211.19287	2287.1125
3213.49394	2279.6125
3215.79363	2277.9125
3218.09193	2291.6125
3220.38884	2377.0125
3222.68438	2464.8125
3224.97853	2370.7125
3227.2713	2332.7125
3229.56269	2316.6125
3231.8527	2311.8125
3234.14133	2305.2125
3236.42858	2293.4125
3238.71446	2290.0125
3240.99896	2266.5125
3243.28209	2275.9125
3245.56384	2273.7125
3247.84423	2277.4125
3250.12324	2263.9125
3252.40088	2271.4125
3254.67715	2270.2125
3256.95205	2259.3125
3259.22558	2274.1125
3261.49775	2275.9125
3263.76855	2261.0125
3266.03799	2250.4125
3268.30606	2236.6125
3270.57277	2247.1125
3272.83812	2241.0125
3275.10211	2245.2125
3277.36474	2251.9125
3279.62601	2242.4125
3281.88593	2242.0125
3284.14448	2244.7125
3286.40168	2250.1125
3288.65753	2238.6125
3290.91202	2240.1125
3293.16516	2231.7125
3295.41695	2234.4125
3297.66738	2215.7125
3299.91647	2212.4125
3302.16421	2190.4125
3304.4106	2189.7125
3306.65564	2170.0125
3308.89933	2172.2125
3311.14169	2179.5125
3313.38269	2222.2125
3315.62236	2163.4125
3317.86068	2131.2125
3320.09766	2096.3125
3322.3333	2090.9125
3324.5676	2148.3125
3326.80056	2216.1125
3329.03219	2135.9125
3331.26248	1.8125
3333.49143	-0.3875
3335.71905	-0.1875
