Data from AgNP_FTO_APTES_CRN_1000uM_R6G_10uM_NaF_0.1M_Addition_RamanShift__22__21-15-58-292.txt Node

Date: Wed Dec 15 21:15:58 GMT 2021
User: TCL
Spectrometer: QEP01345
Trigger mode: 4
Integration Time (sec): 7.000000E0
Scans to average: 10
Electric dark correction enabled: true
Nonlinearity correction enabled: false
Boxcar width: 0
XAxis mode: Raman Shifts
Number of Pixels in Spectrum: 1044
>>>>>Begin Spectral Data<<<<<
46.04893	1.0375
50.45542	-1.8625
54.85868	-0.6625
59.25871	-0.1625
63.6555	55.6375
68.04907	61.1375
72.43941	62.0375
76.82654	67.7375
81.21044	70.6375
85.59113	69.6375
89.96862	78.0375
94.34289	74.2375
98.71396	80.9375
103.08183	83.5375
107.4465	88.9375
111.80798	89.3375
116.16626	91.5375
120.52136	98.7375
124.87327	94.7375
129.222	102.0375
133.56755	105.2375
137.90993	116.3375
142.24913	127.6375
146.58517	143.2375
150.91804	166.7375
155.24774	197.5375
159.57429	245.6375
163.89768	314.3375
168.21792	409.3375
172.53501	557.6375
176.84895	775.6375
181.15975	1085.2375
185.46741	1519.8375
189.77193	2093.9375
194.07331	2810.1375
198.37157	3622.6375
202.6667	4489.6375
206.9587	5347.0375
211.24758	6181.9375
215.53334	7026.5375
219.81599	7901.4375
224.09553	8889.2375
228.37195	9933.3375
232.64527	11047.3375
236.91549	12252.1375
241.18261	13438.7375
245.44663	14551.5375
249.70755	15559.7375
253.96539	16460.8375
258.22014	17197.2375
262.4718	17789.9375
266.72039	18225.1375
270.96589	18437.2375
275.20832	18438.7375
279.44768	18326.9375
283.68397	18132.4375
287.91719	17942.1375
292.14735	17808.7375
296.37445	17752.5375
300.59849	17731.0375
304.81948	17720.4375
309.03742	17600.6375
313.25231	17428.1375
317.46415	17168.7375
321.67296	16873.9375
325.87872	16663.0375
330.08145	16598.6375
334.28114	16683.5375
338.47781	16819.7375
342.67145	16992.3375
346.86207	17243.2375
351.04966	17545.2375
355.23424	17811.9375
359.4158	18080.8375
363.59435	18267.7375
367.76989	18432.1375
371.94243	18540.9375
376.11196	18639.3375
380.27849	18753.4375
384.44203	18890.3375
388.60257	19039.3375
392.76012	19148.0375
396.91468	19301.2375
401.06626	19524.0375
405.21485	19704.9375
409.36047	19727.6375
413.50311	19598.9375
417.64277	19432.0375
421.77947	19419.4375
425.9132	19517.4375
430.04396	19701.6375
434.17176	19915.5375
438.2966	20193.2375
442.41849	20666.4375
446.53742	21265.4375
450.6534	21803.2375
454.76644	22235.8375
458.87653	22339.6375
462.98368	22137.4375
467.08789	21924.1375
471.18916	21679.8375
475.2875	21565.0375
479.38291	21470.8375
483.4754	21344.1375
487.56496	21095.7375
491.6516	20792.2375
495.73531	20563.8375
499.81612	20493.6375
503.89401	20596.9375
507.96899	20652.1375
512.04106	20781.1375
516.11023	20934.3375
520.1765	21040.5375
524.23987	21054.3375
528.30034	21046.5375
532.35792	20872.0375
536.41261	20667.6375
540.46441	20505.8375
544.51333	20455.2375
548.55936	20571.7375
552.60252	20879.9375
556.64279	21243.8375
560.6802	21546.3375
564.71473	21704.5375
568.7464	21922.3375
572.7752	22166.5375
576.80114	22301.6375
580.82422	22268.8375
584.84444	22408.4375
588.86181	22833.1375
592.87633	23508.9375
596.888	23845.9375
600.89682	23673.1375
604.9028	23796.6375
608.90594	24752.8375
612.90624	25928.5375
616.90371	24865.6375
620.89834	22099.1375
624.89015	20874.8375
628.87913	20695.0375
632.86528	20808.2375
636.84862	20906.9375
640.82913	20797.9375
644.80683	20508.6375
648.78172	20298.2375
652.75379	20276.2375
656.72306	20376.3375
660.68952	20556.7375
664.65319	20524.2375
668.61405	20386.9375
672.57211	20430.0375
676.52738	20540.5375
680.47986	20661.8375
684.42955	20609.1375
688.37646	20554.8375
692.32058	20556.5375
696.26192	20616.8375
700.20048	20708.5375
704.13626	20772.2375
708.06928	20710.8375
711.99952	20552.3375
715.927	20388.3375
719.85171	20346.0375
723.77365	20204.4375
727.69284	20033.8375
731.60928	19868.6375
735.52295	19790.5375
739.43388	19766.0375
743.34206	19748.6375
747.24749	19718.7375
751.15017	19769.8375
755.05012	19883.5375
758.94733	20189.2375
762.8418	20820.3375
766.73354	21775.7375
770.62254	22724.1375
774.50882	22974.4375
778.39237	22248.3375
782.27321	21030.9375
786.15132	20023.1375
790.02671	19441.6375
793.89938	19124.9375
797.76935	19024.4375
801.6366	19028.2375
805.50115	19006.7375
809.36299	18966.7375
813.22213	18849.9375
817.07857	18861.8375
820.93231	18828.7375
824.78336	18784.0375
828.63172	18778.2375
832.47738	18766.4375
836.32036	18787.0375
840.16066	18772.3375
843.99827	18739.6375
847.8332	18689.9375
851.66546	18690.6375
855.49504	18687.5375
859.32195	18771.0375
863.1462	18792.8375
866.96777	18797.3375
870.78668	18672.4375
874.60293	18622.6375
878.41652	18588.9375
882.22745	18591.1375
886.03573	18619.6375
889.84136	18585.6375
893.64433	18533.9375
897.44466	18509.9375
901.24235	18442.1375
905.0374	18339.2375
908.8298	18321.5375
912.61957	18340.6375
916.40671	18455.5375
920.19121	18579.2375
923.97308	18662.7375
927.75233	18766.3375
931.52895	18771.5375
935.30295	18680.1375
939.07433	18447.9375
942.84309	18215.3375
946.60924	18086.5375
950.37278	17976.8375
954.13371	17920.1375
957.89203	17890.6375
961.64774	17850.5375
965.40086	17835.0375
969.15137	17731.9375
972.89929	17636.1375
976.64461	17605.8375
980.38733	17551.8375
984.12747	17609.1375
987.86502	17715.7375
991.59999	17819.7375
995.33237	17990.4375
999.06217	18271.0375
1002.78939	18598.8375
1006.51404	18791.7375
1010.23611	18981.1375
1013.95561	19121.3375
1017.67255	19104.6375
1021.38692	18930.1375
1025.09872	18730.1375
1028.80796	18622.8375
1032.51465	18731.3375
1036.21877	18875.2375
1039.92035	18896.9375
1043.61937	18935.1375
1047.31584	18881.0375
1051.00976	18843.8375
1054.70114	18893.8375
1058.38998	19045.7375
1062.07627	19294.9375
1065.76003	19756.4375
1069.44126	20388.4375
1073.11995	21194.1375
1076.79611	21859.5375
1080.46974	21886.8375
1084.14085	21308.3375
1087.80943	20556.9375
1091.47549	20074.2375
1095.13903	19659.3375
1098.80005	19336.3375
1102.45857	19004.3375
1106.11456	18842.2375
1109.76805	18753.8375
1113.41903	18815.8375
1117.06751	18939.7375
1120.71348	19105.0375
1124.35696	19252.9375
1127.99793	19446.4375
1131.63641	19611.3375
1135.2724	19576.0375
1138.90589	19430.0375
1142.5369	19304.4375
1146.16542	19258.5375
1149.79145	19278.1375
1153.415	19380.6375
1157.03607	19544.4375
1160.65467	19917.4375
1164.27079	20460.3375
1167.88443	21277.8375
1171.49561	22390.6375
1175.10432	23831.7375
1178.71056	25432.9375
1182.31434	26724.0375
1185.91565	27076.7375
1189.51451	26707.8375
1193.11091	25961.1375
1196.70485	25161.2375
1200.29634	24415.5375
1203.88538	23819.9375
1207.47197	23384.7375
1211.05612	23022.7375
1214.63782	22760.2375
1218.21708	22611.3375
1221.79391	22498.7375
1225.36829	22376.2375
1228.94024	22153.2375
1232.50976	21782.8375
1236.07685	21552.1375
1239.6415	21486.6375
1243.20374	21561.0375
1246.76355	21668.9375
1250.32093	21849.7375
1253.8759	22109.4375
1257.42845	22534.1375
1260.97859	22898.9375
1264.52631	23243.9375
1268.07163	23594.7375
1271.61453	24047.4375
1275.15503	24433.5375
1278.69312	24813.7375
1282.22882	25224.7375
1285.76211	25725.4375
1289.29301	26413.8375
1292.82151	27319.7375
1296.34761	28399.9375
1299.87133	29744.1375
1303.39266	31107.0375
1306.9116	32641.7375
1310.42815	34184.3375
1313.94233	35272.0375
1317.45412	35555.9375
1320.96354	35184.4375
1324.47058	34471.2375
1327.97525	33784.2375
1331.47754	33310.8375
1334.97747	33138.2375
1338.47502	33262.5375
1341.97022	33238.3375
1345.46305	32976.9375
1348.95352	32605.5375
1352.44163	32556.2375
1355.92738	33113.7375
1359.41078	34201.3375
1362.89183	35345.2375
1366.37053	35058.3375
1369.84688	32872.4375
1373.32088	30044.5375
1376.79254	28065.3375
1380.26186	27246.5375
1383.72883	27048.0375
1387.19347	26987.8375
1390.65578	26841.5375
1394.11575	26891.6375
1397.57339	27244.9375
1401.0287	27775.6375
1404.48168	28309.1375
1407.93234	28555.3375
1411.38068	28369.6375
1414.82669	27756.3375
1418.27039	26804.7375
1421.71177	25739.9375
1425.15083	24849.8375
1428.58758	24349.2375
1432.02203	24351.4375
1435.45416	24719.0375
1438.88399	25188.6375
1442.31151	25555.9375
1445.73673	25828.6375
1449.15965	26182.5375
1452.58027	26438.8375
1455.9986	26547.9375
1459.41463	26636.5375
1462.82837	26872.0375
1466.23982	27289.2375
1469.64898	27694.9375
1473.05586	27889.7375
1476.46045	27905.8375
1479.86276	27743.2375
1483.26279	27463.2375
1486.66054	27211.6375
1490.05602	27093.1375
1493.44922	27015.4375
1496.84016	26829.0375
1500.22882	26764.2375
1503.61521	27060.5375
1506.99934	27624.5375
1510.38121	28232.7375
1513.76081	28486.3375
1517.13816	28005.9375
1520.51324	27162.6375
1523.88607	26400.8375
1527.25665	25959.1375
1530.62498	25908.3375
1533.99105	26019.5375
1537.35488	26027.0375
1540.71647	25976.7375
1544.07581	25724.5375
1547.4329	25440.4375
1550.78776	25093.5375
1554.14038	24831.3375
1557.49077	24733.9375
1560.83892	24718.7375
1564.18484	24808.7375
1567.52853	25142.5375
1570.86999	25783.4375
1574.20922	26812.9375
1577.54624	27958.9375
1580.88103	28665.4375
1584.2136	28613.7375
1587.54395	28133.2375
1590.87208	28076.1375
1594.19801	28597.0375
1597.52172	29590.4375
1600.84321	30077.2375
1604.16251	29273.7375
1607.47959	27526.7375
1610.79447	25430.2375
1614.10715	23507.5375
1617.41763	22032.1375
1620.7259	21032.2375
1624.03199	20484.4375
1627.33587	20437.2375
1630.63757	20806.2375
1633.93707	21668.0375
1637.23439	23162.8375
1640.52951	25280.2375
1643.82246	27747.5375
1647.11321	29669.1375
1650.40179	30094.3375
1653.68819	28516.9375
1656.97241	25579.5375
1660.25446	22764.1375
1663.53433	20544.1375
1666.81203	19145.2375
1670.08756	18257.7375
1673.36092	17650.3375
1676.63211	17301.2375
1679.90115	17000.5375
1683.16801	16789.7375
1686.43272	16609.9375
1689.69527	16492.1375
1692.95567	16401.5375
1696.2139	16374.6375
1699.46999	16334.0375
1702.72392	16309.8375
1705.97571	16237.1375
1709.22535	16192.8375
1712.47284	16147.4375
1715.71819	16101.7375
1718.96139	16062.2375
1722.20246	15967.2375
1725.44139	15886.5375
1728.67818	15791.4375
1731.91284	15679.0375
1735.14537	15632.3375
1738.37576	15573.6375
1741.60403	15541.5375
1744.83017	15512.9375
1748.05418	15497.7375
1751.27607	15459.8375
1754.49584	15464.5375
1757.71349	15412.3375
1760.92903	15398.9375
1764.14244	15328.8375
1767.35375	15297.7375
1770.56294	15277.7375
1773.77002	15264.7375
1776.97499	15217.5375
1780.17785	15177.9375
1783.37861	15168.7375
1786.57727	15137.4375
1789.77382	15049.3375
1792.96828	15048.6375
1796.16064	15000.9375
1799.3509	14972.0375
1802.53907	14958.2375
1805.72514	14939.2375
1808.90913	14833.1375
1812.09102	14851.0375
1815.27083	14781.0375
1818.44856	14751.1375
1821.6242	14762.3375
1824.79776	14731.2375
1827.96924	14725.2375
1831.13864	14697.3375
1834.30597	14737.9375
1837.47122	14677.1375
1840.6344	14696.0375
1843.7955	14665.1375
1846.95454	14657.0375
1850.11151	14639.5375
1853.26642	14649.8375
1856.41926	14601.1375
1859.57004	14603.5375
1862.71876	14595.0375
1865.86542	14613.7375
1869.01003	14617.4375
1872.15258	14567.5375
1875.29308	14578.3375
1878.43152	14559.6375
1881.56792	14581.6375
1884.70227	14562.1375
1887.83457	14550.2375
1890.96482	14508.9375
1894.09304	14504.8375
1897.21921	14522.2375
1900.34335	14495.7375
1903.46544	14486.7375
1906.58551	14479.4375
1909.70353	14458.2375
1912.81953	14417.8375
1915.93349	14393.1375
1919.04543	14357.0375
1922.15534	14330.3375
1925.26322	14317.9375
1928.36908	14330.6375
1931.47292	14293.0375
1934.57473	14260.3375
1937.67453	14213.8375
1940.77232	14159.8375
1943.86808	14131.1375
1946.96184	14109.9375
1950.05358	14060.5375
1953.14331	14004.5375
1956.23103	13947.9375
1959.31675	13924.6375
1962.40046	13931.7375
1965.48217	13860.5375
1968.56188	13822.9375
1971.63959	13755.1375
1974.7153	13721.4375
1977.78901	13705.3375
1980.86073	13627.9375
1983.93046	13617.7375
1986.99819	13576.4375
1990.06394	13568.7375
1993.1277	13502.5375
1996.18947	13456.7375
1999.24925	13460.1375
2002.30706	13356.5375
2005.36288	13336.3375
2008.41672	13286.7375
2011.46859	13253.5375
2014.51848	13255.3375
2017.56639	13226.0375
2020.61233	13186.1375
2023.6563	13171.5375
2026.6983	13151.2375
2029.73833	13105.9375
2032.7764	13072.5375
2035.8125	13060.6375
2038.84664	13022.5375
2041.87881	12999.8375
2044.90903	12988.9375
2047.93729	12932.9375
2050.96359	12926.2375
2053.98794	12916.7375
2057.01034	12918.1375
2060.03078	12886.4375
2063.04927	12868.6375
2066.06582	12877.3375
2069.08042	12859.4375
2072.09307	12850.5375
2075.10378	12856.5375
2078.11255	12819.1375
2081.11938	12823.4375
2084.12426	12823.0375
2087.12722	12824.9375
2090.12824	12813.8375
2093.12732	12803.2375
2096.12447	12833.1375
2099.11969	12797.3375
2102.11299	12808.4375
2105.10435	12820.9375
2108.09379	12816.5375
2111.08131	12806.8375
2114.0669	12810.3375
2117.05057	12832.4375
2120.03233	12833.5375
2123.01216	12834.0375
2125.99008	12846.2375
2128.96609	12852.4375
2131.94018	12869.2375
2134.91236	12884.0375
2137.88263	12881.0375
2140.851	12888.5375
2143.81746	12886.7375
2146.78201	12908.1375
2149.74466	12916.0375
2152.7054	12898.4375
2155.66425	12933.5375
2158.6212	12943.7375
2161.57625	12925.1375
2164.52941	12906.0375
2167.48067	12890.0375
2170.43004	12859.1375
2173.37752	12872.6375
2176.32311	12880.2375
2179.26681	12861.4375
2182.20863	12871.3375
2185.14856	12843.2375
2188.08661	12825.1375
2191.02278	12837.1375
2193.95707	12815.8375
2196.88948	12808.0375
2199.82001	12794.6375
2202.74867	12794.8375
2205.67545	12803.8375
2208.60037	12781.0375
2211.52341	12783.0375
2214.44458	12743.0375
2217.36388	12688.2375
2220.28132	12684.3375
2223.1969	12659.0375
2226.11061	12656.4375
2229.02246	12623.3375
2231.93245	12622.4375
2234.84058	12568.7375
2237.74686	12564.8375
2240.65128	12540.9375
2243.55385	12527.3375
2246.45456	12484.6375
2249.35343	12485.0375
2252.25044	12466.2375
2255.14561	12439.4375
2258.03893	12419.5375
2260.93041	12425.3375
2263.82004	12371.0375
2266.70783	12359.2375
2269.59378	12319.3375
2272.4779	12284.1375
2275.36017	12254.8375
2278.24061	12215.8375
2281.11922	12197.2375
2283.996	12191.5375
2286.87094	12179.4375
2289.74405	12149.5375
2292.61534	12125.8375
2295.4848	12118.2375
2298.35243	12091.9375
2301.21824	12090.3375
2304.08223	12077.7375
2306.94439	12078.9375
2309.80474	12088.5375
2312.66327	12067.5375
2315.51999	12057.5375
2318.37489	12030.5375
2321.22797	12044.1375
2324.07925	12045.9375
2326.92871	12033.9375
2329.77637	12018.0375
2332.62222	12013.8375
2335.46626	11981.3375
2338.3085	11964.2375
2341.14893	11950.8375
2343.98756	11939.2375
2346.8244	11931.8375
2349.65943	11923.2375
2352.49267	11935.3375
2355.32411	11935.7375
2358.15376	11894.1375
2360.98161	11863.8375
2363.80768	11867.8375
2366.63195	11875.8375
2369.45444	11854.3375
2372.27514	11821.9375
2375.09405	11819.1375
2377.91118	11812.3375
2380.72652	11794.1375
2383.54009	11764.4375
2386.35187	11756.8375
2389.16188	11718.1375
2391.97011	11695.3375
2394.77657	11669.1375
2397.58125	11636.2375
2400.38416	11622.9375
2403.18529	11641.6375
2405.98466	11629.7375
2408.78226	11599.2375
2411.57809	11582.7375
2414.37216	11541.2375
2417.16446	11532.2375
2419.955	11507.6375
2422.74378	11507.5375
2425.5308	11474.0375
2428.31606	11472.5375
2431.09956	11475.0375
2433.88131	11462.2375
2436.6613	11438.6375
2439.43954	11453.7375
2442.21603	11460.2375
2444.99077	11434.2375
2447.76377	11423.6375
2450.53501	11440.6375
2453.30451	11381.9375
2456.07226	11372.7375
2458.83827	11366.4375
2461.60254	11366.5375
2464.36507	11349.0375
2467.12586	11351.7375
2469.88492	11341.6375
2472.64224	11326.9375
2475.39782	11350.5375
2478.15167	11351.1375
2480.90379	11324.2375
2483.65417	11339.9375
2486.40283	11363.2375
2489.14976	11356.7375
2491.89497	11323.1375
2494.63845	11315.4375
2497.3802	11307.8375
2500.12024	11308.6375
2502.85855	11309.8375
2505.59514	11301.4375
2508.33002	11281.8375
2511.06318	11262.3375
2513.79462	11260.3375
2516.52435	11250.9375
2519.25237	11212.6375
2521.97867	11213.6375
2524.70327	11224.3375
2527.42616	11209.0375
2530.14734	11177.0375
2532.86681	11180.5375
2535.58458	11181.9375
2538.30065	11158.4375
2541.01501	11155.8375
2543.72768	11158.8375
2546.43864	11117.3375
2549.14791	11082.9375
2551.85548	11073.9375
2554.56136	11059.4375
2557.26554	11044.0375
2559.96803	11027.5375
2562.66883	11013.4375
2565.36794	11010.3375
2568.06536	11014.9375
2570.7611	10971.2375
2573.45514	10980.7375
2576.14751	10979.6375
2578.83819	10916.1375
2581.52719	10933.1375
2584.21451	10904.5375
2586.90015	10920.5375
2589.58411	10885.7375
2592.2664	10872.8375
2594.94701	10834.5375
2597.62594	10837.6375
2600.30321	10821.8375
2602.9788	10810.5375
2605.65273	10809.6375
2608.32498	10797.0375
2610.99557	10763.2375
2613.66449	10765.1375
2616.33175	10746.1375
2618.99734	10749.5375
2621.66128	10755.7375
2624.32355	10764.1375
2626.98416	10763.9375
2629.64311	10738.1375
2632.30041	10751.5375
2634.95605	10736.5375
2637.61004	10708.2375
2640.26238	10690.9375
2642.91306	10687.5375
2645.56209	10690.0375
2648.20948	10684.5375
2650.85521	10666.9375
2653.4993	10665.4375
2656.14175	10697.4375
2658.78255	10685.5375
2661.42171	10662.8375
2664.05923	10677.9375
2666.6951	10660.9375
2669.32934	10670.9375
2671.96194	10657.3375
2674.59291	10667.6375
2677.22224	10653.9375
2679.84993	10666.3375
2682.476	10680.9375
2685.10043	10664.4375
2687.72324	10632.2375
2690.34441	10641.4375
2692.96396	10639.2375
2695.58188	10665.6375
2698.19818	10651.3375
2700.81285	10661.4375
2703.4259	10689.6375
2706.03733	10678.4375
2708.64714	10701.8375
2711.25533	10709.7375
2713.86191	10671.2375
2716.46687	10690.5375
2719.07021	10689.0375
2721.67194	10674.2375
2724.27206	10650.7375
2726.87057	10667.2375
2729.46747	10661.7375
2732.06276	10681.9375
2734.65644	10649.7375
2737.24852	10666.7375
2739.83899	10642.8375
2742.42786	10627.3375
2745.01513	10665.4375
2747.60079	10621.8375
2750.18486	10629.9375
2752.76733	10614.7375
2755.3482	10635.7375
2757.92747	10624.9375
2760.50515	10609.8375
2763.08123	10585.8375
2765.65573	10597.5375
2768.22863	10573.7375
2770.79994	10586.2375
2773.36967	10573.6375
2775.9378	10569.6375
2778.50435	10543.0375
2781.06932	10555.6375
2783.6327	10530.1375
2786.1945	10521.4375
2788.75471	10501.0375
2791.31335	10476.8375
2793.87041	10462.7375
2796.42589	10434.6375
2798.97979	10419.5375
2801.53212	10422.3375
2804.08288	10410.5375
2806.63206	10384.4375
2809.17967	10382.9375
2811.72571	10352.7375
2814.27018	10336.5375
2816.81308	10328.1375
2819.35442	10334.9375
2821.89419	10326.3375
2824.43239	10313.1375
2826.96904	10307.0375
2829.50412	10299.3375
2832.03763	10268.6375
2834.56959	10275.3375
2837.1	10263.1375
2839.62884	10274.8375
2842.15613	10260.2375
2844.68186	10297.5375
2847.20604	10297.4375
2849.72867	10283.9375
2852.24974	10282.6375
2854.76927	10270.3375
2857.28724	10253.9375
2859.80367	10236.2375
2862.31855	10234.4375
2864.83189	10228.9375
2867.34368	10204.3375
2869.85393	10202.6375
2872.36264	10213.2375
2874.8698	10210.6375
2877.37543	10209.5375
2879.87952	10246.8375
2882.38207	10263.7375
2884.88308	10240.2375
2887.38256	10276.9375
2889.88051	10281.8375
2892.37692	10271.4375
2894.8718	10272.6375
2897.36515	10289.6375
2899.85698	10279.9375
2902.34727	10301.3375
2904.83604	10321.8375
2907.32328	10360.2375
2909.809	10350.9375
2912.29319	10382.4375
2914.77587	10383.4375
2917.25702	10400.4375
2919.73665	10396.6375
2922.21476	10409.7375
2924.69136	10396.6375
2927.16644	10393.8375
2929.64	10371.4375
2932.11205	10380.7375
2934.58258	10355.4375
2937.05161	10337.6375
2939.51912	10346.9375
2941.98513	10308.6375
2944.44962	10305.2375
2946.91261	10228.1375
2949.37409	10241.2375
2951.83407	10204.8375
2954.29254	10202.1375
2956.74951	10168.6375
2959.20498	10136.3375
2961.65895	10124.5375
2964.11142	10108.5375
2966.56239	10067.8375
2969.01186	10050.8375
2971.45984	10018.7375
2973.90632	9982.5375
2976.35131	9941.1375
2978.7948	9926.3375
2981.23681	9889.1375
2983.67732	9880.0375
2986.11635	9864.3375
2988.55388	9810.0375
2990.98993	9805.4375
2993.4245	9785.9375
2995.85758	9731.5375
2998.28917	9715.6375
3000.71928	9725.2375
3003.14791	9702.5375
3005.57506	9685.5375
3008.00073	9654.1375
3010.42493	9672.9375
3012.84764	9620.6375
3015.26888	9609.1375
3017.68865	9596.9375
3020.10694	9580.4375
3022.52376	9545.9375
3024.9391	9526.1375
3027.35298	9532.4375
3029.76539	9539.9375
3032.17632	9505.6375
3034.5858	9487.1375
3036.9938	9490.3375
3039.40034	9486.7375
3041.80542	9472.1375
3044.20903	9450.9375
3046.61118	9442.6375
3049.01187	9403.8375
3051.4111	9380.3375
3053.80888	9363.4375
3056.20519	9391.1375
3058.60005	9339.9375
3060.99345	9341.5375
3063.3854	9297.7375
3065.7759	9295.9375
3068.16494	9282.1375
3070.55254	9243.6375
3072.93868	9228.9375
3075.32338	9215.7375
3077.70662	9175.2375
3080.08842	9146.0375
3082.46878	9168.2375
3084.84769	9146.2375
3087.22515	9146.6375
3089.60118	9156.2375
3091.97576	9167.3375
3094.3489	9145.3375
3096.72061	9176.6375
3099.09087	9153.9375
3101.4597	9124.4375
3103.82709	9163.4375
3106.19305	9185.3375
3108.55757	9197.2375
3110.92066	9084.4375
3113.28232	9056.2375
3115.64255	9027.5375
3118.00134	9029.0375
3120.35871	9023.4375
3122.71466	8989.2375
3125.06917	8987.8375
3127.42226	8970.0375
3129.77393	8967.8375
3132.12417	8983.3375
3134.47299	8983.8375
3136.82039	8973.9375
3139.16636	9002.0375
3141.51092	9005.5375
3143.85406	9001.7375
3146.19579	8983.6375
3148.53609	8992.3375
3150.87499	9009.0375
3153.21246	8974.3375
3155.54853	9016.3375
3157.88318	9017.1375
3160.21642	8985.6375
3162.54826	9006.4375
3164.87868	8992.2375
3167.2077	8994.4375
3169.5353	8990.5375
3171.86151	9005.9375
3174.18631	9023.9375
3176.5097	8982.7375
3178.83169	8969.8375
3181.15228	8960.8375
3183.47147	8973.9375
3185.78926	8984.2375
3188.10565	8961.9375
3190.42065	8955.6375
3192.73424	8961.5375
3195.04645	8955.5375
3197.35725	8947.2375
3199.66667	8947.2375
3201.97469	8972.7375
3204.28132	8958.3375
3206.58656	8965.3375
3208.8904	8950.9375
3211.19287	8967.5375
3213.49394	8959.8375
3215.79363	8969.1375
3218.09193	8973.0375
3220.38884	8955.2375
3222.68438	8990.7375
3224.97853	8969.1375
3227.2713	8945.0375
3229.56269	8910.7375
3231.8527	8936.8375
3234.14133	8906.3375
3236.42858	8898.9375
3238.71446	8904.7375
3240.99896	8862.3375
3243.28209	8886.0375
3245.56384	8876.8375
3247.84423	8873.4375
3250.12324	8876.3375
3252.40088	8872.5375
3254.67715	8866.6375
3256.95205	8847.7375
3259.22558	8819.2375
3261.49775	8800.1375
3263.76855	8807.4375
3266.03799	8792.3375
3268.30606	8763.1375
3270.57277	8744.3375
3272.83812	8728.6375
3275.10211	8714.2375
3277.36474	8722.9375
3279.62601	8718.4375
3281.88593	8692.7375
3284.14448	8736.5375
3286.40168	8717.6375
3288.65753	8690.3375
3290.91202	8697.4375
3293.16516	8655.9375
3295.41695	8638.2375
3297.66738	8585.6375
3299.91647	8553.6375
3302.16421	8500.6375
3304.4106	8477.5375
3306.65564	8437.9375
3308.89933	8373.6375
3311.14169	8310.9375
3313.38269	8268.6375
3315.62236	8223.6375
3317.86068	8124.2375
3320.09766	8066.1375
3322.3333	8007.8375
3324.5676	7993.5375
3326.80056	7874.2375
3329.03219	7845.2375
3331.26248	3.8375
3333.49143	-0.9625
3335.71905	-1.0625
