Data from AgNP_FTO_APTES_CRN_50uM_R6G_10uM_NaF_0.1M_Addition_RamanShift__31__18-22-08-095.txt Node

Date: Wed Dec 15 18:22:08 GMT 2021
User: TCL
Spectrometer: QEP01345
Trigger mode: 4
Integration Time (sec): 7.000000E0
Scans to average: 10
Electric dark correction enabled: true
Nonlinearity correction enabled: false
Boxcar width: 0
XAxis mode: Raman Shifts
Number of Pixels in Spectrum: 1044
>>>>>Begin Spectral Data<<<<<
46.04893	0.6
50.45542	-1.2
54.85868	-0.6
59.25871	-0.8
63.6555	60.3
68.04907	66.3
72.43941	72.2
76.82654	73.1
81.21044	76.4
85.59113	79.2
89.96862	84.7
94.34289	84.5
98.71396	89.8
103.08183	93.2
107.4465	96.8
111.80798	97
116.16626	96.7
120.52136	102.3
124.87327	106
129.222	107.3
133.56755	111.7
137.90993	116.6
142.24913	130.2
146.58517	142.1
150.91804	166
155.24774	195.6
159.57429	237.8
163.89768	298.5
168.21792	394.3
172.53501	536.1
176.84895	743.9
181.15975	1046.3
185.46741	1459.1
189.77193	2020.8
194.07331	2694.7
198.37157	3466.7
202.6667	4293.9
206.9587	5114
211.24758	5929.1
215.53334	6730.3
219.81599	7607
224.09553	8603.1
228.37195	9670.4
232.64527	10888.6
236.91549	12092.8
241.18261	13299.5
245.44663	14340.1
249.70755	15266.6
253.96539	16085.6
258.22014	16792.1
262.4718	17428.6
266.72039	17882.3
270.96589	18130.8
275.20832	18185.2
279.44768	18052
283.68397	17835.6
287.91719	17687.3
292.14735	17664.4
296.37445	17768.6
300.59849	18021.4
304.81948	18398
309.03742	18606.9
313.25231	18440.5
317.46415	17904.3
321.67296	17067.3
325.87872	16363.6
330.08145	16011
334.28114	16008.9
338.47781	16216.7
342.67145	16524.8
346.86207	16967.2
351.04966	17608
355.23424	18360.7
359.4158	18882.2
363.59435	19220.2
367.76989	19353
371.94243	19419.9
376.11196	19438.5
380.27849	19440.7
384.44203	19376
388.60257	19297
392.76012	19293.4
396.91468	19449.6
401.06626	19854.3
405.21485	20148.8
409.36047	19969.2
413.50311	19405.6
417.64277	18864.5
421.77947	18544.9
425.9132	18487
430.04396	18542.1
434.17176	18612.8
438.2966	18823.5
442.41849	19194.2
446.53742	19697.4
450.6534	20178.2
454.76644	20580.3
458.87653	20734.3
462.98368	20602.2
467.08789	20338.4
471.18916	20046.6
475.2875	19707.1
479.38291	19407
483.4754	19184.9
487.56496	18959.4
491.6516	18716.9
495.73531	18568
499.81612	18547.5
503.89401	18690.9
507.96899	18840.9
512.04106	19016.8
516.11023	19154.9
520.1765	19328.4
524.23987	19369.3
528.30034	19157.6
532.35792	18959.4
536.41261	18712.4
540.46441	18441.8
544.51333	18326.6
548.55936	18419
552.60252	18687.1
556.64279	19030.6
560.6802	19192
564.71473	19312.1
568.7464	19680
572.7752	19979
576.80114	19771.1
580.82422	19435.4
584.84444	19340.5
588.86181	19464.3
592.87633	19715.5
596.888	19990.7
600.89682	20385
604.9028	21662.5
608.90594	25113.3
612.90624	29483.2
616.90371	28357.1
620.89834	22303.6
624.89015	19512.9
628.87913	18986.9
632.86528	18996.9
636.84862	19039.6
640.82913	18809.6
644.80683	18356.4
648.78172	18029.2
652.75379	18058.3
656.72306	18433.8
660.68952	18992.1
664.65319	18896.3
668.61405	18417.4
672.57211	18190.8
676.52738	18140.8
680.47986	18109
684.42955	18140.7
688.37646	18078.8
692.32058	18126.7
696.26192	18297.1
700.20048	18451
704.13626	18544.1
708.06928	18504.1
711.99952	18399.1
715.927	18365.9
719.85171	18379.4
723.77365	18347.6
727.69284	18213.6
731.60928	18105.4
735.52295	18094.8
739.43388	18122.1
743.34206	18177.3
747.24749	18237.2
751.15017	18318.7
755.05012	18546
758.94733	19108.8
762.8418	20287.9
766.73354	22301.9
770.62254	24441.5
774.50882	25440
778.39237	24446.2
782.27321	22151.2
786.15132	20081.5
790.02671	18910.5
793.89938	18357.4
797.76935	18125.6
801.6366	18026.6
805.50115	17974.3
809.36299	17921.8
813.22213	17857.5
817.07857	17870.5
820.93231	17865
824.78336	17883.8
828.63172	17947.5
832.47738	17976.4
836.32036	18008
840.16066	18023.9
843.99827	17976
847.8332	17953.2
851.66546	17873.3
855.49504	17882.7
859.32195	17811.5
863.1462	17737.8
866.96777	17729.4
870.78668	17672.3
874.60293	17692.1
878.41652	17715.2
882.22745	17784.3
886.03573	17809.6
889.84136	17796.7
893.64433	17707.9
897.44466	17670.4
901.24235	17659.8
905.0374	17632.3
908.8298	17610.8
912.61957	17622.7
916.40671	17703.6
920.19121	17791
923.97308	17920.2
927.75233	18033.8
931.52895	18122.4
935.30295	18000.1
939.07433	17676.6
942.84309	17402.5
946.60924	17227.4
950.37278	17143.9
954.13371	17041.7
957.89203	16987.5
961.64774	16935.9
965.40086	16855
969.15137	16818.9
972.89929	16788.9
976.64461	16760.2
980.38733	16801.9
984.12747	16841.2
987.86502	16950.9
991.59999	17083.4
995.33237	17273.9
999.06217	17679
1002.78939	18066.5
1006.51404	18360.3
1010.23611	18551.6
1013.95561	18706.8
1017.67255	18687.9
1021.38692	18507.4
1025.09872	18368.7
1028.80796	18460.5
1032.51465	18746.6
1036.21877	19056.7
1039.92035	19155.9
1043.61937	19005.5
1047.31584	18719.9
1051.00976	18456.1
1054.70114	18287.6
1058.38998	18255.6
1062.07627	18372.7
1065.76003	18510.2
1069.44126	18743.3
1073.11995	19026.6
1076.79611	19279.6
1080.46974	19450.5
1084.14085	19590
1087.80943	19675.3
1091.47549	19533.1
1095.13903	19212.5
1098.80005	18753.8
1102.45857	18415.4
1106.11456	18233.7
1109.76805	18272.1
1113.41903	18478.7
1117.06751	18801.6
1120.71348	19180.8
1124.35696	19580.4
1127.99793	19923.7
1131.63641	19952.4
1135.2724	19523.2
1138.90589	18979.3
1142.5369	18675.5
1146.16542	18505.5
1149.79145	18394.9
1153.415	18392.4
1157.03607	18515.2
1160.65467	18761.6
1164.27079	19215.4
1167.88443	19924.1
1171.49561	21066.2
1175.10432	22858
1178.71056	25130.6
1182.31434	26885.6
1185.91565	27471
1189.51451	27013
1193.11091	25755.7
1196.70485	24265.9
1200.29634	23078.7
1203.88538	22277.7
1207.47197	21453.5
1211.05612	20733.6
1214.63782	20402.7
1218.21708	20298.7
1221.79391	20340.6
1225.36829	20322.3
1228.94024	20308.9
1232.50976	20191.3
1236.07685	20125
1239.6415	20187.9
1243.20374	20303.8
1246.76355	20419.3
1250.32093	20748.7
1253.8759	21130.6
1257.42845	21621.1
1260.97859	22098.1
1264.52631	22506.9
1268.07163	22885.5
1271.61453	23288.2
1275.15503	23685.9
1278.69312	23964.2
1282.22882	24170.8
1285.76211	24512.7
1289.29301	25050.4
1292.82151	25616.5
1296.34761	26295.1
1299.87133	27270.4
1303.39266	28741.7
1306.9116	30911.5
1310.42815	33404.4
1313.94233	35017.2
1317.45412	34870.8
1320.96354	33379.8
1324.47058	31691.3
1327.97525	30129.1
1331.47754	29103.6
1334.97747	28829.3
1338.47502	29095.1
1341.97022	29574.1
1345.46305	29958.5
1348.95352	30514.2
1352.44163	31551.1
1355.92738	33278.5
1359.41078	36412.8
1362.89183	39692.3
1366.37053	39206.3
1369.84688	34764.2
1373.32088	30039.7
1376.79254	27020.6
1380.26186	25539
1383.72883	24894.2
1387.19347	24401.2
1390.65578	23852.5
1394.11575	23418.6
1397.57339	23317.4
1401.0287	23467.4
1404.48168	23730.3
1407.93234	24053.9
1411.38068	24253.2
1414.82669	24172.3
1418.27039	23713.1
1421.71177	23137
1425.15083	22626.4
1428.58758	22330.3
1432.02203	22330.7
1435.45416	22523
1438.88399	22731.1
1442.31151	22798.1
1445.73673	22956.9
1449.15965	23113.8
1452.58027	23104
1455.9986	22977.4
1459.41463	22916.4
1462.82837	23068
1466.23982	23432.5
1469.64898	23875.9
1473.05586	24208.7
1476.46045	24466.5
1479.86276	24721.4
1483.26279	25115.9
1486.66054	25461.2
1490.05602	25995.6
1493.44922	26524
1496.84016	27209.5
1500.22882	28258.2
1503.61521	29915
1506.99934	32002
1510.38121	34259.5
1513.76081	35467.2
1517.13816	34705.8
1520.51324	32089.8
1523.88607	29184.4
1527.25665	27061.1
1530.62498	25808.2
1533.99105	25154.6
1537.35488	24738.6
1540.71647	24531.5
1544.07581	24339
1547.4329	24231.9
1550.78776	24061.7
1554.14038	23961
1557.49077	23997.1
1560.83892	24204.3
1564.18484	24486.7
1567.52853	24878.4
1570.86999	25176.7
1574.20922	25585.4
1577.54624	25833
1580.88103	25526.8
1584.2136	24832.3
1587.54395	24420.9
1590.87208	24611.6
1594.19801	25553.2
1597.52172	26933.5
1600.84321	27628
1604.16251	26942.8
1607.47959	25386.1
1610.79447	23690.5
1614.10715	22053.6
1617.41763	20795
1620.7259	20028.9
1624.03199	19630.5
1627.33587	19667
1630.63757	20003.3
1633.93707	20736.6
1637.23439	21847
1640.52951	23350
1643.82246	25216.9
1647.11321	27304.9
1650.40179	28627.6
1653.68819	28005.9
1656.97241	25337.7
1660.25446	22254.6
1663.53433	19970.5
1666.81203	18598
1670.08756	17734.8
1673.36092	17183.7
1676.63211	16860.5
1679.90115	16594.7
1683.16801	16431.9
1686.43272	16300.9
1689.69527	16206.2
1692.95567	16118.1
1696.2139	16104.5
1699.46999	16100.1
1702.72392	16088.4
1705.97571	16050.4
1709.22535	16040.1
1712.47284	16024.6
1715.71819	16023.7
1718.96139	15997.7
1722.20246	15981.2
1725.44139	15918.2
1728.67818	15873.7
1731.91284	15795.3
1735.14537	15706.6
1738.37576	15660.8
1741.60403	15602.5
1744.83017	15569.7
1748.05418	15547.9
1751.27607	15531.8
1754.49584	15513.9
1757.71349	15515.1
1760.92903	15502.2
1764.14244	15511.3
1767.35375	15502.9
1770.56294	15447.6
1773.77002	15463.4
1776.97499	15422.5
1780.17785	15399.1
1783.37861	15364.2
1786.57727	15339.1
1789.77382	15318.2
1792.96828	15304
1796.16064	15273.5
1799.3509	15255.6
1802.53907	15220.5
1805.72514	15188
1808.90913	15172.8
1812.09102	15141.8
1815.27083	15112.1
1818.44856	15066.6
1821.6242	15082.4
1824.79776	15065.4
1827.96924	15056.3
1831.13864	15027.3
1834.30597	15035.1
1837.47122	15025.5
1840.6344	15007.3
1843.7955	15006.1
1846.95454	14968.7
1850.11151	14968.3
1853.26642	14984.4
1856.41926	14988.8
1859.57004	14986.6
1862.71876	14943.3
1865.86542	14949.1
1869.01003	14990.6
1872.15258	14964
1875.29308	14962.3
1878.43152	14913.6
1881.56792	14933.8
1884.70227	14916.7
1887.83457	14908
1890.96482	14917.4
1894.09304	14889.3
1897.21921	14887.3
1900.34335	14918.5
1903.46544	14846.6
1906.58551	14883.7
1909.70353	14832.1
1912.81953	14849.4
1915.93349	14810.5
1919.04543	14787.8
1922.15534	14766.6
1925.26322	14789
1928.36908	14748.2
1931.47292	14719.4
1934.57473	14666.2
1937.67453	14623.3
1940.77232	14603.5
1943.86808	14576.5
1946.96184	14560.1
1950.05358	14519.8
1953.14331	14475.6
1956.23103	14425.6
1959.31675	14405.8
1962.40046	14357.3
1965.48217	14307.1
1968.56188	14256.3
1971.63959	14240.8
1974.7153	14204
1977.78901	14151
1980.86073	14101.3
1983.93046	14072.3
1986.99819	14049.8
1990.06394	14003.7
1993.1277	13938.8
1996.18947	13897.8
1999.24925	13853.7
2002.30706	13820.1
2005.36288	13795.3
2008.41672	13750.8
2011.46859	13723.5
2014.51848	13687.2
2017.56639	13644.6
2020.61233	13602.8
2023.6563	13585.9
2026.6983	13561.9
2029.73833	13549.1
2032.7764	13476.4
2035.8125	13479.4
2038.84664	13447.2
2041.87881	13436.6
2044.90903	13423.7
2047.93729	13410.1
2050.96359	13391.4
2053.98794	13365.2
2057.01034	13357.1
2060.03078	13331.1
2063.04927	13332.4
2066.06582	13333.2
2069.08042	13312.2
2072.09307	13271.5
2075.10378	13268.7
2078.11255	13271.2
2081.11938	13262
2084.12426	13256.7
2087.12722	13281.6
2090.12824	13252.8
2093.12732	13247
2096.12447	13264.5
2099.11969	13263.8
2102.11299	13251.7
2105.10435	13264.7
2108.09379	13257.8
2111.08131	13319.8
2114.0669	13285.5
2117.05057	13314.4
2120.03233	13295.2
2123.01216	13315.9
2125.99008	13351.7
2128.96609	13312.6
2131.94018	13336.4
2134.91236	13342.2
2137.88263	13337.9
2140.851	13357.4
2143.81746	13377.5
2146.78201	13382.1
2149.74466	13393.4
2152.7054	13402.1
2155.66425	13396
2158.6212	13409.3
2161.57625	13422
2164.52941	13395.1
2167.48067	13394.2
2170.43004	13389.1
2173.37752	13365.4
2176.32311	13376.4
2179.26681	13380.9
2182.20863	13340.1
2185.14856	13353
2188.08661	13333.4
2191.02278	13384.2
2193.95707	13382
2196.88948	13334.1
2199.82001	13355.5
2202.74867	13310.8
2205.67545	13348.6
2208.60037	13322.3
2211.52341	13307.4
2214.44458	13318.7
2217.36388	13262.5
2220.28132	13266
2223.1969	13251.8
2226.11061	13218.2
2229.02246	13200.3
2231.93245	13192
2234.84058	13164
2237.74686	13113
2240.65128	13108.9
2243.55385	13085
2246.45456	13049.4
2249.35343	13048.5
2252.25044	13025.8
2255.14561	13040.5
2258.03893	13043.5
2260.93041	13011
2263.82004	12995.2
2266.70783	12966
2269.59378	12923
2272.4779	12902.9
2275.36017	12876.3
2278.24061	12834.6
2281.11922	12798.4
2283.996	12783.1
2286.87094	12776.3
2289.74405	12736.4
2292.61534	12747.2
2295.4848	12748
2298.35243	12746
2301.21824	12719.3
2304.08223	12719.9
2306.94439	12733.2
2309.80474	12682.7
2312.66327	12715.6
2315.51999	12704.5
2318.37489	12701.7
2321.22797	12709.5
2324.07925	12671.4
2326.92871	12688
2329.77637	12669.4
2332.62222	12652.8
2335.46626	12652.4
2338.3085	12634.8
2341.14893	12649.3
2343.98756	12620.3
2346.8244	12627.5
2349.65943	12608.8
2352.49267	12621.9
2355.32411	12621.8
2358.15376	12617.5
2360.98161	12596.9
2363.80768	12617.7
2366.63195	12595
2369.45444	12574.1
2372.27514	12547.5
2375.09405	12537.9
2377.91118	12512.1
2380.72652	12469
2383.54009	12453.1
2386.35187	12421.8
2389.16188	12387.9
2391.97011	12391
2394.77657	12379.4
2397.58125	12323.3
2400.38416	12306.8
2403.18529	12294.7
2405.98466	12278.6
2408.78226	12228.2
2411.57809	12219.2
2414.37216	12201.7
2417.16446	12160.2
2419.955	12163
2422.74378	12143.4
2425.5308	12132.1
2428.31606	12120
2431.09956	12124.6
2433.88131	12109.2
2436.6613	12106
2439.43954	12101.6
2442.21603	12074.9
2444.99077	12067.2
2447.76377	12053.5
2450.53501	12096.6
2453.30451	12058
2456.07226	12055.6
2458.83827	12033.6
2461.60254	12039.3
2464.36507	12015.1
2467.12586	11992.1
2469.88492	12017.6
2472.64224	12011.5
2475.39782	12019
2478.15167	12034.8
2480.90379	12037.4
2483.65417	12037.8
2486.40283	12037.6
2489.14976	12048.3
2491.89497	12069.3
2494.63845	12061.9
2497.3802	12053
2500.12024	12016.8
2502.85855	12029
2505.59514	12037.2
2508.33002	12008.5
2511.06318	11971.4
2513.79462	11950
2516.52435	11943.9
2519.25237	11909.9
2521.97867	11925.3
2524.70327	11880
2527.42616	11871.7
2530.14734	11836.2
2532.86681	11841.4
2535.58458	11850
2538.30065	11801.5
2541.01501	11780.1
2543.72768	11778.4
2546.43864	11796.1
2549.14791	11771.2
2551.85548	11756
2554.56136	11735.2
2557.26554	11717.8
2559.96803	11724.4
2562.66883	11707.5
2565.36794	11687.4
2568.06536	11689.8
2570.7611	11683.3
2573.45514	11650.7
2576.14751	11661.2
2578.83819	11605
2581.52719	11614.9
2584.21451	11593.9
2586.90015	11595.9
2589.58411	11585.6
2592.2664	11558.4
2594.94701	11541.9
2597.62594	11537
2600.30321	11530.3
2602.9788	11500.5
2605.65273	11483.5
2608.32498	11491.7
2610.99557	11464.4
2613.66449	11473.4
2616.33175	11459
2618.99734	11483.6
2621.66128	11470.8
2624.32355	11455.6
2626.98416	11448.5
2629.64311	11450.6
2632.30041	11436.1
2634.95605	11439.1
2637.61004	11403.9
2640.26238	11398.1
2642.91306	11382
2645.56209	11366.3
2648.20948	11361.9
2650.85521	11324
2653.4993	11333.6
2656.14175	11321.3
2658.78255	11352
2661.42171	11333.6
2664.05923	11348.4
2666.6951	11353.2
2669.32934	11381.3
2671.96194	11349.9
2674.59291	11365.3
2677.22224	11334.8
2679.84993	11353.3
2682.476	11335.8
2685.10043	11349.3
2687.72324	11385.9
2690.34441	11351.3
2692.96396	11340.7
2695.58188	11356.5
2698.19818	11318
2700.81285	11340.9
2703.4259	11341
2706.03733	11396.2
2708.64714	11370.8
2711.25533	11379
2713.86191	11373.4
2716.46687	11371.2
2719.07021	11343
2721.67194	11387.2
2724.27206	11349
2726.87057	11348.5
2729.46747	11366.6
2732.06276	11366.3
2734.65644	11334.8
2737.24852	11349
2739.83899	11322.8
2742.42786	11317.3
2745.01513	11305.7
2747.60079	11281.8
2750.18486	11315.7
2752.76733	11297.1
2755.3482	11293.7
2757.92747	11288.8
2760.50515	11277.5
2763.08123	11248.9
2765.65573	11237.6
2768.22863	11249.6
2770.79994	11209.3
2773.36967	11221.4
2775.9378	11227.2
2778.50435	11190.8
2781.06932	11171.2
2783.6327	11156.3
2786.1945	11155.3
2788.75471	11145.7
2791.31335	11130.3
2793.87041	11117.9
2796.42589	11104.8
2798.97979	11091
2801.53212	11066.9
2804.08288	11041.7
2806.63206	11022.3
2809.17967	11001.1
2811.72571	10961
2814.27018	10987.7
2816.81308	10954.5
2819.35442	10981.8
2821.89419	10962.1
2824.43239	10963.4
2826.96904	10962.1
2829.50412	10966.3
2832.03763	10933.3
2834.56959	10942.5
2837.1	10914.3
2839.62884	10913.1
2842.15613	10936.5
2844.68186	10940.2
2847.20604	10957.1
2849.72867	10960
2852.24974	10945
2854.76927	10938.6
2857.28724	10918.8
2859.80367	10932.1
2862.31855	10915
2864.83189	10868.3
2867.34368	10852.9
2869.85393	10856.1
2872.36264	10870.2
2874.8698	10868.9
2877.37543	10846.6
2879.87952	10855.8
2882.38207	10842.6
2884.88308	10864.9
2887.38256	10870.1
2889.88051	10861.4
2892.37692	10868.2
2894.8718	10869.9
2897.36515	10844.4
2899.85698	10842.1
2902.34727	10867.3
2904.83604	10859
2907.32328	10867.7
2909.809	10865.8
2912.29319	10883.9
2914.77587	10874.9
2917.25702	10870.4
2919.73665	10841.5
2922.21476	10867.4
2924.69136	10856.2
2927.16644	10856.1
2929.64	10807
2932.11205	10816.8
2934.58258	10802.2
2937.05161	10809.4
2939.51912	10792.9
2941.98513	10786
2944.44962	10752.5
2946.91261	10729.4
2949.37409	10728
2951.83407	10724.1
2954.29254	10723.2
2956.74951	10696.1
2959.20498	10688.2
2961.65895	10672.5
2964.11142	10687.4
2966.56239	10648.4
2969.01186	10637.4
2971.45984	10587.4
2973.90632	10585.6
2976.35131	10561.2
2978.7948	10522.5
2981.23681	10511.7
2983.67732	10524.7
2986.11635	10489.5
2988.55388	10454
2990.98993	10453
2993.4245	10446.9
2995.85758	10424.4
2998.28917	10394.3
3000.71928	10373.8
3003.14791	10363.6
3005.57506	10364.1
3008.00073	10341
3010.42493	10356.2
3012.84764	10311.7
3015.26888	10287.3
3017.68865	10277
3020.10694	10274.8
3022.52376	10256.4
3024.9391	10251.1
3027.35298	10215.8
3029.76539	10216.7
3032.17632	10215.7
3034.5858	10224.8
3036.9938	10203
3039.40034	10168.6
3041.80542	10154.1
3044.20903	10139.5
3046.61118	10140
3049.01187	10122.6
3051.4111	10113.9
3053.80888	10094.1
3056.20519	10093
3058.60005	10027.8
3060.99345	10042.8
3063.3854	9986.8
3065.7759	9954.1
3068.16494	9983.2
3070.55254	9950.4
3072.93868	9929.9
3075.32338	9904.7
3077.70662	9871.8
3080.08842	9830.8
3082.46878	9847.8
3084.84769	9821.2
3087.22515	9831.5
3089.60118	9837.7
3091.97576	9815.2
3094.3489	9831.5
3096.72061	9810.4
3099.09087	9827.1
3101.4597	9794.4
3103.82709	9802.7
3106.19305	9762.1
3108.55757	9765.9
3110.92066	9760.1
3113.28232	9706.6
3115.64255	9672.8
3118.00134	9668.2
3120.35871	9684.7
3122.71466	9676.3
3125.06917	9650.7
3127.42226	9654.5
3129.77393	9660.8
3132.12417	9640.3
3134.47299	9661.9
3136.82039	9661.6
3139.16636	9661.8
3141.51092	9654.4
3143.85406	9656.2
3146.19579	9657.9
3148.53609	9678.4
3150.87499	9673.6
3153.21246	9659.3
3155.54853	9674.7
3157.88318	9673.6
3160.21642	9694.2
3162.54826	9666.3
3164.87868	9640.2
3167.2077	9661.4
3169.5353	9650.6
3171.86151	9660.8
3174.18631	9652.8
3176.5097	9665
3178.83169	9627
3181.15228	9634.2
3183.47147	9615.8
3185.78926	9601
3188.10565	9620.1
3190.42065	9604.8
3192.73424	9630.5
3195.04645	9606.5
3197.35725	9618.8
3199.66667	9612.6
3201.97469	9623.3
3204.28132	9627.1
3206.58656	9629.5
3208.8904	9624.1
3211.19287	9624.1
3213.49394	9640.1
3215.79363	9625.3
3218.09193	9642.6
3220.38884	9626.8
3222.68438	9675.4
3224.97853	9643.7
3227.2713	9607.9
3229.56269	9610
3231.8527	9576.9
3234.14133	9564.5
3236.42858	9548.6
3238.71446	9538.9
3240.99896	9530.4
3243.28209	9515.7
3245.56384	9515
3247.84423	9517.3
3250.12324	9512.6
3252.40088	9502.2
3254.67715	9498.9
3256.95205	9500.6
3259.22558	9505.7
3261.49775	9457.1
3263.76855	9491.3
3266.03799	9456.7
3268.30606	9446.7
3270.57277	9428.1
3272.83812	9409.5
3275.10211	9392.7
3277.36474	9384.9
3279.62601	9382
3281.88593	9366.1
3284.14448	9380.5
3286.40168	9396.3
3288.65753	9348.3
3290.91202	9339.2
3293.16516	9327.8
3295.41695	9313.8
3297.66738	9226.6
3299.91647	9186.3
3302.16421	9144
3304.4106	9139.9
3306.65564	9075.1
3308.89933	9019.5
3311.14169	8975.5
3313.38269	8923.5
3315.62236	8857.4
3317.86068	8795.8
3320.09766	8707.3
3322.3333	8638
3324.5676	8650.1
3326.80056	8519.6
3329.03219	8477.9
3331.26248	3.3
3333.49143	-0.9
3335.71905	0.2
