Data from AgNP_FTO_APTES_CRN_0uM_R6G_10uM_NaF_0.1M_Addition_RamanShift__56__12-35-02-962.txt Node

Date: Wed Dec 15 12:35:02 GMT 2021
User: TCL
Spectrometer: QEP01345
Trigger mode: 4
Integration Time (sec): 7.000000E0
Scans to average: 10
Electric dark correction enabled: true
Nonlinearity correction enabled: false
Boxcar width: 0
XAxis mode: Raman Shifts
Number of Pixels in Spectrum: 1044
>>>>>Begin Spectral Data<<<<<
46.04893	0.2375
50.45542	-2.4625
54.85868	-0.9625
59.25871	-1.9625
63.6555	139.8375
68.04907	150.3375
72.43941	156.5375
76.82654	168.2375
81.21044	170.1375
85.59113	177.9375
89.96862	188.6375
94.34289	190.1375
98.71396	198.2375
103.08183	202.8375
107.4465	207.5375
111.80798	211.8375
116.16626	215.9375
120.52136	225.8375
124.87327	231.3375
129.222	243.4375
133.56755	255.0375
137.90993	275.0375
142.24913	299.6375
146.58517	329.1375
150.91804	370.4375
155.24774	436.1375
159.57429	536.7375
163.89768	682.1375
168.21792	889.7375
172.53501	1205.5375
176.84895	1665.8375
181.15975	2312.0375
185.46741	3247.2375
189.77193	4477.8375
194.07331	5963.9375
198.37157	7705.8375
202.6667	9543.2375
206.9587	11321.0375
211.24758	13053.3375
215.53334	14817.6375
219.81599	16645.2375
224.09553	18627.2375
228.37195	20828.6375
232.64527	23351.1375
236.91549	26002.0375
241.18261	28702.8375
245.44663	31318.8375
249.70755	33714.2375
253.96539	35863.8375
258.22014	37561.5375
262.4718	38924.1375
266.72039	39797.8375
270.96589	40176.2375
275.20832	40155.1375
279.44768	39879.6375
283.68397	39464.9375
287.91719	38975.1375
292.14735	38585.3375
296.37445	38258.4375
300.59849	38046.3375
304.81948	37957.4375
309.03742	37819.8375
313.25231	37677.3375
317.46415	37362.9375
321.67296	36882.5375
325.87872	36463.5375
330.08145	36336.7375
334.28114	36409.0375
338.47781	36649.2375
342.67145	37021.7375
346.86207	37505.5375
351.04966	37966.7375
355.23424	38548.1375
359.4158	39038.9375
363.59435	39481.7375
367.76989	39697.8375
371.94243	39809.8375
376.11196	39877.8375
380.27849	39925.1375
384.44203	40010.5375
388.60257	40238.9375
392.76012	40692.7375
396.91468	41263.3375
401.06626	41940.4375
405.21485	42326.0375
409.36047	42419.5375
413.50311	42095.5375
417.64277	42013.9375
421.77947	42298.9375
425.9132	42590.7375
430.04396	42872.0375
434.17176	43007.5375
438.2966	43153.9375
442.41849	43501.5375
446.53742	44222.6375
450.6534	44850.6375
454.76644	45393.5375
458.87653	45663.8375
462.98368	45706.6375
467.08789	45446.5375
471.18916	45037.8375
475.2875	44620.4375
479.38291	44291.4375
483.4754	44214.6375
487.56496	44080.2375
491.6516	43781.7375
495.73531	43458.8375
499.81612	43330.8375
503.89401	43480.8375
507.96899	43764.4375
512.04106	43868.2375
516.11023	43790.4375
520.1765	43491.4375
524.23987	43127.0375
528.30034	42789.2375
532.35792	42472.7375
536.41261	42227.8375
540.46441	41920.7375
544.51333	41919.2375
548.55936	42254.9375
552.60252	42876.2375
556.64279	43527.5375
560.6802	44098.9375
564.71473	44532.7375
568.7464	45212.3375
572.7752	46429.2375
576.80114	47984.6375
580.82422	49643.5375
584.84444	51353.7375
588.86181	53182.6375
592.87633	54690.5375
596.888	54559.2375
600.89682	52777.7375
604.9028	51912.6375
608.90594	53374.9375
612.90624	54545.4375
616.90371	51822.7375
620.89834	47155.4375
624.89015	45100.0375
628.87913	44827.0375
632.86528	44946.2375
636.84862	44673.1375
640.82913	43721.3375
644.80683	42653.8375
648.78172	42016.0375
652.75379	41912.8375
656.72306	42253.5375
660.68952	42673.0375
664.65319	42516.2375
668.61405	42103.0375
672.57211	42067.8375
676.52738	42190.4375
680.47986	42154.8375
684.42955	41992.2375
688.37646	41925.2375
692.32058	42058.4375
696.26192	42383.3375
700.20048	42941.2375
704.13626	43305.0375
708.06928	43475.6375
711.99952	43556.5375
715.927	43479.5375
719.85171	43438.6375
723.77365	43124.4375
727.69284	42536.4375
731.60928	41985.3375
735.52295	41740.3375
739.43388	41670.2375
743.34206	41750.2375
747.24749	42005.8375
751.15017	42419.2375
755.05012	43023.2375
758.94733	43916.8375
762.8418	45432.9375
766.73354	47429.8375
770.62254	49067.5375
774.50882	49034.6375
778.39237	47414.1375
782.27321	45480.1375
786.15132	43904.5375
790.02671	42874.2375
793.89938	42229.5375
797.76935	41932.3375
801.6366	41751.8375
805.50115	41668.3375
809.36299	41495.8375
813.22213	41313.4375
817.07857	41244.2375
820.93231	41172.9375
824.78336	41125.9375
828.63172	41024.2375
832.47738	40995.5375
836.32036	40954.7375
840.16066	41000.9375
843.99827	40996.1375
847.8332	41076.4375
851.66546	41092.7375
855.49504	41201.8375
859.32195	41270.0375
863.1462	41197.1375
866.96777	41253.8375
870.78668	41267.7375
874.60293	41362.7375
878.41652	41392.1375
882.22745	41587.5375
886.03573	41787.3375
889.84136	41879.7375
893.64433	41944.1375
897.44466	41954.2375
901.24235	42044.2375
905.0374	42192.3375
908.8298	42326.4375
912.61957	42513.2375
916.40671	42918.8375
920.19121	43507.6375
923.97308	43855.6375
927.75233	43790.8375
931.52895	43281.4375
935.30295	42517.7375
939.07433	41850.3375
942.84309	41312.8375
946.60924	40955.9375
950.37278	40717.2375
954.13371	40654.4375
957.89203	40628.8375
961.64774	40464.5375
965.40086	40421.0375
969.15137	40238.8375
972.89929	40071.9375
976.64461	39961.8375
980.38733	39804.8375
984.12747	39778.8375
987.86502	39813.7375
991.59999	39912.8375
995.33237	40150.3375
999.06217	40538.1375
1002.78939	41106.5375
1006.51404	41812.5375
1010.23611	42608.9375
1013.95561	43055.6375
1017.67255	43002.1375
1021.38692	42567.3375
1025.09872	41932.8375
1028.80796	41417.8375
1032.51465	41174.3375
1036.21877	41199.5375
1039.92035	41384.4375
1043.61937	41581.0375
1047.31584	41704.5375
1051.00976	41973.7375
1054.70114	42222.7375
1058.38998	42575.1375
1062.07627	43136.6375
1065.76003	43935.5375
1069.44126	44721.7375
1073.11995	45779.5375
1076.79611	46625.5375
1080.46974	46794.7375
1084.14085	46672.0375
1087.80943	46621.9375
1091.47549	46605.7375
1095.13903	46577.1375
1098.80005	45962.1375
1102.45857	44947.2375
1106.11456	43961.3375
1109.76805	43324.5375
1113.41903	43061.0375
1117.06751	42989.4375
1120.71348	43101.0375
1124.35696	43274.4375
1127.99793	43506.0375
1131.63641	43765.0375
1135.2724	43938.0375
1138.90589	44127.5375
1142.5369	44340.0375
1146.16542	44479.8375
1149.79145	44795.3375
1153.415	45086.3375
1157.03607	45595.0375
1160.65467	46506.9375
1164.27079	47964.6375
1167.88443	49765.1375
1171.49561	51662.1375
1175.10432	53821.2375
1178.71056	56348.2375
1182.31434	58897.5375
1185.91565	60521.3375
1189.51451	61076.3375
1193.11091	60705.8375
1196.70485	59519.1375
1200.29634	57846.7375
1203.88538	56446.0375
1207.47197	55879.8375
1211.05612	55613.8375
1214.63782	55115.1375
1218.21708	54072.7375
1221.79391	52593.7375
1225.36829	51404.4375
1228.94024	50741.4375
1232.50976	50322.7375
1236.07685	50048.6375
1239.6415	49789.0375
1243.20374	49808.7375
1246.76355	49941.3375
1250.32093	50370.8375
1253.8759	51157.1375
1257.42845	52356.8375
1260.97859	53611.0375
1264.52631	54975.0375
1268.07163	56365.4375
1271.61453	57761.5375
1275.15503	59154.6375
1278.69312	60632.6375
1282.22882	62171.9375
1285.76211	63932.7375
1289.29301	65776.6375
1292.82151	67705.4375
1296.34761	70056.4375
1299.87133	72695.3375
1303.39266	75304.4375
1306.9116	77449.8375
1310.42815	78861.6375
1313.94233	79545.7375
1317.45412	79527.7375
1320.96354	79430.2375
1324.47058	79671.7375
1327.97525	80250.0375
1331.47754	80789.6375
1334.97747	81130.9375
1338.47502	81167.8375
1341.97022	81051.7375
1345.46305	80719.6375
1348.95352	79911.2375
1352.44163	78817.5375
1355.92738	78066.7375
1359.41078	78204.1375
1362.89183	78368.0375
1366.37053	77343.7375
1369.84688	74106.8375
1373.32088	69136.7375
1376.79254	65269.9375
1380.26186	63434.1375
1383.72883	63165.2375
1387.19347	63048.5375
1390.65578	62554.6375
1394.11575	62066.2375
1397.57339	62182.1375
1401.0287	62785.5375
1404.48168	63263.7375
1407.93234	63036.3375
1411.38068	61961.8375
1414.82669	60188.9375
1418.27039	58170.5375
1421.71177	56269.3375
1425.15083	54845.4375
1428.58758	54243.0375
1432.02203	54731.8375
1435.45416	55834.4375
1438.88399	57099.3375
1442.31151	58041.5375
1445.73673	58673.3375
1449.15965	59021.9375
1452.58027	59156.8375
1455.9986	59290.3375
1459.41463	59782.0375
1462.82837	60492.8375
1466.23982	61488.8375
1469.64898	62145.5375
1473.05586	62364.6375
1476.46045	62281.6375
1479.86276	62101.4375
1483.26279	61695.1375
1486.66054	61581.5375
1490.05602	61758.0375
1493.44922	62389.0375
1496.84016	63118.9375
1500.22882	64048.0375
1503.61521	64969.8375
1506.99934	65796.3375
1510.38121	66285.0375
1513.76081	66383.4375
1517.13816	66149.1375
1520.51324	65843.8375
1523.88607	65823.9375
1527.25665	66018.1375
1530.62498	66076.8375
1533.99105	65666.9375
1537.35488	64570.3375
1540.71647	63094.3375
1544.07581	61439.4375
1547.4329	59886.0375
1550.78776	58527.7375
1554.14038	57732.9375
1557.49077	57337.2375
1560.83892	57247.0375
1564.18484	57207.3375
1567.52853	57274.2375
1570.86999	57751.4375
1574.20922	58944.1375
1577.54624	60406.9375
1580.88103	61645.5375
1584.2136	62954.0375
1587.54395	64493.2375
1590.87208	66372.6375
1594.19801	68134.0375
1597.52172	69568.5375
1600.84321	69204.4375
1604.16251	66099.1375
1607.47959	61894.9375
1610.79447	57723.2375
1614.10715	53955.7375
1617.41763	50710.6375
1620.7259	48463.9375
1624.03199	47290.9375
1627.33587	47287.4375
1630.63757	48491.1375
1633.93707	51091.5375
1637.23439	55590.9375
1640.52951	61808.2375
1643.82246	68899.8375
1647.11321	74085.1375
1650.40179	74580.3375
1653.68819	69705.9375
1656.97241	61983.2375
1660.25446	54402.1375
1663.53433	48664.4375
1666.81203	44742.0375
1670.08756	42240.4375
1673.36092	40758.3375
1676.63211	39718.5375
1679.90115	38989.7375
1683.16801	38401.7375
1686.43272	38013.0375
1689.69527	37790.1375
1692.95567	37549.1375
1696.2139	37341.6375
1699.46999	37162.4375
1702.72392	37108.9375
1705.97571	36989.0375
1709.22535	36913.9375
1712.47284	36804.5375
1715.71819	36772.5375
1718.96139	36656.5375
1722.20246	36494.5375
1725.44139	36401.1375
1728.67818	36234.7375
1731.91284	36025.5375
1735.14537	35819.1375
1738.37576	35720.4375
1741.60403	35594.0375
1744.83017	35503.7375
1748.05418	35415.8375
1751.27607	35317.2375
1754.49584	35315.1375
1757.71349	35208.9375
1760.92903	35160.1375
1764.14244	35118.0375
1767.35375	35062.6375
1770.56294	35021.0375
1773.77002	34991.9375
1776.97499	34990.4375
1780.17785	34929.7375
1783.37861	34898.6375
1786.57727	34795.4375
1789.77382	34689.6375
1792.96828	34665.7375
1796.16064	34544.1375
1799.3509	34490.0375
1802.53907	34483.6375
1805.72514	34341.1375
1808.90913	34256.4375
1812.09102	34228.8375
1815.27083	34166.7375
1818.44856	34150.5375
1821.6242	34099.7375
1824.79776	34099.9375
1827.96924	34110.0375
1831.13864	34045.9375
1834.30597	34124.5375
1837.47122	34086.4375
1840.6344	34103.2375
1843.7955	34090.4375
1846.95454	34091.4375
1850.11151	34100.3375
1853.26642	34101.5375
1856.41926	34094.7375
1859.57004	34061.0375
1862.71876	33973.2375
1865.86542	33925.5375
1869.01003	33900.3375
1872.15258	33882.3375
1875.29308	33841.7375
1878.43152	33667.6375
1881.56792	33652.3375
1884.70227	33632.2375
1887.83457	33557.7375
1890.96482	33507.9375
1894.09304	33431.4375
1897.21921	33449.9375
1900.34335	33326.9375
1903.46544	33316.0375
1906.58551	33321.6375
1909.70353	33239.0375
1912.81953	33133.1375
1915.93349	33039.2375
1919.04543	32911.9375
1922.15534	32879.0375
1925.26322	32773.0375
1928.36908	32682.5375
1931.47292	32571.7375
1934.57473	32498.8375
1937.67453	32452.7375
1940.77232	32381.0375
1943.86808	32242.9375
1946.96184	32179.0375
1950.05358	32013.3375
1953.14331	31987.6375
1956.23103	31815.6375
1959.31675	31785.7375
1962.40046	31698.8375
1965.48217	31622.0375
1968.56188	31485.6375
1971.63959	31380.6375
1974.7153	31291.5375
1977.78901	31198.0375
1980.86073	31070.8375
1983.93046	30952.2375
1986.99819	30823.6375
1990.06394	30797.2375
1993.1277	30709.8375
1996.18947	30640.4375
1999.24925	30544.0375
2002.30706	30456.2375
2005.36288	30367.5375
2008.41672	30270.0375
2011.46859	30154.7375
2014.51848	30099.9375
2017.56639	30042.2375
2020.61233	29945.7375
2023.6563	29847.5375
2026.6983	29767.7375
2029.73833	29741.1375
2032.7764	29656.5375
2035.8125	29539.6375
2038.84664	29482.8375
2041.87881	29449.8375
2044.90903	29430.1375
2047.93729	29311.3375
2050.96359	29262.3375
2053.98794	29229.0375
2057.01034	29227.5375
2060.03078	29193.5375
2063.04927	29137.5375
2066.06582	29192.2375
2069.08042	29152.3375
2072.09307	29136.2375
2075.10378	29109.5375
2078.11255	29094.7375
2081.11938	29046.6375
2084.12426	29040.1375
2087.12722	28984.3375
2090.12824	28944.4375
2093.12732	28987.0375
2096.12447	28952.9375
2099.11969	28966.5375
2102.11299	28958.6375
2105.10435	28943.6375
2108.09379	28985.2375
2111.08131	28992.1375
2114.0669	28981.2375
2117.05057	28988.7375
2120.03233	28938.2375
2123.01216	28992.4375
2125.99008	29020.5375
2128.96609	29029.6375
2131.94018	29021.0375
2134.91236	29035.4375
2137.88263	29052.8375
2140.851	29043.8375
2143.81746	29069.3375
2146.78201	29046.2375
2149.74466	29041.4375
2152.7054	29054.0375
2155.66425	29030.9375
2158.6212	29043.8375
2161.57625	28998.2375
2164.52941	28995.2375
2167.48067	28994.3375
2170.43004	28998.3375
2173.37752	28925.1375
2176.32311	28909.0375
2179.26681	28907.2375
2182.20863	28911.1375
2185.14856	28905.8375
2188.08661	28950.0375
2191.02278	28893.7375
2193.95707	28851.7375
2196.88948	28862.2375
2199.82001	28881.9375
2202.74867	28811.0375
2205.67545	28732.4375
2208.60037	28696.8375
2211.52341	28622.0375
2214.44458	28638.8375
2217.36388	28546.1375
2220.28132	28514.9375
2223.1969	28443.5375
2226.11061	28426.9375
2229.02246	28334.3375
2231.93245	28280.9375
2234.84058	28241.7375
2237.74686	28221.9375
2240.65128	28198.4375
2243.55385	28159.2375
2246.45456	28075.7375
2249.35343	28094.8375
2252.25044	27963.5375
2255.14561	27931.0375
2258.03893	27896.3375
2260.93041	27844.5375
2263.82004	27787.0375
2266.70783	27697.7375
2269.59378	27612.5375
2272.4779	27557.1375
2275.36017	27504.4375
2278.24061	27466.7375
2281.11922	27357.8375
2283.996	27306.4375
2286.87094	27272.2375
2289.74405	27166.2375
2292.61534	27131.6375
2295.4848	27089.8375
2298.35243	27120.3375
2301.21824	27088.0375
2304.08223	27072.6375
2306.94439	27048.0375
2309.80474	27034.4375
2312.66327	26952.2375
2315.51999	26901.9375
2318.37489	26933.4375
2321.22797	26857.8375
2324.07925	26834.4375
2326.92871	26801.3375
2329.77637	26783.6375
2332.62222	26700.2375
2335.46626	26652.1375
2338.3085	26654.9375
2341.14893	26655.0375
2343.98756	26654.0375
2346.8244	26567.9375
2349.65943	26574.2375
2352.49267	26530.9375
2355.32411	26515.8375
2358.15376	26474.1375
2360.98161	26463.8375
2363.80768	26460.0375
2366.63195	26439.3375
2369.45444	26422.4375
2372.27514	26337.4375
2375.09405	26292.5375
2377.91118	26264.3375
2380.72652	26227.4375
2383.54009	26155.6375
2386.35187	26169.3375
2389.16188	26076.5375
2391.97011	26074.2375
2394.77657	26025.5375
2397.58125	25952.9375
2400.38416	25904.2375
2403.18529	25830.0375
2405.98466	25835.1375
2408.78226	25795.0375
2411.57809	25788.1375
2414.37216	25751.0375
2417.16446	25721.4375
2419.955	25641.5375
2422.74378	25636.0375
2425.5308	25653.3375
2428.31606	25582.6375
2431.09956	25579.3375
2433.88131	25489.7375
2436.6613	25504.8375
2439.43954	25532.5375
2442.21603	25506.1375
2444.99077	25404.7375
2447.76377	25429.7375
2450.53501	25420.5375
2453.30451	25341.6375
2456.07226	25341.7375
2458.83827	25364.5375
2461.60254	25327.4375
2464.36507	25274.4375
2467.12586	25292.4375
2469.88492	25247.3375
2472.64224	25228.8375
2475.39782	25227.5375
2478.15167	25198.6375
2480.90379	25154.3375
2483.65417	25145.7375
2486.40283	25129.1375
2489.14976	25139.5375
2491.89497	25089.7375
2494.63845	25109.2375
2497.3802	25117.5375
2500.12024	25116.2375
2502.85855	25091.5375
2505.59514	25066.0375
2508.33002	25034.8375
2511.06318	24981.9375
2513.79462	24966.3375
2516.52435	24959.6375
2519.25237	24887.9375
2521.97867	24900.6375
2524.70327	24912.7375
2527.42616	24842.0375
2530.14734	24863.2375
2532.86681	24838.2375
2535.58458	24789.5375
2538.30065	24718.0375
2541.01501	24706.8375
2543.72768	24715.5375
2546.43864	24679.7375
2549.14791	24656.6375
2551.85548	24610.6375
2554.56136	24602.1375
2557.26554	24552.2375
2559.96803	24485.7375
2562.66883	24458.9375
2565.36794	24466.8375
2568.06536	24426.2375
2570.7611	24376.5375
2573.45514	24364.6375
2576.14751	24319.2375
2578.83819	24261.3375
2581.52719	24254.8375
2584.21451	24152.8375
2586.90015	24150.3375
2589.58411	24129.0375
2592.2664	24099.7375
2594.94701	24006.5375
2597.62594	24006.0375
2600.30321	23944.0375
2602.9788	23960.5375
2605.65273	23935.3375
2608.32498	23922.4375
2610.99557	23876.1375
2613.66449	23880.1375
2616.33175	23854.2375
2618.99734	23800.1375
2621.66128	23769.6375
2624.32355	23755.4375
2626.98416	23738.1375
2629.64311	23687.0375
2632.30041	23656.4375
2634.95605	23660.8375
2637.61004	23681.0375
2640.26238	23641.4375
2642.91306	23642.9375
2645.56209	23636.3375
2648.20948	23609.9375
2650.85521	23586.0375
2653.4993	23589.7375
2656.14175	23606.2375
2658.78255	23634.8375
2661.42171	23584.6375
2664.05923	23635.4375
2666.6951	23594.3375
2669.32934	23591.9375
2671.96194	23608.0375
2674.59291	23611.9375
2677.22224	23583.7375
2679.84993	23555.4375
2682.476	23570.5375
2685.10043	23564.8375
2687.72324	23542.2375
2690.34441	23550.3375
2692.96396	23528.3375
2695.58188	23583.3375
2698.19818	23548.6375
2700.81285	23561.0375
2703.4259	23535.5375
2706.03733	23556.3375
2708.64714	23495.5375
2711.25533	23525.6375
2713.86191	23514.3375
2716.46687	23535.4375
2719.07021	23498.2375
2721.67194	23541.5375
2724.27206	23482.7375
2726.87057	23536.4375
2729.46747	23541.5375
2732.06276	23524.3375
2734.65644	23583.4375
2737.24852	23560.0375
2739.83899	23472.8375
2742.42786	23496.1375
2745.01513	23460.1375
2747.60079	23448.0375
2750.18486	23379.2375
2752.76733	23413.8375
2755.3482	23396.5375
2757.92747	23380.4375
2760.50515	23327.1375
2763.08123	23317.3375
2765.65573	23331.0375
2768.22863	23316.8375
2770.79994	23270.1375
2773.36967	23196.2375
2775.9378	23195.7375
2778.50435	23147.1375
2781.06932	23131.3375
2783.6327	23114.8375
2786.1945	23066.3375
2788.75471	23065.2375
2791.31335	22997.4375
2793.87041	22976.9375
2796.42589	22870.8375
2798.97979	22866.9375
2801.53212	22804.1375
2804.08288	22757.1375
2806.63206	22698.1375
2809.17967	22633.4375
2811.72571	22625.3375
2814.27018	22606.3375
2816.81308	22532.5375
2819.35442	22549.5375
2821.89419	22438.1375
2824.43239	22429.6375
2826.96904	22409.6375
2829.50412	22423.2375
2832.03763	22369.1375
2834.56959	22328.1375
2837.1	22275.5375
2839.62884	22231.6375
2842.15613	22206.3375
2844.68186	22218.4375
2847.20604	22159.8375
2849.72867	22110.9375
2852.24974	22078.0375
2854.76927	22068.7375
2857.28724	22051.1375
2859.80367	22017.8375
2862.31855	21998.1375
2864.83189	21965.7375
2867.34368	21935.3375
2869.85393	21911.1375
2872.36264	21869.2375
2874.8698	21811.0375
2877.37543	21856.5375
2879.87952	21861.5375
2882.38207	21860.0375
2884.88308	21817.8375
2887.38256	21848.9375
2889.88051	21848.1375
2892.37692	21866.4375
2894.8718	21840.9375
2897.36515	21849.3375
2899.85698	21811.8375
2902.34727	21869.7375
2904.83604	21866.4375
2907.32328	21847.1375
2909.809	21811.7375
2912.29319	21887.9375
2914.77587	21825.8375
2917.25702	21826.9375
2919.73665	21777.0375
2922.21476	21811.6375
2924.69136	21769.3375
2927.16644	21762.9375
2929.64	21753.0375
2932.11205	21731.3375
2934.58258	21656.7375
2937.05161	21724.0375
2939.51912	21726.5375
2941.98513	21718.5375
2944.44962	21646.0375
2946.91261	21551.8375
2949.37409	21584.0375
2951.83407	21575.0375
2954.29254	21588.1375
2956.74951	21508.1375
2959.20498	21541.6375
2961.65895	21500.7375
2964.11142	21473.8375
2966.56239	21439.9375
2969.01186	21420.6375
2971.45984	21350.0375
2973.90632	21311.6375
2976.35131	21272.6375
2978.7948	21277.5375
2981.23681	21235.0375
2983.67732	21171.6375
2986.11635	21085.2375
2988.55388	21065.0375
2990.98993	20998.7375
2993.4245	20975.9375
2995.85758	20902.2375
2998.28917	20856.9375
3000.71928	20787.4375
3003.14791	20705.2375
3005.57506	20651.6375
3008.00073	20598.8375
3010.42493	20628.1375
3012.84764	20612.1375
3015.26888	20587.6375
3017.68865	20519.2375
3020.10694	20499.3375
3022.52376	20447.7375
3024.9391	20411.2375
3027.35298	20415.6375
3029.76539	20341.4375
3032.17632	20309.1375
3034.5858	20269.7375
3036.9938	20251.3375
3039.40034	20195.0375
3041.80542	20216.2375
3044.20903	20147.6375
3046.61118	20129.9375
3049.01187	20056.3375
3051.4111	20027.4375
3053.80888	19977.7375
3056.20519	19937.9375
3058.60005	19852.0375
3060.99345	19875.8375
3063.3854	19779.6375
3065.7759	19731.1375
3068.16494	19699.6375
3070.55254	19626.3375
3072.93868	19578.9375
3075.32338	19532.6375
3077.70662	19456.2375
3080.08842	19403.9375
3082.46878	19405.1375
3084.84769	19353.3375
3087.22515	19343.0375
3089.60118	19372.1375
3091.97576	19315.7375
3094.3489	19325.9375
3096.72061	19252.9375
3099.09087	19266.6375
3101.4597	19188.4375
3103.82709	19204.3375
3106.19305	19175.3375
3108.55757	19143.9375
3110.92066	19112.1375
3113.28232	19077.9375
3115.64255	19019.0375
3118.00134	18948.3375
3120.35871	18909.9375
3122.71466	18850.9375
3125.06917	18825.2375
3127.42226	18783.0375
3129.77393	18800.6375
3132.12417	18733.2375
3134.47299	18759.7375
3136.82039	18732.3375
3139.16636	18776.0375
3141.51092	18724.5375
3143.85406	18692.5375
3146.19579	18693.3375
3148.53609	18677.4375
3150.87499	18683.9375
3153.21246	18663.5375
3155.54853	18683.6375
3157.88318	18627.8375
3160.21642	18648.9375
3162.54826	18617.6375
3164.87868	18598.2375
3167.2077	18552.4375
3169.5353	18554.7375
3171.86151	18535.1375
3174.18631	18491.2375
3176.5097	18481.6375
3178.83169	18449.8375
3181.15228	18430.8375
3183.47147	18375.6375
3185.78926	18346.5375
3188.10565	18340.3375
3190.42065	18357.3375
3192.73424	18323.7375
3195.04645	18286.6375
3197.35725	18268.2375
3199.66667	18251.1375
3201.97469	18295.7375
3204.28132	18219.2375
3206.58656	18212.9375
3208.8904	18204.9375
3211.19287	18224.8375
3213.49394	18179.4375
3215.79363	18188.6375
3218.09193	18170.1375
3220.38884	18166.3375
3222.68438	18146.7375
3224.97853	18122.8375
3227.2713	18060.6375
3229.56269	18041.4375
3231.8527	18066.3375
3234.14133	17989.7375
3236.42858	17919.9375
3238.71446	17922.0375
3240.99896	17873.8375
3243.28209	17865.9375
3245.56384	17874.4375
3247.84423	17898.6375
3250.12324	17844.2375
3252.40088	17843.0375
3254.67715	17794.7375
3256.95205	17743.8375
3259.22558	17716.2375
3261.49775	17659.4375
3263.76855	17627.5375
3266.03799	17572.8375
3268.30606	17517.4375
3270.57277	17577.7375
3272.83812	17518.5375
3275.10211	17480.5375
3277.36474	17466.8375
3279.62601	17465.8375
3281.88593	17426.8375
3284.14448	17423.9375
3286.40168	17402.8375
3288.65753	17396.4375
3290.91202	17368.3375
3293.16516	17291.1375
3295.41695	17248.0375
3297.66738	17140.0375
3299.91647	17068.2375
3302.16421	16949.7375
3304.4106	16869.9375
3306.65564	16818.9375
3308.89933	16682.9375
3311.14169	16553.7375
3313.38269	16435.1375
3315.62236	16341.3375
3317.86068	16160.5375
3320.09766	16004.0375
3322.3333	15866.2375
3324.5676	15861.7375
3326.80056	15563.2375
3329.03219	15502.0375
3331.26248	5.4375
3333.49143	0.1375
3335.71905	1.1375
