Data from AgNP_FTO_APTES_CRN_10uM_R6G_10uM_NaF_0.1M_Addition_RamanShift__31__16-51-07-992.txt Node

Date: Wed Dec 15 16:51:07 GMT 2021
User: TCL
Spectrometer: QEP01345
Trigger mode: 4
Integration Time (sec): 7.000000E0
Scans to average: 10
Electric dark correction enabled: true
Nonlinearity correction enabled: false
Boxcar width: 0
XAxis mode: Raman Shifts
Number of Pixels in Spectrum: 1044
>>>>>Begin Spectral Data<<<<<
46.04893	0.9875
50.45542	-3.0125
54.85868	-0.1125
59.25871	-0.5125
63.6555	65.1875
68.04907	75.1875
72.43941	78.3875
76.82654	80.5875
81.21044	85.2875
85.59113	91.1875
89.96862	96.4875
94.34289	92.0875
98.71396	99.6875
103.08183	104.4875
107.4465	109.8875
111.80798	108.0875
116.16626	109.7875
120.52136	115.1875
124.87327	115.2875
129.222	121.7875
133.56755	125.9875
137.90993	137.7875
142.24913	146.5875
146.58517	156.9875
150.91804	188.7875
155.24774	218.1875
159.57429	266.9875
163.89768	341.3875
168.21792	440.7875
172.53501	601.1875
176.84895	831.5875
181.15975	1145.1875
185.46741	1607.2875
189.77193	2216.9875
194.07331	2957.7875
198.37157	3814.3875
202.6667	4718.2875
206.9587	5619.4875
211.24758	6514.5875
215.53334	7460.3875
219.81599	8463.5875
224.09553	9624.9875
228.37195	10913.0875
232.64527	12259.4875
236.91549	13648.7875
241.18261	14967.5875
245.44663	15998.1875
249.70755	16891.2875
253.96539	17615.0875
258.22014	18295.6875
262.4718	18941.9875
266.72039	19417.8875
270.96589	19715.9875
275.20832	19726.5875
279.44768	19581.9875
283.68397	19343.7875
287.91719	19213.0875
292.14735	19254.3875
296.37445	19608.5875
300.59849	20190.6875
304.81948	20923.7875
309.03742	21401.1875
313.25231	21346.6875
317.46415	20419.9875
321.67296	19019.6875
325.87872	17786.8875
330.08145	17169.8875
334.28114	17030.4875
338.47781	17299.0875
342.67145	17703.6875
346.86207	18397.4875
351.04966	19374.4875
355.23424	20492.4875
359.4158	21319.2875
363.59435	21725.2875
367.76989	21773.7875
371.94243	21721.2875
376.11196	21576.6875
380.27849	21410.4875
384.44203	21191.8875
388.60257	20974.3875
392.76012	20844.1875
396.91468	21032.4875
401.06626	21520.3875
405.21485	21891.3875
409.36047	21525.1875
413.50311	20508.7875
417.64277	19505.0875
421.77947	18988.1875
425.9132	18736.2875
430.04396	18744.0875
434.17176	18828.3875
438.2966	19036.8875
442.41849	19457.4875
446.53742	20040.0875
450.6534	20586.7875
454.76644	20944.0875
458.87653	21065.8875
462.98368	20916.8875
467.08789	20597.0875
471.18916	20242.0875
475.2875	19727.1875
479.38291	19327.5875
483.4754	19005.9875
487.56496	18740.3875
491.6516	18490.2875
495.73531	18389.6875
499.81612	18422.4875
503.89401	18612.8875
507.96899	18869.4875
512.04106	19120.2875
516.11023	19430.7875
520.1765	19711.1875
524.23987	19733.2875
528.30034	19483.3875
532.35792	19065.9875
536.41261	18608.5875
540.46441	18100.0875
544.51333	17918.1875
548.55936	18015.9875
552.60252	18398.5875
556.64279	18872.2875
560.6802	19153.6875
564.71473	19418.7875
568.7464	20063.3875
572.7752	20511.6875
576.80114	20098.7875
580.82422	19508.5875
584.84444	19221.8875
588.86181	19223.6875
592.87633	19392.7875
596.888	19785.4875
600.89682	20442.8875
604.9028	22589.3875
608.90594	28105.8875
612.90624	35165.5875
616.90371	33800.1875
620.89834	24125.3875
624.89015	19420.4875
628.87913	18576.1875
632.86528	18618.3875
636.84862	18816.6875
640.82913	18496.2875
644.80683	17747.3875
648.78172	17184.9875
652.75379	17247.9875
656.72306	17835.3875
660.68952	18655.5875
664.65319	18562.3875
668.61405	17725.5875
672.57211	17278.5875
676.52738	17247.7875
680.47986	17256.1875
684.42955	17124.3875
688.37646	17058.4875
692.32058	17140.0875
696.26192	17305.0875
700.20048	17534.9875
704.13626	17684.1875
708.06928	17681.7875
711.99952	17561.0875
715.927	17452.2875
719.85171	17499.4875
723.77365	17445.6875
727.69284	17273.0875
731.60928	17098.5875
735.52295	17069.9875
739.43388	17095.9875
743.34206	17169.8875
747.24749	17265.4875
751.15017	17388.4875
755.05012	17703.2875
758.94733	18503.0875
762.8418	20449.3875
766.73354	23700.6875
770.62254	27135.9875
774.50882	28686.7875
778.39237	27126.8875
782.27321	23664.6875
786.15132	20386.9875
790.02671	18469.9875
793.89938	17592.5875
797.76935	17240.3875
801.6366	17068.0875
805.50115	16937.7875
809.36299	16853.9875
813.22213	16737.9875
817.07857	16706.3875
820.93231	16694.9875
824.78336	16742.6875
828.63172	16831.6875
832.47738	16920.5875
836.32036	16957.2875
840.16066	16927.3875
843.99827	16868.7875
847.8332	16761.1875
851.66546	16669.0875
855.49504	16659.7875
859.32195	16610.0875
863.1462	16511.6875
866.96777	16419.0875
870.78668	16383.5875
874.60293	16392.9875
878.41652	16433.2875
882.22745	16509.2875
886.03573	16594.9875
889.84136	16515.1875
893.64433	16423.4875
897.44466	16376.0875
901.24235	16384.3875
905.0374	16346.3875
908.8298	16353.9875
912.61957	16329.3875
916.40671	16441.9875
920.19121	16625.7875
923.97308	16777.8875
927.75233	16941.8875
931.52895	17109.1875
935.30295	16985.8875
939.07433	16465.8875
942.84309	16038.4875
946.60924	15785.2875
950.37278	15661.6875
954.13371	15551.4875
957.89203	15448.7875
961.64774	15412.6875
965.40086	15352.3875
969.15137	15348.2875
972.89929	15281.9875
976.64461	15237.5875
980.38733	15256.9875
984.12747	15308.0875
987.86502	15406.5875
991.59999	15542.0875
995.33237	15769.8875
999.06217	16211.8875
1002.78939	16712.3875
1006.51404	17123.0875
1010.23611	17455.8875
1013.95561	17694.9875
1017.67255	17649.2875
1021.38692	17388.5875
1025.09872	17164.2875
1028.80796	17162.1875
1032.51465	17497.9875
1036.21877	17882.3875
1039.92035	18010.5875
1043.61937	17907.0875
1047.31584	17653.6875
1051.00976	17368.0875
1054.70114	17231.8875
1058.38998	17255.9875
1062.07627	17414.5875
1065.76003	17688.2875
1069.44126	18079.6875
1073.11995	18581.5875
1076.79611	19143.1875
1080.46974	19513.9875
1084.14085	19693.7875
1087.80943	19778.0875
1091.47549	19503.6875
1095.13903	18873.3875
1098.80005	18051.0875
1102.45857	17501.7875
1106.11456	17207.1875
1109.76805	17278.8875
1113.41903	17558.6875
1117.06751	18014.6875
1120.71348	18654.7875
1124.35696	19298.4875
1127.99793	19976.5875
1131.63641	20060.6875
1135.2724	19284.7875
1138.90589	18540.7875
1142.5369	18026.3875
1146.16542	17650.2875
1149.79145	17468.4875
1153.415	17504.9875
1157.03607	17672.2875
1160.65467	18070.2875
1164.27079	18716.6875
1167.88443	19729.4875
1171.49561	21399.7875
1175.10432	24110.2875
1178.71056	27606.7875
1182.31434	30246.8875
1185.91565	31003.4875
1189.51451	30124.6875
1193.11091	28200.8875
1196.70485	25856.1875
1200.29634	24072.2875
1203.88538	22863.0875
1207.47197	21614.4875
1211.05612	20517.7875
1214.63782	19908.8875
1218.21708	19701.7875
1221.79391	19734.0875
1225.36829	19861.0875
1228.94024	19844.1875
1232.50976	19822.2875
1236.07685	19774.0875
1239.6415	19774.2875
1243.20374	19780.6875
1246.76355	19970.2875
1250.32093	20229.0875
1253.8759	20704.7875
1257.42845	21361.1875
1260.97859	22021.7875
1264.52631	22692.1875
1268.07163	23414.2875
1271.61453	24066.5875
1275.15503	24636.2875
1278.69312	24940.1875
1282.22882	25193.1875
1285.76211	25679.4875
1289.29301	26385.7875
1292.82151	27154.5875
1296.34761	28009.6875
1299.87133	29346.2875
1303.39266	31483.1875
1306.9116	34779.0875
1310.42815	38771.6875
1313.94233	41485.6875
1317.45412	41336.6875
1320.96354	39061.5875
1324.47058	36219.8875
1327.97525	33820.8875
1331.47754	32089.3875
1334.97747	31318.3875
1338.47502	31305.5875
1341.97022	31746.3875
1345.46305	32503.6875
1348.95352	33745.0875
1352.44163	35766.1875
1355.92738	38879.5875
1359.41078	43979.3875
1362.89183	49515.1875
1366.37053	49076.9875
1369.84688	42353.6875
1373.32088	34947.1875
1376.79254	30235.3875
1380.26186	27935.5875
1383.72883	26802.0875
1387.19347	25929.4875
1390.65578	24969.5875
1394.11575	24209.6875
1397.57339	23924.4875
1401.0287	23984.4875
1404.48168	24241.2875
1407.93234	24510.6875
1411.38068	24613.3875
1414.82669	24412.8875
1418.27039	23897.1875
1421.71177	23325.9875
1425.15083	22763.7875
1428.58758	22394.7875
1432.02203	22337.1875
1435.45416	22575.8875
1438.88399	22775.9875
1442.31151	22897.9875
1445.73673	23053.0875
1449.15965	23279.2875
1452.58027	23294.6875
1455.9986	23120.0875
1459.41463	23091.8875
1462.82837	23317.5875
1466.23982	23807.9875
1469.64898	24372.1875
1473.05586	24765.8875
1476.46045	25050.6875
1479.86276	25377.6875
1483.26279	25790.6875
1486.66054	26286.9875
1490.05602	26961.8875
1493.44922	27910.1875
1496.84016	29181.1875
1500.22882	31278.0875
1503.61521	34312.9875
1506.99934	38052.3875
1510.38121	41928.8875
1513.76081	44237.5875
1517.13816	43116.5875
1520.51324	38802.1875
1523.88607	34027.5875
1527.25665	30411.5875
1530.62498	28168.7875
1533.99105	26900.7875
1537.35488	26098.8875
1540.71647	25560.1875
1544.07581	25224.0875
1547.4329	25010.7875
1550.78776	24849.4875
1554.14038	24810.6875
1557.49077	25054.4875
1560.83892	25525.7875
1564.18484	26195.6875
1567.52853	26940.8875
1570.86999	27693.8875
1574.20922	28436.7875
1577.54624	28991.2875
1580.88103	28583.9875
1584.2136	27387.7875
1587.54395	26280.9875
1590.87208	25986.9875
1594.19801	26818.9875
1597.52172	28344.0875
1600.84321	29012.6875
1604.16251	27928.2875
1607.47959	26020.7875
1610.79447	23982.5875
1614.10715	22054.2875
1617.41763	20542.2875
1620.7259	19507.7875
1624.03199	19046.4875
1627.33587	19074.5875
1630.63757	19594.6875
1633.93707	20567.6875
1637.23439	22071.1875
1640.52951	24224.4875
1643.82246	27018.1875
1647.11321	30270.8875
1650.40179	32672.2875
1653.68819	32125.5875
1656.97241	28300.0875
1660.25446	23687.3875
1663.53433	20251.6875
1666.81203	18174.7875
1670.08756	16951.5875
1673.36092	16158.5875
1676.63211	15685.6875
1679.90115	15361.7875
1683.16801	15117.3875
1686.43272	14966.0875
1689.69527	14851.0875
1692.95567	14746.7875
1696.2139	14710.8875
1699.46999	14714.5875
1702.72392	14673.5875
1705.97571	14631.1875
1709.22535	14595.9875
1712.47284	14527.7875
1715.71819	14573.6875
1718.96139	14540.3875
1722.20246	14513.4875
1725.44139	14471.2875
1728.67818	14375.2875
1731.91284	14252.4875
1735.14537	14170.1875
1738.37576	14090.6875
1741.60403	14039.3875
1744.83017	14021.4875
1748.05418	13959.6875
1751.27607	13943.6875
1754.49584	13915.6875
1757.71349	13904.3875
1760.92903	13886.4875
1764.14244	13880.8875
1767.35375	13875.5875
1770.56294	13826.1875
1773.77002	13827.2875
1776.97499	13774.0875
1780.17785	13723.9875
1783.37861	13709.5875
1786.57727	13668.9875
1789.77382	13636.6875
1792.96828	13621.3875
1796.16064	13604.1875
1799.3509	13577.7875
1802.53907	13560.8875
1805.72514	13513.6875
1808.90913	13467.9875
1812.09102	13430.6875
1815.27083	13406.5875
1818.44856	13356.7875
1821.6242	13369.0875
1824.79776	13367.9875
1827.96924	13334.9875
1831.13864	13342.7875
1834.30597	13368.2875
1837.47122	13363.8875
1840.6344	13344.7875
1843.7955	13307.7875
1846.95454	13344.7875
1850.11151	13332.9875
1853.26642	13325.1875
1856.41926	13306.8875
1859.57004	13322.0875
1862.71876	13313.7875
1865.86542	13345.7875
1869.01003	13334.9875
1872.15258	13348.4875
1875.29308	13327.0875
1878.43152	13303.4875
1881.56792	13302.7875
1884.70227	13322.4875
1887.83457	13304.2875
1890.96482	13321.0875
1894.09304	13285.0875
1897.21921	13295.9875
1900.34335	13331.8875
1903.46544	13280.9875
1906.58551	13276.3875
1909.70353	13279.4875
1912.81953	13296.6875
1915.93349	13278.3875
1919.04543	13238.5875
1922.15534	13213.4875
1925.26322	13204.9875
1928.36908	13171.5875
1931.47292	13128.0875
1934.57473	13077.4875
1937.67453	13012.4875
1940.77232	12997.7875
1943.86808	12940.4875
1946.96184	12904.3875
1950.05358	12858.0875
1953.14331	12809.6875
1956.23103	12762.7875
1959.31675	12764.8875
1962.40046	12709.9875
1965.48217	12684.4875
1968.56188	12660.4875
1971.63959	12638.9875
1974.7153	12588.6875
1977.78901	12519.7875
1980.86073	12490.0875
1983.93046	12428.1875
1986.99819	12381.8875
1990.06394	12384.0875
1993.1277	12300.1875
1996.18947	12289.7875
1999.24925	12243.5875
2002.30706	12224.1875
2005.36288	12153.4875
2008.41672	12144.3875
2011.46859	12117.9875
2014.51848	12070.5875
2017.56639	12057.8875
2020.61233	12006.2875
2023.6563	11992.0875
2026.6983	11969.1875
2029.73833	11936.5875
2032.7764	11924.1875
2035.8125	11914.3875
2038.84664	11890.2875
2041.87881	11881.9875
2044.90903	11829.7875
2047.93729	11841.1875
2050.96359	11813.1875
2053.98794	11800.8875
2057.01034	11807.7875
2060.03078	11758.0875
2063.04927	11757.4875
2066.06582	11759.7875
2069.08042	11759.3875
2072.09307	11742.5875
2075.10378	11694.3875
2078.11255	11675.6875
2081.11938	11713.0875
2084.12426	11678.6875
2087.12722	11697.9875
2090.12824	11684.2875
2093.12732	11694.5875
2096.12447	11695.0875
2099.11969	11707.0875
2102.11299	11711.1875
2105.10435	11711.3875
2108.09379	11697.1875
2111.08131	11748.6875
2114.0669	11724.9875
2117.05057	11750.0875
2120.03233	11715.9875
2123.01216	11753.5875
2125.99008	11780.8875
2128.96609	11779.0875
2131.94018	11821.4875
2134.91236	11817.7875
2137.88263	11796.5875
2140.851	11784.6875
2143.81746	11819.1875
2146.78201	11814.8875
2149.74466	11800.4875
2152.7054	11806.3875
2155.66425	11826.6875
2158.6212	11827.0875
2161.57625	11817.6875
2164.52941	11790.2875
2167.48067	11799.3875
2170.43004	11790.4875
2173.37752	11790.5875
2176.32311	11801.7875
2179.26681	11774.5875
2182.20863	11790.3875
2185.14856	11785.3875
2188.08661	11783.4875
2191.02278	11778.4875
2193.95707	11762.5875
2196.88948	11769.6875
2199.82001	11735.2875
2202.74867	11769.9875
2205.67545	11790.5875
2208.60037	11765.5875
2211.52341	11753.7875
2214.44458	11740.1875
2217.36388	11738.6875
2220.28132	11714.4875
2223.1969	11679.7875
2226.11061	11686.0875
2229.02246	11661.7875
2231.93245	11631.2875
2234.84058	11600.5875
2237.74686	11558.3875
2240.65128	11569.9875
2243.55385	11549.0875
2246.45456	11521.9875
2249.35343	11516.5875
2252.25044	11515.0875
2255.14561	11502.5875
2258.03893	11500.9875
2260.93041	11512.3875
2263.82004	11503.2875
2266.70783	11464.7875
2269.59378	11437.2875
2272.4779	11411.2875
2275.36017	11382.1875
2278.24061	11357.5875
2281.11922	11310.3875
2283.996	11314.5875
2286.87094	11312.8875
2289.74405	11271.7875
2292.61534	11266.2875
2295.4848	11247.0875
2298.35243	11250.2875
2301.21824	11239.8875
2304.08223	11236.1875
2306.94439	11246.9875
2309.80474	11234.9875
2312.66327	11246.5875
2315.51999	11256.1875
2318.37489	11234.6875
2321.22797	11243.7875
2324.07925	11222.0875
2326.92871	11190.5875
2329.77637	11210.8875
2332.62222	11221.3875
2335.46626	11193.5875
2338.3085	11222.1875
2341.14893	11195.1875
2343.98756	11222.3875
2346.8244	11209.2875
2349.65943	11247.5875
2352.49267	11197.1875
2355.32411	11264.7875
2358.15376	11258.6875
2360.98161	11232.2875
2363.80768	11236.2875
2366.63195	11250.3875
2369.45444	11243.9875
2372.27514	11220.9875
2375.09405	11200.6875
2377.91118	11171.2875
2380.72652	11136.5875
2383.54009	11102.7875
2386.35187	11044.6875
2389.16188	11031.5875
2391.97011	10994.8875
2394.77657	10978.1875
2397.58125	10980.5875
2400.38416	10964.5875
2403.18529	10910.2875
2405.98466	10916.8875
2408.78226	10873.6875
2411.57809	10880.5875
2414.37216	10877.4875
2417.16446	10839.8875
2419.955	10818.2875
2422.74378	10831.3875
2425.5308	10785.0875
2428.31606	10777.1875
2431.09956	10781.3875
2433.88131	10762.9875
2436.6613	10800.4875
2439.43954	10803.6875
2442.21603	10767.3875
2444.99077	10767.8875
2447.76377	10776.8875
2450.53501	10794.4875
2453.30451	10771.2875
2456.07226	10764.3875
2458.83827	10744.6875
2461.60254	10769.5875
2464.36507	10747.4875
2467.12586	10741.8875
2469.88492	10754.5875
2472.64224	10751.3875
2475.39782	10759.2875
2478.15167	10776.0875
2480.90379	10792.8875
2483.65417	10807.4875
2486.40283	10819.7875
2489.14976	10836.7875
2491.89497	10853.8875
2494.63845	10879.9875
2497.3802	10877.4875
2500.12024	10834.0875
2502.85855	10817.3875
2505.59514	10819.3875
2508.33002	10798.5875
2511.06318	10723.1875
2513.79462	10712.6875
2516.52435	10676.8875
2519.25237	10677.7875
2521.97867	10652.2875
2524.70327	10646.8875
2527.42616	10628.1875
2530.14734	10628.7875
2532.86681	10602.9875
2535.58458	10617.0875
2538.30065	10583.8875
2541.01501	10583.6875
2543.72768	10588.6875
2546.43864	10583.7875
2549.14791	10582.6875
2551.85548	10558.7875
2554.56136	10564.9875
2557.26554	10548.8875
2559.96803	10559.2875
2562.66883	10532.6875
2565.36794	10544.6875
2568.06536	10527.6875
2570.7611	10519.3875
2573.45514	10504.4875
2576.14751	10505.8875
2578.83819	10479.7875
2581.52719	10467.2875
2584.21451	10463.0875
2586.90015	10456.7875
2589.58411	10437.0875
2592.2664	10406.5875
2594.94701	10396.1875
2597.62594	10436.9875
2600.30321	10397.5875
2602.9788	10422.5875
2605.65273	10369.6875
2608.32498	10381.4875
2610.99557	10352.5875
2613.66449	10368.4875
2616.33175	10376.7875
2618.99734	10381.8875
2621.66128	10369.9875
2624.32355	10361.4875
2626.98416	10368.9875
2629.64311	10369.7875
2632.30041	10367.5875
2634.95605	10343.6875
2637.61004	10347.5875
2640.26238	10293.5875
2642.91306	10296.0875
2645.56209	10286.2875
2648.20948	10278.9875
2650.85521	10251.7875
2653.4993	10269.7875
2656.14175	10247.8875
2658.78255	10271.6875
2661.42171	10264.0875
2664.05923	10268.9875
2666.6951	10284.9875
2669.32934	10307.1875
2671.96194	10296.8875
2674.59291	10313.3875
2677.22224	10316.6875
2679.84993	10292.0875
2682.476	10290.7875
2685.10043	10316.8875
2687.72324	10284.9875
2690.34441	10314.1875
2692.96396	10307.0875
2695.58188	10287.8875
2698.19818	10313.1875
2700.81285	10312.1875
2703.4259	10330.9875
2706.03733	10388.0875
2708.64714	10356.8875
2711.25533	10384.7875
2713.86191	10361.4875
2716.46687	10377.3875
2719.07021	10350.7875
2721.67194	10355.1875
2724.27206	10333.1875
2726.87057	10340.2875
2729.46747	10342.8875
2732.06276	10315.0875
2734.65644	10328.5875
2737.24852	10315.6875
2739.83899	10311.8875
2742.42786	10296.5875
2745.01513	10273.4875
2747.60079	10264.9875
2750.18486	10266.6875
2752.76733	10288.9875
2755.3482	10272.4875
2757.92747	10289.0875
2760.50515	10258.9875
2763.08123	10244.4875
2765.65573	10257.2875
2768.22863	10231.2875
2770.79994	10184.8875
2773.36967	10196.4875
2775.9378	10219.9875
2778.50435	10190.2875
2781.06932	10183.5875
2783.6327	10190.0875
2786.1945	10176.4875
2788.75471	10178.9875
2791.31335	10146.4875
2793.87041	10131.9875
2796.42589	10097.3875
2798.97979	10099.1875
2801.53212	10110.0875
2804.08288	10106.5875
2806.63206	10087.4875
2809.17967	10057.0875
2811.72571	10058.0875
2814.27018	10070.7875
2816.81308	10033.0875
2819.35442	10055.7875
2821.89419	10040.4875
2824.43239	10065.8875
2826.96904	10059.7875
2829.50412	10089.6875
2832.03763	10056.8875
2834.56959	10057.0875
2837.1	10043.9875
2839.62884	10073.2875
2842.15613	10057.5875
2844.68186	10102.1875
2847.20604	10135.6875
2849.72867	10145.3875
2852.24974	10178.5875
2854.76927	10198.5875
2857.28724	10180.9875
2859.80367	10160.4875
2862.31855	10149.2875
2864.83189	10143.4875
2867.34368	10110.1875
2869.85393	10133.5875
2872.36264	10129.6875
2874.8698	10138.7875
2877.37543	10134.0875
2879.87952	10136.7875
2882.38207	10114.8875
2884.88308	10094.8875
2887.38256	10123.7875
2889.88051	10120.4875
2892.37692	10110.8875
2894.8718	10100.4875
2897.36515	10114.5875
2899.85698	10136.8875
2902.34727	10147.9875
2904.83604	10126.0875
2907.32328	10157.0875
2909.809	10129.2875
2912.29319	10149.5875
2914.77587	10162.8875
2917.25702	10143.8875
2919.73665	10144.3875
2922.21476	10126.1875
2924.69136	10148.9875
2927.16644	10134.1875
2929.64	10122.9875
2932.11205	10133.8875
2934.58258	10043.9875
2937.05161	10073.8875
2939.51912	10065.0875
2941.98513	10024.9875
2944.44962	9983.8875
2946.91261	9939.5875
2949.37409	9940.6875
2951.83407	9922.5875
2954.29254	9922.4875
2956.74951	9886.7875
2959.20498	9889.5875
2961.65895	9877.8875
2964.11142	9897.9875
2966.56239	9833.7875
2969.01186	9823.9875
2971.45984	9778.4875
2973.90632	9735.8875
2976.35131	9749.5875
2978.7948	9730.6875
2981.23681	9683.7875
2983.67732	9698.5875
2986.11635	9681.0875
2988.55388	9660.1875
2990.98993	9651.2875
2993.4245	9599.3875
2995.85758	9602.7875
2998.28917	9585.2875
3000.71928	9564.4875
3003.14791	9559.6875
3005.57506	9550.3875
3008.00073	9526.3875
3010.42493	9525.6875
3012.84764	9510.8875
3015.26888	9506.5875
3017.68865	9475.5875
3020.10694	9453.9875
3022.52376	9459.8875
3024.9391	9444.4875
3027.35298	9440.5875
3029.76539	9430.5875
3032.17632	9451.4875
3034.5858	9393.6875
3036.9938	9406.6875
3039.40034	9374.9875
3041.80542	9354.2875
3044.20903	9338.8875
3046.61118	9345.1875
3049.01187	9327.5875
3051.4111	9333.7875
3053.80888	9293.0875
3056.20519	9276.9875
3058.60005	9264.6875
3060.99345	9248.7875
3063.3854	9238.1875
3065.7759	9208.7875
3068.16494	9206.2875
3070.55254	9192.7875
3072.93868	9166.9875
3075.32338	9145.3875
3077.70662	9116.7875
3080.08842	9096.0875
3082.46878	9102.9875
3084.84769	9074.8875
3087.22515	9066.6875
3089.60118	9067.4875
3091.97576	9076.8875
3094.3489	9086.6875
3096.72061	9044.2875
3099.09087	9056.3875
3101.4597	9027.9875
3103.82709	9043.8875
3106.19305	9033.8875
3108.55757	9017.0875
3110.92066	9031.0875
3113.28232	8974.1875
3115.64255	8988.3875
3118.00134	8949.4875
3120.35871	8954.7875
3122.71466	8935.8875
3125.06917	8924.2875
3127.42226	8928.7875
3129.77393	8917.9875
3132.12417	8957.5875
3134.47299	8956.5875
3136.82039	8935.4875
3139.16636	8956.8875
3141.51092	8958.8875
3143.85406	8946.9875
3146.19579	8970.6875
3148.53609	8972.1875
3150.87499	8984.1875
3153.21246	8976.2875
3155.54853	8987.6875
3157.88318	8985.2875
3160.21642	9008.6875
3162.54826	8993.0875
3164.87868	8972.2875
3167.2077	9004.4875
3169.5353	8985.3875
3171.86151	8990.4875
3174.18631	8978.9875
3176.5097	8996.5875
3178.83169	8944.3875
3181.15228	8958.0875
3183.47147	8952.0875
3185.78926	8983.9875
3188.10565	8958.3875
3190.42065	8949.0875
3192.73424	8965.5875
3195.04645	8984.1875
3197.35725	8985.4875
3199.66667	8969.7875
3201.97469	9010.7875
3204.28132	8987.5875
3206.58656	9003.8875
3208.8904	9004.4875
3211.19287	9012.2875
3213.49394	9016.6875
3215.79363	9035.0875
3218.09193	9029.6875
3220.38884	9026.0875
3222.68438	9049.4875
3224.97853	9030.0875
3227.2713	9012.6875
3229.56269	8990.4875
3231.8527	9001.6875
3234.14133	8975.0875
3236.42858	8963.9875
3238.71446	8991.7875
3240.99896	8938.8875
3243.28209	8950.8875
3245.56384	8927.7875
3247.84423	8926.1875
3250.12324	8908.2875
3252.40088	8942.1875
3254.67715	8930.1875
3256.95205	8921.1875
3259.22558	8935.6875
3261.49775	8918.1875
3263.76855	8921.6875
3266.03799	8888.4875
3268.30606	8901.1875
3270.57277	8877.9875
3272.83812	8846.7875
3275.10211	8831.6875
3277.36474	8839.9875
3279.62601	8824.5875
3281.88593	8827.7875
3284.14448	8838.6875
3286.40168	8839.2875
3288.65753	8835.9875
3290.91202	8832.3875
3293.16516	8795.9875
3295.41695	8766.6875
3297.66738	8715.2875
3299.91647	8688.5875
3302.16421	8625.0875
3304.4106	8609.3875
3306.65564	8566.2875
3308.89933	8514.5875
3311.14169	8464.0875
3313.38269	8406.1875
3315.62236	8356.6875
3317.86068	8279.0875
3320.09766	8196.9875
3322.3333	8144.2875
3324.5676	8157.2875
3326.80056	8027.6875
3329.03219	7999.1875
3331.26248	3.9875
3333.49143	-1.7125
3335.71905	-0.2125
