Data from AgNP_FTO_APTES_CRN_1uM_R6G_10uM_NaF_0.1M_Addition_RamanShift__17__14-05-20-800.txt Node

Date: Wed Dec 15 14:05:20 GMT 2021
User: TCL
Spectrometer: QEP01345
Trigger mode: 4
Integration Time (sec): 7.000000E0
Scans to average: 10
Electric dark correction enabled: true
Nonlinearity correction enabled: false
Boxcar width: 0
XAxis mode: Raman Shifts
Number of Pixels in Spectrum: 1044
>>>>>Begin Spectral Data<<<<<
46.04893	-1.375
50.45542	-2.575
54.85868	-0.175
59.25871	-0.775
63.6555	139.225
68.04907	154.825
72.43941	160.725
76.82654	174.625
81.21044	175.925
85.59113	185.125
89.96862	190.925
94.34289	195.125
98.71396	204.525
103.08183	215.225
107.4465	216.625
111.80798	223.125
116.16626	227.525
120.52136	231.225
124.87327	238.325
129.222	252.325
133.56755	261.125
137.90993	279.925
142.24913	296.925
146.58517	326.725
150.91804	380.525
155.24774	454.225
159.57429	548.925
163.89768	696.525
168.21792	900.425
172.53501	1220.225
176.84895	1697.925
181.15975	2369.425
185.46741	3289.225
189.77193	4546.525
194.07331	6060.325
198.37157	7789.125
202.6667	9602.425
206.9587	11395.225
211.24758	13192.925
215.53334	14902.625
219.81599	16822.125
224.09553	18923.325
228.37195	21274.725
232.64527	23820.025
236.91549	26526.925
241.18261	29224.325
245.44663	31639.525
249.70755	33796.625
253.96539	35747.725
258.22014	37393.825
262.4718	38711.325
266.72039	39721.725
270.96589	40275.525
275.20832	40345.625
279.44768	40091.325
283.68397	39679.725
287.91719	39358.225
292.14735	39083.125
296.37445	39152.925
300.59849	39322.225
304.81948	39591.025
309.03742	39737.425
313.25231	39428.325
317.46415	38569.625
321.67296	37368.225
325.87872	36398.325
330.08145	35917.725
334.28114	35854.325
338.47781	36185.925
342.67145	36718.225
346.86207	37448.325
351.04966	38306.425
355.23424	39285.825
359.4158	40152.625
363.59435	40825.225
367.76989	41163.725
371.94243	41392.025
376.11196	41584.425
380.27849	41627.825
384.44203	41718.125
388.60257	41857.125
392.76012	42263.625
396.91468	42788.425
401.06626	43547.925
405.21485	44081.125
409.36047	44007.025
413.50311	43321.425
417.64277	42644.125
421.77947	42416.525
425.9132	42484.025
430.04396	42736.825
434.17176	42960.625
438.2966	43252.425
442.41849	43904.025
446.53742	44912.825
450.6534	46131.925
454.76644	47115.225
458.87653	47622.225
462.98368	47379.925
467.08789	46899.825
471.18916	46148.125
475.2875	45329.525
479.38291	44836.025
483.4754	44435.725
487.56496	43984.225
491.6516	43476.925
495.73531	43094.125
499.81612	43025.925
503.89401	43354.825
507.96899	43623.725
512.04106	43687.625
516.11023	43554.725
520.1765	43324.125
524.23987	42951.125
528.30034	42589.725
532.35792	42134.425
536.41261	41510.125
540.46441	40947.325
544.51333	40923.725
548.55936	41370.925
552.60252	42179.325
556.64279	42928.025
560.6802	43428.825
564.71473	43861.425
568.7464	44554.125
572.7752	45542.625
576.80114	46341.925
580.82422	47152.125
584.84444	47973.125
588.86181	48678.725
592.87633	49317.225
596.888	50053.425
600.89682	50758.925
604.9028	52934.025
608.90594	57906.225
612.90624	62250.425
616.90371	58069.825
620.89834	48401.125
624.89015	44179.625
628.87913	43703.325
632.86528	43922.825
636.84862	43752.525
640.82913	42979.625
644.80683	41732.625
648.78172	40804.025
652.75379	40670.625
656.72306	41283.925
660.68952	42134.525
664.65319	41909.325
668.61405	41099.225
672.57211	40750.625
676.52738	40749.825
680.47986	40686.025
684.42955	40413.025
688.37646	40317.225
692.32058	40554.625
696.26192	41032.525
700.20048	41552.825
704.13626	41911.925
708.06928	41773.725
711.99952	41524.325
715.927	41516.125
719.85171	41640.525
723.77365	41450.325
727.69284	40965.925
731.60928	40454.325
735.52295	40268.825
739.43388	40293.525
743.34206	40441.625
747.24749	40668.625
751.15017	41029.425
755.05012	41737.625
758.94733	43060.625
762.8418	45317.625
766.73354	48944.225
770.62254	52415.625
774.50882	53146.625
778.39237	50647.425
782.27321	46741.025
786.15132	43535.025
790.02671	41654.025
793.89938	40774.025
797.76935	40467.125
801.6366	40392.725
805.50115	40252.725
809.36299	39951.525
813.22213	39702.725
817.07857	39552.225
820.93231	39461.225
824.78336	39400.825
828.63172	39338.025
832.47738	39397.725
836.32036	39483.125
840.16066	39672.025
843.99827	39888.325
847.8332	39778.825
851.66546	39645.525
855.49504	39595.125
859.32195	39554.925
863.1462	39461.625
866.96777	39183.125
870.78668	39098.925
874.60293	39053.425
878.41652	39059.325
882.22745	39179.725
886.03573	39309.925
889.84136	39304.625
893.64433	39069.825
897.44466	38835.825
901.24235	38718.825
905.0374	38709.225
908.8298	38670.625
912.61957	38707.425
916.40671	39119.425
920.19121	39677.625
923.97308	40277.625
927.75233	40621.825
931.52895	40398.525
935.30295	39909.825
939.07433	39060.525
942.84309	38506.825
946.60924	38376.825
950.37278	38307.325
954.13371	38223.825
957.89203	38050.225
961.64774	37925.125
965.40086	37853.425
969.15137	37771.025
972.89929	37642.325
976.64461	37677.625
980.38733	37677.025
984.12747	38063.925
987.86502	38590.625
991.59999	39259.225
995.33237	40097.325
999.06217	41353.225
1002.78939	42764.025
1006.51404	43681.025
1010.23611	44269.525
1013.95561	44500.725
1017.67255	44208.525
1021.38692	43516.325
1025.09872	42952.525
1028.80796	43331.325
1032.51465	44727.225
1036.21877	46013.025
1039.92035	46265.525
1043.61937	45539.725
1047.31584	44446.125
1051.00976	43148.225
1054.70114	42494.125
1058.38998	42493.725
1062.07627	42901.625
1065.76003	43460.925
1069.44126	44172.225
1073.11995	45234.525
1076.79611	46155.925
1080.46974	46521.825
1084.14085	46730.725
1087.80943	46919.125
1091.47549	47066.725
1095.13903	46870.925
1098.80005	46195.525
1102.45857	45155.925
1106.11456	44330.625
1109.76805	43948.625
1113.41903	44033.325
1117.06751	44302.325
1120.71348	44551.625
1124.35696	44993.925
1127.99793	45493.525
1131.63641	45790.625
1135.2724	45513.325
1138.90589	45184.825
1142.5369	44999.325
1146.16542	44978.925
1149.79145	45070.425
1153.415	45284.925
1157.03607	45892.325
1160.65467	46941.925
1164.27079	48884.525
1167.88443	51439.425
1171.49561	54623.925
1175.10432	58810.325
1178.71056	64025.325
1182.31434	68928.825
1185.91565	71290.925
1189.51451	70865.725
1193.11091	68236.125
1196.70485	64779.325
1200.29634	61846.225
1203.88538	59825.725
1207.47197	58517.625
1211.05612	57501.825
1214.63782	56698.625
1218.21708	56164.325
1221.79391	55706.625
1225.36829	55323.525
1228.94024	54809.525
1232.50976	53897.525
1236.07685	53212.425
1239.6415	52821.525
1243.20374	52830.925
1246.76355	53196.225
1250.32093	54064.225
1253.8759	55345.925
1257.42845	57019.525
1260.97859	58699.625
1264.52631	60250.325
1268.07163	61933.625
1271.61453	63759.525
1275.15503	65790.125
1278.69312	67732.325
1282.22882	69394.925
1285.76211	70936.625
1289.29301	72686.225
1292.82151	74773.525
1296.34761	77612.525
1299.87133	81598.425
1303.39266	86558.925
1306.9116	92114.125
1310.42815	97459.525
1313.94233	100890.525
1317.45412	100959.725
1320.96354	98851.025
1324.47058	96391.125
1327.97525	94178.325
1331.47754	92794.425
1334.97747	92086.425
1338.47502	91684.725
1341.97022	90885.725
1345.46305	89286.925
1348.95352	87622.925
1352.44163	87130.425
1355.92738	88910.125
1359.41078	93368.425
1362.89183	97773.925
1366.37053	96559.525
1369.84688	88893.925
1373.32088	79552.225
1376.79254	72838.025
1380.26186	70058.625
1383.72883	69451.225
1387.19347	68925.225
1390.65578	67853.325
1394.11575	67317.625
1397.57339	67583.925
1401.0287	68839.625
1404.48168	70100.425
1407.93234	70800.825
1411.38068	70405.625
1414.82669	68805.525
1418.27039	66274.625
1421.71177	63699.025
1425.15083	61481.825
1428.58758	60197.525
1432.02203	60417.025
1435.45416	61771.525
1438.88399	63583.125
1442.31151	65134.825
1445.73673	66320.425
1449.15965	67110.825
1452.58027	67546.625
1455.9986	67560.925
1459.41463	67827.025
1462.82837	68880.825
1466.23982	70622.925
1469.64898	72193.425
1473.05586	73127.825
1476.46045	73392.125
1479.86276	73030.825
1483.26279	72320.325
1486.66054	71620.225
1490.05602	71514.425
1493.44922	71759.525
1496.84016	72352.325
1500.22882	73533.325
1503.61521	75761.025
1506.99934	78580.425
1510.38121	81273.525
1513.76081	82256.725
1517.13816	80507.425
1520.51324	76919.225
1523.88607	73505.525
1527.25665	71284.325
1530.62498	70297.025
1533.99105	69682.825
1537.35488	69127.425
1540.71647	68456.325
1544.07581	67487.025
1547.4329	66451.225
1550.78776	65413.925
1554.14038	64693.725
1557.49077	64236.025
1560.83892	64064.525
1564.18484	64036.825
1567.52853	64312.225
1570.86999	64984.325
1574.20922	66170.525
1577.54624	67408.025
1580.88103	67804.225
1584.2136	68234.525
1587.54395	69676.825
1590.87208	72587.325
1594.19801	76844.825
1597.52172	81437.925
1600.84321	82660.125
1604.16251	78882.325
1607.47959	72442.825
1610.79447	65883.225
1614.10715	60174.125
1617.41763	55621.725
1620.7259	52603.425
1624.03199	51102.825
1627.33587	51166.825
1630.63757	52623.725
1633.93707	55875.425
1637.23439	61101.225
1640.52951	68202.225
1643.82246	76089.225
1647.11321	82015.425
1650.40179	82676.925
1653.68819	77002.725
1656.97241	67247.225
1660.25446	57646.925
1663.53433	50607.225
1666.81203	45959.325
1670.08756	43217.325
1673.36092	41399.325
1676.63211	40208.525
1679.90115	39325.125
1683.16801	38619.525
1686.43272	38209.525
1689.69527	37886.025
1692.95567	37619.125
1696.2139	37435.825
1699.46999	37331.625
1702.72392	37254.625
1705.97571	37122.825
1709.22535	37018.225
1712.47284	37054.225
1715.71819	36957.625
1718.96139	36853.325
1722.20246	36720.125
1725.44139	36603.625
1728.67818	36403.025
1731.91284	36171.725
1735.14537	35985.925
1738.37576	35804.625
1741.60403	35678.725
1744.83017	35545.125
1748.05418	35480.525
1751.27607	35375.525
1754.49584	35316.425
1757.71349	35257.925
1760.92903	35236.625
1764.14244	35224.325
1767.35375	35266.325
1770.56294	35174.025
1773.77002	35094.325
1776.97499	35099.325
1780.17785	34993.325
1783.37861	35037.625
1786.57727	34927.025
1789.77382	34842.525
1792.96828	34828.525
1796.16064	34746.825
1799.3509	34659.925
1802.53907	34647.625
1805.72514	34572.225
1808.90913	34440.025
1812.09102	34389.025
1815.27083	34337.225
1818.44856	34280.025
1821.6242	34250.125
1824.79776	34198.725
1827.96924	34163.825
1831.13864	34146.725
1834.30597	34152.625
1837.47122	34196.625
1840.6344	34127.425
1843.7955	34165.625
1846.95454	34078.925
1850.11151	34091.725
1853.26642	34067.425
1856.41926	34066.325
1859.57004	34103.725
1862.71876	34063.525
1865.86542	34054.425
1869.01003	34085.325
1872.15258	34100.625
1875.29308	34023.825
1878.43152	34054.825
1881.56792	33991.325
1884.70227	33985.725
1887.83457	34009.825
1890.96482	34035.425
1894.09304	33970.625
1897.21921	33945.225
1900.34335	33930.525
1903.46544	33907.725
1906.58551	33890.825
1909.70353	33894.625
1912.81953	33855.025
1915.93349	33819.225
1919.04543	33767.025
1922.15534	33734.925
1925.26322	33646.225
1928.36908	33555.025
1931.47292	33468.925
1934.57473	33436.125
1937.67453	33308.825
1940.77232	33155.725
1943.86808	33092.725
1946.96184	32919.425
1950.05358	32801.725
1953.14331	32693.125
1956.23103	32639.125
1959.31675	32555.525
1962.40046	32509.025
1965.48217	32420.625
1968.56188	32288.425
1971.63959	32239.625
1974.7153	32109.725
1977.78901	31991.325
1980.86073	31925.025
1983.93046	31825.625
1986.99819	31700.825
1990.06394	31655.325
1993.1277	31615.025
1996.18947	31483.425
1999.24925	31374.325
2002.30706	31281.625
2005.36288	31186.425
2008.41672	31106.125
2011.46859	31038.725
2014.51848	31006.325
2017.56639	30906.625
2020.61233	30798.625
2023.6563	30786.325
2026.6983	30702.625
2029.73833	30656.025
2032.7764	30615.525
2035.8125	30607.725
2038.84664	30591.925
2041.87881	30576.125
2044.90903	30509.125
2047.93729	30468.025
2050.96359	30417.525
2053.98794	30361.425
2057.01034	30330.125
2060.03078	30307.225
2063.04927	30283.425
2066.06582	30271.825
2069.08042	30246.525
2072.09307	30221.725
2075.10378	30181.925
2078.11255	30171.325
2081.11938	30218.025
2084.12426	30144.525
2087.12722	30107.925
2090.12824	30072.825
2093.12732	30112.525
2096.12447	30106.625
2099.11969	30074.525
2102.11299	30148.325
2105.10435	30120.325
2108.09379	30168.825
2111.08131	30159.925
2114.0669	30186.425
2117.05057	30143.925
2120.03233	30179.225
2123.01216	30234.425
2125.99008	30245.825
2128.96609	30283.325
2131.94018	30331.925
2134.91236	30318.125
2137.88263	30294.125
2140.851	30315.625
2143.81746	30409.525
2146.78201	30404.725
2149.74466	30380.125
2152.7054	30446.225
2155.66425	30458.125
2158.6212	30451.325
2161.57625	30451.725
2164.52941	30410.625
2167.48067	30430.225
2170.43004	30405.325
2173.37752	30387.025
2176.32311	30378.625
2179.26681	30384.925
2182.20863	30415.225
2185.14856	30434.425
2188.08661	30443.825
2191.02278	30448.625
2193.95707	30421.025
2196.88948	30423.225
2199.82001	30441.625
2202.74867	30396.625
2205.67545	30409.025
2208.60037	30335.125
2211.52341	30391.225
2214.44458	30367.525
2217.36388	30259.425
2220.28132	30271.225
2223.1969	30203.725
2226.11061	30157.925
2229.02246	30103.725
2231.93245	30054.425
2234.84058	30024.325
2237.74686	29900.425
2240.65128	29909.325
2243.55385	29843.125
2246.45456	29790.225
2249.35343	29798.225
2252.25044	29739.725
2255.14561	29649.725
2258.03893	29735.125
2260.93041	29600.025
2263.82004	29520.925
2266.70783	29458.125
2269.59378	29429.225
2272.4779	29382.225
2275.36017	29323.325
2278.24061	29204.425
2281.11922	29190.125
2283.996	29128.425
2286.87094	29088.725
2289.74405	29047.325
2292.61534	29023.525
2295.4848	29054.725
2298.35243	29062.025
2301.21824	29045.925
2304.08223	29091.425
2306.94439	29146.525
2309.80474	29099.025
2312.66327	29128.125
2315.51999	29093.925
2318.37489	29139.125
2321.22797	29117.825
2324.07925	29116.225
2326.92871	29117.425
2329.77637	29130.425
2332.62222	29105.425
2335.46626	29061.125
2338.3085	29084.825
2341.14893	29072.625
2343.98756	29111.825
2346.8244	29101.625
2349.65943	29098.725
2352.49267	29065.025
2355.32411	29063.725
2358.15376	29048.525
2360.98161	29016.325
2363.80768	28939.525
2366.63195	28944.625
2369.45444	28896.825
2372.27514	28858.525
2375.09405	28781.825
2377.91118	28694.225
2380.72652	28599.825
2383.54009	28541.125
2386.35187	28532.625
2389.16188	28501.725
2391.97011	28421.325
2394.77657	28432.425
2397.58125	28375.125
2400.38416	28344.925
2403.18529	28302.825
2405.98466	28290.425
2408.78226	28186.625
2411.57809	28148.025
2414.37216	28083.925
2417.16446	28121.225
2419.955	28012.725
2422.74378	28013.325
2425.5308	27958.025
2428.31606	28017.725
2431.09956	27975.625
2433.88131	27930.825
2436.6613	27924.425
2439.43954	27935.425
2442.21603	27929.925
2444.99077	27888.625
2447.76377	27888.125
2450.53501	27882.925
2453.30451	27879.625
2456.07226	27887.925
2458.83827	27892.225
2461.60254	27859.625
2464.36507	27865.625
2467.12586	27894.725
2469.88492	27893.925
2472.64224	27864.325
2475.39782	27902.125
2478.15167	27919.525
2480.90379	27985.225
2483.65417	27971.825
2486.40283	27982.325
2489.14976	27979.625
2491.89497	27945.925
2494.63845	27994.125
2497.3802	27976.325
2500.12024	28002.025
2502.85855	27974.625
2505.59514	27994.625
2508.33002	27954.425
2511.06318	27856.825
2513.79462	27864.625
2516.52435	27837.225
2519.25237	27844.925
2521.97867	27858.925
2524.70327	27828.425
2527.42616	27764.925
2530.14734	27785.425
2532.86681	27746.325
2535.58458	27729.025
2538.30065	27707.125
2541.01501	27729.125
2543.72768	27688.325
2546.43864	27684.125
2549.14791	27671.825
2551.85548	27650.725
2554.56136	27631.225
2557.26554	27591.525
2559.96803	27578.925
2562.66883	27534.625
2565.36794	27551.325
2568.06536	27518.925
2570.7611	27509.625
2573.45514	27506.325
2576.14751	27457.525
2578.83819	27454.225
2581.52719	27453.425
2584.21451	27478.125
2586.90015	27456.425
2589.58411	27381.625
2592.2664	27431.125
2594.94701	27350.625
2597.62594	27376.325
2600.30321	27379.125
2602.9788	27359.225
2605.65273	27339.125
2608.32498	27357.625
2610.99557	27318.825
2613.66449	27364.525
2616.33175	27306.325
2618.99734	27296.625
2621.66128	27372.425
2624.32355	27357.025
2626.98416	27295.425
2629.64311	27314.925
2632.30041	27295.325
2634.95605	27284.125
2637.61004	27301.425
2640.26238	27235.325
2642.91306	27213.225
2645.56209	27183.725
2648.20948	27184.025
2650.85521	27157.725
2653.4993	27123.625
2656.14175	27178.825
2658.78255	27150.325
2661.42171	27150.725
2664.05923	27196.425
2666.6951	27170.025
2669.32934	27254.325
2671.96194	27249.225
2674.59291	27263.925
2677.22224	27246.525
2679.84993	27257.325
2682.476	27237.125
2685.10043	27198.325
2687.72324	27161.925
2690.34441	27160.425
2692.96396	27095.325
2695.58188	27133.825
2698.19818	27067.125
2700.81285	27109.725
2703.4259	27091.825
2706.03733	27112.025
2708.64714	27124.125
2711.25533	27145.325
2713.86191	27122.625
2716.46687	27167.825
2719.07021	27134.225
2721.67194	27169.925
2724.27206	27149.625
2726.87057	27168.825
2729.46747	27206.025
2732.06276	27175.225
2734.65644	27173.925
2737.24852	27178.925
2739.83899	27163.425
2742.42786	27190.625
2745.01513	27172.725
2747.60079	27199.025
2750.18486	27147.325
2752.76733	27139.425
2755.3482	27145.625
2757.92747	27097.325
2760.50515	27039.125
2763.08123	27038.325
2765.65573	27070.225
2768.22863	27039.325
2770.79994	27036.225
2773.36967	27082.025
2775.9378	27034.325
2778.50435	27025.025
2781.06932	26988.025
2783.6327	27022.325
2786.1945	26990.925
2788.75471	26967.125
2791.31335	26927.825
2793.87041	26895.125
2796.42589	26827.025
2798.97979	26771.525
2801.53212	26742.925
2804.08288	26702.925
2806.63206	26628.225
2809.17967	26579.625
2811.72571	26527.925
2814.27018	26552.525
2816.81308	26492.625
2819.35442	26500.525
2821.89419	26411.825
2824.43239	26369.025
2826.96904	26349.125
2829.50412	26331.125
2832.03763	26261.825
2834.56959	26253.125
2837.1	26207.325
2839.62884	26215.025
2842.15613	26153.025
2844.68186	26183.425
2847.20604	26141.825
2849.72867	26140.525
2852.24974	26097.425
2854.76927	26123.225
2857.28724	26059.125
2859.80367	26079.725
2862.31855	26038.625
2864.83189	26002.425
2867.34368	25961.225
2869.85393	25978.925
2872.36264	25975.325
2874.8698	25962.725
2877.37543	26005.725
2879.87952	25958.525
2882.38207	25968.925
2884.88308	25969.625
2887.38256	25997.225
2889.88051	25944.525
2892.37692	25975.925
2894.8718	25991.025
2897.36515	25998.625
2899.85698	26009.225
2902.34727	26064.325
2904.83604	26075.825
2907.32328	26139.025
2909.809	26134.625
2912.29319	26173.925
2914.77587	26159.425
2917.25702	26114.725
2919.73665	26093.625
2922.21476	26088.625
2924.69136	26110.625
2927.16644	26077.425
2929.64	26059.025
2932.11205	26015.525
2934.58258	25927.825
2937.05161	25921.825
2939.51912	25945.725
2941.98513	25903.525
2944.44962	25825.325
2946.91261	25777.825
2949.37409	25824.825
2951.83407	25783.325
2954.29254	25746.425
2956.74951	25754.525
2959.20498	25740.625
2961.65895	25708.425
2964.11142	25677.725
2966.56239	25610.625
2969.01186	25620.325
2971.45984	25491.925
2973.90632	25450.525
2976.35131	25411.125
2978.7948	25357.225
2981.23681	25338.325
2983.67732	25230.725
2986.11635	25151.925
2988.55388	25098.225
2990.98993	25030.725
2993.4245	24995.725
2995.85758	24936.725
2998.28917	24911.725
3000.71928	24880.625
3003.14791	24813.325
3005.57506	24788.725
3008.00073	24720.425
3010.42493	24689.425
3012.84764	24710.825
3015.26888	24677.225
3017.68865	24591.625
3020.10694	24569.425
3022.52376	24502.625
3024.9391	24468.125
3027.35298	24414.425
3029.76539	24407.125
3032.17632	24348.325
3034.5858	24329.525
3036.9938	24317.425
3039.40034	24288.025
3041.80542	24239.225
3044.20903	24225.025
3046.61118	24153.025
3049.01187	24104.525
3051.4111	24116.725
3053.80888	24002.125
3056.20519	24024.925
3058.60005	23934.425
3060.99345	23940.625
3063.3854	23890.125
3065.7759	23795.725
3068.16494	23761.125
3070.55254	23653.925
3072.93868	23637.825
3075.32338	23548.925
3077.70662	23511.425
3080.08842	23454.225
3082.46878	23453.225
3084.84769	23385.025
3087.22515	23341.825
3089.60118	23352.825
3091.97576	23337.325
3094.3489	23328.825
3096.72061	23308.325
3099.09087	23310.125
3101.4597	23274.825
3103.82709	23240.725
3106.19305	23229.825
3108.55757	23248.625
3110.92066	23142.125
3113.28232	23106.325
3115.64255	22979.025
3118.00134	22980.225
3120.35871	22938.925
3122.71466	22897.725
3125.06917	22834.425
3127.42226	22796.925
3129.77393	22775.225
3132.12417	22758.825
3134.47299	22753.125
3136.82039	22735.225
3139.16636	22740.925
3141.51092	22741.625
3143.85406	22749.825
3146.19579	22740.025
3148.53609	22684.525
3150.87499	22721.725
3153.21246	22679.525
3155.54853	22698.925
3157.88318	22628.825
3160.21642	22620.825
3162.54826	22622.925
3164.87868	22586.325
3167.2077	22567.225
3169.5353	22598.025
3171.86151	22565.325
3174.18631	22563.525
3176.5097	22513.325
3178.83169	22477.325
3181.15228	22496.325
3183.47147	22450.825
3185.78926	22445.425
3188.10565	22432.525
3190.42065	22401.625
3192.73424	22392.825
3195.04645	22409.825
3197.35725	22447.925
3199.66667	22413.825
3201.97469	22418.125
3204.28132	22364.425
3206.58656	22365.425
3208.8904	22374.125
3211.19287	22332.225
3213.49394	22290.025
3215.79363	22318.925
3218.09193	22326.425
3220.38884	22321.325
3222.68438	22319.725
3224.97853	22248.925
3227.2713	22271.725
3229.56269	22213.425
3231.8527	22245.625
3234.14133	22180.025
3236.42858	22160.725
3238.71446	22181.125
3240.99896	22116.125
3243.28209	22088.825
3245.56384	22038.325
3247.84423	22075.425
3250.12324	22018.625
3252.40088	22006.325
3254.67715	21971.425
3256.95205	21928.625
3259.22558	21950.425
3261.49775	21895.425
3263.76855	21902.725
3266.03799	21851.625
3268.30606	21833.125
3270.57277	21805.125
3272.83812	21754.125
3275.10211	21704.325
3277.36474	21729.625
3279.62601	21693.825
3281.88593	21664.225
3284.14448	21702.225
3286.40168	21705.225
3288.65753	21659.925
3290.91202	21650.525
3293.16516	21541.625
3295.41695	21502.125
3297.66738	21390.725
3299.91647	21310.125
3302.16421	21151.125
3304.4106	21106.725
3306.65564	20987.725
3308.89933	20839.825
3311.14169	20747.925
3313.38269	20525.425
3315.62236	20440.425
3317.86068	20266.725
3320.09766	20113.125
3322.3333	19915.225
3324.5676	19893.125
3326.80056	19552.725
3329.03219	19455.025
3331.26248	5.325
3333.49143	0.725
3335.71905	-0.775
