Data from AgNP_FTO_APTES_CRN_500uM_R6G_10uM_NaF_0.1M_Addition_RamanShift__35__20-44-28-256.txt Node

Date: Wed Dec 15 20:44:28 GMT 2021
User: TCL
Spectrometer: QEP01345
Trigger mode: 4
Integration Time (sec): 7.000000E0
Scans to average: 10
Electric dark correction enabled: true
Nonlinearity correction enabled: false
Boxcar width: 0
XAxis mode: Raman Shifts
Number of Pixels in Spectrum: 1044
>>>>>Begin Spectral Data<<<<<
46.04893	1.0875
50.45542	-1.2125
54.85868	0.7875
59.25871	0.3875
63.6555	46.1875
68.04907	50.9875
72.43941	53.2875
76.82654	53.4875
81.21044	58.8875
85.59113	59.6875
89.96862	62.2875
94.34289	62.0875
98.71396	70.0875
103.08183	74.3875
107.4465	75.5875
111.80798	74.5875
116.16626	75.8875
120.52136	75.2875
124.87327	76.4875
129.222	81.3875
133.56755	82.9875
137.90993	86.1875
142.24913	92.4875
146.58517	102.4875
150.91804	113.0875
155.24774	131.4875
159.57429	155.3875
163.89768	197.7875
168.21792	250.2875
172.53501	340.0875
176.84895	459.2875
181.15975	638.5875
185.46741	880.0875
189.77193	1218.3875
194.07331	1624.5875
198.37157	2076.8875
202.6667	2576.2875
206.9587	3052.3875
211.24758	3518.8875
215.53334	4007.6875
219.81599	4561.3875
224.09553	5191.0875
228.37195	5860.1875
232.64527	6592.1875
236.91549	7314.4875
241.18261	7978.4875
245.44663	8524.6875
249.70755	8972.3875
253.96539	9346.8875
258.22014	9655.8875
262.4718	9915.2875
266.72039	10140.6875
270.96589	10220.2875
275.20832	10226.2875
279.44768	10112.4875
283.68397	9976.2875
287.91719	9885.4875
292.14735	9869.9875
296.37445	10033.3875
300.59849	10371.3875
304.81948	10813.1875
309.03742	11115.3875
313.25231	11148.9875
317.46415	10671.1875
321.67296	9931.6875
325.87872	9270.3875
330.08145	8976.0875
334.28114	8967.4875
338.47781	9133.5875
342.67145	9348.3875
346.86207	9772.9875
351.04966	10356.0875
355.23424	10993.3875
359.4158	11483.4875
363.59435	11703.4875
367.76989	11802.2875
371.94243	11736.3875
376.11196	11680.8875
380.27849	11596.9875
384.44203	11453.4875
388.60257	11298.8875
392.76012	11215.4875
396.91468	11308.1875
401.06626	11594.1875
405.21485	11803.7875
409.36047	11638.4875
413.50311	11063.4875
417.64277	10545.3875
421.77947	10243.0875
425.9132	10166.3875
430.04396	10140.6875
434.17176	10209.8875
438.2966	10394.8875
442.41849	10686.1875
446.53742	11040.4875
450.6534	11367.1875
454.76644	11578.3875
458.87653	11597.0875
462.98368	11459.0875
467.08789	11276.6875
471.18916	11059.8875
475.2875	10787.2875
479.38291	10582.2875
483.4754	10394.4875
487.56496	10224.8875
491.6516	10131.8875
495.73531	10068.0875
499.81612	10089.9875
503.89401	10198.1875
507.96899	10383.2875
512.04106	10631.9875
516.11023	10869.5875
520.1765	11105.3875
524.23987	11180.3875
528.30034	11016.2875
532.35792	10779.0875
536.41261	10521.5875
540.46441	10243.0875
544.51333	10135.5875
548.55936	10144.5875
552.60252	10329.7875
556.64279	10600.5875
560.6802	10740.3875
564.71473	10857.9875
568.7464	11246.7875
572.7752	11494.0875
576.80114	11128.7875
580.82422	10700.4875
584.84444	10513.5875
588.86181	10555.3875
592.87633	10714.9875
596.888	10906.4875
600.89682	11213.2875
604.9028	12387.9875
608.90594	15543.7875
612.90624	19675.1875
616.90371	18992.1875
620.89834	13610.4875
624.89015	11034.5875
628.87913	10490.4875
632.86528	10528.8875
636.84862	10686.8875
640.82913	10611.2875
644.80683	10278.6875
648.78172	10070.7875
652.75379	10204.9875
656.72306	10640.4875
660.68952	11075.7875
664.65319	10981.6875
668.61405	10521.4875
672.57211	10310.4875
676.52738	10340.1875
680.47986	10335.9875
684.42955	10282.7875
688.37646	10225.7875
692.32058	10239.3875
696.26192	10304.7875
700.20048	10428.9875
704.13626	10470.6875
708.06928	10368.7875
711.99952	10236.1875
715.927	10165.3875
719.85171	10135.6875
723.77365	10060.3875
727.69284	9902.5875
731.60928	9800.6875
735.52295	9759.9875
739.43388	9786.4875
743.34206	9782.2875
747.24749	9777.2875
751.15017	9807.7875
755.05012	9969.5875
758.94733	10419.3875
762.8418	11477.3875
766.73354	13245.7875
770.62254	15142.5875
774.50882	16116.0875
778.39237	15512.6875
782.27321	13522.3875
786.15132	11504.6875
790.02671	10339.7875
793.89938	9856.0875
797.76935	9633.5875
801.6366	9532.2875
805.50115	9463.1875
809.36299	9405.2875
813.22213	9363.3875
817.07857	9352.9875
820.93231	9360.0875
824.78336	9399.4875
828.63172	9457.3875
832.47738	9480.0875
836.32036	9472.9875
840.16066	9397.4875
843.99827	9345.5875
847.8332	9297.4875
851.66546	9285.2875
855.49504	9240.1875
859.32195	9227.8875
863.1462	9160.0875
866.96777	9117.6875
870.78668	9081.9875
874.60293	9071.0875
878.41652	9084.7875
882.22745	9130.0875
886.03573	9144.2875
889.84136	9104.8875
893.64433	9079.2875
897.44466	9062.2875
901.24235	9048.4875
905.0374	9024.5875
908.8298	8993.4875
912.61957	8987.4875
916.40671	9013.5875
920.19121	9067.3875
923.97308	9153.3875
927.75233	9238.9875
931.52895	9347.3875
935.30295	9249.9875
939.07433	8979.8875
942.84309	8753.2875
946.60924	8610.2875
950.37278	8534.5875
954.13371	8485.9875
957.89203	8445.0875
961.64774	8411.2875
965.40086	8383.2875
969.15137	8355.8875
972.89929	8315.8875
976.64461	8292.5875
980.38733	8290.9875
984.12747	8332.2875
987.86502	8341.9875
991.59999	8373.5875
995.33237	8446.6875
999.06217	8577.3875
1002.78939	8746.2875
1006.51404	8923.0875
1010.23611	9120.7875
1013.95561	9231.3875
1017.67255	9176.9875
1021.38692	9038.3875
1025.09872	8894.2875
1028.80796	8778.6875
1032.51465	8814.3875
1036.21877	8913.9875
1039.92035	9024.0875
1043.61937	9110.9875
1047.31584	9165.4875
1051.00976	9148.8875
1054.70114	9142.5875
1058.38998	9132.6875
1062.07627	9245.2875
1065.76003	9414.4875
1069.44126	9653.6875
1073.11995	9971.7875
1076.79611	10313.5875
1080.46974	10506.9875
1084.14085	10603.3875
1087.80943	10550.3875
1091.47549	10371.1875
1095.13903	10020.6875
1098.80005	9604.6875
1102.45857	9292.5875
1106.11456	9165.5875
1109.76805	9257.1875
1113.41903	9460.0875
1117.06751	9765.8875
1120.71348	10195.9875
1124.35696	10639.2875
1127.99793	11048.0875
1131.63641	10977.4875
1135.2724	10446.2875
1138.90589	9968.0875
1142.5369	9671.0875
1146.16542	9444.5875
1149.79145	9321.6875
1153.415	9316.3875
1157.03607	9390.0875
1160.65467	9587.2875
1164.27079	9919.0875
1167.88443	10470.3875
1171.49561	11405.2875
1175.10432	12861.6875
1178.71056	14676.0875
1182.31434	15836.4875
1185.91565	15860.0875
1189.51451	15283.4875
1193.11091	14369.8875
1196.70485	13344.0875
1200.29634	12590.0875
1203.88538	11937.0875
1207.47197	11249.6875
1211.05612	10666.5875
1214.63782	10375.6875
1218.21708	10302.2875
1221.79391	10299.3875
1225.36829	10330.4875
1228.94024	10351.4875
1232.50976	10334.5875
1236.07685	10389.5875
1239.6415	10476.0875
1243.20374	10561.4875
1246.76355	10600.4875
1250.32093	10716.3875
1253.8759	10898.5875
1257.42845	11218.8875
1260.97859	11533.7875
1264.52631	11849.8875
1268.07163	12191.8875
1271.61453	12494.9875
1275.15503	12588.2875
1278.69312	12593.3875
1282.22882	12608.8875
1285.76211	12871.3875
1289.29301	13285.4875
1292.82151	13750.0875
1296.34761	14193.4875
1299.87133	14876.6875
1303.39266	15983.8875
1306.9116	17689.7875
1310.42815	19648.4875
1313.94233	20698.5875
1317.45412	20237.3875
1320.96354	18804.7875
1324.47058	17249.2875
1327.97525	15971.9875
1331.47754	15281.5875
1334.97747	15087.4875
1338.47502	15286.5875
1341.97022	15722.2875
1345.46305	16389.1875
1348.95352	17403.5875
1352.44163	18901.4875
1355.92738	20998.9875
1359.41078	23929.1875
1362.89183	26467.9875
1366.37053	25482.6875
1369.84688	21730.2875
1373.32088	18097.2875
1376.79254	15763.1875
1380.26186	14552.5875
1383.72883	13861.2875
1387.19347	13269.4875
1390.65578	12704.9875
1394.11575	12204.6875
1397.57339	11929.1875
1401.0287	11911.7875
1404.48168	12031.2875
1407.93234	12123.0875
1411.38068	12192.4875
1414.82669	12160.7875
1418.27039	11999.6875
1421.71177	11765.6875
1425.15083	11551.0875
1428.58758	11452.1875
1432.02203	11528.4875
1435.45416	11640.4875
1438.88399	11709.8875
1442.31151	11675.5875
1445.73673	11695.7875
1449.15965	11712.9875
1452.58027	11671.1875
1455.9986	11543.5875
1459.41463	11519.8875
1462.82837	11638.7875
1466.23982	11896.5875
1469.64898	12167.4875
1473.05586	12396.1875
1476.46045	12559.4875
1479.86276	12718.0875
1483.26279	13011.5875
1486.66054	13315.1875
1490.05602	13710.4875
1493.44922	14270.7875
1496.84016	15119.6875
1500.22882	16460.5875
1503.61521	18279.1875
1506.99934	20363.1875
1510.38121	22257.1875
1513.76081	23105.6875
1517.13816	22012.0875
1520.51324	19352.4875
1523.88607	16727.4875
1527.25665	14989.0875
1530.62498	14072.0875
1533.99105	13584.0875
1537.35488	13290.7875
1540.71647	13144.5875
1544.07581	13016.7875
1547.4329	12985.8875
1550.78776	12907.1875
1554.14038	12859.6875
1557.49077	12850.6875
1560.83892	13011.2875
1564.18484	13365.8875
1567.52853	13890.4875
1570.86999	14399.5875
1574.20922	14928.8875
1577.54624	15151.6875
1580.88103	14660.2875
1584.2136	13741.2875
1587.54395	12906.4875
1590.87208	12649.8875
1594.19801	13050.5875
1597.52172	13802.0875
1600.84321	14208.2875
1604.16251	13833.7875
1607.47959	13005.0875
1610.79447	12023.4875
1614.10715	11103.6875
1617.41763	10400.1875
1620.7259	9944.5875
1624.03199	9735.1875
1627.33587	9712.6875
1630.63757	9837.6875
1633.93707	10231.2875
1637.23439	10874.5875
1640.52951	11892.2875
1643.82246	13281.4875
1647.11321	14948.8875
1650.40179	16053.7875
1653.68819	15657.8875
1656.97241	13743.8875
1660.25446	11591.8875
1663.53433	10088.3875
1666.81203	9183.1875
1670.08756	8656.9875
1673.36092	8340.0875
1676.63211	8152.2875
1679.90115	8032.2875
1683.16801	7881.0875
1686.43272	7812.5875
1689.69527	7737.0875
1692.95567	7675.2875
1696.2139	7664.4875
1699.46999	7647.8875
1702.72392	7621.9875
1705.97571	7583.1875
1709.22535	7560.5875
1712.47284	7538.8875
1715.71819	7539.8875
1718.96139	7551.5875
1722.20246	7534.7875
1725.44139	7526.6875
1728.67818	7447.9875
1731.91284	7377.0875
1735.14537	7321.7875
1738.37576	7283.2875
1741.60403	7252.6875
1744.83017	7222.7875
1748.05418	7195.3875
1751.27607	7166.5875
1754.49584	7167.0875
1757.71349	7161.2875
1760.92903	7156.9875
1764.14244	7150.6875
1767.35375	7130.6875
1770.56294	7095.4875
1773.77002	7084.5875
1776.97499	7063.5875
1780.17785	7033.4875
1783.37861	7003.9875
1786.57727	6975.3875
1789.77382	6949.3875
1792.96828	6932.6875
1796.16064	6939.4875
1799.3509	6917.6875
1802.53907	6888.8875
1805.72514	6883.2875
1808.90913	6858.6875
1812.09102	6837.6875
1815.27083	6802.5875
1818.44856	6801.2875
1821.6242	6791.4875
1824.79776	6792.1875
1827.96924	6762.0875
1831.13864	6750.3875
1834.30597	6749.2875
1837.47122	6743.5875
1840.6344	6726.3875
1843.7955	6716.5875
1846.95454	6721.1875
1850.11151	6709.9875
1853.26642	6684.4875
1856.41926	6704.9875
1859.57004	6687.2875
1862.71876	6690.4875
1865.86542	6687.1875
1869.01003	6665.5875
1872.15258	6682.7875
1875.29308	6671.9875
1878.43152	6658.4875
1881.56792	6668.4875
1884.70227	6646.8875
1887.83457	6652.0875
1890.96482	6668.5875
1894.09304	6644.6875
1897.21921	6637.9875
1900.34335	6644.7875
1903.46544	6635.3875
1906.58551	6622.3875
1909.70353	6621.1875
1912.81953	6608.2875
1915.93349	6614.3875
1919.04543	6602.2875
1922.15534	6589.5875
1925.26322	6566.9875
1928.36908	6565.8875
1931.47292	6544.6875
1934.57473	6520.3875
1937.67453	6498.2875
1940.77232	6469.7875
1943.86808	6439.0875
1946.96184	6422.4875
1950.05358	6405.4875
1953.14331	6377.7875
1956.23103	6358.1875
1959.31675	6358.6875
1962.40046	6320.1875
1965.48217	6303.2875
1968.56188	6305.0875
1971.63959	6269.8875
1974.7153	6252.7875
1977.78901	6234.1875
1980.86073	6210.0875
1983.93046	6183.5875
1986.99819	6177.1875
1990.06394	6160.3875
1993.1277	6114.5875
1996.18947	6086.6875
1999.24925	6086.4875
2002.30706	6060.2875
2005.36288	6035.3875
2008.41672	6017.0875
2011.46859	5996.5875
2014.51848	5995.9875
2017.56639	5976.9875
2020.61233	5945.8875
2023.6563	5949.0875
2026.6983	5922.9875
2029.73833	5921.4875
2032.7764	5878.6875
2035.8125	5877.9875
2038.84664	5873.2875
2041.87881	5863.3875
2044.90903	5839.7875
2047.93729	5841.2875
2050.96359	5833.5875
2053.98794	5814.2875
2057.01034	5805.0875
2060.03078	5786.6875
2063.04927	5795.4875
2066.06582	5775.5875
2069.08042	5776.5875
2072.09307	5777.8875
2075.10378	5749.0875
2078.11255	5738.1875
2081.11938	5744.7875
2084.12426	5766.0875
2087.12722	5754.0875
2090.12824	5742.9875
2093.12732	5752.8875
2096.12447	5748.3875
2099.11969	5746.1875
2102.11299	5763.1875
2105.10435	5743.8875
2108.09379	5764.0875
2111.08131	5749.8875
2114.0669	5748.4875
2117.05057	5731.8875
2120.03233	5739.4875
2123.01216	5761.6875
2125.99008	5758.3875
2128.96609	5755.8875
2131.94018	5755.9875
2134.91236	5764.4875
2137.88263	5757.8875
2140.851	5762.1875
2143.81746	5758.6875
2146.78201	5758.8875
2149.74466	5747.3875
2152.7054	5741.9875
2155.66425	5746.9875
2158.6212	5749.2875
2161.57625	5744.2875
2164.52941	5732.6875
2167.48067	5728.1875
2170.43004	5718.8875
2173.37752	5714.5875
2176.32311	5708.9875
2179.26681	5709.6875
2182.20863	5716.3875
2185.14856	5729.5875
2188.08661	5710.0875
2191.02278	5693.6875
2193.95707	5677.8875
2196.88948	5668.3875
2199.82001	5665.3875
2202.74867	5678.4875
2205.67545	5652.6875
2208.60037	5656.3875
2211.52341	5635.1875
2214.44458	5638.2875
2217.36388	5609.1875
2220.28132	5621.8875
2223.1969	5590.2875
2226.11061	5573.2875
2229.02246	5560.8875
2231.93245	5550.8875
2234.84058	5544.4875
2237.74686	5539.7875
2240.65128	5527.0875
2243.55385	5506.1875
2246.45456	5512.3875
2249.35343	5500.4875
2252.25044	5510.1875
2255.14561	5487.7875
2258.03893	5481.5875
2260.93041	5495.7875
2263.82004	5484.4875
2266.70783	5471.7875
2269.59378	5444.6875
2272.4779	5431.0875
2275.36017	5412.0875
2278.24061	5418.0875
2281.11922	5390.6875
2283.996	5372.6875
2286.87094	5361.6875
2289.74405	5358.6875
2292.61534	5341.5875
2295.4848	5331.0875
2298.35243	5308.9875
2301.21824	5314.1875
2304.08223	5307.3875
2306.94439	5290.8875
2309.80474	5296.0875
2312.66327	5288.1875
2315.51999	5289.3875
2318.37489	5271.8875
2321.22797	5276.7875
2324.07925	5287.0875
2326.92871	5273.4875
2329.77637	5249.1875
2332.62222	5253.8875
2335.46626	5231.4875
2338.3085	5244.1875
2341.14893	5217.5875
2343.98756	5219.3875
2346.8244	5219.5875
2349.65943	5211.5875
2352.49267	5216.6875
2355.32411	5221.7875
2358.15376	5223.1875
2360.98161	5218.7875
2363.80768	5236.5875
2366.63195	5242.4875
2369.45444	5240.2875
2372.27514	5239.8875
2375.09405	5219.9875
2377.91118	5200.9875
2380.72652	5193.0875
2383.54009	5181.5875
2386.35187	5141.2875
2389.16188	5124.9875
2391.97011	5098.0875
2394.77657	5091.0875
2397.58125	5069.3875
2400.38416	5063.7875
2403.18529	5056.5875
2405.98466	5037.5875
2408.78226	5036.5875
2411.57809	5026.7875
2414.37216	5014.0875
2417.16446	5009.1875
2419.955	4999.3875
2422.74378	4977.8875
2425.5308	4989.5875
2428.31606	4979.1875
2431.09956	4995.4875
2433.88131	4985.4875
2436.6613	4990.0875
2439.43954	4980.5875
2442.21603	4977.7875
2444.99077	4969.4875
2447.76377	4964.6875
2450.53501	4973.5875
2453.30451	4972.6875
2456.07226	4958.2875
2458.83827	4944.3875
2461.60254	4950.5875
2464.36507	4933.8875
2467.12586	4941.6875
2469.88492	4916.7875
2472.64224	4924.9875
2475.39782	4948.3875
2478.15167	4953.2875
2480.90379	4925.7875
2483.65417	4942.8875
2486.40283	4963.2875
2489.14976	4959.3875
2491.89497	4952.6875
2494.63845	4954.7875
2497.3802	4954.5875
2500.12024	4956.4875
2502.85855	4940.7875
2505.59514	4925.4875
2508.33002	4911.1875
2511.06318	4889.8875
2513.79462	4866.9875
2516.52435	4865.0875
2519.25237	4840.7875
2521.97867	4829.2875
2524.70327	4815.7875
2527.42616	4807.5875
2530.14734	4789.8875
2532.86681	4796.2875
2535.58458	4811.4875
2538.30065	4778.4875
2541.01501	4769.6875
2543.72768	4764.6875
2546.43864	4770.8875
2549.14791	4753.6875
2551.85548	4753.4875
2554.56136	4744.0875
2557.26554	4735.4875
2559.96803	4734.3875
2562.66883	4723.2875
2565.36794	4736.5875
2568.06536	4723.9875
2570.7611	4718.8875
2573.45514	4714.5875
2576.14751	4699.3875
2578.83819	4685.9875
2581.52719	4656.7875
2584.21451	4672.3875
2586.90015	4667.5875
2589.58411	4637.3875
2592.2664	4635.9875
2594.94701	4620.7875
2597.62594	4623.3875
2600.30321	4600.9875
2602.9788	4626.5875
2605.65273	4600.1875
2608.32498	4592.5875
2610.99557	4589.1875
2613.66449	4584.0875
2616.33175	4590.6875
2618.99734	4571.1875
2621.66128	4566.3875
2624.32355	4570.7875
2626.98416	4559.1875
2629.64311	4558.1875
2632.30041	4544.6875
2634.95605	4543.7875
2637.61004	4525.6875
2640.26238	4509.8875
2642.91306	4530.8875
2645.56209	4505.7875
2648.20948	4494.7875
2650.85521	4498.7875
2653.4993	4510.5875
2656.14175	4502.6875
2658.78255	4498.0875
2661.42171	4505.5875
2664.05923	4516.2875
2666.6951	4505.1875
2669.32934	4507.2875
2671.96194	4520.5875
2674.59291	4530.1875
2677.22224	4523.1875
2679.84993	4523.6875
2682.476	4514.5875
2685.10043	4522.1875
2687.72324	4515.0875
2690.34441	4521.8875
2692.96396	4527.1875
2695.58188	4528.2875
2698.19818	4516.7875
2700.81285	4523.0875
2703.4259	4541.4875
2706.03733	4578.1875
2708.64714	4558.3875
2711.25533	4558.2875
2713.86191	4547.9875
2716.46687	4552.7875
2719.07021	4561.6875
2721.67194	4544.3875
2724.27206	4542.0875
2726.87057	4550.3875
2729.46747	4543.1875
2732.06276	4544.3875
2734.65644	4528.8875
2737.24852	4508.9875
2739.83899	4521.2875
2742.42786	4505.0875
2745.01513	4497.2875
2747.60079	4473.1875
2750.18486	4485.8875
2752.76733	4483.1875
2755.3482	4468.0875
2757.92747	4470.4875
2760.50515	4460.5875
2763.08123	4446.0875
2765.65573	4433.7875
2768.22863	4452.0875
2770.79994	4436.6875
2773.36967	4429.9875
2775.9378	4432.8875
2778.50435	4433.3875
2781.06932	4403.4875
2783.6327	4413.3875
2786.1945	4417.2875
2788.75471	4408.8875
2791.31335	4422.6875
2793.87041	4420.2875
2796.42589	4401.7875
2798.97979	4418.9875
2801.53212	4400.6875
2804.08288	4411.8875
2806.63206	4413.3875
2809.17967	4392.5875
2811.72571	4418.3875
2814.27018	4404.1875
2816.81308	4412.4875
2819.35442	4427.5875
2821.89419	4422.6875
2824.43239	4417.1875
2826.96904	4432.8875
2829.50412	4436.9875
2832.03763	4429.1875
2834.56959	4446.9875
2837.1	4447.2875
2839.62884	4478.7875
2842.15613	4507.2875
2844.68186	4572.2875
2847.20604	4621.5875
2849.72867	4678.6875
2852.24974	4703.0875
2854.76927	4719.2875
2857.28724	4712.0875
2859.80367	4680.4875
2862.31855	4656.7875
2864.83189	4634.6875
2867.34368	4615.6875
2869.85393	4608.7875
2872.36264	4602.6875
2874.8698	4600.5875
2877.37543	4607.0875
2879.87952	4604.7875
2882.38207	4598.4875
2884.88308	4609.0875
2887.38256	4611.4875
2889.88051	4612.6875
2892.37692	4595.2875
2894.8718	4602.2875
2897.36515	4613.3875
2899.85698	4627.0875
2902.34727	4642.6875
2904.83604	4653.3875
2907.32328	4632.5875
2909.809	4639.7875
2912.29319	4621.8875
2914.77587	4625.6875
2917.25702	4589.5875
2919.73665	4600.7875
2922.21476	4592.1875
2924.69136	4597.5875
2927.16644	4568.7875
2929.64	4571.0875
2932.11205	4555.8875
2934.58258	4532.2875
2937.05161	4535.5875
2939.51912	4502.1875
2941.98513	4475.7875
2944.44962	4411.6875
2946.91261	4363.2875
2949.37409	4346.9875
2951.83407	4323.0875
2954.29254	4304.0875
2956.74951	4255.5875
2959.20498	4259.0875
2961.65895	4215.9875
2964.11142	4232.3875
2966.56239	4217.7875
2969.01186	4215.5875
2971.45984	4179.2875
2973.90632	4171.7875
2976.35131	4129.7875
2978.7948	4126.1875
2981.23681	4115.2875
2983.67732	4122.8875
2986.11635	4089.3875
2988.55388	4071.5875
2990.98993	4066.8875
2993.4245	4073.2875
2995.85758	4036.9875
2998.28917	4035.0875
3000.71928	4050.4875
3003.14791	4033.4875
3005.57506	4017.5875
3008.00073	4012.7875
3010.42493	4010.7875
3012.84764	3988.6875
3015.26888	3990.7875
3017.68865	3980.4875
3020.10694	3976.6875
3022.52376	3973.5875
3024.9391	3971.8875
3027.35298	3962.0875
3029.76539	3964.1875
3032.17632	3966.6875
3034.5858	3945.5875
3036.9938	3952.6875
3039.40034	3931.0875
3041.80542	3912.1875
3044.20903	3936.7875
3046.61118	3926.0875
3049.01187	3904.4875
3051.4111	3911.5875
3053.80888	3916.9875
3056.20519	3896.6875
3058.60005	3875.7875
3060.99345	3872.5875
3063.3854	3887.9875
3065.7759	3866.8875
3068.16494	3883.3875
3070.55254	3868.7875
3072.93868	3870.6875
3075.32338	3857.2875
3077.70662	3848.3875
3080.08842	3829.1875
3082.46878	3844.0875
3084.84769	3824.5875
3087.22515	3820.2875
3089.60118	3811.9875
3091.97576	3832.6875
3094.3489	3808.6875
3096.72061	3827.5875
3099.09087	3806.4875
3101.4597	3798.1875
3103.82709	3803.0875
3106.19305	3797.3875
3108.55757	3805.0875
3110.92066	3797.8875
3113.28232	3788.8875
3115.64255	3773.3875
3118.00134	3764.5875
3120.35871	3791.6875
3122.71466	3767.5875
3125.06917	3775.9875
3127.42226	3767.3875
3129.77393	3778.0875
3132.12417	3776.8875
3134.47299	3775.3875
3136.82039	3794.6875
3139.16636	3805.2875
3141.51092	3796.3875
3143.85406	3801.6875
3146.19579	3812.3875
3148.53609	3821.8875
3150.87499	3818.4875
3153.21246	3838.1875
3155.54853	3833.2875
3157.88318	3837.1875
3160.21642	3851.7875
3162.54826	3842.4875
3164.87868	3837.7875
3167.2077	3840.8875
3169.5353	3847.2875
3171.86151	3855.3875
3174.18631	3844.8875
3176.5097	3855.7875
3178.83169	3832.9875
3181.15228	3847.4875
3183.47147	3847.0875
3185.78926	3863.0875
3188.10565	3853.7875
3190.42065	3855.5875
3192.73424	3859.2875
3195.04645	3854.3875
3197.35725	3875.4875
3199.66667	3885.0875
3201.97469	3893.1875
3204.28132	3869.0875
3206.58656	3895.0875
3208.8904	3884.4875
3211.19287	3892.2875
3213.49394	3898.3875
3215.79363	3886.2875
3218.09193	3903.7875
3220.38884	3914.4875
3222.68438	3922.8875
3224.97853	3911.9875
3227.2713	3913.4875
3229.56269	3899.3875
3231.8527	3896.7875
3234.14133	3877.6875
3236.42858	3888.1875
3238.71446	3880.5875
3240.99896	3861.0875
3243.28209	3868.6875
3245.56384	3865.0875
3247.84423	3892.9875
3250.12324	3868.7875
3252.40088	3852.9875
3254.67715	3864.5875
3256.95205	3848.3875
3259.22558	3863.4875
3261.49775	3858.0875
3263.76855	3858.8875
3266.03799	3842.2875
3268.30606	3841.7875
3270.57277	3833.2875
3272.83812	3825.9875
3275.10211	3812.1875
3277.36474	3820.9875
3279.62601	3818.0875
3281.88593	3812.1875
3284.14448	3809.0875
3286.40168	3818.1875
3288.65753	3817.8875
3290.91202	3807.6875
3293.16516	3801.9875
3295.41695	3791.7875
3297.66738	3753.9875
3299.91647	3740.6875
3302.16421	3735.9875
3304.4106	3719.1875
3306.65564	3704.0875
3308.89933	3669.0875
3311.14169	3655.4875
3313.38269	3622.1875
3315.62236	3616.1875
3317.86068	3555.7875
3320.09766	3538.2875
3322.3333	3512.3875
3324.5676	3509.2875
3326.80056	3468.0875
3329.03219	3441.1875
3331.26248	1.6875
3333.49143	-1.0125
3335.71905	-1.2125
