Data from AgNP_FTO_APTES_CRN_10uM_R6G_10uM_NaF_0.1M_Addition_RamanShift__32__16-52-17-993.txt Node

Date: Wed Dec 15 16:52:17 GMT 2021
User: TCL
Spectrometer: QEP01345
Trigger mode: 4
Integration Time (sec): 7.000000E0
Scans to average: 10
Electric dark correction enabled: true
Nonlinearity correction enabled: false
Boxcar width: 0
XAxis mode: Raman Shifts
Number of Pixels in Spectrum: 1044
>>>>>Begin Spectral Data<<<<<
46.04893	1.0875
50.45542	-0.7125
54.85868	-1.8125
59.25871	-0.9125
63.6555	68.8875
68.04907	75.4875
72.43941	80.1875
76.82654	83.6875
81.21044	87.9875
85.59113	94.7875
89.96862	98.8875
94.34289	95.6875
98.71396	100.9875
103.08183	107.8875
107.4465	109.5875
111.80798	109.8875
116.16626	114.9875
120.52136	116.7875
124.87327	119.4875
129.222	123.5875
133.56755	128.6875
137.90993	138.2875
142.24913	149.8875
146.58517	167.0875
150.91804	189.2875
155.24774	220.4875
159.57429	274.2875
163.89768	344.3875
168.21792	446.9875
172.53501	603.2875
176.84895	844.1875
181.15975	1167.9875
185.46741	1633.3875
189.77193	2252.6875
194.07331	3011.2875
198.37157	3875.9875
202.6667	4781.2875
206.9587	5725.0875
211.24758	6614.5875
215.53334	7573.4875
219.81599	8624.4875
224.09553	9773.0875
228.37195	11090.9875
232.64527	12505.6875
236.91549	13886.7875
241.18261	15218.4875
245.44663	16328.4875
249.70755	17176.9875
253.96539	17929.5875
258.22014	18612.1875
262.4718	19245.3875
266.72039	19691.5875
270.96589	19997.5875
275.20832	20046.0875
279.44768	19890.7875
283.68397	19610.9875
287.91719	19471.1875
292.14735	19537.2875
296.37445	19906.6875
300.59849	20497.1875
304.81948	21283.5875
309.03742	21784.8875
313.25231	21765.6875
317.46415	20848.8875
321.67296	19373.5875
325.87872	18056.8875
330.08145	17408.3875
334.28114	17303.8875
338.47781	17547.3875
342.67145	17956.1875
346.86207	18697.0875
351.04966	19690.9875
355.23424	20853.1875
359.4158	21734.8875
363.59435	22127.1875
367.76989	22175.1875
371.94243	22121.9875
376.11196	21954.1875
380.27849	21779.7875
384.44203	21555.4875
388.60257	21290.9875
392.76012	21163.7875
396.91468	21330.2875
401.06626	21840.3875
405.21485	22229.5875
409.36047	21843.9875
413.50311	20769.1875
417.64277	19759.3875
421.77947	19174.5875
425.9132	18942.7875
430.04396	18874.2875
434.17176	19012.1875
438.2966	19238.7875
442.41849	19664.2875
446.53742	20237.3875
450.6534	20818.0875
454.76644	21205.5875
458.87653	21303.6875
462.98368	21177.1875
467.08789	20828.4875
471.18916	20439.5875
475.2875	19932.3875
479.38291	19526.2875
483.4754	19146.5875
487.56496	18869.2875
491.6516	18632.1875
495.73531	18546.8875
499.81612	18565.2875
503.89401	18773.0875
507.96899	18974.3875
512.04106	19311.7875
516.11023	19634.9875
520.1765	19915.7875
524.23987	19937.5875
528.30034	19678.1875
532.35792	19231.5875
536.41261	18772.9875
540.46441	18266.4875
544.51333	18067.0875
548.55936	18184.2875
552.60252	18552.1875
556.64279	19047.7875
560.6802	19305.6875
564.71473	19604.5875
568.7464	20249.8875
572.7752	20721.4875
576.80114	20314.7875
580.82422	19644.8875
584.84444	19367.4875
588.86181	19361.1875
592.87633	19549.3875
596.888	19931.6875
600.89682	20632.3875
604.9028	22848.6875
608.90594	28511.6875
612.90624	35837.0875
616.90371	34494.4875
620.89834	24432.7875
624.89015	19604.0875
628.87913	18698.4875
632.86528	18772.5875
636.84862	18968.1875
640.82913	18642.3875
644.80683	17849.0875
648.78172	17323.2875
652.75379	17336.0875
656.72306	18001.6875
660.68952	18834.0875
664.65319	18711.9875
668.61405	17850.9875
672.57211	17396.9875
676.52738	17311.3875
680.47986	17339.3875
684.42955	17242.4875
688.37646	17154.7875
692.32058	17209.9875
696.26192	17399.2875
700.20048	17650.7875
704.13626	17826.7875
708.06928	17802.5875
711.99952	17624.7875
715.927	17586.1875
719.85171	17609.9875
723.77365	17551.6875
727.69284	17390.3875
731.60928	17207.5875
735.52295	17172.7875
739.43388	17209.5875
743.34206	17269.6875
747.24749	17390.4875
751.15017	17494.3875
755.05012	17833.0875
758.94733	18640.7875
762.8418	20600.0875
766.73354	23967.9875
770.62254	27530.4875
774.50882	29111.1875
778.39237	27537.8875
782.27321	23999.6875
786.15132	20602.8875
790.02671	18592.3875
793.89938	17689.9875
797.76935	17294.6875
801.6366	17143.2875
805.50115	17010.2875
809.36299	16941.6875
813.22213	16851.5875
817.07857	16785.8875
820.93231	16778.2875
824.78336	16859.9875
828.63172	16934.8875
832.47738	17027.7875
836.32036	17022.5875
840.16066	16993.8875
843.99827	16927.1875
847.8332	16817.8875
851.66546	16735.9875
855.49504	16704.7875
859.32195	16657.7875
863.1462	16539.2875
866.96777	16467.9875
870.78668	16457.6875
874.60293	16446.6875
878.41652	16491.5875
882.22745	16558.7875
886.03573	16656.9875
889.84136	16591.7875
893.64433	16490.3875
897.44466	16452.4875
901.24235	16430.3875
905.0374	16412.4875
908.8298	16372.1875
912.61957	16394.1875
916.40671	16490.1875
920.19121	16632.9875
923.97308	16822.9875
927.75233	17009.8875
931.52895	17167.1875
935.30295	17030.1875
939.07433	16560.3875
942.84309	16070.2875
946.60924	15825.4875
950.37278	15675.8875
954.13371	15586.2875
957.89203	15470.5875
961.64774	15402.0875
965.40086	15397.1875
969.15137	15342.9875
972.89929	15300.0875
976.64461	15305.3875
980.38733	15269.1875
984.12747	15319.4875
987.86502	15444.7875
991.59999	15538.0875
995.33237	15811.1875
999.06217	16219.9875
1002.78939	16703.5875
1006.51404	17098.9875
1010.23611	17446.0875
1013.95561	17699.3875
1017.67255	17641.2875
1021.38692	17380.7875
1025.09872	17131.3875
1028.80796	17147.5875
1032.51465	17451.6875
1036.21877	17788.9875
1039.92035	17919.2875
1043.61937	17848.8875
1047.31584	17620.1875
1051.00976	17351.3875
1054.70114	17204.4875
1058.38998	17230.4875
1062.07627	17388.5875
1065.76003	17633.0875
1069.44126	18021.5875
1073.11995	18570.1875
1076.79611	19092.5875
1080.46974	19467.4875
1084.14085	19630.3875
1087.80943	19728.7875
1091.47549	19472.9875
1095.13903	18907.3875
1098.80005	18094.6875
1102.45857	17484.0875
1106.11456	17211.6875
1109.76805	17266.3875
1113.41903	17560.0875
1117.06751	18027.1875
1120.71348	18703.2875
1124.35696	19401.1875
1127.99793	20094.1875
1131.63641	20147.0875
1135.2724	19383.7875
1138.90589	18512.5875
1142.5369	18030.2875
1146.16542	17650.5875
1149.79145	17451.3875
1153.415	17468.1875
1157.03607	17677.2875
1160.65467	18035.7875
1164.27079	18721.1875
1167.88443	19822.4875
1171.49561	21463.8875
1175.10432	24208.1875
1178.71056	27729.7875
1182.31434	30471.4875
1185.91565	31173.7875
1189.51451	30244.5875
1193.11091	28254.1875
1196.70485	25910.5875
1200.29634	24150.5875
1203.88538	22906.9875
1207.47197	21611.2875
1211.05612	20463.3875
1214.63782	19867.8875
1218.21708	19650.2875
1221.79391	19712.3875
1225.36829	19778.0875
1228.94024	19800.8875
1232.50976	19752.1875
1236.07685	19732.1875
1239.6415	19716.5875
1243.20374	19740.8875
1246.76355	19887.8875
1250.32093	20196.0875
1253.8759	20649.6875
1257.42845	21300.1875
1260.97859	21973.6875
1264.52631	22654.9875
1268.07163	23369.9875
1271.61453	24079.6875
1275.15503	24604.2875
1278.69312	24920.4875
1282.22882	25162.0875
1285.76211	25602.9875
1289.29301	26328.3875
1292.82151	27110.2875
1296.34761	28006.8875
1299.87133	29367.2875
1303.39266	31495.0875
1306.9116	34901.4875
1310.42815	38961.9875
1313.94233	41732.8875
1317.45412	41539.8875
1320.96354	39187.5875
1324.47058	36299.8875
1327.97525	33719.7875
1331.47754	31941.1875
1334.97747	31182.3875
1338.47502	31184.6875
1341.97022	31591.1875
1345.46305	32384.5875
1348.95352	33725.4875
1352.44163	35817.4875
1355.92738	39055.8875
1359.41078	44344.1875
1362.89183	50080.4875
1366.37053	49746.2875
1369.84688	42709.7875
1373.32088	35148.9875
1376.79254	30238.0875
1380.26186	27906.0875
1383.72883	26772.8875
1387.19347	25853.0875
1390.65578	24881.0875
1394.11575	24113.6875
1397.57339	23777.8875
1401.0287	23854.2875
1404.48168	24103.4875
1407.93234	24346.0875
1411.38068	24477.6875
1414.82669	24302.9875
1418.27039	23781.7875
1421.71177	23215.4875
1425.15083	22695.5875
1428.58758	22300.8875
1432.02203	22269.9875
1435.45416	22483.8875
1438.88399	22730.4875
1442.31151	22818.0875
1445.73673	22960.6875
1449.15965	23154.8875
1452.58027	23188.4875
1455.9986	23058.0875
1459.41463	23013.9875
1462.82837	23275.6875
1466.23982	23689.5875
1469.64898	24226.7875
1473.05586	24664.2875
1476.46045	24947.1875
1479.86276	25281.6875
1483.26279	25669.9875
1486.66054	26215.4875
1490.05602	26900.3875
1493.44922	27905.2875
1496.84016	29207.7875
1500.22882	31378.6875
1503.61521	34499.4875
1506.99934	38381.7875
1510.38121	42416.4875
1513.76081	44887.1875
1517.13816	43757.7875
1520.51324	39292.3875
1523.88607	34265.1875
1527.25665	30551.5875
1530.62498	28235.0875
1533.99105	26875.1875
1537.35488	26040.5875
1540.71647	25514.2875
1544.07581	25143.4875
1547.4329	24901.2875
1550.78776	24743.2875
1554.14038	24746.2875
1557.49077	25019.8875
1560.83892	25465.3875
1564.18484	26212.3875
1567.52853	26951.4875
1570.86999	27661.2875
1574.20922	28422.1875
1577.54624	28948.1875
1580.88103	28459.8875
1584.2136	27209.5875
1587.54395	26117.1875
1590.87208	25799.4875
1594.19801	26639.8875
1597.52172	28208.1875
1600.84321	28861.5875
1604.16251	27805.9875
1607.47959	25885.0875
1610.79447	23857.8875
1614.10715	21941.8875
1617.41763	20430.5875
1620.7259	19370.8875
1624.03199	18899.3875
1627.33587	18987.7875
1630.63757	19454.0875
1633.93707	20422.4875
1637.23439	21917.4875
1640.52951	24120.4875
1643.82246	26963.8875
1647.11321	30344.9875
1650.40179	32817.8875
1653.68819	32333.9875
1656.97241	28452.1875
1660.25446	23708.1875
1663.53433	20262.8875
1666.81203	18112.4875
1670.08756	16850.3875
1673.36092	16079.5875
1676.63211	15572.7875
1679.90115	15286.2875
1683.16801	15055.6875
1686.43272	14895.5875
1689.69527	14734.3875
1692.95567	14678.0875
1696.2139	14611.0875
1699.46999	14598.3875
1702.72392	14578.7875
1705.97571	14542.8875
1709.22535	14494.2875
1712.47284	14463.4875
1715.71819	14484.9875
1718.96139	14450.5875
1722.20246	14431.4875
1725.44139	14374.9875
1728.67818	14289.2875
1731.91284	14151.1875
1735.14537	14071.6875
1738.37576	13981.1875
1741.60403	13928.2875
1744.83017	13895.7875
1748.05418	13851.8875
1751.27607	13839.0875
1754.49584	13808.0875
1757.71349	13799.0875
1760.92903	13813.6875
1764.14244	13788.1875
1767.35375	13766.7875
1770.56294	13724.5875
1773.77002	13698.4875
1776.97499	13682.6875
1780.17785	13603.8875
1783.37861	13567.7875
1786.57727	13553.8875
1789.77382	13510.5875
1792.96828	13498.7875
1796.16064	13500.4875
1799.3509	13472.6875
1802.53907	13466.2875
1805.72514	13421.4875
1808.90913	13382.9875
1812.09102	13321.2875
1815.27083	13303.4875
1818.44856	13280.4875
1821.6242	13256.3875
1824.79776	13210.7875
1827.96924	13238.9875
1831.13864	13243.3875
1834.30597	13238.9875
1837.47122	13184.3875
1840.6344	13214.1875
1843.7955	13202.5875
1846.95454	13195.6875
1850.11151	13209.4875
1853.26642	13210.4875
1856.41926	13201.9875
1859.57004	13191.4875
1862.71876	13211.5875
1865.86542	13219.4875
1869.01003	13202.7875
1872.15258	13184.4875
1875.29308	13198.0875
1878.43152	13200.7875
1881.56792	13198.7875
1884.70227	13193.7875
1887.83457	13180.8875
1890.96482	13201.5875
1894.09304	13201.6875
1897.21921	13191.2875
1900.34335	13197.3875
1903.46544	13159.1875
1906.58551	13166.3875
1909.70353	13156.8875
1912.81953	13159.4875
1915.93349	13164.2875
1919.04543	13102.7875
1922.15534	13096.8875
1925.26322	13089.0875
1928.36908	13059.7875
1931.47292	12974.7875
1934.57473	12937.4875
1937.67453	12914.1875
1940.77232	12872.6875
1943.86808	12845.5875
1946.96184	12774.4875
1950.05358	12718.3875
1953.14331	12700.2875
1956.23103	12628.3875
1959.31675	12627.6875
1962.40046	12579.2875
1965.48217	12568.9875
1968.56188	12501.8875
1971.63959	12465.7875
1974.7153	12418.0875
1977.78901	12405.5875
1980.86073	12346.8875
1983.93046	12310.3875
1986.99819	12253.9875
1990.06394	12218.4875
1993.1277	12211.4875
1996.18947	12147.1875
1999.24925	12099.5875
2002.30706	12082.8875
2005.36288	12055.5875
2008.41672	12011.4875
2011.46859	11996.8875
2014.51848	11918.6875
2017.56639	11933.2875
2020.61233	11889.5875
2023.6563	11869.6875
2026.6983	11844.0875
2029.73833	11819.4875
2032.7764	11788.3875
2035.8125	11762.6875
2038.84664	11724.0875
2041.87881	11722.4875
2044.90903	11729.2875
2047.93729	11697.2875
2050.96359	11693.9875
2053.98794	11677.4875
2057.01034	11663.1875
2060.03078	11642.7875
2063.04927	11626.1875
2066.06582	11636.6875
2069.08042	11592.5875
2072.09307	11599.7875
2075.10378	11588.2875
2078.11255	11566.0875
2081.11938	11576.5875
2084.12426	11575.9875
2087.12722	11560.7875
2090.12824	11534.8875
2093.12732	11540.3875
2096.12447	11597.0875
2099.11969	11550.5875
2102.11299	11558.5875
2105.10435	11577.4875
2108.09379	11581.2875
2111.08131	11581.5875
2114.0669	11590.8875
2117.05057	11604.8875
2120.03233	11622.4875
2123.01216	11626.8875
2125.99008	11599.4875
2128.96609	11646.5875
2131.94018	11653.8875
2134.91236	11669.6875
2137.88263	11648.5875
2140.851	11649.6875
2143.81746	11676.3875
2146.78201	11683.3875
2149.74466	11660.9875
2152.7054	11673.8875
2155.66425	11666.5875
2158.6212	11675.7875
2161.57625	11678.4875
2164.52941	11653.3875
2167.48067	11682.6875
2170.43004	11652.4875
2173.37752	11631.8875
2176.32311	11657.3875
2179.26681	11638.5875
2182.20863	11644.8875
2185.14856	11645.8875
2188.08661	11656.9875
2191.02278	11636.7875
2193.95707	11625.0875
2196.88948	11599.8875
2199.82001	11605.5875
2202.74867	11605.3875
2205.67545	11614.3875
2208.60037	11602.4875
2211.52341	11608.4875
2214.44458	11613.9875
2217.36388	11576.6875
2220.28132	11560.4875
2223.1969	11526.3875
2226.11061	11504.5875
2229.02246	11481.4875
2231.93245	11468.8875
2234.84058	11427.6875
2237.74686	11427.4875
2240.65128	11405.2875
2243.55385	11403.4875
2246.45456	11372.1875
2249.35343	11374.1875
2252.25044	11352.4875
2255.14561	11341.3875
2258.03893	11383.4875
2260.93041	11363.2875
2263.82004	11340.6875
2266.70783	11328.1875
2269.59378	11266.3875
2272.4779	11251.7875
2275.36017	11218.3875
2278.24061	11189.7875
2281.11922	11182.8875
2283.996	11163.2875
2286.87094	11135.5875
2289.74405	11097.2875
2292.61534	11105.9875
2295.4848	11076.9875
2298.35243	11099.5875
2301.21824	11089.9875
2304.08223	11084.3875
2306.94439	11065.8875
2309.80474	11079.0875
2312.66327	11102.1875
2315.51999	11085.0875
2318.37489	11062.0875
2321.22797	11063.1875
2324.07925	11070.9875
2326.92871	11035.2875
2329.77637	11056.0875
2332.62222	11037.5875
2335.46626	11048.4875
2338.3085	11054.0875
2341.14893	11046.6875
2343.98756	11054.8875
2346.8244	11057.6875
2349.65943	11048.1875
2352.49267	11067.5875
2355.32411	11099.5875
2358.15376	11082.8875
2360.98161	11080.3875
2363.80768	11099.2875
2366.63195	11086.0875
2369.45444	11056.0875
2372.27514	11060.6875
2375.09405	11034.9875
2377.91118	11012.1875
2380.72652	10979.1875
2383.54009	10935.2875
2386.35187	10928.1875
2389.16188	10872.2875
2391.97011	10840.8875
2394.77657	10835.8875
2397.58125	10784.6875
2400.38416	10780.7875
2403.18529	10741.4875
2405.98466	10737.8875
2408.78226	10714.9875
2411.57809	10696.5875
2414.37216	10683.7875
2417.16446	10661.0875
2419.955	10643.1875
2422.74378	10655.1875
2425.5308	10625.4875
2428.31606	10628.4875
2431.09956	10615.6875
2433.88131	10600.5875
2436.6613	10612.2875
2439.43954	10597.6875
2442.21603	10611.5875
2444.99077	10600.1875
2447.76377	10630.9875
2450.53501	10625.5875
2453.30451	10641.9875
2456.07226	10630.6875
2458.83827	10632.6875
2461.60254	10596.1875
2464.36507	10587.2875
2467.12586	10585.1875
2469.88492	10605.4875
2472.64224	10596.6875
2475.39782	10604.3875
2478.15167	10624.8875
2480.90379	10618.5875
2483.65417	10652.9875
2486.40283	10673.8875
2489.14976	10687.9875
2491.89497	10662.1875
2494.63845	10718.3875
2497.3802	10700.8875
2500.12024	10669.1875
2502.85855	10661.6875
2505.59514	10677.8875
2508.33002	10613.9875
2511.06318	10573.9875
2513.79462	10555.6875
2516.52435	10538.2875
2519.25237	10502.4875
2521.97867	10494.4875
2524.70327	10504.5875
2527.42616	10466.5875
2530.14734	10471.7875
2532.86681	10436.7875
2535.58458	10417.9875
2538.30065	10412.5875
2541.01501	10433.1875
2543.72768	10432.6875
2546.43864	10428.3875
2549.14791	10415.4875
2551.85548	10413.7875
2554.56136	10404.8875
2557.26554	10387.0875
2559.96803	10392.4875
2562.66883	10402.5875
2565.36794	10359.3875
2568.06536	10376.0875
2570.7611	10355.0875
2573.45514	10360.1875
2576.14751	10337.4875
2578.83819	10298.4875
2581.52719	10307.4875
2584.21451	10298.0875
2586.90015	10305.2875
2589.58411	10299.1875
2592.2664	10275.8875
2594.94701	10261.3875
2597.62594	10242.7875
2600.30321	10227.9875
2602.9788	10240.0875
2605.65273	10205.5875
2608.32498	10225.9875
2610.99557	10184.5875
2613.66449	10217.0875
2616.33175	10198.3875
2618.99734	10213.2875
2621.66128	10222.6875
2624.32355	10198.8875
2626.98416	10207.0875
2629.64311	10201.9875
2632.30041	10183.4875
2634.95605	10174.5875
2637.61004	10157.5875
2640.26238	10142.7875
2642.91306	10139.1875
2645.56209	10114.6875
2648.20948	10132.8875
2650.85521	10093.0875
2653.4993	10109.6875
2656.14175	10091.8875
2658.78255	10103.9875
2661.42171	10091.8875
2664.05923	10116.4875
2666.6951	10130.9875
2669.32934	10149.4875
2671.96194	10121.8875
2674.59291	10120.9875
2677.22224	10144.4875
2679.84993	10133.2875
2682.476	10130.7875
2685.10043	10142.4875
2687.72324	10128.6875
2690.34441	10148.6875
2692.96396	10159.3875
2695.58188	10130.4875
2698.19818	10130.8875
2700.81285	10150.5875
2703.4259	10131.1875
2706.03733	10225.2875
2708.64714	10173.9875
2711.25533	10165.4875
2713.86191	10153.3875
2716.46687	10159.2875
2719.07021	10181.4875
2721.67194	10187.5875
2724.27206	10145.1875
2726.87057	10171.3875
2729.46747	10159.2875
2732.06276	10171.5875
2734.65644	10164.8875
2737.24852	10149.3875
2739.83899	10132.5875
2742.42786	10150.0875
2745.01513	10099.2875
2747.60079	10102.5875
2750.18486	10105.5875
2752.76733	10132.2875
2755.3482	10120.5875
2757.92747	10103.8875
2760.50515	10071.6875
2763.08123	10080.5875
2765.65573	10062.2875
2768.22863	10054.1875
2770.79994	10042.0875
2773.36967	10046.3875
2775.9378	10014.9875
2778.50435	10025.2875
2781.06932	10001.7875
2783.6327	10009.7875
2786.1945	9998.8875
2788.75471	9987.0875
2791.31335	9950.2875
2793.87041	9960.6875
2796.42589	9923.4875
2798.97979	9922.0875
2801.53212	9914.9875
2804.08288	9914.4875
2806.63206	9896.1875
2809.17967	9884.3875
2811.72571	9883.5875
2814.27018	9906.4875
2816.81308	9888.9875
2819.35442	9866.4875
2821.89419	9876.6875
2824.43239	9887.4875
2826.96904	9875.3875
2829.50412	9913.0875
2832.03763	9860.5875
2834.56959	9886.7875
2837.1	9872.5875
2839.62884	9886.9875
2842.15613	9901.3875
2844.68186	9936.4875
2847.20604	9980.5875
2849.72867	9998.5875
2852.24974	9996.1875
2854.76927	10045.9875
2857.28724	10027.8875
2859.80367	10009.7875
2862.31855	9989.7875
2864.83189	9977.6875
2867.34368	9973.6875
2869.85393	9977.6875
2872.36264	9934.9875
2874.8698	9959.4875
2877.37543	9964.3875
2879.87952	9965.2875
2882.38207	9960.5875
2884.88308	9952.1875
2887.38256	9963.5875
2889.88051	9967.6875
2892.37692	9945.9875
2894.8718	9951.1875
2897.36515	9957.2875
2899.85698	9955.1875
2902.34727	9977.5875
2904.83604	9975.2875
2907.32328	10013.0875
2909.809	9991.9875
2912.29319	10007.0875
2914.77587	9982.1875
2917.25702	9977.7875
2919.73665	9963.4875
2922.21476	9961.9875
2924.69136	9968.8875
2927.16644	9979.6875
2929.64	9970.5875
2932.11205	9954.1875
2934.58258	9891.1875
2937.05161	9912.5875
2939.51912	9899.0875
2941.98513	9845.2875
2944.44962	9812.6875
2946.91261	9770.5875
2949.37409	9769.4875
2951.83407	9761.8875
2954.29254	9760.5875
2956.74951	9729.3875
2959.20498	9727.3875
2961.65895	9708.0875
2964.11142	9711.4875
2966.56239	9666.0875
2969.01186	9654.5875
2971.45984	9635.8875
2973.90632	9588.5875
2976.35131	9564.3875
2978.7948	9560.9875
2981.23681	9530.8875
2983.67732	9534.1875
2986.11635	9498.2875
2988.55388	9490.6875
2990.98993	9459.5875
2993.4245	9440.9875
2995.85758	9456.8875
2998.28917	9413.1875
3000.71928	9433.3875
3003.14791	9382.1875
3005.57506	9393.0875
3008.00073	9374.2875
3010.42493	9384.4875
3012.84764	9350.2875
3015.26888	9353.7875
3017.68865	9325.2875
3020.10694	9325.1875
3022.52376	9293.0875
3024.9391	9293.6875
3027.35298	9313.9875
3029.76539	9271.7875
3032.17632	9261.2875
3034.5858	9227.6875
3036.9938	9228.4875
3039.40034	9230.5875
3041.80542	9203.0875
3044.20903	9187.7875
3046.61118	9174.4875
3049.01187	9168.6875
3051.4111	9154.4875
3053.80888	9138.0875
3056.20519	9118.9875
3058.60005	9115.7875
3060.99345	9101.1875
3063.3854	9050.5875
3065.7759	9060.6875
3068.16494	9038.9875
3070.55254	9022.4875
3072.93868	9025.5875
3075.32338	8974.9875
3077.70662	8989.2875
3080.08842	8923.8875
3082.46878	8942.5875
3084.84769	8929.5875
3087.22515	8921.0875
3089.60118	8917.8875
3091.97576	8911.9875
3094.3489	8905.5875
3096.72061	8886.3875
3099.09087	8906.2875
3101.4597	8906.4875
3103.82709	8884.2875
3106.19305	8870.2875
3108.55757	8871.9875
3110.92066	8841.2875
3113.28232	8846.6875
3115.64255	8815.5875
3118.00134	8806.3875
3120.35871	8801.0875
3122.71466	8780.9875
3125.06917	8781.5875
3127.42226	8765.5875
3129.77393	8798.7875
3132.12417	8787.6875
3134.47299	8776.0875
3136.82039	8793.1875
3139.16636	8793.0875
3141.51092	8807.6875
3143.85406	8805.8875
3146.19579	8819.6875
3148.53609	8822.2875
3150.87499	8827.2875
3153.21246	8823.7875
3155.54853	8861.4875
3157.88318	8851.8875
3160.21642	8854.7875
3162.54826	8835.9875
3164.87868	8842.3875
3167.2077	8856.7875
3169.5353	8843.2875
3171.86151	8848.7875
3174.18631	8816.4875
3176.5097	8831.8875
3178.83169	8815.1875
3181.15228	8833.4875
3183.47147	8824.4875
3185.78926	8804.6875
3188.10565	8804.4875
3190.42065	8804.9875
3192.73424	8807.5875
3195.04645	8823.0875
3197.35725	8836.5875
3199.66667	8825.2875
3201.97469	8836.6875
3204.28132	8865.4875
3206.58656	8861.0875
3208.8904	8866.4875
3211.19287	8868.4875
3213.49394	8863.6875
3215.79363	8870.0875
3218.09193	8884.2875
3220.38884	8884.4875
3222.68438	8890.1875
3224.97853	8862.5875
3227.2713	8880.1875
3229.56269	8857.9875
3231.8527	8856.9875
3234.14133	8826.7875
3236.42858	8797.7875
3238.71446	8821.8875
3240.99896	8791.6875
3243.28209	8793.5875
3245.56384	8792.2875
3247.84423	8784.0875
3250.12324	8798.0875
3252.40088	8788.2875
3254.67715	8803.6875
3256.95205	8776.6875
3259.22558	8796.3875
3261.49775	8760.3875
3263.76855	8772.9875
3266.03799	8722.3875
3268.30606	8744.1875
3270.57277	8733.6875
3272.83812	8713.7875
3275.10211	8703.2875
3277.36474	8689.8875
3279.62601	8697.1875
3281.88593	8681.8875
3284.14448	8711.2875
3286.40168	8693.5875
3288.65753	8703.0875
3290.91202	8654.5875
3293.16516	8653.9875
3295.41695	8628.3875
3297.66738	8588.0875
3299.91647	8538.4875
3302.16421	8491.3875
3304.4106	8476.0875
3306.65564	8425.2875
3308.89933	8380.2875
3311.14169	8332.8875
3313.38269	8261.4875
3315.62236	8212.1875
3317.86068	8140.5875
3320.09766	8062.0875
3322.3333	8003.1875
3324.5676	8000.3875
3326.80056	7889.7875
3329.03219	7843.0875
3331.26248	2.9875
3333.49143	0.1875
3335.71905	-1.1125
