Data from AgNP_FTO_APTES_CRN_5uM_R6G_10uM_NaF_0.1M_Addition_RamanShift__23__15-52-47-925.txt Node

Date: Wed Dec 15 15:52:47 GMT 2021
User: TCL
Spectrometer: QEP01345
Trigger mode: 4
Integration Time (sec): 7.000000E0
Scans to average: 10
Electric dark correction enabled: true
Nonlinearity correction enabled: false
Boxcar width: 0
XAxis mode: Raman Shifts
Number of Pixels in Spectrum: 1044
>>>>>Begin Spectral Data<<<<<
46.04893	-0.1875
50.45542	-2.8875
54.85868	-2.1875
59.25871	-1.1875
63.6555	109.8125
68.04907	120.1125
72.43941	126.5125
76.82654	132.7125
81.21044	133.4125
85.59113	137.2125
89.96862	143.8125
94.34289	144.4125
98.71396	154.3125
103.08183	158.7125
107.4465	164.1125
111.80798	164.6125
116.16626	167.3125
120.52136	177.1125
124.87327	184.0125
129.222	194.7125
133.56755	201.4125
137.90993	220.3125
142.24913	240.6125
146.58517	267.9125
150.91804	316.4125
155.24774	369.3125
159.57429	457.8125
163.89768	593.4125
168.21792	765.7125
172.53501	1049.5125
176.84895	1461.7125
181.15975	2045.5125
185.46741	2860.1125
189.77193	3948.6125
194.07331	5273.9125
198.37157	6783.9125
202.6667	8356.2125
206.9587	9914.5125
211.24758	11463.7125
215.53334	13016.7125
219.81599	14629.1125
224.09553	16428.5125
228.37195	18465.2125
232.64527	20767.9125
236.91549	23119.6125
241.18261	25469.2125
245.44663	27590.8125
249.70755	29489.5125
253.96539	31164.9125
258.22014	32628.5125
262.4718	33862.5125
266.72039	34711.3125
270.96589	35257.4125
275.20832	35377.3125
279.44768	35259.8125
283.68397	34934.9125
287.91719	34696.8125
292.14735	34482.6125
296.37445	34511.5125
300.59849	34743.9125
304.81948	34921.0125
309.03742	35019.4125
313.25231	34701.3125
317.46415	33886.0125
321.67296	32879.3125
325.87872	32059.4125
330.08145	31629.9125
334.28114	31728.2125
338.47781	32043.4125
342.67145	32559.1125
346.86207	33204.0125
351.04966	33988.0125
355.23424	34942.5125
359.4158	35698.6125
363.59435	36248.3125
367.76989	36549.5125
371.94243	36735.2125
376.11196	36792.6125
380.27849	36852.7125
384.44203	36902.0125
388.60257	37089.3125
392.76012	37359.6125
396.91468	37847.4125
401.06626	38493.9125
405.21485	39013.8125
409.36047	38874.9125
413.50311	38215.6125
417.64277	37661.8125
421.77947	37436.2125
425.9132	37592.8125
430.04396	37746.9125
434.17176	38079.2125
438.2966	38494.8125
442.41849	39038.9125
446.53742	40058.4125
450.6534	41203.5125
454.76644	42095.6125
458.87653	42525.0125
462.98368	42342.1125
467.08789	41818.4125
471.18916	41052.0125
475.2875	40247.3125
479.38291	39712.7125
483.4754	39249.6125
487.56496	38799.3125
491.6516	38335.3125
495.73531	38050.5125
499.81612	37958.9125
503.89401	38278.5125
507.96899	38486.0125
512.04106	38574.0125
516.11023	38603.3125
520.1765	38526.3125
524.23987	38457.3125
528.30034	38203.9125
532.35792	37726.4125
536.41261	37150.3125
540.46441	36612.2125
544.51333	36519.1125
548.55936	36886.1125
552.60252	37603.4125
556.64279	38281.0125
560.6802	38609.5125
564.71473	38805.2125
568.7464	39342.4125
572.7752	40049.2125
576.80114	40517.5125
580.82422	40989.1125
584.84444	41484.8125
588.86181	41952.5125
592.87633	42570.9125
596.888	43368.8125
600.89682	44091.2125
604.9028	46166.3125
608.90594	50794.6125
612.90624	55278.0125
616.90371	51821.9125
620.89834	43250.4125
624.89015	39697.8125
628.87913	39386.8125
632.86528	39291.4125
636.84862	38838.4125
640.82913	38092.9125
644.80683	37031.2125
648.78172	36312.7125
652.75379	36244.4125
656.72306	36746.7125
660.68952	37480.8125
664.65319	37275.7125
668.61405	36665.7125
672.57211	36396.3125
676.52738	36390.3125
680.47986	36346.0125
684.42955	36155.9125
688.37646	36182.1125
692.32058	36390.2125
696.26192	36736.3125
700.20048	37150.9125
704.13626	37409.3125
708.06928	37271.6125
711.99952	36992.4125
715.927	36925.1125
719.85171	36975.7125
723.77365	36861.0125
727.69284	36422.2125
731.60928	36120.1125
735.52295	36029.4125
739.43388	35980.9125
743.34206	36188.8125
747.24749	36376.7125
751.15017	36766.0125
755.05012	37438.9125
758.94733	38589.0125
762.8418	40714.7125
766.73354	44007.6125
770.62254	47124.7125
774.50882	47877.5125
778.39237	45526.7125
782.27321	41889.7125
786.15132	39060.4125
790.02671	37390.6125
793.89938	36684.2125
797.76935	36437.0125
801.6366	36306.8125
805.50115	36205.3125
809.36299	35998.3125
813.22213	35733.2125
817.07857	35578.2125
820.93231	35553.6125
824.78336	35520.0125
828.63172	35590.7125
832.47738	35685.6125
836.32036	35849.0125
840.16066	36019.6125
843.99827	36217.8125
847.8332	36066.9125
851.66546	35793.5125
855.49504	35714.6125
859.32195	35639.4125
863.1462	35406.6125
866.96777	35256.3125
870.78668	35140.8125
874.60293	35174.5125
878.41652	35152.4125
882.22745	35266.9125
886.03573	35420.3125
889.84136	35352.8125
893.64433	35192.7125
897.44466	35078.5125
901.24235	35020.5125
905.0374	34935.1125
908.8298	34918.9125
912.61957	35034.0125
916.40671	35385.8125
920.19121	35947.2125
923.97308	36495.1125
927.75233	36708.7125
931.52895	36570.3125
935.30295	36201.9125
939.07433	35482.1125
942.84309	35034.1125
946.60924	34806.8125
950.37278	34699.9125
954.13371	34477.2125
957.89203	34234.4125
961.64774	34114.6125
965.40086	34009.8125
969.15137	33864.3125
972.89929	33723.2125
976.64461	33772.5125
980.38733	33839.1125
984.12747	34045.7125
987.86502	34390.0125
991.59999	34971.1125
995.33237	35868.7125
999.06217	37256.7125
1002.78939	38830.0125
1006.51404	39724.5125
1010.23611	40106.0125
1013.95561	40430.9125
1017.67255	40331.9125
1021.38692	39836.9125
1025.09872	39621.9125
1028.80796	40419.3125
1032.51465	42165.5125
1036.21877	43719.7125
1039.92035	43952.6125
1043.61937	42988.3125
1047.31584	41453.9125
1051.00976	39878.7125
1054.70114	39016.8125
1058.38998	38873.6125
1062.07627	39092.4125
1065.76003	39454.6125
1069.44126	40076.8125
1073.11995	40987.2125
1076.79611	41858.3125
1080.46974	42241.6125
1084.14085	42236.1125
1087.80943	42117.1125
1091.47549	41707.1125
1095.13903	41025.7125
1098.80005	40083.7125
1102.45857	39244.8125
1106.11456	38843.4125
1109.76805	38859.0125
1113.41903	39099.2125
1117.06751	39428.4125
1120.71348	39846.3125
1124.35696	40261.8125
1127.99793	40681.5125
1131.63641	40874.6125
1135.2724	40596.9125
1138.90589	40275.7125
1142.5369	39967.3125
1146.16542	39764.2125
1149.79145	39686.3125
1153.415	39959.2125
1157.03607	40482.1125
1160.65467	41428.2125
1164.27079	42883.8125
1167.88443	45051.0125
1171.49561	47976.3125
1175.10432	51868.7125
1178.71056	56907.0125
1182.31434	61473.3125
1185.91565	63794.3125
1189.51451	63531.7125
1193.11091	61058.8125
1196.70485	57680.8125
1200.29634	54645.9125
1203.88538	52539.9125
1207.47197	50859.3125
1211.05612	49589.7125
1214.63782	48828.7125
1218.21708	48587.8125
1221.79391	48697.1125
1225.36829	48835.5125
1228.94024	48530.1125
1232.50976	47819.3125
1236.07685	47209.8125
1239.6415	46904.3125
1243.20374	46871.3125
1246.76355	47153.7125
1250.32093	47814.3125
1253.8759	49005.2125
1257.42845	50559.4125
1260.97859	51839.5125
1264.52631	53167.7125
1268.07163	54452.8125
1271.61453	55975.6125
1275.15503	57934.2125
1278.69312	59844.9125
1282.22882	61366.5125
1285.76211	62373.1125
1289.29301	63500.7125
1292.82151	64874.7125
1296.34761	67022.1125
1299.87133	70180.4125
1303.39266	74520.8125
1306.9116	79817.4125
1310.42815	85226.1125
1313.94233	88513.0125
1317.45412	88696.4125
1320.96354	86487.4125
1324.47058	83662.4125
1327.97525	81109.1125
1331.47754	79467.3125
1334.97747	78855.0125
1338.47502	79124.7125
1341.97022	79603.9125
1345.46305	79339.3125
1348.95352	78535.2125
1352.44163	78203.4125
1355.92738	79802.3125
1359.41078	84059.8125
1362.89183	88139.2125
1366.37053	86498.9125
1369.84688	79051.8125
1373.32088	70588.4125
1376.79254	64771.5125
1380.26186	62029.9125
1383.72883	61080.3125
1387.19347	60404.4125
1390.65578	59545.6125
1394.11575	59020.8125
1397.57339	59389.9125
1401.0287	60482.9125
1404.48168	61721.9125
1407.93234	62630.1125
1411.38068	62910.7125
1414.82669	62127.6125
1418.27039	60249.7125
1421.71177	57999.6125
1425.15083	55938.5125
1428.58758	54695.3125
1432.02203	54689.3125
1435.45416	55384.5125
1438.88399	56381.7125
1442.31151	57380.8125
1445.73673	58228.0125
1449.15965	58935.4125
1452.58027	59289.5125
1455.9986	59348.4125
1459.41463	59577.8125
1462.82837	60380.3125
1466.23982	61657.8125
1469.64898	62978.4125
1473.05586	63818.3125
1476.46045	64207.8125
1479.86276	64221.0125
1483.26279	64034.6125
1486.66054	63982.3125
1490.05602	64287.8125
1493.44922	64751.2125
1496.84016	65234.9125
1500.22882	66128.9125
1503.61521	67852.0125
1506.99934	70315.3125
1510.38121	72753.0125
1513.76081	73791.7125
1517.13816	72466.2125
1520.51324	69353.6125
1523.88607	66197.0125
1527.25665	64063.5125
1530.62498	62866.6125
1533.99105	62174.0125
1537.35488	61745.1125
1540.71647	61326.8125
1544.07581	60726.5125
1547.4329	59991.9125
1550.78776	59155.0125
1554.14038	58519.7125
1557.49077	58222.9125
1560.83892	58169.5125
1564.18484	58147.7125
1567.52853	58276.0125
1570.86999	58713.4125
1574.20922	59841.8125
1577.54624	61031.3125
1580.88103	61824.7125
1584.2136	62193.6125
1587.54395	63023.2125
1590.87208	64899.4125
1594.19801	68151.8125
1597.52172	71946.0125
1600.84321	73340.4125
1604.16251	70564.1125
1607.47959	65338.5125
1610.79447	59853.3125
1614.10715	54863.8125
1617.41763	50904.2125
1620.7259	48176.8125
1624.03199	46776.7125
1627.33587	46820.4125
1630.63757	48139.1125
1633.93707	50881.6125
1637.23439	54891.2125
1640.52951	60026.3125
1643.82246	65375.5125
1647.11321	69303.2125
1650.40179	69797.3125
1653.68819	65656.3125
1656.97241	58204.5125
1660.25446	50759.9125
1663.53433	45158.3125
1666.81203	41563.6125
1670.08756	39236.4125
1673.36092	37859.6125
1676.63211	36904.2125
1679.90115	36196.1125
1683.16801	35605.5125
1686.43272	35249.1125
1689.69527	35004.1125
1692.95567	34775.1125
1696.2139	34683.7125
1699.46999	34627.6125
1702.72392	34475.3125
1705.97571	34436.5125
1709.22535	34371.3125
1712.47284	34293.3125
1715.71819	34262.0125
1718.96139	34163.6125
1722.20246	34070.2125
1725.44139	33987.0125
1728.67818	33795.9125
1731.91284	33589.9125
1735.14537	33433.8125
1738.37576	33328.7125
1741.60403	33222.7125
1744.83017	33107.1125
1748.05418	33053.0125
1751.27607	32985.4125
1754.49584	32895.1125
1757.71349	32906.9125
1760.92903	32879.3125
1764.14244	32874.7125
1767.35375	32851.9125
1770.56294	32859.4125
1773.77002	32824.8125
1776.97499	32842.1125
1780.17785	32780.6125
1783.37861	32720.4125
1786.57727	32629.9125
1789.77382	32603.6125
1792.96828	32567.8125
1796.16064	32537.3125
1799.3509	32491.8125
1802.53907	32436.7125
1805.72514	32349.5125
1808.90913	32320.5125
1812.09102	32281.2125
1815.27083	32178.6125
1818.44856	32119.8125
1821.6242	32099.5125
1824.79776	32072.0125
1827.96924	32093.8125
1831.13864	32044.5125
1834.30597	32102.0125
1837.47122	32087.1125
1840.6344	32078.8125
1843.7955	32082.8125
1846.95454	32055.6125
1850.11151	32107.8125
1853.26642	32088.3125
1856.41926	32137.8125
1859.57004	32135.1125
1862.71876	32111.4125
1865.86542	32102.5125
1869.01003	32109.1125
1872.15258	32162.9125
1875.29308	32171.8125
1878.43152	32116.6125
1881.56792	32121.1125
1884.70227	32099.8125
1887.83457	32154.1125
1890.96482	32191.1125
1894.09304	32171.2125
1897.21921	32166.9125
1900.34335	32105.4125
1903.46544	32090.8125
1906.58551	32060.5125
1909.70353	32059.2125
1912.81953	32063.9125
1915.93349	32005.0125
1919.04543	31960.7125
1922.15534	31943.4125
1925.26322	31871.5125
1928.36908	31802.7125
1931.47292	31717.8125
1934.57473	31628.4125
1937.67453	31538.5125
1940.77232	31458.3125
1943.86808	31318.3125
1946.96184	31191.0125
1950.05358	31102.7125
1953.14331	31038.4125
1956.23103	30997.7125
1959.31675	30882.7125
1962.40046	30769.0125
1965.48217	30682.4125
1968.56188	30582.7125
1971.63959	30523.3125
1974.7153	30410.0125
1977.78901	30268.3125
1980.86073	30243.0125
1983.93046	30162.7125
1986.99819	30097.1125
1990.06394	30055.3125
1993.1277	29995.0125
1996.18947	29852.1125
1999.24925	29748.2125
2002.30706	29635.1125
2005.36288	29570.5125
2008.41672	29536.5125
2011.46859	29448.7125
2014.51848	29393.8125
2017.56639	29343.4125
2020.61233	29291.6125
2023.6563	29250.8125
2026.6983	29197.0125
2029.73833	29141.9125
2032.7764	29116.3125
2035.8125	29061.9125
2038.84664	28973.1125
2041.87881	29004.4125
2044.90903	29009.4125
2047.93729	28925.2125
2050.96359	28910.4125
2053.98794	28884.1125
2057.01034	28886.1125
2060.03078	28818.4125
2063.04927	28849.0125
2066.06582	28805.5125
2069.08042	28788.6125
2072.09307	28762.1125
2075.10378	28708.6125
2078.11255	28706.0125
2081.11938	28674.7125
2084.12426	28621.8125
2087.12722	28594.9125
2090.12824	28604.9125
2093.12732	28623.9125
2096.12447	28659.8125
2099.11969	28600.1125
2102.11299	28602.8125
2105.10435	28664.3125
2108.09379	28736.5125
2111.08131	28719.9125
2114.0669	28684.6125
2117.05057	28736.0125
2120.03233	28723.3125
2123.01216	28751.4125
2125.99008	28756.4125
2128.96609	28786.2125
2131.94018	28813.2125
2134.91236	28818.7125
2137.88263	28868.1125
2140.851	28865.3125
2143.81746	28903.6125
2146.78201	28976.7125
2149.74466	28947.8125
2152.7054	28925.8125
2155.66425	28952.5125
2158.6212	28947.3125
2161.57625	28951.5125
2164.52941	28959.7125
2167.48067	28950.4125
2170.43004	28940.5125
2173.37752	28920.2125
2176.32311	28965.6125
2179.26681	28925.8125
2182.20863	28920.2125
2185.14856	28924.9125
2188.08661	28931.1125
2191.02278	29006.4125
2193.95707	28967.7125
2196.88948	28976.0125
2199.82001	28990.4125
2202.74867	28971.4125
2205.67545	28976.6125
2208.60037	28953.9125
2211.52341	28952.9125
2214.44458	28980.4125
2217.36388	28932.1125
2220.28132	28917.7125
2223.1969	28873.9125
2226.11061	28871.3125
2229.02246	28786.9125
2231.93245	28746.8125
2234.84058	28647.3125
2237.74686	28583.8125
2240.65128	28580.1125
2243.55385	28471.2125
2246.45456	28510.3125
2249.35343	28427.1125
2252.25044	28432.2125
2255.14561	28349.8125
2258.03893	28369.4125
2260.93041	28355.7125
2263.82004	28291.7125
2266.70783	28203.3125
2269.59378	28114.6125
2272.4779	28058.6125
2275.36017	27960.0125
2278.24061	27913.9125
2281.11922	27854.3125
2283.996	27869.0125
2286.87094	27866.0125
2289.74405	27800.5125
2292.61534	27835.7125
2295.4848	27771.1125
2298.35243	27799.0125
2301.21824	27803.0125
2304.08223	27834.4125
2306.94439	27859.4125
2309.80474	27929.6125
2312.66327	27895.2125
2315.51999	27916.4125
2318.37489	27955.8125
2321.22797	27907.5125
2324.07925	27911.0125
2326.92871	27924.1125
2329.77637	27897.6125
2332.62222	27878.1125
2335.46626	27906.6125
2338.3085	27890.5125
2341.14893	27932.7125
2343.98756	27995.7125
2346.8244	27990.4125
2349.65943	28014.1125
2352.49267	27963.7125
2355.32411	27952.3125
2358.15376	27896.9125
2360.98161	27898.6125
2363.80768	27852.4125
2366.63195	27863.1125
2369.45444	27793.9125
2372.27514	27731.9125
2375.09405	27667.0125
2377.91118	27569.0125
2380.72652	27520.4125
2383.54009	27470.0125
2386.35187	27450.6125
2389.16188	27403.7125
2391.97011	27425.6125
2394.77657	27321.5125
2397.58125	27318.0125
2400.38416	27260.9125
2403.18529	27250.9125
2405.98466	27157.2125
2408.78226	27083.0125
2411.57809	27055.0125
2414.37216	26984.7125
2417.16446	26987.1125
2419.955	26915.8125
2422.74378	26925.0125
2425.5308	26869.6125
2428.31606	26836.2125
2431.09956	26829.5125
2433.88131	26823.1125
2436.6613	26842.8125
2439.43954	26813.9125
2442.21603	26781.4125
2444.99077	26739.4125
2447.76377	26759.6125
2450.53501	26776.2125
2453.30451	26784.1125
2456.07226	26768.1125
2458.83827	26778.7125
2461.60254	26764.5125
2464.36507	26750.6125
2467.12586	26767.4125
2469.88492	26751.3125
2472.64224	26767.6125
2475.39782	26774.1125
2478.15167	26808.2125
2480.90379	26833.2125
2483.65417	26892.7125
2486.40283	26870.7125
2489.14976	26917.4125
2491.89497	26922.5125
2494.63845	26981.8125
2497.3802	26943.9125
2500.12024	26972.5125
2502.85855	26998.6125
2505.59514	26962.2125
2508.33002	26934.9125
2511.06318	26911.0125
2513.79462	26868.9125
2516.52435	26863.6125
2519.25237	26828.6125
2521.97867	26793.0125
2524.70327	26747.7125
2527.42616	26764.9125
2530.14734	26774.8125
2532.86681	26694.9125
2535.58458	26741.9125
2538.30065	26700.0125
2541.01501	26738.7125
2543.72768	26746.9125
2546.43864	26681.0125
2549.14791	26645.2125
2551.85548	26682.3125
2554.56136	26628.6125
2557.26554	26600.6125
2559.96803	26588.3125
2562.66883	26541.7125
2565.36794	26557.4125
2568.06536	26575.9125
2570.7611	26542.2125
2573.45514	26529.4125
2576.14751	26524.2125
2578.83819	26537.8125
2581.52719	26590.5125
2584.21451	26560.5125
2586.90015	26567.8125
2589.58411	26525.7125
2592.2664	26481.7125
2594.94701	26509.2125
2597.62594	26497.8125
2600.30321	26483.9125
2602.9788	26498.3125
2605.65273	26435.5125
2608.32498	26471.7125
2610.99557	26420.2125
2613.66449	26443.1125
2616.33175	26451.8125
2618.99734	26483.9125
2621.66128	26490.5125
2624.32355	26525.3125
2626.98416	26554.8125
2629.64311	26482.4125
2632.30041	26511.1125
2634.95605	26532.5125
2637.61004	26452.9125
2640.26238	26443.3125
2642.91306	26413.9125
2645.56209	26372.6125
2648.20948	26375.0125
2650.85521	26319.8125
2653.4993	26356.6125
2656.14175	26291.6125
2658.78255	26319.8125
2661.42171	26353.6125
2664.05923	26347.5125
2666.6951	26383.5125
2669.32934	26414.1125
2671.96194	26398.3125
2674.59291	26452.5125
2677.22224	26418.7125
2679.84993	26428.0125
2682.476	26314.7125
2685.10043	26334.7125
2687.72324	26315.5125
2690.34441	26317.1125
2692.96396	26299.1125
2695.58188	26332.3125
2698.19818	26281.1125
2700.81285	26245.3125
2703.4259	26267.3125
2706.03733	26317.4125
2708.64714	26307.4125
2711.25533	26315.7125
2713.86191	26355.4125
2716.46687	26344.4125
2719.07021	26354.5125
2721.67194	26347.4125
2724.27206	26342.4125
2726.87057	26343.7125
2729.46747	26389.0125
2732.06276	26416.7125
2734.65644	26376.7125
2737.24852	26390.0125
2739.83899	26379.8125
2742.42786	26413.5125
2745.01513	26385.6125
2747.60079	26318.5125
2750.18486	26318.7125
2752.76733	26333.9125
2755.3482	26375.0125
2757.92747	26367.9125
2760.50515	26363.3125
2763.08123	26338.5125
2765.65573	26290.7125
2768.22863	26278.7125
2770.79994	26256.1125
2773.36967	26253.0125
2775.9378	26251.6125
2778.50435	26218.0125
2781.06932	26186.9125
2783.6327	26230.5125
2786.1945	26236.0125
2788.75471	26201.3125
2791.31335	26121.9125
2793.87041	26129.6125
2796.42589	25992.4125
2798.97979	26029.7125
2801.53212	25967.3125
2804.08288	25983.4125
2806.63206	25917.5125
2809.17967	25881.3125
2811.72571	25848.5125
2814.27018	25847.0125
2816.81308	25762.1125
2819.35442	25786.1125
2821.89419	25769.4125
2824.43239	25748.0125
2826.96904	25731.6125
2829.50412	25753.4125
2832.03763	25716.2125
2834.56959	25702.4125
2837.1	25596.2125
2839.62884	25625.6125
2842.15613	25586.7125
2844.68186	25589.5125
2847.20604	25542.7125
2849.72867	25592.1125
2852.24974	25502.3125
2854.76927	25537.4125
2857.28724	25488.8125
2859.80367	25461.5125
2862.31855	25405.9125
2864.83189	25416.5125
2867.34368	25389.5125
2869.85393	25425.6125
2872.36264	25368.3125
2874.8698	25355.5125
2877.37543	25406.4125
2879.87952	25400.6125
2882.38207	25429.2125
2884.88308	25418.9125
2887.38256	25461.6125
2889.88051	25393.4125
2892.37692	25432.8125
2894.8718	25457.6125
2897.36515	25468.2125
2899.85698	25476.7125
2902.34727	25531.0125
2904.83604	25554.1125
2907.32328	25631.4125
2909.809	25627.0125
2912.29319	25677.3125
2914.77587	25651.0125
2917.25702	25659.2125
2919.73665	25623.4125
2922.21476	25640.8125
2924.69136	25607.8125
2927.16644	25603.3125
2929.64	25521.8125
2932.11205	25464.9125
2934.58258	25369.8125
2937.05161	25455.0125
2939.51912	25479.6125
2941.98513	25474.7125
2944.44962	25368.9125
2946.91261	25291.8125
2949.37409	25338.6125
2951.83407	25348.0125
2954.29254	25293.4125
2956.74951	25265.8125
2959.20498	25297.6125
2961.65895	25249.8125
2964.11142	25270.7125
2966.56239	25201.4125
2969.01186	25193.3125
2971.45984	25106.1125
2973.90632	25060.9125
2976.35131	25030.0125
2978.7948	24978.3125
2981.23681	24930.1125
2983.67732	24905.9125
2986.11635	24830.6125
2988.55388	24764.1125
2990.98993	24723.6125
2993.4245	24704.5125
2995.85758	24622.6125
2998.28917	24602.0125
3000.71928	24554.9125
3003.14791	24494.3125
3005.57506	24474.4125
3008.00073	24426.4125
3010.42493	24417.2125
3012.84764	24383.7125
3015.26888	24423.6125
3017.68865	24360.8125
3020.10694	24262.3125
3022.52376	24237.7125
3024.9391	24193.6125
3027.35298	24188.7125
3029.76539	24164.1125
3032.17632	24127.4125
3034.5858	24110.9125
3036.9938	24083.0125
3039.40034	24085.7125
3041.80542	24013.1125
3044.20903	23998.1125
3046.61118	23966.1125
3049.01187	23906.8125
3051.4111	23888.5125
3053.80888	23823.3125
3056.20519	23778.0125
3058.60005	23730.2125
3060.99345	23695.6125
3063.3854	23647.0125
3065.7759	23535.4125
3068.16494	23519.6125
3070.55254	23469.9125
3072.93868	23449.1125
3075.32338	23365.4125
3077.70662	23347.5125
3080.08842	23260.4125
3082.46878	23278.2125
3084.84769	23218.0125
3087.22515	23216.9125
3089.60118	23218.7125
3091.97576	23190.6125
3094.3489	23170.7125
3096.72061	23155.8125
3099.09087	23180.7125
3101.4597	23137.9125
3103.82709	23079.0125
3106.19305	23087.9125
3108.55757	23066.0125
3110.92066	22981.5125
3113.28232	22946.0125
3115.64255	22890.4125
3118.00134	22857.5125
3120.35871	22866.1125
3122.71466	22805.9125
3125.06917	22827.5125
3127.42226	22803.1125
3129.77393	22768.5125
3132.12417	22720.1125
3134.47299	22739.7125
3136.82039	22731.5125
3139.16636	22727.2125
3141.51092	22651.8125
3143.85406	22694.3125
3146.19579	22727.3125
3148.53609	22714.0125
3150.87499	22667.4125
3153.21246	22713.0125
3155.54853	22748.6125
3157.88318	22678.2125
3160.21642	22700.1125
3162.54826	22619.0125
3164.87868	22680.5125
3167.2077	22644.2125
3169.5353	22601.4125
3171.86151	22597.4125
3174.18631	22567.5125
3176.5097	22511.5125
3178.83169	22527.6125
3181.15228	22534.8125
3183.47147	22500.9125
3185.78926	22549.2125
3188.10565	22501.0125
3190.42065	22466.8125
3192.73424	22462.8125
3195.04645	22461.0125
3197.35725	22458.3125
3199.66667	22495.0125
3201.97469	22486.6125
3204.28132	22456.5125
3206.58656	22475.1125
3208.8904	22497.0125
3211.19287	22479.6125
3213.49394	22470.8125
3215.79363	22450.9125
3218.09193	22498.2125
3220.38884	22488.7125
3222.68438	22558.6125
3224.97853	22500.6125
3227.2713	22483.0125
3229.56269	22453.4125
3231.8527	22413.4125
3234.14133	22402.3125
3236.42858	22338.6125
3238.71446	22342.1125
3240.99896	22276.8125
3243.28209	22292.1125
3245.56384	22257.7125
3247.84423	22272.7125
3250.12324	22186.3125
3252.40088	22200.1125
3254.67715	22198.0125
3256.95205	22135.9125
3259.22558	22169.8125
3261.49775	22137.9125
3263.76855	22106.6125
3266.03799	22051.8125
3268.30606	22039.9125
3270.57277	22038.7125
3272.83812	21997.5125
3275.10211	21938.4125
3277.36474	21944.3125
3279.62601	21973.7125
3281.88593	21952.3125
3284.14448	21919.6125
3286.40168	21921.5125
3288.65753	21893.5125
3290.91202	21894.5125
3293.16516	21781.3125
3295.41695	21756.2125
3297.66738	21647.8125
3299.91647	21551.4125
3302.16421	21445.7125
3304.4106	21379.1125
3306.65564	21281.9125
3308.89933	21110.7125
3311.14169	20997.1125
3313.38269	20848.6125
3315.62236	20710.4125
3317.86068	20571.6125
3320.09766	20360.7125
3322.3333	20198.5125
3324.5676	20183.7125
3326.80056	19887.0125
3329.03219	19816.9125
3331.26248	6.3125
3333.49143	0.5125
3335.71905	0.6125
