Data from AgNP_FTO_APTES_CRN_1000uM_R6G_10uM_NaF_0.1M_Addition_RamanShift__26__21-20-38-297.txt Node

Date: Wed Dec 15 21:20:38 GMT 2021
User: TCL
Spectrometer: QEP01345
Trigger mode: 4
Integration Time (sec): 7.000000E0
Scans to average: 10
Electric dark correction enabled: true
Nonlinearity correction enabled: false
Boxcar width: 0
XAxis mode: Raman Shifts
Number of Pixels in Spectrum: 1044
>>>>>Begin Spectral Data<<<<<
46.04893	0.7
50.45542	-1.6
54.85868	-0.8
59.25871	-0.8
63.6555	58.3
68.04907	61.7
72.43941	67
76.82654	70.1
81.21044	72.7
85.59113	78.6
89.96862	79.3
94.34289	79.5
98.71396	81.9
103.08183	87.2
107.4465	89.8
111.80798	92.8
116.16626	96.1
120.52136	100.3
124.87327	97.8
129.222	106.6
133.56755	107.7
137.90993	119.7
142.24913	127.1
146.58517	144.6
150.91804	168.6
155.24774	195.4
159.57429	246.4
163.89768	313.4
168.21792	415.2
172.53501	559.3
176.84895	777.8
181.15975	1087.4
185.46741	1528.5
189.77193	2114.6
194.07331	2821.6
198.37157	3631
202.6667	4510.3
206.9587	5393
211.24758	6238.5
215.53334	7079.2
219.81599	7973.9
224.09553	8947.3
228.37195	9987.6
232.64527	11137.3
236.91549	12343.3
241.18261	13557.4
245.44663	14708.7
249.70755	15731.1
253.96539	16647.7
258.22014	17395.3
262.4718	18021.9
266.72039	18456.7
270.96589	18652
275.20832	18704.6
279.44768	18573.3
283.68397	18382.1
287.91719	18220.3
292.14735	18098.7
296.37445	18051.8
300.59849	18001
304.81948	17952.7
309.03742	17832.2
313.25231	17675.4
317.46415	17362.9
321.67296	17055.2
325.87872	16891.3
330.08145	16845.1
334.28114	16910.9
338.47781	17054.8
342.67145	17244.8
346.86207	17468.6
351.04966	17774.7
355.23424	18052.5
359.4158	18312.9
363.59435	18534.1
367.76989	18674.1
371.94243	18782.7
376.11196	18911.1
380.27849	19030.4
384.44203	19199.2
388.60257	19324.4
392.76012	19429.3
396.91468	19615.4
401.06626	19799.3
405.21485	20016.8
409.36047	20016.1
413.50311	19855.1
417.64277	19739.7
421.77947	19749.6
425.9132	19843.3
430.04396	20047.9
434.17176	20283.1
438.2966	20622.5
442.41849	21078.7
446.53742	21659.4
450.6534	22261.9
454.76644	22674.3
458.87653	22812.9
462.98368	22618.5
467.08789	22353.1
471.18916	22185.1
475.2875	22047.6
479.38291	21927.4
483.4754	21820.8
487.56496	21581
491.6516	21254.9
495.73531	21018.2
499.81612	20871.2
503.89401	20960.9
507.96899	21085.9
512.04106	21175.8
516.11023	21343.9
520.1765	21445.7
524.23987	21531.6
528.30034	21460.1
532.35792	21300.4
536.41261	21141.2
540.46441	20943
544.51333	20928.5
548.55936	21029.2
552.60252	21311.6
556.64279	21716
560.6802	21981.9
564.71473	22197.6
568.7464	22422.5
572.7752	22717.7
576.80114	22743.1
580.82422	22681.1
584.84444	22769.5
588.86181	23222.9
592.87633	23849.3
596.888	24212.6
600.89682	24104.2
604.9028	24187.1
608.90594	25144.6
612.90624	26234.3
616.90371	25205
620.89834	22558.4
624.89015	21277.6
628.87913	21153.2
632.86528	21199
636.84862	21251.6
640.82913	21092.2
644.80683	20807.1
648.78172	20614.5
652.75379	20581.6
656.72306	20729.9
660.68952	20960.1
664.65319	20917.3
668.61405	20780.3
672.57211	20788.6
676.52738	20865.2
680.47986	20943.4
684.42955	20935.5
688.37646	20870
692.32058	20907.1
696.26192	20989.7
700.20048	21103.8
704.13626	21177.2
708.06928	21142.6
711.99952	20956.2
715.927	20797.1
719.85171	20749.2
723.77365	20615.3
727.69284	20471.3
731.60928	20281.2
735.52295	20201.6
739.43388	20167.1
743.34206	20148.6
747.24749	20133.2
751.15017	20163.5
755.05012	20288.2
758.94733	20629.9
762.8418	21214.7
766.73354	22215
770.62254	23102.6
774.50882	23287.2
778.39237	22628.2
782.27321	21437.5
786.15132	20489.9
790.02671	19889.8
793.89938	19593.3
797.76935	19482.8
801.6366	19436
805.50115	19427.7
809.36299	19398.9
813.22213	19360.6
817.07857	19358
820.93231	19334.5
824.78336	19266
828.63172	19275.2
832.47738	19260.5
836.32036	19310.4
840.16066	19259.8
843.99827	19268
847.8332	19226
851.66546	19206.9
855.49504	19235.6
859.32195	19257.7
863.1462	19307.5
866.96777	19312.5
870.78668	19217.8
874.60293	19100.5
878.41652	19051
882.22745	19082
886.03573	19053.2
889.84136	19071
893.64433	19016.3
897.44466	18947.2
901.24235	18898.7
905.0374	18853.3
908.8298	18830
912.61957	18868.8
916.40671	18967.1
920.19121	19124.6
923.97308	19223.6
927.75233	19303
931.52895	19327.5
935.30295	19177.6
939.07433	19005.3
942.84309	18741.6
946.60924	18556.6
950.37278	18490
954.13371	18419.6
957.89203	18360.6
961.64774	18338.5
965.40086	18270.4
969.15137	18182
972.89929	18120.5
976.64461	18075.8
980.38733	18046
984.12747	18103.7
987.86502	18196.1
991.59999	18304.6
995.33237	18495
999.06217	18791.6
1002.78939	19154.5
1006.51404	19380.6
1010.23611	19535.9
1013.95561	19670.8
1017.67255	19639
1021.38692	19474.6
1025.09872	19255.4
1028.80796	19220.8
1032.51465	19330
1036.21877	19487
1039.92035	19537.7
1043.61937	19505.5
1047.31584	19463.2
1051.00976	19375.8
1054.70114	19411.5
1058.38998	19549.6
1062.07627	19801.3
1065.76003	20284.2
1069.44126	20963.6
1073.11995	21747.6
1076.79611	22426.8
1080.46974	22398.9
1084.14085	21830.4
1087.80943	21070.5
1091.47549	20516.7
1095.13903	20115.8
1098.80005	19795.8
1102.45857	19522.6
1106.11456	19281.2
1109.76805	19267.2
1113.41903	19312.4
1117.06751	19436.3
1120.71348	19591.2
1124.35696	19722.7
1127.99793	19933.6
1131.63641	20103.9
1135.2724	20045.6
1138.90589	19946.3
1142.5369	19776.8
1146.16542	19730.8
1149.79145	19736.7
1153.415	19854.3
1157.03607	20032.1
1160.65467	20363.9
1164.27079	20895.9
1167.88443	21718.9
1171.49561	22840.2
1175.10432	24271.3
1178.71056	25877.5
1182.31434	27156.6
1185.91565	27498.5
1189.51451	27122.4
1193.11091	26423.6
1196.70485	25617.8
1200.29634	24849.8
1203.88538	24359
1207.47197	23843.2
1211.05612	23501.8
1214.63782	23263.5
1218.21708	23183.6
1221.79391	23085
1225.36829	22949.6
1228.94024	22672.3
1232.50976	22335.4
1236.07685	22094.2
1239.6415	22014.2
1243.20374	22012.9
1246.76355	22165.7
1250.32093	22360.4
1253.8759	22620.4
1257.42845	23018.2
1260.97859	23379.1
1264.52631	23743.4
1268.07163	24089.3
1271.61453	24494
1275.15503	24952.2
1278.69312	25345.9
1282.22882	25706.6
1285.76211	26215.9
1289.29301	26873.2
1292.82151	27765.1
1296.34761	28866.5
1299.87133	30140.4
1303.39266	31559.6
1306.9116	33143.6
1310.42815	34719.9
1313.94233	35893.7
1317.45412	36189.7
1320.96354	35852.4
1324.47058	35258.3
1327.97525	34542
1331.47754	34022.4
1334.97747	33907.1
1338.47502	34058
1341.97022	34063.7
1345.46305	33752.6
1348.95352	33285.9
1352.44163	33266.3
1355.92738	33709.6
1359.41078	34761.9
1362.89183	35875.5
1366.37053	35550
1369.84688	33435.6
1373.32088	30662.4
1376.79254	28753.7
1380.26186	27905.2
1383.72883	27686.8
1387.19347	27644.9
1390.65578	27546.2
1394.11575	27593.3
1397.57339	27960.8
1401.0287	28617.3
1404.48168	29170.4
1407.93234	29485.3
1411.38068	29395.9
1414.82669	28689.1
1418.27039	27725.1
1421.71177	26624
1425.15083	25688.1
1428.58758	25139.9
1432.02203	25098.9
1435.45416	25435.5
1438.88399	25867.7
1442.31151	26163.3
1445.73673	26400.6
1449.15965	26763.9
1452.58027	27084
1455.9986	27172.7
1459.41463	27300.4
1462.82837	27570.6
1466.23982	28051.1
1469.64898	28448.3
1473.05586	28706.7
1476.46045	28753.1
1479.86276	28585
1483.26279	28273.7
1486.66054	27973.1
1490.05602	27819.8
1493.44922	27667.1
1496.84016	27422.8
1500.22882	27340.7
1503.61521	27531.1
1506.99934	28092.4
1510.38121	28612.6
1513.76081	28832.3
1517.13816	28413.8
1520.51324	27599.3
1523.88607	26832.6
1527.25665	26461.9
1530.62498	26354.1
1533.99105	26506.9
1537.35488	26590.9
1540.71647	26529.5
1544.07581	26373
1547.4329	26046.8
1550.78776	25758
1554.14038	25482.5
1557.49077	25355.5
1560.83892	25346.8
1564.18484	25431.2
1567.52853	25726.6
1570.86999	26351.1
1574.20922	27387.1
1577.54624	28655.5
1580.88103	29365.3
1584.2136	29311.3
1587.54395	28810.3
1590.87208	28731.1
1594.19801	29344.2
1597.52172	30406.2
1600.84321	30882.5
1604.16251	30060.4
1607.47959	28210.9
1610.79447	26060.2
1614.10715	24068.8
1617.41763	22570.5
1620.7259	21564.7
1624.03199	21074.7
1627.33587	20988.2
1630.63757	21359.5
1633.93707	22259.4
1637.23439	23737.6
1640.52951	25784.8
1643.82246	28126.3
1647.11321	30010.7
1650.40179	30435.2
1653.68819	28892.3
1656.97241	26065
1660.25446	23143.7
1663.53433	20990.2
1666.81203	19581.3
1670.08756	18666.3
1673.36092	18068
1676.63211	17677.9
1679.90115	17378.5
1683.16801	17144.8
1686.43272	16992.6
1689.69527	16883.8
1692.95567	16762.3
1696.2139	16708.6
1699.46999	16700.7
1702.72392	16666.7
1705.97571	16590.9
1709.22535	16552.3
1712.47284	16529.1
1715.71819	16451.8
1718.96139	16400.9
1722.20246	16346.1
1725.44139	16256.3
1728.67818	16177.6
1731.91284	16096.9
1735.14537	16032.5
1738.37576	15994.2
1741.60403	15987.8
1744.83017	15951.3
1748.05418	15925.1
1751.27607	15868.3
1754.49584	15844.3
1757.71349	15811.8
1760.92903	15792.6
1764.14244	15775.5
1767.35375	15762
1770.56294	15737.1
1773.77002	15707.4
1776.97499	15694.2
1780.17785	15653.9
1783.37861	15630.7
1786.57727	15596.9
1789.77382	15528.8
1792.96828	15527
1796.16064	15510.7
1799.3509	15449.4
1802.53907	15399.2
1805.72514	15390.3
1808.90913	15365.9
1812.09102	15311.4
1815.27083	15278.5
1818.44856	15246.3
1821.6242	15227.5
1824.79776	15231
1827.96924	15206.7
1831.13864	15240
1834.30597	15199.3
1837.47122	15159.2
1840.6344	15153.5
1843.7955	15145.7
1846.95454	15160.1
1850.11151	15127.9
1853.26642	15114.8
1856.41926	15103.3
1859.57004	15113.4
1862.71876	15081.7
1865.86542	15075
1869.01003	15063.9
1872.15258	15094.7
1875.29308	15062
1878.43152	15049.8
1881.56792	15036.9
1884.70227	15057.9
1887.83457	15046
1890.96482	15044.2
1894.09304	15013.1
1897.21921	15024.4
1900.34335	15018.6
1903.46544	14976.3
1906.58551	14965.9
1909.70353	14956
1912.81953	14922.8
1915.93349	14931.1
1919.04543	14883
1922.15534	14846.6
1925.26322	14842.8
1928.36908	14841
1931.47292	14821
1934.57473	14771.5
1937.67453	14707.9
1940.77232	14689.6
1943.86808	14650.1
1946.96184	14597.7
1950.05358	14540.9
1953.14331	14508.4
1956.23103	14465.1
1959.31675	14434.5
1962.40046	14392.6
1965.48217	14352.5
1968.56188	14313.9
1971.63959	14299.3
1974.7153	14220.4
1977.78901	14159.8
1980.86073	14157.1
1983.93046	14089
1986.99819	14044.7
1990.06394	14007.7
1993.1277	13990.7
1996.18947	13950.1
1999.24925	13898.1
2002.30706	13874.2
2005.36288	13843.8
2008.41672	13756.6
2011.46859	13746.2
2014.51848	13725.7
2017.56639	13688
2020.61233	13654.4
2023.6563	13598.3
2026.6983	13608.5
2029.73833	13591.2
2032.7764	13542.7
2035.8125	13514.5
2038.84664	13479.8
2041.87881	13479.4
2044.90903	13457
2047.93729	13401.6
2050.96359	13430.2
2053.98794	13372.5
2057.01034	13393.1
2060.03078	13363.4
2063.04927	13348.1
2066.06582	13325.6
2069.08042	13345.1
2072.09307	13317.9
2075.10378	13307
2078.11255	13308.4
2081.11938	13295.9
2084.12426	13282.4
2087.12722	13284.4
2090.12824	13260.2
2093.12732	13297.4
2096.12447	13282.1
2099.11969	13255.8
2102.11299	13287.5
2105.10435	13270.5
2108.09379	13284.4
2111.08131	13275.9
2114.0669	13290.2
2117.05057	13293.1
2120.03233	13285.4
2123.01216	13293.8
2125.99008	13317.3
2128.96609	13296
2131.94018	13343.4
2134.91236	13343.3
2137.88263	13333.8
2140.851	13336.2
2143.81746	13365.4
2146.78201	13361.7
2149.74466	13374.3
2152.7054	13380.2
2155.66425	13383.3
2158.6212	13419.1
2161.57625	13397.3
2164.52941	13362.5
2167.48067	13363.8
2170.43004	13321.5
2173.37752	13351.8
2176.32311	13318.7
2179.26681	13359
2182.20863	13338
2185.14856	13323.4
2188.08661	13296.9
2191.02278	13315.9
2193.95707	13288.1
2196.88948	13286.9
2199.82001	13256.1
2202.74867	13259.8
2205.67545	13290.7
2208.60037	13261.7
2211.52341	13263.5
2214.44458	13243.4
2217.36388	13172.5
2220.28132	13196.5
2223.1969	13138.9
2226.11061	13119.9
2229.02246	13133.3
2231.93245	13087.4
2234.84058	13070.3
2237.74686	13028.4
2240.65128	13009.5
2243.55385	12957.4
2246.45456	12976.8
2249.35343	12957.8
2252.25044	12915.2
2255.14561	12906.1
2258.03893	12896.5
2260.93041	12875.4
2263.82004	12840.6
2266.70783	12810.5
2269.59378	12797.1
2272.4779	12776.2
2275.36017	12739
2278.24061	12663.4
2281.11922	12641.1
2283.996	12647.9
2286.87094	12623.4
2289.74405	12610.3
2292.61534	12569.2
2295.4848	12562.4
2298.35243	12578.5
2301.21824	12561.9
2304.08223	12550.2
2306.94439	12525.1
2309.80474	12545.8
2312.66327	12529.6
2315.51999	12536.1
2318.37489	12501.4
2321.22797	12492.7
2324.07925	12489.3
2326.92871	12484.2
2329.77637	12495.4
2332.62222	12484.6
2335.46626	12449.7
2338.3085	12448.6
2341.14893	12421
2343.98756	12407.8
2346.8244	12390.3
2349.65943	12379.6
2352.49267	12370.4
2355.32411	12360.4
2358.15376	12348.5
2360.98161	12355.3
2363.80768	12329.9
2366.63195	12323.2
2369.45444	12287.7
2372.27514	12267.2
2375.09405	12255.8
2377.91118	12248.4
2380.72652	12224
2383.54009	12209.9
2386.35187	12207.3
2389.16188	12145.6
2391.97011	12127.2
2394.77657	12105.7
2397.58125	12079.1
2400.38416	12057.3
2403.18529	12063.8
2405.98466	12072.1
2408.78226	12039.9
2411.57809	12012
2414.37216	11978.8
2417.16446	11959.6
2419.955	11946.6
2422.74378	11981.1
2425.5308	11917.7
2428.31606	11862.8
2431.09956	11911.6
2433.88131	11903.7
2436.6613	11902.7
2439.43954	11871.1
2442.21603	11864.8
2444.99077	11847.5
2447.76377	11865.9
2450.53501	11859.2
2453.30451	11849.3
2456.07226	11818.5
2458.83827	11812.9
2461.60254	11799.7
2464.36507	11781.7
2467.12586	11774.8
2469.88492	11773.3
2472.64224	11750.2
2475.39782	11769.4
2478.15167	11756.1
2480.90379	11748.8
2483.65417	11747.4
2486.40283	11783.5
2489.14976	11770.3
2491.89497	11773.5
2494.63845	11782.3
2497.3802	11746.6
2500.12024	11710.7
2502.85855	11729.3
2505.59514	11697.2
2508.33002	11727.7
2511.06318	11683.5
2513.79462	11700.5
2516.52435	11670.7
2519.25237	11650.6
2521.97867	11640.6
2524.70327	11631.7
2527.42616	11637.3
2530.14734	11609.3
2532.86681	11574.8
2535.58458	11595.7
2538.30065	11582.9
2541.01501	11567.6
2543.72768	11558.1
2546.43864	11552.4
2549.14791	11550.6
2551.85548	11503.1
2554.56136	11487.8
2557.26554	11446.7
2559.96803	11472.3
2562.66883	11451.3
2565.36794	11409.2
2568.06536	11437.6
2570.7611	11422.7
2573.45514	11405
2576.14751	11382.1
2578.83819	11378.3
2581.52719	11365.3
2584.21451	11316.8
2586.90015	11328.6
2589.58411	11335.5
2592.2664	11290.5
2594.94701	11249.1
2597.62594	11262.5
2600.30321	11245.3
2602.9788	11237.5
2605.65273	11209.2
2608.32498	11209
2610.99557	11204
2613.66449	11217.8
2616.33175	11179.1
2618.99734	11187
2621.66128	11176.9
2624.32355	11171.5
2626.98416	11176.8
2629.64311	11162.8
2632.30041	11142.9
2634.95605	11146.4
2637.61004	11122.3
2640.26238	11104.5
2642.91306	11118.3
2645.56209	11120.7
2648.20948	11110.8
2650.85521	11084.9
2653.4993	11100
2656.14175	11097.3
2658.78255	11104.5
2661.42171	11087.2
2664.05923	11074.8
2666.6951	11095.8
2669.32934	11094.2
2671.96194	11103.6
2674.59291	11082.7
2677.22224	11093.2
2679.84993	11092
2682.476	11097.7
2685.10043	11066.2
2687.72324	11050.7
2690.34441	11076.5
2692.96396	11062.6
2695.58188	11092.6
2698.19818	11069.4
2700.81285	11076.3
2703.4259	11080.1
2706.03733	11136.7
2708.64714	11105.8
2711.25533	11129.2
2713.86191	11117.4
2716.46687	11120.4
2719.07021	11090.6
2721.67194	11098.9
2724.27206	11085.8
2726.87057	11096.4
2729.46747	11096
2732.06276	11078.5
2734.65644	11088.8
2737.24852	11082
2739.83899	11045.4
2742.42786	11059.2
2745.01513	11032.1
2747.60079	11044.2
2750.18486	11040.5
2752.76733	11046.8
2755.3482	11031.2
2757.92747	11022
2760.50515	11026.2
2763.08123	11007.1
2765.65573	10992.9
2768.22863	10997.4
2770.79994	11000.4
2773.36967	11025.6
2775.9378	10951.1
2778.50435	10972.7
2781.06932	10932.3
2783.6327	10951
2786.1945	10940.9
2788.75471	10912.5
2791.31335	10897.2
2793.87041	10890.7
2796.42589	10856
2798.97979	10883.3
2801.53212	10840.5
2804.08288	10830.3
2806.63206	10807.6
2809.17967	10788.9
2811.72571	10759
2814.27018	10768.2
2816.81308	10755.2
2819.35442	10724.6
2821.89419	10735.4
2824.43239	10711.2
2826.96904	10715.8
2829.50412	10700.9
2832.03763	10685
2834.56959	10679.2
2837.1	10664.1
2839.62884	10684.5
2842.15613	10669.6
2844.68186	10688.2
2847.20604	10685
2849.72867	10697.5
2852.24974	10692.2
2854.76927	10670.5
2857.28724	10678
2859.80367	10647.4
2862.31855	10615.1
2864.83189	10637.5
2867.34368	10595.4
2869.85393	10598.5
2872.36264	10611.9
2874.8698	10616.9
2877.37543	10643.7
2879.87952	10655.5
2882.38207	10658.8
2884.88308	10680.9
2887.38256	10690.1
2889.88051	10712.4
2892.37692	10685.3
2894.8718	10695.9
2897.36515	10703.6
2899.85698	10699.8
2902.34727	10740.1
2904.83604	10745.4
2907.32328	10768.5
2909.809	10768.1
2912.29319	10788.9
2914.77587	10803.1
2917.25702	10785
2919.73665	10773.1
2922.21476	10822.9
2924.69136	10811.3
2927.16644	10801.7
2929.64	10759.1
2932.11205	10766.8
2934.58258	10739.7
2937.05161	10771.6
2939.51912	10765.1
2941.98513	10743.8
2944.44962	10689
2946.91261	10627.9
2949.37409	10616
2951.83407	10594.1
2954.29254	10577.5
2956.74951	10547.9
2959.20498	10515.1
2961.65895	10472
2964.11142	10483
2966.56239	10435.2
2969.01186	10421.9
2971.45984	10385.8
2973.90632	10352.2
2976.35131	10311.4
2978.7948	10299.1
2981.23681	10254
2983.67732	10260.6
2986.11635	10238.3
2988.55388	10182
2990.98993	10182.8
2993.4245	10150
2995.85758	10110.4
2998.28917	10074.9
3000.71928	10094.6
3003.14791	10079.3
3005.57506	10046
3008.00073	10049.2
3010.42493	9999.9
3012.84764	9992.1
3015.26888	9984.9
3017.68865	9962.2
3020.10694	9966.1
3022.52376	9924.7
3024.9391	9909.4
3027.35298	9883.7
3029.76539	9881.2
3032.17632	9897.3
3034.5858	9850.7
3036.9938	9840
3039.40034	9841.3
3041.80542	9821.2
3044.20903	9802.9
3046.61118	9792.3
3049.01187	9781.3
3051.4111	9769
3053.80888	9721.5
3056.20519	9714.6
3058.60005	9700.7
3060.99345	9667.4
3063.3854	9662
3065.7759	9636.1
3068.16494	9632.7
3070.55254	9600.6
3072.93868	9580.4
3075.32338	9538.4
3077.70662	9533.8
3080.08842	9498.5
3082.46878	9488.4
3084.84769	9461
3087.22515	9485.6
3089.60118	9485.3
3091.97576	9479.4
3094.3489	9489.3
3096.72061	9505.9
3099.09087	9480.2
3101.4597	9471.3
3103.82709	9467
3106.19305	9457.3
3108.55757	9442.3
3110.92066	9404.4
3113.28232	9403.2
3115.64255	9367.8
3118.00134	9352.6
3120.35871	9357.7
3122.71466	9339.9
3125.06917	9335.6
3127.42226	9313.2
3129.77393	9319.1
3132.12417	9316.1
3134.47299	9322.1
3136.82039	9329.4
3139.16636	9331.9
3141.51092	9338.6
3143.85406	9324.4
3146.19579	9329.7
3148.53609	9307.8
3150.87499	9326.5
3153.21246	9304.5
3155.54853	9359
3157.88318	9327
3160.21642	9329.7
3162.54826	9319.3
3164.87868	9319.3
3167.2077	9339.1
3169.5353	9330.4
3171.86151	9332.6
3174.18631	9318.6
3176.5097	9324.6
3178.83169	9294.9
3181.15228	9320.2
3183.47147	9296.8
3185.78926	9308.4
3188.10565	9292.4
3190.42065	9282.7
3192.73424	9264
3195.04645	9284.5
3197.35725	9276.1
3199.66667	9282.1
3201.97469	9291.2
3204.28132	9277.4
3206.58656	9295.2
3208.8904	9288.3
3211.19287	9290.7
3213.49394	9284.2
3215.79363	9286.5
3218.09193	9295.4
3220.38884	9286.7
3222.68438	9302.7
3224.97853	9281.6
3227.2713	9283
3229.56269	9249.8
3231.8527	9245.6
3234.14133	9224.5
3236.42858	9221.5
3238.71446	9203.3
3240.99896	9210.3
3243.28209	9197.3
3245.56384	9194.1
3247.84423	9210.9
3250.12324	9181.5
3252.40088	9193.4
3254.67715	9180.7
3256.95205	9142.8
3259.22558	9137.4
3261.49775	9140.8
3263.76855	9132.4
3266.03799	9095.5
3268.30606	9075.8
3270.57277	9067.3
3272.83812	9022.4
3275.10211	9035.1
3277.36474	9032.5
3279.62601	9025.1
3281.88593	9029.6
3284.14448	9052.5
3286.40168	9030.6
3288.65753	9004.6
3290.91202	9003.8
3293.16516	8964.4
3295.41695	8938.3
3297.66738	8887.2
3299.91647	8847.7
3302.16421	8809.8
3304.4106	8785.7
3306.65564	8727.6
3308.89933	8641.4
3311.14169	8621.4
3313.38269	8557.4
3315.62236	8523.8
3317.86068	8429.3
3320.09766	8356
3322.3333	8289.2
3324.5676	8264.2
3326.80056	8153.8
3329.03219	8130.7
3331.26248	3.4
3333.49143	-0.2
3335.71905	-1.1
