Data from AgNP_FTO_APTES_CRN_200uM_R6G_10uM_NaF_0.1M_Addition_RamanShift__28__19-49-38-195.txt Node

Date: Wed Dec 15 19:49:38 GMT 2021
User: TCL
Spectrometer: QEP01345
Trigger mode: 4
Integration Time (sec): 7.000000E0
Scans to average: 10
Electric dark correction enabled: true
Nonlinearity correction enabled: false
Boxcar width: 0
XAxis mode: Raman Shifts
Number of Pixels in Spectrum: 1044
>>>>>Begin Spectral Data<<<<<
46.04893	0.6375
50.45542	-0.2625
54.85868	-0.8625
59.25871	-0.9625
63.6555	64.6375
68.04907	68.7375
72.43941	70.5375
76.82654	73.5375
81.21044	77.5375
85.59113	80.3375
89.96862	82.3375
94.34289	82.6375
98.71396	88.1375
103.08183	93.6375
107.4465	95.1375
111.80798	93.7375
116.16626	98.0375
120.52136	101.0375
124.87327	102.1375
129.222	107.7375
133.56755	112.3375
137.90993	122.8375
142.24913	129.9375
146.58517	143.7375
150.91804	166.5375
155.24774	195.0375
159.57429	240.8375
163.89768	314.5375
168.21792	403.2375
172.53501	545.8375
176.84895	762.4375
181.15975	1069.9375
185.46741	1496.0375
189.77193	2059.3375
194.07331	2762.2375
198.37157	3557.2375
202.6667	4388.9375
206.9587	5227.4375
211.24758	6056.9375
215.53334	6907.9375
219.81599	7785.4375
224.09553	8808.8375
228.37195	9912.6375
232.64527	11108.8375
236.91549	12338.1375
241.18261	13572.4375
245.44663	14635.8375
249.70755	15581.7375
253.96539	16384.9375
258.22014	17106.4375
262.4718	17705.3375
266.72039	18149.0375
270.96589	18372.2375
275.20832	18441.0375
279.44768	18321.6375
283.68397	18081.2375
287.91719	17922.4375
292.14735	17928.1375
296.37445	18086.2375
300.59849	18418.5375
304.81948	18748.5375
309.03742	18905.7375
313.25231	18828.0375
317.46415	18174.8375
321.67296	17249.7375
325.87872	16458.6375
330.08145	16134.0375
334.28114	16135.5375
338.47781	16336.3375
342.67145	16653.7375
346.86207	17155.9375
351.04966	17796.2375
355.23424	18555.2375
359.4158	19115.9375
363.59435	19429.0375
367.76989	19606.5375
371.94243	19651.6375
376.11196	19685.5375
380.27849	19659.7375
384.44203	19568.4375
388.60257	19499.6375
392.76012	19428.3375
396.91468	19611.8375
401.06626	19925.1375
405.21485	20234.8375
409.36047	20016.5375
413.50311	19403.1375
417.64277	18767.0375
421.77947	18415.6375
425.9132	18344.6375
430.04396	18364.8375
434.17176	18515.4375
438.2966	18810.2375
442.41849	19194.3375
446.53742	19612.7375
450.6534	20183.4375
454.76644	20531.8375
458.87653	20616.7375
462.98368	20511.7375
467.08789	20291.2375
471.18916	19990.9375
475.2875	19729.0375
479.38291	19475.8375
483.4754	19249.9375
487.56496	18952.1375
491.6516	18682.8375
495.73531	18548.1375
499.81612	18533.2375
503.89401	18664.4375
507.96899	18841.2375
512.04106	19032.7375
516.11023	19263.4375
520.1765	19416.4375
524.23987	19491.5375
528.30034	19288.7375
532.35792	19056.3375
536.41261	18798.1375
540.46441	18533.7375
544.51333	18407.4375
548.55936	18474.4375
552.60252	18801.9375
556.64279	19150.9375
560.6802	19421.0375
564.71473	19577.0375
568.7464	19996.9375
572.7752	20341.3375
576.80114	20046.3375
580.82422	19583.3375
584.84444	19382.3375
588.86181	19441.9375
592.87633	19688.8375
596.888	20004.8375
600.89682	20406.9375
604.9028	21693.0375
608.90594	25345.1375
612.90624	29967.8375
616.90371	28801.6375
620.89834	22374.7375
624.89015	19336.9375
628.87913	18759.1375
632.86528	18807.4375
636.84862	18920.4375
640.82913	18727.6375
644.80683	18209.4375
648.78172	17930.2375
652.75379	17881.8375
656.72306	18340.3375
660.68952	18873.0375
664.65319	18782.4375
668.61405	18226.4375
672.57211	17996.7375
676.52738	17993.0375
680.47986	18030.3375
684.42955	17935.3375
688.37646	17909.9375
692.32058	17931.8375
696.26192	18095.2375
700.20048	18251.1375
704.13626	18338.9375
708.06928	18271.5375
711.99952	18149.7375
715.927	18104.5375
719.85171	18123.7375
723.77365	18090.6375
727.69284	17937.3375
731.60928	17805.5375
735.52295	17823.7375
739.43388	17838.7375
743.34206	17840.9375
747.24749	17908.5375
751.15017	17961.4375
755.05012	18170.1375
758.94733	18795.0375
762.8418	20072.4375
766.73354	22203.1375
770.62254	24488.0375
774.50882	25510.9375
778.39237	24529.8375
782.27321	22090.9375
786.15132	19831.1375
790.02671	18544.7375
793.89938	17952.1375
797.76935	17705.4375
801.6366	17595.2375
805.50115	17539.8375
809.36299	17490.9375
813.22213	17438.7375
817.07857	17425.0375
820.93231	17436.3375
824.78336	17468.7375
828.63172	17506.1375
832.47738	17562.6375
836.32036	17551.1375
840.16066	17528.4375
843.99827	17510.9375
847.8332	17422.0375
851.66546	17363.6375
855.49504	17361.8375
859.32195	17366.6375
863.1462	17283.5375
866.96777	17237.3375
870.78668	17252.9375
874.60293	17217.1375
878.41652	17221.3375
882.22745	17315.8375
886.03573	17305.8375
889.84136	17272.8375
893.64433	17197.3375
897.44466	17194.8375
901.24235	17152.7375
905.0374	17122.5375
908.8298	17079.2375
912.61957	17136.1375
916.40671	17189.8375
920.19121	17311.1375
923.97308	17396.6375
927.75233	17481.7375
931.52895	17608.5375
935.30295	17478.2375
939.07433	17149.9375
942.84309	16832.8375
946.60924	16674.3375
950.37278	16535.9375
954.13371	16444.3375
957.89203	16436.3375
961.64774	16380.7375
965.40086	16335.1375
969.15137	16280.9375
972.89929	16215.4375
976.64461	16195.6375
980.38733	16207.2375
984.12747	16237.2375
987.86502	16334.9375
991.59999	16448.0375
995.33237	16604.7375
999.06217	16888.6375
1002.78939	17222.2375
1006.51404	17531.9375
1010.23611	17726.4375
1013.95561	17884.2375
1017.67255	17848.0375
1021.38692	17682.6375
1025.09872	17495.7375
1028.80796	17473.8375
1032.51465	17602.2375
1036.21877	17847.0375
1039.92035	17899.2375
1043.61937	17866.4375
1047.31584	17722.0375
1051.00976	17600.6375
1054.70114	17561.6375
1058.38998	17583.4375
1062.07627	17716.1375
1065.76003	17936.4375
1069.44126	18197.6375
1073.11995	18560.9375
1076.79611	18930.3375
1080.46974	19130.5375
1084.14085	19188.4375
1087.80943	19139.0375
1091.47549	18993.6375
1095.13903	18661.9375
1098.80005	18193.1375
1102.45857	17785.5375
1106.11456	17607.7375
1109.76805	17639.4375
1113.41903	17874.6375
1117.06751	18195.4375
1120.71348	18606.5375
1124.35696	19068.4375
1127.99793	19512.3375
1131.63641	19480.9375
1135.2724	18962.9375
1138.90589	18489.9375
1142.5369	18130.5375
1146.16542	17925.4375
1149.79145	17779.3375
1153.415	17827.1375
1157.03607	17931.6375
1160.65467	18220.3375
1164.27079	18701.2375
1167.88443	19484.9375
1171.49561	20652.2375
1175.10432	22518.7375
1178.71056	24895.3375
1182.31434	26767.9375
1185.91565	27308.1375
1189.51451	26773.0375
1193.11091	25535.8375
1196.70485	24075.9375
1200.29634	22832.0375
1203.88538	21991.7375
1207.47197	21109.4375
1211.05612	20384.3375
1214.63782	19969.6375
1218.21708	19852.5375
1221.79391	19833.4375
1225.36829	19762.3375
1228.94024	19659.2375
1232.50976	19520.9375
1236.07685	19466.0375
1239.6415	19534.9375
1243.20374	19647.7375
1246.76355	19771.7375
1250.32093	20004.4375
1253.8759	20332.5375
1257.42845	20848.3375
1260.97859	21290.5375
1264.52631	21713.3375
1268.07163	22166.7375
1271.61453	22571.1375
1275.15503	22972.5375
1278.69312	23200.3375
1282.22882	23351.8375
1285.76211	23695.5375
1289.29301	24276.2375
1292.82151	24920.4375
1296.34761	25736.8375
1299.87133	26880.4375
1303.39266	28496.2375
1306.9116	30760.4375
1310.42815	33466.2375
1313.94233	35080.7375
1317.45412	34887.3375
1320.96354	33382.1375
1324.47058	31584.7375
1327.97525	29979.9375
1331.47754	28909.7375
1334.97747	28520.1375
1338.47502	28696.7375
1341.97022	29088.0375
1345.46305	29567.9375
1348.95352	30146.6375
1352.44163	31339.6375
1355.92738	33379.3375
1359.41078	36647.5375
1362.89183	39929.1375
1366.37053	39304.4375
1369.84688	34660.9375
1373.32088	29822.7375
1376.79254	26705.9375
1380.26186	25215.0375
1383.72883	24544.7375
1387.19347	24078.5375
1390.65578	23550.6375
1394.11575	23152.3375
1397.57339	23068.5375
1401.0287	23279.5375
1404.48168	23573.7375
1407.93234	23854.8375
1411.38068	23916.5375
1414.82669	23708.8375
1418.27039	23146.6375
1421.71177	22524.2375
1425.15083	21932.1375
1428.58758	21552.5375
1432.02203	21580.7375
1435.45416	21740.8375
1438.88399	21955.2375
1442.31151	22064.3375
1445.73673	22224.6375
1449.15965	22427.6375
1452.58027	22493.7375
1455.9986	22473.8375
1459.41463	22505.1375
1462.82837	22772.2375
1466.23982	23155.1375
1469.64898	23594.5375
1473.05586	23882.6375
1476.46045	24014.4375
1479.86276	24220.1375
1483.26279	24374.0375
1486.66054	24703.2375
1490.05602	25106.9375
1493.44922	25671.6375
1496.84016	26389.7375
1500.22882	27667.1375
1503.61521	29490.8375
1506.99934	31844.3375
1510.38121	34249.6375
1513.76081	35422.1375
1517.13816	34356.7375
1520.51324	31487.0375
1523.88607	28432.4375
1527.25665	26351.7375
1530.62498	25111.2375
1533.99105	24493.2375
1537.35488	24142.1375
1540.71647	23946.9375
1544.07581	23769.6375
1547.4329	23599.6375
1550.78776	23518.9375
1554.14038	23418.4375
1557.49077	23418.5375
1560.83892	23690.2375
1564.18484	24026.8375
1567.52853	24513.9375
1570.86999	24985.1375
1574.20922	25500.4375
1577.54624	25848.2375
1580.88103	25573.2375
1584.2136	24743.9375
1587.54395	24092.1375
1590.87208	24142.8375
1594.19801	24934.6375
1597.52172	26184.0375
1600.84321	26793.5375
1604.16251	26090.5375
1607.47959	24557.8375
1610.79447	22848.8375
1614.10715	21240.4375
1617.41763	19958.5375
1620.7259	19136.4375
1624.03199	18767.0375
1627.33587	18745.1375
1630.63757	19014.8375
1633.93707	19787.1375
1637.23439	20974.4375
1640.52951	22611.5375
1643.82246	24756.1375
1647.11321	27114.4375
1650.40179	28613.1375
1653.68819	27874.7375
1656.97241	24981.4375
1660.25446	21727.3375
1663.53433	19296.1375
1666.81203	17814.2375
1670.08756	16956.1375
1673.36092	16408.0375
1676.63211	16058.6375
1679.90115	15759.5375
1683.16801	15574.9375
1686.43272	15447.7375
1689.69527	15386.9375
1692.95567	15281.0375
1696.2139	15283.1375
1699.46999	15256.5375
1702.72392	15213.0375
1705.97571	15164.6375
1709.22535	15132.5375
1712.47284	15110.0375
1715.71819	15106.7375
1718.96139	15083.3375
1722.20246	15051.0375
1725.44139	15048.5375
1728.67818	14929.5375
1731.91284	14856.8375
1735.14537	14783.7375
1738.37576	14755.4375
1741.60403	14711.0375
1744.83017	14670.3375
1748.05418	14659.3375
1751.27607	14618.3375
1754.49584	14597.2375
1757.71349	14589.0375
1760.92903	14587.1375
1764.14244	14545.8375
1767.35375	14545.8375
1770.56294	14534.9375
1773.77002	14495.8375
1776.97499	14468.1375
1780.17785	14418.2375
1783.37861	14425.7375
1786.57727	14391.5375
1789.77382	14367.6375
1792.96828	14329.4375
1796.16064	14323.1375
1799.3509	14301.2375
1802.53907	14279.4375
1805.72514	14244.9375
1808.90913	14201.8375
1812.09102	14161.3375
1815.27083	14170.4375
1818.44856	14116.9375
1821.6242	14138.1375
1824.79776	14194.2375
1827.96924	14111.6375
1831.13864	14082.7375
1834.30597	14069.3375
1837.47122	14062.3375
1840.6344	14055.7375
1843.7955	14043.9375
1846.95454	14034.0375
1850.11151	13997.5375
1853.26642	13998.8375
1856.41926	13999.2375
1859.57004	13999.6375
1862.71876	13998.9375
1865.86542	13984.6375
1869.01003	14006.1375
1872.15258	13993.7375
1875.29308	13994.5375
1878.43152	13972.0375
1881.56792	13951.5375
1884.70227	13947.5375
1887.83457	13989.4375
1890.96482	13945.4375
1894.09304	13937.2375
1897.21921	13907.4375
1900.34335	13926.0375
1903.46544	13917.9375
1906.58551	13917.1375
1909.70353	13913.5375
1912.81953	13890.8375
1915.93349	13869.7375
1919.04543	13830.6375
1922.15534	13852.5375
1925.26322	13792.4375
1928.36908	13773.1375
1931.47292	13770.5375
1934.57473	13746.7375
1937.67453	13708.2375
1940.77232	13641.1375
1943.86808	13604.1375
1946.96184	13595.3375
1950.05358	13528.7375
1953.14331	13493.9375
1956.23103	13462.9375
1959.31675	13402.4375
1962.40046	13398.6375
1965.48217	13326.4375
1968.56188	13319.0375
1971.63959	13279.3375
1974.7153	13228.4375
1977.78901	13198.7375
1980.86073	13185.8375
1983.93046	13111.3375
1986.99819	13070.7375
1990.06394	13028.2375
1993.1277	12997.3375
1996.18947	12979.3375
1999.24925	12941.3375
2002.30706	12876.8375
2005.36288	12836.1375
2008.41672	12823.9375
2011.46859	12776.0375
2014.51848	12777.7375
2017.56639	12729.2375
2020.61233	12692.0375
2023.6563	12663.2375
2026.6983	12659.5375
2029.73833	12621.9375
2032.7764	12599.0375
2035.8125	12590.0375
2038.84664	12573.4375
2041.87881	12552.8375
2044.90903	12504.8375
2047.93729	12512.0375
2050.96359	12467.1375
2053.98794	12466.9375
2057.01034	12408.0375
2060.03078	12432.2375
2063.04927	12426.0375
2066.06582	12408.0375
2069.08042	12382.6375
2072.09307	12371.9375
2075.10378	12364.1375
2078.11255	12365.7375
2081.11938	12379.3375
2084.12426	12379.7375
2087.12722	12346.5375
2090.12824	12354.5375
2093.12732	12362.9375
2096.12447	12373.7375
2099.11969	12335.9375
2102.11299	12399.6375
2105.10435	12378.3375
2108.09379	12367.4375
2111.08131	12385.5375
2114.0669	12379.0375
2117.05057	12385.7375
2120.03233	12387.4375
2123.01216	12400.9375
2125.99008	12408.4375
2128.96609	12454.2375
2131.94018	12446.0375
2134.91236	12467.2375
2137.88263	12427.9375
2140.851	12473.1375
2143.81746	12482.9375
2146.78201	12468.1375
2149.74466	12455.2375
2152.7054	12472.3375
2155.66425	12443.7375
2158.6212	12493.1375
2161.57625	12453.4375
2164.52941	12475.1375
2167.48067	12461.7375
2170.43004	12454.4375
2173.37752	12439.1375
2176.32311	12451.5375
2179.26681	12467.5375
2182.20863	12452.9375
2185.14856	12450.4375
2188.08661	12426.0375
2191.02278	12427.5375
2193.95707	12400.0375
2196.88948	12410.6375
2199.82001	12409.6375
2202.74867	12382.9375
2205.67545	12394.4375
2208.60037	12379.4375
2211.52341	12394.7375
2214.44458	12353.7375
2217.36388	12313.8375
2220.28132	12314.5375
2223.1969	12287.8375
2226.11061	12271.1375
2229.02246	12237.7375
2231.93245	12218.3375
2234.84058	12209.6375
2237.74686	12184.4375
2240.65128	12195.2375
2243.55385	12176.6375
2246.45456	12145.9375
2249.35343	12106.4375
2252.25044	12122.2375
2255.14561	12114.1375
2258.03893	12097.4375
2260.93041	12089.1375
2263.82004	12048.7375
2266.70783	12044.2375
2269.59378	11990.8375
2272.4779	11967.5375
2275.36017	11959.8375
2278.24061	11939.5375
2281.11922	11904.1375
2283.996	11887.1375
2286.87094	11874.1375
2289.74405	11838.7375
2292.61534	11825.4375
2295.4848	11812.3375
2298.35243	11834.9375
2301.21824	11806.6375
2304.08223	11774.4375
2306.94439	11791.6375
2309.80474	11804.1375
2312.66327	11816.2375
2315.51999	11780.8375
2318.37489	11782.0375
2321.22797	11743.2375
2324.07925	11740.3375
2326.92871	11724.7375
2329.77637	11729.4375
2332.62222	11691.5375
2335.46626	11693.2375
2338.3085	11699.2375
2341.14893	11671.4375
2343.98756	11663.3375
2346.8244	11672.8375
2349.65943	11679.5375
2352.49267	11682.0375
2355.32411	11681.2375
2358.15376	11667.9375
2360.98161	11673.6375
2363.80768	11690.6375
2366.63195	11682.2375
2369.45444	11653.5375
2372.27514	11642.4375
2375.09405	11668.8375
2377.91118	11594.4375
2380.72652	11580.6375
2383.54009	11532.6375
2386.35187	11518.2375
2389.16188	11492.1375
2391.97011	11442.6375
2394.77657	11406.8375
2397.58125	11417.8375
2400.38416	11385.9375
2403.18529	11376.1375
2405.98466	11376.6375
2408.78226	11345.9375
2411.57809	11329.9375
2414.37216	11292.3375
2417.16446	11272.1375
2419.955	11262.3375
2422.74378	11241.6375
2425.5308	11258.2375
2428.31606	11233.0375
2431.09956	11239.7375
2433.88131	11229.7375
2436.6613	11228.0375
2439.43954	11213.1375
2442.21603	11223.0375
2444.99077	11206.4375
2447.76377	11214.4375
2450.53501	11215.0375
2453.30451	11194.8375
2456.07226	11194.1375
2458.83827	11172.4375
2461.60254	11160.9375
2464.36507	11141.7375
2467.12586	11162.1375
2469.88492	11166.4375
2472.64224	11131.3375
2475.39782	11138.2375
2478.15167	11147.9375
2480.90379	11158.9375
2483.65417	11166.1375
2486.40283	11149.1375
2489.14976	11155.8375
2491.89497	11166.1375
2494.63845	11193.4375
2497.3802	11165.3375
2500.12024	11128.7375
2502.85855	11136.2375
2505.59514	11138.9375
2508.33002	11114.5375
2511.06318	11095.1375
2513.79462	11081.0375
2516.52435	11061.1375
2519.25237	11021.1375
2521.97867	11029.8375
2524.70327	11013.4375
2527.42616	10981.7375
2530.14734	10946.2375
2532.86681	10946.9375
2535.58458	10957.5375
2538.30065	10924.1375
2541.01501	10922.3375
2543.72768	10924.1375
2546.43864	10914.1375
2549.14791	10882.5375
2551.85548	10888.0375
2554.56136	10843.1375
2557.26554	10840.2375
2559.96803	10816.3375
2562.66883	10819.9375
2565.36794	10790.5375
2568.06536	10809.2375
2570.7611	10819.3375
2573.45514	10775.9375
2576.14751	10777.1375
2578.83819	10761.3375
2581.52719	10723.6375
2584.21451	10728.4375
2586.90015	10702.2375
2589.58411	10707.6375
2592.2664	10699.8375
2594.94701	10679.8375
2597.62594	10680.0375
2600.30321	10662.3375
2602.9788	10659.8375
2605.65273	10625.0375
2608.32498	10601.0375
2610.99557	10589.2375
2613.66449	10609.3375
2616.33175	10592.5375
2618.99734	10598.1375
2621.66128	10585.6375
2624.32355	10562.9375
2626.98416	10558.2375
2629.64311	10567.8375
2632.30041	10548.1375
2634.95605	10530.1375
2637.61004	10529.9375
2640.26238	10513.5375
2642.91306	10518.9375
2645.56209	10481.7375
2648.20948	10465.4375
2650.85521	10473.1375
2653.4993	10481.4375
2656.14175	10459.9375
2658.78255	10490.4375
2661.42171	10469.3375
2664.05923	10464.4375
2666.6951	10471.2375
2669.32934	10485.4375
2671.96194	10490.7375
2674.59291	10487.2375
2677.22224	10495.2375
2679.84993	10491.5375
2682.476	10481.1375
2685.10043	10490.7375
2687.72324	10483.7375
2690.34441	10477.3375
2692.96396	10491.2375
2695.58188	10497.9375
2698.19818	10477.1375
2700.81285	10492.5375
2703.4259	10480.1375
2706.03733	10555.6375
2708.64714	10547.6375
2711.25533	10557.1375
2713.86191	10509.5375
2716.46687	10510.1375
2719.07021	10501.9375
2721.67194	10512.5375
2724.27206	10478.9375
2726.87057	10514.0375
2729.46747	10525.1375
2732.06276	10483.0375
2734.65644	10484.3375
2737.24852	10484.6375
2739.83899	10449.8375
2742.42786	10487.2375
2745.01513	10473.4375
2747.60079	10428.8375
2750.18486	10441.8375
2752.76733	10447.8375
2755.3482	10422.2375
2757.92747	10428.4375
2760.50515	10426.0375
2763.08123	10402.7375
2765.65573	10385.7375
2768.22863	10380.8375
2770.79994	10344.7375
2773.36967	10369.6375
2775.9378	10371.4375
2778.50435	10339.3375
2781.06932	10334.1375
2783.6327	10341.5375
2786.1945	10335.1375
2788.75471	10331.2375
2791.31335	10293.0375
2793.87041	10293.9375
2796.42589	10266.2375
2798.97979	10263.8375
2801.53212	10243.2375
2804.08288	10237.1375
2806.63206	10235.4375
2809.17967	10203.7375
2811.72571	10162.7375
2814.27018	10150.2375
2816.81308	10151.0375
2819.35442	10151.9375
2821.89419	10141.1375
2824.43239	10116.5375
2826.96904	10111.7375
2829.50412	10126.1375
2832.03763	10117.9375
2834.56959	10127.0375
2837.1	10126.8375
2839.62884	10133.0375
2842.15613	10095.1375
2844.68186	10157.4375
2847.20604	10161.8375
2849.72867	10209.1375
2852.24974	10175.0375
2854.76927	10187.3375
2857.28724	10189.0375
2859.80367	10167.9375
2862.31855	10125.7375
2864.83189	10113.3375
2867.34368	10095.8375
2869.85393	10118.4375
2872.36264	10090.2375
2874.8698	10081.3375
2877.37543	10117.2375
2879.87952	10115.7375
2882.38207	10118.2375
2884.88308	10087.2375
2887.38256	10099.8375
2889.88051	10084.4375
2892.37692	10101.4375
2894.8718	10079.2375
2897.36515	10104.5375
2899.85698	10110.0375
2902.34727	10110.5375
2904.83604	10115.0375
2907.32328	10152.6375
2909.809	10139.8375
2912.29319	10129.9375
2914.77587	10137.3375
2917.25702	10130.3375
2919.73665	10114.9375
2922.21476	10117.2375
2924.69136	10124.1375
2927.16644	10090.2375
2929.64	10060.1375
2932.11205	10078.8375
2934.58258	10039.0375
2937.05161	10078.2375
2939.51912	10041.1375
2941.98513	10019.2375
2944.44962	9985.2375
2946.91261	9958.5375
2949.37409	9942.0375
2951.83407	9924.3375
2954.29254	9907.7375
2956.74951	9895.9375
2959.20498	9894.2375
2961.65895	9865.2375
2964.11142	9873.6375
2966.56239	9835.8375
2969.01186	9838.7375
2971.45984	9808.1375
2973.90632	9790.7375
2976.35131	9769.4375
2978.7948	9749.6375
2981.23681	9728.4375
2983.67732	9722.1375
2986.11635	9682.4375
2988.55388	9655.8375
2990.98993	9647.1375
2993.4245	9633.3375
2995.85758	9615.5375
2998.28917	9590.2375
3000.71928	9584.7375
3003.14791	9570.5375
3005.57506	9552.8375
3008.00073	9553.6375
3010.42493	9553.4375
3012.84764	9528.5375
3015.26888	9506.6375
3017.68865	9515.9375
3020.10694	9507.3375
3022.52376	9458.5375
3024.9391	9448.5375
3027.35298	9410.2375
3029.76539	9437.5375
3032.17632	9411.2375
3034.5858	9392.7375
3036.9938	9374.5375
3039.40034	9368.6375
3041.80542	9358.8375
3044.20903	9340.4375
3046.61118	9345.1375
3049.01187	9314.1375
3051.4111	9324.4375
3053.80888	9305.1375
3056.20519	9287.0375
3058.60005	9264.2375
3060.99345	9260.2375
3063.3854	9230.7375
3065.7759	9200.3375
3068.16494	9190.9375
3070.55254	9165.6375
3072.93868	9155.1375
3075.32338	9118.8375
3077.70662	9117.4375
3080.08842	9061.2375
3082.46878	9104.5375
3084.84769	9071.8375
3087.22515	9080.5375
3089.60118	9075.9375
3091.97576	9102.4375
3094.3489	9072.8375
3096.72061	9085.9375
3099.09087	9072.0375
3101.4597	9068.1375
3103.82709	9051.2375
3106.19305	9040.3375
3108.55757	9022.8375
3110.92066	9022.1375
3113.28232	8989.2375
3115.64255	8968.3375
3118.00134	8958.7375
3120.35871	8957.3375
3122.71466	8950.6375
3125.06917	8924.7375
3127.42226	8928.5375
3129.77393	8938.1375
3132.12417	8925.6375
3134.47299	8917.9375
3136.82039	8933.9375
3139.16636	8949.4375
3141.51092	8945.4375
3143.85406	8946.5375
3146.19579	8934.0375
3148.53609	8922.0375
3150.87499	8943.4375
3153.21246	8943.6375
3155.54853	8957.7375
3157.88318	8930.1375
3160.21642	8957.0375
3162.54826	8932.0375
3164.87868	8925.8375
3167.2077	8933.6375
3169.5353	8942.7375
3171.86151	8946.6375
3174.18631	8921.9375
3176.5097	8942.5375
3178.83169	8919.0375
3181.15228	8922.1375
3183.47147	8905.9375
3185.78926	8918.4375
3188.10565	8875.5375
3190.42065	8881.0375
3192.73424	8879.5375
3195.04645	8894.9375
3197.35725	8910.8375
3199.66667	8884.2375
3201.97469	8913.9375
3204.28132	8913.1375
3206.58656	8912.5375
3208.8904	8933.4375
3211.19287	8913.8375
3213.49394	8930.9375
3215.79363	8916.1375
3218.09193	8928.4375
3220.38884	8919.3375
3222.68438	8939.0375
3224.97853	8929.3375
3227.2713	8915.2375
3229.56269	8905.4375
3231.8527	8891.1375
3234.14133	8895.5375
3236.42858	8869.5375
3238.71446	8857.6375
3240.99896	8818.6375
3243.28209	8852.7375
3245.56384	8835.9375
3247.84423	8832.0375
3250.12324	8835.5375
3252.40088	8819.9375
3254.67715	8811.2375
3256.95205	8806.9375
3259.22558	8802.4375
3261.49775	8792.3375
3263.76855	8781.0375
3266.03799	8765.2375
3268.30606	8752.3375
3270.57277	8729.3375
3272.83812	8719.7375
3275.10211	8705.8375
3277.36474	8708.7375
3279.62601	8686.3375
3281.88593	8674.2375
3284.14448	8683.6375
3286.40168	8681.1375
3288.65753	8668.9375
3290.91202	8682.2375
3293.16516	8644.3375
3295.41695	8593.9375
3297.66738	8561.5375
3299.91647	8536.2375
3302.16421	8495.0375
3304.4106	8448.1375
3306.65564	8410.1375
3308.89933	8356.3375
3311.14169	8309.4375
3313.38269	8248.5375
3315.62236	8200.3375
3317.86068	8125.1375
3320.09766	8070.8375
3322.3333	8015.6375
3324.5676	7996.0375
3326.80056	7862.6375
3329.03219	7841.8375
3331.26248	3.8375
3333.49143	-0.8625
3335.71905	0.1375
