Data from AgNP_FTO_APTES_CRN_500uM_R6G_10uM_NaF_0.1M_Addition_RamanShift__10__20-15-18-223.txt Node

Date: Wed Dec 15 20:15:18 GMT 2021
User: TCL
Spectrometer: QEP01345
Trigger mode: 4
Integration Time (sec): 7.000000E0
Scans to average: 10
Electric dark correction enabled: true
Nonlinearity correction enabled: false
Boxcar width: 0
XAxis mode: Raman Shifts
Number of Pixels in Spectrum: 1044
>>>>>Begin Spectral Data<<<<<
46.04893	0.6875
50.45542	-1.4125
54.85868	-0.6125
59.25871	-1.6125
63.6555	56.7875
68.04907	58.9875
72.43941	66.5875
76.82654	68.3875
81.21044	71.9875
85.59113	73.6875
89.96862	80.3875
94.34289	77.1875
98.71396	82.5875
103.08183	89.1875
107.4465	89.0875
111.80798	91.5875
116.16626	89.6875
120.52136	99.7875
124.87327	97.0875
129.222	101.6875
133.56755	104.8875
137.90993	111.4875
142.24913	121.9875
146.58517	136.0875
150.91804	155.0875
155.24774	181.6875
159.57429	224.8875
163.89768	281.7875
168.21792	369.9875
172.53501	502.7875
176.84895	693.4875
181.15975	975.7875
185.46741	1356.8875
189.77193	1877.4875
194.07331	2514.3875
198.37157	3259.5875
202.6667	3995.2875
206.9587	4783.6875
211.24758	5534.4875
215.53334	6239.5875
219.81599	7012.2875
224.09553	7847.7875
228.37195	8756.5875
232.64527	9766.5875
236.91549	10835.7875
241.18261	11955.3875
245.44663	13006.8875
249.70755	13989.6875
253.96539	14894.8875
258.22014	15609.1875
262.4718	16205.3875
266.72039	16624.4875
270.96589	16819.1875
275.20832	16875.1875
279.44768	16843.4875
283.68397	16719.0875
287.91719	16613.6875
292.14735	16510.5875
296.37445	16447.3875
300.59849	16451.5875
304.81948	16397.0875
309.03742	16337.1875
313.25231	16224.0875
317.46415	15960.9875
321.67296	15688.0875
325.87872	15456.3875
330.08145	15343.8875
334.28114	15379.3875
338.47781	15469.9875
342.67145	15588.2875
346.86207	15811.7875
351.04966	16049.3875
355.23424	16267.3875
359.4158	16415.4875
363.59435	16587.3875
367.76989	16701.0875
371.94243	16763.7875
376.11196	16841.4875
380.27849	16900.3875
384.44203	16985.5875
388.60257	17120.8875
392.76012	17284.2875
396.91468	17469.5875
401.06626	17702.3875
405.21485	17820.6875
409.36047	17856.1875
413.50311	17738.5875
417.64277	17674.9875
421.77947	17708.2875
425.9132	17787.9875
430.04396	17903.6875
434.17176	18021.0875
438.2966	18138.0875
442.41849	18332.4875
446.53742	18585.0875
450.6534	18859.1875
454.76644	19096.3875
458.87653	19266.1875
462.98368	19288.4875
467.08789	19226.5875
471.18916	19193.8875
475.2875	19171.1875
479.38291	19131.9875
483.4754	19098.0875
487.56496	18881.5875
491.6516	18614.3875
495.73531	18471.3875
499.81612	18357.1875
503.89401	18444.0875
507.96899	18516.2875
512.04106	18572.7875
516.11023	18572.1875
520.1765	18503.7875
524.23987	18371.2875
528.30034	18252.7875
532.35792	18148.5875
536.41261	18043.6875
540.46441	17939.7875
544.51333	17996.4875
548.55936	18153.8875
552.60252	18432.2875
556.64279	18692.5875
560.6802	18901.7875
564.71473	19046.0875
568.7464	19207.1875
572.7752	19614.3875
576.80114	20037.6875
580.82422	20397.9875
584.84444	20715.7875
588.86181	21018.7875
592.87633	21226.3875
596.888	21091.5875
600.89682	20778.0875
604.9028	20689.6875
608.90594	21245.5875
612.90624	21883.4875
616.90371	20929.9875
620.89834	19037.2875
624.89015	18199.9875
628.87913	18114.5875
632.86528	18206.7875
636.84862	18254.4875
640.82913	18185.8875
644.80683	17952.9875
648.78172	17778.7875
652.75379	17764.7875
656.72306	17838.6875
660.68952	17986.8875
664.65319	17959.3875
668.61405	17835.0875
672.57211	17818.8875
676.52738	17899.0875
680.47986	17934.4875
684.42955	17877.5875
688.37646	17840.7875
692.32058	17848.3875
696.26192	17949.3875
700.20048	18090.3875
704.13626	18204.8875
708.06928	18272.2875
711.99952	18286.3875
715.927	18278.6875
719.85171	18214.3875
723.77365	18112.7875
727.69284	17972.2875
731.60928	17808.9875
735.52295	17736.0875
739.43388	17677.8875
743.34206	17764.7875
747.24749	17837.6875
751.15017	17892.0875
755.05012	18080.3875
758.94733	18439.5875
762.8418	18973.1875
766.73354	19759.8875
770.62254	20485.2875
774.50882	20576.9875
778.39237	19974.7875
782.27321	19097.7875
786.15132	18421.5875
790.02671	17970.6875
793.89938	17719.6875
797.76935	17599.6875
801.6366	17564.9875
805.50115	17543.8875
809.36299	17490.3875
813.22213	17444.3875
817.07857	17413.9875
820.93231	17442.8875
824.78336	17368.7875
828.63172	17346.2875
832.47738	17267.9875
836.32036	17302.0875
840.16066	17300.6875
843.99827	17286.7875
847.8332	17280.3875
851.66546	17279.4875
855.49504	17233.0875
859.32195	17251.2875
863.1462	17254.8875
866.96777	17173.6875
870.78668	17222.4875
874.60293	17224.5875
878.41652	17217.3875
882.22745	17238.2875
886.03573	17283.7875
889.84136	17300.1875
893.64433	17313.0875
897.44466	17230.5875
901.24235	17198.3875
905.0374	17187.8875
908.8298	17152.2875
912.61957	17193.7875
916.40671	17321.4875
920.19121	17448.0875
923.97308	17494.2875
927.75233	17432.3875
931.52895	17325.1875
935.30295	17147.2875
939.07433	16968.6875
942.84309	16799.7875
946.60924	16717.4875
950.37278	16660.5875
954.13371	16665.9875
957.89203	16638.5875
961.64774	16629.8875
965.40086	16596.2875
969.15137	16575.8875
972.89929	16506.9875
976.64461	16457.6875
980.38733	16400.7875
984.12747	16388.4875
987.86502	16420.7875
991.59999	16465.9875
995.33237	16526.6875
999.06217	16636.4875
1002.78939	16794.5875
1006.51404	16976.4875
1010.23611	17187.8875
1013.95561	17302.9875
1017.67255	17350.0875
1021.38692	17264.1875
1025.09872	17106.4875
1028.80796	16998.9875
1032.51465	16913.7875
1036.21877	16937.0875
1039.92035	16965.5875
1043.61937	17078.7875
1047.31584	17156.3875
1051.00976	17247.8875
1054.70114	17357.2875
1058.38998	17525.3875
1062.07627	17773.8875
1065.76003	18168.5875
1069.44126	18542.0875
1073.11995	18870.9875
1076.79611	18996.8875
1080.46974	18853.7875
1084.14085	18583.4875
1087.80943	18395.0875
1091.47549	18343.6875
1095.13903	18299.3875
1098.80005	18151.5875
1102.45857	17889.5875
1106.11456	17650.0875
1109.76805	17451.8875
1113.41903	17395.1875
1117.06751	17468.0875
1120.71348	17582.7875
1124.35696	17713.9875
1127.99793	17886.4875
1131.63641	18075.1875
1135.2724	17977.9875
1138.90589	17904.8875
1142.5369	17884.8875
1146.16542	17954.3875
1149.79145	18057.9875
1153.415	18187.6875
1157.03607	18334.1875
1160.65467	18611.1875
1164.27079	19166.9875
1167.88443	19836.2875
1171.49561	20575.3875
1175.10432	21495.0875
1178.71056	22613.2875
1182.31434	23628.4875
1185.91565	24079.1875
1189.51451	24114.4875
1193.11091	23800.7875
1196.70485	23275.5875
1200.29634	22661.1875
1203.88538	22176.0875
1207.47197	21892.6875
1211.05612	21704.5875
1214.63782	21330.6875
1218.21708	20915.8875
1221.79391	20405.9875
1225.36829	20078.9875
1228.94024	19879.8875
1232.50976	19780.4875
1236.07685	19662.7875
1239.6415	19623.3875
1243.20374	19597.1875
1246.76355	19707.7875
1250.32093	19900.2875
1253.8759	20128.9875
1257.42845	20454.5875
1260.97859	20824.9875
1264.52631	21172.4875
1268.07163	21500.8875
1271.61453	21896.8875
1275.15503	22272.2875
1278.69312	22660.9875
1282.22882	23077.3875
1285.76211	23598.9875
1289.29301	24267.8875
1292.82151	25132.8875
1296.34761	26131.3875
1299.87133	27214.6875
1303.39266	28268.5875
1306.9116	29131.9875
1310.42815	29720.0875
1313.94233	29948.5875
1317.45412	29898.2875
1320.96354	29715.2875
1324.47058	29595.2875
1327.97525	29501.8875
1331.47754	29457.5875
1334.97747	29424.1875
1338.47502	29397.3875
1341.97022	29347.1875
1345.46305	29306.9875
1348.95352	29170.4875
1352.44163	29002.3875
1355.92738	29144.0875
1359.41078	29508.6875
1362.89183	29844.9875
1366.37053	29420.6875
1369.84688	27826.7875
1373.32088	25895.6875
1376.79254	24458.6875
1380.26186	23875.2875
1383.72883	23877.4875
1387.19347	23874.7875
1390.65578	23764.9875
1394.11575	23682.2875
1397.57339	23674.1875
1401.0287	23786.3875
1404.48168	23806.2875
1407.93234	23573.9875
1411.38068	23118.9875
1414.82669	22416.3875
1418.27039	21657.4875
1421.71177	20972.6875
1425.15083	20436.8875
1428.58758	20167.4875
1432.02203	20193.4875
1435.45416	20508.5875
1438.88399	20914.9875
1442.31151	21207.3875
1445.73673	21434.3875
1449.15965	21664.6875
1452.58027	21826.2875
1455.9986	21995.7875
1459.41463	22143.5875
1462.82837	22381.3875
1466.23982	22664.9875
1469.64898	22869.7875
1473.05586	22988.3875
1476.46045	23009.4875
1479.86276	22916.2875
1483.26279	22746.4875
1486.66054	22691.0875
1490.05602	22765.8875
1493.44922	22969.3875
1496.84016	23308.6875
1500.22882	23748.8875
1503.61521	24404.8875
1506.99934	25024.7875
1510.38121	25477.2875
1513.76081	25570.7875
1517.13816	25235.7875
1520.51324	24773.2875
1523.88607	24505.0875
1527.25665	24371.2875
1530.62498	24354.7875
1533.99105	24289.7875
1537.35488	23973.0875
1540.71647	23605.0875
1544.07581	23102.3875
1547.4329	22565.3875
1550.78776	22153.6875
1554.14038	21800.1875
1557.49077	21660.4875
1560.83892	21606.1875
1564.18484	21653.9875
1567.52853	21858.8875
1570.86999	22246.7875
1574.20922	22806.9875
1577.54624	23481.7875
1580.88103	23885.1875
1584.2136	23967.9875
1587.54395	23922.0875
1590.87208	24037.4875
1594.19801	24406.0875
1597.52172	24933.1875
1600.84321	24922.5875
1604.16251	24138.8875
1607.47959	22919.7875
1610.79447	21669.7875
1614.10715	20459.1875
1617.41763	19418.8875
1620.7259	18646.3875
1624.03199	18203.5875
1627.33587	18115.9875
1630.63757	18403.1875
1633.93707	19166.5875
1637.23439	20391.3875
1640.52951	22157.9875
1643.82246	24235.7875
1647.11321	25880.7875
1650.40179	26269.1875
1653.68819	25016.0875
1656.97241	22808.4875
1660.25446	20424.0875
1663.53433	18574.8875
1666.81203	17257.0875
1670.08756	16439.5875
1673.36092	15925.9875
1676.63211	15564.8875
1679.90115	15296.9875
1683.16801	15114.3875
1686.43272	14983.6875
1689.69527	14872.5875
1692.95567	14791.4875
1696.2139	14761.7875
1699.46999	14702.3875
1702.72392	14678.9875
1705.97571	14646.2875
1709.22535	14571.8875
1712.47284	14557.8875
1715.71819	14514.6875
1718.96139	14477.2875
1722.20246	14446.6875
1725.44139	14365.6875
1728.67818	14318.5875
1731.91284	14219.5875
1735.14537	14179.0875
1738.37576	14162.2875
1741.60403	14094.7875
1744.83017	14065.4875
1748.05418	14061.5875
1751.27607	14017.0875
1754.49584	13980.7875
1757.71349	14015.4875
1760.92903	14005.6875
1764.14244	13980.7875
1767.35375	13982.2875
1770.56294	13940.6875
1773.77002	13909.8875
1776.97499	13892.5875
1780.17785	13828.3875
1783.37861	13797.7875
1786.57727	13796.5875
1789.77382	13742.9875
1792.96828	13713.7875
1796.16064	13689.0875
1799.3509	13642.9875
1802.53907	13628.6875
1805.72514	13592.7875
1808.90913	13554.3875
1812.09102	13527.1875
1815.27083	13515.3875
1818.44856	13471.9875
1821.6242	13441.3875
1824.79776	13471.0875
1827.96924	13423.8875
1831.13864	13397.4875
1834.30597	13417.8875
1837.47122	13409.7875
1840.6344	13379.6875
1843.7955	13367.1875
1846.95454	13361.8875
1850.11151	13349.2875
1853.26642	13361.5875
1856.41926	13327.2875
1859.57004	13303.7875
1862.71876	13297.8875
1865.86542	13255.7875
1869.01003	13268.5875
1872.15258	13225.8875
1875.29308	13227.1875
1878.43152	13180.5875
1881.56792	13149.8875
1884.70227	13163.3875
1887.83457	13170.4875
1890.96482	13105.1875
1894.09304	13075.3875
1897.21921	13074.7875
1900.34335	13089.2875
1903.46544	13055.9875
1906.58551	13063.7875
1909.70353	13003.3875
1912.81953	13002.8875
1915.93349	12977.1875
1919.04543	12933.8875
1922.15534	12917.3875
1925.26322	12876.3875
1928.36908	12867.2875
1931.47292	12818.1875
1934.57473	12803.6875
1937.67453	12748.4875
1940.77232	12714.3875
1943.86808	12720.9875
1946.96184	12668.1875
1950.05358	12653.6875
1953.14331	12582.1875
1956.23103	12567.0875
1959.31675	12510.5875
1962.40046	12502.7875
1965.48217	12473.8875
1968.56188	12453.8875
1971.63959	12362.5875
1974.7153	12321.0875
1977.78901	12291.1875
1980.86073	12252.7875
1983.93046	12208.6875
1986.99819	12179.6875
1990.06394	12145.8875
1993.1277	12116.8875
1996.18947	12062.5875
1999.24925	12027.0875
2002.30706	12023.7875
2005.36288	11963.9875
2008.41672	11909.2875
2011.46859	11866.0875
2014.51848	11871.9875
2017.56639	11812.2875
2020.61233	11782.0875
2023.6563	11772.5875
2026.6983	11725.0875
2029.73833	11694.6875
2032.7764	11682.2875
2035.8125	11645.8875
2038.84664	11598.7875
2041.87881	11595.1875
2044.90903	11576.5875
2047.93729	11536.3875
2050.96359	11545.9875
2053.98794	11508.7875
2057.01034	11511.8875
2060.03078	11483.3875
2063.04927	11454.5875
2066.06582	11454.3875
2069.08042	11441.4875
2072.09307	11440.3875
2075.10378	11427.8875
2078.11255	11400.5875
2081.11938	11418.4875
2084.12426	11405.5875
2087.12722	11401.5875
2090.12824	11399.3875
2093.12732	11385.9875
2096.12447	11393.6875
2099.11969	11402.2875
2102.11299	11425.0875
2105.10435	11395.0875
2108.09379	11405.0875
2111.08131	11405.1875
2114.0669	11407.9875
2117.05057	11420.1875
2120.03233	11431.0875
2123.01216	11435.9875
2125.99008	11420.8875
2128.96609	11438.9875
2131.94018	11433.2875
2134.91236	11438.1875
2137.88263	11447.0875
2140.851	11436.2875
2143.81746	11453.1875
2146.78201	11434.1875
2149.74466	11434.6875
2152.7054	11449.3875
2155.66425	11452.4875
2158.6212	11480.1875
2161.57625	11464.2875
2164.52941	11444.0875
2167.48067	11424.7875
2170.43004	11411.3875
2173.37752	11410.5875
2176.32311	11409.9875
2179.26681	11378.8875
2182.20863	11388.5875
2185.14856	11391.7875
2188.08661	11368.1875
2191.02278	11376.3875
2193.95707	11351.2875
2196.88948	11326.7875
2199.82001	11315.7875
2202.74867	11290.2875
2205.67545	11299.1875
2208.60037	11278.3875
2211.52341	11282.5875
2214.44458	11238.3875
2217.36388	11212.5875
2220.28132	11199.3875
2223.1969	11171.0875
2226.11061	11137.6875
2229.02246	11116.6875
2231.93245	11116.5875
2234.84058	11083.3875
2237.74686	11050.4875
2240.65128	11053.2875
2243.55385	11040.3875
2246.45456	11007.3875
2249.35343	10993.0875
2252.25044	10985.6875
2255.14561	10935.6875
2258.03893	10941.6875
2260.93041	10908.3875
2263.82004	10872.6875
2266.70783	10862.7875
2269.59378	10829.4875
2272.4779	10817.7875
2275.36017	10772.3875
2278.24061	10745.4875
2281.11922	10729.0875
2283.996	10700.6875
2286.87094	10691.0875
2289.74405	10649.3875
2292.61534	10662.6875
2295.4848	10645.6875
2298.35243	10639.1875
2301.21824	10606.8875
2304.08223	10584.4875
2306.94439	10549.8875
2309.80474	10570.5875
2312.66327	10554.7875
2315.51999	10536.5875
2318.37489	10528.2875
2321.22797	10519.2875
2324.07925	10514.2875
2326.92871	10489.4875
2329.77637	10472.7875
2332.62222	10460.4875
2335.46626	10414.7875
2338.3085	10429.1875
2341.14893	10420.9875
2343.98756	10400.8875
2346.8244	10380.4875
2349.65943	10384.3875
2352.49267	10342.7875
2355.32411	10353.3875
2358.15376	10369.8875
2360.98161	10349.0875
2363.80768	10336.4875
2366.63195	10334.6875
2369.45444	10299.4875
2372.27514	10310.6875
2375.09405	10281.2875
2377.91118	10275.5875
2380.72652	10232.8875
2383.54009	10234.2875
2386.35187	10207.5875
2389.16188	10168.6875
2391.97011	10162.7875
2394.77657	10149.4875
2397.58125	10116.6875
2400.38416	10083.3875
2403.18529	10075.2875
2405.98466	10067.2875
2408.78226	10053.8875
2411.57809	10037.1875
2414.37216	10020.9875
2417.16446	10012.8875
2419.955	9969.3875
2422.74378	9980.0875
2425.5308	9954.2875
2428.31606	9943.4875
2431.09956	9930.9875
2433.88131	9933.0875
2436.6613	9920.6875
2439.43954	9897.1875
2442.21603	9905.3875
2444.99077	9883.8875
2447.76377	9883.5875
2450.53501	9887.3875
2453.30451	9863.6875
2456.07226	9832.9875
2458.83827	9816.6875
2461.60254	9821.9875
2464.36507	9796.2875
2467.12586	9780.9875
2469.88492	9790.0875
2472.64224	9782.2875
2475.39782	9751.4875
2478.15167	9751.5875
2480.90379	9744.1875
2483.65417	9739.7875
2486.40283	9767.4875
2489.14976	9758.7875
2491.89497	9740.8875
2494.63845	9735.2875
2497.3802	9716.9875
2500.12024	9706.7875
2502.85855	9705.1875
2505.59514	9677.9875
2508.33002	9684.9875
2511.06318	9660.9875
2513.79462	9662.1875
2516.52435	9631.0875
2519.25237	9647.4875
2521.97867	9631.2875
2524.70327	9622.6875
2527.42616	9596.6875
2530.14734	9580.1875
2532.86681	9564.6875
2535.58458	9553.4875
2538.30065	9525.0875
2541.01501	9527.7875
2543.72768	9516.3875
2546.43864	9498.9875
2549.14791	9479.3875
2551.85548	9465.1875
2554.56136	9432.2875
2557.26554	9404.3875
2559.96803	9413.0875
2562.66883	9395.8875
2565.36794	9385.0875
2568.06536	9352.7875
2570.7611	9369.4875
2573.45514	9361.9875
2576.14751	9332.9875
2578.83819	9318.9875
2581.52719	9310.4875
2584.21451	9283.2875
2586.90015	9279.7875
2589.58411	9227.1875
2592.2664	9226.6875
2594.94701	9193.9875
2597.62594	9176.4875
2600.30321	9163.1875
2602.9788	9157.3875
2605.65273	9148.0875
2608.32498	9110.0875
2610.99557	9112.4875
2613.66449	9110.8875
2616.33175	9096.6875
2618.99734	9092.7875
2621.66128	9073.8875
2624.32355	9069.9875
2626.98416	9055.4875
2629.64311	9041.6875
2632.30041	9049.7875
2634.95605	9017.9875
2637.61004	8988.3875
2640.26238	9000.0875
2642.91306	8988.1875
2645.56209	8993.0875
2648.20948	8966.8875
2650.85521	8969.2875
2653.4993	8962.1875
2656.14175	8986.2875
2658.78255	8965.7875
2661.42171	8932.1875
2664.05923	8959.9875
2666.6951	8964.3875
2669.32934	8970.6875
2671.96194	8931.9875
2674.59291	8966.4875
2677.22224	8954.6875
2679.84993	8958.1875
2682.476	8956.3875
2685.10043	8939.7875
2687.72324	8923.6875
2690.34441	8928.1875
2692.96396	8945.4875
2695.58188	8940.0875
2698.19818	8914.1875
2700.81285	8943.1875
2703.4259	8924.3875
2706.03733	8981.4875
2708.64714	8954.6875
2711.25533	8945.8875
2713.86191	8931.5875
2716.46687	8942.9875
2719.07021	8922.2875
2721.67194	8939.7875
2724.27206	8907.9875
2726.87057	8902.1875
2729.46747	8907.2875
2732.06276	8910.4875
2734.65644	8900.0875
2737.24852	8903.6875
2739.83899	8863.9875
2742.42786	8882.1875
2745.01513	8865.8875
2747.60079	8851.5875
2750.18486	8833.2875
2752.76733	8825.1875
2755.3482	8818.0875
2757.92747	8822.0875
2760.50515	8798.6875
2763.08123	8774.0875
2765.65573	8765.7875
2768.22863	8767.9875
2770.79994	8745.5875
2773.36967	8750.7875
2775.9378	8761.4875
2778.50435	8711.1875
2781.06932	8712.3875
2783.6327	8703.2875
2786.1945	8666.7875
2788.75471	8689.8875
2791.31335	8634.8875
2793.87041	8641.2875
2796.42589	8590.7875
2798.97979	8615.8875
2801.53212	8585.8875
2804.08288	8569.4875
2806.63206	8532.0875
2809.17967	8534.0875
2811.72571	8497.6875
2814.27018	8497.0875
2816.81308	8471.1875
2819.35442	8488.0875
2821.89419	8449.5875
2824.43239	8461.8875
2826.96904	8420.6875
2829.50412	8424.3875
2832.03763	8411.1875
2834.56959	8406.1875
2837.1	8392.5875
2839.62884	8398.6875
2842.15613	8403.4875
2844.68186	8429.0875
2847.20604	8435.2875
2849.72867	8432.0875
2852.24974	8431.8875
2854.76927	8401.6875
2857.28724	8408.1875
2859.80367	8381.1875
2862.31855	8363.2875
2864.83189	8367.1875
2867.34368	8340.9875
2869.85393	8344.6875
2872.36264	8333.0875
2874.8698	8317.5875
2877.37543	8319.1875
2879.87952	8323.1875
2882.38207	8324.1875
2884.88308	8325.3875
2887.38256	8339.6875
2889.88051	8306.4875
2892.37692	8295.3875
2894.8718	8289.5875
2897.36515	8301.1875
2899.85698	8280.6875
2902.34727	8298.4875
2904.83604	8274.1875
2907.32328	8313.7875
2909.809	8292.7875
2912.29319	8313.8875
2914.77587	8318.8875
2917.25702	8297.6875
2919.73665	8260.6875
2922.21476	8303.3875
2924.69136	8277.7875
2927.16644	8285.8875
2929.64	8272.1875
2932.11205	8247.9875
2934.58258	8261.9875
2937.05161	8273.2875
2939.51912	8252.9875
2941.98513	8233.6875
2944.44962	8224.0875
2946.91261	8167.6875
2949.37409	8163.0875
2951.83407	8179.9875
2954.29254	8168.0875
2956.74951	8130.5875
2959.20498	8147.6875
2961.65895	8118.4875
2964.11142	8125.9875
2966.56239	8097.7875
2969.01186	8098.9875
2971.45984	8055.9875
2973.90632	8039.1875
2976.35131	8015.2875
2978.7948	8015.4875
2981.23681	7996.4875
2983.67732	7961.6875
2986.11635	7957.9875
2988.55388	7937.3875
2990.98993	7933.8875
2993.4245	7913.6875
2995.85758	7895.6875
2998.28917	7871.7875
3000.71928	7863.2875
3003.14791	7839.7875
3005.57506	7844.4875
3008.00073	7830.7875
3010.42493	7814.5875
3012.84764	7774.0875
3015.26888	7769.6875
3017.68865	7762.3875
3020.10694	7753.1875
3022.52376	7730.0875
3024.9391	7721.7875
3027.35298	7723.6875
3029.76539	7737.8875
3032.17632	7696.5875
3034.5858	7688.9875
3036.9938	7687.2875
3039.40034	7656.2875
3041.80542	7653.0875
3044.20903	7635.5875
3046.61118	7637.1875
3049.01187	7607.3875
3051.4111	7608.8875
3053.80888	7607.5875
3056.20519	7586.3875
3058.60005	7584.0875
3060.99345	7560.2875
3063.3854	7539.6875
3065.7759	7517.7875
3068.16494	7533.9875
3070.55254	7488.9875
3072.93868	7489.9875
3075.32338	7452.7875
3077.70662	7441.2875
3080.08842	7414.9875
3082.46878	7428.5875
3084.84769	7425.5875
3087.22515	7420.0875
3089.60118	7433.9875
3091.97576	7410.9875
3094.3489	7441.3875
3096.72061	7426.0875
3099.09087	7403.5875
3101.4597	7394.3875
3103.82709	7416.2875
3106.19305	7386.2875
3108.55757	7391.2875
3110.92066	7359.6875
3113.28232	7358.4875
3115.64255	7330.8875
3118.00134	7342.2875
3120.35871	7326.1875
3122.71466	7308.6875
3125.06917	7278.8875
3127.42226	7288.7875
3129.77393	7309.9875
3132.12417	7268.5875
3134.47299	7287.1875
3136.82039	7297.4875
3139.16636	7311.1875
3141.51092	7292.7875
3143.85406	7302.9875
3146.19579	7315.2875
3148.53609	7319.1875
3150.87499	7314.8875
3153.21246	7300.8875
3155.54853	7322.7875
3157.88318	7318.4875
3160.21642	7324.7875
3162.54826	7323.8875
3164.87868	7294.8875
3167.2077	7311.6875
3169.5353	7307.7875
3171.86151	7339.9875
3174.18631	7308.7875
3176.5097	7318.0875
3178.83169	7276.4875
3181.15228	7289.0875
3183.47147	7268.9875
3185.78926	7269.6875
3188.10565	7277.1875
3190.42065	7276.3875
3192.73424	7260.6875
3195.04645	7277.4875
3197.35725	7265.4875
3199.66667	7270.5875
3201.97469	7277.8875
3204.28132	7277.0875
3206.58656	7278.1875
3208.8904	7266.8875
3211.19287	7293.0875
3213.49394	7256.0875
3215.79363	7269.1875
3218.09193	7271.3875
3220.38884	7277.4875
3222.68438	7286.6875
3224.97853	7257.1875
3227.2713	7261.5875
3229.56269	7236.4875
3231.8527	7232.8875
3234.14133	7229.7875
3236.42858	7195.8875
3238.71446	7214.5875
3240.99896	7167.2875
3243.28209	7181.4875
3245.56384	7174.6875
3247.84423	7194.9875
3250.12324	7176.0875
3252.40088	7166.8875
3254.67715	7155.2875
3256.95205	7150.0875
3259.22558	7140.0875
3261.49775	7114.3875
3263.76855	7119.8875
3266.03799	7087.7875
3268.30606	7099.4875
3270.57277	7063.9875
3272.83812	7052.8875
3275.10211	7064.7875
3277.36474	7026.4875
3279.62601	7045.4875
3281.88593	7051.5875
3284.14448	7046.4875
3286.40168	7036.6875
3288.65753	7035.1875
3290.91202	7018.2875
3293.16516	6981.3875
3295.41695	6952.1875
3297.66738	6912.4875
3299.91647	6894.2875
3302.16421	6853.1875
3304.4106	6820.0875
3306.65564	6775.0875
3308.89933	6742.7875
3311.14169	6688.8875
3313.38269	6643.5875
3315.62236	6606.1875
3317.86068	6546.6875
3320.09766	6482.8875
3322.3333	6421.3875
3324.5676	6421.9875
3326.80056	6328.2875
3329.03219	6292.5875
3331.26248	2.5875
3333.49143	-1.2125
3335.71905	1.4875
