Data from AgNP_FTO_APTES_CRN_0uM_R6G_10uM_NaF_0.1M_Addition_RamanShift__55__12-33-52-964.txt Node

Date: Wed Dec 15 12:33:52 GMT 2021
User: TCL
Spectrometer: QEP01345
Trigger mode: 4
Integration Time (sec): 7.000000E0
Scans to average: 10
Electric dark correction enabled: true
Nonlinearity correction enabled: false
Boxcar width: 0
XAxis mode: Raman Shifts
Number of Pixels in Spectrum: 1044
>>>>>Begin Spectral Data<<<<<
46.04893	0.1
50.45542	-2
54.85868	-1.5
59.25871	-0.5
63.6555	142.7
68.04907	149.8
72.43941	163.4
76.82654	168.4
81.21044	175.2
85.59113	183.8
89.96862	189.4
94.34289	191.3
98.71396	203.8
103.08183	205.8
107.4465	215.2
111.80798	216.8
116.16626	221.2
120.52136	230.2
124.87327	236.4
129.222	249
133.56755	259.6
137.90993	278.5
142.24913	298.9
146.58517	336.3
150.91804	382.3
155.24774	450.3
159.57429	553.8
163.89768	703.7
168.21792	920.5
172.53501	1245.2
176.84895	1719.3
181.15975	2399.5
185.46741	3353.4
189.77193	4605.9
194.07331	6178.8
198.37157	7955.3
202.6667	9835.9
206.9587	11681.8
211.24758	13489.6
215.53334	15289.4
219.81599	17168.1
224.09553	19266.4
228.37195	21545.8
232.64527	24102.5
236.91549	26837.6
241.18261	29658.1
245.44663	32315.8
249.70755	34842.1
253.96539	36980.7
258.22014	38695.1
262.4718	40140.7
266.72039	40988.6
270.96589	41466.5
275.20832	41363.6
279.44768	41061.5
283.68397	40614.6
287.91719	40143.9
292.14735	39794.3
296.37445	39480.3
300.59849	39215.3
304.81948	39138.7
309.03742	39084
313.25231	38953.9
317.46415	38582.8
321.67296	38127.4
325.87872	37711.8
330.08145	37550.3
334.28114	37622.2
338.47781	37871
342.67145	38235.6
346.86207	38698.1
351.04966	39223.8
355.23424	39820.4
359.4158	40313.4
363.59435	40813.3
367.76989	41004.6
371.94243	41112.9
376.11196	41199.1
380.27849	41211.6
384.44203	41315.4
388.60257	41587.2
392.76012	41979.3
396.91468	42590.5
401.06626	43307.2
405.21485	43768
409.36047	43801.7
413.50311	43524.5
417.64277	43514.9
421.77947	43785.6
425.9132	44134.7
430.04396	44402.6
434.17176	44517.7
438.2966	44652.9
442.41849	44990.7
446.53742	45676.8
450.6534	46496.5
454.76644	47059.4
458.87653	47335.1
462.98368	47327.3
467.08789	47034.2
471.18916	46584.7
475.2875	46053
479.38291	45697.5
483.4754	45565.2
487.56496	45445.5
491.6516	45123.8
495.73531	44747.8
499.81612	44587.7
503.89401	44830.8
507.96899	45089.9
512.04106	45234.7
516.11023	45107.7
520.1765	44822.6
524.23987	44406.2
528.30034	44012.7
532.35792	43672.9
536.41261	43345.2
540.46441	43022.2
544.51333	43078.4
548.55936	43391
552.60252	44062.3
556.64279	44758.7
560.6802	45337.7
564.71473	45789.4
568.7464	46544.7
572.7752	47828.9
576.80114	49499.3
580.82422	51456.3
584.84444	53346.4
588.86181	55590.1
592.87633	57453.3
596.888	57198.2
600.89682	54953.2
604.9028	53879.9
608.90594	55182.3
612.90624	56373
616.90371	53398
620.89834	48419.2
624.89015	46306
628.87913	46152.4
632.86528	46240.5
636.84862	45907.7
640.82913	44887
644.80683	43799.4
648.78172	43115.4
652.75379	43038.1
656.72306	43407.3
660.68952	43841.1
664.65319	43665.9
668.61405	43194.6
672.57211	43178.6
676.52738	43304
680.47986	43278.5
684.42955	43105
688.37646	42940.8
692.32058	43152.6
696.26192	43621.4
700.20048	44125.4
704.13626	44512.5
708.06928	44781.3
711.99952	44770.1
715.927	44807.5
719.85171	44722.7
723.77365	44371.6
727.69284	43735.7
731.60928	43097.1
735.52295	42805.9
739.43388	42748.2
743.34206	42829.5
747.24749	43141.7
751.15017	43537.9
755.05012	44201.8
758.94733	45211.7
762.8418	46760.2
766.73354	48931.5
770.62254	50602.3
774.50882	50604.8
778.39237	48741.3
782.27321	46711.2
786.15132	45063.6
790.02671	43986.5
793.89938	43363.5
797.76935	43036.3
801.6366	42841.3
805.50115	42749.1
809.36299	42553.4
813.22213	42426.8
817.07857	42342.2
820.93231	42223.2
824.78336	42135
828.63172	42028.3
832.47738	41939
836.32036	41886.4
840.16066	41980.3
843.99827	42007
847.8332	41994
851.66546	42091.3
855.49504	42186.9
859.32195	42232.4
863.1462	42235.1
866.96777	42172.4
870.78668	42240.6
874.60293	42302.5
878.41652	42371.3
882.22745	42530.8
886.03573	42809.7
889.84136	42870.1
893.64433	42872.4
897.44466	42902.6
901.24235	43018.2
905.0374	43116.3
908.8298	43259.3
912.61957	43481.5
916.40671	43914.4
920.19121	44470.5
923.97308	44927.6
927.75233	44925.8
931.52895	44337.9
935.30295	43518.5
939.07433	42782.9
942.84309	42191.4
946.60924	41878.5
950.37278	41677.4
954.13371	41537.8
957.89203	41488.9
961.64774	41406.9
965.40086	41334.2
969.15137	41165.2
972.89929	41011.2
976.64461	40857.9
980.38733	40778.1
984.12747	40683.8
987.86502	40760.3
991.59999	40838.3
995.33237	41061.2
999.06217	41446.8
1002.78939	42057.7
1006.51404	42915.1
1010.23611	43731.3
1013.95561	44227.5
1017.67255	44188.8
1021.38692	43694.7
1025.09872	42961.1
1028.80796	42441.9
1032.51465	42223.1
1036.21877	42269.5
1039.92035	42446.4
1043.61937	42602.6
1047.31584	42782.7
1051.00976	43044.1
1054.70114	43303.3
1058.38998	43659.9
1062.07627	44279.6
1065.76003	45015.5
1069.44126	45995.5
1073.11995	47134.3
1076.79611	48084.5
1080.46974	48244.9
1084.14085	48095.4
1087.80943	48019.2
1091.47549	48055.3
1095.13903	48034.9
1098.80005	47424.2
1102.45857	46228.2
1106.11456	45234
1109.76805	44550.1
1113.41903	44285.5
1117.06751	44158.6
1120.71348	44354
1124.35696	44538
1127.99793	44757
1131.63641	45076.1
1135.2724	45235.6
1138.90589	45435.8
1142.5369	45644.1
1146.16542	45837.8
1149.79145	46162.1
1153.415	46533.7
1157.03607	47118.9
1160.65467	48113.7
1164.27079	49724.4
1167.88443	51714.4
1171.49561	53689.7
1175.10432	55928.9
1178.71056	58654.4
1182.31434	61389.5
1185.91565	63028.8
1189.51451	63480.4
1193.11091	63044.9
1196.70485	61814.9
1200.29634	60064.6
1203.88538	58639.4
1207.47197	58121.7
1211.05612	57881
1214.63782	57416.7
1218.21708	56217.8
1221.79391	54659.4
1225.36829	53307.5
1228.94024	52566
1232.50976	52154.4
1236.07685	51794.8
1239.6415	51546.5
1243.20374	51491.6
1246.76355	51683.6
1250.32093	52161.2
1253.8759	52963.8
1257.42845	54187.5
1260.97859	55670.6
1264.52631	57165.5
1268.07163	58686.9
1271.61453	60145.6
1275.15503	61762.1
1278.69312	63313.4
1282.22882	65082
1285.76211	66979.1
1289.29301	68997
1292.82151	71184.5
1296.34761	73791.5
1299.87133	76779.8
1303.39266	79654.6
1306.9116	81988.2
1310.42815	83435.7
1313.94233	83957.3
1317.45412	83797.1
1320.96354	83600.8
1324.47058	83806.5
1327.97525	84464.8
1331.47754	84941.5
1334.97747	85247.6
1338.47502	85133.7
1341.97022	84979.3
1345.46305	84510.1
1348.95352	83575.8
1352.44163	82383.1
1355.92738	81720.7
1359.41078	82143.7
1362.89183	82539.4
1366.37053	81592.1
1369.84688	78023.2
1373.32088	72675.3
1376.79254	68282.4
1380.26186	66276.4
1383.72883	66053.3
1387.19347	66021.6
1390.65578	65420.5
1394.11575	64947
1397.57339	65092.8
1401.0287	65816.8
1404.48168	66428
1407.93234	66214.3
1411.38068	65078.9
1414.82669	63169.9
1418.27039	60895.7
1421.71177	58806.7
1425.15083	57267.5
1428.58758	56707.5
1432.02203	57311.3
1435.45416	58459
1438.88399	59945.2
1442.31151	60998.7
1445.73673	61663.1
1449.15965	61917.8
1452.58027	62047.3
1455.9986	62116.8
1459.41463	62553.9
1462.82837	63439.1
1466.23982	64498.3
1469.64898	65169.8
1473.05586	65461.2
1476.46045	65436.1
1479.86276	65193.5
1483.26279	64813.9
1486.66054	64645.2
1490.05602	64762.3
1493.44922	65467.2
1496.84016	66153.4
1500.22882	67146.5
1503.61521	68033.6
1506.99934	68805.6
1510.38121	69260.9
1513.76081	69312.8
1517.13816	69102
1520.51324	68903.1
1523.88607	68917.3
1527.25665	69306.8
1530.62498	69445.1
1533.99105	68898.1
1537.35488	67809
1540.71647	66174.7
1544.07581	64311.2
1547.4329	62565.2
1550.78776	61194.6
1554.14038	60204
1557.49077	59855.3
1560.83892	59610.3
1564.18484	59509.6
1567.52853	59549
1570.86999	60051.5
1574.20922	61389.5
1577.54624	62965.9
1580.88103	64384.1
1584.2136	65751.9
1587.54395	67575.7
1590.87208	69688.2
1594.19801	71867.6
1597.52172	73597.7
1600.84321	73149.8
1604.16251	69736.9
1607.47959	65027.2
1610.79447	60391.9
1614.10715	56261.2
1617.41763	52803.2
1620.7259	50297
1624.03199	49148.6
1627.33587	49137.7
1630.63757	50395.1
1633.93707	53274.8
1637.23439	58123.5
1640.52951	65048.2
1643.82246	72966.5
1647.11321	78706.9
1650.40179	79124.9
1653.68819	73766.8
1656.97241	65182.2
1660.25446	56786.4
1663.53433	50580.6
1666.81203	46374.4
1670.08756	43779.6
1673.36092	42157.6
1676.63211	41074
1679.90115	40271.6
1683.16801	39681.5
1686.43272	39231
1689.69527	39005.5
1692.95567	38723.4
1696.2139	38532.4
1699.46999	38388.5
1702.72392	38291.9
1705.97571	38181.8
1709.22535	38098.4
1712.47284	37939.7
1715.71819	37968.2
1718.96139	37846.2
1722.20246	37718.2
1725.44139	37522.4
1728.67818	37362.8
1731.91284	37166.4
1735.14537	36992
1738.37576	36846.6
1741.60403	36696.4
1744.83017	36591.5
1748.05418	36501
1751.27607	36401.3
1754.49584	36345.7
1757.71349	36325.9
1760.92903	36273.7
1764.14244	36238.2
1767.35375	36155.2
1770.56294	36112
1773.77002	36078
1776.97499	36043.3
1780.17785	36051.4
1783.37861	35989.8
1786.57727	35900.6
1789.77382	35812
1792.96828	35720.5
1796.16064	35613.9
1799.3509	35572.6
1802.53907	35576.7
1805.72514	35457.1
1808.90913	35394.4
1812.09102	35305.7
1815.27083	35237.6
1818.44856	35213.6
1821.6242	35167.5
1824.79776	35138.6
1827.96924	35172.3
1831.13864	35122
1834.30597	35216
1837.47122	35170.3
1840.6344	35180.6
1843.7955	35203.7
1846.95454	35161.5
1850.11151	35216.7
1853.26642	35139.8
1856.41926	35117.7
1859.57004	35121.9
1862.71876	35060.6
1865.86542	34982
1869.01003	34915.2
1872.15258	34914.1
1875.29308	34822
1878.43152	34714.5
1881.56792	34737.5
1884.70227	34667.6
1887.83457	34641.7
1890.96482	34597.5
1894.09304	34518.9
1897.21921	34443.6
1900.34335	34376.8
1903.46544	34353.2
1906.58551	34341
1909.70353	34252
1912.81953	34178.3
1915.93349	34084.8
1919.04543	33964.3
1922.15534	33932.6
1925.26322	33811.2
1928.36908	33737.8
1931.47292	33630
1934.57473	33534.2
1937.67453	33476.5
1940.77232	33386.7
1943.86808	33232.9
1946.96184	33177.1
1950.05358	33039.7
1953.14331	32989.2
1956.23103	32890.2
1959.31675	32819
1962.40046	32748.4
1965.48217	32599.7
1968.56188	32538.5
1971.63959	32411
1974.7153	32334.3
1977.78901	32210.2
1980.86073	32089
1983.93046	31981
1986.99819	31881.7
1990.06394	31781.3
1993.1277	31731.7
1996.18947	31627.9
1999.24925	31539.3
2002.30706	31458.7
2005.36288	31299.8
2008.41672	31313.1
2011.46859	31159.4
2014.51848	31084.9
2017.56639	31055.7
2020.61233	30905.3
2023.6563	30877.9
2026.6983	30766.2
2029.73833	30721.3
2032.7764	30595.8
2035.8125	30559.7
2038.84664	30449.3
2041.87881	30410.5
2044.90903	30387.2
2047.93729	30291.5
2050.96359	30255.8
2053.98794	30222.9
2057.01034	30174.2
2060.03078	30182.4
2063.04927	30137.2
2066.06582	30138.3
2069.08042	30167.9
2072.09307	30102.8
2075.10378	30054.4
2078.11255	30029.8
2081.11938	30053.9
2084.12426	30002.9
2087.12722	29997
2090.12824	29941.5
2093.12732	29981.4
2096.12447	29953.5
2099.11969	29959
2102.11299	29961.3
2105.10435	29925
2108.09379	29992.5
2111.08131	30020.6
2114.0669	29992.1
2117.05057	29998.5
2120.03233	29937.8
2123.01216	30002.9
2125.99008	30003.9
2128.96609	30019.5
2131.94018	30026.2
2134.91236	30046.9
2137.88263	30067.1
2140.851	30062.4
2143.81746	30085.9
2146.78201	30048
2149.74466	30050.8
2152.7054	30065.8
2155.66425	30006.6
2158.6212	30005.3
2161.57625	30002.4
2164.52941	30043
2167.48067	30023.8
2170.43004	29956.8
2173.37752	29904.4
2176.32311	29895.7
2179.26681	29873
2182.20863	29886.1
2185.14856	29943.3
2188.08661	29954.5
2191.02278	29928
2193.95707	29855.4
2196.88948	29832.8
2199.82001	29877.9
2202.74867	29799.4
2205.67545	29801.7
2208.60037	29681
2211.52341	29625.3
2214.44458	29562.9
2217.36388	29497.8
2220.28132	29511.1
2223.1969	29441.3
2226.11061	29436.8
2229.02246	29331.1
2231.93245	29316.2
2234.84058	29231.9
2237.74686	29248.2
2240.65128	29249.9
2243.55385	29169.2
2246.45456	29127.6
2249.35343	29035.5
2252.25044	29003.6
2255.14561	28927.9
2258.03893	28901.3
2260.93041	28880.1
2263.82004	28737.1
2266.70783	28678.6
2269.59378	28574.8
2272.4779	28554.9
2275.36017	28426
2278.24061	28407.1
2281.11922	28333.8
2283.996	28290.1
2286.87094	28262.9
2289.74405	28155.5
2292.61534	28080.8
2295.4848	28053.1
2298.35243	28104.9
2301.21824	28036.9
2304.08223	28064.8
2306.94439	27989.9
2309.80474	27985.9
2312.66327	27937
2315.51999	27905.6
2318.37489	27882.7
2321.22797	27832.9
2324.07925	27846.8
2326.92871	27768.6
2329.77637	27732
2332.62222	27682.5
2335.46626	27652.4
2338.3085	27631.6
2341.14893	27661.2
2343.98756	27606.3
2346.8244	27576.8
2349.65943	27516.3
2352.49267	27486.2
2355.32411	27508.5
2358.15376	27466.6
2360.98161	27419.7
2363.80768	27407.6
2366.63195	27459.4
2369.45444	27393.7
2372.27514	27327.5
2375.09405	27303.7
2377.91118	27302.4
2380.72652	27175.1
2383.54009	27167.5
2386.35187	27089.7
2389.16188	27090.5
2391.97011	27085.7
2394.77657	27014.7
2397.58125	26949.2
2400.38416	26856.8
2403.18529	26854.9
2405.98466	26799.4
2408.78226	26729.3
2411.57809	26750.1
2414.37216	26707.3
2417.16446	26673.7
2419.955	26654.4
2422.74378	26645.8
2425.5308	26569.1
2428.31606	26546.7
2431.09956	26542.7
2433.88131	26483.5
2436.6613	26483
2439.43954	26497.3
2442.21603	26444.8
2444.99077	26414.3
2447.76377	26357.6
2450.53501	26365.1
2453.30451	26316.4
2456.07226	26323.1
2458.83827	26303.8
2461.60254	26274.1
2464.36507	26316.5
2467.12586	26220
2469.88492	26251.1
2472.64224	26213.8
2475.39782	26194.3
2478.15167	26167.2
2480.90379	26138.7
2483.65417	26146.5
2486.40283	26141.3
2489.14976	26151.1
2491.89497	26081.8
2494.63845	26077.1
2497.3802	26064.7
2500.12024	26079
2502.85855	26039.9
2505.59514	26041.7
2508.33002	26013.7
2511.06318	25956.6
2513.79462	25947.3
2516.52435	25897.6
2519.25237	25899.5
2521.97867	25878.6
2524.70327	25856.4
2527.42616	25846.7
2530.14734	25837.5
2532.86681	25819.9
2535.58458	25759.2
2538.30065	25714.5
2541.01501	25739.4
2543.72768	25671.5
2546.43864	25676.9
2549.14791	25619.2
2551.85548	25637.6
2554.56136	25604.1
2557.26554	25517.8
2559.96803	25483.3
2562.66883	25456.8
2565.36794	25450.3
2568.06536	25437.1
2570.7611	25356.9
2573.45514	25361.5
2576.14751	25296.4
2578.83819	25263.4
2581.52719	25262.5
2584.21451	25180.1
2586.90015	25124.9
2589.58411	25095.3
2592.2664	25081.8
2594.94701	25006.6
2597.62594	24964.5
2600.30321	24945.6
2602.9788	24932.9
2605.65273	24955.5
2608.32498	24897
2610.99557	24865.3
2613.66449	24897.4
2616.33175	24807.3
2618.99734	24794.1
2621.66128	24780
2624.32355	24719.8
2626.98416	24730.5
2629.64311	24700.9
2632.30041	24689
2634.95605	24625.2
2637.61004	24627.2
2640.26238	24670.4
2642.91306	24598.2
2645.56209	24601.4
2648.20948	24586.6
2650.85521	24539
2653.4993	24599.7
2656.14175	24598.2
2658.78255	24610.8
2661.42171	24595.1
2664.05923	24634.9
2666.6951	24633.3
2669.32934	24625.1
2671.96194	24619.1
2674.59291	24584.8
2677.22224	24545.5
2679.84993	24568.1
2682.476	24539.7
2685.10043	24584.7
2687.72324	24538
2690.34441	24579.9
2692.96396	24527.3
2695.58188	24572.5
2698.19818	24541.3
2700.81285	24535.7
2703.4259	24512
2706.03733	24550.5
2708.64714	24536.5
2711.25533	24553
2713.86191	24515
2716.46687	24566.6
2719.07021	24539.3
2721.67194	24513.3
2724.27206	24516.7
2726.87057	24533.5
2729.46747	24538
2732.06276	24564.2
2734.65644	24554.7
2737.24852	24566.7
2739.83899	24510
2742.42786	24526.5
2745.01513	24508.5
2747.60079	24438.1
2750.18486	24457
2752.76733	24439.4
2755.3482	24433.2
2757.92747	24442.6
2760.50515	24398.1
2763.08123	24327.9
2765.65573	24354.9
2768.22863	24333.2
2770.79994	24286.6
2773.36967	24278.3
2775.9378	24176.2
2778.50435	24156.6
2781.06932	24147.3
2783.6327	24129.7
2786.1945	24113
2788.75471	24061.8
2791.31335	24019.3
2793.87041	24006.7
2796.42589	23899.2
2798.97979	23888.9
2801.53212	23825.1
2804.08288	23795.1
2806.63206	23758.1
2809.17967	23704.5
2811.72571	23645.9
2814.27018	23614.6
2816.81308	23583.9
2819.35442	23519.8
2821.89419	23483.1
2824.43239	23437.6
2826.96904	23390.5
2829.50412	23429.3
2832.03763	23353.1
2834.56959	23336.6
2837.1	23283.4
2839.62884	23274.2
2842.15613	23232.2
2844.68186	23193.9
2847.20604	23137
2849.72867	23116.7
2852.24974	23095
2854.76927	23097.4
2857.28724	23023.8
2859.80367	23066.7
2862.31855	22984.1
2864.83189	22974.1
2867.34368	22941.3
2869.85393	22935.5
2872.36264	22857.5
2874.8698	22833.9
2877.37543	22866.4
2879.87952	22862.8
2882.38207	22872.3
2884.88308	22811.7
2887.38256	22892
2889.88051	22857.4
2892.37692	22892.4
2894.8718	22860.1
2897.36515	22872.3
2899.85698	22861.2
2902.34727	22876.4
2904.83604	22847.5
2907.32328	22902.2
2909.809	22873.3
2912.29319	22876.5
2914.77587	22820.9
2917.25702	22813.6
2919.73665	22791.9
2922.21476	22800.9
2924.69136	22823.4
2927.16644	22764.7
2929.64	22771.7
2932.11205	22752.8
2934.58258	22701.5
2937.05161	22718
2939.51912	22744.7
2941.98513	22721.2
2944.44962	22632.9
2946.91261	22577.9
2949.37409	22594.8
2951.83407	22554.7
2954.29254	22586.9
2956.74951	22550.6
2959.20498	22541.2
2961.65895	22499.1
2964.11142	22516.6
2966.56239	22422.6
2969.01186	22415.3
2971.45984	22313.6
2973.90632	22290.4
2976.35131	22276.3
2978.7948	22296.7
2981.23681	22207.7
2983.67732	22145.8
2986.11635	22036.8
2988.55388	22032.4
2990.98993	21953.7
2993.4245	21952.7
2995.85758	21868
2998.28917	21785.3
3000.71928	21749.3
3003.14791	21685.1
3005.57506	21623.9
3008.00073	21612.4
3010.42493	21602.3
3012.84764	21565.4
3015.26888	21539.2
3017.68865	21488.4
3020.10694	21468.1
3022.52376	21402
3024.9391	21364.8
3027.35298	21338.6
3029.76539	21305.7
3032.17632	21250.7
3034.5858	21247.6
3036.9938	21221.2
3039.40034	21161.1
3041.80542	21146.9
3044.20903	21095.5
3046.61118	21073.1
3049.01187	20980.1
3051.4111	20959.6
3053.80888	20912
3056.20519	20861.3
3058.60005	20809.9
3060.99345	20778.7
3063.3854	20717.1
3065.7759	20669.7
3068.16494	20641.3
3070.55254	20565.2
3072.93868	20540
3075.32338	20411.9
3077.70662	20372.5
3080.08842	20322.2
3082.46878	20327.5
3084.84769	20245.4
3087.22515	20266.8
3089.60118	20285
3091.97576	20262
3094.3489	20188.5
3096.72061	20130.6
3099.09087	20149.9
3101.4597	20117.9
3103.82709	20095.9
3106.19305	20055.6
3108.55757	20058.6
3110.92066	20016.3
3113.28232	19960.7
3115.64255	19910.7
3118.00134	19851.6
3120.35871	19788.6
3122.71466	19716.4
3125.06917	19698.4
3127.42226	19662.9
3129.77393	19672.2
3132.12417	19643.9
3134.47299	19623.4
3136.82039	19603.6
3139.16636	19627.2
3141.51092	19575.1
3143.85406	19607.7
3146.19579	19572.1
3148.53609	19490.5
3150.87499	19555.5
3153.21246	19553.9
3155.54853	19584.5
3157.88318	19514.7
3160.21642	19513.6
3162.54826	19499.7
3164.87868	19471.3
3167.2077	19415.6
3169.5353	19432.4
3171.86151	19442.8
3174.18631	19337.9
3176.5097	19352.9
3178.83169	19307.3
3181.15228	19326.5
3183.47147	19214.4
3185.78926	19255.6
3188.10565	19191
3190.42065	19196.3
3192.73424	19178.9
3195.04645	19156.7
3197.35725	19162
3199.66667	19105.2
3201.97469	19134.3
3204.28132	19038.2
3206.58656	19080
3208.8904	19041.1
3211.19287	19100.7
3213.49394	19025.4
3215.79363	19041.9
3218.09193	19045.4
3220.38884	18990.9
3222.68438	18978.7
3224.97853	18980.7
3227.2713	18950
3229.56269	18915
3231.8527	18902.1
3234.14133	18839.2
3236.42858	18793.6
3238.71446	18771.7
3240.99896	18733.2
3243.28209	18730.3
3245.56384	18720.9
3247.84423	18717.9
3250.12324	18699.9
3252.40088	18667.9
3254.67715	18623.8
3256.95205	18561.4
3259.22558	18579.8
3261.49775	18473.1
3263.76855	18457
3266.03799	18396.5
3268.30606	18395.5
3270.57277	18331.1
3272.83812	18333.6
3275.10211	18313.2
3277.36474	18257.7
3279.62601	18292.2
3281.88593	18280.2
3284.14448	18234.8
3286.40168	18237.8
3288.65753	18226.8
3290.91202	18165.5
3293.16516	18136.1
3295.41695	18075
3297.66738	17965.2
3299.91647	17870.7
3302.16421	17745.1
3304.4106	17680.5
3306.65564	17576.5
3308.89933	17489.5
3311.14169	17322
3313.38269	17218.6
3315.62236	17095.8
3317.86068	16930.8
3320.09766	16785.4
3322.3333	16603.9
3324.5676	16611.7
3326.80056	16302.4
3329.03219	16240.9
3331.26248	3.8
3333.49143	0.2
3335.71905	0.3
