Data from AgNP_FTO_APTES_CRN_1uM_R6G_10uM_NaF_0.1M_Addition_RamanShift__13__14-00-40-795.txt Node

Date: Wed Dec 15 14:00:40 GMT 2021
User: TCL
Spectrometer: QEP01345
Trigger mode: 4
Integration Time (sec): 7.000000E0
Scans to average: 10
Electric dark correction enabled: true
Nonlinearity correction enabled: false
Boxcar width: 0
XAxis mode: Raman Shifts
Number of Pixels in Spectrum: 1044
>>>>>Begin Spectral Data<<<<<
46.04893	1.0875
50.45542	-2.3125
54.85868	-1.2125
59.25871	-0.0125
63.6555	155.1875
68.04907	165.9875
72.43941	174.6875
76.82654	183.0875
81.21044	188.7875
85.59113	203.4875
89.96862	204.8875
94.34289	210.5875
98.71396	219.7875
103.08183	229.7875
107.4465	233.0875
111.80798	236.3875
116.16626	243.8875
120.52136	252.7875
124.87327	264.4875
129.222	271.1875
133.56755	282.7875
137.90993	306.5875
142.24913	330.6875
146.58517	365.2875
150.91804	427.2875
155.24774	510.2875
159.57429	618.9875
163.89768	785.5875
168.21792	1031.8875
172.53501	1386.7875
176.84895	1928.5875
181.15975	2682.4875
185.46741	3769.6875
189.77193	5175.1875
194.07331	6892.1875
198.37157	8905.0875
202.6667	10974.2875
206.9587	13030.9875
211.24758	15040.8875
215.53334	17016.3875
219.81599	19095.0875
224.09553	21380.8875
228.37195	23940.4875
232.64527	26686.5875
236.91549	29725.2875
241.18261	32761.4875
245.44663	35708.1875
249.70755	38418.8875
253.96539	40746.5875
258.22014	42714.6875
262.4718	44179.7875
266.72039	45201.1875
270.96589	45729.5875
275.20832	45787.4875
279.44768	45536.3875
283.68397	45137.1875
287.91719	44794.6875
292.14735	44418.0875
296.37445	44324.6875
300.59849	44176.6875
304.81948	44186.0875
309.03742	44208.0875
313.25231	44063.7875
317.46415	43674.6875
321.67296	43075.5875
325.87872	42527.4875
330.08145	42317.8875
334.28114	42285.7875
338.47781	42574.8875
342.67145	43047.8875
346.86207	43580.0875
351.04966	44193.1875
355.23424	44762.0875
359.4158	45385.5875
363.59435	45828.0875
367.76989	46127.7875
371.94243	46347.2875
376.11196	46472.8875
380.27849	46569.3875
384.44203	46681.1875
388.60257	47031.4875
392.76012	47527.1875
396.91468	48260.6875
401.06626	49074.7875
405.21485	49646.8875
409.36047	49765.0875
413.50311	49524.5875
417.64277	49576.6875
421.77947	49999.3875
425.9132	50509.5875
430.04396	50809.6875
434.17176	50890.1875
438.2966	50907.1875
442.41849	51247.9875
446.53742	52107.5875
450.6534	53101.9875
454.76644	53875.9875
458.87653	54212.5875
462.98368	54071.1875
467.08789	53721.4875
471.18916	53055.4875
475.2875	52296.5875
479.38291	51744.5875
483.4754	51464.9875
487.56496	51042.1875
491.6516	50639.3875
495.73531	50279.1875
499.81612	50148.8875
503.89401	50533.8875
507.96899	51004.6875
512.04106	51207.7875
516.11023	51119.2875
520.1765	50571.8875
524.23987	49915.9875
528.30034	49274.2875
532.35792	48689.5875
536.41261	48213.3875
540.46441	47892.2875
544.51333	47987.0875
548.55936	48461.2875
552.60252	49266.6875
556.64279	50049.7875
560.6802	50664.3875
564.71473	51280.6875
568.7464	52223.4875
572.7752	53923.7875
576.80114	56103.7875
580.82422	58673.1875
584.84444	61529.0875
588.86181	64655.2875
592.87633	66912.9875
596.888	66181.0875
600.89682	62748.0875
604.9028	60935.0875
608.90594	62141.0875
612.90624	63167.8875
616.90371	59302.3875
620.89834	53272.6875
624.89015	50800.5875
628.87913	50864.7875
632.86528	51369.7875
636.84862	51149.4875
640.82913	50116.4875
644.80683	48904.5875
648.78172	48184.0875
652.75379	48245.1875
656.72306	48756.0875
660.68952	49206.4875
664.65319	48957.8875
668.61405	48454.5875
672.57211	48361.6875
676.52738	48504.5875
680.47986	48431.8875
684.42955	48166.6875
688.37646	48028.7875
692.32058	48342.3875
696.26192	48919.3875
700.20048	49592.9875
704.13626	50029.7875
708.06928	50324.2875
711.99952	50270.4875
715.927	50199.5875
719.85171	50170.5875
723.77365	49830.9875
727.69284	49090.0875
731.60928	48283.7875
735.52295	47839.7875
739.43388	47726.1875
743.34206	47880.4875
747.24749	48189.7875
751.15017	48701.3875
755.05012	49607.1875
758.94733	50888.4875
762.8418	52771.3875
766.73354	55321.6875
770.62254	57323.2875
774.50882	57079.2875
778.39237	54796.9875
782.27321	52245.7875
786.15132	50268.1875
790.02671	48949.2875
793.89938	48235.1875
797.76935	47886.2875
801.6366	47717.8875
805.50115	47674.0875
809.36299	47382.1875
813.22213	47126.3875
817.07857	46949.3875
820.93231	46780.9875
824.78336	46634.4875
828.63172	46516.5875
832.47738	46327.1875
836.32036	46305.8875
840.16066	46245.6875
843.99827	46279.8875
847.8332	46386.8875
851.66546	46479.7875
855.49504	46602.1875
859.32195	46679.2875
863.1462	46541.8875
866.96777	46457.0875
870.78668	46406.2875
874.60293	46542.6875
878.41652	46566.7875
882.22745	46681.6875
886.03573	46817.1875
889.84136	46819.5875
893.64433	46760.0875
897.44466	46676.1875
901.24235	46633.7875
905.0374	46629.1875
908.8298	46603.3875
912.61957	46773.0875
916.40671	47291.9875
920.19121	47899.7875
923.97308	48464.5875
927.75233	48452.7875
931.52895	47853.9875
935.30295	46939.2875
939.07433	46155.2875
942.84309	45606.9875
946.60924	45325.7875
950.37278	45170.7875
954.13371	45212.1875
957.89203	45206.8875
961.64774	45229.1875
965.40086	45186.5875
969.15137	45190.8875
972.89929	44947.9875
976.64461	44743.0875
980.38733	44712.3875
984.12747	44715.3875
987.86502	44759.4875
991.59999	44996.7875
995.33237	45260.9875
999.06217	45842.1875
1002.78939	46653.5875
1006.51404	47666.9875
1010.23611	48670.7875
1013.95561	49212.5875
1017.67255	49167.8875
1021.38692	48591.1875
1025.09872	47799.2875
1028.80796	47097.9875
1032.51465	46789.6875
1036.21877	46773.4875
1039.92035	47034.3875
1043.61937	47218.4875
1047.31584	47520.6875
1051.00976	47689.5875
1054.70114	47957.9875
1058.38998	48434.4875
1062.07627	49200.7875
1065.76003	50118.5875
1069.44126	51195.6875
1073.11995	52396.7875
1076.79611	53302.2875
1080.46974	53482.8875
1084.14085	53405.0875
1087.80943	53511.3875
1091.47549	53768.4875
1095.13903	53820.0875
1098.80005	53251.2875
1102.45857	51955.7875
1106.11456	50822.0875
1109.76805	50066.1875
1113.41903	49774.6875
1117.06751	49812.5875
1120.71348	49986.8875
1124.35696	50244.6875
1127.99793	50626.1875
1131.63641	51038.7875
1135.2724	51213.6875
1138.90589	51418.8875
1142.5369	51785.5875
1146.16542	52187.7875
1149.79145	52715.5875
1153.415	53238.3875
1157.03607	54007.1875
1160.65467	55435.6875
1164.27079	57719.9875
1167.88443	60339.4875
1171.49561	62846.4875
1175.10432	65444.2875
1178.71056	68586.9875
1182.31434	71788.3875
1185.91565	73873.2875
1189.51451	74391.0875
1193.11091	73901.7875
1196.70485	72394.1875
1200.29634	70336.8875
1203.88538	68875.7875
1207.47197	68571.5875
1211.05612	68598.2875
1214.63782	68077.2875
1218.21708	66464.5875
1221.79391	64296.5875
1225.36829	62355.1875
1228.94024	61287.2875
1232.50976	60618.7875
1236.07685	60176.5875
1239.6415	59878.7875
1243.20374	59863.5875
1246.76355	60214.4875
1250.32093	61008.9875
1253.8759	62147.9875
1257.42845	63813.5875
1260.97859	65653.7875
1264.52631	67474.6875
1268.07163	69359.2875
1271.61453	71250.4875
1275.15503	73126.4875
1278.69312	75151.1875
1282.22882	77233.6875
1285.76211	79645.1875
1289.29301	82204.2875
1292.82151	85210.0875
1296.34761	88699.5875
1299.87133	92973.2875
1303.39266	96939.5875
1306.9116	100084.0875
1310.42815	102104.7875
1313.94233	102507.2875
1317.45412	102102.3875
1320.96354	101508.3875
1324.47058	101558.1875
1327.97525	102288.5875
1331.47754	103243.8875
1334.97747	103886.0875
1338.47502	104082.0875
1341.97022	103973.0875
1345.46305	103212.4875
1348.95352	101777.4875
1352.44163	100163.4875
1355.92738	99222.5875
1359.41078	99542.6875
1362.89183	99957.7875
1366.37053	98466.3875
1369.84688	93689.6875
1373.32088	86666.6875
1376.79254	80964.2875
1380.26186	78564.6875
1383.72883	78699.0875
1387.19347	78959.8875
1390.65578	78397.5875
1394.11575	77993.2875
1397.57339	78599.9875
1401.0287	79982.8875
1404.48168	81183.0875
1407.93234	81125.3875
1411.38068	79582.1875
1414.82669	77065.9875
1418.27039	73939.9875
1421.71177	71103.3875
1425.15083	69015.6875
1428.58758	68218.5875
1432.02203	69065.0875
1435.45416	71058.2875
1438.88399	73330.7875
1442.31151	74914.3875
1445.73673	75620.4875
1449.15965	75759.5875
1452.58027	75722.2875
1455.9986	75724.8875
1459.41463	76407.2875
1462.82837	77495.8875
1466.23982	78835.0875
1469.64898	79744.3875
1473.05586	80195.7875
1476.46045	80072.9875
1479.86276	79569.4875
1483.26279	78788.8875
1486.66054	78333.3875
1490.05602	78379.9875
1493.44922	78903.2875
1496.84016	79709.4875
1500.22882	80692.1875
1503.61521	81726.1875
1506.99934	82721.5875
1510.38121	83350.4875
1513.76081	83441.4875
1517.13816	83070.4875
1520.51324	82900.0875
1523.88607	83186.3875
1527.25665	83904.6875
1530.62498	84271.5875
1533.99105	83866.6875
1537.35488	82585.7875
1540.71647	80412.0875
1544.07581	78044.6875
1547.4329	75919.9875
1550.78776	74024.3875
1554.14038	72739.2875
1557.49077	71962.8875
1560.83892	71436.2875
1564.18484	71086.4875
1567.52853	71005.6875
1570.86999	71546.3875
1574.20922	73117.6875
1577.54624	74966.9875
1580.88103	76368.7875
1584.2136	78230.5875
1587.54395	80891.3875
1590.87208	84248.5875
1594.19801	88023.5875
1597.52172	91130.4875
1600.84321	90818.6875
1604.16251	86472.2875
1607.47959	80229.0875
1610.79447	73989.9875
1614.10715	68368.0875
1617.41763	63510.2875
1620.7259	60204.8875
1624.03199	58484.7875
1627.33587	58421.4875
1630.63757	60047.0875
1633.93707	63893.0875
1637.23439	70506.8875
1640.52951	79676.3875
1643.82246	90066.3875
1647.11321	97414.2875
1650.40179	97260.5875
1653.68819	89471.2875
1656.97241	77835.7875
1660.25446	66993.7875
1663.53433	59116.1875
1666.81203	53893.3875
1670.08756	50668.7875
1673.36092	48558.9875
1676.63211	47184.6875
1679.90115	46158.6875
1683.16801	45360.6875
1686.43272	44852.6875
1689.69527	44451.4875
1692.95567	44062.0875
1696.2139	43930.1875
1699.46999	43742.8875
1702.72392	43534.6875
1705.97571	43425.9875
1709.22535	43305.7875
1712.47284	43230.5875
1715.71819	43109.0875
1718.96139	42976.3875
1722.20246	42780.2875
1725.44139	42610.8875
1728.67818	42427.0875
1731.91284	42112.4875
1735.14537	41923.0875
1738.37576	41739.1875
1741.60403	41603.7875
1744.83017	41397.5875
1748.05418	41300.7875
1751.27607	41219.2875
1754.49584	41059.3875
1757.71349	41074.4875
1760.92903	41001.3875
1764.14244	41018.6875
1767.35375	40962.9875
1770.56294	40881.7875
1773.77002	40862.5875
1776.97499	40795.3875
1780.17785	40674.1875
1783.37861	40647.1875
1786.57727	40626.4875
1789.77382	40474.1875
1792.96828	40418.1875
1796.16064	40333.8875
1799.3509	40238.4875
1802.53907	40175.5875
1805.72514	40098.8875
1808.90913	39923.5875
1812.09102	39893.9875
1815.27083	39805.2875
1818.44856	39713.4875
1821.6242	39741.5875
1824.79776	39747.3875
1827.96924	39686.1875
1831.13864	39667.2875
1834.30597	39678.2875
1837.47122	39772.3875
1840.6344	39767.1875
1843.7955	39757.6875
1846.95454	39721.2875
1850.11151	39701.6875
1853.26642	39635.9875
1856.41926	39659.7875
1859.57004	39629.6875
1862.71876	39567.8875
1865.86542	39521.0875
1869.01003	39528.6875
1872.15258	39418.9875
1875.29308	39374.5875
1878.43152	39227.4875
1881.56792	39201.0875
1884.70227	39121.2875
1887.83457	39131.5875
1890.96482	39105.9875
1894.09304	38998.7875
1897.21921	38885.7875
1900.34335	38818.3875
1903.46544	38792.0875
1906.58551	38696.3875
1909.70353	38687.3875
1912.81953	38573.3875
1915.93349	38537.8875
1919.04543	38485.9875
1922.15534	38423.9875
1925.26322	38235.1875
1928.36908	38187.4875
1931.47292	38118.0875
1934.57473	38007.8875
1937.67453	37970.8875
1940.77232	37790.6875
1943.86808	37644.9875
1946.96184	37544.8875
1950.05358	37423.9875
1953.14331	37291.0875
1956.23103	37279.5875
1959.31675	37186.1875
1962.40046	37062.6875
1965.48217	36942.0875
1968.56188	36760.5875
1971.63959	36724.6875
1974.7153	36529.6875
1977.78901	36438.6875
1980.86073	36326.7875
1983.93046	36207.0875
1986.99819	36087.9875
1990.06394	35993.1875
1993.1277	35986.1875
1996.18947	35851.1875
1999.24925	35727.9875
2002.30706	35621.7875
2005.36288	35469.4875
2008.41672	35399.4875
2011.46859	35245.3875
2014.51848	35157.4875
2017.56639	35143.7875
2020.61233	34975.1875
2023.6563	34970.0875
2026.6983	34857.4875
2029.73833	34799.3875
2032.7764	34693.2875
2035.8125	34651.0875
2038.84664	34545.0875
2041.87881	34468.9875
2044.90903	34403.6875
2047.93729	34349.2875
2050.96359	34309.1875
2053.98794	34238.0875
2057.01034	34234.1875
2060.03078	34188.7875
2063.04927	34109.6875
2066.06582	34122.1875
2069.08042	34087.4875
2072.09307	34037.8875
2075.10378	34009.0875
2078.11255	33981.7875
2081.11938	33977.3875
2084.12426	33985.4875
2087.12722	33933.5875
2090.12824	33886.7875
2093.12732	33909.7875
2096.12447	33920.8875
2099.11969	33876.8875
2102.11299	33923.4875
2105.10435	33937.1875
2108.09379	33952.3875
2111.08131	33990.2875
2114.0669	33935.0875
2117.05057	33959.3875
2120.03233	34016.1875
2123.01216	34050.1875
2125.99008	34042.2875
2128.96609	34022.2875
2131.94018	34055.8875
2134.91236	34098.0875
2137.88263	34044.3875
2140.851	34046.4875
2143.81746	34095.8875
2146.78201	34095.8875
2149.74466	34045.3875
2152.7054	34056.7875
2155.66425	34053.5875
2158.6212	34092.2875
2161.57625	34112.2875
2164.52941	34013.5875
2167.48067	34028.5875
2170.43004	34019.6875
2173.37752	33963.7875
2176.32311	33962.6875
2179.26681	33982.2875
2182.20863	33948.1875
2185.14856	33989.1875
2188.08661	33974.1875
2191.02278	33908.2875
2193.95707	33913.7875
2196.88948	33866.8875
2199.82001	33855.5875
2202.74867	33761.9875
2205.67545	33725.5875
2208.60037	33622.5875
2211.52341	33633.5875
2214.44458	33599.0875
2217.36388	33485.2875
2220.28132	33435.6875
2223.1969	33373.1875
2226.11061	33344.5875
2229.02246	33244.9875
2231.93245	33271.0875
2234.84058	33192.8875
2237.74686	33120.8875
2240.65128	33129.0875
2243.55385	33076.4875
2246.45456	32994.0875
2249.35343	32893.4875
2252.25044	32847.6875
2255.14561	32733.6875
2258.03893	32764.6875
2260.93041	32633.7875
2263.82004	32536.9875
2266.70783	32546.0875
2269.59378	32408.5875
2272.4779	32356.4875
2275.36017	32259.9875
2278.24061	32147.6875
2281.11922	32131.6875
2283.996	32015.4875
2286.87094	31998.1875
2289.74405	31866.2875
2292.61534	31869.6875
2295.4848	31854.1875
2298.35243	31851.1875
2301.21824	31844.1875
2304.08223	31812.1875
2306.94439	31750.7875
2309.80474	31762.7875
2312.66327	31659.9875
2315.51999	31648.1875
2318.37489	31658.1875
2321.22797	31654.9875
2324.07925	31625.9875
2326.92871	31605.0875
2329.77637	31532.7875
2332.62222	31494.3875
2335.46626	31459.6875
2338.3085	31409.8875
2341.14893	31358.8875
2343.98756	31366.7875
2346.8244	31366.9875
2349.65943	31319.8875
2352.49267	31312.2875
2355.32411	31281.3875
2358.15376	31261.8875
2360.98161	31255.3875
2363.80768	31245.9875
2366.63195	31180.8875
2369.45444	31227.1875
2372.27514	31134.8875
2375.09405	31109.4875
2377.91118	31046.4875
2380.72652	30959.3875
2383.54009	30860.2875
2386.35187	30863.1875
2389.16188	30733.8875
2391.97011	30704.1875
2394.77657	30686.6875
2397.58125	30643.4875
2400.38416	30599.7875
2403.18529	30518.1875
2405.98466	30514.8875
2408.78226	30430.0875
2411.57809	30471.8875
2414.37216	30425.3875
2417.16446	30428.1875
2419.955	30335.0875
2422.74378	30342.7875
2425.5308	30230.7875
2428.31606	30311.9875
2431.09956	30253.1875
2433.88131	30185.1875
2436.6613	30213.9875
2439.43954	30173.1875
2442.21603	30186.5875
2444.99077	30092.1875
2447.76377	30091.5875
2450.53501	30036.8875
2453.30451	30117.6875
2456.07226	30035.2875
2458.83827	30042.2875
2461.60254	30037.3875
2464.36507	30016.9875
2467.12586	30016.6875
2469.88492	29997.2875
2472.64224	29940.2875
2475.39782	29935.2875
2478.15167	29940.2875
2480.90379	29948.7875
2483.65417	29956.5875
2486.40283	29915.1875
2489.14976	29877.3875
2491.89497	29833.5875
2494.63845	29826.8875
2497.3802	29813.2875
2500.12024	29816.7875
2502.85855	29852.9875
2505.59514	29803.9875
2508.33002	29775.0875
2511.06318	29724.8875
2513.79462	29701.0875
2516.52435	29739.9875
2519.25237	29706.7875
2521.97867	29713.4875
2524.70327	29659.4875
2527.42616	29621.2875
2530.14734	29571.1875
2532.86681	29579.2875
2535.58458	29591.2875
2538.30065	29527.8875
2541.01501	29495.1875
2543.72768	29424.3875
2546.43864	29364.4875
2549.14791	29378.4875
2551.85548	29336.2875
2554.56136	29359.2875
2557.26554	29295.8875
2559.96803	29260.2875
2562.66883	29180.2875
2565.36794	29155.4875
2568.06536	29137.3875
2570.7611	29131.6875
2573.45514	29088.9875
2576.14751	29076.7875
2578.83819	29035.2875
2581.52719	28992.6875
2584.21451	28990.2875
2586.90015	28945.7875
2589.58411	28850.7875
2592.2664	28839.3875
2594.94701	28762.5875
2597.62594	28785.0875
2600.30321	28743.2875
2602.9788	28720.2875
2605.65273	28669.4875
2608.32498	28743.6875
2610.99557	28694.9875
2613.66449	28713.3875
2616.33175	28652.0875
2618.99734	28620.9875
2621.66128	28655.9875
2624.32355	28639.9875
2626.98416	28540.6875
2629.64311	28521.4875
2632.30041	28489.9875
2634.95605	28452.4875
2637.61004	28443.9875
2640.26238	28398.2875
2642.91306	28422.4875
2645.56209	28418.1875
2648.20948	28391.6875
2650.85521	28439.8875
2653.4993	28442.9875
2656.14175	28425.7875
2658.78255	28429.1875
2661.42171	28421.5875
2664.05923	28417.3875
2666.6951	28407.0875
2669.32934	28469.2875
2671.96194	28458.9875
2674.59291	28488.7875
2677.22224	28440.4875
2679.84993	28479.8875
2682.476	28439.8875
2685.10043	28496.7875
2687.72324	28464.5875
2690.34441	28467.4875
2692.96396	28425.7875
2695.58188	28423.5875
2698.19818	28386.2875
2700.81285	28438.6875
2703.4259	28440.8875
2706.03733	28467.1875
2708.64714	28473.0875
2711.25533	28482.3875
2713.86191	28452.2875
2716.46687	28496.3875
2719.07021	28486.3875
2721.67194	28461.6875
2724.27206	28448.5875
2726.87057	28460.3875
2729.46747	28459.6875
2732.06276	28485.2875
2734.65644	28479.1875
2737.24852	28514.7875
2739.83899	28508.3875
2742.42786	28505.4875
2745.01513	28513.1875
2747.60079	28513.4875
2750.18486	28457.8875
2752.76733	28465.5875
2755.3482	28424.0875
2757.92747	28341.2875
2760.50515	28357.6875
2763.08123	28333.0875
2765.65573	28314.1875
2768.22863	28281.6875
2770.79994	28237.0875
2773.36967	28220.0875
2775.9378	28177.7875
2778.50435	28190.3875
2781.06932	28130.2875
2783.6327	28135.0875
2786.1945	28133.6875
2788.75471	28079.0875
2791.31335	28034.4875
2793.87041	27965.3875
2796.42589	27852.3875
2798.97979	27873.9875
2801.53212	27801.4875
2804.08288	27802.3875
2806.63206	27700.9875
2809.17967	27631.4875
2811.72571	27610.5875
2814.27018	27561.4875
2816.81308	27511.4875
2819.35442	27467.3875
2821.89419	27408.3875
2824.43239	27330.1875
2826.96904	27301.6875
2829.50412	27309.6875
2832.03763	27154.8875
2834.56959	27189.6875
2837.1	27077.6875
2839.62884	27092.1875
2842.15613	27090.5875
2844.68186	27018.0875
2847.20604	27023.6875
2849.72867	26994.5875
2852.24974	26951.8875
2854.76927	26941.1875
2857.28724	26900.9875
2859.80367	26917.2875
2862.31855	26862.2875
2864.83189	26779.4875
2867.34368	26719.6875
2869.85393	26761.5875
2872.36264	26713.9875
2874.8698	26717.9875
2877.37543	26691.3875
2879.87952	26686.3875
2882.38207	26656.8875
2884.88308	26611.9875
2887.38256	26627.2875
2889.88051	26611.0875
2892.37692	26657.3875
2894.8718	26616.2875
2897.36515	26666.5875
2899.85698	26610.6875
2902.34727	26637.3875
2904.83604	26652.0875
2907.32328	26657.8875
2909.809	26655.0875
2912.29319	26666.3875
2914.77587	26685.9875
2917.25702	26645.0875
2919.73665	26601.4875
2922.21476	26619.9875
2924.69136	26624.6875
2927.16644	26600.5875
2929.64	26571.9875
2932.11205	26558.2875
2934.58258	26462.4875
2937.05161	26496.2875
2939.51912	26488.7875
2941.98513	26480.8875
2944.44962	26434.6875
2946.91261	26325.2875
2949.37409	26367.4875
2951.83407	26347.4875
2954.29254	26318.8875
2956.74951	26322.2875
2959.20498	26274.3875
2961.65895	26251.1875
2964.11142	26236.5875
2966.56239	26181.3875
2969.01186	26160.5875
2971.45984	26090.2875
2973.90632	26004.8875
2976.35131	25949.7875
2978.7948	25932.8875
2981.23681	25857.8875
2983.67732	25816.1875
2986.11635	25718.5875
2988.55388	25631.9875
2990.98993	25608.8875
2993.4245	25515.7875
2995.85758	25456.0875
2998.28917	25370.4875
3000.71928	25379.5875
3003.14791	25321.5875
3005.57506	25250.8875
3008.00073	25176.1875
3010.42493	25152.8875
3012.84764	25115.0875
3015.26888	25090.0875
3017.68865	25008.4875
3020.10694	24940.5875
3022.52376	24882.3875
3024.9391	24859.6875
3027.35298	24807.9875
3029.76539	24797.6875
3032.17632	24689.1875
3034.5858	24715.8875
3036.9938	24703.9875
3039.40034	24632.8875
3041.80542	24589.2875
3044.20903	24530.6875
3046.61118	24474.4875
3049.01187	24435.7875
3051.4111	24416.4875
3053.80888	24356.9875
3056.20519	24311.3875
3058.60005	24262.1875
3060.99345	24234.2875
3063.3854	24126.4875
3065.7759	24033.3875
3068.16494	24015.7875
3070.55254	23894.0875
3072.93868	23845.0875
3075.32338	23733.7875
3077.70662	23676.0875
3080.08842	23648.7875
3082.46878	23591.1875
3084.84769	23504.1875
3087.22515	23461.4875
3089.60118	23489.4875
3091.97576	23500.1875
3094.3489	23432.2875
3096.72061	23429.3875
3099.09087	23415.0875
3101.4597	23360.6875
3103.82709	23346.3875
3106.19305	23324.5875
3108.55757	23275.9875
3110.92066	23202.5875
3113.28232	23105.4875
3115.64255	23030.5875
3118.00134	22986.9875
3120.35871	22928.7875
3122.71466	22871.9875
3125.06917	22856.8875
3127.42226	22796.5875
3129.77393	22775.3875
3132.12417	22716.9875
3134.47299	22711.3875
3136.82039	22681.1875
3139.16636	22648.7875
3141.51092	22622.4875
3143.85406	22662.0875
3146.19579	22619.9875
3148.53609	22590.5875
3150.87499	22593.9875
3153.21246	22571.6875
3155.54853	22544.0875
3157.88318	22486.9875
3160.21642	22511.7875
3162.54826	22488.9875
3164.87868	22450.0875
3167.2077	22418.2875
3169.5353	22411.3875
3171.86151	22411.8875
3174.18631	22375.6875
3176.5097	22334.3875
3178.83169	22274.8875
3181.15228	22274.8875
3183.47147	22226.2875
3185.78926	22194.9875
3188.10565	22163.7875
3190.42065	22140.9875
3192.73424	22124.9875
3195.04645	22103.7875
3197.35725	22063.4875
3199.66667	22032.9875
3201.97469	22013.0875
3204.28132	21971.7875
3206.58656	21986.2875
3208.8904	21959.4875
3211.19287	21935.2875
3213.49394	21889.6875
3215.79363	21878.9875
3218.09193	21880.5875
3220.38884	21877.1875
3222.68438	21843.0875
3224.97853	21766.8875
3227.2713	21760.5875
3229.56269	21734.1875
3231.8527	21782.2875
3234.14133	21740.4875
3236.42858	21648.6875
3238.71446	21644.5875
3240.99896	21589.5875
3243.28209	21538.3875
3245.56384	21518.0875
3247.84423	21537.1875
3250.12324	21458.5875
3252.40088	21404.6875
3254.67715	21387.9875
3256.95205	21341.4875
3259.22558	21320.3875
3261.49775	21253.2875
3263.76855	21248.8875
3266.03799	21164.4875
3268.30606	21190.9875
3270.57277	21148.3875
3272.83812	21091.1875
3275.10211	21030.1875
3277.36474	21016.8875
3279.62601	21037.1875
3281.88593	20947.6875
3284.14448	21005.6875
3286.40168	20990.4875
3288.65753	20933.9875
3290.91202	20923.4875
3293.16516	20803.1875
3295.41695	20766.2875
3297.66738	20642.0875
3299.91647	20538.5875
3302.16421	20366.1875
3304.4106	20321.8875
3306.65564	20181.3875
3308.89933	20049.4875
3311.14169	19907.5875
3313.38269	19737.0875
3315.62236	19612.6875
3317.86068	19467.1875
3320.09766	19229.2875
3322.3333	19041.3875
3324.5676	19059.2875
3326.80056	18690.0875
3329.03219	18591.4875
3331.26248	4.4875
3333.49143	-1.0125
3335.71905	-0.6125
