Data from AgNP_FTO_APTES_CRN_5uM_R6G_10uM_NaF_0.1M_Addition_RamanShift__36__16-07-57-943.txt Node

Date: Wed Dec 15 16:07:57 GMT 2021
User: TCL
Spectrometer: QEP01345
Trigger mode: 4
Integration Time (sec): 7.000000E0
Scans to average: 10
Electric dark correction enabled: true
Nonlinearity correction enabled: false
Boxcar width: 0
XAxis mode: Raman Shifts
Number of Pixels in Spectrum: 1044
>>>>>Begin Spectral Data<<<<<
46.04893	2.2375
50.45542	-1.0625
54.85868	-0.8625
59.25871	-1.2625
63.6555	56.3375
68.04907	66.0375
72.43941	70.1375
76.82654	73.4375
81.21044	77.5375
85.59113	81.0375
89.96862	85.0375
94.34289	84.1375
98.71396	88.0375
103.08183	93.9375
107.4465	96.5375
111.80798	101.2375
116.16626	97.4375
120.52136	102.7375
124.87327	100.7375
129.222	109.3375
133.56755	104.0375
137.90993	112.0375
142.24913	119.9375
146.58517	125.9375
150.91804	146.4375
155.24774	161.6375
159.57429	192.8375
163.89768	236.6375
168.21792	306.2375
172.53501	410.6375
176.84895	556.2375
181.15975	773.6375
185.46741	1056.3375
189.77193	1455.6375
194.07331	1932.1375
198.37157	2471.9375
202.6667	3059.7375
206.9587	3624.6375
211.24758	4213.1375
215.53334	4831.8375
219.81599	5501.3375
224.09553	6293.9375
228.37195	7156.8375
232.64527	8139.6375
236.91549	9039.2375
241.18261	9874.1375
245.44663	10510.0375
249.70755	10955.5375
253.96539	11362.0375
258.22014	11736.7375
262.4718	12146.0375
266.72039	12488.7375
270.96589	12687.8375
275.20832	12696.6375
279.44768	12573.6375
283.68397	12386.8375
287.91719	12294.0375
292.14735	12336.1375
296.37445	12670.5375
300.59849	13299.5375
304.81948	14009.7375
309.03742	14477.6375
313.25231	14443.0375
317.46415	13670.4375
321.67296	12470.2375
325.87872	11469.0375
330.08145	10969.5375
334.28114	10928.8375
338.47781	11122.4375
342.67145	11495.4375
346.86207	12058.4375
351.04966	12918.4375
355.23424	13878.8375
359.4158	14602.1375
363.59435	14946.6375
367.76989	15037.3375
371.94243	14991.2375
376.11196	14890.6375
380.27849	14757.3375
384.44203	14565.8375
388.60257	14346.8375
392.76012	14216.6375
396.91468	14310.8375
401.06626	14715.7375
405.21485	15018.9375
409.36047	14637.6375
413.50311	13734.4375
417.64277	12877.7375
421.77947	12383.1375
425.9132	12194.6375
430.04396	12146.9375
434.17176	12208.0375
438.2966	12378.2375
442.41849	12666.2375
446.53742	13025.1375
450.6534	13420.4375
454.76644	13638.7375
458.87653	13706.1375
462.98368	13584.8375
467.08789	13314.0375
471.18916	12957.1375
475.2875	12573.4375
479.38291	12266.4375
483.4754	12028.8375
487.56496	11820.0375
491.6516	11723.7375
495.73531	11703.2375
499.81612	11756.4375
503.89401	11946.0375
507.96899	12187.5375
512.04106	12428.4375
516.11023	12727.9375
520.1765	12938.8375
524.23987	12879.4375
528.30034	12600.7375
532.35792	12274.4375
536.41261	11901.4375
540.46441	11539.5375
544.51333	11389.5375
548.55936	11468.4375
552.60252	11767.4375
556.64279	12077.3375
560.6802	12254.6375
564.71473	12450.3375
568.7464	13032.9375
572.7752	13401.5375
576.80114	13014.7375
580.82422	12517.3375
584.84444	12260.6375
588.86181	12171.7375
592.87633	12152.5375
596.888	12381.1375
600.89682	13021.8375
604.9028	15011.4375
608.90594	20080.1375
612.90624	26514.5375
616.90371	25113.1375
620.89834	16680.9375
624.89015	12754.3375
628.87913	12005.5375
632.86528	12119.4375
636.84862	12386.7375
640.82913	12186.9375
644.80683	11600.2375
648.78172	11194.0375
652.75379	11309.3375
656.72306	11959.7375
660.68952	12657.9375
664.65319	12423.7375
668.61405	11659.7375
672.57211	11304.1375
676.52738	11236.1375
680.47986	11232.7375
684.42955	11119.1375
688.37646	11059.0375
692.32058	11121.3375
696.26192	11216.2375
700.20048	11375.8375
704.13626	11546.3375
708.06928	11554.8375
711.99952	11463.2375
715.927	11389.6375
719.85171	11413.3375
723.77365	11394.6375
727.69284	11277.4375
731.60928	11194.8375
735.52295	11161.9375
739.43388	11213.5375
743.34206	11277.0375
747.24749	11370.8375
751.15017	11496.1375
755.05012	11750.0375
758.94733	12450.1375
762.8418	14066.8375
766.73354	16845.6375
770.62254	19797.8375
774.50882	21283.6375
778.39237	20155.7375
782.27321	17086.9375
786.15132	14177.3375
790.02671	12528.9375
793.89938	11827.9375
797.76935	11489.5375
801.6366	11361.5375
805.50115	11290.5375
809.36299	11166.0375
813.22213	11128.8375
817.07857	11119.8375
820.93231	11118.0375
824.78336	11135.5375
828.63172	11228.7375
832.47738	11281.4375
836.32036	11253.9375
840.16066	11160.7375
843.99827	11092.4375
847.8332	11046.3375
851.66546	11029.5375
855.49504	11033.3375
859.32195	10991.6375
863.1462	10911.7375
866.96777	10869.8375
870.78668	10854.6375
874.60293	10901.5375
878.41652	10912.9375
882.22745	10997.1375
886.03573	11061.3375
889.84136	10995.9375
893.64433	10958.3375
897.44466	10927.7375
901.24235	10945.1375
905.0374	10937.5375
908.8298	10906.5375
912.61957	10891.5375
916.40671	10933.1375
920.19121	11049.8375
923.97308	11175.2375
927.75233	11283.3375
931.52895	11419.5375
935.30295	11271.1375
939.07433	10955.8375
942.84309	10633.8375
946.60924	10434.6375
950.37278	10353.1375
954.13371	10283.9375
957.89203	10222.4375
961.64774	10174.8375
965.40086	10201.5375
969.15137	10152.8375
972.89929	10125.1375
976.64461	10129.4375
980.38733	10122.0375
984.12747	10150.9375
987.86502	10165.0375
991.59999	10233.3375
995.33237	10365.0375
999.06217	10607.8375
1002.78939	10913.1375
1006.51404	11255.8375
1010.23611	11562.5375
1013.95561	11764.2375
1017.67255	11719.2375
1021.38692	11504.4375
1025.09872	11331.5375
1028.80796	11229.4375
1032.51465	11357.1375
1036.21877	11534.6375
1039.92035	11684.1375
1043.61937	11684.8375
1047.31584	11584.0375
1051.00976	11510.5375
1054.70114	11411.1375
1058.38998	11385.7375
1062.07627	11438.0375
1065.76003	11554.6375
1069.44126	11704.9375
1073.11995	11978.9375
1076.79611	12234.5375
1080.46974	12504.8375
1084.14085	12793.1375
1087.80943	13070.6375
1091.47549	13109.8375
1095.13903	12793.6375
1098.80005	12226.4375
1102.45857	11808.4375
1106.11456	11633.8375
1109.76805	11696.9375
1113.41903	11974.5375
1117.06751	12423.2375
1120.71348	12994.2375
1124.35696	13560.4375
1127.99793	14160.5375
1131.63641	14138.7375
1135.2724	13450.7375
1138.90589	12754.6375
1142.5369	12286.2375
1146.16542	11991.8375
1149.79145	11807.4375
1153.415	11809.2375
1157.03607	11938.2375
1160.65467	12249.4375
1164.27079	12723.4375
1167.88443	13464.5375
1171.49561	14716.4375
1175.10432	16827.4375
1178.71056	19635.3375
1182.31434	21728.4375
1185.91565	22189.9375
1189.51451	21339.2375
1193.11091	19678.8375
1196.70485	17752.2375
1200.29634	16414.9375
1203.88538	15559.8375
1207.47197	14551.2375
1211.05612	13698.5375
1214.63782	13221.7375
1218.21708	13073.7375
1221.79391	13090.6375
1225.36829	13175.6375
1228.94024	13319.7375
1232.50976	13425.2375
1236.07685	13466.9375
1239.6415	13535.1375
1243.20374	13577.3375
1246.76355	13682.0375
1250.32093	13833.7375
1253.8759	14194.0375
1257.42845	14646.5375
1260.97859	15143.5375
1264.52631	15619.9375
1268.07163	16123.5375
1271.61453	16622.1375
1275.15503	16949.9375
1278.69312	17077.8375
1282.22882	17129.0375
1285.76211	17428.1375
1289.29301	18005.5375
1292.82151	18581.9375
1296.34761	19194.3375
1299.87133	20132.0375
1303.39266	21766.0375
1306.9116	24465.4375
1310.42815	27597.4375
1313.94233	29513.0375
1317.45412	29019.0375
1320.96354	26950.3375
1324.47058	24517.4375
1327.97525	22443.3375
1331.47754	21202.7375
1334.97747	20733.6375
1338.47502	20870.5375
1341.97022	21362.4375
1345.46305	22206.9375
1348.95352	23581.2375
1352.44163	25584.6375
1355.92738	28467.8375
1359.41078	33028.2375
1362.89183	37757.7375
1366.37053	37176.4375
1369.84688	31209.9375
1373.32088	25021.3375
1376.79254	21144.0375
1380.26186	19186.6375
1383.72883	18215.6375
1387.19347	17488.1375
1390.65578	16690.7375
1394.11575	16006.1375
1397.57339	15619.5375
1401.0287	15585.3375
1404.48168	15787.3375
1407.93234	16126.9375
1411.38068	16425.8375
1414.82669	16499.2375
1418.27039	16336.4375
1421.71177	16000.4375
1425.15083	15607.0375
1428.58758	15363.4375
1432.02203	15358.0375
1435.45416	15467.6375
1438.88399	15546.1375
1442.31151	15578.6375
1445.73673	15697.3375
1449.15965	15804.1375
1452.58027	15779.6375
1455.9986	15576.5375
1459.41463	15461.8375
1462.82837	15605.2375
1466.23982	15946.2375
1469.64898	16348.4375
1473.05586	16656.8375
1476.46045	16936.4375
1479.86276	17311.2375
1483.26279	17784.6375
1486.66054	18395.6375
1490.05602	19050.4375
1493.44922	20043.0375
1496.84016	21484.1375
1500.22882	23704.1375
1503.61521	26812.1375
1506.99934	30447.4375
1510.38121	33911.0375
1513.76081	35576.5375
1517.13816	33895.0375
1520.51324	29663.1375
1523.88607	25203.8375
1527.25665	22077.6375
1530.62498	20205.7375
1533.99105	19118.4375
1537.35488	18424.3375
1540.71647	17954.2375
1544.07581	17751.9375
1547.4329	17613.2375
1550.78776	17529.0375
1554.14038	17522.8375
1557.49077	17693.2375
1560.83892	18077.3375
1564.18484	18632.3375
1567.52853	19277.7375
1570.86999	19976.7375
1574.20922	20493.1375
1577.54624	20565.6375
1580.88103	19672.9375
1584.2136	18239.1375
1587.54395	17378.3375
1590.87208	17312.6375
1594.19801	18196.3375
1597.52172	19456.8375
1600.84321	19981.2375
1604.16251	19224.7375
1607.47959	17930.0375
1610.79447	16590.8375
1614.10715	15252.2375
1617.41763	14204.2375
1620.7259	13519.6375
1624.03199	13221.2375
1627.33587	13233.0375
1630.63757	13571.5375
1633.93707	14180.3375
1637.23439	15210.0375
1640.52951	16721.9375
1643.82246	18757.6375
1647.11321	21299.4375
1650.40179	23420.2375
1653.68819	23176.4375
1656.97241	20185.2375
1660.25446	16650.4375
1663.53433	14059.6375
1666.81203	12529.7375
1670.08756	11660.6375
1673.36092	11121.2375
1676.63211	10778.1375
1679.90115	10573.9375
1683.16801	10394.2375
1686.43272	10269.6375
1689.69527	10182.6375
1692.95567	10144.5375
1696.2139	10102.3375
1699.46999	10097.8375
1702.72392	10091.9375
1705.97571	10044.5375
1709.22535	10017.5375
1712.47284	10017.6375
1715.71819	10016.2375
1718.96139	10006.8375
1722.20246	9968.4375
1725.44139	9943.5375
1728.67818	9841.9375
1731.91284	9752.4375
1735.14537	9684.8375
1738.37576	9630.4375
1741.60403	9584.0375
1744.83017	9562.7375
1748.05418	9519.9375
1751.27607	9489.2375
1754.49584	9470.4375
1757.71349	9474.2375
1760.92903	9493.7375
1764.14244	9458.3375
1767.35375	9447.1375
1770.56294	9435.1375
1773.77002	9407.2375
1776.97499	9378.1375
1780.17785	9301.4375
1783.37861	9313.8375
1786.57727	9277.0375
1789.77382	9242.7375
1792.96828	9233.2375
1796.16064	9206.4375
1799.3509	9197.3375
1802.53907	9196.4375
1805.72514	9178.8375
1808.90913	9141.0375
1812.09102	9111.2375
1815.27083	9089.9375
1818.44856	9086.1375
1821.6242	9042.8375
1824.79776	9047.1375
1827.96924	9013.4375
1831.13864	9025.6375
1834.30597	9038.6375
1837.47122	9023.6375
1840.6344	9027.4375
1843.7955	9024.0375
1846.95454	9007.7375
1850.11151	8988.8375
1853.26642	8989.1375
1856.41926	9013.5375
1859.57004	9002.9375
1862.71876	9005.5375
1865.86542	9008.0375
1869.01003	8991.5375
1872.15258	9022.7375
1875.29308	9040.8375
1878.43152	9016.5375
1881.56792	9049.9375
1884.70227	9033.8375
1887.83457	9012.4375
1890.96482	9046.8375
1894.09304	9050.7375
1897.21921	9020.3375
1900.34335	9007.2375
1903.46544	9016.7375
1906.58551	8982.8375
1909.70353	8991.4375
1912.81953	9004.0375
1915.93349	8986.2375
1919.04543	8982.2375
1922.15534	8982.0375
1925.26322	8943.7375
1928.36908	8896.8375
1931.47292	8875.6375
1934.57473	8868.9375
1937.67453	8804.6375
1940.77232	8785.1375
1943.86808	8725.4375
1946.96184	8692.6375
1950.05358	8647.3375
1953.14331	8616.0375
1956.23103	8618.4375
1959.31675	8574.6375
1962.40046	8543.9375
1965.48217	8515.3375
1968.56188	8502.5375
1971.63959	8490.3375
1974.7153	8456.1375
1977.78901	8430.1375
1980.86073	8384.8375
1983.93046	8371.5375
1986.99819	8353.1375
1990.06394	8318.0375
1993.1277	8298.1375
1996.18947	8241.4375
1999.24925	8238.3375
2002.30706	8209.3375
2005.36288	8163.7375
2008.41672	8163.9375
2011.46859	8140.7375
2014.51848	8122.0375
2017.56639	8084.3375
2020.61233	8087.8375
2023.6563	8058.9375
2026.6983	8053.4375
2029.73833	7988.9375
2032.7764	7983.7375
2035.8125	7967.7375
2038.84664	7940.3375
2041.87881	7928.7375
2044.90903	7917.7375
2047.93729	7892.9375
2050.96359	7889.9375
2053.98794	7873.7375
2057.01034	7878.9375
2060.03078	7851.7375
2063.04927	7861.5375
2066.06582	7855.4375
2069.08042	7828.4375
2072.09307	7819.7375
2075.10378	7816.2375
2078.11255	7804.5375
2081.11938	7801.9375
2084.12426	7807.7375
2087.12722	7787.5375
2090.12824	7766.7375
2093.12732	7789.1375
2096.12447	7773.7375
2099.11969	7788.1375
2102.11299	7766.4375
2105.10435	7784.0375
2108.09379	7781.3375
2111.08131	7796.6375
2114.0669	7807.1375
2117.05057	7786.6375
2120.03233	7814.9375
2123.01216	7797.0375
2125.99008	7803.8375
2128.96609	7808.7375
2131.94018	7815.4375
2134.91236	7817.6375
2137.88263	7813.7375
2140.851	7808.1375
2143.81746	7825.6375
2146.78201	7809.5375
2149.74466	7805.7375
2152.7054	7809.8375
2155.66425	7790.1375
2158.6212	7795.2375
2161.57625	7782.0375
2164.52941	7803.8375
2167.48067	7786.6375
2170.43004	7787.5375
2173.37752	7792.1375
2176.32311	7775.7375
2179.26681	7761.8375
2182.20863	7766.6375
2185.14856	7800.1375
2188.08661	7781.2375
2191.02278	7769.2375
2193.95707	7752.7375
2196.88948	7744.5375
2199.82001	7755.6375
2202.74867	7728.2375
2205.67545	7723.5375
2208.60037	7726.4375
2211.52341	7699.5375
2214.44458	7718.0375
2217.36388	7683.7375
2220.28132	7675.6375
2223.1969	7658.8375
2226.11061	7638.6375
2229.02246	7618.5375
2231.93245	7576.8375
2234.84058	7570.8375
2237.74686	7583.5375
2240.65128	7565.6375
2243.55385	7564.2375
2246.45456	7527.1375
2249.35343	7541.0375
2252.25044	7542.7375
2255.14561	7517.4375
2258.03893	7538.0375
2260.93041	7543.9375
2263.82004	7534.6375
2266.70783	7501.2375
2269.59378	7490.3375
2272.4779	7459.0375
2275.36017	7433.1375
2278.24061	7411.8375
2281.11922	7385.0375
2283.996	7369.0375
2286.87094	7373.5375
2289.74405	7355.6375
2292.61534	7334.2375
2295.4848	7326.0375
2298.35243	7320.0375
2301.21824	7304.7375
2304.08223	7310.7375
2306.94439	7304.3375
2309.80474	7288.4375
2312.66327	7318.5375
2315.51999	7287.4375
2318.37489	7281.0375
2321.22797	7274.7375
2324.07925	7253.5375
2326.92871	7265.0375
2329.77637	7260.0375
2332.62222	7262.6375
2335.46626	7231.8375
2338.3085	7244.8375
2341.14893	7244.4375
2343.98756	7261.7375
2346.8244	7236.3375
2349.65943	7244.4375
2352.49267	7245.1375
2355.32411	7260.2375
2358.15376	7265.9375
2360.98161	7284.1375
2363.80768	7292.1375
2366.63195	7301.3375
2369.45444	7284.3375
2372.27514	7273.9375
2375.09405	7270.4375
2377.91118	7229.6375
2380.72652	7230.0375
2383.54009	7181.4375
2386.35187	7161.6375
2389.16188	7100.4375
2391.97011	7099.9375
2394.77657	7087.0375
2397.58125	7066.4375
2400.38416	7047.2375
2403.18529	7049.4375
2405.98466	7006.9375
2408.78226	6991.2375
2411.57809	6982.5375
2414.37216	6957.4375
2417.16446	6969.4375
2419.955	6955.2375
2422.74378	6966.6375
2425.5308	6955.3375
2428.31606	6929.4375
2431.09956	6969.2375
2433.88131	6948.6375
2436.6613	6941.3375
2439.43954	6915.8375
2442.21603	6946.0375
2444.99077	6947.6375
2447.76377	6924.0375
2450.53501	6907.2375
2453.30451	6932.7375
2456.07226	6908.7375
2458.83827	6918.0375
2461.60254	6923.9375
2464.36507	6896.0375
2467.12586	6904.8375
2469.88492	6897.0375
2472.64224	6898.8375
2475.39782	6908.3375
2478.15167	6929.0375
2480.90379	6922.8375
2483.65417	6934.8375
2486.40283	6941.3375
2489.14976	6949.9375
2491.89497	6955.7375
2494.63845	6986.3375
2497.3802	6973.9375
2500.12024	6988.8375
2502.85855	6951.6375
2505.59514	6944.4375
2508.33002	6915.5375
2511.06318	6880.3375
2513.79462	6843.5375
2516.52435	6834.4375
2519.25237	6803.9375
2521.97867	6778.8375
2524.70327	6763.9375
2527.42616	6761.7375
2530.14734	6747.0375
2532.86681	6728.9375
2535.58458	6747.2375
2538.30065	6728.1375
2541.01501	6718.8375
2543.72768	6736.7375
2546.43864	6738.5375
2549.14791	6719.8375
2551.85548	6734.9375
2554.56136	6706.2375
2557.26554	6693.4375
2559.96803	6701.1375
2562.66883	6706.0375
2565.36794	6680.8375
2568.06536	6684.4375
2570.7611	6649.6375
2573.45514	6648.4375
2576.14751	6629.7375
2578.83819	6630.0375
2581.52719	6609.8375
2584.21451	6602.5375
2586.90015	6605.7375
2589.58411	6595.1375
2592.2664	6594.1375
2594.94701	6582.6375
2597.62594	6587.1375
2600.30321	6557.0375
2602.9788	6579.0375
2605.65273	6561.0375
2608.32498	6545.7375
2610.99557	6544.0375
2613.66449	6537.4375
2616.33175	6554.3375
2618.99734	6545.1375
2621.66128	6540.3375
2624.32355	6530.5375
2626.98416	6533.3375
2629.64311	6514.8375
2632.30041	6515.8375
2634.95605	6495.6375
2637.61004	6491.9375
2640.26238	6475.9375
2642.91306	6462.2375
2645.56209	6447.7375
2648.20948	6450.6375
2650.85521	6440.3375
2653.4993	6455.4375
2656.14175	6438.1375
2658.78255	6445.9375
2661.42171	6445.9375
2664.05923	6454.7375
2666.6951	6470.6375
2669.32934	6476.4375
2671.96194	6478.4375
2674.59291	6481.8375
2677.22224	6494.1375
2679.84993	6483.1375
2682.476	6494.9375
2685.10043	6500.9375
2687.72324	6483.2375
2690.34441	6488.8375
2692.96396	6489.8375
2695.58188	6475.2375
2698.19818	6456.4375
2700.81285	6489.6375
2703.4259	6494.0375
2706.03733	6541.6375
2708.64714	6507.4375
2711.25533	6520.8375
2713.86191	6496.7375
2716.46687	6512.0375
2719.07021	6503.6375
2721.67194	6485.6375
2724.27206	6483.1375
2726.87057	6493.2375
2729.46747	6495.7375
2732.06276	6505.1375
2734.65644	6493.8375
2737.24852	6483.5375
2739.83899	6462.3375
2742.42786	6465.2375
2745.01513	6441.7375
2747.60079	6451.9375
2750.18486	6431.9375
2752.76733	6432.7375
2755.3482	6425.9375
2757.92747	6426.5375
2760.50515	6430.8375
2763.08123	6415.2375
2765.65573	6384.2375
2768.22863	6377.2375
2770.79994	6381.2375
2773.36967	6377.1375
2775.9378	6365.0375
2778.50435	6366.3375
2781.06932	6365.9375
2783.6327	6370.0375
2786.1945	6343.2375
2788.75471	6338.8375
2791.31335	6346.3375
2793.87041	6344.3375
2796.42589	6303.5375
2798.97979	6313.7375
2801.53212	6317.2375
2804.08288	6305.1375
2806.63206	6290.4375
2809.17967	6284.6375
2811.72571	6281.1375
2814.27018	6308.0375
2816.81308	6287.1375
2819.35442	6303.9375
2821.89419	6291.4375
2824.43239	6318.2375
2826.96904	6300.6375
2829.50412	6330.1375
2832.03763	6322.4375
2834.56959	6330.6375
2837.1	6316.6375
2839.62884	6312.9375
2842.15613	6332.7375
2844.68186	6358.8375
2847.20604	6369.2375
2849.72867	6385.3375
2852.24974	6398.3375
2854.76927	6421.4375
2857.28724	6407.5375
2859.80367	6399.8375
2862.31855	6380.3375
2864.83189	6382.9375
2867.34368	6376.8375
2869.85393	6356.9375
2872.36264	6360.0375
2874.8698	6357.9375
2877.37543	6350.1375
2879.87952	6341.5375
2882.38207	6357.4375
2884.88308	6323.2375
2887.38256	6311.6375
2889.88051	6333.7375
2892.37692	6320.6375
2894.8718	6328.5375
2897.36515	6339.7375
2899.85698	6315.4375
2902.34727	6341.4375
2904.83604	6328.8375
2907.32328	6349.1375
2909.809	6349.9375
2912.29319	6360.4375
2914.77587	6354.5375
2917.25702	6354.9375
2919.73665	6350.4375
2922.21476	6340.3375
2924.69136	6348.3375
2927.16644	6333.3375
2929.64	6310.9375
2932.11205	6277.6375
2934.58258	6267.6375
2937.05161	6264.0375
2939.51912	6253.7375
2941.98513	6231.9375
2944.44962	6208.5375
2946.91261	6172.9375
2949.37409	6145.7375
2951.83407	6139.9375
2954.29254	6129.7375
2956.74951	6112.7375
2959.20498	6110.3375
2961.65895	6084.8375
2964.11142	6084.8375
2966.56239	6081.0375
2969.01186	6046.8375
2971.45984	6043.5375
2973.90632	6019.8375
2976.35131	6004.8375
2978.7948	5988.2375
2981.23681	5982.5375
2983.67732	5983.5375
2986.11635	5936.8375
2988.55388	5925.6375
2990.98993	5911.2375
2993.4245	5883.0375
2995.85758	5870.0375
2998.28917	5858.4375
3000.71928	5883.2375
3003.14791	5850.7375
3005.57506	5852.6375
3008.00073	5834.0375
3010.42493	5821.9375
3012.84764	5839.3375
3015.26888	5819.7375
3017.68865	5804.9375
3020.10694	5799.8375
3022.52376	5795.3375
3024.9391	5773.5375
3027.35298	5767.4375
3029.76539	5769.3375
3032.17632	5750.2375
3034.5858	5731.6375
3036.9938	5738.6375
3039.40034	5716.5375
3041.80542	5718.0375
3044.20903	5691.3375
3046.61118	5703.1375
3049.01187	5676.0375
3051.4111	5650.3375
3053.80888	5647.9375
3056.20519	5640.7375
3058.60005	5645.0375
3060.99345	5609.0375
3063.3854	5602.1375
3065.7759	5599.0375
3068.16494	5589.2375
3070.55254	5585.9375
3072.93868	5576.5375
3075.32338	5545.7375
3077.70662	5534.7375
3080.08842	5515.5375
3082.46878	5495.4375
3084.84769	5487.8375
3087.22515	5464.6375
3089.60118	5475.2375
3091.97576	5472.9375
3094.3489	5465.9375
3096.72061	5440.3375
3099.09087	5457.0375
3101.4597	5452.1375
3103.82709	5443.7375
3106.19305	5426.2375
3108.55757	5413.9375
3110.92066	5420.2375
3113.28232	5394.1375
3115.64255	5378.3375
3118.00134	5364.4375
3120.35871	5370.3375
3122.71466	5376.6375
3125.06917	5354.0375
3127.42226	5354.9375
3129.77393	5376.4375
3132.12417	5356.7375
3134.47299	5344.7375
3136.82039	5351.2375
3139.16636	5357.4375
3141.51092	5377.8375
3143.85406	5377.7375
3146.19579	5355.2375
3148.53609	5383.7375
3150.87499	5386.7375
3153.21246	5386.2375
3155.54853	5388.1375
3157.88318	5386.2375
3160.21642	5403.8375
3162.54826	5371.2375
3164.87868	5366.0375
3167.2077	5385.9375
3169.5353	5354.7375
3171.86151	5385.0375
3174.18631	5366.5375
3176.5097	5366.0375
3178.83169	5355.3375
3181.15228	5354.6375
3183.47147	5359.0375
3185.78926	5363.4375
3188.10565	5360.7375
3190.42065	5356.4375
3192.73424	5354.2375
3195.04645	5354.8375
3197.35725	5365.3375
3199.66667	5368.0375
3201.97469	5372.9375
3204.28132	5351.0375
3206.58656	5382.1375
3208.8904	5371.9375
3211.19287	5389.9375
3213.49394	5390.9375
3215.79363	5384.7375
3218.09193	5389.5375
3220.38884	5390.4375
3222.68438	5409.8375
3224.97853	5410.4375
3227.2713	5385.2375
3229.56269	5366.1375
3231.8527	5369.5375
3234.14133	5370.3375
3236.42858	5346.1375
3238.71446	5347.1375
3240.99896	5325.0375
3243.28209	5312.4375
3245.56384	5322.3375
3247.84423	5335.7375
3250.12324	5326.7375
3252.40088	5299.8375
3254.67715	5286.5375
3256.95205	5286.8375
3259.22558	5290.2375
3261.49775	5264.8375
3263.76855	5260.2375
3266.03799	5262.2375
3268.30606	5263.2375
3270.57277	5251.4375
3272.83812	5237.6375
3275.10211	5225.1375
3277.36474	5219.2375
3279.62601	5226.6375
3281.88593	5218.3375
3284.14448	5244.5375
3286.40168	5228.6375
3288.65753	5217.5375
3290.91202	5206.1375
3293.16516	5183.2375
3295.41695	5184.6375
3297.66738	5139.8375
3299.91647	5109.2375
3302.16421	5112.8375
3304.4106	5076.7375
3306.65564	5059.0375
3308.89933	5003.8375
3311.14169	4992.7375
3313.38269	4932.8375
3315.62236	4920.6375
3317.86068	4874.1375
3320.09766	4808.0375
3322.3333	4765.1375
3324.5676	4768.8375
3326.80056	4716.6375
3329.03219	4688.3375
3331.26248	1.8375
3333.49143	-1.6625
3335.71905	0.8375
