Data from AgNP_FTO_APTES_CRN_500uM_R6G_10uM_NaF_0.1M_Addition_RamanShift__24__20-31-38-241.txt Node

Date: Wed Dec 15 20:31:38 GMT 2021
User: TCL
Spectrometer: QEP01345
Trigger mode: 4
Integration Time (sec): 7.000000E0
Scans to average: 10
Electric dark correction enabled: true
Nonlinearity correction enabled: false
Boxcar width: 0
XAxis mode: Raman Shifts
Number of Pixels in Spectrum: 1044
>>>>>Begin Spectral Data<<<<<
46.04893	0.5375
50.45542	-1.6625
54.85868	-0.9625
59.25871	-1.6625
63.6555	61.4375
68.04907	70.1375
72.43941	72.0375
76.82654	76.0375
81.21044	81.6375
85.59113	83.5375
89.96862	88.3375
94.34289	84.2375
98.71396	94.0375
103.08183	97.2375
107.4465	99.4375
111.80798	100.0375
116.16626	100.5375
120.52136	104.7375
124.87327	107.2375
129.222	111.6375
133.56755	120.1375
137.90993	126.9375
142.24913	134.0375
146.58517	151.6375
150.91804	176.2375
155.24774	206.1375
159.57429	252.1375
163.89768	323.4375
168.21792	416.9375
172.53501	569.2375
176.84895	786.9375
181.15975	1101.7375
185.46741	1541.7375
189.77193	2135.7375
194.07331	2857.9375
198.37157	3686.5375
202.6667	4568.9375
206.9587	5416.9375
211.24758	6279.2375
215.53334	7107.8375
219.81599	8016.9375
224.09553	8968.1375
228.37195	10035.3375
232.64527	11204.4375
236.91549	12425.5375
241.18261	13680.4375
245.44663	14895.8375
249.70755	15985.5375
253.96539	16879.3375
258.22014	17719.1375
262.4718	18381.0375
266.72039	18830.9375
270.96589	19105.2375
275.20832	19128.7375
279.44768	19038.1375
283.68397	18900.5375
287.91719	18663.9375
292.14735	18557.1375
296.37445	18526.5375
300.59849	18511.7375
304.81948	18496.5375
309.03742	18388.2375
313.25231	18219.3375
317.46415	17937.0375
321.67296	17545.2375
325.87872	17289.6375
330.08145	17222.1375
334.28114	17291.8375
338.47781	17446.7375
342.67145	17619.6375
346.86207	17907.4375
351.04966	18213.5375
355.23424	18558.0375
359.4158	18861.8375
363.59435	19117.9375
367.76989	19265.3375
371.94243	19414.3375
376.11196	19530.9375
380.27849	19668.6375
384.44203	19801.2375
388.60257	19897.4375
392.76012	20051.3375
396.91468	20231.6375
401.06626	20485.9375
405.21485	20684.4375
409.36047	20678.3375
413.50311	20543.3375
417.64277	20343.1375
421.77947	20292.6375
425.9132	20333.3375
430.04396	20502.0375
434.17176	20735.8375
438.2966	21006.5375
442.41849	21431.5375
446.53742	21936.7375
450.6534	22501.3375
454.76644	22909.1375
458.87653	23067.5375
462.98368	22929.4375
467.08789	22731.2375
471.18916	22530.9375
475.2875	22426.6375
479.38291	22348.9375
483.4754	22245.4375
487.56496	22050.1375
491.6516	21747.3375
495.73531	21496.8375
499.81612	21343.3375
503.89401	21436.3375
507.96899	21520.1375
512.04106	21578.1375
516.11023	21667.5375
520.1765	21729.3375
524.23987	21722.9375
528.30034	21644.9375
532.35792	21542.2375
536.41261	21364.1375
540.46441	21204.5375
544.51333	21218.0375
548.55936	21365.3375
552.60252	21655.2375
556.64279	22020.5375
560.6802	22311.0375
564.71473	22463.9375
568.7464	22671.9375
572.7752	22933.4375
576.80114	23073.0375
580.82422	23096.2375
584.84444	23207.7375
588.86181	23560.7375
592.87633	24088.7375
596.888	24466.9375
600.89682	24423.7375
604.9028	24681.6375
608.90594	25842.1375
612.90624	27254.5375
616.90371	26188.1375
620.89834	23196.9375
624.89015	21820.9375
628.87913	21644.2375
632.86528	21794.7375
636.84862	21818.8375
640.82913	21685.9375
644.80683	21391.9375
648.78172	21114.0375
652.75379	21073.0375
656.72306	21225.9375
660.68952	21405.6375
664.65319	21431.1375
668.61405	21234.4375
672.57211	21158.1375
676.52738	21237.0375
680.47986	21307.5375
684.42955	21259.0375
688.37646	21183.3375
692.32058	21183.4375
696.26192	21301.8375
700.20048	21474.7375
704.13626	21535.9375
708.06928	21516.3375
711.99952	21409.5375
715.927	21311.9375
719.85171	21271.5375
723.77365	21193.8375
727.69284	21048.6375
731.60928	20911.6375
735.52295	20849.1375
739.43388	20854.9375
743.34206	20862.1375
747.24749	20870.7375
751.15017	20920.4375
755.05012	21053.9375
758.94733	21424.5375
762.8418	22095.6375
766.73354	23139.7375
770.62254	24217.9375
774.50882	24545.7375
778.39237	23826.7375
782.27321	22528.2375
786.15132	21422.4375
790.02671	20762.2375
793.89938	20460.7375
797.76935	20353.4375
801.6366	20334.1375
805.50115	20297.1375
809.36299	20256.6375
813.22213	20200.5375
817.07857	20203.1375
820.93231	20178.0375
824.78336	20145.2375
828.63172	20156.1375
832.47738	20121.4375
836.32036	20113.9375
840.16066	20117.7375
843.99827	20122.7375
847.8332	20093.8375
851.66546	20054.0375
855.49504	20072.1375
859.32195	20101.2375
863.1462	20109.7375
866.96777	20061.2375
870.78668	20033.8375
874.60293	20001.1375
878.41652	19977.8375
882.22745	20008.3375
886.03573	20023.2375
889.84136	20028.2375
893.64433	19987.0375
897.44466	19894.9375
901.24235	19872.9375
905.0374	19796.1375
908.8298	19768.2375
912.61957	19811.7375
916.40671	19941.8375
920.19121	20047.4375
923.97308	20137.1375
927.75233	20208.4375
931.52895	20181.6375
935.30295	20054.0375
939.07433	19850.3375
942.84309	19631.5375
946.60924	19487.2375
950.37278	19412.0375
954.13371	19367.2375
957.89203	19335.4375
961.64774	19311.6375
965.40086	19263.0375
969.15137	19182.6375
972.89929	19123.2375
976.64461	19061.2375
980.38733	19033.8375
984.12747	19059.1375
987.86502	19198.7375
991.59999	19323.8375
995.33237	19468.5375
999.06217	19806.0375
1002.78939	20140.3375
1006.51404	20342.8375
1010.23611	20485.0375
1013.95561	20629.5375
1017.67255	20628.0375
1021.38692	20487.5375
1025.09872	20277.9375
1028.80796	20257.9375
1032.51465	20382.8375
1036.21877	20549.8375
1039.92035	20598.1375
1043.61937	20595.9375
1047.31584	20463.0375
1051.00976	20326.2375
1054.70114	20332.9375
1058.38998	20447.4375
1062.07627	20636.6375
1065.76003	20984.7375
1069.44126	21391.3375
1073.11995	21927.0375
1076.79611	22385.0375
1080.46974	22365.7375
1084.14085	22047.4375
1087.80943	21685.4375
1091.47549	21384.2375
1095.13903	21172.6375
1098.80005	20876.4375
1102.45857	20631.2375
1106.11456	20442.7375
1109.76805	20369.0375
1113.41903	20465.0375
1117.06751	20606.1375
1120.71348	20765.9375
1124.35696	20979.5375
1127.99793	21148.1375
1131.63641	21313.0375
1135.2724	21147.2375
1138.90589	20988.7375
1142.5369	20869.8375
1146.16542	20801.1375
1149.79145	20842.9375
1153.415	20980.0375
1157.03607	21158.5375
1160.65467	21505.5375
1164.27079	22054.4375
1167.88443	22845.1375
1171.49561	23940.8375
1175.10432	25326.6375
1178.71056	27031.3375
1182.31434	28437.0375
1185.91565	28876.0375
1189.51451	28564.5375
1193.11091	27844.9375
1196.70485	26944.3375
1200.29634	26160.8375
1203.88538	25584.9375
1207.47197	25142.2375
1211.05612	24731.9375
1214.63782	24451.6375
1218.21708	24220.9375
1221.79391	24058.6375
1225.36829	23935.5375
1228.94024	23749.3375
1232.50976	23416.4375
1236.07685	23222.2375
1239.6415	23170.1375
1243.20374	23177.4375
1246.76355	23310.4375
1250.32093	23510.2375
1253.8759	23819.3375
1257.42845	24204.7375
1260.97859	24568.3375
1264.52631	24940.2375
1268.07163	25321.5375
1271.61453	25801.5375
1275.15503	26214.6375
1278.69312	26689.6375
1282.22882	27103.9375
1285.76211	27633.1375
1289.29301	28349.6375
1292.82151	29276.7375
1296.34761	30416.3375
1299.87133	31773.8375
1303.39266	33240.9375
1306.9116	34826.4375
1310.42815	36465.2375
1313.94233	37560.3375
1317.45412	37764.7375
1320.96354	37300.7375
1324.47058	36564.1375
1327.97525	35851.7375
1331.47754	35280.6375
1334.97747	35116.6375
1338.47502	35190.3375
1341.97022	35117.7375
1345.46305	34896.7375
1348.95352	34459.8375
1352.44163	34419.0375
1355.92738	34964.1375
1359.41078	36149.3375
1362.89183	37420.0375
1366.37053	37063.1375
1369.84688	34667.3375
1373.32088	31662.2375
1376.79254	29592.2375
1380.26186	28739.7375
1383.72883	28627.0375
1387.19347	28632.9375
1390.65578	28549.7375
1394.11575	28577.6375
1397.57339	28905.5375
1401.0287	29463.7375
1404.48168	30029.2375
1407.93234	30268.6375
1411.38068	30052.5375
1414.82669	29377.8375
1418.27039	28369.4375
1421.71177	27315.6375
1425.15083	26386.2375
1428.58758	25839.6375
1432.02203	25773.4375
1435.45416	26089.7375
1438.88399	26611.3375
1442.31151	27058.9375
1445.73673	27423.5375
1449.15965	27810.3375
1452.58027	28094.1375
1455.9986	28259.5375
1459.41463	28351.0375
1462.82837	28583.3375
1466.23982	28993.8375
1469.64898	29313.9375
1473.05586	29558.0375
1476.46045	29558.3375
1479.86276	29461.3375
1483.26279	29171.4375
1486.66054	28938.8375
1490.05602	28884.0375
1493.44922	28819.0375
1496.84016	28748.3375
1500.22882	28841.5375
1503.61521	29265.5375
1506.99934	30049.7375
1510.38121	30809.2375
1513.76081	31098.8375
1517.13816	30613.5375
1520.51324	29610.6375
1523.88607	28702.4375
1527.25665	28143.9375
1530.62498	27958.0375
1533.99105	28022.7375
1537.35488	28034.0375
1540.71647	27955.0375
1544.07581	27672.8375
1547.4329	27345.8375
1550.78776	27013.0375
1554.14038	26781.7375
1557.49077	26639.3375
1560.83892	26591.8375
1564.18484	26661.9375
1567.52853	26930.9375
1570.86999	27367.5375
1574.20922	28141.8375
1577.54624	29011.1375
1580.88103	29476.3375
1584.2136	29470.8375
1587.54395	29369.0375
1590.87208	29662.1375
1594.19801	30508.7375
1597.52172	31697.9375
1600.84321	32115.4375
1604.16251	31277.3375
1607.47959	29436.5375
1610.79447	27345.5375
1614.10715	25362.5375
1617.41763	23849.3375
1620.7259	22860.0375
1624.03199	22340.9375
1627.33587	22307.4375
1630.63757	22704.7375
1633.93707	23615.3375
1637.23439	25161.9375
1640.52951	27309.9375
1643.82246	29784.1375
1647.11321	31821.2375
1650.40179	32276.9375
1653.68819	30730.2375
1656.97241	27707.9375
1660.25446	24689.8375
1663.53433	22426.4375
1666.81203	20881.6375
1670.08756	19922.6375
1673.36092	19309.0375
1676.63211	18915.6375
1679.90115	18595.6375
1683.16801	18378.3375
1686.43272	18186.7375
1689.69527	18078.1375
1692.95567	18001.6375
1696.2139	17957.4375
1699.46999	17912.0375
1702.72392	17849.5375
1705.97571	17835.2375
1709.22535	17792.1375
1712.47284	17752.6375
1715.71819	17685.2375
1718.96139	17696.4375
1722.20246	17599.9375
1725.44139	17543.8375
1728.67818	17494.3375
1731.91284	17372.2375
1735.14537	17320.4375
1738.37576	17279.1375
1741.60403	17244.9375
1744.83017	17230.4375
1748.05418	17177.0375
1751.27607	17140.5375
1754.49584	17149.6375
1757.71349	17119.8375
1760.92903	17111.3375
1764.14244	17083.2375
1767.35375	17055.3375
1770.56294	17006.4375
1773.77002	16991.9375
1776.97499	17001.5375
1780.17785	16930.4375
1783.37861	16930.9375
1786.57727	16895.8375
1789.77382	16844.9375
1792.96828	16841.6375
1796.16064	16819.7375
1799.3509	16788.6375
1802.53907	16732.1375
1805.72514	16705.6375
1808.90913	16691.5375
1812.09102	16620.2375
1815.27083	16621.2375
1818.44856	16598.9375
1821.6242	16560.9375
1824.79776	16564.3375
1827.96924	16507.9375
1831.13864	16523.7375
1834.30597	16511.3375
1837.47122	16501.4375
1840.6344	16488.9375
1843.7955	16461.9375
1846.95454	16451.6375
1850.11151	16456.4375
1853.26642	16455.8375
1856.41926	16442.0375
1859.57004	16441.7375
1862.71876	16446.8375
1865.86542	16416.3375
1869.01003	16417.0375
1872.15258	16411.1375
1875.29308	16405.1375
1878.43152	16387.9375
1881.56792	16377.5375
1884.70227	16364.6375
1887.83457	16356.7375
1890.96482	16346.2375
1894.09304	16325.7375
1897.21921	16331.3375
1900.34335	16332.0375
1903.46544	16302.8375
1906.58551	16323.8375
1909.70353	16276.9375
1912.81953	16274.4375
1915.93349	16220.5375
1919.04543	16198.0375
1922.15534	16192.1375
1925.26322	16172.0375
1928.36908	16161.3375
1931.47292	16104.8375
1934.57473	16050.3375
1937.67453	16022.5375
1940.77232	15984.2375
1943.86808	15947.2375
1946.96184	15913.1375
1950.05358	15859.2375
1953.14331	15823.3375
1956.23103	15781.3375
1959.31675	15736.0375
1962.40046	15722.8375
1965.48217	15652.3375
1968.56188	15633.1375
1971.63959	15572.9375
1974.7153	15519.2375
1977.78901	15458.0375
1980.86073	15444.4375
1983.93046	15378.9375
1986.99819	15325.3375
1990.06394	15331.2375
1993.1277	15272.0375
1996.18947	15204.6375
1999.24925	15173.2375
2002.30706	15147.4375
2005.36288	15091.5375
2008.41672	15039.6375
2011.46859	15011.5375
2014.51848	14991.3375
2017.56639	14952.9375
2020.61233	14888.3375
2023.6563	14885.7375
2026.6983	14848.6375
2029.73833	14821.8375
2032.7764	14782.1375
2035.8125	14758.3375
2038.84664	14764.1375
2041.87881	14716.8375
2044.90903	14692.7375
2047.93729	14655.0375
2050.96359	14659.7375
2053.98794	14646.9375
2057.01034	14620.1375
2060.03078	14616.1375
2063.04927	14604.3375
2066.06582	14602.9375
2069.08042	14568.1375
2072.09307	14547.5375
2075.10378	14550.3375
2078.11255	14556.3375
2081.11938	14534.9375
2084.12426	14526.2375
2087.12722	14542.6375
2090.12824	14540.0375
2093.12732	14528.7375
2096.12447	14521.4375
2099.11969	14516.2375
2102.11299	14511.7375
2105.10435	14548.4375
2108.09379	14555.5375
2111.08131	14568.9375
2114.0669	14573.3375
2117.05057	14542.4375
2120.03233	14541.6375
2123.01216	14585.5375
2125.99008	14571.2375
2128.96609	14592.2375
2131.94018	14636.8375
2134.91236	14609.5375
2137.88263	14632.4375
2140.851	14601.2375
2143.81746	14615.3375
2146.78201	14643.4375
2149.74466	14647.3375
2152.7054	14644.0375
2155.66425	14678.3375
2158.6212	14696.9375
2161.57625	14686.7375
2164.52941	14634.7375
2167.48067	14665.4375
2170.43004	14640.9375
2173.37752	14643.9375
2176.32311	14615.0375
2179.26681	14622.7375
2182.20863	14651.5375
2185.14856	14651.9375
2188.08661	14614.7375
2191.02278	14600.5375
2193.95707	14589.7375
2196.88948	14592.7375
2199.82001	14574.3375
2202.74867	14586.2375
2205.67545	14580.2375
2208.60037	14582.3375
2211.52341	14546.7375
2214.44458	14518.6375
2217.36388	14472.2375
2220.28132	14465.7375
2223.1969	14412.3375
2226.11061	14386.9375
2229.02246	14398.6375
2231.93245	14353.0375
2234.84058	14372.7375
2237.74686	14327.3375
2240.65128	14288.6375
2243.55385	14249.8375
2246.45456	14249.2375
2249.35343	14252.4375
2252.25044	14199.6375
2255.14561	14169.3375
2258.03893	14191.2375
2260.93041	14184.1375
2263.82004	14113.9375
2266.70783	14090.1375
2269.59378	14053.1375
2272.4779	14026.9375
2275.36017	14019.8375
2278.24061	13986.9375
2281.11922	13943.2375
2283.996	13886.2375
2286.87094	13887.5375
2289.74405	13849.5375
2292.61534	13849.9375
2295.4848	13838.3375
2298.35243	13873.8375
2301.21824	13844.2375
2304.08223	13793.5375
2306.94439	13791.3375
2309.80474	13792.5375
2312.66327	13823.9375
2315.51999	13800.3375
2318.37489	13764.6375
2321.22797	13780.2375
2324.07925	13758.5375
2326.92871	13747.9375
2329.77637	13748.7375
2332.62222	13721.1375
2335.46626	13720.9375
2338.3085	13682.3375
2341.14893	13710.9375
2343.98756	13666.0375
2346.8244	13643.5375
2349.65943	13664.4375
2352.49267	13646.9375
2355.32411	13609.0375
2358.15376	13619.7375
2360.98161	13617.6375
2363.80768	13636.5375
2366.63195	13593.0375
2369.45444	13573.5375
2372.27514	13535.2375
2375.09405	13566.8375
2377.91118	13540.0375
2380.72652	13494.2375
2383.54009	13495.7375
2386.35187	13462.5375
2389.16188	13397.0375
2391.97011	13393.8375
2394.77657	13375.8375
2397.58125	13358.0375
2400.38416	13346.3375
2403.18529	13336.0375
2405.98466	13315.9375
2408.78226	13282.1375
2411.57809	13256.8375
2414.37216	13245.3375
2417.16446	13254.8375
2419.955	13191.6375
2422.74378	13191.6375
2425.5308	13167.3375
2428.31606	13137.3375
2431.09956	13122.4375
2433.88131	13149.2375
2436.6613	13133.0375
2439.43954	13130.4375
2442.21603	13119.7375
2444.99077	13114.7375
2447.76377	13102.5375
2450.53501	13095.8375
2453.30451	13084.5375
2456.07226	13038.8375
2458.83827	13032.2375
2461.60254	13033.2375
2464.36507	13010.7375
2467.12586	13006.4375
2469.88492	13004.8375
2472.64224	12995.5375
2475.39782	12985.3375
2478.15167	13005.9375
2480.90379	12968.4375
2483.65417	13011.0375
2486.40283	13010.3375
2489.14976	13032.2375
2491.89497	12994.9375
2494.63845	13011.6375
2497.3802	12969.4375
2500.12024	12975.7375
2502.85855	12952.0375
2505.59514	12949.8375
2508.33002	12972.5375
2511.06318	12950.8375
2513.79462	12933.9375
2516.52435	12932.3375
2519.25237	12914.2375
2521.97867	12882.0375
2524.70327	12874.7375
2527.42616	12853.6375
2530.14734	12864.3375
2532.86681	12819.3375
2535.58458	12823.6375
2538.30065	12795.3375
2541.01501	12803.9375
2543.72768	12799.3375
2546.43864	12776.7375
2549.14791	12742.1375
2551.85548	12734.1375
2554.56136	12716.5375
2557.26554	12664.2375
2559.96803	12671.0375
2562.66883	12662.3375
2565.36794	12668.5375
2568.06536	12633.4375
2570.7611	12644.1375
2573.45514	12613.6375
2576.14751	12584.2375
2578.83819	12572.1375
2581.52719	12554.6375
2584.21451	12539.4375
2586.90015	12542.3375
2589.58411	12518.3375
2592.2664	12497.2375
2594.94701	12463.5375
2597.62594	12471.5375
2600.30321	12429.2375
2602.9788	12434.1375
2605.65273	12424.7375
2608.32498	12397.4375
2610.99557	12394.5375
2613.66449	12378.2375
2616.33175	12345.9375
2618.99734	12370.2375
2621.66128	12379.9375
2624.32355	12375.9375
2626.98416	12374.7375
2629.64311	12349.2375
2632.30041	12358.5375
2634.95605	12350.1375
2637.61004	12324.2375
2640.26238	12319.3375
2642.91306	12314.3375
2645.56209	12296.5375
2648.20948	12264.9375
2650.85521	12271.3375
2653.4993	12277.4375
2656.14175	12294.0375
2658.78255	12287.9375
2661.42171	12294.4375
2664.05923	12291.4375
2666.6951	12269.0375
2669.32934	12293.9375
2671.96194	12288.5375
2674.59291	12302.0375
2677.22224	12316.4375
2679.84993	12308.0375
2682.476	12277.0375
2685.10043	12264.7375
2687.72324	12260.4375
2690.34441	12262.5375
2692.96396	12281.9375
2695.58188	12258.6375
2698.19818	12272.5375
2700.81285	12258.8375
2703.4259	12266.1375
2706.03733	12298.9375
2708.64714	12291.9375
2711.25533	12307.0375
2713.86191	12303.8375
2716.46687	12304.1375
2719.07021	12277.9375
2721.67194	12275.2375
2724.27206	12258.4375
2726.87057	12282.6375
2729.46747	12289.4375
2732.06276	12293.1375
2734.65644	12244.3375
2737.24852	12262.2375
2739.83899	12248.6375
2742.42786	12250.9375
2745.01513	12255.1375
2747.60079	12228.8375
2750.18486	12237.9375
2752.76733	12215.5375
2755.3482	12203.2375
2757.92747	12228.5375
2760.50515	12196.2375
2763.08123	12218.3375
2765.65573	12186.3375
2768.22863	12177.1375
2770.79994	12182.6375
2773.36967	12167.8375
2775.9378	12169.2375
2778.50435	12139.6375
2781.06932	12114.2375
2783.6327	12105.4375
2786.1945	12104.0375
2788.75471	12095.7375
2791.31335	12075.3375
2793.87041	12047.4375
2796.42589	12011.7375
2798.97979	12049.6375
2801.53212	11992.2375
2804.08288	11967.2375
2806.63206	11944.0375
2809.17967	11928.7375
2811.72571	11896.4375
2814.27018	11887.5375
2816.81308	11870.9375
2819.35442	11863.0375
2821.89419	11836.6375
2824.43239	11840.6375
2826.96904	11839.1375
2829.50412	11799.8375
2832.03763	11788.8375
2834.56959	11785.6375
2837.1	11779.6375
2839.62884	11764.3375
2842.15613	11776.1375
2844.68186	11786.9375
2847.20604	11789.8375
2849.72867	11754.2375
2852.24974	11737.1375
2854.76927	11755.5375
2857.28724	11753.0375
2859.80367	11722.4375
2862.31855	11696.2375
2864.83189	11671.7375
2867.34368	11661.9375
2869.85393	11677.4375
2872.36264	11662.5375
2874.8698	11674.4375
2877.37543	11671.6375
2879.87952	11679.1375
2882.38207	11701.8375
2884.88308	11687.7375
2887.38256	11718.7375
2889.88051	11689.1375
2892.37692	11705.4375
2894.8718	11677.3375
2897.36515	11711.1375
2899.85698	11696.2375
2902.34727	11735.0375
2904.83604	11731.7375
2907.32328	11753.6375
2909.809	11751.2375
2912.29319	11755.0375
2914.77587	11790.0375
2917.25702	11729.5375
2919.73665	11757.2375
2922.21476	11757.7375
2924.69136	11759.6375
2927.16644	11759.7375
2929.64	11742.4375
2932.11205	11761.0375
2934.58258	11688.8375
2937.05161	11711.7375
2939.51912	11725.3375
2941.98513	11704.3375
2944.44962	11677.3375
2946.91261	11627.7375
2949.37409	11643.0375
2951.83407	11594.9375
2954.29254	11592.4375
2956.74951	11546.9375
2959.20498	11538.2375
2961.65895	11516.8375
2964.11142	11540.1375
2966.56239	11470.1375
2969.01186	11470.1375
2971.45984	11445.4375
2973.90632	11431.0375
2976.35131	11408.0375
2978.7948	11362.7375
2981.23681	11344.6375
2983.67732	11321.4375
2986.11635	11290.7375
2988.55388	11265.4375
2990.98993	11249.3375
2993.4245	11246.8375
2995.85758	11219.2375
2998.28917	11189.2375
3000.71928	11176.2375
3003.14791	11126.8375
3005.57506	11113.9375
3008.00073	11105.7375
3010.42493	11118.6375
3012.84764	11058.4375
3015.26888	11040.2375
3017.68865	11034.2375
3020.10694	11036.9375
3022.52376	11011.3375
3024.9391	10983.2375
3027.35298	10986.8375
3029.76539	10943.9375
3032.17632	10946.5375
3034.5858	10932.0375
3036.9938	10916.9375
3039.40034	10901.3375
3041.80542	10883.6375
3044.20903	10876.1375
3046.61118	10874.2375
3049.01187	10835.6375
3051.4111	10816.7375
3053.80888	10815.5375
3056.20519	10782.0375
3058.60005	10770.0375
3060.99345	10743.8375
3063.3854	10720.9375
3065.7759	10704.0375
3068.16494	10702.8375
3070.55254	10652.7375
3072.93868	10622.8375
3075.32338	10607.5375
3077.70662	10573.7375
3080.08842	10563.2375
3082.46878	10560.9375
3084.84769	10524.5375
3087.22515	10568.0375
3089.60118	10569.8375
3091.97576	10558.2375
3094.3489	10556.5375
3096.72061	10564.6375
3099.09087	10529.3375
3101.4597	10515.3375
3103.82709	10511.4375
3106.19305	10498.1375
3108.55757	10495.7375
3110.92066	10452.0375
3113.28232	10451.3375
3115.64255	10431.6375
3118.00134	10404.4375
3120.35871	10378.8375
3122.71466	10388.1375
3125.06917	10345.8375
3127.42226	10342.8375
3129.77393	10358.6375
3132.12417	10359.8375
3134.47299	10332.6375
3136.82039	10359.3375
3139.16636	10359.3375
3141.51092	10351.0375
3143.85406	10353.5375
3146.19579	10360.6375
3148.53609	10358.6375
3150.87499	10344.2375
3153.21246	10340.7375
3155.54853	10384.7375
3157.88318	10332.1375
3160.21642	10376.8375
3162.54826	10336.1375
3164.87868	10336.3375
3167.2077	10363.2375
3169.5353	10342.3375
3171.86151	10368.4375
3174.18631	10320.7375
3176.5097	10341.9375
3178.83169	10313.7375
3181.15228	10312.6375
3183.47147	10293.7375
3185.78926	10299.1375
3188.10565	10291.8375
3190.42065	10284.5375
3192.73424	10293.3375
3195.04645	10289.3375
3197.35725	10293.8375
3199.66667	10302.6375
3201.97469	10317.2375
3204.28132	10291.5375
3206.58656	10317.4375
3208.8904	10296.7375
3211.19287	10301.0375
3213.49394	10289.1375
3215.79363	10295.0375
3218.09193	10304.4375
3220.38884	10287.9375
3222.68438	10305.6375
3224.97853	10279.9375
3227.2713	10273.2375
3229.56269	10249.6375
3231.8527	10248.5375
3234.14133	10250.3375
3236.42858	10205.3375
3238.71446	10196.7375
3240.99896	10193.8375
3243.28209	10182.0375
3245.56384	10173.1375
3247.84423	10198.3375
3250.12324	10179.2375
3252.40088	10173.9375
3254.67715	10168.4375
3256.95205	10129.1375
3259.22558	10140.9375
3261.49775	10118.9375
3263.76855	10138.3375
3266.03799	10085.6375
3268.30606	10065.3375
3270.57277	10065.2375
3272.83812	10044.3375
3275.10211	10026.2375
3277.36474	10017.4375
3279.62601	10003.4375
3281.88593	10013.5375
3284.14448	10035.5375
3286.40168	10029.8375
3288.65753	10006.4375
3290.91202	9973.6375
3293.16516	9927.2375
3295.41695	9928.5375
3297.66738	9848.9375
3299.91647	9814.8375
3302.16421	9752.0375
3304.4106	9708.9375
3306.65564	9679.4375
3308.89933	9592.0375
3311.14169	9551.0375
3313.38269	9507.4375
3315.62236	9445.4375
3317.86068	9370.1375
3320.09766	9277.6375
3322.3333	9174.3375
3324.5676	9185.1375
3326.80056	9035.7375
3329.03219	9018.8375
3331.26248	3.2375
3333.49143	0.2375
3335.71905	0.6375
