Data from AgNP_FTO_APTES_CRN_0uM_R6G_10uM_NaF_0.1M_Addition_RamanShift__11__11-42-32-907.txt Node

Date: Wed Dec 15 11:42:32 GMT 2021
User: TCL
Spectrometer: QEP01345
Trigger mode: 4
Integration Time (sec): 7.000000E0
Scans to average: 10
Electric dark correction enabled: true
Nonlinearity correction enabled: false
Boxcar width: 0
XAxis mode: Raman Shifts
Number of Pixels in Spectrum: 1044
>>>>>Begin Spectral Data<<<<<
46.04893	0.9
50.45542	-0.3
54.85868	-1.2
59.25871	-0
63.6555	72.8
68.04907	82.9
72.43941	86.4
76.82654	95.4
81.21044	103.6
85.59113	110.9
89.96862	115.9
94.34289	117
98.71396	127.9
103.08183	129.1
107.4465	126.7
111.80798	130.7
116.16626	128.9
120.52136	133.8
124.87327	126.3
129.222	126.9
133.56755	125.8
137.90993	122.8
142.24913	124
146.58517	124.9
150.91804	131.3
155.24774	136.5
159.57429	145.8
163.89768	161.5
168.21792	184.5
172.53501	217.1
176.84895	266.7
181.15975	346.3
185.46741	455.1
189.77193	613.7
194.07331	817.7
198.37157	1051.8
202.6667	1318.9
206.9587	1589.7
211.24758	1849.7
215.53334	2129.7
219.81599	2416.4
224.09553	2728.4
228.37195	3052.1
232.64527	3427.7
236.91549	3794.9
241.18261	4175.9
245.44663	4536
249.70755	4833.6
253.96539	5077.5
258.22014	5255.3
262.4718	5338.6
266.72039	5338.6
270.96589	5255.6
275.20832	5115.4
279.44768	4936
283.68397	4715.5
287.91719	4533.9
292.14735	4354.9
296.37445	4209.7
300.59849	4090.2
304.81948	4033.3
309.03742	3988.6
313.25231	3921
317.46415	3845.5
321.67296	3773.6
325.87872	3708.7
330.08145	3654.5
334.28114	3648.1
338.47781	3627.4
342.67145	3594.9
346.86207	3579.5
351.04966	3562.2
355.23424	3560
359.4158	3532
363.59435	3506.8
367.76989	3489.4
371.94243	3436.5
376.11196	3438.8
380.27849	3405.3
384.44203	3391.2
388.60257	3375.2
392.76012	3361.6
396.91468	3369.8
401.06626	3384.7
405.21485	3410.4
409.36047	3404.9
413.50311	3379.1
417.64277	3345.9
421.77947	3333.2
425.9132	3359.8
430.04396	3367.1
434.17176	3389.8
438.2966	3413.6
442.41849	3442.6
446.53742	3485.5
450.6534	3500
454.76644	3515.2
458.87653	3524.6
462.98368	3527.9
467.08789	3516.2
471.18916	3511.3
475.2875	3493.7
479.38291	3469
483.4754	3468.5
487.56496	3444.3
491.6516	3443.3
495.73531	3449.2
499.81612	3455.5
503.89401	3466.9
507.96899	3481.2
512.04106	3516.8
516.11023	3541.2
520.1765	3563.4
524.23987	3583.1
528.30034	3574.3
532.35792	3582.8
536.41261	3574.7
540.46441	3593.4
544.51333	3608.8
548.55936	3625.6
552.60252	3666.4
556.64279	3724.7
560.6802	3735.3
564.71473	3754.9
568.7464	3733.3
572.7752	3722.6
576.80114	3693.4
580.82422	3676.8
584.84444	3674.5
588.86181	3743.9
592.87633	3810.8
596.888	3921.9
600.89682	4112.1
604.9028	4368.8
608.90594	4824
612.90624	5290.7
616.90371	5240.4
620.89834	4631.4
624.89015	4132.9
628.87913	3841.5
632.86528	3634.4
636.84862	3524.6
640.82913	3438.4
644.80683	3353.7
648.78172	3311.6
652.75379	3295.6
656.72306	3333.4
660.68952	3358.9
664.65319	3360.5
668.61405	3320.9
672.57211	3317.5
676.52738	3336.9
680.47986	3361.5
684.42955	3366
688.37646	3364
692.32058	3349.6
696.26192	3362.5
700.20048	3363.3
704.13626	3367.6
708.06928	3385.5
711.99952	3405.7
715.927	3423.5
719.85171	3432.3
723.77365	3434.6
727.69284	3436.9
731.60928	3445.1
735.52295	3434.1
739.43388	3436.7
743.34206	3429.2
747.24749	3449.3
751.15017	3458
755.05012	3465.9
758.94733	3504.3
762.8418	3572.6
766.73354	3705.1
770.62254	3887.1
774.50882	3975.9
778.39237	3906.3
782.27321	3732
786.15132	3586.4
790.02671	3496.4
793.89938	3447.4
797.76935	3437.3
801.6366	3424.3
805.50115	3412
809.36299	3414.2
813.22213	3376.6
817.07857	3378.7
820.93231	3369.5
824.78336	3360.1
828.63172	3372.7
832.47738	3366.1
836.32036	3388.2
840.16066	3400.8
843.99827	3425.9
847.8332	3440.4
851.66546	3440.6
855.49504	3460.2
859.32195	3464.3
863.1462	3483.4
866.96777	3493.1
870.78668	3537.1
874.60293	3567.2
878.41652	3598.2
882.22745	3655.6
886.03573	3725.6
889.84136	3822.1
893.64433	3900.3
897.44466	4031.7
901.24235	4139.2
905.0374	4280.1
908.8298	4453.5
912.61957	4628.3
916.40671	4803.7
920.19121	4968.4
923.97308	5102.4
927.75233	5161.2
931.52895	5128.6
935.30295	4980.5
939.07433	4777.5
942.84309	4550.2
946.60924	4346.4
950.37278	4185
954.13371	4032.4
957.89203	3903
961.64774	3778.6
965.40086	3701.6
969.15137	3590.5
972.89929	3524.3
976.64461	3464.7
980.38733	3434.7
984.12747	3406.7
987.86502	3395.5
991.59999	3395.4
995.33237	3408.7
999.06217	3440.4
1002.78939	3459.8
1006.51404	3488.8
1010.23611	3507.5
1013.95561	3514.4
1017.67255	3496.2
1021.38692	3459.5
1025.09872	3452.4
1028.80796	3425.5
1032.51465	3442
1036.21877	3472.9
1039.92035	3541.1
1043.61937	3607.3
1047.31584	3690
1051.00976	3733.2
1054.70114	3796.2
1058.38998	3845.3
1062.07627	3896.4
1065.76003	3908
1069.44126	3922.3
1073.11995	3921.2
1076.79611	3932.3
1080.46974	3912.3
1084.14085	3874.8
1087.80943	3839
1091.47549	3770.7
1095.13903	3693.9
1098.80005	3623.4
1102.45857	3525.2
1106.11456	3465.8
1109.76805	3408
1113.41903	3406.2
1117.06751	3392.6
1120.71348	3391.1
1124.35696	3397.9
1127.99793	3394.8
1131.63641	3388
1135.2724	3317.2
1138.90589	3253.8
1142.5369	3176.3
1146.16542	3122.2
1149.79145	3064.7
1153.415	3037.4
1157.03607	3004
1160.65467	3013.5
1164.27079	3039.3
1167.88443	3089.4
1171.49561	3185.8
1175.10432	3337.3
1178.71056	3558.5
1182.31434	3805.9
1185.91565	3967.7
1189.51451	4047.5
1193.11091	4026.5
1196.70485	3916.5
1200.29634	3757
1203.88538	3597.6
1207.47197	3453.5
1211.05612	3312.6
1214.63782	3211.8
1218.21708	3175.5
1221.79391	3165.2
1225.36829	3169.4
1228.94024	3189.9
1232.50976	3188.9
1236.07685	3180.9
1239.6415	3136.4
1243.20374	3085
1246.76355	3050.3
1250.32093	3030.8
1253.8759	3031.9
1257.42845	3034.2
1260.97859	3058.9
1264.52631	3116.6
1268.07163	3153.1
1271.61453	3192
1275.15503	3241
1278.69312	3257.1
1282.22882	3284.7
1285.76211	3324.8
1289.29301	3406
1292.82151	3479.7
1296.34761	3548
1299.87133	3608.9
1303.39266	3695.9
1306.9116	3817
1310.42815	3933.3
1313.94233	3994.7
1317.45412	3925.4
1320.96354	3794.9
1324.47058	3645.7
1327.97525	3546.7
1331.47754	3481.6
1334.97747	3444.6
1338.47502	3445.3
1341.97022	3491.4
1345.46305	3563.4
1348.95352	3668.8
1352.44163	3823.9
1355.92738	4032.2
1359.41078	4297.8
1362.89183	4570
1366.37053	4607.1
1369.84688	4352.3
1373.32088	3985
1376.79254	3732
1380.26186	3589.8
1383.72883	3512.4
1387.19347	3497.3
1390.65578	3469.1
1394.11575	3418.1
1397.57339	3371.2
1401.0287	3355.7
1404.48168	3325.6
1407.93234	3316.7
1411.38068	3279.6
1414.82669	3253.2
1418.27039	3209.8
1421.71177	3170
1425.15083	3117.7
1428.58758	3050.6
1432.02203	3017
1435.45416	3018.1
1438.88399	3010.7
1442.31151	3026.8
1445.73673	3028.4
1449.15965	3034.2
1452.58027	3025.8
1455.9986	2998.3
1459.41463	2960.8
1462.82837	2950.4
1466.23982	2957
1469.64898	2960.3
1473.05586	2958.2
1476.46045	2957.7
1479.86276	2979.3
1483.26279	2981
1486.66054	2995.8
1490.05602	3017.7
1493.44922	3056.7
1496.84016	3118.5
1500.22882	3229.8
1503.61521	3410.8
1506.99934	3620.8
1510.38121	3815.4
1513.76081	3861.7
1517.13816	3742.8
1520.51324	3515.8
1523.88607	3286.4
1527.25665	3143
1530.62498	3046.9
1533.99105	3005.7
1537.35488	2962
1540.71647	2938.6
1544.07581	2921.5
1547.4329	2904.7
1550.78776	2894.7
1554.14038	2890
1557.49077	2915.1
1560.83892	2910.6
1564.18484	2931.6
1567.52853	2938.9
1570.86999	2982.1
1574.20922	3006.2
1577.54624	3052.7
1580.88103	3004.7
1584.2136	2937.8
1587.54395	2859.8
1590.87208	2814.5
1594.19801	2817.1
1597.52172	2864.1
1600.84321	2862.6
1604.16251	2832.2
1607.47959	2794.7
1610.79447	2740.2
1614.10715	2702.3
1617.41763	2660.6
1620.7259	2633.3
1624.03199	2606.2
1627.33587	2608.2
1630.63757	2601.4
1633.93707	2632.6
1637.23439	2676.6
1640.52951	2742.8
1643.82246	2861.5
1647.11321	2986.7
1650.40179	3079.3
1653.68819	3026.4
1656.97241	2849.8
1660.25446	2625.5
1663.53433	2456.1
1666.81203	2352.7
1670.08756	2291.8
1673.36092	2229.1
1676.63211	2200.3
1679.90115	2155.8
1683.16801	2146
1686.43272	2125.2
1689.69527	2111.5
1692.95567	2085.1
1696.2139	2056
1699.46999	2048.4
1702.72392	2024.1
1705.97571	2021.3
1709.22535	2031
1712.47284	2032.7
1715.71819	2022.4
1718.96139	2008.8
1722.20246	1994.4
1725.44139	1997.6
1728.67818	1989.5
1731.91284	1971.1
1735.14537	1947.2
1738.37576	1958.1
1741.60403	1939.4
1744.83017	1942.3
1748.05418	1923.4
1751.27607	1918.3
1754.49584	1907.5
1757.71349	1897.4
1760.92903	1890.4
1764.14244	1883
1767.35375	1889.1
1770.56294	1883.1
1773.77002	1871.5
1776.97499	1890.3
1780.17785	1878.4
1783.37861	1879.3
1786.57727	1872.2
1789.77382	1865.9
1792.96828	1867.3
1796.16064	1871.2
1799.3509	1852
1802.53907	1853.8
1805.72514	1849.9
1808.90913	1836.3
1812.09102	1839.2
1815.27083	1834.8
1818.44856	1836.7
1821.6242	1824.3
1824.79776	1826.7
1827.96924	1823.1
1831.13864	1834
1834.30597	1826.6
1837.47122	1819.7
1840.6344	1819.3
1843.7955	1814.4
1846.95454	1815.7
1850.11151	1798.5
1853.26642	1798.5
1856.41926	1786.2
1859.57004	1798.1
1862.71876	1783.4
1865.86542	1783.3
1869.01003	1775.2
1872.15258	1777.9
1875.29308	1766.5
1878.43152	1755.2
1881.56792	1761.2
1884.70227	1753.1
1887.83457	1749.5
1890.96482	1743.3
1894.09304	1738.3
1897.21921	1739.5
1900.34335	1729.5
1903.46544	1724
1906.58551	1729.2
1909.70353	1719.5
1912.81953	1720
1915.93349	1727.3
1919.04543	1715.1
1922.15534	1710
1925.26322	1700.6
1928.36908	1701.6
1931.47292	1692.7
1934.57473	1684.4
1937.67453	1682.7
1940.77232	1674.6
1943.86808	1677.1
1946.96184	1652.7
1950.05358	1667.8
1953.14331	1657.1
1956.23103	1651.3
1959.31675	1647.1
1962.40046	1639.1
1965.48217	1639.7
1968.56188	1626.7
1971.63959	1624.2
1974.7153	1628.2
1977.78901	1612.2
1980.86073	1608.4
1983.93046	1610.6
1986.99819	1598.1
1990.06394	1588.8
1993.1277	1587.6
1996.18947	1580.4
1999.24925	1575.3
2002.30706	1570.6
2005.36288	1557.7
2008.41672	1569
2011.46859	1562.3
2014.51848	1550.3
2017.56639	1543.9
2020.61233	1542.8
2023.6563	1535.4
2026.6983	1533.4
2029.73833	1527.4
2032.7764	1520.7
2035.8125	1515.7
2038.84664	1510
2041.87881	1515.5
2044.90903	1512.7
2047.93729	1500.5
2050.96359	1499.9
2053.98794	1490.5
2057.01034	1489
2060.03078	1494.3
2063.04927	1489.8
2066.06582	1494.9
2069.08042	1489.3
2072.09307	1489.7
2075.10378	1483.1
2078.11255	1490.9
2081.11938	1488.4
2084.12426	1485
2087.12722	1491.7
2090.12824	1486.8
2093.12732	1486.8
2096.12447	1483.1
2099.11969	1475
2102.11299	1481.9
2105.10435	1479.5
2108.09379	1481.5
2111.08131	1472.6
2114.0669	1479.6
2117.05057	1479.6
2120.03233	1471.2
2123.01216	1472.9
2125.99008	1481.9
2128.96609	1477.6
2131.94018	1473.6
2134.91236	1478.7
2137.88263	1472.3
2140.851	1474
2143.81746	1472.2
2146.78201	1474.5
2149.74466	1470.1
2152.7054	1465.9
2155.66425	1468.7
2158.6212	1462.5
2161.57625	1464.3
2164.52941	1466.5
2167.48067	1466.1
2170.43004	1463.3
2173.37752	1458.4
2176.32311	1453.5
2179.26681	1459.5
2182.20863	1453.2
2185.14856	1449.9
2188.08661	1449.7
2191.02278	1446.3
2193.95707	1451.3
2196.88948	1442
2199.82001	1450.4
2202.74867	1439.3
2205.67545	1443.5
2208.60037	1427.4
2211.52341	1437.3
2214.44458	1433.9
2217.36388	1430.2
2220.28132	1435.7
2223.1969	1420.8
2226.11061	1423
2229.02246	1423.8
2231.93245	1407.2
2234.84058	1401.9
2237.74686	1404.5
2240.65128	1405.1
2243.55385	1402.8
2246.45456	1400.1
2249.35343	1391.2
2252.25044	1385.8
2255.14561	1391.8
2258.03893	1383.5
2260.93041	1386.1
2263.82004	1373
2266.70783	1374.2
2269.59378	1371.1
2272.4779	1365.6
2275.36017	1365.5
2278.24061	1360
2281.11922	1345.3
2283.996	1346
2286.87094	1351.7
2289.74405	1341.6
2292.61534	1338.8
2295.4848	1327.2
2298.35243	1337
2301.21824	1325.3
2304.08223	1327.6
2306.94439	1333
2309.80474	1332.9
2312.66327	1324.8
2315.51999	1313.1
2318.37489	1319
2321.22797	1322.4
2324.07925	1306.4
2326.92871	1312.6
2329.77637	1325.3
2332.62222	1311
2335.46626	1292.5
2338.3085	1296.5
2341.14893	1301.6
2343.98756	1299.4
2346.8244	1289.1
2349.65943	1292.7
2352.49267	1287.6
2355.32411	1282.1
2358.15376	1292.2
2360.98161	1284.8
2363.80768	1288.3
2366.63195	1285.5
2369.45444	1284
2372.27514	1281.9
2375.09405	1283.7
2377.91118	1277.6
2380.72652	1270.9
2383.54009	1278
2386.35187	1270.4
2389.16188	1268.6
2391.97011	1261.2
2394.77657	1253
2397.58125	1260.3
2400.38416	1254.1
2403.18529	1251.3
2405.98466	1241
2408.78226	1248.1
2411.57809	1245.7
2414.37216	1241.4
2417.16446	1229.9
2419.955	1240.9
2422.74378	1232.2
2425.5308	1221.9
2428.31606	1231.5
2431.09956	1223.3
2433.88131	1227.5
2436.6613	1216.9
2439.43954	1221
2442.21603	1214.9
2444.99077	1213.2
2447.76377	1201
2450.53501	1209.5
2453.30451	1203.7
2456.07226	1204.7
2458.83827	1200.2
2461.60254	1194.9
2464.36507	1197
2467.12586	1198.2
2469.88492	1195.9
2472.64224	1189.5
2475.39782	1177.9
2478.15167	1191.1
2480.90379	1182.8
2483.65417	1181.8
2486.40283	1189.1
2489.14976	1178.9
2491.89497	1176.1
2494.63845	1179.8
2497.3802	1176.5
2500.12024	1171.9
2502.85855	1171.9
2505.59514	1177.6
2508.33002	1171.3
2511.06318	1165.6
2513.79462	1160.4
2516.52435	1164
2519.25237	1155.4
2521.97867	1160.2
2524.70327	1170.1
2527.42616	1154
2530.14734	1145.6
2532.86681	1153
2535.58458	1148.4
2538.30065	1143.4
2541.01501	1135
2543.72768	1145
2546.43864	1135.5
2549.14791	1137.9
2551.85548	1136.8
2554.56136	1132.9
2557.26554	1125.8
2559.96803	1131.1
2562.66883	1129.3
2565.36794	1126.4
2568.06536	1122.2
2570.7611	1123
2573.45514	1117.9
2576.14751	1110.2
2578.83819	1107.7
2581.52719	1109.2
2584.21451	1109.4
2586.90015	1115.3
2589.58411	1098.8
2592.2664	1100.4
2594.94701	1104.8
2597.62594	1101.9
2600.30321	1092.1
2602.9788	1090.6
2605.65273	1090.6
2608.32498	1086.8
2610.99557	1079.8
2613.66449	1085.9
2616.33175	1085.3
2618.99734	1081
2621.66128	1079.1
2624.32355	1076
2626.98416	1065.1
2629.64311	1075.5
2632.30041	1077.6
2634.95605	1072.5
2637.61004	1073.1
2640.26238	1076.3
2642.91306	1068
2645.56209	1075.5
2648.20948	1064.1
2650.85521	1072.6
2653.4993	1079.2
2656.14175	1074.6
2658.78255	1074.4
2661.42171	1075.2
2664.05923	1075.2
2666.6951	1074.1
2669.32934	1069.3
2671.96194	1071.1
2674.59291	1075.6
2677.22224	1074.9
2679.84993	1073.5
2682.476	1073.2
2685.10043	1064.8
2687.72324	1073.6
2690.34441	1073.7
2692.96396	1068.1
2695.58188	1082.1
2698.19818	1070.5
2700.81285	1080
2703.4259	1075.2
2706.03733	1058.5
2708.64714	1065.9
2711.25533	1074.1
2713.86191	1072.9
2716.46687	1072.2
2719.07021	1073.6
2721.67194	1081.1
2724.27206	1074.4
2726.87057	1072.3
2729.46747	1081.1
2732.06276	1082.7
2734.65644	1080.8
2737.24852	1089.4
2739.83899	1080.1
2742.42786	1082.7
2745.01513	1087.6
2747.60079	1087.6
2750.18486	1097.3
2752.76733	1098.7
2755.3482	1089.9
2757.92747	1092.5
2760.50515	1097.6
2763.08123	1094.7
2765.65573	1100
2768.22863	1103
2770.79994	1105.9
2773.36967	1105.7
2775.9378	1108.6
2778.50435	1097.1
2781.06932	1095
2783.6327	1102.6
2786.1945	1095.4
2788.75471	1097.5
2791.31335	1099.5
2793.87041	1100.1
2796.42589	1099.3
2798.97979	1100.8
2801.53212	1103.7
2804.08288	1107.9
2806.63206	1107.3
2809.17967	1093.6
2811.72571	1102.2
2814.27018	1091.1
2816.81308	1096.5
2819.35442	1106.6
2821.89419	1094.1
2824.43239	1098.2
2826.96904	1094.1
2829.50412	1090.2
2832.03763	1094.8
2834.56959	1097.1
2837.1	1101.6
2839.62884	1107.3
2842.15613	1107.7
2844.68186	1125.5
2847.20604	1133.5
2849.72867	1148.7
2852.24974	1169.3
2854.76927	1182.4
2857.28724	1208.1
2859.80367	1221.9
2862.31855	1255.2
2864.83189	1284.9
2867.34368	1309.5
2869.85393	1339.9
2872.36264	1364.7
2874.8698	1386.1
2877.37543	1408
2879.87952	1486.2
2882.38207	1492.9
2884.88308	1495.9
2887.38256	1519.3
2889.88051	1522.9
2892.37692	1554.1
2894.8718	1571.6
2897.36515	1588.7
2899.85698	1600.5
2902.34727	1609.1
2904.83604	1608.4
2907.32328	1613.4
2909.809	1613.2
2912.29319	1597.7
2914.77587	1593.7
2917.25702	1594.3
2919.73665	1600.7
2922.21476	1595.5
2924.69136	1602.8
2927.16644	1599
2929.64	1594.9
2932.11205	1574.1
2934.58258	1571.8
2937.05161	1549.7
2939.51912	1537.8
2941.98513	1526.9
2944.44962	1496.6
2946.91261	1477.3
2949.37409	1451.8
2951.83407	1434.9
2954.29254	1409.4
2956.74951	1390.9
2959.20498	1376.4
2961.65895	1361.8
2964.11142	1346.1
2966.56239	1336.5
2969.01186	1320.3
2971.45984	1305
2973.90632	1290.5
2976.35131	1271.2
2978.7948	1256.6
2981.23681	1235.2
2983.67732	1222.6
2986.11635	1204.7
2988.55388	1185.7
2990.98993	1168.9
2993.4245	1160.5
2995.85758	1153.2
2998.28917	1136.4
3000.71928	1134.2
3003.14791	1123.6
3005.57506	1115.9
3008.00073	1118.5
3010.42493	1104.2
3012.84764	1105.9
3015.26888	1103.3
3017.68865	1097.1
3020.10694	1105.7
3022.52376	1097.2
3024.9391	1094.1
3027.35298	1092.9
3029.76539	1096
3032.17632	1090.8
3034.5858	1094
3036.9938	1090.7
3039.40034	1086.5
3041.80542	1094.2
3044.20903	1090.9
3046.61118	1080.8
3049.01187	1091.3
3051.4111	1084
3053.80888	1088.5
3056.20519	1086.7
3058.60005	1096.5
3060.99345	1095.4
3063.3854	1091.5
3065.7759	1092.4
3068.16494	1095.6
3070.55254	1100.6
3072.93868	1109.2
3075.32338	1098.8
3077.70662	1115.3
3080.08842	1115.1
3082.46878	1122.8
3084.84769	1129.7
3087.22515	1124.6
3089.60118	1134.8
3091.97576	1150.7
3094.3489	1153.7
3096.72061	1156.3
3099.09087	1159.6
3101.4597	1166.8
3103.82709	1181.9
3106.19305	1177.5
3108.55757	1185.8
3110.92066	1192.1
3113.28232	1193.5
3115.64255	1201.7
3118.00134	1203.3
3120.35871	1214.8
3122.71466	1217.9
3125.06917	1224.5
3127.42226	1227.1
3129.77393	1235.7
3132.12417	1247.5
3134.47299	1255.1
3136.82039	1252.4
3139.16636	1269.5
3141.51092	1288.5
3143.85406	1291.8
3146.19579	1297.8
3148.53609	1309.2
3150.87499	1321
3153.21246	1334.2
3155.54853	1349.4
3157.88318	1336.9
3160.21642	1354.7
3162.54826	1361.4
3164.87868	1366.4
3167.2077	1368.9
3169.5353	1381.8
3171.86151	1384.5
3174.18631	1400.5
3176.5097	1407.6
3178.83169	1398.6
3181.15228	1411.5
3183.47147	1416.8
3185.78926	1420.2
3188.10565	1434
3190.42065	1437.5
3192.73424	1449.9
3195.04645	1457.6
3197.35725	1456.3
3199.66667	1463.1
3201.97469	1468.9
3204.28132	1477.2
3206.58656	1490.7
3208.8904	1484.3
3211.19287	1503.1
3213.49394	1497.1
3215.79363	1512.2
3218.09193	1520.4
3220.38884	1519.6
3222.68438	1514.4
3224.97853	1534.6
3227.2713	1525.5
3229.56269	1532.6
3231.8527	1533.4
3234.14133	1538.9
3236.42858	1533.2
3238.71446	1543.7
3240.99896	1545.1
3243.28209	1547.5
3245.56384	1542.8
3247.84423	1551
3250.12324	1561.3
3252.40088	1555.2
3254.67715	1557.6
3256.95205	1554.8
3259.22558	1559
3261.49775	1563.6
3263.76855	1563.2
3266.03799	1564.9
3268.30606	1566.9
3270.57277	1568.3
3272.83812	1558.9
3275.10211	1557.6
3277.36474	1555.8
3279.62601	1549.2
3281.88593	1544.2
3284.14448	1546.7
3286.40168	1549
3288.65753	1546.3
3290.91202	1543.8
3293.16516	1526.1
3295.41695	1528.1
3297.66738	1522.9
3299.91647	1528.6
3302.16421	1513.8
3304.4106	1501.1
3306.65564	1501.7
3308.89933	1491.9
3311.14169	1488.3
3313.38269	1461.4
3315.62236	1452.7
3317.86068	1450
3320.09766	1438.4
3322.3333	1424.7
3324.5676	1433.2
3326.80056	1400
3329.03219	1396.2
3331.26248	1.7
3333.49143	-1
3335.71905	0.4
