Data from AgNP_FTO_APTES_CRN_0uM_R6G_10uM_NaF_0.1M_Addition_RamanShift__32__12-07-02-935.txt Node

Date: Wed Dec 15 12:07:02 GMT 2021
User: TCL
Spectrometer: QEP01345
Trigger mode: 4
Integration Time (sec): 7.000000E0
Scans to average: 10
Electric dark correction enabled: true
Nonlinearity correction enabled: false
Boxcar width: 0
XAxis mode: Raman Shifts
Number of Pixels in Spectrum: 1044
>>>>>Begin Spectral Data<<<<<
46.04893	1.6
50.45542	-2.1
54.85868	-0.3
59.25871	-0.3
63.6555	66.3
68.04907	72.5
72.43941	74.1
76.82654	82.7
81.21044	86.8
85.59113	95.2
89.96862	100.7
94.34289	100.2
98.71396	107
103.08183	116.6
107.4465	114
111.80798	111.5
116.16626	108.5
120.52136	114.3
124.87327	106.9
129.222	113.5
133.56755	110.2
137.90993	114.5
142.24913	116.7
146.58517	115.8
150.91804	123.8
155.24774	127.6
159.57429	151.1
163.89768	168.3
168.21792	198.2
172.53501	239.8
176.84895	314.4
181.15975	409.9
185.46741	538
189.77193	722.1
194.07331	941.1
198.37157	1193.5
202.6667	1461.2
206.9587	1715.5
211.24758	1978.4
215.53334	2233.7
219.81599	2502.4
224.09553	2811
228.37195	3147.2
232.64527	3525.1
236.91549	3911.1
241.18261	4258.6
245.44663	4548.9
249.70755	4813.9
253.96539	5017.5
258.22014	5173.5
262.4718	5304.1
266.72039	5388
270.96589	5422.2
275.20832	5369.1
279.44768	5296.2
283.68397	5172.6
287.91719	5073.5
292.14735	5053.1
296.37445	5065.5
300.59849	5210
304.81948	5384.8
309.03742	5493
313.25231	5467.5
317.46415	5268.3
321.67296	4951.6
325.87872	4712.8
330.08145	4581.3
334.28114	4571.7
338.47781	4618.6
342.67145	4720.4
346.86207	4862.4
351.04966	5093
355.23424	5365.4
359.4158	5588.4
363.59435	5715.6
367.76989	5801.8
371.94243	5809.9
376.11196	5813.8
380.27849	5783.4
384.44203	5754.6
388.60257	5702
392.76012	5641.5
396.91468	5639.7
401.06626	5762.4
405.21485	5826.7
409.36047	5739.1
413.50311	5488.9
417.64277	5249.3
421.77947	5123.5
425.9132	5075.3
430.04396	5097.2
434.17176	5142.8
438.2966	5240.6
442.41849	5417.1
446.53742	5633.8
450.6534	5815.6
454.76644	5898.4
458.87653	5860.2
462.98368	5775.6
467.08789	5653.6
471.18916	5511.9
475.2875	5360.7
479.38291	5262.4
483.4754	5185.2
487.56496	5117.7
491.6516	5048.5
495.73531	5034
499.81612	5043.8
503.89401	5103.5
507.96899	5171.2
512.04106	5307.1
516.11023	5444.1
520.1765	5577.9
524.23987	5610.9
528.30034	5553
532.35792	5445.7
536.41261	5333.9
540.46441	5193.5
544.51333	5088.1
548.55936	5092.6
552.60252	5162
556.64279	5300.3
560.6802	5343.1
564.71473	5374.2
568.7464	5486.5
572.7752	5525.8
576.80114	5372.1
580.82422	5177.1
584.84444	5137.3
588.86181	5256.3
592.87633	5457.2
596.888	5625.3
600.89682	5712.3
604.9028	6058.5
608.90594	7309.1
612.90624	9079.4
616.90371	8820.4
620.89834	6434.6
624.89015	5232.8
628.87913	4964.5
632.86528	4907.1
636.84862	4949.2
640.82913	4892.8
644.80683	4759
648.78172	4642.9
652.75379	4690.5
656.72306	4891.6
660.68952	5117.3
664.65319	5063.5
668.61405	4791.3
672.57211	4684.7
676.52738	4661
680.47986	4672
684.42955	4651
688.37646	4645
692.32058	4664
696.26192	4734.8
700.20048	4802.1
704.13626	4896.3
708.06928	4903.7
711.99952	4856
715.927	4807.4
719.85171	4832.9
723.77365	4807.7
727.69284	4759.9
731.60928	4711.7
735.52295	4727
739.43388	4762.1
743.34206	4784.3
747.24749	4813.4
751.15017	4820.6
755.05012	4863.2
758.94733	5041.7
762.8418	5454.5
766.73354	6201
770.62254	7121
774.50882	7729.9
778.39237	7484.3
782.27321	6563.4
786.15132	5638.3
790.02671	5101.1
793.89938	4863.2
797.76935	4730.8
801.6366	4668.1
805.50115	4641.3
809.36299	4584.2
813.22213	4567.1
817.07857	4568.1
820.93231	4552.3
824.78336	4570.3
828.63172	4588.4
832.47738	4623.1
836.32036	4636
840.16066	4609.7
843.99827	4605.3
847.8332	4593
851.66546	4587.3
855.49504	4577.1
859.32195	4552.7
863.1462	4522.6
866.96777	4490.2
870.78668	4459.2
874.60293	4459.9
878.41652	4466.5
882.22745	4485.7
886.03573	4507.8
889.84136	4520.8
893.64433	4531.3
897.44466	4524.3
901.24235	4570
905.0374	4597.8
908.8298	4595.9
912.61957	4638.8
916.40671	4711.4
920.19121	4789.9
923.97308	4850.6
927.75233	4916.6
931.52895	4951.3
935.30295	4924.2
939.07433	4801.7
942.84309	4669.2
946.60924	4571.1
950.37278	4514.6
954.13371	4457.5
957.89203	4434.9
961.64774	4388.5
965.40086	4333.6
969.15137	4341
972.89929	4326
976.64461	4313.4
980.38733	4304.3
984.12747	4298.9
987.86502	4328.8
991.59999	4349.9
995.33237	4380.8
999.06217	4461.1
1002.78939	4550
1006.51404	4631
1010.23611	4688.3
1013.95561	4725.8
1017.67255	4685.5
1021.38692	4608.2
1025.09872	4510
1028.80796	4460.6
1032.51465	4476.9
1036.21877	4552.7
1039.92035	4681.4
1043.61937	4727.2
1047.31584	4753.9
1051.00976	4736.2
1054.70114	4716.6
1058.38998	4691.4
1062.07627	4686.6
1065.76003	4726.9
1069.44126	4769.8
1073.11995	4895.8
1076.79611	5020
1080.46974	5100.4
1084.14085	5119.4
1087.80943	5091.1
1091.47549	5010.4
1095.13903	4839.1
1098.80005	4627.3
1102.45857	4451
1106.11456	4386.6
1109.76805	4404
1113.41903	4491.3
1117.06751	4626.4
1120.71348	4789
1124.35696	4953.7
1127.99793	5108.4
1131.63641	5130.2
1135.2724	4904.1
1138.90589	4657.6
1142.5369	4501.7
1146.16542	4387.4
1149.79145	4331.3
1153.415	4301
1157.03607	4343.8
1160.65467	4448.3
1164.27079	4610.7
1167.88443	4917.9
1171.49561	5373.1
1175.10432	6105.8
1178.71056	7081.4
1182.31434	7872
1185.91565	8062.6
1189.51451	7835
1193.11091	7323
1196.70485	6726.6
1200.29634	6171.9
1203.88538	5728.4
1207.47197	5282.8
1211.05612	4945.7
1214.63782	4784
1218.21708	4796
1221.79391	4848.4
1225.36829	4884.5
1228.94024	4873.6
1232.50976	4798.5
1236.07685	4746
1239.6415	4721.3
1243.20374	4703
1246.76355	4697.4
1250.32093	4736.6
1253.8759	4805.9
1257.42845	4953
1260.97859	5102.4
1264.52631	5290.1
1268.07163	5493.5
1271.61453	5622
1275.15503	5740.6
1278.69312	5796.3
1282.22882	5841.7
1285.76211	5989
1289.29301	6260.4
1292.82151	6520.7
1296.34761	6826.6
1299.87133	7164.6
1303.39266	7677.4
1306.9116	8472
1310.42815	9425.4
1313.94233	10035
1317.45412	9872.3
1320.96354	9092.2
1324.47058	8186.4
1327.97525	7418.7
1331.47754	6950.8
1334.97747	6818.7
1338.47502	6868.4
1341.97022	6976.7
1345.46305	7203.7
1348.95352	7704.8
1352.44163	8556.3
1355.92738	9709.8
1359.41078	11186.7
1362.89183	12592.2
1366.37053	12602.6
1369.84688	10915.7
1373.32088	8984.9
1376.79254	7628.3
1380.26186	6901.8
1383.72883	6482.3
1387.19347	6197.3
1390.65578	5906.7
1394.11575	5680
1397.57339	5543.2
1401.0287	5501.8
1404.48168	5521.1
1407.93234	5519.8
1411.38068	5506.5
1414.82669	5466.2
1418.27039	5379.7
1421.71177	5309
1425.15083	5242.5
1428.58758	5224.1
1432.02203	5265.6
1435.45416	5379.6
1438.88399	5431.7
1442.31151	5444.9
1445.73673	5430.5
1449.15965	5392.9
1452.58027	5314.3
1455.9986	5193
1459.41463	5115.1
1462.82837	5153.6
1466.23982	5258.4
1469.64898	5387.2
1473.05586	5484.2
1476.46045	5535.5
1479.86276	5594.5
1483.26279	5623.3
1486.66054	5703.9
1490.05602	5797
1493.44922	5939.3
1496.84016	6213
1500.22882	6749.7
1503.61521	7560.7
1506.99934	8540
1510.38121	9524.4
1513.76081	10038.2
1517.13816	9639.3
1520.51324	8495.4
1523.88607	7282.2
1527.25665	6468.1
1530.62498	6058.1
1533.99105	5866.6
1537.35488	5731.6
1540.71647	5623
1544.07581	5535.4
1547.4329	5496.2
1550.78776	5413.1
1554.14038	5388.6
1557.49077	5358
1560.83892	5418.7
1564.18484	5555.7
1567.52853	5780.3
1570.86999	6079.3
1574.20922	6436.4
1577.54624	6647.9
1580.88103	6490.2
1584.2136	6020.6
1587.54395	5594.1
1590.87208	5493
1594.19801	5679.9
1597.52172	6132.5
1600.84321	6390.7
1604.16251	6224.5
1607.47959	5769.5
1610.79447	5216.1
1614.10715	4727.4
1617.41763	4352.1
1620.7259	4145.6
1624.03199	4050.9
1627.33587	4039.5
1630.63757	4089.1
1633.93707	4290.6
1637.23439	4618.8
1640.52951	5152.1
1643.82246	5914.8
1647.11321	6731.8
1650.40179	7256.4
1653.68819	7072.8
1656.97241	6097.6
1660.25446	4996.3
1663.53433	4222.6
1666.81203	3783.9
1670.08756	3534.2
1673.36092	3364.2
1676.63211	3280.7
1679.90115	3217.9
1683.16801	3160.7
1686.43272	3105.9
1689.69527	3111.5
1692.95567	3066.2
1696.2139	3035.7
1699.46999	3018.4
1702.72392	2997.5
1705.97571	2994.8
1709.22535	2987.2
1712.47284	2979.2
1715.71819	2979.3
1718.96139	2974.3
1722.20246	2973.6
1725.44139	2940.7
1728.67818	2919.3
1731.91284	2884.3
1735.14537	2855.6
1738.37576	2826.4
1741.60403	2809.2
1744.83017	2791.4
1748.05418	2765.7
1751.27607	2765.8
1754.49584	2749.6
1757.71349	2724.6
1760.92903	2725.9
1764.14244	2719
1767.35375	2705.5
1770.56294	2691.8
1773.77002	2695.7
1776.97499	2693.7
1780.17785	2678.9
1783.37861	2671
1786.57727	2664.6
1789.77382	2655.2
1792.96828	2652.2
1796.16064	2647.8
1799.3509	2637.3
1802.53907	2627.1
1805.72514	2628.4
1808.90913	2596.6
1812.09102	2605.1
1815.27083	2588.6
1818.44856	2571.3
1821.6242	2575.4
1824.79776	2564.7
1827.96924	2567
1831.13864	2557.1
1834.30597	2553.1
1837.47122	2553.4
1840.6344	2546.8
1843.7955	2539.4
1846.95454	2544.2
1850.11151	2527.5
1853.26642	2522.2
1856.41926	2524.1
1859.57004	2509.1
1862.71876	2515.6
1865.86542	2503.6
1869.01003	2507.1
1872.15258	2512.1
1875.29308	2504.3
1878.43152	2499.6
1881.56792	2498.6
1884.70227	2492
1887.83457	2508.8
1890.96482	2493
1894.09304	2495.6
1897.21921	2497.6
1900.34335	2492.5
1903.46544	2507.7
1906.58551	2508.1
1909.70353	2488.4
1912.81953	2495.1
1915.93349	2492.2
1919.04543	2476.9
1922.15534	2484.8
1925.26322	2466.7
1928.36908	2454.9
1931.47292	2447.5
1934.57473	2437.3
1937.67453	2438.6
1940.77232	2407.6
1943.86808	2400.8
1946.96184	2389
1950.05358	2371.1
1953.14331	2360.9
1956.23103	2352.3
1959.31675	2352.5
1962.40046	2350.2
1965.48217	2335.4
1968.56188	2319.7
1971.63959	2327.4
1974.7153	2310.5
1977.78901	2309.1
1980.86073	2304.9
1983.93046	2289.5
1986.99819	2288.8
1990.06394	2263.2
1993.1277	2276.7
1996.18947	2256
1999.24925	2244.1
2002.30706	2235.5
2005.36288	2224.7
2008.41672	2216.9
2011.46859	2219
2014.51848	2219.9
2017.56639	2204.3
2020.61233	2197.8
2023.6563	2187.9
2026.6983	2178.4
2029.73833	2185.8
2032.7764	2176.3
2035.8125	2165.5
2038.84664	2161.4
2041.87881	2160.5
2044.90903	2150.3
2047.93729	2143.5
2050.96359	2147.7
2053.98794	2133.3
2057.01034	2136.1
2060.03078	2134.9
2063.04927	2125.6
2066.06582	2123.8
2069.08042	2124.1
2072.09307	2115.9
2075.10378	2124.1
2078.11255	2116.6
2081.11938	2120.8
2084.12426	2111.2
2087.12722	2106.4
2090.12824	2105.8
2093.12732	2102.9
2096.12447	2114.2
2099.11969	2100.5
2102.11299	2116.5
2105.10435	2101.8
2108.09379	2114.6
2111.08131	2111.4
2114.0669	2107.5
2117.05057	2100
2120.03233	2103.7
2123.01216	2105.4
2125.99008	2113.4
2128.96609	2118
2131.94018	2108.5
2134.91236	2103.7
2137.88263	2112.3
2140.851	2112.1
2143.81746	2110.3
2146.78201	2104.4
2149.74466	2102.1
2152.7054	2096.1
2155.66425	2101.4
2158.6212	2094.4
2161.57625	2095.9
2164.52941	2088.6
2167.48067	2086.4
2170.43004	2088.2
2173.37752	2080.4
2176.32311	2087.8
2179.26681	2086
2182.20863	2081.8
2185.14856	2095.9
2188.08661	2089.6
2191.02278	2084.5
2193.95707	2081.9
2196.88948	2083.3
2199.82001	2074.6
2202.74867	2084.8
2205.67545	2068.6
2208.60037	2050.3
2211.52341	2051.4
2214.44458	2056.7
2217.36388	2044.6
2220.28132	2031.6
2223.1969	2033
2226.11061	2028
2229.02246	2023.9
2231.93245	2016.8
2234.84058	2004.3
2237.74686	2005.1
2240.65128	2009.3
2243.55385	1999.3
2246.45456	2005.9
2249.35343	2004.6
2252.25044	1991.7
2255.14561	1989.6
2258.03893	2001.3
2260.93041	1990.2
2263.82004	1988.7
2266.70783	1983.2
2269.59378	1973
2272.4779	1967.3
2275.36017	1959.9
2278.24061	1967.5
2281.11922	1953.9
2283.996	1945.6
2286.87094	1948.4
2289.74405	1942.9
2292.61534	1926.7
2295.4848	1915.4
2298.35243	1914.6
2301.21824	1915.7
2304.08223	1917
2306.94439	1913.2
2309.80474	1915
2312.66327	1907.8
2315.51999	1899.3
2318.37489	1903.9
2321.22797	1893.1
2324.07925	1903.6
2326.92871	1893
2329.77637	1889.1
2332.62222	1886.1
2335.46626	1882.7
2338.3085	1876.4
2341.14893	1881.9
2343.98756	1882.7
2346.8244	1864.9
2349.65943	1875
2352.49267	1869.1
2355.32411	1883.9
2358.15376	1877.5
2360.98161	1875.2
2363.80768	1879.2
2366.63195	1898.9
2369.45444	1887.7
2372.27514	1892.9
2375.09405	1889.9
2377.91118	1879.1
2380.72652	1876.1
2383.54009	1861.7
2386.35187	1844.3
2389.16188	1838.8
2391.97011	1837.8
2394.77657	1832.9
2397.58125	1825.3
2400.38416	1822.7
2403.18529	1818.4
2405.98466	1816.8
2408.78226	1801.9
2411.57809	1812.4
2414.37216	1791.5
2417.16446	1797.3
2419.955	1800.2
2422.74378	1797.6
2425.5308	1795.1
2428.31606	1793.9
2431.09956	1787.6
2433.88131	1780.2
2436.6613	1789.7
2439.43954	1786.8
2442.21603	1783.7
2444.99077	1784.4
2447.76377	1785
2450.53501	1781.6
2453.30451	1786.8
2456.07226	1780.4
2458.83827	1780.9
2461.60254	1771.5
2464.36507	1775.4
2467.12586	1779.9
2469.88492	1777.7
2472.64224	1777.3
2475.39782	1762.7
2478.15167	1771.4
2480.90379	1784.4
2483.65417	1776.7
2486.40283	1781.6
2489.14976	1786.2
2491.89497	1788.6
2494.63845	1779.7
2497.3802	1780.7
2500.12024	1780.7
2502.85855	1773
2505.59514	1768.7
2508.33002	1776.9
2511.06318	1751.4
2513.79462	1747.8
2516.52435	1741.5
2519.25237	1735.9
2521.97867	1728
2524.70327	1726.1
2527.42616	1736.6
2530.14734	1729.8
2532.86681	1723.1
2535.58458	1726.5
2538.30065	1726.1
2541.01501	1720.1
2543.72768	1730.2
2546.43864	1714.6
2549.14791	1721.3
2551.85548	1717.5
2554.56136	1711.9
2557.26554	1715.1
2559.96803	1718.7
2562.66883	1720.6
2565.36794	1712.5
2568.06536	1708
2570.7611	1698.9
2573.45514	1708.1
2576.14751	1704.4
2578.83819	1699
2581.52719	1697.9
2584.21451	1693.1
2586.90015	1688.9
2589.58411	1686.3
2592.2664	1682
2594.94701	1691.8
2597.62594	1683.1
2600.30321	1680.7
2602.9788	1675.6
2605.65273	1687.7
2608.32498	1681.5
2610.99557	1671
2613.66449	1674.6
2616.33175	1686.6
2618.99734	1679
2621.66128	1679.4
2624.32355	1674
2626.98416	1674.3
2629.64311	1674
2632.30041	1660.4
2634.95605	1671.3
2637.61004	1660.8
2640.26238	1662.4
2642.91306	1665.6
2645.56209	1668.7
2648.20948	1662.3
2650.85521	1678.4
2653.4993	1679.9
2656.14175	1680.7
2658.78255	1683.6
2661.42171	1695
2664.05923	1692
2666.6951	1703.3
2669.32934	1702.7
2671.96194	1697.8
2674.59291	1713.7
2677.22224	1695.8
2679.84993	1701.3
2682.476	1713.2
2685.10043	1700.8
2687.72324	1709.6
2690.34441	1713
2692.96396	1719.5
2695.58188	1720.5
2698.19818	1720.1
2700.81285	1731.7
2703.4259	1746.5
2706.03733	1734.8
2708.64714	1745.9
2711.25533	1767.2
2713.86191	1769.7
2716.46687	1776.9
2719.07021	1787
2721.67194	1793.5
2724.27206	1797.9
2726.87057	1810.1
2729.46747	1820.2
2732.06276	1834.7
2734.65644	1839.5
2737.24852	1864.7
2739.83899	1861
2742.42786	1871.2
2745.01513	1882.2
2747.60079	1885.7
2750.18486	1900.5
2752.76733	1912
2755.3482	1924.6
2757.92747	1945.2
2760.50515	1958.9
2763.08123	1966.4
2765.65573	1969.9
2768.22863	1988.1
2770.79994	1993.5
2773.36967	2005.9
2775.9378	2026.4
2778.50435	2026.7
2781.06932	2050.1
2783.6327	2067.5
2786.1945	2075.5
2788.75471	2105
2791.31335	2116.4
2793.87041	2135.8
2796.42589	2148
2798.97979	2171.7
2801.53212	2185.9
2804.08288	2210.3
2806.63206	2238.8
2809.17967	2248.5
2811.72571	2268.3
2814.27018	2289.3
2816.81308	2298.8
2819.35442	2311
2821.89419	2318.2
2824.43239	2324.5
2826.96904	2336.5
2829.50412	2327.9
2832.03763	2334.1
2834.56959	2340.3
2837.1	2359.3
2839.62884	2388.8
2842.15613	2421.6
2844.68186	2482.8
2847.20604	2551.8
2849.72867	2613.2
2852.24974	2634.2
2854.76927	2668
2857.28724	2662.5
2859.80367	2659.9
2862.31855	2649.6
2864.83189	2637.7
2867.34368	2626.5
2869.85393	2629.8
2872.36264	2616.2
2874.8698	2604.9
2877.37543	2598
2879.87952	2595.3
2882.38207	2596.1
2884.88308	2574.6
2887.38256	2586.1
2889.88051	2568
2892.37692	2569.2
2894.8718	2566.3
2897.36515	2554.7
2899.85698	2551.9
2902.34727	2549.9
2904.83604	2527.2
2907.32328	2530.7
2909.809	2523.8
2912.29319	2521.7
2914.77587	2510.7
2917.25702	2504.2
2919.73665	2494.4
2922.21476	2501.2
2924.69136	2480.6
2927.16644	2477.2
2929.64	2460.7
2932.11205	2435.8
2934.58258	2409
2937.05161	2376
2939.51912	2334.8
2941.98513	2293.5
2944.44962	2228.6
2946.91261	2155.7
2949.37409	2104.2
2951.83407	2045.4
2954.29254	2017.3
2956.74951	1972.8
2959.20498	1939.3
2961.65895	1901.3
2964.11142	1872.9
2966.56239	1852.8
2969.01186	1820.9
2971.45984	1795.3
2973.90632	1772
2976.35131	1743.3
2978.7948	1726.7
2981.23681	1717
2983.67732	1689.7
2986.11635	1665.8
2988.55388	1651.3
2990.98993	1652
2993.4245	1627.7
2995.85758	1618.7
2998.28917	1605.5
3000.71928	1602.3
3003.14791	1588.4
3005.57506	1575.4
3008.00073	1576.2
3010.42493	1577.7
3012.84764	1571.1
3015.26888	1567.7
3017.68865	1562.3
3020.10694	1568.5
3022.52376	1560.8
3024.9391	1552
3027.35298	1558.2
3029.76539	1555.5
3032.17632	1556.3
3034.5858	1543.7
3036.9938	1553.7
3039.40034	1543.9
3041.80542	1544
3044.20903	1539
3046.61118	1538.4
3049.01187	1545.4
3051.4111	1534.9
3053.80888	1538.5
3056.20519	1538.5
3058.60005	1540.1
3060.99345	1542.8
3063.3854	1543.1
3065.7759	1546.7
3068.16494	1545.8
3070.55254	1554
3072.93868	1557.9
3075.32338	1548.6
3077.70662	1538.3
3080.08842	1539.8
3082.46878	1545.7
3084.84769	1544.2
3087.22515	1538.8
3089.60118	1542.1
3091.97576	1539.3
3094.3489	1541.7
3096.72061	1548
3099.09087	1563.4
3101.4597	1546.6
3103.82709	1552.8
3106.19305	1559.7
3108.55757	1560.8
3110.92066	1560.7
3113.28232	1565.3
3115.64255	1567
3118.00134	1575.3
3120.35871	1571
3122.71466	1576.2
3125.06917	1582.1
3127.42226	1576.7
3129.77393	1603.8
3132.12417	1601.8
3134.47299	1605.6
3136.82039	1625.8
3139.16636	1626.2
3141.51092	1636.4
3143.85406	1630.6
3146.19579	1640.5
3148.53609	1655.5
3150.87499	1658.7
3153.21246	1676.3
3155.54853	1686.3
3157.88318	1690.5
3160.21642	1697.4
3162.54826	1700.4
3164.87868	1701.5
3167.2077	1708.6
3169.5353	1730
3171.86151	1725.6
3174.18631	1724.3
3176.5097	1735.9
3178.83169	1740.8
3181.15228	1747.6
3183.47147	1754.5
3185.78926	1757.4
3188.10565	1757.8
3190.42065	1767.7
3192.73424	1777.3
3195.04645	1785.7
3197.35725	1789.6
3199.66667	1789.2
3201.97469	1791.6
3204.28132	1790.3
3206.58656	1794
3208.8904	1820.5
3211.19287	1820
3213.49394	1810.4
3215.79363	1826
3218.09193	1825.4
3220.38884	1839.9
3222.68438	1834.2
3224.97853	1844.2
3227.2713	1849.9
3229.56269	1842.5
3231.8527	1849.4
3234.14133	1856.8
3236.42858	1865.7
3238.71446	1859.9
3240.99896	1860.9
3243.28209	1854.3
3245.56384	1862.5
3247.84423	1861.1
3250.12324	1868.6
3252.40088	1875.3
3254.67715	1882.9
3256.95205	1876.9
3259.22558	1882.3
3261.49775	1891.1
3263.76855	1893.5
3266.03799	1904.6
3268.30606	1891
3270.57277	1901.7
3272.83812	1896.3
3275.10211	1890.8
3277.36474	1902.2
3279.62601	1913.6
3281.88593	1895.3
3284.14448	1901.4
3286.40168	1898.4
3288.65753	1887.1
3290.91202	1885.4
3293.16516	1873.7
3295.41695	1870.2
3297.66738	1858.1
3299.91647	1848.8
3302.16421	1829.3
3304.4106	1828.2
3306.65564	1814
3308.89933	1792.2
3311.14169	1777
3313.38269	1772
3315.62236	1766.5
3317.86068	1732.8
3320.09766	1726.9
3322.3333	1716
3324.5676	1722.9
3326.80056	1688.8
3329.03219	1679.7
3331.26248	0.8
3333.49143	-0.5
3335.71905	0.8
