Data from AgNP_FTO_APTES_CRN_500uM_R6G_10uM_NaF_0.1M_Addition_RamanShift__14__20-19-58-228.txt Node

Date: Wed Dec 15 20:19:58 GMT 2021
User: TCL
Spectrometer: QEP01345
Trigger mode: 4
Integration Time (sec): 7.000000E0
Scans to average: 10
Electric dark correction enabled: true
Nonlinearity correction enabled: false
Boxcar width: 0
XAxis mode: Raman Shifts
Number of Pixels in Spectrum: 1044
>>>>>Begin Spectral Data<<<<<
46.04893	0.2
50.45542	-2.5
54.85868	0.5
59.25871	-0.6
63.6555	47.8
68.04907	56.5
72.43941	60.4
76.82654	60.9
81.21044	64.1
85.59113	67.1
89.96862	70.3
94.34289	72.4
98.71396	74.9
103.08183	81.3
107.4465	83.1
111.80798	77.8
116.16626	85.4
120.52136	89.7
124.87327	87.2
129.222	91.7
133.56755	92
137.90993	101.3
142.24913	109.5
146.58517	121
150.91804	132.2
155.24774	158.1
159.57429	188.2
163.89768	243.8
168.21792	315.3
172.53501	421.6
176.84895	581.8
181.15975	816.8
185.46741	1148.1
189.77193	1582.9
194.07331	2134.5
198.37157	2751.8
202.6667	3414.9
206.9587	4070.1
211.24758	4701.2
215.53334	5332
219.81599	5979.7
224.09553	6691
228.37195	7472.5
232.64527	8326.7
236.91549	9253.6
241.18261	10214.3
245.44663	11131
249.70755	11995.1
253.96539	12709.7
258.22014	13352.2
262.4718	13830.5
266.72039	14203.8
270.96589	14359.1
275.20832	14380.8
279.44768	14346.6
283.68397	14197.8
287.91719	14125.5
292.14735	14004.9
296.37445	13954.8
300.59849	13907.4
304.81948	13838
309.03742	13783
313.25231	13636
317.46415	13466.5
321.67296	13244.7
325.87872	13067.4
330.08145	12993.3
334.28114	13055.2
338.47781	13140.3
342.67145	13262.9
346.86207	13423.8
351.04966	13593.6
355.23424	13735.5
359.4158	13881.1
363.59435	14017.4
367.76989	14114.6
371.94243	14187.4
376.11196	14267.1
380.27849	14318.9
384.44203	14428.9
388.60257	14513.5
392.76012	14626.2
396.91468	14792.9
401.06626	14974.6
405.21485	15110.9
409.36047	15193.8
413.50311	15130.9
417.64277	15069.8
421.77947	15075.5
425.9132	15099.9
430.04396	15220.2
434.17176	15328.3
438.2966	15427.2
442.41849	15588.1
446.53742	15739.6
450.6534	15922.2
454.76644	16080.6
458.87653	16211.2
462.98368	16277.8
467.08789	16258.2
471.18916	16262.9
475.2875	16225.3
479.38291	16230.1
483.4754	16167.4
487.56496	16111.7
491.6516	16020.2
495.73531	15932.3
499.81612	15895.9
503.89401	15923.9
507.96899	16028.2
512.04106	16046.7
516.11023	16058.4
520.1765	16015.3
524.23987	15953
528.30034	15903.9
532.35792	15818.4
536.41261	15782.7
540.46441	15741.9
544.51333	15795.6
548.55936	15911.2
552.60252	16073.6
556.64279	16258.9
560.6802	16380.1
564.71473	16457.4
568.7464	16587.8
572.7752	16815.8
576.80114	17072.9
580.82422	17316.6
584.84444	17492.9
588.86181	17546.9
592.87633	17513.4
596.888	17459.5
600.89682	17472.1
604.9028	17636.6
608.90594	18079.6
612.90624	18630.8
616.90371	18086.4
620.89834	16742.4
624.89015	16156
628.87913	16087.2
632.86528	16197.8
636.84862	16286.5
640.82913	16219.5
644.80683	16099.9
648.78172	15945.2
652.75379	15906.8
656.72306	16005.6
660.68952	16086.6
664.65319	16100.2
668.61405	16038.8
672.57211	16060.4
676.52738	16129.5
680.47986	16128.9
684.42955	16130
688.37646	16124.1
692.32058	16141.4
696.26192	16179.6
700.20048	16308.3
704.13626	16360
708.06928	16417.3
711.99952	16443.9
715.927	16399.1
719.85171	16344.2
723.77365	16227.7
727.69284	16152.7
731.60928	16099.6
735.52295	15991.6
739.43388	16001.9
743.34206	16029.5
747.24749	16056.5
751.15017	16096.3
755.05012	16203.9
758.94733	16438.1
762.8418	16869.7
766.73354	17484
770.62254	18061.3
774.50882	18129.1
778.39237	17743.4
782.27321	17084.6
786.15132	16543.6
790.02671	16200.2
793.89938	16020.3
797.76935	15918.8
801.6366	15875.2
805.50115	15862.9
809.36299	15822.3
813.22213	15792.8
817.07857	15806.7
820.93231	15832.4
824.78336	15794
828.63172	15783.2
832.47738	15797.1
836.32036	15782.9
840.16066	15793.4
843.99827	15772.9
847.8332	15768.9
851.66546	15768.9
855.49504	15794.9
859.32195	15789.8
863.1462	15767.8
866.96777	15793.1
870.78668	15785.3
874.60293	15806.1
878.41652	15763.4
882.22745	15810.4
886.03573	15846.3
889.84136	15878.1
893.64433	15875.8
897.44466	15861.8
901.24235	15805.5
905.0374	15820.4
908.8298	15814.8
912.61957	15863.7
916.40671	15935.9
920.19121	16026.7
923.97308	16009.4
927.75233	16009.7
931.52895	15933.5
935.30295	15834
939.07433	15675.6
942.84309	15573.1
946.60924	15528.6
950.37278	15420.4
954.13371	15436.6
957.89203	15396.8
961.64774	15365.8
965.40086	15385.2
969.15137	15354.8
972.89929	15292.8
976.64461	15258.2
980.38733	15227
984.12747	15213
987.86502	15297.2
991.59999	15296.3
995.33237	15302.6
999.06217	15420.9
1002.78939	15514.4
1006.51404	15572.9
1010.23611	15699.7
1013.95561	15818.4
1017.67255	15817.8
1021.38692	15763.5
1025.09872	15727.8
1028.80796	15628
1032.51465	15596.4
1036.21877	15585.6
1039.92035	15648.2
1043.61937	15727.3
1047.31584	15775
1051.00976	15849.3
1054.70114	15928.5
1058.38998	16036
1062.07627	16206.5
1065.76003	16392.1
1069.44126	16643.6
1073.11995	16821
1076.79611	16947.8
1080.46974	16915.4
1084.14085	16776.7
1087.80943	16703.1
1091.47549	16672.4
1095.13903	16681.2
1098.80005	16590.6
1102.45857	16463.7
1106.11456	16250.4
1109.76805	16119.9
1113.41903	16032
1117.06751	16059.1
1120.71348	16122.2
1124.35696	16215
1127.99793	16373.4
1131.63641	16462
1135.2724	16413
1138.90589	16355.9
1142.5369	16282
1146.16542	16266.3
1149.79145	16304.4
1153.415	16406.1
1157.03607	16456.1
1160.65467	16619.1
1164.27079	16866.7
1167.88443	17242.6
1171.49561	17670.8
1175.10432	18186.3
1178.71056	18893.4
1182.31434	19513.6
1185.91565	19958.3
1189.51451	20143.5
1193.11091	20149.1
1196.70485	19905.6
1200.29634	19473.9
1203.88538	19100.3
1207.47197	18768.4
1211.05612	18473.9
1214.63782	18254.8
1218.21708	17992.7
1221.79391	17745.9
1225.36829	17510.3
1228.94024	17414.5
1232.50976	17383.2
1236.07685	17316.9
1239.6415	17387.1
1243.20374	17382.8
1246.76355	17424.9
1250.32093	17519.3
1253.8759	17685
1257.42845	17903.1
1260.97859	18169.9
1264.52631	18365.4
1268.07163	18551.2
1271.61453	18744.1
1275.15503	18969.6
1278.69312	19174.8
1282.22882	19369.9
1285.76211	19561.4
1289.29301	19862.9
1292.82151	20209.8
1296.34761	20629.5
1299.87133	21137.5
1303.39266	21609.2
1306.9116	22079.8
1310.42815	22487.4
1313.94233	22721.2
1317.45412	22735.7
1320.96354	22642.7
1324.47058	22658.5
1327.97525	22600.5
1331.47754	22645.2
1334.97747	22809.2
1338.47502	23000.4
1341.97022	23305.9
1345.46305	23568.1
1348.95352	23753.8
1352.44163	23729.1
1355.92738	23560.6
1359.41078	23560.9
1362.89183	23555
1366.37053	23152.5
1369.84688	22123
1373.32088	20968.8
1376.79254	20119.4
1380.26186	19661.4
1383.72883	19492.9
1387.19347	19377.1
1390.65578	19247.9
1394.11575	19106.9
1397.57339	19034.1
1401.0287	18932.2
1404.48168	18927.9
1407.93234	18773.3
1411.38068	18568.7
1414.82669	18303.6
1418.27039	17889
1421.71177	17544
1425.15083	17238
1428.58758	17017.1
1432.02203	16982.3
1435.45416	17073.1
1438.88399	17196
1442.31151	17314.3
1445.73673	17453
1449.15965	17592.3
1452.58027	17737.1
1455.9986	17847.5
1459.41463	18015.7
1462.82837	18193.3
1466.23982	18430.8
1469.64898	18609.4
1473.05586	18763.5
1476.46045	18877.4
1479.86276	18897.5
1483.26279	18885.8
1486.66054	18941.8
1490.05602	19070.3
1493.44922	19257.7
1496.84016	19600.9
1500.22882	20124.2
1503.61521	20678.5
1506.99934	21268.2
1510.38121	21595.6
1513.76081	21632.9
1517.13816	21266
1520.51324	20885.7
1523.88607	20543.8
1527.25665	20335.1
1530.62498	20164.5
1533.99105	20032.4
1537.35488	19861.8
1540.71647	19594.7
1544.07581	19325.1
1547.4329	19030.2
1550.78776	18784.7
1554.14038	18631
1557.49077	18558.7
1560.83892	18550.3
1564.18484	18620.5
1567.52853	18723.4
1570.86999	18900.3
1574.20922	19111.5
1577.54624	19332.9
1580.88103	19362.7
1584.2136	19289.3
1587.54395	19250.2
1590.87208	19219.1
1594.19801	19375.1
1597.52172	19636.2
1600.84321	19695.8
1604.16251	19359.8
1607.47959	18838.4
1610.79447	18272.9
1614.10715	17655.1
1617.41763	17003.5
1620.7259	16524.7
1624.03199	16169.1
1627.33587	16046.6
1630.63757	16084.8
1633.93707	16309.7
1637.23439	16852.4
1640.52951	17666.1
1643.82246	18675.4
1647.11321	19650.5
1650.40179	20272.6
1653.68819	20037.7
1656.97241	19107.5
1660.25446	17849.3
1663.53433	16705.6
1666.81203	15802.9
1670.08756	15148.6
1673.36092	14724.5
1676.63211	14454.5
1679.90115	14237.3
1683.16801	14087.6
1686.43272	13987.4
1689.69527	13902.5
1692.95567	13854
1696.2139	13809.6
1699.46999	13777.2
1702.72392	13752.3
1705.97571	13750
1709.22535	13674.2
1712.47284	13669.4
1715.71819	13639.5
1718.96139	13619.2
1722.20246	13599.6
1725.44139	13516.7
1728.67818	13485.3
1731.91284	13439
1735.14537	13403.5
1738.37576	13354.9
1741.60403	13314.9
1744.83017	13278.4
1748.05418	13253
1751.27607	13258.3
1754.49584	13217.8
1757.71349	13214.5
1760.92903	13209.5
1764.14244	13238.2
1767.35375	13196.8
1770.56294	13169.2
1773.77002	13149
1776.97499	13107
1780.17785	13068.9
1783.37861	13083.3
1786.57727	13028.1
1789.77382	13013.6
1792.96828	12979
1796.16064	12950
1799.3509	12934.2
1802.53907	12919.5
1805.72514	12837.5
1808.90913	12825.2
1812.09102	12778
1815.27083	12795.3
1818.44856	12730.7
1821.6242	12745.6
1824.79776	12710.4
1827.96924	12700.1
1831.13864	12684
1834.30597	12685.9
1837.47122	12685.8
1840.6344	12644.3
1843.7955	12634.9
1846.95454	12624.3
1850.11151	12613.2
1853.26642	12609.7
1856.41926	12596.7
1859.57004	12574.6
1862.71876	12552.7
1865.86542	12548.3
1869.01003	12532.6
1872.15258	12524.4
1875.29308	12500.5
1878.43152	12445
1881.56792	12456.3
1884.70227	12442
1887.83457	12415.5
1890.96482	12417.1
1894.09304	12398
1897.21921	12376.5
1900.34335	12389.3
1903.46544	12350.6
1906.58551	12320
1909.70353	12275.7
1912.81953	12255
1915.93349	12272.5
1919.04543	12216.7
1922.15534	12201.2
1925.26322	12177.2
1928.36908	12139.8
1931.47292	12163.2
1934.57473	12127.2
1937.67453	12070.1
1940.77232	12061.3
1943.86808	12040.7
1946.96184	11992.6
1950.05358	11962.5
1953.14331	11913.8
1956.23103	11887
1959.31675	11840.8
1962.40046	11814.1
1965.48217	11792.1
1968.56188	11760.9
1971.63959	11716.8
1974.7153	11660.2
1977.78901	11634.3
1980.86073	11590.3
1983.93046	11566.8
1986.99819	11532.6
1990.06394	11513.2
1993.1277	11456.3
1996.18947	11412.1
1999.24925	11392.4
2002.30706	11365.8
2005.36288	11326.5
2008.41672	11287.1
2011.46859	11259.6
2014.51848	11235.5
2017.56639	11196.7
2020.61233	11149.7
2023.6563	11148.7
2026.6983	11117.4
2029.73833	11065.8
2032.7764	11045.6
2035.8125	11010.4
2038.84664	10955.9
2041.87881	10951
2044.90903	10927
2047.93729	10908.7
2050.96359	10903.3
2053.98794	10902.8
2057.01034	10867.4
2060.03078	10870.5
2063.04927	10846.3
2066.06582	10853.9
2069.08042	10831.4
2072.09307	10808.5
2075.10378	10793.6
2078.11255	10801
2081.11938	10805
2084.12426	10809.7
2087.12722	10761
2090.12824	10785
2093.12732	10789.5
2096.12447	10787.8
2099.11969	10793.6
2102.11299	10793.4
2105.10435	10787.1
2108.09379	10781.1
2111.08131	10801.4
2114.0669	10801.3
2117.05057	10776.5
2120.03233	10775.5
2123.01216	10822.4
2125.99008	10810
2128.96609	10816.9
2131.94018	10815.9
2134.91236	10801.8
2137.88263	10821.5
2140.851	10814.4
2143.81746	10815.1
2146.78201	10812.6
2149.74466	10834.8
2152.7054	10815
2155.66425	10841.8
2158.6212	10847.9
2161.57625	10823.3
2164.52941	10820.1
2167.48067	10798.8
2170.43004	10778.3
2173.37752	10779
2176.32311	10797.5
2179.26681	10775.7
2182.20863	10793.6
2185.14856	10768.1
2188.08661	10754.2
2191.02278	10774.2
2193.95707	10711.2
2196.88948	10692.6
2199.82001	10723.4
2202.74867	10675.6
2205.67545	10675.4
2208.60037	10687.1
2211.52341	10677.3
2214.44458	10650.3
2217.36388	10613.5
2220.28132	10586.3
2223.1969	10514.3
2226.11061	10539.9
2229.02246	10503.1
2231.93245	10482.7
2234.84058	10465.5
2237.74686	10465.9
2240.65128	10456.3
2243.55385	10418.6
2246.45456	10395.7
2249.35343	10391.6
2252.25044	10377.6
2255.14561	10373.4
2258.03893	10345.4
2260.93041	10336.5
2263.82004	10284.5
2266.70783	10278
2269.59378	10225.6
2272.4779	10223.8
2275.36017	10171.1
2278.24061	10163.5
2281.11922	10141.5
2283.996	10104.2
2286.87094	10093.1
2289.74405	10067.1
2292.61534	10048
2295.4848	10038.6
2298.35243	10035.7
2301.21824	10031.8
2304.08223	10008.3
2306.94439	9975.7
2309.80474	9962.6
2312.66327	9984.7
2315.51999	9958.8
2318.37489	9941.7
2321.22797	9921.4
2324.07925	9930.1
2326.92871	9901.3
2329.77637	9880.2
2332.62222	9866.8
2335.46626	9841.6
2338.3085	9822.7
2341.14893	9812.5
2343.98756	9809.3
2346.8244	9775.6
2349.65943	9771.6
2352.49267	9782.6
2355.32411	9766.2
2358.15376	9741.2
2360.98161	9753.4
2363.80768	9753.4
2366.63195	9735.5
2369.45444	9716
2372.27514	9700.3
2375.09405	9698.8
2377.91118	9681
2380.72652	9641.1
2383.54009	9628.7
2386.35187	9614.6
2389.16188	9582.9
2391.97011	9556.1
2394.77657	9546.4
2397.58125	9514.8
2400.38416	9506.9
2403.18529	9465.9
2405.98466	9472.6
2408.78226	9445.5
2411.57809	9435.8
2414.37216	9422.6
2417.16446	9444.5
2419.955	9397.5
2422.74378	9388
2425.5308	9370.2
2428.31606	9346.8
2431.09956	9345
2433.88131	9326.6
2436.6613	9305.3
2439.43954	9328
2442.21603	9295.3
2444.99077	9306.5
2447.76377	9269.8
2450.53501	9268.7
2453.30451	9265.5
2456.07226	9244.1
2458.83827	9227.7
2461.60254	9207.9
2464.36507	9197.6
2467.12586	9189
2469.88492	9172.4
2472.64224	9144.7
2475.39782	9146.4
2478.15167	9142
2480.90379	9156.6
2483.65417	9132.3
2486.40283	9133.4
2489.14976	9124.4
2491.89497	9104.5
2494.63845	9114.6
2497.3802	9075.4
2500.12024	9063.1
2502.85855	9068.3
2505.59514	9061
2508.33002	9055.8
2511.06318	9039.4
2513.79462	9020.8
2516.52435	9035.9
2519.25237	8988.4
2521.97867	8982.4
2524.70327	8970.8
2527.42616	8967.5
2530.14734	8919.9
2532.86681	8927.6
2535.58458	8895.6
2538.30065	8908.1
2541.01501	8868
2543.72768	8875.2
2546.43864	8857.9
2549.14791	8806.8
2551.85548	8827.3
2554.56136	8792
2557.26554	8764.3
2559.96803	8769.2
2562.66883	8737.1
2565.36794	8718.8
2568.06536	8724.5
2570.7611	8699.9
2573.45514	8688
2576.14751	8691.8
2578.83819	8640.4
2581.52719	8620.1
2584.21451	8614.6
2586.90015	8583.6
2589.58411	8558.7
2592.2664	8560.7
2594.94701	8518
2597.62594	8527.1
2600.30321	8502.8
2602.9788	8488.7
2605.65273	8468.9
2608.32498	8451.9
2610.99557	8441.7
2613.66449	8430.7
2616.33175	8405.9
2618.99734	8391.7
2621.66128	8369.9
2624.32355	8384.2
2626.98416	8348.7
2629.64311	8367
2632.30041	8316.3
2634.95605	8324.3
2637.61004	8304.1
2640.26238	8303
2642.91306	8296
2645.56209	8282.8
2648.20948	8273.3
2650.85521	8260.4
2653.4993	8261.8
2656.14175	8255
2658.78255	8222.6
2661.42171	8238
2664.05923	8254.1
2666.6951	8239.6
2669.32934	8241.7
2671.96194	8220.7
2674.59291	8229.8
2677.22224	8236.3
2679.84993	8238.9
2682.476	8226.7
2685.10043	8197.6
2687.72324	8192.2
2690.34441	8187.8
2692.96396	8192.4
2695.58188	8211.6
2698.19818	8190.7
2700.81285	8201.4
2703.4259	8204.1
2706.03733	8224.7
2708.64714	8208.5
2711.25533	8208.2
2713.86191	8200.1
2716.46687	8192.3
2719.07021	8186.3
2721.67194	8184.9
2724.27206	8156.3
2726.87057	8171.1
2729.46747	8155.6
2732.06276	8174.4
2734.65644	8140
2737.24852	8145.5
2739.83899	8127.6
2742.42786	8117.6
2745.01513	8115.7
2747.60079	8106.9
2750.18486	8068.2
2752.76733	8056.5
2755.3482	8075.5
2757.92747	8056.4
2760.50515	8045.4
2763.08123	8019.8
2765.65573	8016.2
2768.22863	8008.8
2770.79994	7990.2
2773.36967	7984.3
2775.9378	7965.1
2778.50435	7946.9
2781.06932	7938.1
2783.6327	7924.9
2786.1945	7915.7
2788.75471	7880.2
2791.31335	7872.3
2793.87041	7834.5
2796.42589	7832.8
2798.97979	7819.6
2801.53212	7824.2
2804.08288	7788.8
2806.63206	7776.2
2809.17967	7759.9
2811.72571	7721.1
2814.27018	7711.4
2816.81308	7714.1
2819.35442	7700.9
2821.89419	7673.1
2824.43239	7686.2
2826.96904	7666.9
2829.50412	7649.4
2832.03763	7622.2
2834.56959	7645
2837.1	7629.3
2839.62884	7627.7
2842.15613	7633.3
2844.68186	7642.3
2847.20604	7628.9
2849.72867	7622.1
2852.24974	7615.9
2854.76927	7601.1
2857.28724	7605.8
2859.80367	7585
2862.31855	7555.4
2864.83189	7557
2867.34368	7546.5
2869.85393	7549.2
2872.36264	7536.8
2874.8698	7539.2
2877.37543	7522.3
2879.87952	7517
2882.38207	7528.5
2884.88308	7502
2887.38256	7519.3
2889.88051	7496.4
2892.37692	7488.4
2894.8718	7482.2
2897.36515	7483.7
2899.85698	7479.6
2902.34727	7499.3
2904.83604	7494.1
2907.32328	7500.6
2909.809	7495.6
2912.29319	7473.1
2914.77587	7479.9
2917.25702	7461
2919.73665	7474.5
2922.21476	7474.5
2924.69136	7465.7
2927.16644	7466.2
2929.64	7445.9
2932.11205	7448.8
2934.58258	7432.1
2937.05161	7461.6
2939.51912	7441
2941.98513	7446.3
2944.44962	7418.1
2946.91261	7375.3
2949.37409	7377.1
2951.83407	7360.4
2954.29254	7371.8
2956.74951	7342.1
2959.20498	7331.8
2961.65895	7322.4
2964.11142	7328.7
2966.56239	7311.8
2969.01186	7321.9
2971.45984	7291.7
2973.90632	7264
2976.35131	7252.7
2978.7948	7233.1
2981.23681	7204.3
2983.67732	7212.2
2986.11635	7193.7
2988.55388	7184.2
2990.98993	7157.7
2993.4245	7149.8
2995.85758	7138.3
2998.28917	7109.1
3000.71928	7110.7
3003.14791	7080.1
3005.57506	7091.8
3008.00073	7056.8
3010.42493	7048.3
3012.84764	7037.6
3015.26888	7034.9
3017.68865	7013.9
3020.10694	6987.5
3022.52376	6992.8
3024.9391	6978.1
3027.35298	6954
3029.76539	6990.4
3032.17632	6963
3034.5858	6930.3
3036.9938	6929.1
3039.40034	6930.7
3041.80542	6912.6
3044.20903	6913.7
3046.61118	6910.2
3049.01187	6874.9
3051.4111	6869.9
3053.80888	6864.1
3056.20519	6851.5
3058.60005	6830.9
3060.99345	6819.7
3063.3854	6805.1
3065.7759	6810
3068.16494	6805.5
3070.55254	6793
3072.93868	6773.1
3075.32338	6751.6
3077.70662	6735.7
3080.08842	6713.3
3082.46878	6722.9
3084.84769	6705.6
3087.22515	6722.4
3089.60118	6732.5
3091.97576	6716.5
3094.3489	6732.3
3096.72061	6717.7
3099.09087	6708.9
3101.4597	6706
3103.82709	6712.7
3106.19305	6704.6
3108.55757	6683.9
3110.92066	6690.1
3113.28232	6684.3
3115.64255	6664.2
3118.00134	6639.6
3120.35871	6653.4
3122.71466	6632.9
3125.06917	6627.8
3127.42226	6611.6
3129.77393	6612.3
3132.12417	6596.3
3134.47299	6620.3
3136.82039	6622.6
3139.16636	6631
3141.51092	6635.4
3143.85406	6625.1
3146.19579	6617.8
3148.53609	6629.9
3150.87499	6637.8
3153.21246	6630.4
3155.54853	6651.5
3157.88318	6650.1
3160.21642	6645.7
3162.54826	6647.9
3164.87868	6642.1
3167.2077	6641.1
3169.5353	6634.5
3171.86151	6650.7
3174.18631	6654.3
3176.5097	6623.9
3178.83169	6620.1
3181.15228	6625.2
3183.47147	6611
3185.78926	6615.8
3188.10565	6605.8
3190.42065	6612.7
3192.73424	6592.2
3195.04645	6586.8
3197.35725	6605.4
3199.66667	6613.4
3201.97469	6607.8
3204.28132	6602.7
3206.58656	6615.2
3208.8904	6602.2
3211.19287	6619.2
3213.49394	6609.4
3215.79363	6604.5
3218.09193	6601.5
3220.38884	6604.2
3222.68438	6623.7
3224.97853	6592.2
3227.2713	6597.2
3229.56269	6568.7
3231.8527	6573.6
3234.14133	6567.9
3236.42858	6530.8
3238.71446	6561.2
3240.99896	6525
3243.28209	6547.3
3245.56384	6538
3247.84423	6539.2
3250.12324	6507.9
3252.40088	6521
3254.67715	6517.7
3256.95205	6488.3
3259.22558	6505.4
3261.49775	6483.8
3263.76855	6475.5
3266.03799	6461.3
3268.30606	6452.2
3270.57277	6443.3
3272.83812	6425
3275.10211	6409.8
3277.36474	6408.7
3279.62601	6386.7
3281.88593	6408.7
3284.14448	6399.2
3286.40168	6405.4
3288.65753	6388.4
3290.91202	6385
3293.16516	6332.4
3295.41695	6324.6
3297.66738	6306.6
3299.91647	6262.8
3302.16421	6233.5
3304.4106	6206.5
3306.65564	6174.9
3308.89933	6145.9
3311.14169	6127.3
3313.38269	6066.2
3315.62236	6029.4
3317.86068	5953.1
3320.09766	5910.9
3322.3333	5867.8
3324.5676	5862
3326.80056	5777.9
3329.03219	5739.1
3331.26248	2.9
3333.49143	-0.5
3335.71905	0.7
