Data from AgNP_FTO_APTES_CRN_5uM_R6G_10uM_NaF_0.1M_Addition_RamanShift__33__16-04-27-938.txt Node

Date: Wed Dec 15 16:04:27 GMT 2021
User: TCL
Spectrometer: QEP01345
Trigger mode: 4
Integration Time (sec): 7.000000E0
Scans to average: 10
Electric dark correction enabled: true
Nonlinearity correction enabled: false
Boxcar width: 0
XAxis mode: Raman Shifts
Number of Pixels in Spectrum: 1044
>>>>>Begin Spectral Data<<<<<
46.04893	0.6375
50.45542	-1.0625
54.85868	-1.1625
59.25871	-0.0625
63.6555	64.0375
68.04907	68.4375
72.43941	72.9375
76.82654	76.1375
81.21044	80.5375
85.59113	81.9375
89.96862	87.9375
94.34289	87.8375
98.71396	91.4375
103.08183	98.2375
107.4465	102.3375
111.80798	101.4375
116.16626	103.4375
120.52136	103.5375
124.87327	103.8375
129.222	107.4375
133.56755	108.1375
137.90993	117.6375
142.24913	125.1375
146.58517	133.2375
150.91804	149.1375
155.24774	171.2375
159.57429	203.4375
163.89768	256.2375
168.21792	324.3375
172.53501	439.3375
176.84895	598.5375
181.15975	828.0375
185.46741	1138.0375
189.77193	1579.9375
194.07331	2081.8375
198.37157	2679.3375
202.6667	3316.1375
206.9587	3924.9375
211.24758	4551.5375
215.53334	5202.2375
219.81599	5909.1375
224.09553	6708.4375
228.37195	7599.9375
232.64527	8550.8375
236.91549	9546.5375
241.18261	10448.5375
245.44663	11199.3375
249.70755	11826.0375
253.96539	12392.0375
258.22014	12875.0375
262.4718	13327.2375
266.72039	13707.5375
270.96589	13923.6375
275.20832	13999.1375
279.44768	13896.0375
283.68397	13756.3375
287.91719	13667.2375
292.14735	13702.5375
296.37445	13912.3375
300.59849	14321.7375
304.81948	14810.8375
309.03742	15160.3375
313.25231	15113.5375
317.46415	14457.5375
321.67296	13534.8375
325.87872	12737.5375
330.08145	12364.2375
334.28114	12365.9375
338.47781	12542.0375
342.67145	12882.7375
346.86207	13342.8375
351.04966	14075.4375
355.23424	14825.2375
359.4158	15404.5375
363.59435	15774.6375
367.76989	15862.2375
371.94243	15834.7375
376.11196	15764.7375
380.27849	15687.5375
384.44203	15595.3375
388.60257	15451.3375
392.76012	15414.8375
396.91468	15580.6375
401.06626	15979.3375
405.21485	16288.9375
409.36047	16063.1375
413.50311	15365.7375
417.64277	14751.7375
421.77947	14446.3375
425.9132	14274.0375
430.04396	14333.0375
434.17176	14423.7375
438.2966	14565.9375
442.41849	14856.6375
446.53742	15278.7375
450.6534	15666.5375
454.76644	15921.1375
458.87653	16036.1375
462.98368	15935.2375
467.08789	15728.6375
471.18916	15382.8375
475.2875	14996.6375
479.38291	14693.3375
483.4754	14468.9375
487.56496	14298.3375
491.6516	14182.4375
495.73531	14155.8375
499.81612	14205.0375
503.89401	14340.1375
507.96899	14521.5375
512.04106	14703.5375
516.11023	14916.9375
520.1765	15065.6375
524.23987	15007.5375
528.30034	14786.8375
532.35792	14481.8375
536.41261	14172.4375
540.46441	13873.3375
544.51333	13766.6375
548.55936	13879.2375
552.60252	14137.4375
556.64279	14483.5375
560.6802	14606.8375
564.71473	14776.1375
568.7464	15242.5375
572.7752	15573.0375
576.80114	15388.0375
580.82422	15125.3375
584.84444	15014.9375
588.86181	14987.2375
592.87633	14979.6375
596.888	15134.8375
600.89682	15729.5375
604.9028	17443.8375
608.90594	21574.6375
612.90624	26502.1375
616.90371	25168.2375
620.89834	18397.5375
624.89015	15229.6375
628.87913	14654.6375
632.86528	14715.8375
636.84862	14865.9375
640.82913	14682.6375
644.80683	14137.6375
648.78172	13807.8375
652.75379	13918.2375
656.72306	14437.4375
660.68952	15074.6375
664.65319	14872.6375
668.61405	14252.1375
672.57211	14002.1375
676.52738	13950.5375
680.47986	13948.5375
684.42955	13855.9375
688.37646	13821.4375
692.32058	13877.9375
696.26192	14011.8375
700.20048	14221.5375
704.13626	14384.8375
708.06928	14395.3375
711.99952	14256.9375
715.927	14220.4375
719.85171	14175.4375
723.77365	14144.1375
727.69284	13997.8375
731.60928	13891.2375
735.52295	13880.4375
739.43388	13945.0375
743.34206	14035.9375
747.24749	14146.5375
751.15017	14300.9375
755.05012	14578.5375
758.94733	15234.8375
762.8418	16661.1375
766.73354	19004.2375
770.62254	21405.7375
774.50882	22484.3375
778.39237	21378.1375
782.27321	18758.9375
786.15132	16398.3375
790.02671	15024.8375
793.89938	14454.0375
797.76935	14193.1375
801.6366	14051.2375
805.50115	13980.0375
809.36299	13908.0375
813.22213	13851.5375
817.07857	13849.5375
820.93231	13858.0375
824.78336	13901.1375
828.63172	13965.1375
832.47738	14008.4375
836.32036	14022.9375
840.16066	13962.8375
843.99827	13907.3375
847.8332	13863.6375
851.66546	13833.3375
855.49504	13839.4375
859.32195	13789.0375
863.1462	13750.4375
866.96777	13679.2375
870.78668	13664.5375
874.60293	13681.3375
878.41652	13709.3375
882.22745	13784.0375
886.03573	13814.2375
889.84136	13827.2375
893.64433	13770.9375
897.44466	13758.7375
901.24235	13721.0375
905.0374	13719.2375
908.8298	13703.2375
912.61957	13692.9375
916.40671	13817.4375
920.19121	13960.3375
923.97308	14095.9375
927.75233	14193.9375
931.52895	14236.4375
935.30295	14062.3375
939.07433	13764.3375
942.84309	13491.4375
946.60924	13371.1375
950.37278	13279.8375
954.13371	13201.1375
957.89203	13128.0375
961.64774	13109.3375
965.40086	13057.3375
969.15137	13012.2375
972.89929	12977.2375
976.64461	12985.7375
980.38733	12997.2375
984.12747	13021.1375
987.86502	13078.0375
991.59999	13164.8375
995.33237	13344.3375
999.06217	13682.5375
1002.78939	14106.4375
1006.51404	14484.9375
1010.23611	14802.4375
1013.95561	15016.9375
1017.67255	14976.6375
1021.38692	14738.6375
1025.09872	14575.2375
1028.80796	14559.3375
1032.51465	14785.8375
1036.21877	15104.7375
1039.92035	15191.4375
1043.61937	15096.3375
1047.31584	14940.3375
1051.00976	14700.0375
1054.70114	14586.2375
1058.38998	14580.6375
1062.07627	14682.1375
1065.76003	14836.8375
1069.44126	15065.3375
1073.11995	15357.6375
1076.79611	15605.1375
1080.46974	15838.9375
1084.14085	16018.6375
1087.80943	16182.1375
1091.47549	16179.9375
1095.13903	15836.2375
1098.80005	15374.2375
1102.45857	14894.1375
1106.11456	14712.2375
1109.76805	14713.4375
1113.41903	14917.6375
1117.06751	15269.5375
1120.71348	15701.8375
1124.35696	16194.0375
1127.99793	16634.3375
1131.63641	16666.5375
1135.2724	16109.1375
1138.90589	15610.1375
1142.5369	15297.2375
1146.16542	15031.3375
1149.79145	14876.1375
1153.415	14929.1375
1157.03607	15065.1375
1160.65467	15374.6375
1164.27079	15848.5375
1167.88443	16582.2375
1171.49561	17738.3375
1175.10432	19597.6375
1178.71056	22101.6375
1182.31434	23984.2375
1185.91565	24586.2375
1189.51451	24027.6375
1193.11091	22605.0375
1196.70485	20993.0375
1200.29634	19707.0375
1203.88538	18823.2375
1207.47197	17931.0375
1211.05612	17159.6375
1214.63782	16759.0375
1218.21708	16639.7375
1221.79391	16666.8375
1225.36829	16774.2375
1228.94024	16933.0375
1232.50976	17035.0375
1236.07685	17138.2375
1239.6415	17220.8375
1243.20374	17218.5375
1246.76355	17309.7375
1250.32093	17485.9375
1253.8759	17908.7375
1257.42845	18399.4375
1260.97859	18920.1375
1264.52631	19361.5375
1268.07163	19768.1375
1271.61453	20223.6375
1275.15503	20624.0375
1278.69312	20907.8375
1282.22882	21106.4375
1285.76211	21534.9375
1289.29301	22096.5375
1292.82151	22609.5375
1296.34761	23196.4375
1299.87133	24056.6375
1303.39266	25626.7375
1306.9116	27929.0375
1310.42815	30658.2375
1313.94233	32304.2375
1317.45412	32043.9375
1320.96354	30419.8375
1324.47058	28578.8375
1327.97525	27013.6375
1331.47754	26109.3375
1334.97747	25840.4375
1338.47502	26121.8375
1341.97022	26578.5375
1345.46305	27252.4375
1348.95352	28014.8375
1352.44163	29275.0375
1355.92738	31368.4375
1359.41078	34945.6375
1362.89183	38526.7375
1366.37053	37850.0375
1369.84688	32984.4375
1373.32088	27905.6375
1376.79254	24581.0375
1380.26186	22937.1375
1383.72883	22069.7375
1387.19347	21409.8375
1390.65578	20728.3375
1394.11575	20125.1375
1397.57339	19876.1375
1401.0287	19898.4375
1404.48168	20258.3375
1407.93234	20705.8375
1411.38068	21167.4375
1414.82669	21276.0375
1418.27039	20910.1375
1421.71177	20364.6375
1425.15083	19818.6375
1428.58758	19531.4375
1432.02203	19503.8375
1435.45416	19555.0375
1438.88399	19646.3375
1442.31151	19682.3375
1445.73673	19798.5375
1449.15965	19934.9375
1452.58027	19898.7375
1455.9986	19718.4375
1459.41463	19632.5375
1462.82837	19812.2375
1466.23982	20120.0375
1469.64898	20583.5375
1473.05586	20914.1375
1476.46045	21173.0375
1479.86276	21601.4375
1483.26279	22087.2375
1486.66054	22590.6375
1490.05602	23291.3375
1493.44922	24157.6375
1496.84016	25387.6375
1500.22882	27085.5375
1503.61521	29467.1375
1506.99934	32190.0375
1510.38121	34746.5375
1513.76081	35921.0375
1517.13816	34581.0375
1520.51324	31321.6375
1523.88607	27884.7375
1527.25665	25431.1375
1530.62498	24013.9375
1533.99105	23105.9375
1537.35488	22555.1375
1540.71647	22198.4375
1544.07581	21976.8375
1547.4329	21864.5375
1550.78776	21683.5375
1554.14038	21576.9375
1557.49077	21644.2375
1560.83892	21937.7375
1564.18484	22390.7375
1567.52853	22796.9375
1570.86999	23248.0375
1574.20922	23698.1375
1577.54624	23809.3375
1580.88103	23179.7375
1584.2136	22196.1375
1587.54395	21651.6375
1590.87208	21876.5375
1594.19801	22850.7375
1597.52172	24247.0375
1600.84321	24798.4375
1604.16251	23940.6375
1607.47959	22457.0375
1610.79447	20856.5375
1614.10715	19386.5375
1617.41763	18181.4375
1620.7259	17382.6375
1624.03199	17038.6375
1627.33587	17053.7375
1630.63757	17433.9375
1633.93707	18182.9375
1637.23439	19340.1375
1640.52951	20844.3375
1643.82246	22636.0375
1647.11321	24680.5375
1650.40179	26054.5375
1653.68819	25447.7375
1656.97241	22782.9375
1660.25446	19589.7375
1663.53433	17267.1375
1666.81203	15813.1375
1670.08756	14937.1375
1673.36092	14387.2375
1676.63211	14068.8375
1679.90115	13824.6375
1683.16801	13635.5375
1686.43272	13505.1375
1689.69527	13376.9375
1692.95567	13344.3375
1696.2139	13305.4375
1699.46999	13307.8375
1702.72392	13281.0375
1705.97571	13235.2375
1709.22535	13190.6375
1712.47284	13203.4375
1715.71819	13200.7375
1718.96139	13175.8375
1722.20246	13162.8375
1725.44139	13125.0375
1728.67818	13048.5375
1731.91284	12938.8375
1735.14537	12883.5375
1738.37576	12798.0375
1741.60403	12798.1375
1744.83017	12716.7375
1748.05418	12707.9375
1751.27607	12681.8375
1754.49584	12652.7375
1757.71349	12656.3375
1760.92903	12649.2375
1764.14244	12635.7375
1767.35375	12621.7375
1770.56294	12623.8375
1773.77002	12572.0375
1776.97499	12575.5375
1780.17785	12570.0375
1783.37861	12489.9375
1786.57727	12494.4375
1789.77382	12468.9375
1792.96828	12448.3375
1796.16064	12422.9375
1799.3509	12417.8375
1802.53907	12410.6375
1805.72514	12371.9375
1808.90913	12317.8375
1812.09102	12324.3375
1815.27083	12284.1375
1818.44856	12274.3375
1821.6242	12257.6375
1824.79776	12233.8375
1827.96924	12222.8375
1831.13864	12232.4375
1834.30597	12222.5375
1837.47122	12226.9375
1840.6344	12205.5375
1843.7955	12224.7375
1846.95454	12219.3375
1850.11151	12195.3375
1853.26642	12221.7375
1856.41926	12230.8375
1859.57004	12233.7375
1862.71876	12248.6375
1865.86542	12239.2375
1869.01003	12256.5375
1872.15258	12244.4375
1875.29308	12268.1375
1878.43152	12269.6375
1881.56792	12269.6375
1884.70227	12274.4375
1887.83457	12290.6375
1890.96482	12302.5375
1894.09304	12263.5375
1897.21921	12274.2375
1900.34335	12248.6375
1903.46544	12248.9375
1906.58551	12233.8375
1909.70353	12226.3375
1912.81953	12243.6375
1915.93349	12243.5375
1919.04543	12195.9375
1922.15534	12230.4375
1925.26322	12184.3375
1928.36908	12133.6375
1931.47292	12121.7375
1934.57473	12043.0375
1937.67453	11996.1375
1940.77232	11949.4375
1943.86808	11936.0375
1946.96184	11834.2375
1950.05358	11831.3375
1953.14331	11772.2375
1956.23103	11732.0375
1959.31675	11721.4375
1962.40046	11647.3375
1965.48217	11647.1375
1968.56188	11588.5375
1971.63959	11564.5375
1974.7153	11540.4375
1977.78901	11515.1375
1980.86073	11460.5375
1983.93046	11419.9375
1986.99819	11386.6375
1990.06394	11375.2375
1993.1277	11344.0375
1996.18947	11276.5375
1999.24925	11257.6375
2002.30706	11225.9375
2005.36288	11172.4375
2008.41672	11165.0375
2011.46859	11129.3375
2014.51848	11107.9375
2017.56639	11082.6375
2020.61233	11069.2375
2023.6563	11031.8375
2026.6983	11003.6375
2029.73833	11007.7375
2032.7764	10945.7375
2035.8125	10901.6375
2038.84664	10883.1375
2041.87881	10880.6375
2044.90903	10870.8375
2047.93729	10855.4375
2050.96359	10827.8375
2053.98794	10837.0375
2057.01034	10798.5375
2060.03078	10757.2375
2063.04927	10797.5375
2066.06582	10792.5375
2069.08042	10749.5375
2072.09307	10737.9375
2075.10378	10718.1375
2078.11255	10710.4375
2081.11938	10723.6375
2084.12426	10716.9375
2087.12722	10719.4375
2090.12824	10719.4375
2093.12732	10739.7375
2096.12447	10699.6375
2099.11969	10687.3375
2102.11299	10696.8375
2105.10435	10705.7375
2108.09379	10720.7375
2111.08131	10711.7375
2114.0669	10744.9375
2117.05057	10726.6375
2120.03233	10720.5375
2123.01216	10728.9375
2125.99008	10748.1375
2128.96609	10733.5375
2131.94018	10739.0375
2134.91236	10747.1375
2137.88263	10733.4375
2140.851	10762.9375
2143.81746	10746.8375
2146.78201	10746.3375
2149.74466	10771.7375
2152.7054	10753.7375
2155.66425	10755.3375
2158.6212	10756.3375
2161.57625	10746.5375
2164.52941	10751.3375
2167.48067	10738.6375
2170.43004	10722.7375
2173.37752	10745.5375
2176.32311	10734.5375
2179.26681	10702.7375
2182.20863	10715.4375
2185.14856	10720.5375
2188.08661	10726.5375
2191.02278	10707.1375
2193.95707	10707.3375
2196.88948	10704.9375
2199.82001	10699.7375
2202.74867	10685.5375
2205.67545	10676.3375
2208.60037	10672.6375
2211.52341	10676.4375
2214.44458	10640.3375
2217.36388	10632.1375
2220.28132	10625.5375
2223.1969	10594.4375
2226.11061	10583.7375
2229.02246	10541.0375
2231.93245	10528.8375
2234.84058	10482.0375
2237.74686	10465.9375
2240.65128	10461.5375
2243.55385	10439.4375
2246.45456	10433.2375
2249.35343	10426.1375
2252.25044	10418.5375
2255.14561	10423.0375
2258.03893	10411.4375
2260.93041	10425.4375
2263.82004	10396.9375
2266.70783	10363.6375
2269.59378	10336.6375
2272.4779	10298.6375
2275.36017	10257.0375
2278.24061	10256.0375
2281.11922	10219.0375
2283.996	10185.6375
2286.87094	10195.7375
2289.74405	10157.9375
2292.61534	10146.7375
2295.4848	10135.0375
2298.35243	10123.1375
2301.21824	10110.6375
2304.08223	10119.2375
2306.94439	10139.1375
2309.80474	10144.8375
2312.66327	10135.6375
2315.51999	10113.7375
2318.37489	10112.9375
2321.22797	10067.2375
2324.07925	10083.1375
2326.92871	10097.9375
2329.77637	10065.7375
2332.62222	10066.7375
2335.46626	10056.2375
2338.3085	10027.1375
2341.14893	10044.9375
2343.98756	10056.5375
2346.8244	10045.0375
2349.65943	10071.4375
2352.49267	10034.4375
2355.32411	10068.8375
2358.15376	10036.5375
2360.98161	10039.1375
2363.80768	10048.3375
2366.63195	10059.5375
2369.45444	10056.8375
2372.27514	10006.8375
2375.09405	9987.6375
2377.91118	9981.8375
2380.72652	9947.5375
2383.54009	9938.0375
2386.35187	9924.3375
2389.16188	9848.1375
2391.97011	9853.7375
2394.77657	9814.1375
2397.58125	9795.3375
2400.38416	9792.9375
2403.18529	9754.8375
2405.98466	9733.3375
2408.78226	9714.2375
2411.57809	9706.3375
2414.37216	9681.6375
2417.16446	9679.3375
2419.955	9647.6375
2422.74378	9645.7375
2425.5308	9628.0375
2428.31606	9635.5375
2431.09956	9625.7375
2433.88131	9636.0375
2436.6613	9620.6375
2439.43954	9613.3375
2442.21603	9581.1375
2444.99077	9603.7375
2447.76377	9578.9375
2450.53501	9566.7375
2453.30451	9587.5375
2456.07226	9563.6375
2458.83827	9554.9375
2461.60254	9561.0375
2464.36507	9561.6375
2467.12586	9538.5375
2469.88492	9527.6375
2472.64224	9553.5375
2475.39782	9536.0375
2478.15167	9583.9375
2480.90379	9565.5375
2483.65417	9590.1375
2486.40283	9572.0375
2489.14976	9585.6375
2491.89497	9573.0375
2494.63845	9609.9375
2497.3802	9620.9375
2500.12024	9609.8375
2502.85855	9603.2375
2505.59514	9559.3375
2508.33002	9561.5375
2511.06318	9523.8375
2513.79462	9514.7375
2516.52435	9469.6375
2519.25237	9455.2375
2521.97867	9409.3375
2524.70327	9415.2375
2527.42616	9412.0375
2530.14734	9385.5375
2532.86681	9392.1375
2535.58458	9375.8375
2538.30065	9358.4375
2541.01501	9368.8375
2543.72768	9369.7375
2546.43864	9333.2375
2549.14791	9312.6375
2551.85548	9337.3375
2554.56136	9316.5375
2557.26554	9311.1375
2559.96803	9301.5375
2562.66883	9281.2375
2565.36794	9260.1375
2568.06536	9259.5375
2570.7611	9256.8375
2573.45514	9233.5375
2576.14751	9212.8375
2578.83819	9203.2375
2581.52719	9224.2375
2584.21451	9188.3375
2586.90015	9189.0375
2589.58411	9187.4375
2592.2664	9166.7375
2594.94701	9161.2375
2597.62594	9154.2375
2600.30321	9112.3375
2602.9788	9141.3375
2605.65273	9128.7375
2608.32498	9111.3375
2610.99557	9106.8375
2613.66449	9103.5375
2616.33175	9113.4375
2618.99734	9130.8375
2621.66128	9095.9375
2624.32355	9093.8375
2626.98416	9091.8375
2629.64311	9078.4375
2632.30041	9081.4375
2634.95605	9050.8375
2637.61004	9055.7375
2640.26238	9031.9375
2642.91306	9031.0375
2645.56209	9007.0375
2648.20948	9008.6375
2650.85521	9015.3375
2653.4993	8996.6375
2656.14175	8999.4375
2658.78255	8999.0375
2661.42171	8997.2375
2664.05923	9017.1375
2666.6951	9002.6375
2669.32934	9023.9375
2671.96194	9034.3375
2674.59291	9027.1375
2677.22224	9034.1375
2679.84993	9028.0375
2682.476	9020.0375
2685.10043	9028.7375
2687.72324	9000.7375
2690.34441	9028.0375
2692.96396	9012.1375
2695.58188	9031.7375
2698.19818	8998.8375
2700.81285	9005.9375
2703.4259	9005.8375
2706.03733	9056.8375
2708.64714	9043.9375
2711.25533	9041.2375
2713.86191	9033.7375
2716.46687	9032.4375
2719.07021	9043.0375
2721.67194	9027.4375
2724.27206	9013.0375
2726.87057	9014.6375
2729.46747	9025.2375
2732.06276	9015.2375
2734.65644	9018.9375
2737.24852	9032.9375
2739.83899	9013.7375
2742.42786	9007.6375
2745.01513	8983.3375
2747.60079	8977.1375
2750.18486	8978.5375
2752.76733	8965.2375
2755.3482	8991.5375
2757.92747	8959.9375
2760.50515	8948.0375
2763.08123	8936.5375
2765.65573	8930.0375
2768.22863	8909.4375
2770.79994	8884.5375
2773.36967	8896.0375
2775.9378	8889.8375
2778.50435	8876.1375
2781.06932	8846.1375
2783.6327	8869.7375
2786.1945	8874.2375
2788.75471	8858.9375
2791.31335	8837.3375
2793.87041	8850.1375
2796.42589	8799.9375
2798.97979	8800.1375
2801.53212	8777.7375
2804.08288	8803.6375
2806.63206	8780.2375
2809.17967	8771.0375
2811.72571	8746.7375
2814.27018	8772.4375
2816.81308	8746.7375
2819.35442	8751.1375
2821.89419	8739.8375
2824.43239	8745.7375
2826.96904	8745.1375
2829.50412	8761.1375
2832.03763	8735.1375
2834.56959	8727.4375
2837.1	8743.2375
2839.62884	8722.6375
2842.15613	8730.5375
2844.68186	8750.0375
2847.20604	8782.7375
2849.72867	8789.2375
2852.24974	8797.7375
2854.76927	8792.5375
2857.28724	8793.2375
2859.80367	8763.2375
2862.31855	8738.3375
2864.83189	8719.6375
2867.34368	8736.5375
2869.85393	8727.2375
2872.36264	8703.5375
2874.8698	8691.9375
2877.37543	8699.8375
2879.87952	8697.4375
2882.38207	8709.0375
2884.88308	8680.5375
2887.38256	8682.7375
2889.88051	8676.1375
2892.37692	8670.6375
2894.8718	8685.5375
2897.36515	8700.9375
2899.85698	8687.1375
2902.34727	8674.5375
2904.83604	8710.0375
2907.32328	8699.0375
2909.809	8693.3375
2912.29319	8713.3375
2914.77587	8707.8375
2917.25702	8678.1375
2919.73665	8707.0375
2922.21476	8723.5375
2924.69136	8677.2375
2927.16644	8669.2375
2929.64	8669.7375
2932.11205	8635.7375
2934.58258	8589.3375
2937.05161	8617.4375
2939.51912	8601.7375
2941.98513	8576.2375
2944.44962	8548.1375
2946.91261	8501.3375
2949.37409	8498.5375
2951.83407	8488.4375
2954.29254	8467.3375
2956.74951	8455.7375
2959.20498	8445.3375
2961.65895	8424.7375
2964.11142	8423.6375
2966.56239	8396.2375
2969.01186	8373.4375
2971.45984	8331.2375
2973.90632	8356.8375
2976.35131	8300.0375
2978.7948	8304.2375
2981.23681	8295.0375
2983.67732	8268.4375
2986.11635	8242.7375
2988.55388	8222.5375
2990.98993	8201.4375
2993.4245	8197.3375
2995.85758	8151.3375
2998.28917	8156.9375
3000.71928	8135.8375
3003.14791	8105.3375
3005.57506	8104.8375
3008.00073	8111.2375
3010.42493	8104.0375
3012.84764	8060.9375
3015.26888	8065.4375
3017.68865	8049.2375
3020.10694	8048.2375
3022.52376	8023.1375
3024.9391	8000.4375
3027.35298	8001.4375
3029.76539	7972.8375
3032.17632	7979.5375
3034.5858	7961.1375
3036.9938	7947.0375
3039.40034	7942.8375
3041.80542	7901.4375
3044.20903	7871.6375
3046.61118	7895.9375
3049.01187	7880.4375
3051.4111	7853.4375
3053.80888	7841.5375
3056.20519	7831.1375
3058.60005	7807.5375
3060.99345	7786.3375
3063.3854	7766.6375
3065.7759	7760.4375
3068.16494	7736.7375
3070.55254	7738.5375
3072.93868	7704.7375
3075.32338	7683.7375
3077.70662	7648.5375
3080.08842	7616.6375
3082.46878	7628.7375
3084.84769	7613.2375
3087.22515	7599.8375
3089.60118	7592.3375
3091.97576	7591.1375
3094.3489	7578.8375
3096.72061	7548.2375
3099.09087	7548.3375
3101.4597	7544.7375
3103.82709	7551.4375
3106.19305	7528.0375
3108.55757	7528.4375
3110.92066	7470.2375
3113.28232	7481.5375
3115.64255	7449.5375
3118.00134	7438.7375
3120.35871	7435.1375
3122.71466	7423.0375
3125.06917	7431.4375
3127.42226	7415.2375
3129.77393	7420.6375
3132.12417	7416.3375
3134.47299	7414.1375
3136.82039	7406.9375
3139.16636	7413.3375
3141.51092	7418.6375
3143.85406	7403.8375
3146.19579	7424.6375
3148.53609	7416.2375
3150.87499	7436.9375
3153.21246	7416.8375
3155.54853	7427.5375
3157.88318	7410.8375
3160.21642	7397.1375
3162.54826	7414.4375
3164.87868	7404.0375
3167.2077	7393.2375
3169.5353	7389.2375
3171.86151	7407.2375
3174.18631	7374.8375
3176.5097	7375.0375
3178.83169	7362.3375
3181.15228	7349.5375
3183.47147	7351.4375
3185.78926	7353.6375
3188.10565	7348.4375
3190.42065	7355.4375
3192.73424	7334.7375
3195.04645	7343.1375
3197.35725	7352.7375
3199.66667	7367.9375
3201.97469	7357.8375
3204.28132	7345.7375
3206.58656	7364.9375
3208.8904	7351.5375
3211.19287	7360.1375
3213.49394	7361.6375
3215.79363	7357.9375
3218.09193	7359.7375
3220.38884	7366.8375
3222.68438	7394.3375
3224.97853	7373.3375
3227.2713	7343.2375
3229.56269	7345.3375
3231.8527	7319.6375
3234.14133	7309.5375
3236.42858	7297.5375
3238.71446	7300.7375
3240.99896	7280.2375
3243.28209	7254.5375
3245.56384	7262.3375
3247.84423	7250.2375
3250.12324	7249.3375
3252.40088	7249.7375
3254.67715	7232.9375
3256.95205	7207.5375
3259.22558	7204.7375
3261.49775	7181.2375
3263.76855	7186.6375
3266.03799	7169.8375
3268.30606	7169.0375
3270.57277	7153.9375
3272.83812	7153.6375
3275.10211	7117.6375
3277.36474	7137.3375
3279.62601	7125.5375
3281.88593	7100.1375
3284.14448	7108.4375
3286.40168	7100.7375
3288.65753	7095.0375
3290.91202	7084.4375
3293.16516	7054.0375
3295.41695	7039.1375
3297.66738	7014.9375
3299.91647	6988.6375
3302.16421	6920.3375
3304.4106	6912.9375
3306.65564	6869.0375
3308.89933	6841.2375
3311.14169	6773.1375
3313.38269	6723.1375
3315.62236	6672.1375
3317.86068	6612.6375
3320.09766	6545.1375
3322.3333	6468.1375
3324.5676	6482.2375
3326.80056	6404.3375
3329.03219	6347.8375
3331.26248	3.0375
3333.49143	-0.9625
3335.71905	-0.3625
