Data from AgNP_FTO_APTES_CRN_1000uM_R6G_10uM_NaF_0.1M_Addition_RamanShift__30__21-25-18-302.txt Node

Date: Wed Dec 15 21:25:18 GMT 2021
User: TCL
Spectrometer: QEP01345
Trigger mode: 4
Integration Time (sec): 7.000000E0
Scans to average: 10
Electric dark correction enabled: true
Nonlinearity correction enabled: false
Boxcar width: 0
XAxis mode: Raman Shifts
Number of Pixels in Spectrum: 1044
>>>>>Begin Spectral Data<<<<<
46.04893	0.4375
50.45542	-2.0625
54.85868	-1.5625
59.25871	-0.8625
63.6555	63.2375
68.04907	69.4375
72.43941	72.9375
76.82654	76.8375
81.21044	75.3375
85.59113	83.7375
89.96862	84.3375
94.34289	85.3375
98.71396	90.7375
103.08183	97.3375
107.4465	96.4375
111.80798	99.6375
116.16626	104.0375
120.52136	105.5375
124.87327	108.6375
129.222	117.0375
133.56755	122.7375
137.90993	133.4375
142.24913	147.8375
146.58517	160.7375
150.91804	194.0375
155.24774	230.5375
159.57429	289.9375
163.89768	374.0375
168.21792	497.2375
172.53501	673.1375
176.84895	943.5375
181.15975	1319.8375
185.46741	1852.7375
189.77193	2556.5375
194.07331	3428.7375
198.37157	4430.0375
202.6667	5475.7375
206.9587	6536.5375
211.24758	7594.9375
215.53334	8666.0375
219.81599	9840.6375
224.09553	11110.2375
228.37195	12531.0375
232.64527	14051.2375
236.91549	15591.2375
241.18261	17082.3375
245.44663	18300.8375
249.70755	19363.7375
253.96539	20297.0375
258.22014	21118.2375
262.4718	21777.3375
266.72039	22259.4375
270.96589	22531.6375
275.20832	22513.8375
279.44768	22308.9375
283.68397	21968.2375
287.91719	21714.8375
292.14735	21744.3375
296.37445	21954.2375
300.59849	22469.5375
304.81948	23140.0375
309.03742	23555.4375
313.25231	23502.7375
317.46415	22634.2375
321.67296	21344.9375
325.87872	20218.2375
330.08145	19725.4375
334.28114	19701.0375
338.47781	19991.5375
342.67145	20464.6375
346.86207	21146.7375
351.04966	22138.7375
355.23424	23265.4375
359.4158	24087.1375
363.59435	24538.8375
367.76989	24616.6375
371.94243	24636.2375
376.11196	24575.0375
380.27849	24479.8375
384.44203	24346.1375
388.60257	24141.6375
392.76012	24055.6375
396.91468	24175.3375
401.06626	24625.6375
405.21485	24978.7375
409.36047	24711.6375
413.50311	23740.5375
417.64277	22825.8375
421.77947	22297.3375
425.9132	22113.1375
430.04396	22156.9375
434.17176	22362.1375
438.2966	22789.1375
442.41849	23347.9375
446.53742	24078.4375
450.6534	24745.5375
454.76644	25183.5375
458.87653	25237.3375
462.98368	24978.2375
467.08789	24597.5375
471.18916	24150.5375
475.2875	23748.9375
479.38291	23340.4375
483.4754	22943.4375
487.56496	22580.3375
491.6516	22324.7375
495.73531	22130.6375
499.81612	22146.0375
503.89401	22371.5375
507.96899	22682.3375
512.04106	23050.9375
516.11023	23615.7375
520.1765	24059.2375
524.23987	24212.5375
528.30034	24002.8375
532.35792	23658.7375
536.41261	23226.3375
540.46441	22774.0375
544.51333	22600.1375
548.55936	22646.7375
552.60252	22972.0375
556.64279	23444.5375
560.6802	23744.8375
564.71473	23960.2375
568.7464	24620.6375
572.7752	25050.4375
576.80114	24489.2375
580.82422	23621.8375
584.84444	23247.2375
588.86181	23294.5375
592.87633	23753.0375
596.888	24152.2375
600.89682	24607.1375
604.9028	26544.8375
608.90594	31979.5375
612.90624	38996.7375
616.90371	37457.3375
620.89834	27973.4375
624.89015	23395.9375
628.87913	22488.2375
632.86528	22504.9375
636.84862	22736.6375
640.82913	22500.6375
644.80683	21881.6375
648.78172	21442.3375
652.75379	21537.1375
656.72306	22179.5375
660.68952	22961.3375
664.65319	22786.9375
668.61405	21933.2375
672.57211	21559.5375
676.52738	21606.3375
680.47986	21611.0375
684.42955	21488.6375
688.37646	21373.2375
692.32058	21457.0375
696.26192	21621.0375
700.20048	21853.5375
704.13626	21943.9375
708.06928	21846.7375
711.99952	21620.2375
715.927	21520.1375
719.85171	21520.5375
723.77365	21398.0375
727.69284	21184.0375
731.60928	20974.7375
735.52295	20929.0375
739.43388	20951.4375
743.34206	20955.5375
747.24749	20904.2375
751.15017	20970.0375
755.05012	21182.1375
758.94733	21967.5375
762.8418	23768.1375
766.73354	26825.1375
770.62254	30043.5375
774.50882	31706.5375
778.39237	30425.2375
782.27321	26951.5375
786.15132	23601.6375
790.02671	21735.5375
793.89938	20853.0375
797.76935	20508.9375
801.6366	20310.4375
805.50115	20209.5375
809.36299	20147.1375
813.22213	20029.2375
817.07857	20075.1375
820.93231	20045.6375
824.78336	20112.3375
828.63172	20198.7375
832.47738	20260.5375
836.32036	20252.6375
840.16066	20191.4375
843.99827	20064.2375
847.8332	19974.2375
851.66546	19948.7375
855.49504	19941.4375
859.32195	19930.3375
863.1462	19881.1375
866.96777	19832.6375
870.78668	19720.5375
874.60293	19664.0375
878.41652	19658.9375
882.22745	19714.1375
886.03573	19785.0375
889.84136	19674.8375
893.64433	19637.2375
897.44466	19548.2375
901.24235	19536.3375
905.0374	19500.2375
908.8298	19465.0375
912.61957	19404.8375
916.40671	19486.9375
920.19121	19600.9375
923.97308	19729.3375
927.75233	19924.9375
931.52895	20135.5375
935.30295	20019.5375
939.07433	19553.6375
942.84309	19114.4375
946.60924	18835.2375
950.37278	18672.6375
954.13371	18550.5375
957.89203	18495.5375
961.64774	18395.2375
965.40086	18394.3375
969.15137	18295.9375
972.89929	18266.2375
976.64461	18238.9375
980.38733	18221.3375
984.12747	18296.0375
987.86502	18330.1375
991.59999	18445.5375
995.33237	18612.9375
999.06217	18943.2375
1002.78939	19398.5375
1006.51404	19706.1375
1010.23611	20050.4375
1013.95561	20249.2375
1017.67255	20140.1375
1021.38692	19863.4375
1025.09872	19613.9375
1028.80796	19473.6375
1032.51465	19593.0375
1036.21877	19781.7375
1039.92035	19916.1375
1043.61937	19937.2375
1047.31584	19904.6375
1051.00976	19850.9375
1054.70114	19835.4375
1058.38998	19971.9375
1062.07627	20210.7375
1065.76003	20635.5375
1069.44126	21292.3375
1073.11995	22127.0375
1076.79611	22925.2375
1080.46974	23312.4375
1084.14085	23110.8375
1087.80943	22655.0375
1091.47549	22157.8375
1095.13903	21384.5375
1098.80005	20584.3375
1102.45857	20037.1375
1106.11456	19850.5375
1109.76805	19942.4375
1113.41903	20271.7375
1117.06751	20809.2375
1120.71348	21457.5375
1124.35696	22158.0375
1127.99793	22808.9375
1131.63641	22812.4375
1135.2724	22031.0375
1138.90589	21292.4375
1142.5369	20724.4375
1146.16542	20317.4375
1149.79145	20047.5375
1153.415	20075.7375
1157.03607	20217.7375
1160.65467	20531.1375
1164.27079	21208.8375
1167.88443	22342.5375
1171.49561	24019.4375
1175.10432	26669.2375
1178.71056	30015.1375
1182.31434	32388.2375
1185.91565	32846.0375
1189.51451	31807.9375
1193.11091	29947.4375
1196.70485	27960.3375
1200.29634	26419.7375
1203.88538	25285.4375
1207.47197	23994.1375
1211.05612	23031.3375
1214.63782	22523.0375
1218.21708	22429.0375
1221.79391	22451.8375
1225.36829	22365.5375
1228.94024	22209.1375
1232.50976	22028.5375
1236.07685	22029.9375
1239.6415	22102.1375
1243.20374	22258.3375
1246.76355	22447.3375
1250.32093	22659.2375
1253.8759	23082.0375
1257.42845	23670.2375
1260.97859	24239.9375
1264.52631	24854.1375
1268.07163	25443.4375
1271.61453	25953.7375
1275.15503	26290.0375
1278.69312	26457.9375
1282.22882	26534.0375
1285.76211	26971.2375
1289.29301	27719.2375
1292.82151	28649.5375
1296.34761	29685.3375
1299.87133	31127.3375
1303.39266	33341.3375
1306.9116	36577.1375
1310.42815	40270.3375
1313.94233	42457.5375
1317.45412	41861.9375
1320.96354	39443.7375
1324.47058	36814.7375
1327.97525	34411.3375
1331.47754	32906.4375
1334.97747	32447.6375
1338.47502	32867.6375
1341.97022	33560.7375
1345.46305	34533.0375
1348.95352	35924.2375
1352.44163	38195.2375
1355.92738	41628.2375
1359.41078	46806.4375
1362.89183	51543.4375
1366.37053	50379.3375
1369.84688	43620.2375
1373.32088	36803.6375
1376.79254	32406.0375
1380.26186	30247.4375
1383.72883	29171.3375
1387.19347	28296.1375
1390.65578	27370.0375
1394.11575	26581.9375
1397.57339	26307.5375
1401.0287	26489.9375
1404.48168	26766.9375
1407.93234	27045.4375
1411.38068	27180.4375
1414.82669	27001.5375
1418.27039	26483.1375
1421.71177	25849.4375
1425.15083	25261.3375
1428.58758	24904.1375
1432.02203	24946.6375
1435.45416	25225.9375
1438.88399	25410.9375
1442.31151	25462.9375
1445.73673	25568.0375
1449.15965	25753.6375
1452.58027	25793.7375
1455.9986	25672.1375
1459.41463	25593.7375
1462.82837	25878.5375
1466.23982	26422.3375
1469.64898	27017.4375
1473.05586	27412.0375
1476.46045	27676.9375
1479.86276	27948.2375
1483.26279	28219.2375
1486.66054	28586.1375
1490.05602	29227.0375
1493.44922	29934.8375
1496.84016	31016.6375
1500.22882	32885.5375
1503.61521	35715.1375
1506.99934	39290.2375
1510.38121	42767.1375
1513.76081	44361.8375
1517.13816	42442.3375
1520.51324	37996.4375
1523.88607	33590.6375
1527.25665	30574.9375
1530.62498	29028.7375
1533.99105	28252.2375
1537.35488	27924.4375
1540.71647	27730.5375
1544.07581	27601.1375
1547.4329	27495.1375
1550.78776	27357.8375
1554.14038	27176.9375
1557.49077	27247.2375
1560.83892	27468.6375
1564.18484	28020.7375
1567.52853	28827.4375
1570.86999	29845.7375
1574.20922	31036.6375
1577.54624	32018.5375
1580.88103	31744.9375
1584.2136	30169.3375
1587.54395	28552.5375
1590.87208	27886.3375
1594.19801	28554.9375
1597.52172	30101.5375
1600.84321	30952.8375
1604.16251	30147.8375
1607.47959	28207.4375
1610.79447	25967.9375
1614.10715	23898.9375
1617.41763	22227.2375
1620.7259	21216.4375
1624.03199	20769.6375
1627.33587	20740.0375
1630.63757	21162.8375
1633.93707	22035.6375
1637.23439	23534.7375
1640.52951	25728.2375
1643.82246	28712.8375
1647.11321	32024.0375
1650.40179	34064.2375
1653.68819	32899.2375
1656.97241	28875.8375
1660.25446	24543.5375
1663.53433	21443.7375
1666.81203	19626.9375
1670.08756	18552.7375
1673.36092	17847.9375
1676.63211	17405.8375
1679.90115	17101.4375
1683.16801	16840.2375
1686.43272	16710.8375
1689.69527	16563.1375
1692.95567	16438.4375
1696.2139	16393.7375
1699.46999	16373.8375
1702.72392	16379.5375
1705.97571	16285.3375
1709.22535	16267.6375
1712.47284	16252.9375
1715.71819	16237.3375
1718.96139	16205.0375
1722.20246	16160.6375
1725.44139	16071.5375
1728.67818	15949.0375
1731.91284	15892.4375
1735.14537	15765.0375
1738.37576	15729.6375
1741.60403	15652.6375
1744.83017	15594.4375
1748.05418	15582.9375
1751.27607	15534.7375
1754.49584	15455.2375
1757.71349	15458.9375
1760.92903	15468.2375
1764.14244	15412.1375
1767.35375	15398.8375
1770.56294	15374.2375
1773.77002	15370.5375
1776.97499	15315.7375
1780.17785	15248.5375
1783.37861	15248.6375
1786.57727	15209.0375
1789.77382	15155.1375
1792.96828	15146.9375
1796.16064	15112.9375
1799.3509	15093.1375
1802.53907	15058.2375
1805.72514	14995.3375
1808.90913	14994.1375
1812.09102	14940.6375
1815.27083	14885.0375
1818.44856	14864.2375
1821.6242	14816.5375
1824.79776	14796.8375
1827.96924	14784.8375
1831.13864	14787.0375
1834.30597	14759.7375
1837.47122	14721.2375
1840.6344	14708.5375
1843.7955	14671.0375
1846.95454	14700.0375
1850.11151	14652.3375
1853.26642	14628.6375
1856.41926	14652.4375
1859.57004	14635.2375
1862.71876	14634.0375
1865.86542	14607.6375
1869.01003	14625.0375
1872.15258	14621.0375
1875.29308	14573.2375
1878.43152	14582.5375
1881.56792	14579.9375
1884.70227	14599.9375
1887.83457	14589.3375
1890.96482	14583.2375
1894.09304	14588.5375
1897.21921	14551.1375
1900.34335	14569.4375
1903.46544	14513.8375
1906.58551	14514.6375
1909.70353	14488.9375
1912.81953	14497.7375
1915.93349	14466.3375
1919.04543	14430.1375
1922.15534	14392.5375
1925.26322	14386.4375
1928.36908	14395.6375
1931.47292	14389.8375
1934.57473	14315.7375
1937.67453	14226.3375
1940.77232	14210.1375
1943.86808	14161.9375
1946.96184	14143.7375
1950.05358	14087.4375
1953.14331	14012.8375
1956.23103	14013.0375
1959.31675	13962.0375
1962.40046	13926.9375
1965.48217	13906.8375
1968.56188	13858.6375
1971.63959	13809.0375
1974.7153	13782.7375
1977.78901	13743.3375
1980.86073	13685.6375
1983.93046	13641.1375
1986.99819	13579.7375
1990.06394	13528.4375
1993.1277	13508.4375
1996.18947	13461.6375
1999.24925	13447.7375
2002.30706	13364.4375
2005.36288	13341.9375
2008.41672	13272.0375
2011.46859	13266.5375
2014.51848	13224.4375
2017.56639	13201.5375
2020.61233	13175.7375
2023.6563	13121.1375
2026.6983	13114.9375
2029.73833	13088.2375
2032.7764	13024.8375
2035.8125	13000.0375
2038.84664	12990.4375
2041.87881	12974.0375
2044.90903	12938.6375
2047.93729	12891.5375
2050.96359	12909.6375
2053.98794	12873.0375
2057.01034	12879.7375
2060.03078	12844.0375
2063.04927	12828.5375
2066.06582	12806.5375
2069.08042	12829.8375
2072.09307	12813.4375
2075.10378	12774.4375
2078.11255	12782.9375
2081.11938	12790.3375
2084.12426	12767.7375
2087.12722	12778.0375
2090.12824	12759.4375
2093.12732	12764.9375
2096.12447	12747.3375
2099.11969	12745.1375
2102.11299	12762.0375
2105.10435	12772.0375
2108.09379	12756.0375
2111.08131	12754.9375
2114.0669	12765.0375
2117.05057	12793.7375
2120.03233	12768.7375
2123.01216	12803.8375
2125.99008	12795.4375
2128.96609	12812.3375
2131.94018	12801.3375
2134.91236	12812.2375
2137.88263	12826.9375
2140.851	12827.0375
2143.81746	12829.5375
2146.78201	12838.7375
2149.74466	12823.4375
2152.7054	12817.2375
2155.66425	12849.9375
2158.6212	12846.0375
2161.57625	12842.5375
2164.52941	12784.5375
2167.48067	12784.6375
2170.43004	12775.0375
2173.37752	12762.2375
2176.32311	12789.6375
2179.26681	12759.0375
2182.20863	12765.2375
2185.14856	12787.5375
2188.08661	12754.6375
2191.02278	12712.1375
2193.95707	12701.7375
2196.88948	12716.2375
2199.82001	12666.5375
2202.74867	12682.7375
2205.67545	12685.2375
2208.60037	12669.6375
2211.52341	12675.1375
2214.44458	12631.2375
2217.36388	12587.0375
2220.28132	12558.9375
2223.1969	12560.8375
2226.11061	12514.8375
2229.02246	12476.4375
2231.93245	12470.2375
2234.84058	12455.6375
2237.74686	12419.0375
2240.65128	12380.5375
2243.55385	12372.7375
2246.45456	12349.9375
2249.35343	12378.4375
2252.25044	12347.0375
2255.14561	12316.3375
2258.03893	12339.0375
2260.93041	12322.1375
2263.82004	12295.3375
2266.70783	12267.2375
2269.59378	12231.2375
2272.4779	12214.1375
2275.36017	12154.3375
2278.24061	12146.0375
2281.11922	12110.4375
2283.996	12074.1375
2286.87094	12051.2375
2289.74405	12028.1375
2292.61534	12004.3375
2295.4848	11969.8375
2298.35243	12010.6375
2301.21824	11977.1375
2304.08223	11939.6375
2306.94439	11930.6375
2309.80474	11934.1375
2312.66327	11942.3375
2315.51999	11946.8375
2318.37489	11933.9375
2321.22797	11906.0375
2324.07925	11919.4375
2326.92871	11915.7375
2329.77637	11905.9375
2332.62222	11870.9375
2335.46626	11839.9375
2338.3085	11863.6375
2341.14893	11853.3375
2343.98756	11837.3375
2346.8244	11830.9375
2349.65943	11818.3375
2352.49267	11824.1375
2355.32411	11844.2375
2358.15376	11819.7375
2360.98161	11827.5375
2363.80768	11823.0375
2366.63195	11844.8375
2369.45444	11843.6375
2372.27514	11802.8375
2375.09405	11782.9375
2377.91118	11772.4375
2380.72652	11713.7375
2383.54009	11680.6375
2386.35187	11673.1375
2389.16188	11612.7375
2391.97011	11579.2375
2394.77657	11552.0375
2397.58125	11502.9375
2400.38416	11520.1375
2403.18529	11497.0375
2405.98466	11483.5375
2408.78226	11469.7375
2411.57809	11426.3375
2414.37216	11414.9375
2417.16446	11379.5375
2419.955	11359.4375
2422.74378	11353.6375
2425.5308	11330.6375
2428.31606	11326.6375
2431.09956	11358.8375
2433.88131	11349.0375
2436.6613	11336.4375
2439.43954	11323.3375
2442.21603	11317.9375
2444.99077	11321.0375
2447.76377	11301.3375
2450.53501	11300.9375
2453.30451	11297.4375
2456.07226	11280.4375
2458.83827	11249.3375
2461.60254	11271.8375
2464.36507	11243.0375
2467.12586	11224.9375
2469.88492	11202.2375
2472.64224	11212.9375
2475.39782	11208.3375
2478.15167	11247.7375
2480.90379	11231.7375
2483.65417	11246.6375
2486.40283	11276.6375
2489.14976	11297.2375
2491.89497	11288.7375
2494.63845	11289.9375
2497.3802	11253.3375
2500.12024	11249.7375
2502.85855	11243.9375
2505.59514	11226.9375
2508.33002	11177.1375
2511.06318	11159.7375
2513.79462	11109.6375
2516.52435	11102.9375
2519.25237	11064.0375
2521.97867	11062.5375
2524.70327	11044.7375
2527.42616	11003.9375
2530.14734	10978.1375
2532.86681	10998.1375
2535.58458	10978.0375
2538.30065	10989.5375
2541.01501	10962.2375
2543.72768	10972.4375
2546.43864	10944.8375
2549.14791	10928.4375
2551.85548	10921.8375
2554.56136	10889.0375
2557.26554	10862.6375
2559.96803	10870.1375
2562.66883	10889.5375
2565.36794	10855.6375
2568.06536	10841.1375
2570.7611	10830.0375
2573.45514	10821.0375
2576.14751	10807.8375
2578.83819	10742.7375
2581.52719	10741.3375
2584.21451	10714.4375
2586.90015	10733.4375
2589.58411	10685.4375
2592.2664	10690.7375
2594.94701	10662.9375
2597.62594	10632.9375
2600.30321	10625.3375
2602.9788	10617.9375
2605.65273	10618.9375
2608.32498	10602.9375
2610.99557	10586.0375
2613.66449	10587.2375
2616.33175	10567.9375
2618.99734	10570.3375
2621.66128	10547.0375
2624.32355	10553.6375
2626.98416	10556.1375
2629.64311	10546.2375
2632.30041	10538.9375
2634.95605	10525.8375
2637.61004	10494.1375
2640.26238	10479.5375
2642.91306	10469.8375
2645.56209	10467.5375
2648.20948	10458.3375
2650.85521	10463.2375
2653.4993	10448.8375
2656.14175	10475.3375
2658.78255	10439.0375
2661.42171	10443.1375
2664.05923	10449.7375
2666.6951	10461.4375
2669.32934	10479.6375
2671.96194	10454.6375
2674.59291	10460.7375
2677.22224	10473.5375
2679.84993	10445.4375
2682.476	10464.2375
2685.10043	10464.4375
2687.72324	10432.3375
2690.34441	10460.8375
2692.96396	10470.3375
2695.58188	10464.2375
2698.19818	10425.6375
2700.81285	10456.6375
2703.4259	10499.5375
2706.03733	10531.3375
2708.64714	10505.6375
2711.25533	10492.5375
2713.86191	10488.9375
2716.46687	10504.4375
2719.07021	10499.4375
2721.67194	10502.8375
2724.27206	10480.5375
2726.87057	10494.0375
2729.46747	10480.4375
2732.06276	10437.4375
2734.65644	10440.9375
2737.24852	10447.7375
2739.83899	10428.1375
2742.42786	10432.3375
2745.01513	10404.4375
2747.60079	10400.1375
2750.18486	10393.1375
2752.76733	10364.7375
2755.3482	10374.1375
2757.92747	10357.9375
2760.50515	10355.5375
2763.08123	10336.0375
2765.65573	10330.0375
2768.22863	10337.0375
2770.79994	10319.6375
2773.36967	10315.8375
2775.9378	10309.5375
2778.50435	10290.4375
2781.06932	10255.0375
2783.6327	10279.3375
2786.1945	10276.1375
2788.75471	10251.2375
2791.31335	10239.0375
2793.87041	10213.6375
2796.42589	10194.6375
2798.97979	10199.9375
2801.53212	10190.8375
2804.08288	10185.4375
2806.63206	10137.8375
2809.17967	10157.8375
2811.72571	10125.1375
2814.27018	10143.0375
2816.81308	10139.9375
2819.35442	10137.1375
2821.89419	10136.9375
2824.43239	10125.4375
2826.96904	10111.1375
2829.50412	10112.8375
2832.03763	10130.3375
2834.56959	10113.2375
2837.1	10104.9375
2839.62884	10142.1375
2842.15613	10166.2375
2844.68186	10159.9375
2847.20604	10233.2375
2849.72867	10262.6375
2852.24974	10286.4375
2854.76927	10279.8375
2857.28724	10256.6375
2859.80367	10242.0375
2862.31855	10212.0375
2864.83189	10208.7375
2867.34368	10203.7375
2869.85393	10187.2375
2872.36264	10170.0375
2874.8698	10192.3375
2877.37543	10217.0375
2879.87952	10223.2375
2882.38207	10200.8375
2884.88308	10199.6375
2887.38256	10221.3375
2889.88051	10212.1375
2892.37692	10219.7375
2894.8718	10192.6375
2897.36515	10232.8375
2899.85698	10236.8375
2902.34727	10240.9375
2904.83604	10244.1375
2907.32328	10264.7375
2909.809	10259.2375
2912.29319	10279.0375
2914.77587	10263.3375
2917.25702	10255.0375
2919.73665	10238.5375
2922.21476	10272.0375
2924.69136	10233.2375
2927.16644	10243.2375
2929.64	10221.8375
2932.11205	10175.9375
2934.58258	10174.0375
2937.05161	10177.2375
2939.51912	10130.7375
2941.98513	10119.2375
2944.44962	10050.5375
2946.91261	9989.1375
2949.37409	9969.7375
2951.83407	9941.4375
2954.29254	9907.1375
2956.74951	9857.1375
2959.20498	9842.5375
2961.65895	9828.6375
2964.11142	9795.9375
2966.56239	9767.7375
2969.01186	9743.4375
2971.45984	9711.8375
2973.90632	9692.2375
2976.35131	9668.9375
2978.7948	9678.2375
2981.23681	9612.0375
2983.67732	9588.4375
2986.11635	9569.7375
2988.55388	9542.6375
2990.98993	9522.3375
2993.4245	9495.1375
2995.85758	9465.3375
2998.28917	9450.7375
3000.71928	9412.3375
3003.14791	9459.6375
3005.57506	9395.1375
3008.00073	9401.4375
3010.42493	9380.8375
3012.84764	9348.3375
3015.26888	9357.2375
3017.68865	9351.8375
3020.10694	9353.1375
3022.52376	9303.9375
3024.9391	9281.9375
3027.35298	9283.0375
3029.76539	9260.1375
3032.17632	9238.6375
3034.5858	9238.0375
3036.9938	9206.7375
3039.40034	9214.2375
3041.80542	9161.6375
3044.20903	9152.8375
3046.61118	9146.7375
3049.01187	9109.0375
3051.4111	9124.3375
3053.80888	9110.0375
3056.20519	9076.6375
3058.60005	9073.2375
3060.99345	9045.7375
3063.3854	9060.6375
3065.7759	9021.2375
3068.16494	8995.7375
3070.55254	8958.7375
3072.93868	8971.3375
3075.32338	8934.6375
3077.70662	8920.4375
3080.08842	8873.4375
3082.46878	8872.0375
3084.84769	8877.1375
3087.22515	8885.8375
3089.60118	8887.9375
3091.97576	8882.1375
3094.3489	8881.5375
3096.72061	8855.1375
3099.09087	8846.7375
3101.4597	8836.9375
3103.82709	8815.7375
3106.19305	8830.4375
3108.55757	8791.2375
3110.92066	8775.4375
3113.28232	8760.6375
3115.64255	8719.7375
3118.00134	8730.0375
3120.35871	8708.2375
3122.71466	8706.9375
3125.06917	8690.2375
3127.42226	8677.5375
3129.77393	8672.7375
3132.12417	8677.8375
3134.47299	8687.5375
3136.82039	8677.5375
3139.16636	8679.7375
3141.51092	8707.2375
3143.85406	8693.3375
3146.19579	8700.6375
3148.53609	8683.2375
3150.87499	8697.4375
3153.21246	8723.3375
3155.54853	8727.9375
3157.88318	8695.2375
3160.21642	8691.1375
3162.54826	8671.0375
3164.87868	8680.0375
3167.2077	8693.2375
3169.5353	8683.4375
3171.86151	8679.1375
3174.18631	8689.8375
3176.5097	8668.8375
3178.83169	8640.9375
3181.15228	8655.4375
3183.47147	8649.8375
3185.78926	8676.7375
3188.10565	8620.1375
3190.42065	8650.2375
3192.73424	8627.4375
3195.04645	8644.3375
3197.35725	8641.9375
3199.66667	8643.1375
3201.97469	8652.7375
3204.28132	8631.2375
3206.58656	8645.6375
3208.8904	8632.0375
3211.19287	8651.2375
3213.49394	8632.2375
3215.79363	8669.4375
3218.09193	8639.6375
3220.38884	8644.8375
3222.68438	8671.5375
3224.97853	8640.5375
3227.2713	8637.7375
3229.56269	8605.8375
3231.8527	8607.1375
3234.14133	8599.3375
3236.42858	8565.0375
3238.71446	8573.6375
3240.99896	8560.7375
3243.28209	8545.6375
3245.56384	8544.5375
3247.84423	8577.1375
3250.12324	8554.6375
3252.40088	8542.1375
3254.67715	8527.9375
3256.95205	8507.9375
3259.22558	8514.2375
3261.49775	8513.9375
3263.76855	8486.2375
3266.03799	8483.2375
3268.30606	8481.0375
3270.57277	8446.0375
3272.83812	8421.0375
3275.10211	8427.7375
3277.36474	8399.6375
3279.62601	8398.8375
3281.88593	8397.9375
3284.14448	8415.6375
3286.40168	8382.8375
3288.65753	8396.1375
3290.91202	8356.2375
3293.16516	8363.5375
3295.41695	8302.3375
3297.66738	8279.4375
3299.91647	8235.6375
3302.16421	8206.5375
3304.4106	8173.6375
3306.65564	8150.9375
3308.89933	8086.2375
3311.14169	8021.9375
3313.38269	7966.6375
3315.62236	7919.4375
3317.86068	7823.2375
3320.09766	7775.3375
3322.3333	7729.9375
3324.5676	7714.8375
3326.80056	7586.4375
3329.03219	7550.5375
3331.26248	2.8375
3333.49143	-0.0625
3335.71905	1.5375
