Data from AgNP_FTO_APTES_CRN_0uM_R6G_10uM_NaF_0.1M_Addition_RamanShift__33__12-08-12-936.txt Node

Date: Wed Dec 15 12:08:12 GMT 2021
User: TCL
Spectrometer: QEP01345
Trigger mode: 4
Integration Time (sec): 7.000000E0
Scans to average: 10
Electric dark correction enabled: true
Nonlinearity correction enabled: false
Boxcar width: 0
XAxis mode: Raman Shifts
Number of Pixels in Spectrum: 1044
>>>>>Begin Spectral Data<<<<<
46.04893	2.6875
50.45542	-1.3125
54.85868	-0.7125
59.25871	-0.1125
63.6555	62.9875
68.04907	73.6875
72.43941	77.5875
76.82654	83.5875
81.21044	90.0875
85.59113	90.5875
89.96862	101.2875
94.34289	97.9875
98.71396	108.4875
103.08183	114.1875
107.4465	115.5875
111.80798	111.5875
116.16626	107.0875
120.52136	114.8875
124.87327	108.9875
129.222	106.1875
133.56755	106.9875
137.90993	110.4875
142.24913	110.6875
146.58517	108.8875
150.91804	117.5875
155.24774	118.6875
159.57429	133.6875
163.89768	149.3875
168.21792	171.4875
172.53501	207.7875
176.84895	261.7875
181.15975	337.1875
185.46741	435.0875
189.77193	583.6875
194.07331	753.1875
198.37157	946.8875
202.6667	1149.7875
206.9587	1343.2875
211.24758	1526.4875
215.53334	1713.2875
219.81599	1913.0875
224.09553	2128.5875
228.37195	2374.7875
232.64527	2638.2875
236.91549	2921.5875
241.18261	3185.2875
245.44663	3419.2875
249.70755	3632.3875
253.96539	3790.7875
258.22014	3909.8875
262.4718	4024.8875
266.72039	4086.4875
270.96589	4125.0875
275.20832	4095.5875
279.44768	4028.8875
283.68397	3940.6875
287.91719	3873.5875
292.14735	3835.6875
296.37445	3836.2875
300.59849	3869.5875
304.81948	3933.3875
309.03742	3995.4875
313.25231	3974.7875
317.46415	3861.0875
321.67296	3677.5875
325.87872	3542.7875
330.08145	3462.1875
334.28114	3483.5875
338.47781	3502.0875
342.67145	3560.2875
346.86207	3656.7875
351.04966	3816.4875
355.23424	3983.6875
359.4158	4113.1875
363.59435	4210.6875
367.76989	4258.7875
371.94243	4258.2875
376.11196	4267.2875
380.27849	4256.6875
384.44203	4243.7875
388.60257	4199.0875
392.76012	4172.4875
396.91468	4205.5875
401.06626	4264.1875
405.21485	4334.8875
409.36047	4309.1875
413.50311	4173.0875
417.64277	4053.1875
421.77947	3980.4875
425.9132	3985.8875
430.04396	3995.2875
434.17176	4041.2875
438.2966	4107.3875
442.41849	4222.8875
446.53742	4359.3875
450.6534	4468.5875
454.76644	4539.9875
458.87653	4521.1875
462.98368	4486.5875
467.08789	4394.3875
471.18916	4331.1875
475.2875	4247.7875
479.38291	4195.0875
483.4754	4144.8875
487.56496	4084.0875
491.6516	4065.6875
495.73531	4037.9875
499.81612	4019.2875
503.89401	4060.4875
507.96899	4105.5875
512.04106	4182.1875
516.11023	4253.0875
520.1765	4334.3875
524.23987	4358.8875
528.30034	4300.4875
532.35792	4221.5875
536.41261	4143.0875
540.46441	4037.5875
544.51333	3986.4875
548.55936	3966.9875
552.60252	4011.2875
556.64279	4088.5875
560.6802	4112.6875
564.71473	4112.2875
568.7464	4152.8875
572.7752	4190.9875
576.80114	4081.9875
580.82422	4010.1875
584.84444	3979.3875
588.86181	4029.8875
592.87633	4126.6875
596.888	4224.3875
600.89682	4274.6875
604.9028	4498.6875
608.90594	5191.9875
612.90624	6149.8875
616.90371	6008.4875
620.89834	4686.0875
624.89015	4012.3875
628.87913	3850.3875
632.86528	3828.5875
636.84862	3823.8875
640.82913	3804.5875
644.80683	3712.1875
648.78172	3683.9875
652.75379	3736.0875
656.72306	3892.5875
660.68952	4038.7875
664.65319	3972.1875
668.61405	3796.0875
672.57211	3697.2875
676.52738	3681.0875
680.47986	3673.5875
684.42955	3685.6875
688.37646	3692.4875
692.32058	3731.6875
696.26192	3796.2875
700.20048	3871.1875
704.13626	3948.5875
708.06928	3958.8875
711.99952	3896.0875
715.927	3843.4875
719.85171	3824.0875
723.77365	3797.2875
727.69284	3745.5875
731.60928	3732.7875
735.52295	3730.3875
739.43388	3730.9875
743.34206	3764.8875
747.24749	3784.7875
751.15017	3783.9875
755.05012	3816.4875
758.94733	3932.5875
762.8418	4173.3875
766.73354	4604.9875
770.62254	5091.2875
774.50882	5413.8875
778.39237	5323.4875
782.27321	4819.3875
786.15132	4288.3875
790.02671	3986.8875
793.89938	3857.9875
797.76935	3794.4875
801.6366	3765.6875
805.50115	3736.9875
809.36299	3704.1875
813.22213	3673.4875
817.07857	3694.9875
820.93231	3688.5875
824.78336	3696.9875
828.63172	3710.9875
832.47738	3733.5875
836.32036	3753.2875
840.16066	3729.1875
843.99827	3721.2875
847.8332	3722.6875
851.66546	3725.0875
855.49504	3708.6875
859.32195	3699.4875
863.1462	3651.7875
866.96777	3616.3875
870.78668	3607.3875
874.60293	3591.2875
878.41652	3606.6875
882.22745	3622.8875
886.03573	3616.6875
889.84136	3630.6875
893.64433	3650.3875
897.44466	3650.0875
901.24235	3680.1875
905.0374	3713.7875
908.8298	3717.1875
912.61957	3738.4875
916.40671	3803.2875
920.19121	3853.3875
923.97308	3905.0875
927.75233	3944.8875
931.52895	3992.2875
935.30295	3967.5875
939.07433	3897.7875
942.84309	3824.8875
946.60924	3774.8875
950.37278	3731.4875
954.13371	3692.5875
957.89203	3652.8875
961.64774	3633.0875
965.40086	3602.0875
969.15137	3566.3875
972.89929	3558.4875
976.64461	3555.9875
980.38733	3518.5875
984.12747	3522.1875
987.86502	3538.0875
991.59999	3535.2875
995.33237	3559.8875
999.06217	3595.9875
1002.78939	3631.8875
1006.51404	3676.8875
1010.23611	3718.7875
1013.95561	3726.0875
1017.67255	3718.6875
1021.38692	3666.0875
1025.09872	3617.9875
1028.80796	3596.7875
1032.51465	3625.5875
1036.21877	3720.2875
1039.92035	3841.5875
1043.61937	3879.5875
1047.31584	3840.8875
1051.00976	3794.9875
1054.70114	3741.0875
1058.38998	3686.4875
1062.07627	3686.7875
1065.76003	3697.5875
1069.44126	3747.7875
1073.11995	3837.3875
1076.79611	3939.4875
1080.46974	3988.6875
1084.14085	3977.5875
1087.80943	3934.0875
1091.47549	3831.1875
1095.13903	3708.4875
1098.80005	3559.5875
1102.45857	3444.2875
1106.11456	3404.9875
1109.76805	3424.7875
1113.41903	3485.2875
1117.06751	3566.7875
1120.71348	3659.9875
1124.35696	3773.8875
1127.99793	3862.4875
1131.63641	3840.9875
1135.2724	3706.4875
1138.90589	3555.9875
1142.5369	3472.7875
1146.16542	3391.8875
1149.79145	3358.9875
1153.415	3364.3875
1157.03607	3389.6875
1160.65467	3467.2875
1164.27079	3589.5875
1167.88443	3769.4875
1171.49561	4038.4875
1175.10432	4480.1875
1178.71056	5036.3875
1182.31434	5444.4875
1185.91565	5571.2875
1189.51451	5449.3875
1193.11091	5214.5875
1196.70485	4888.7875
1200.29634	4584.8875
1203.88538	4290.0875
1207.47197	3995.8875
1211.05612	3778.5875
1214.63782	3687.6875
1218.21708	3669.6875
1221.79391	3690.6875
1225.36829	3724.4875
1228.94024	3728.8875
1232.50976	3723.4875
1236.07685	3716.9875
1239.6415	3701.1875
1243.20374	3699.5875
1246.76355	3718.0875
1250.32093	3739.1875
1253.8759	3801.7875
1257.42845	3912.9875
1260.97859	4000.4875
1264.52631	4138.0875
1268.07163	4235.2875
1271.61453	4324.7875
1275.15503	4387.0875
1278.69312	4402.4875
1282.22882	4435.2875
1285.76211	4544.0875
1289.29301	4688.7875
1292.82151	4861.1875
1296.34761	5009.3875
1299.87133	5187.8875
1303.39266	5471.2875
1306.9116	5898.3875
1310.42815	6378.0875
1313.94233	6627.7875
1317.45412	6501.9875
1320.96354	6073.1875
1324.47058	5618.0875
1327.97525	5227.5875
1331.47754	5031.8875
1334.97747	5001.1875
1338.47502	5109.9875
1341.97022	5190.3875
1345.46305	5377.2875
1348.95352	5678.5875
1352.44163	6184.6875
1355.92738	6864.6875
1359.41078	7686.5875
1362.89183	8298.3875
1366.37053	8110.2875
1369.84688	7260.8875
1373.32088	6304.4875
1376.79254	5561.7875
1380.26186	5111.2875
1383.72883	4804.5875
1387.19347	4591.4875
1390.65578	4372.2875
1394.11575	4206.8875
1397.57339	4123.3875
1401.0287	4091.3875
1404.48168	4073.9875
1407.93234	4088.3875
1411.38068	4084.1875
1414.82669	4060.6875
1418.27039	3997.9875
1421.71177	3943.9875
1425.15083	3915.5875
1428.58758	3934.6875
1432.02203	4003.3875
1435.45416	4074.2875
1438.88399	4112.4875
1442.31151	4098.2875
1445.73673	4083.9875
1449.15965	4037.3875
1452.58027	3971.5875
1455.9986	3872.3875
1459.41463	3838.7875
1462.82837	3850.7875
1466.23982	3908.4875
1469.64898	3972.9875
1473.05586	4027.5875
1476.46045	4045.4875
1479.86276	4067.0875
1483.26279	4090.9875
1486.66054	4108.7875
1490.05602	4163.2875
1493.44922	4244.5875
1496.84016	4422.4875
1500.22882	4734.1875
1503.61521	5186.8875
1506.99934	5704.8875
1510.38121	6179.7875
1513.76081	6352.5875
1517.13816	6101.5875
1520.51324	5482.7875
1523.88607	4865.2875
1527.25665	4489.3875
1530.62498	4325.4875
1533.99105	4253.6875
1537.35488	4216.2875
1540.71647	4154.9875
1544.07581	4126.5875
1547.4329	4102.1875
1550.78776	4056.1875
1554.14038	4016.7875
1557.49077	3994.0875
1560.83892	4044.1875
1564.18484	4116.6875
1567.52853	4257.7875
1570.86999	4459.2875
1574.20922	4697.8875
1577.54624	4818.0875
1580.88103	4700.4875
1584.2136	4399.3875
1587.54395	4144.8875
1590.87208	4072.7875
1594.19801	4213.9875
1597.52172	4453.1875
1600.84321	4589.4875
1604.16251	4472.3875
1607.47959	4194.8875
1610.79447	3863.2875
1614.10715	3566.0875
1617.41763	3343.4875
1620.7259	3214.2875
1624.03199	3157.1875
1627.33587	3143.2875
1630.63757	3187.4875
1633.93707	3261.4875
1637.23439	3443.4875
1640.52951	3718.1875
1643.82246	4105.5875
1647.11321	4502.9875
1650.40179	4718.9875
1653.68819	4544.7875
1656.97241	4017.8875
1660.25446	3469.6875
1663.53433	3063.8875
1666.81203	2838.4875
1670.08756	2717.8875
1673.36092	2641.0875
1676.63211	2583.1875
1679.90115	2550.3875
1683.16801	2511.2875
1686.43272	2489.9875
1689.69527	2466.4875
1692.95567	2455.5875
1696.2139	2423.6875
1699.46999	2402.6875
1702.72392	2377.1875
1705.97571	2378.7875
1709.22535	2371.7875
1712.47284	2362.0875
1715.71819	2360.7875
1718.96139	2366.4875
1722.20246	2348.1875
1725.44139	2342.4875
1728.67818	2313.8875
1731.91284	2283.2875
1735.14537	2255.4875
1738.37576	2232.8875
1741.60403	2210.7875
1744.83017	2192.0875
1748.05418	2181.4875
1751.27607	2178.3875
1754.49584	2157.8875
1757.71349	2151.8875
1760.92903	2137.9875
1764.14244	2127.0875
1767.35375	2128.5875
1770.56294	2113.3875
1773.77002	2112.1875
1776.97499	2094.5875
1780.17785	2101.5875
1783.37861	2105.1875
1786.57727	2100.9875
1789.77382	2084.3875
1792.96828	2082.8875
1796.16064	2082.3875
1799.3509	2067.9875
1802.53907	2068.3875
1805.72514	2056.2875
1808.90913	2049.2875
1812.09102	2039.2875
1815.27083	2030.1875
1818.44856	2024.0875
1821.6242	2024.9875
1824.79776	2028.3875
1827.96924	2016.3875
1831.13864	2012.0875
1834.30597	2013.1875
1837.47122	2009.0875
1840.6344	1996.9875
1843.7955	1994.6875
1846.95454	1990.9875
1850.11151	1989.1875
1853.26642	1976.9875
1856.41926	1982.9875
1859.57004	1975.7875
1862.71876	1976.4875
1865.86542	1976.5875
1869.01003	1969.7875
1872.15258	1973.4875
1875.29308	1966.8875
1878.43152	1963.7875
1881.56792	1961.4875
1884.70227	1963.8875
1887.83457	1961.9875
1890.96482	1961.6875
1894.09304	1957.5875
1897.21921	1938.2875
1900.34335	1947.6875
1903.46544	1946.5875
1906.58551	1950.9875
1909.70353	1951.9875
1912.81953	1946.2875
1915.93349	1953.2875
1919.04543	1939.1875
1922.15534	1927.7875
1925.26322	1923.0875
1928.36908	1927.1875
1931.47292	1913.1875
1934.57473	1901.4875
1937.67453	1890.6875
1940.77232	1887.4875
1943.86808	1881.5875
1946.96184	1872.0875
1950.05358	1857.2875
1953.14331	1861.2875
1956.23103	1846.7875
1959.31675	1848.7875
1962.40046	1839.4875
1965.48217	1828.9875
1968.56188	1821.6875
1971.63959	1826.8875
1974.7153	1810.8875
1977.78901	1811.1875
1980.86073	1804.8875
1983.93046	1823.3875
1986.99819	1789.2875
1990.06394	1788.2875
1993.1277	1777.2875
1996.18947	1768.2875
1999.24925	1756.5875
2002.30706	1752.4875
2005.36288	1741.1875
2008.41672	1740.5875
2011.46859	1733.3875
2014.51848	1737.6875
2017.56639	1729.0875
2020.61233	1728.5875
2023.6563	1714.7875
2026.6983	1706.9875
2029.73833	1702.2875
2032.7764	1692.4875
2035.8125	1695.4875
2038.84664	1681.5875
2041.87881	1691.8875
2044.90903	1677.7875
2047.93729	1681.4875
2050.96359	1660.6875
2053.98794	1667.3875
2057.01034	1662.8875
2060.03078	1666.6875
2063.04927	1660.7875
2066.06582	1672.4875
2069.08042	1663.8875
2072.09307	1684.3875
2075.10378	1661.6875
2078.11255	1653.7875
2081.11938	1658.8875
2084.12426	1659.5875
2087.12722	1648.8875
2090.12824	1660.2875
2093.12732	1654.2875
2096.12447	1647.5875
2099.11969	1648.7875
2102.11299	1638.8875
2105.10435	1645.8875
2108.09379	1642.9875
2111.08131	1640.4875
2114.0669	1645.5875
2117.05057	1652.7875
2120.03233	1640.5875
2123.01216	1651.2875
2125.99008	1655.8875
2128.96609	1651.7875
2131.94018	1645.3875
2134.91236	1635.3875
2137.88263	1656.7875
2140.851	1651.5875
2143.81746	1649.5875
2146.78201	1646.7875
2149.74466	1653.8875
2152.7054	1641.5875
2155.66425	1647.1875
2158.6212	1640.5875
2161.57625	1646.5875
2164.52941	1634.7875
2167.48067	1640.9875
2170.43004	1631.2875
2173.37752	1638.1875
2176.32311	1635.6875
2179.26681	1627.6875
2182.20863	1639.0875
2185.14856	1638.0875
2188.08661	1630.6875
2191.02278	1630.5875
2193.95707	1639.9875
2196.88948	1632.9875
2199.82001	1630.2875
2202.74867	1612.8875
2205.67545	1610.0875
2208.60037	1598.6875
2211.52341	1603.6875
2214.44458	1599.4875
2217.36388	1591.3875
2220.28132	1589.6875
2223.1969	1587.7875
2226.11061	1579.6875
2229.02246	1571.0875
2231.93245	1568.9875
2234.84058	1562.3875
2237.74686	1572.2875
2240.65128	1565.5875
2243.55385	1567.1875
2246.45456	1556.0875
2249.35343	1558.6875
2252.25044	1562.4875
2255.14561	1554.7875
2258.03893	1544.1875
2260.93041	1557.2875
2263.82004	1539.9875
2266.70783	1538.0875
2269.59378	1533.0875
2272.4779	1530.7875
2275.36017	1523.3875
2278.24061	1515.6875
2281.11922	1511.7875
2283.996	1514.6875
2286.87094	1511.7875
2289.74405	1495.5875
2292.61534	1497.3875
2295.4848	1491.6875
2298.35243	1494.3875
2301.21824	1491.4875
2304.08223	1487.6875
2306.94439	1497.1875
2309.80474	1484.4875
2312.66327	1485.6875
2315.51999	1481.5875
2318.37489	1476.6875
2321.22797	1474.8875
2324.07925	1472.1875
2326.92871	1477.4875
2329.77637	1471.4875
2332.62222	1469.1875
2335.46626	1465.0875
2338.3085	1458.8875
2341.14893	1459.8875
2343.98756	1453.9875
2346.8244	1446.6875
2349.65943	1449.0875
2352.49267	1448.6875
2355.32411	1452.4875
2358.15376	1452.3875
2360.98161	1445.7875
2363.80768	1445.3875
2366.63195	1455.8875
2369.45444	1458.8875
2372.27514	1450.0875
2375.09405	1446.5875
2377.91118	1450.9875
2380.72652	1450.0875
2383.54009	1440.3875
2386.35187	1438.6875
2389.16188	1420.0875
2391.97011	1428.9875
2394.77657	1427.0875
2397.58125	1422.2875
2400.38416	1411.2875
2403.18529	1407.6875
2405.98466	1402.7875
2408.78226	1396.2875
2411.57809	1404.4875
2414.37216	1400.9875
2417.16446	1387.4875
2419.955	1391.5875
2422.74378	1389.5875
2425.5308	1385.0875
2428.31606	1390.4875
2431.09956	1388.5875
2433.88131	1380.4875
2436.6613	1385.4875
2439.43954	1385.3875
2442.21603	1385.1875
2444.99077	1368.5875
2447.76377	1386.4875
2450.53501	1376.6875
2453.30451	1379.2875
2456.07226	1373.3875
2458.83827	1366.9875
2461.60254	1363.9875
2464.36507	1362.1875
2467.12586	1371.0875
2469.88492	1369.8875
2472.64224	1372.0875
2475.39782	1366.5875
2478.15167	1365.9875
2480.90379	1365.9875
2483.65417	1371.3875
2486.40283	1362.9875
2489.14976	1374.7875
2491.89497	1365.5875
2494.63845	1378.1875
2497.3802	1375.6875
2500.12024	1369.2875
2502.85855	1366.7875
2505.59514	1371.4875
2508.33002	1352.0875
2511.06318	1348.9875
2513.79462	1350.7875
2516.52435	1344.7875
2519.25237	1345.6875
2521.97867	1341.7875
2524.70327	1345.3875
2527.42616	1344.0875
2530.14734	1343.8875
2532.86681	1340.6875
2535.58458	1338.8875
2538.30065	1337.0875
2541.01501	1332.0875
2543.72768	1337.3875
2546.43864	1332.5875
2549.14791	1339.6875
2551.85548	1332.8875
2554.56136	1337.8875
2557.26554	1326.9875
2559.96803	1332.1875
2562.66883	1337.9875
2565.36794	1327.2875
2568.06536	1325.2875
2570.7611	1334.1875
2573.45514	1334.6875
2576.14751	1320.7875
2578.83819	1333.6875
2581.52719	1325.0875
2584.21451	1321.8875
2586.90015	1327.0875
2589.58411	1318.7875
2592.2664	1318.3875
2594.94701	1318.2875
2597.62594	1318.0875
2600.30321	1318.4875
2602.9788	1320.8875
2605.65273	1321.4875
2608.32498	1317.4875
2610.99557	1318.5875
2613.66449	1318.8875
2616.33175	1318.6875
2618.99734	1310.8875
2621.66128	1312.1875
2624.32355	1315.3875
2626.98416	1309.5875
2629.64311	1311.4875
2632.30041	1317.0875
2634.95605	1312.0875
2637.61004	1314.8875
2640.26238	1314.3875
2642.91306	1311.0875
2645.56209	1314.8875
2648.20948	1314.6875
2650.85521	1313.3875
2653.4993	1324.9875
2656.14175	1326.5875
2658.78255	1336.9875
2661.42171	1334.1875
2664.05923	1343.9875
2666.6951	1341.4875
2669.32934	1360.6875
2671.96194	1360.8875
2674.59291	1367.3875
2677.22224	1366.1875
2679.84993	1364.7875
2682.476	1375.2875
2685.10043	1375.6875
2687.72324	1375.8875
2690.34441	1382.8875
2692.96396	1384.7875
2695.58188	1403.3875
2698.19818	1398.2875
2700.81285	1417.3875
2703.4259	1421.8875
2706.03733	1419.3875
2708.64714	1438.0875
2711.25533	1448.2875
2713.86191	1460.9875
2716.46687	1473.4875
2719.07021	1486.2875
2721.67194	1488.9875
2724.27206	1489.9875
2726.87057	1506.0875
2729.46747	1520.8875
2732.06276	1518.6875
2734.65644	1534.7875
2737.24852	1548.0875
2739.83899	1556.2875
2742.42786	1563.1875
2745.01513	1581.8875
2747.60079	1595.0875
2750.18486	1611.3875
2752.76733	1639.5875
2755.3482	1647.8875
2757.92747	1654.4875
2760.50515	1670.6875
2763.08123	1690.5875
2765.65573	1703.2875
2768.22863	1722.6875
2770.79994	1743.6875
2773.36967	1767.7875
2775.9378	1786.7875
2778.50435	1809.6875
2781.06932	1838.1875
2783.6327	1874.3875
2786.1945	1908.2875
2788.75471	1928.2875
2791.31335	1956.4875
2793.87041	2001.4875
2796.42589	2018.8875
2798.97979	2061.8875
2801.53212	2107.2875
2804.08288	2125.4875
2806.63206	2179.7875
2809.17967	2201.8875
2811.72571	2252.8875
2814.27018	2286.8875
2816.81308	2319.9875
2819.35442	2349.1875
2821.89419	2358.3875
2824.43239	2372.8875
2826.96904	2367.0875
2829.50412	2380.5875
2832.03763	2378.4875
2834.56959	2387.4875
2837.1	2400.6875
2839.62884	2406.7875
2842.15613	2443.3875
2844.68186	2488.6875
2847.20604	2551.1875
2849.72867	2602.4875
2852.24974	2633.1875
2854.76927	2627.1875
2857.28724	2601.3875
2859.80367	2595.1875
2862.31855	2586.3875
2864.83189	2570.3875
2867.34368	2536.0875
2869.85393	2521.2875
2872.36264	2485.1875
2874.8698	2459.5875
2877.37543	2450.0875
2879.87952	2426.4875
2882.38207	2408.0875
2884.88308	2393.5875
2887.38256	2385.5875
2889.88051	2368.4875
2892.37692	2351.7875
2894.8718	2344.2875
2897.36515	2330.7875
2899.85698	2322.3875
2902.34727	2309.5875
2904.83604	2289.2875
2907.32328	2291.8875
2909.809	2279.6875
2912.29319	2268.0875
2914.77587	2252.2875
2917.25702	2237.8875
2919.73665	2235.9875
2922.21476	2215.4875
2924.69136	2208.9875
2927.16644	2195.1875
2929.64	2177.9875
2932.11205	2143.8875
2934.58258	2118.6875
2937.05161	2078.4875
2939.51912	2029.1875
2941.98513	1982.6875
2944.44962	1910.3875
2946.91261	1847.9875
2949.37409	1797.7875
2951.83407	1747.0875
2954.29254	1709.5875
2956.74951	1655.0875
2959.20498	1622.4875
2961.65895	1598.0875
2964.11142	1569.4875
2966.56239	1532.1875
2969.01186	1505.8875
2971.45984	1492.3875
2973.90632	1474.6875
2976.35131	1440.0875
2978.7948	1427.3875
2981.23681	1406.4875
2983.67732	1396.6875
2986.11635	1378.1875
2988.55388	1356.2875
2990.98993	1349.8875
2993.4245	1330.4875
2995.85758	1318.9875
2998.28917	1300.9875
3000.71928	1301.0875
3003.14791	1280.2875
3005.57506	1269.2875
3008.00073	1262.5875
3010.42493	1254.6875
3012.84764	1256.1875
3015.26888	1253.1875
3017.68865	1260.6875
3020.10694	1251.7875
3022.52376	1253.5875
3024.9391	1255.5875
3027.35298	1255.0875
3029.76539	1248.5875
3032.17632	1245.7875
3034.5858	1251.0875
3036.9938	1247.9875
3039.40034	1239.6875
3041.80542	1245.4875
3044.20903	1241.2875
3046.61118	1249.4875
3049.01187	1252.7875
3051.4111	1231.4875
3053.80888	1246.6875
3056.20519	1256.5875
3058.60005	1247.6875
3060.99345	1259.2875
3063.3854	1251.0875
3065.7759	1251.5875
3068.16494	1268.3875
3070.55254	1263.5875
3072.93868	1268.1875
3075.32338	1264.2875
3077.70662	1261.8875
3080.08842	1257.6875
3082.46878	1257.4875
3084.84769	1255.7875
3087.22515	1255.4875
3089.60118	1264.5875
3091.97576	1268.3875
3094.3489	1268.1875
3096.72061	1265.0875
3099.09087	1269.5875
3101.4597	1272.1875
3103.82709	1275.3875
3106.19305	1279.7875
3108.55757	1287.8875
3110.92066	1278.7875
3113.28232	1284.7875
3115.64255	1293.1875
3118.00134	1297.9875
3120.35871	1304.1875
3122.71466	1306.8875
3125.06917	1313.8875
3127.42226	1317.9875
3129.77393	1328.0875
3132.12417	1327.3875
3134.47299	1342.0875
3136.82039	1345.9875
3139.16636	1354.6875
3141.51092	1355.4875
3143.85406	1380.1875
3146.19579	1380.9875
3148.53609	1395.4875
3150.87499	1406.4875
3153.21246	1409.0875
3155.54853	1421.0875
3157.88318	1418.5875
3160.21642	1433.5875
3162.54826	1433.7875
3164.87868	1437.3875
3167.2077	1453.1875
3169.5353	1461.9875
3171.86151	1468.3875
3174.18631	1470.2875
3176.5097	1475.8875
3178.83169	1479.9875
3181.15228	1480.1875
3183.47147	1492.8875
3185.78926	1498.2875
3188.10565	1497.8875
3190.42065	1511.6875
3192.73424	1522.2875
3195.04645	1532.3875
3197.35725	1535.6875
3199.66667	1535.7875
3201.97469	1532.5875
3204.28132	1546.5875
3206.58656	1550.4875
3208.8904	1571.0875
3211.19287	1570.3875
3213.49394	1572.4875
3215.79363	1582.5875
3218.09193	1580.8875
3220.38884	1582.9875
3222.68438	1588.2875
3224.97853	1589.7875
3227.2713	1590.9875
3229.56269	1592.2875
3231.8527	1599.9875
3234.14133	1599.0875
3236.42858	1603.4875
3238.71446	1612.1875
3240.99896	1607.4875
3243.28209	1611.3875
3245.56384	1625.7875
3247.84423	1615.3875
3250.12324	1627.6875
3252.40088	1628.1875
3254.67715	1632.5875
3256.95205	1629.8875
3259.22558	1638.8875
3261.49775	1643.9875
3263.76855	1641.4875
3266.03799	1643.9875
3268.30606	1652.8875
3270.57277	1660.6875
3272.83812	1662.5875
3275.10211	1654.5875
3277.36474	1652.9875
3279.62601	1658.3875
3281.88593	1659.5875
3284.14448	1666.4875
3286.40168	1655.8875
3288.65753	1655.0875
3290.91202	1648.3875
3293.16516	1628.5875
3295.41695	1639.2875
3297.66738	1618.8875
3299.91647	1613.9875
3302.16421	1601.4875
3304.4106	1584.9875
3306.65564	1567.7875
3308.89933	1571.3875
3311.14169	1547.1875
3313.38269	1542.7875
3315.62236	1530.8875
3317.86068	1517.9875
3320.09766	1509.9875
3322.3333	1495.7875
3324.5676	1501.8875
3326.80056	1477.6875
3329.03219	1470.5875
3331.26248	0.1875
3333.49143	-0.3125
3335.71905	-0.6125
