Data from AgNP_FTO_APTES_CRN_2uM_R6G_10uM_NaF_0.1M_Addition_RamanShift__20__14-58-19-349.txt Node

Date: Wed Dec 15 14:58:19 GMT 2021
User: TCL
Spectrometer: QEP01345
Trigger mode: 4
Integration Time (sec): 7.000000E0
Scans to average: 10
Electric dark correction enabled: true
Nonlinearity correction enabled: false
Boxcar width: 0
XAxis mode: Raman Shifts
Number of Pixels in Spectrum: 1044
>>>>>Begin Spectral Data<<<<<
46.04893	1.3125
50.45542	-3.2875
54.85868	-1.4875
59.25871	-1.5875
63.6555	122.5125
68.04907	126.8125
72.43941	139.4125
76.82654	145.4125
81.21044	150.5125
85.59113	153.8125
89.96862	161.3125
94.34289	160.8125
98.71396	167.7125
103.08183	180.9125
107.4465	180.5125
111.80798	183.1125
116.16626	190.2125
120.52136	197.6125
124.87327	202.4125
129.222	212.5125
133.56755	223.7125
137.90993	243.9125
142.24913	264.9125
146.58517	294.3125
150.91804	334.9125
155.24774	398.2125
159.57429	497.4125
163.89768	632.9125
168.21792	825.4125
172.53501	1124.6125
176.84895	1560.0125
181.15975	2192.9125
185.46741	3053.3125
189.77193	4208.0125
194.07331	5610.8125
198.37157	7192.3125
202.6667	8880.9125
206.9587	10553.5125
211.24758	12173.2125
215.53334	13814.0125
219.81599	15568.4125
224.09553	17522.0125
228.37195	19728.5125
232.64527	22125.7125
236.91549	24593.7125
241.18261	27075.6125
245.44663	29377.1125
249.70755	31313.4125
253.96539	33082.9125
258.22014	34587.1125
262.4718	35803.6125
266.72039	36724.2125
270.96589	37203.9125
275.20832	37312.7125
279.44768	37101.5125
283.68397	36769.6125
287.91719	36493.2125
292.14735	36304.2125
296.37445	36343.2125
300.59849	36601.9125
304.81948	36855.6125
309.03742	36892.2125
313.25231	36620.7125
317.46415	35817.5125
321.67296	34737.6125
325.87872	33845.2125
330.08145	33397.7125
334.28114	33400.9125
338.47781	33688.3125
342.67145	34201.3125
346.86207	34796.7125
351.04966	35617.3125
355.23424	36542.9125
359.4158	37314.4125
363.59435	37829.2125
367.76989	38170.6125
371.94243	38311.0125
376.11196	38404.8125
380.27849	38431.3125
384.44203	38551.2125
388.60257	38665.0125
392.76012	39017.2125
396.91468	39476.8125
401.06626	40201.1125
405.21485	40661.7125
409.36047	40435.3125
413.50311	39789.6125
417.64277	39168.0125
421.77947	38977.9125
425.9132	39037.4125
430.04396	39268.4125
434.17176	39464.2125
438.2966	39826.0125
442.41849	40486.9125
446.53742	41474.5125
450.6534	42668.9125
454.76644	43660.1125
458.87653	44027.1125
462.98368	43846.7125
467.08789	43294.4125
471.18916	42565.0125
475.2875	41868.7125
479.38291	41366.1125
483.4754	40931.6125
487.56496	40446.3125
491.6516	40009.3125
495.73531	39593.8125
499.81612	39554.7125
503.89401	39902.1125
507.96899	40104.2125
512.04106	40188.9125
516.11023	40097.5125
520.1765	39908.6125
524.23987	39631.0125
528.30034	39329.7125
532.35792	38912.2125
536.41261	38302.8125
540.46441	37754.3125
544.51333	37650.3125
548.55936	38102.9125
552.60252	38847.3125
556.64279	39712.3125
560.6802	40120.6125
564.71473	40442.3125
568.7464	41046.5125
572.7752	41940.7125
576.80114	42662.9125
580.82422	43434.1125
584.84444	44201.5125
588.86181	44840.1125
592.87633	45643.7125
596.888	46324.7125
600.89682	46902.0125
604.9028	48890.5125
608.90594	53427.2125
612.90624	57541.2125
616.90371	53556.1125
620.89834	44470.3125
624.89015	40700.4125
628.87913	40497.6125
632.86528	40516.1125
636.84862	40240.6125
640.82913	39453.1125
644.80683	38186.7125
648.78172	37337.2125
652.75379	37223.2125
656.72306	37793.4125
660.68952	38478.4125
664.65319	38284.1125
668.61405	37545.1125
672.57211	37264.0125
676.52738	37247.1125
680.47986	37170.8125
684.42955	36958.7125
688.37646	36891.2125
692.32058	37124.0125
696.26192	37562.4125
700.20048	38064.0125
704.13626	38290.5125
708.06928	38213.0125
711.99952	37947.5125
715.927	37939.1125
719.85171	38010.6125
723.77365	37854.9125
727.69284	37377.9125
731.60928	36949.3125
735.52295	36743.1125
739.43388	36760.9125
743.34206	36890.6125
747.24749	37100.1125
751.15017	37506.7125
755.05012	38238.6125
758.94733	39419.4125
762.8418	41654.6125
766.73354	45226.1125
770.62254	48464.5125
774.50882	49140.5125
778.39237	46588.8125
782.27321	42857.5125
786.15132	39855.0125
790.02671	38130.8125
793.89938	37327.6125
797.76935	37067.0125
801.6366	37015.3125
805.50115	36971.7125
809.36299	36660.8125
813.22213	36321.4125
817.07857	36147.4125
820.93231	36014.0125
824.78336	35942.5125
828.63172	35865.0125
832.47738	35961.7125
836.32036	36078.7125
840.16066	36328.5125
843.99827	36472.1125
847.8332	36422.6125
851.66546	36173.8125
855.49504	36096.9125
859.32195	36030.2125
863.1462	35892.0125
866.96777	35689.9125
870.78668	35567.9125
874.60293	35529.0125
878.41652	35565.3125
882.22745	35692.1125
886.03573	35764.1125
889.84136	35723.1125
893.64433	35560.4125
897.44466	35381.6125
901.24235	35365.2125
905.0374	35233.8125
908.8298	35217.6125
912.61957	35307.4125
916.40671	35704.6125
920.19121	36329.4125
923.97308	36893.5125
927.75233	37164.5125
931.52895	36977.1125
935.30295	36460.2125
939.07433	35675.6125
942.84309	35143.7125
946.60924	34968.3125
950.37278	34899.5125
954.13371	34714.3125
957.89203	34471.0125
961.64774	34369.8125
965.40086	34307.4125
969.15137	34230.7125
972.89929	34087.8125
976.64461	34069.2125
980.38733	34218.3125
984.12747	34397.7125
987.86502	34771.5125
991.59999	35418.7125
995.33237	36236.5125
999.06217	37588.0125
1002.78939	39072.9125
1006.51404	39960.6125
1010.23611	40437.2125
1013.95561	40732.1125
1017.67255	40606.9125
1021.38692	39950.6125
1025.09872	39583.4125
1028.80796	40103.5125
1032.51465	41685.8125
1036.21877	43164.7125
1039.92035	43406.5125
1043.61937	42566.2125
1047.31584	41254.7125
1051.00976	39826.5125
1054.70114	39100.4125
1058.38998	39082.8125
1062.07627	39460.2125
1065.76003	39906.7125
1069.44126	40694.3125
1073.11995	41681.2125
1076.79611	42521.4125
1080.46974	42921.9125
1084.14085	42965.3125
1087.80943	43016.8125
1091.47549	42910.1125
1095.13903	42528.5125
1098.80005	41674.3125
1102.45857	40710.6125
1106.11456	40032.3125
1109.76805	39793.0125
1113.41903	39935.2125
1117.06751	40182.2125
1120.71348	40564.5125
1124.35696	40955.8125
1127.99793	41419.2125
1131.63641	41648.1125
1135.2724	41439.1125
1138.90589	41187.6125
1142.5369	41034.9125
1146.16542	40962.2125
1149.79145	40970.8125
1153.415	41336.5125
1157.03607	41961.3125
1160.65467	43043.1125
1164.27079	44847.0125
1167.88443	47378.2125
1171.49561	50562.0125
1175.10432	54774.0125
1178.71056	60039.6125
1182.31434	64890.0125
1185.91565	67330.0125
1189.51451	66838.4125
1193.11091	64043.0125
1196.70485	60658.8125
1200.29634	57550.6125
1203.88538	55455.7125
1207.47197	53995.2125
1211.05612	52994.2125
1214.63782	52135.0125
1218.21708	51619.7125
1221.79391	51319.2125
1225.36829	51170.0125
1228.94024	50619.9125
1232.50976	49692.9125
1236.07685	48850.0125
1239.6415	48487.3125
1243.20374	48446.4125
1246.76355	48740.7125
1250.32093	49555.0125
1253.8759	50811.4125
1257.42845	52436.6125
1260.97859	54005.8125
1264.52631	55597.6125
1268.07163	57212.9125
1271.61453	59054.2125
1275.15503	61114.4125
1278.69312	63208.7125
1282.22882	64929.7125
1285.76211	66285.7125
1289.29301	67723.5125
1292.82151	69536.0125
1296.34761	72213.9125
1299.87133	76130.0125
1303.39266	81016.4125
1306.9116	86714.1125
1310.42815	92213.9125
1313.94233	95586.4125
1317.45412	95711.9125
1320.96354	93593.9125
1324.47058	91088.0125
1327.97525	88764.0125
1331.47754	87118.4125
1334.97747	86183.1125
1338.47502	85900.2125
1341.97022	85504.6125
1345.46305	84513.8125
1348.95352	83204.7125
1352.44163	82683.9125
1355.92738	84200.7125
1359.41078	88447.3125
1362.89183	92380.5125
1366.37053	90871.9125
1369.84688	83387.0125
1373.32088	74429.3125
1376.79254	68140.0125
1380.26186	65469.0125
1383.72883	64812.5125
1387.19347	64368.0125
1390.65578	63514.6125
1394.11575	62830.4125
1397.57339	63165.7125
1401.0287	64451.2125
1404.48168	65582.2125
1407.93234	66116.2125
1411.38068	65599.0125
1414.82669	64045.8125
1418.27039	61676.4125
1421.71177	59229.1125
1425.15083	57141.7125
1428.58758	55958.5125
1432.02203	56058.1125
1435.45416	57238.0125
1438.88399	58941.6125
1442.31151	60400.3125
1445.73673	61527.3125
1449.15965	62311.8125
1452.58027	62742.4125
1455.9986	62807.5125
1459.41463	63159.3125
1462.82837	64264.4125
1466.23982	65877.3125
1469.64898	67297.4125
1473.05586	68204.2125
1476.46045	68380.1125
1479.86276	68064.3125
1483.26279	67401.4125
1486.66054	66815.0125
1490.05602	66651.9125
1493.44922	66891.0125
1496.84016	67378.1125
1500.22882	68538.2125
1503.61521	70732.1125
1506.99934	73408.8125
1510.38121	75761.3125
1513.76081	76695.6125
1517.13816	75098.4125
1520.51324	71922.3125
1523.88607	68809.4125
1527.25665	66858.4125
1530.62498	65882.7125
1533.99105	65399.8125
1537.35488	64907.9125
1540.71647	64239.5125
1544.07581	63391.7125
1547.4329	62255.4125
1550.78776	61302.0125
1554.14038	60525.0125
1557.49077	60113.8125
1560.83892	59906.7125
1564.18484	59888.8125
1567.52853	60030.3125
1570.86999	60736.7125
1574.20922	62113.8125
1577.54624	63424.5125
1580.88103	64089.6125
1584.2136	64634.5125
1587.54395	65778.1125
1590.87208	68170.7125
1594.19801	72082.8125
1597.52172	76198.4125
1600.84321	77458.7125
1604.16251	73982.3125
1607.47959	68018.7125
1610.79447	61931.7125
1614.10715	56421.0125
1617.41763	51986.2125
1620.7259	48990.4125
1624.03199	47466.5125
1627.33587	47530.4125
1630.63757	49064.7125
1633.93707	52141.2125
1637.23439	57210.3125
1640.52951	63959.1125
1643.82246	71298.5125
1647.11321	76730.9125
1650.40179	77371.1125
1653.68819	71936.2125
1656.97241	62693.8125
1660.25446	53666.5125
1663.53433	46977.3125
1666.81203	42595.5125
1670.08756	39822.5125
1673.36092	38097.6125
1676.63211	36924.2125
1679.90115	36113.1125
1683.16801	35459.6125
1686.43272	35073.8125
1689.69527	34755.8125
1692.95567	34457.0125
1696.2139	34294.9125
1699.46999	34216.2125
1702.72392	34116.2125
1705.97571	34020.6125
1709.22535	33914.2125
1712.47284	33878.0125
1715.71819	33817.3125
1718.96139	33726.1125
1722.20246	33579.9125
1725.44139	33442.2125
1728.67818	33276.0125
1731.91284	33022.7125
1735.14537	32822.9125
1738.37576	32641.2125
1741.60403	32586.6125
1744.83017	32471.3125
1748.05418	32371.5125
1751.27607	32343.2125
1754.49584	32255.9125
1757.71349	32219.7125
1760.92903	32181.2125
1764.14244	32168.7125
1767.35375	32132.7125
1770.56294	32149.8125
1773.77002	32021.0125
1776.97499	32050.5125
1780.17785	31980.2125
1783.37861	31887.4125
1786.57727	31887.4125
1789.77382	31808.7125
1792.96828	31742.1125
1796.16064	31724.2125
1799.3509	31638.2125
1802.53907	31606.5125
1805.72514	31461.7125
1808.90913	31450.1125
1812.09102	31386.8125
1815.27083	31315.1125
1818.44856	31251.0125
1821.6242	31250.5125
1824.79776	31163.0125
1827.96924	31155.7125
1831.13864	31168.4125
1834.30597	31197.8125
1837.47122	31178.7125
1840.6344	31162.6125
1843.7955	31191.4125
1846.95454	31203.9125
1850.11151	31191.9125
1853.26642	31156.3125
1856.41926	31222.8125
1859.57004	31163.1125
1862.71876	31088.1125
1865.86542	31124.8125
1869.01003	31082.3125
1872.15258	31109.0125
1875.29308	31164.1125
1878.43152	31077.0125
1881.56792	31091.6125
1884.70227	31107.2125
1887.83457	31104.4125
1890.96482	31102.3125
1894.09304	31061.3125
1897.21921	31057.7125
1900.34335	31052.1125
1903.46544	31009.4125
1906.58551	31054.0125
1909.70353	30983.1125
1912.81953	30962.4125
1915.93349	30933.6125
1919.04543	30847.1125
1922.15534	30832.0125
1925.26322	30755.2125
1928.36908	30645.8125
1931.47292	30603.4125
1934.57473	30515.8125
1937.67453	30427.3125
1940.77232	30314.1125
1943.86808	30211.7125
1946.96184	30082.4125
1950.05358	30021.1125
1953.14331	29928.3125
1956.23103	29818.9125
1959.31675	29777.6125
1962.40046	29674.8125
1965.48217	29587.3125
1968.56188	29487.3125
1971.63959	29398.2125
1974.7153	29347.6125
1977.78901	29274.2125
1980.86073	29177.4125
1983.93046	29111.6125
1986.99819	28998.5125
1990.06394	28939.5125
1993.1277	28854.8125
1996.18947	28822.3125
1999.24925	28672.5125
2002.30706	28548.7125
2005.36288	28540.0125
2008.41672	28461.2125
2011.46859	28352.5125
2014.51848	28345.8125
2017.56639	28304.9125
2020.61233	28208.9125
2023.6563	28187.6125
2026.6983	28143.2125
2029.73833	28090.6125
2032.7764	28039.6125
2035.8125	28012.6125
2038.84664	27971.3125
2041.87881	27941.1125
2044.90903	27931.0125
2047.93729	27857.5125
2050.96359	27852.7125
2053.98794	27843.8125
2057.01034	27814.9125
2060.03078	27805.2125
2063.04927	27762.1125
2066.06582	27773.0125
2069.08042	27734.0125
2072.09307	27718.8125
2075.10378	27679.9125
2078.11255	27626.5125
2081.11938	27647.4125
2084.12426	27598.5125
2087.12722	27617.9125
2090.12824	27583.0125
2093.12732	27655.0125
2096.12447	27583.7125
2099.11969	27577.2125
2102.11299	27604.5125
2105.10435	27563.7125
2108.09379	27680.9125
2111.08131	27698.1125
2114.0669	27648.5125
2117.05057	27631.2125
2120.03233	27679.4125
2123.01216	27744.9125
2125.99008	27713.0125
2128.96609	27726.8125
2131.94018	27778.4125
2134.91236	27835.4125
2137.88263	27838.3125
2140.851	27824.5125
2143.81746	27851.3125
2146.78201	27873.8125
2149.74466	27897.2125
2152.7054	27923.2125
2155.66425	27939.1125
2158.6212	27922.0125
2161.57625	27897.4125
2164.52941	27902.3125
2167.48067	27903.9125
2170.43004	27886.0125
2173.37752	27892.0125
2176.32311	27869.4125
2179.26681	27874.7125
2182.20863	27876.8125
2185.14856	27922.1125
2188.08661	27895.6125
2191.02278	27917.9125
2193.95707	27906.0125
2196.88948	27916.4125
2199.82001	27926.2125
2202.74867	27867.4125
2205.67545	27924.0125
2208.60037	27885.8125
2211.52341	27879.9125
2214.44458	27886.9125
2217.36388	27844.4125
2220.28132	27846.7125
2223.1969	27786.9125
2226.11061	27813.7125
2229.02246	27745.2125
2231.93245	27696.1125
2234.84058	27549.8125
2237.74686	27511.8125
2240.65128	27473.5125
2243.55385	27456.3125
2246.45456	27403.6125
2249.35343	27349.6125
2252.25044	27320.8125
2255.14561	27234.0125
2258.03893	27260.5125
2260.93041	27236.8125
2263.82004	27166.5125
2266.70783	27105.8125
2269.59378	27054.7125
2272.4779	26994.3125
2275.36017	26934.7125
2278.24061	26880.7125
2281.11922	26829.5125
2283.996	26818.1125
2286.87094	26773.9125
2289.74405	26774.6125
2292.61534	26709.1125
2295.4848	26674.7125
2298.35243	26743.7125
2301.21824	26749.9125
2304.08223	26748.3125
2306.94439	26796.7125
2309.80474	26830.1125
2312.66327	26846.7125
2315.51999	26855.5125
2318.37489	26847.5125
2321.22797	26815.0125
2324.07925	26843.6125
2326.92871	26800.0125
2329.77637	26786.1125
2332.62222	26817.4125
2335.46626	26796.6125
2338.3085	26799.4125
2341.14893	26837.4125
2343.98756	26873.4125
2346.8244	26880.8125
2349.65943	26886.9125
2352.49267	26849.3125
2355.32411	26873.3125
2358.15376	26783.8125
2360.98161	26793.4125
2363.80768	26798.4125
2366.63195	26741.1125
2369.45444	26695.0125
2372.27514	26617.6125
2375.09405	26573.1125
2377.91118	26505.6125
2380.72652	26496.7125
2383.54009	26428.9125
2386.35187	26346.1125
2389.16188	26309.3125
2391.97011	26335.5125
2394.77657	26277.1125
2397.58125	26266.0125
2400.38416	26242.1125
2403.18529	26152.9125
2405.98466	26149.2125
2408.78226	26034.2125
2411.57809	26015.9125
2414.37216	25963.6125
2417.16446	25934.9125
2419.955	25874.4125
2422.74378	25892.8125
2425.5308	25827.8125
2428.31606	25862.4125
2431.09956	25848.9125
2433.88131	25851.3125
2436.6613	25833.9125
2439.43954	25807.4125
2442.21603	25806.6125
2444.99077	25777.7125
2447.76377	25764.8125
2450.53501	25772.7125
2453.30451	25818.1125
2456.07226	25794.9125
2458.83827	25761.3125
2461.60254	25775.5125
2464.36507	25756.6125
2467.12586	25797.5125
2469.88492	25792.3125
2472.64224	25784.0125
2475.39782	25834.8125
2478.15167	25848.2125
2480.90379	25837.8125
2483.65417	25885.8125
2486.40283	25900.4125
2489.14976	25929.0125
2491.89497	25920.1125
2494.63845	25959.3125
2497.3802	25939.3125
2500.12024	25954.1125
2502.85855	25983.4125
2505.59514	25963.9125
2508.33002	25955.0125
2511.06318	25904.0125
2513.79462	25892.7125
2516.52435	25882.9125
2519.25237	25826.9125
2521.97867	25793.8125
2524.70327	25832.4125
2527.42616	25779.5125
2530.14734	25786.1125
2532.86681	25760.7125
2535.58458	25741.9125
2538.30065	25708.3125
2541.01501	25757.3125
2543.72768	25757.4125
2546.43864	25724.8125
2549.14791	25699.4125
2551.85548	25700.9125
2554.56136	25659.8125
2557.26554	25664.2125
2559.96803	25633.8125
2562.66883	25589.3125
2565.36794	25620.3125
2568.06536	25613.7125
2570.7611	25604.7125
2573.45514	25548.0125
2576.14751	25568.7125
2578.83819	25563.9125
2581.52719	25595.5125
2584.21451	25588.5125
2586.90015	25544.0125
2589.58411	25555.2125
2592.2664	25542.6125
2594.94701	25518.5125
2597.62594	25525.3125
2600.30321	25524.3125
2602.9788	25550.4125
2605.65273	25474.8125
2608.32498	25486.7125
2610.99557	25473.6125
2613.66449	25493.7125
2616.33175	25503.4125
2618.99734	25512.3125
2621.66128	25517.8125
2624.32355	25519.7125
2626.98416	25533.6125
2629.64311	25534.9125
2632.30041	25538.3125
2634.95605	25507.9125
2637.61004	25515.1125
2640.26238	25478.0125
2642.91306	25458.1125
2645.56209	25436.4125
2648.20948	25407.8125
2650.85521	25396.6125
2653.4993	25342.2125
2656.14175	25378.4125
2658.78255	25396.3125
2661.42171	25413.5125
2664.05923	25438.1125
2666.6951	25461.6125
2669.32934	25440.6125
2671.96194	25447.6125
2674.59291	25453.9125
2677.22224	25448.9125
2679.84993	25447.3125
2682.476	25367.9125
2685.10043	25375.0125
2687.72324	25333.5125
2690.34441	25301.2125
2692.96396	25321.9125
2695.58188	25321.4125
2698.19818	25295.6125
2700.81285	25292.6125
2703.4259	25281.9125
2706.03733	25355.6125
2708.64714	25337.3125
2711.25533	25373.1125
2713.86191	25368.4125
2716.46687	25445.2125
2719.07021	25423.6125
2721.67194	25431.0125
2724.27206	25412.3125
2726.87057	25420.6125
2729.46747	25445.2125
2732.06276	25466.9125
2734.65644	25438.3125
2737.24852	25491.3125
2739.83899	25442.4125
2742.42786	25433.2125
2745.01513	25406.9125
2747.60079	25396.4125
2750.18486	25387.2125
2752.76733	25403.2125
2755.3482	25429.2125
2757.92747	25426.7125
2760.50515	25378.8125
2763.08123	25379.5125
2765.65573	25341.6125
2768.22863	25338.9125
2770.79994	25312.4125
2773.36967	25312.5125
2775.9378	25291.9125
2778.50435	25335.8125
2781.06932	25267.0125
2783.6327	25316.3125
2786.1945	25317.3125
2788.75471	25283.6125
2791.31335	25183.4125
2793.87041	25202.1125
2796.42589	25124.9125
2798.97979	25123.2125
2801.53212	25081.8125
2804.08288	25088.3125
2806.63206	24987.2125
2809.17967	24953.0125
2811.72571	24919.8125
2814.27018	24879.8125
2816.81308	24861.7125
2819.35442	24806.4125
2821.89419	24802.5125
2824.43239	24831.8125
2826.96904	24775.9125
2829.50412	24765.8125
2832.03763	24733.2125
2834.56959	24718.2125
2837.1	24652.7125
2839.62884	24640.9125
2842.15613	24637.7125
2844.68186	24634.6125
2847.20604	24525.0125
2849.72867	24543.1125
2852.24974	24534.5125
2854.76927	24530.3125
2857.28724	24503.6125
2859.80367	24501.7125
2862.31855	24456.2125
2864.83189	24429.0125
2867.34368	24436.6125
2869.85393	24438.2125
2872.36264	24434.2125
2874.8698	24441.7125
2877.37543	24470.9125
2879.87952	24503.2125
2882.38207	24454.6125
2884.88308	24478.4125
2887.38256	24453.0125
2889.88051	24438.5125
2892.37692	24487.7125
2894.8718	24491.3125
2897.36515	24491.4125
2899.85698	24546.4125
2902.34727	24589.5125
2904.83604	24596.5125
2907.32328	24618.1125
2909.809	24693.1125
2912.29319	24703.9125
2914.77587	24720.4125
2917.25702	24689.7125
2919.73665	24668.9125
2922.21476	24740.3125
2924.69136	24708.1125
2927.16644	24640.0125
2929.64	24618.8125
2932.11205	24539.0125
2934.58258	24429.6125
2937.05161	24481.0125
2939.51912	24561.5125
2941.98513	24501.0125
2944.44962	24444.4125
2946.91261	24379.2125
2949.37409	24416.4125
2951.83407	24403.6125
2954.29254	24373.2125
2956.74951	24304.0125
2959.20498	24317.6125
2961.65895	24306.3125
2964.11142	24289.6125
2966.56239	24238.4125
2969.01186	24227.6125
2971.45984	24130.8125
2973.90632	24097.4125
2976.35131	24031.4125
2978.7948	23977.9125
2981.23681	23964.9125
2983.67732	23927.7125
2986.11635	23875.9125
2988.55388	23778.2125
2990.98993	23709.1125
2993.4245	23713.5125
2995.85758	23636.4125
2998.28917	23605.2125
3000.71928	23553.4125
3003.14791	23527.3125
3005.57506	23488.5125
3008.00073	23432.2125
3010.42493	23416.3125
3012.84764	23400.1125
3015.26888	23394.9125
3017.68865	23317.8125
3020.10694	23310.9125
3022.52376	23277.8125
3024.9391	23239.5125
3027.35298	23233.1125
3029.76539	23206.7125
3032.17632	23157.7125
3034.5858	23130.9125
3036.9938	23121.2125
3039.40034	23100.8125
3041.80542	23076.5125
3044.20903	22980.4125
3046.61118	22992.9125
3049.01187	22943.8125
3051.4111	22923.5125
3053.80888	22860.3125
3056.20519	22825.1125
3058.60005	22777.9125
3060.99345	22738.8125
3063.3854	22728.5125
3065.7759	22607.9125
3068.16494	22622.8125
3070.55254	22571.7125
3072.93868	22516.4125
3075.32338	22432.2125
3077.70662	22415.1125
3080.08842	22366.4125
3082.46878	22341.4125
3084.84769	22303.5125
3087.22515	22281.5125
3089.60118	22289.4125
3091.97576	22269.5125
3094.3489	22226.4125
3096.72061	22233.1125
3099.09087	22228.8125
3101.4597	22198.7125
3103.82709	22172.7125
3106.19305	22128.6125
3108.55757	22131.6125
3110.92066	22018.6125
3113.28232	22026.5125
3115.64255	21963.5125
3118.00134	21937.4125
3120.35871	21948.9125
3122.71466	21905.6125
3125.06917	21864.0125
3127.42226	21843.2125
3129.77393	21807.6125
3132.12417	21779.3125
3134.47299	21787.3125
3136.82039	21767.9125
3139.16636	21786.3125
3141.51092	21748.1125
3143.85406	21739.6125
3146.19579	21719.6125
3148.53609	21743.8125
3150.87499	21755.4125
3153.21246	21732.8125
3155.54853	21766.1125
3157.88318	21726.4125
3160.21642	21747.6125
3162.54826	21719.0125
3164.87868	21678.7125
3167.2077	21638.9125
3169.5353	21655.0125
3171.86151	21656.7125
3174.18631	21622.6125
3176.5097	21592.0125
3178.83169	21555.6125
3181.15228	21553.6125
3183.47147	21511.5125
3185.78926	21565.2125
3188.10565	21500.5125
3190.42065	21491.1125
3192.73424	21488.9125
3195.04645	21519.0125
3197.35725	21540.1125
3199.66667	21486.3125
3201.97469	21558.6125
3204.28132	21467.5125
3206.58656	21494.6125
3208.8904	21469.6125
3211.19287	21492.3125
3213.49394	21473.1125
3215.79363	21480.4125
3218.09193	21511.9125
3220.38884	21482.5125
3222.68438	21513.8125
3224.97853	21507.1125
3227.2713	21446.3125
3229.56269	21425.2125
3231.8527	21407.3125
3234.14133	21408.4125
3236.42858	21346.6125
3238.71446	21345.9125
3240.99896	21286.1125
3243.28209	21279.8125
3245.56384	21284.9125
3247.84423	21278.8125
3250.12324	21273.8125
3252.40088	21200.6125
3254.67715	21184.7125
3256.95205	21162.0125
3259.22558	21144.3125
3261.49775	21090.2125
3263.76855	21047.3125
3266.03799	21023.3125
3268.30606	21025.0125
3270.57277	20991.8125
3272.83812	20946.4125
3275.10211	20945.9125
3277.36474	20914.9125
3279.62601	20950.1125
3281.88593	20922.2125
3284.14448	20951.2125
3286.40168	20914.5125
3288.65753	20875.3125
3290.91202	20835.9125
3293.16516	20783.7125
3295.41695	20761.6125
3297.66738	20634.2125
3299.91647	20513.3125
3302.16421	20462.3125
3304.4106	20367.5125
3306.65564	20282.8125
3308.89933	20148.1125
3311.14169	20007.6125
3313.38269	19843.7125
3315.62236	19739.0125
3317.86068	19595.8125
3320.09766	19407.7125
3322.3333	19243.6125
3324.5676	19249.5125
3326.80056	18927.7125
3329.03219	18850.8125
3331.26248	6.1125
3333.49143	-1.1875
3335.71905	0.9125
