Data from AgNP_FTO_APTES_CRN_10uM_R6G_10uM_NaF_0.1M_Addition_RamanShift__28__16-47-37-988.txt Node

Date: Wed Dec 15 16:47:37 GMT 2021
User: TCL
Spectrometer: QEP01345
Trigger mode: 4
Integration Time (sec): 7.000000E0
Scans to average: 10
Electric dark correction enabled: true
Nonlinearity correction enabled: false
Boxcar width: 0
XAxis mode: Raman Shifts
Number of Pixels in Spectrum: 1044
>>>>>Begin Spectral Data<<<<<
46.04893	2.0375
50.45542	-2.3625
54.85868	-1.5625
59.25871	-0.3625
63.6555	77.6375
68.04907	83.5375
72.43941	89.3375
76.82654	91.5375
81.21044	96.7375
85.59113	99.8375
89.96862	104.0375
94.34289	105.8375
98.71396	108.1375
103.08183	115.3375
107.4465	117.4375
111.80798	119.6375
116.16626	125.1375
120.52136	125.7375
124.87327	129.2375
129.222	135.6375
133.56755	141.4375
137.90993	152.3375
142.24913	167.5375
146.58517	180.2375
150.91804	213.3375
155.24774	250.8375
159.57429	309.8375
163.89768	385.0375
168.21792	507.2375
172.53501	681.4375
176.84895	948.1375
181.15975	1326.6375
185.46741	1854.6375
189.77193	2550.0375
194.07331	3403.1375
198.37157	4379.1375
202.6667	5441.6375
206.9587	6460.1375
211.24758	7481.1375
215.53334	8518.4375
219.81599	9680.2375
224.09553	10951.7375
228.37195	12402.4375
232.64527	13889.4375
236.91549	15491.5375
241.18261	17021.2375
245.44663	18318.9375
249.70755	19412.2375
253.96539	20346.3375
258.22014	21203.8375
262.4718	21960.4375
266.72039	22525.5375
270.96589	22876.8375
275.20832	22971.9375
279.44768	22802.7375
283.68397	22556.6375
287.91719	22405.4375
292.14735	22505.5375
296.37445	22798.5375
300.59849	23298.3375
304.81948	23865.3375
309.03742	24203.6375
313.25231	24050.9375
317.46415	23146.1375
321.67296	21842.6375
325.87872	20643.3375
330.08145	20106.5375
334.28114	20009.2375
338.47781	20286.1375
342.67145	20715.6375
346.86207	21401.2375
351.04966	22332.1375
355.23424	23440.3375
359.4158	24271.1375
363.59435	24627.0375
367.76989	24713.6375
371.94243	24723.8375
376.11196	24611.8375
380.27849	24480.8375
384.44203	24329.9375
388.60257	24166.2375
392.76012	24144.9375
396.91468	24401.0375
401.06626	24903.7375
405.21485	25259.9375
409.36047	24959.7375
413.50311	24020.0375
417.64277	23127.2375
421.77947	22636.6375
425.9132	22494.0375
430.04396	22523.5375
434.17176	22627.3375
438.2966	22881.4375
442.41849	23351.5375
446.53742	23933.3375
450.6534	24581.7375
454.76644	25072.3375
458.87653	25216.6375
462.98368	25063.8375
467.08789	24783.8375
471.18916	24346.2375
475.2875	23868.9375
479.38291	23407.8375
483.4754	23095.7375
487.56496	22792.4375
491.6516	22515.1375
495.73531	22405.4375
499.81612	22398.6375
503.89401	22580.2375
507.96899	22819.3375
512.04106	23113.6375
516.11023	23438.8375
520.1765	23716.0375
524.23987	23837.2375
528.30034	23561.7375
532.35792	23170.6375
536.41261	22596.6375
540.46441	22100.4375
544.51333	21891.0375
548.55936	22005.3375
552.60252	22440.5375
556.64279	22921.5375
560.6802	23191.1375
564.71473	23391.2375
568.7464	23972.1375
572.7752	24453.4375
576.80114	24213.1375
580.82422	23776.8375
584.84444	23664.3375
588.86181	23657.3375
592.87633	23887.7375
596.888	24331.0375
600.89682	25093.8375
604.9028	27175.5375
608.90594	32437.4375
612.90624	38973.5375
616.90371	37442.8375
620.89834	28067.0375
624.89015	23597.3375
628.87913	22821.4375
632.86528	22886.3375
636.84862	22945.9375
640.82913	22558.9375
644.80683	21788.9375
648.78172	21218.8375
652.75379	21229.3375
656.72306	21831.5375
660.68952	22626.2375
664.65319	22541.5375
668.61405	21751.8375
672.57211	21352.0375
676.52738	21286.9375
680.47986	21307.4375
684.42955	21199.9375
688.37646	21151.5375
692.32058	21240.3375
696.26192	21410.5375
700.20048	21704.5375
704.13626	21897.4375
708.06928	21854.6375
711.99952	21704.6375
715.927	21639.5375
719.85171	21624.8375
723.77365	21566.6375
727.69284	21347.4375
731.60928	21151.1375
735.52295	21096.1375
739.43388	21153.2375
743.34206	21236.2375
747.24749	21375.3375
751.15017	21514.0375
755.05012	21897.5375
758.94733	22763.3375
762.8418	24647.2375
766.73354	27882.0375
770.62254	31285.8375
774.50882	32659.0375
778.39237	31032.5375
782.27321	27555.9375
786.15132	24402.0375
790.02671	22524.9375
793.89938	21656.7375
797.76935	21348.1375
801.6366	21183.1375
805.50115	21074.7375
809.36299	20939.5375
813.22213	20856.1375
817.07857	20849.0375
820.93231	20801.8375
824.78336	20846.7375
828.63172	20960.3375
832.47738	21051.7375
836.32036	21128.7375
840.16066	21168.2375
843.99827	21115.0375
847.8332	20988.3375
851.66546	20894.7375
855.49504	20794.1375
859.32195	20749.0375
863.1462	20679.4375
866.96777	20508.8375
870.78668	20526.2375
874.60293	20513.0375
878.41652	20554.7375
882.22745	20655.5375
886.03573	20745.5375
889.84136	20664.1375
893.64433	20559.7375
897.44466	20488.8375
901.24235	20500.9375
905.0374	20490.7375
908.8298	20445.0375
912.61957	20467.5375
916.40671	20623.0375
920.19121	20834.2375
923.97308	21049.7375
927.75233	21250.2375
931.52895	21388.8375
935.30295	21218.7375
939.07433	20710.0375
942.84309	20234.9375
946.60924	19960.9375
950.37278	19853.1375
954.13371	19738.0375
957.89203	19622.0375
961.64774	19574.0375
965.40086	19510.3375
969.15137	19468.5375
972.89929	19397.6375
976.64461	19370.9375
980.38733	19340.4375
984.12747	19435.6375
987.86502	19594.8375
991.59999	19803.9375
995.33237	20146.5375
999.06217	20719.4375
1002.78939	21386.4375
1006.51404	21850.2375
1010.23611	22207.5375
1013.95561	22515.5375
1017.67255	22454.5375
1021.38692	22181.1375
1025.09872	21932.8375
1028.80796	22090.0375
1032.51465	22644.4375
1036.21877	23185.0375
1039.92035	23355.5375
1043.61937	23095.9375
1047.31584	22663.3375
1051.00976	22247.8375
1054.70114	22052.7375
1058.38998	22146.8375
1062.07627	22362.4375
1065.76003	22766.5375
1069.44126	23334.8375
1073.11995	24175.9375
1076.79611	24925.2375
1080.46974	25355.7375
1084.14085	25326.0375
1087.80943	25115.6375
1091.47549	24597.7375
1095.13903	23737.7375
1098.80005	22856.3375
1102.45857	22148.0375
1106.11456	21795.5375
1109.76805	21851.0375
1113.41903	22121.6375
1117.06751	22562.0375
1120.71348	23157.3375
1124.35696	23795.8375
1127.99793	24431.9375
1131.63641	24512.3375
1135.2724	23864.2375
1138.90589	23194.4375
1142.5369	22710.5375
1146.16542	22345.8375
1149.79145	22125.4375
1153.415	22201.5375
1157.03607	22420.6375
1160.65467	22821.2375
1164.27079	23615.7375
1167.88443	24805.4375
1171.49561	26707.6375
1175.10432	29598.9375
1178.71056	33310.0375
1182.31434	36273.2375
1185.91565	37190.0375
1189.51451	36339.1375
1193.11091	34365.5375
1196.70485	31922.0375
1200.29634	29936.5375
1203.88538	28515.2375
1207.47197	27209.9375
1211.05612	26081.9375
1214.63782	25479.7375
1218.21708	25241.2375
1221.79391	25296.2375
1225.36829	25437.6375
1228.94024	25432.8375
1232.50976	25344.9375
1236.07685	25207.1375
1239.6415	25195.4375
1243.20374	25224.5375
1246.76355	25352.8375
1250.32093	25703.9375
1253.8759	26279.0375
1257.42845	27057.4375
1260.97859	27865.2375
1264.52631	28569.9375
1268.07163	29318.7375
1271.61453	30154.0375
1275.15503	30879.3375
1278.69312	31469.1375
1282.22882	31876.2375
1285.76211	32432.8375
1289.29301	33224.9375
1292.82151	34071.7375
1296.34761	35078.2375
1299.87133	36663.3375
1303.39266	39083.3375
1306.9116	42688.9375
1310.42815	46847.2375
1313.94233	49649.2375
1317.45412	49507.0375
1320.96354	47279.1375
1324.47058	44541.8375
1327.97525	42044.9375
1331.47754	40364.1375
1334.97747	39653.2375
1338.47502	39769.5375
1341.97022	40318.4375
1345.46305	40970.8375
1348.95352	41953.7375
1352.44163	43612.8375
1355.92738	46482.6375
1359.41078	51596.5375
1362.89183	56782.2375
1366.37053	56212.0375
1369.84688	49367.3375
1373.32088	42028.0375
1376.79254	37171.1375
1380.26186	34763.0375
1383.72883	33595.7375
1387.19347	32677.8375
1390.65578	31684.4375
1394.11575	30955.5375
1397.57339	30680.2375
1401.0287	30885.9375
1404.48168	31244.3375
1407.93234	31551.7375
1411.38068	31621.2375
1414.82669	31313.0375
1418.27039	30563.5375
1421.71177	29761.3375
1425.15083	29017.1375
1428.58758	28556.4375
1432.02203	28496.1375
1435.45416	28722.8375
1438.88399	28993.7375
1442.31151	29161.6375
1445.73673	29372.7375
1449.15965	29591.7375
1452.58027	29705.9375
1455.9986	29567.2375
1459.41463	29692.0375
1462.82837	29999.5375
1466.23982	30542.6375
1469.64898	31139.9375
1473.05586	31656.2375
1476.46045	31903.3375
1479.86276	32239.6375
1483.26279	32583.5375
1486.66054	32993.6375
1490.05602	33639.2375
1493.44922	34612.2375
1496.84016	35858.8375
1500.22882	37800.0375
1503.61521	40624.5375
1506.99934	44104.2375
1510.38121	47732.2375
1513.76081	49878.0375
1517.13816	48694.0375
1520.51324	44633.1375
1523.88607	40159.3375
1527.25665	36752.2375
1530.62498	34723.1375
1533.99105	33532.9375
1537.35488	32809.7375
1540.71647	32226.9375
1544.07581	31935.4375
1547.4329	31669.8375
1550.78776	31429.6375
1554.14038	31357.6375
1557.49077	31529.1375
1560.83892	31965.8375
1564.18484	32576.5375
1567.52853	33326.4375
1570.86999	34086.3375
1574.20922	35129.2375
1577.54624	36053.5375
1580.88103	36084.4375
1584.2136	35239.2375
1587.54395	34202.3375
1590.87208	33777.0375
1594.19801	34560.1375
1597.52172	36212.8375
1600.84321	36931.8375
1604.16251	35617.8375
1607.47959	33217.0375
1610.79447	30680.5375
1614.10715	28383.3375
1617.41763	26502.3375
1620.7259	25279.9375
1624.03199	24644.6375
1627.33587	24725.8375
1630.63757	25291.2375
1633.93707	26478.6375
1637.23439	28383.3375
1640.52951	30841.6375
1643.82246	33808.6375
1647.11321	37004.4375
1650.40179	39086.4375
1653.68819	38126.0375
1656.97241	33926.9375
1660.25446	29063.5375
1663.53433	25452.1375
1666.81203	23197.8375
1670.08756	21787.6375
1673.36092	20951.4375
1676.63211	20421.8375
1679.90115	19990.7375
1683.16801	19733.8375
1686.43272	19531.4375
1689.69527	19399.9375
1692.95567	19311.8375
1696.2139	19278.5375
1699.46999	19224.9375
1702.72392	19156.1375
1705.97571	19144.6375
1709.22535	19124.6375
1712.47284	19099.8375
1715.71819	19044.0375
1718.96139	19051.4375
1722.20246	19011.4375
1725.44139	18958.3375
1728.67818	18845.5375
1731.91284	18729.3375
1735.14537	18619.4375
1738.37576	18538.1375
1741.60403	18470.9375
1744.83017	18439.1375
1748.05418	18383.5375
1751.27607	18370.3375
1754.49584	18319.4375
1757.71349	18356.9375
1760.92903	18325.5375
1764.14244	18350.0375
1767.35375	18326.6375
1770.56294	18274.7375
1773.77002	18278.5375
1776.97499	18241.3375
1780.17785	18178.4375
1783.37861	18137.0375
1786.57727	18088.6375
1789.77382	18060.8375
1792.96828	18069.3375
1796.16064	18047.9375
1799.3509	18010.0375
1802.53907	18028.9375
1805.72514	17972.4375
1808.90913	17879.8375
1812.09102	17843.1375
1815.27083	17818.9375
1818.44856	17783.6375
1821.6242	17753.2375
1824.79776	17740.6375
1827.96924	17744.1375
1831.13864	17759.8375
1834.30597	17753.9375
1837.47122	17740.0375
1840.6344	17756.5375
1843.7955	17739.6375
1846.95454	17725.0375
1850.11151	17717.2375
1853.26642	17734.1375
1856.41926	17749.0375
1859.57004	17758.3375
1862.71876	17748.6375
1865.86542	17744.3375
1869.01003	17737.7375
1872.15258	17717.2375
1875.29308	17739.6375
1878.43152	17728.3375
1881.56792	17728.5375
1884.70227	17717.9375
1887.83457	17696.3375
1890.96482	17734.8375
1894.09304	17741.3375
1897.21921	17711.9375
1900.34335	17718.9375
1903.46544	17719.0375
1906.58551	17733.7375
1909.70353	17739.0375
1912.81953	17685.6375
1915.93349	17706.3375
1919.04543	17681.1375
1922.15534	17643.8375
1925.26322	17601.4375
1928.36908	17598.6375
1931.47292	17549.9375
1934.57473	17451.0375
1937.67453	17402.1375
1940.77232	17385.9375
1943.86808	17304.5375
1946.96184	17250.1375
1950.05358	17218.9375
1953.14331	17123.9375
1956.23103	17073.8375
1959.31675	17056.9375
1962.40046	16986.1375
1965.48217	16954.3375
1968.56188	16892.7375
1971.63959	16854.9375
1974.7153	16825.3375
1977.78901	16764.8375
1980.86073	16690.4375
1983.93046	16663.3375
1986.99819	16582.3375
1990.06394	16547.5375
1993.1277	16515.2375
1996.18947	16428.6375
1999.24925	16401.0375
2002.30706	16373.7375
2005.36288	16296.9375
2008.41672	16294.1375
2011.46859	16239.4375
2014.51848	16164.4375
2017.56639	16151.8375
2020.61233	16123.5375
2023.6563	16091.3375
2026.6983	16051.5375
2029.73833	16043.4375
2032.7764	15996.9375
2035.8125	15993.9375
2038.84664	15924.0375
2041.87881	15916.6375
2044.90903	15919.6375
2047.93729	15883.1375
2050.96359	15848.3375
2053.98794	15845.7375
2057.01034	15839.5375
2060.03078	15818.0375
2063.04927	15798.0375
2066.06582	15771.3375
2069.08042	15780.5375
2072.09307	15785.8375
2075.10378	15721.7375
2078.11255	15715.8375
2081.11938	15750.1375
2084.12426	15747.3375
2087.12722	15726.0375
2090.12824	15715.3375
2093.12732	15749.0375
2096.12447	15748.9375
2099.11969	15718.9375
2102.11299	15711.3375
2105.10435	15723.4375
2108.09379	15744.8375
2111.08131	15758.6375
2114.0669	15805.5375
2117.05057	15804.8375
2120.03233	15819.9375
2123.01216	15781.5375
2125.99008	15799.9375
2128.96609	15837.6375
2131.94018	15863.1375
2134.91236	15856.9375
2137.88263	15895.1375
2140.851	15886.8375
2143.81746	15936.5375
2146.78201	15920.1375
2149.74466	15914.0375
2152.7054	15949.2375
2155.66425	15929.5375
2158.6212	15963.1375
2161.57625	15907.8375
2164.52941	15905.5375
2167.48067	15895.2375
2170.43004	15898.3375
2173.37752	15908.1375
2176.32311	15910.6375
2179.26681	15884.3375
2182.20863	15891.9375
2185.14856	15906.4375
2188.08661	15895.7375
2191.02278	15907.1375
2193.95707	15892.8375
2196.88948	15890.8375
2199.82001	15877.7375
2202.74867	15897.9375
2205.67545	15873.0375
2208.60037	15884.0375
2211.52341	15887.8375
2214.44458	15874.2375
2217.36388	15839.8375
2220.28132	15819.5375
2223.1969	15823.9375
2226.11061	15772.5375
2229.02246	15753.3375
2231.93245	15747.4375
2234.84058	15668.6375
2237.74686	15679.8375
2240.65128	15676.1375
2243.55385	15616.9375
2246.45456	15564.6375
2249.35343	15575.4375
2252.25044	15554.8375
2255.14561	15546.5375
2258.03893	15578.8375
2260.93041	15558.4375
2263.82004	15518.4375
2266.70783	15492.9375
2269.59378	15413.1375
2272.4779	15401.4375
2275.36017	15375.9375
2278.24061	15340.4375
2281.11922	15313.0375
2283.996	15285.4375
2286.87094	15288.8375
2289.74405	15244.2375
2292.61534	15225.7375
2295.4848	15214.4375
2298.35243	15237.0375
2301.21824	15208.4375
2304.08223	15209.4375
2306.94439	15247.1375
2309.80474	15236.0375
2312.66327	15253.6375
2315.51999	15226.4375
2318.37489	15247.3375
2321.22797	15261.1375
2324.07925	15238.6375
2326.92871	15199.6375
2329.77637	15206.7375
2332.62222	15209.0375
2335.46626	15204.0375
2338.3085	15183.8375
2341.14893	15205.1375
2343.98756	15208.2375
2346.8244	15226.9375
2349.65943	15238.1375
2352.49267	15205.7375
2355.32411	15230.1375
2358.15376	15209.4375
2360.98161	15213.5375
2363.80768	15212.8375
2366.63195	15214.5375
2369.45444	15176.8375
2372.27514	15159.2375
2375.09405	15134.2375
2377.91118	15091.3375
2380.72652	15066.7375
2383.54009	15018.1375
2386.35187	14977.4375
2389.16188	14933.7375
2391.97011	14902.4375
2394.77657	14913.3375
2397.58125	14878.4375
2400.38416	14844.9375
2403.18529	14825.3375
2405.98466	14808.1375
2408.78226	14759.5375
2411.57809	14726.3375
2414.37216	14697.7375
2417.16446	14695.1375
2419.955	14672.4375
2422.74378	14675.9375
2425.5308	14652.3375
2428.31606	14609.5375
2431.09956	14609.6375
2433.88131	14602.2375
2436.6613	14649.2375
2439.43954	14623.6375
2442.21603	14611.3375
2444.99077	14619.4375
2447.76377	14634.8375
2450.53501	14614.6375
2453.30451	14608.8375
2456.07226	14576.1375
2458.83827	14596.2375
2461.60254	14570.2375
2464.36507	14560.0375
2467.12586	14579.5375
2469.88492	14552.8375
2472.64224	14596.2375
2475.39782	14592.5375
2478.15167	14607.2375
2480.90379	14611.1375
2483.65417	14654.1375
2486.40283	14659.8375
2489.14976	14692.3375
2491.89497	14677.6375
2494.63845	14709.9375
2497.3802	14698.2375
2500.12024	14678.4375
2502.85855	14701.9375
2505.59514	14682.5375
2508.33002	14635.0375
2511.06318	14570.1375
2513.79462	14537.8375
2516.52435	14542.0375
2519.25237	14513.5375
2521.97867	14493.8375
2524.70327	14504.1375
2527.42616	14477.2375
2530.14734	14466.8375
2532.86681	14456.7375
2535.58458	14439.7375
2538.30065	14418.3375
2541.01501	14426.0375
2543.72768	14430.3375
2546.43864	14394.5375
2549.14791	14403.9375
2551.85548	14383.9375
2554.56136	14356.1375
2557.26554	14348.8375
2559.96803	14324.3375
2562.66883	14311.2375
2565.36794	14358.4375
2568.06536	14340.0375
2570.7611	14292.3375
2573.45514	14319.5375
2576.14751	14310.1375
2578.83819	14273.8375
2581.52719	14252.3375
2584.21451	14254.3375
2586.90015	14269.4375
2589.58411	14243.0375
2592.2664	14199.3375
2594.94701	14229.5375
2597.62594	14186.8375
2600.30321	14169.0375
2602.9788	14195.5375
2605.65273	14156.0375
2608.32498	14165.9375
2610.99557	14150.2375
2613.66449	14163.0375
2616.33175	14147.5375
2618.99734	14153.4375
2621.66128	14143.1375
2624.32355	14149.0375
2626.98416	14156.1375
2629.64311	14158.2375
2632.30041	14165.0375
2634.95605	14113.7375
2637.61004	14122.9375
2640.26238	14098.7375
2642.91306	14057.3375
2645.56209	14076.2375
2648.20948	14040.6375
2650.85521	14052.7375
2653.4993	14013.3375
2656.14175	14049.9375
2658.78255	14014.7375
2661.42171	14024.7375
2664.05923	14032.0375
2666.6951	14047.2375
2669.32934	14065.8375
2671.96194	14082.8375
2674.59291	14082.4375
2677.22224	14077.4375
2679.84993	14094.0375
2682.476	14057.2375
2685.10043	14103.4375
2687.72324	14060.2375
2690.34441	14086.0375
2692.96396	14062.1375
2695.58188	14085.3375
2698.19818	14044.0375
2700.81285	14075.4375
2703.4259	14088.0375
2706.03733	14161.3375
2708.64714	14120.7375
2711.25533	14118.2375
2713.86191	14111.8375
2716.46687	14112.8375
2719.07021	14114.5375
2721.67194	14114.6375
2724.27206	14093.4375
2726.87057	14109.1375
2729.46747	14116.0375
2732.06276	14114.5375
2734.65644	14097.8375
2737.24852	14096.6375
2739.83899	14098.3375
2742.42786	14092.4375
2745.01513	14032.8375
2747.60079	14035.3375
2750.18486	14062.2375
2752.76733	14045.5375
2755.3482	14084.1375
2757.92747	14100.9375
2760.50515	14051.8375
2763.08123	14033.8375
2765.65573	13997.2375
2768.22863	14002.0375
2770.79994	13982.2375
2773.36967	13988.9375
2775.9378	13983.3375
2778.50435	13956.5375
2781.06932	13945.4375
2783.6327	13962.1375
2786.1945	13942.9375
2788.75471	13924.2375
2791.31335	13910.3375
2793.87041	13878.6375
2796.42589	13846.3375
2798.97979	13848.9375
2801.53212	13825.3375
2804.08288	13795.0375
2806.63206	13771.5375
2809.17967	13791.1375
2811.72571	13759.1375
2814.27018	13779.6375
2816.81308	13731.5375
2819.35442	13750.6375
2821.89419	13726.5375
2824.43239	13737.1375
2826.96904	13743.0375
2829.50412	13753.8375
2832.03763	13735.5375
2834.56959	13739.9375
2837.1	13697.0375
2839.62884	13714.8375
2842.15613	13701.7375
2844.68186	13722.0375
2847.20604	13775.0375
2849.72867	13813.8375
2852.24974	13780.4375
2854.76927	13815.1375
2857.28724	13819.5375
2859.80367	13812.2375
2862.31855	13771.5375
2864.83189	13760.9375
2867.34368	13746.5375
2869.85393	13752.6375
2872.36264	13770.5375
2874.8698	13743.3375
2877.37543	13757.1375
2879.87952	13767.6375
2882.38207	13718.7375
2884.88308	13757.4375
2887.38256	13744.5375
2889.88051	13757.5375
2892.37692	13749.4375
2894.8718	13761.6375
2897.36515	13785.5375
2899.85698	13762.4375
2902.34727	13794.2375
2904.83604	13763.6375
2907.32328	13816.4375
2909.809	13812.1375
2912.29319	13845.0375
2914.77587	13849.0375
2917.25702	13825.5375
2919.73665	13788.7375
2922.21476	13822.7375
2924.69136	13790.1375
2927.16644	13812.9375
2929.64	13759.7375
2932.11205	13747.9375
2934.58258	13728.5375
2937.05161	13737.3375
2939.51912	13738.4375
2941.98513	13704.9375
2944.44962	13641.4375
2946.91261	13588.3375
2949.37409	13623.6375
2951.83407	13613.8375
2954.29254	13606.9375
2956.74951	13556.1375
2959.20498	13540.0375
2961.65895	13567.4375
2964.11142	13554.6375
2966.56239	13509.8375
2969.01186	13483.7375
2971.45984	13450.5375
2973.90632	13402.1375
2976.35131	13370.0375
2978.7948	13354.6375
2981.23681	13339.8375
2983.67732	13316.3375
2986.11635	13308.0375
2988.55388	13272.5375
2990.98993	13249.8375
2993.4245	13215.3375
2995.85758	13222.0375
2998.28917	13146.1375
3000.71928	13171.2375
3003.14791	13146.6375
3005.57506	13149.1375
3008.00073	13115.2375
3010.42493	13103.9375
3012.84764	13071.7375
3015.26888	13059.2375
3017.68865	13032.3375
3020.10694	13024.8375
3022.52376	13015.8375
3024.9391	13001.2375
3027.35298	13001.4375
3029.76539	12992.2375
3032.17632	12986.4375
3034.5858	12939.2375
3036.9938	12905.8375
3039.40034	12908.3375
3041.80542	12907.6375
3044.20903	12877.1375
3046.61118	12848.7375
3049.01187	12831.8375
3051.4111	12824.9375
3053.80888	12824.6375
3056.20519	12780.3375
3058.60005	12786.2375
3060.99345	12735.1375
3063.3854	12710.5375
3065.7759	12686.5375
3068.16494	12674.6375
3070.55254	12643.3375
3072.93868	12633.8375
3075.32338	12590.9375
3077.70662	12535.5375
3080.08842	12500.1375
3082.46878	12501.1375
3084.84769	12501.4375
3087.22515	12481.1375
3089.60118	12476.4375
3091.97576	12499.3375
3094.3489	12483.2375
3096.72061	12480.3375
3099.09087	12510.3375
3101.4597	12471.2375
3103.82709	12477.7375
3106.19305	12449.0375
3108.55757	12448.2375
3110.92066	12429.2375
3113.28232	12413.7375
3115.64255	12343.3375
3118.00134	12362.5375
3120.35871	12317.8375
3122.71466	12332.6375
3125.06917	12330.1375
3127.42226	12292.5375
3129.77393	12319.4375
3132.12417	12314.1375
3134.47299	12327.0375
3136.82039	12338.3375
3139.16636	12313.0375
3141.51092	12324.4375
3143.85406	12328.3375
3146.19579	12337.4375
3148.53609	12326.4375
3150.87499	12343.5375
3153.21246	12369.3375
3155.54853	12406.1375
3157.88318	12361.7375
3160.21642	12359.0375
3162.54826	12354.6375
3164.87868	12359.9375
3167.2077	12367.1375
3169.5353	12359.1375
3171.86151	12359.0375
3174.18631	12362.6375
3176.5097	12350.4375
3178.83169	12328.3375
3181.15228	12329.8375
3183.47147	12298.1375
3185.78926	12323.6375
3188.10565	12295.8375
3190.42065	12306.4375
3192.73424	12294.1375
3195.04645	12288.5375
3197.35725	12313.3375
3199.66667	12296.3375
3201.97469	12351.2375
3204.28132	12333.9375
3206.58656	12351.5375
3208.8904	12369.8375
3211.19287	12361.0375
3213.49394	12362.9375
3215.79363	12350.9375
3218.09193	12361.4375
3220.38884	12374.7375
3222.68438	12369.5375
3224.97853	12355.7375
3227.2713	12342.8375
3229.56269	12347.0375
3231.8527	12302.1375
3234.14133	12298.7375
3236.42858	12291.0375
3238.71446	12264.3375
3240.99896	12250.5375
3243.28209	12263.6375
3245.56384	12248.7375
3247.84423	12255.9375
3250.12324	12236.2375
3252.40088	12234.8375
3254.67715	12222.0375
3256.95205	12232.4375
3259.22558	12240.1375
3261.49775	12211.3375
3263.76855	12236.8375
3266.03799	12169.6375
3268.30606	12187.2375
3270.57277	12141.9375
3272.83812	12136.5375
3275.10211	12122.7375
3277.36474	12104.4375
3279.62601	12122.3375
3281.88593	12113.5375
3284.14448	12125.1375
3286.40168	12112.8375
3288.65753	12111.6375
3290.91202	12075.6375
3293.16516	12036.4375
3295.41695	12035.0375
3297.66738	11983.6375
3299.91647	11898.7375
3302.16421	11832.5375
3304.4106	11793.4375
3306.65564	11726.1375
3308.89933	11660.0375
3311.14169	11602.9375
3313.38269	11524.4375
3315.62236	11466.9375
3317.86068	11363.5375
3320.09766	11260.7375
3322.3333	11173.8375
3324.5676	11158.0375
3326.80056	10997.3375
3329.03219	10935.0375
3331.26248	3.2375
3333.49143	0.6375
3335.71905	-0.5625
