Data from AgNP_FTO_APTES_CRN_50uM_R6G_10uM_NaF_0.1M_Addition_RamanShift__34__18-25-38-099.txt Node

Date: Wed Dec 15 18:25:38 GMT 2021
User: TCL
Spectrometer: QEP01345
Trigger mode: 4
Integration Time (sec): 7.000000E0
Scans to average: 10
Electric dark correction enabled: true
Nonlinearity correction enabled: false
Boxcar width: 0
XAxis mode: Raman Shifts
Number of Pixels in Spectrum: 1044
>>>>>Begin Spectral Data<<<<<
46.04893	0.6
50.45542	-1.8
54.85868	0.2
59.25871	-0.4
63.6555	40.4
68.04907	45.7
72.43941	50.9
76.82654	53.5
81.21044	56.2
85.59113	56.3
89.96862	57.9
94.34289	59.2
98.71396	65.7
103.08183	69.4
107.4465	68.4
111.80798	66.5
116.16626	71.9
120.52136	76
124.87327	70.2
129.222	76.5
133.56755	70.1
137.90993	76.9
142.24913	82.9
146.58517	91.9
150.91804	98.9
155.24774	114.9
159.57429	138.8
163.89768	167.1
168.21792	215.3
172.53501	284.6
176.84895	389.3
181.15975	533.6
185.46741	738.9
189.77193	1024.2
194.07331	1363.2
198.37157	1752.6
202.6667	2171.2
206.9587	2584
211.24758	2995.6
215.53334	3414
219.81599	3871.5
224.09553	4403.5
228.37195	4948.6
232.64527	5566.8
236.91549	6204.6
241.18261	6824.8
245.44663	7310.7
249.70755	7726.2
253.96539	8086
258.22014	8394.8
262.4718	8679.6
266.72039	8900.5
270.96589	9047.3
275.20832	9063.1
279.44768	8992.3
283.68397	8881.2
287.91719	8835.1
292.14735	8835
296.37445	8966.3
300.59849	9202.6
304.81948	9514.3
309.03742	9721
313.25231	9695
317.46415	9318.8
321.67296	8738.7
325.87872	8241.3
330.08145	8027.4
334.28114	8011
338.47781	8146.9
342.67145	8349.5
346.86207	8636.2
351.04966	9098.6
355.23424	9582.4
359.4158	9972.6
363.59435	10151.9
367.76989	10206.5
371.94243	10209
376.11196	10191.7
380.27849	10119.6
384.44203	10043
388.60257	9937.2
392.76012	9924.6
396.91468	10022.4
401.06626	10263.5
405.21485	10463.8
409.36047	10354.1
413.50311	9957
417.64277	9522.8
421.77947	9322.1
425.9132	9236.7
430.04396	9263.4
434.17176	9278.8
438.2966	9421.2
442.41849	9630.2
446.53742	9882.6
450.6534	10133.3
454.76644	10320.4
458.87653	10364.6
462.98368	10311.9
467.08789	10160.7
471.18916	9971.6
475.2875	9745.2
479.38291	9603.9
483.4754	9448.8
487.56496	9321.6
491.6516	9246.5
495.73531	9232.9
499.81612	9218.7
503.89401	9328.8
507.96899	9431.3
512.04106	9555.2
516.11023	9707.8
520.1765	9843.3
524.23987	9842.8
528.30034	9737
532.35792	9568.2
536.41261	9358
540.46441	9155.6
544.51333	9111.9
548.55936	9142.7
552.60252	9297.6
556.64279	9475.3
560.6802	9573.9
564.71473	9687.1
568.7464	9959.7
572.7752	10187.3
576.80114	9983.3
580.82422	9731.6
584.84444	9602.3
588.86181	9659
592.87633	9722.8
596.888	9867.3
600.89682	10113.6
604.9028	11002.1
608.90594	13422.6
612.90624	16526.3
616.90371	15960.3
620.89834	11825.3
624.89015	9884.8
628.87913	9501.1
632.86528	9526.9
636.84862	9629
640.82913	9536.7
644.80683	9244.6
648.78172	9069.1
652.75379	9115.3
656.72306	9438.9
660.68952	9804.8
664.65319	9759.5
668.61405	9385.2
672.57211	9203.3
676.52738	9194.1
680.47986	9220
684.42955	9172.5
688.37646	9167.5
692.32058	9216.6
696.26192	9273.4
700.20048	9377.2
704.13626	9431.1
708.06928	9436.8
711.99952	9385.6
715.927	9336.6
719.85171	9374.4
723.77365	9300
727.69284	9217.3
731.60928	9140.7
735.52295	9165.9
739.43388	9205.7
743.34206	9221.1
747.24749	9270.5
751.15017	9314.9
755.05012	9470.4
758.94733	9837
762.8418	10671.3
766.73354	12021.6
770.62254	13475.6
774.50882	14196.3
778.39237	13700.9
782.27321	12144.4
786.15132	10648.9
790.02671	9826
793.89938	9424
797.76935	9278
801.6366	9204.1
805.50115	9117
809.36299	9111.7
813.22213	9094.9
817.07857	9106.7
820.93231	9120.6
824.78336	9120.8
828.63172	9184.5
832.47738	9184.3
836.32036	9185.8
840.16066	9183.2
843.99827	9121.3
847.8332	9105
851.66546	9073.3
855.49504	9077.2
859.32195	9073.6
863.1462	9051
866.96777	9000.8
870.78668	8987.1
874.60293	9011.7
878.41652	9015.6
882.22745	9081
886.03573	9092.7
889.84136	9098
893.64433	9020.2
897.44466	9013.1
901.24235	9030.6
905.0374	8999.5
908.8298	8981.7
912.61957	9008
916.40671	9036.6
920.19121	9085.3
923.97308	9142.8
927.75233	9197.9
931.52895	9237.9
935.30295	9171.5
939.07433	8991.1
942.84309	8828.2
946.60924	8723.3
950.37278	8677.2
954.13371	8601.8
957.89203	8597.5
961.64774	8583.1
965.40086	8534.6
969.15137	8516.2
972.89929	8495.1
976.64461	8491.1
980.38733	8481.6
984.12747	8498.2
987.86502	8533.3
991.59999	8557.1
995.33237	8651.6
999.06217	8792.2
1002.78939	8937.1
1006.51404	9103.8
1010.23611	9258.9
1013.95561	9382.8
1017.67255	9371.1
1021.38692	9257.2
1025.09872	9123
1028.80796	9083.7
1032.51465	9104.1
1036.21877	9202.4
1039.92035	9294.6
1043.61937	9323
1047.31584	9292.5
1051.00976	9271.8
1054.70114	9254.1
1058.38998	9273.4
1062.07627	9349.6
1065.76003	9445.6
1069.44126	9559.8
1073.11995	9734.9
1076.79611	9914.1
1080.46974	10067.4
1084.14085	10142.9
1087.80943	10216.9
1091.47549	10184.6
1095.13903	9959
1098.80005	9688.2
1102.45857	9400.5
1106.11456	9313.4
1109.76805	9331.8
1113.41903	9486.9
1117.06751	9712.3
1120.71348	10001.9
1124.35696	10338.3
1127.99793	10595.4
1131.63641	10580.7
1135.2724	10204.6
1138.90589	9830.9
1142.5369	9637.1
1146.16542	9452.7
1149.79145	9399.1
1153.415	9425.2
1157.03607	9476.7
1160.65467	9634.5
1164.27079	9858
1167.88443	10273.5
1171.49561	10950.5
1175.10432	12037.8
1178.71056	13429.9
1182.31434	14392.7
1185.91565	14502.6
1189.51451	14119.3
1193.11091	13394.8
1196.70485	12531
1200.29634	11909.8
1203.88538	11463.4
1207.47197	10951.4
1211.05612	10492.1
1214.63782	10206.2
1218.21708	10154.5
1221.79391	10155.4
1225.36829	10183.8
1228.94024	10210.6
1232.50976	10269.1
1236.07685	10336.6
1239.6415	10368.9
1243.20374	10439.5
1246.76355	10505.9
1250.32093	10647.2
1253.8759	10829.2
1257.42845	11078.6
1260.97859	11337.8
1264.52631	11556.9
1268.07163	11788.3
1271.61453	11974.6
1275.15503	12138.3
1278.69312	12211.2
1282.22882	12274.3
1285.76211	12469.2
1289.29301	12790.3
1292.82151	13111
1296.34761	13436.9
1299.87133	13897.2
1303.39266	14717.6
1306.9116	15988.6
1310.42815	17485.2
1313.94233	18409.3
1317.45412	18150.1
1320.96354	17111.4
1324.47058	15989
1327.97525	14996.9
1331.47754	14482.3
1334.97747	14411.9
1338.47502	14592
1341.97022	14935.2
1345.46305	15359.6
1348.95352	15980.4
1352.44163	16922.6
1355.92738	18238
1359.41078	20339.3
1362.89183	22404.1
1366.37053	21923.5
1369.84688	19089.5
1373.32088	16196.6
1376.79254	14341.3
1380.26186	13389.2
1383.72883	12907.3
1387.19347	12517.5
1390.65578	12100.8
1394.11575	11755.8
1397.57339	11569.2
1401.0287	11576.3
1404.48168	11689.8
1407.93234	11815.3
1411.38068	11953.3
1414.82669	12016.2
1418.27039	11833.7
1421.71177	11614
1425.15083	11425.5
1428.58758	11338.6
1432.02203	11359.7
1435.45416	11430.9
1438.88399	11484.8
1442.31151	11473.1
1445.73673	11514.3
1449.15965	11557.2
1452.58027	11505.6
1455.9986	11396.3
1459.41463	11350.1
1462.82837	11435
1466.23982	11618.4
1469.64898	11862.7
1473.05586	12031.7
1476.46045	12208.5
1479.86276	12421.9
1483.26279	12680.9
1486.66054	12993.9
1490.05602	13369.5
1493.44922	13868.6
1496.84016	14540.5
1500.22882	15527
1503.61521	16909.1
1506.99934	18415
1510.38121	19924.2
1513.76081	20647.2
1517.13816	19923.9
1520.51324	17947.9
1523.88607	15848.5
1527.25665	14456.8
1530.62498	13625.1
1533.99105	13161
1537.35488	12874
1540.71647	12678.6
1544.07581	12622.6
1547.4329	12548.7
1550.78776	12493.4
1554.14038	12432.6
1557.49077	12475.5
1560.83892	12616
1564.18484	12888.8
1567.52853	13230.4
1570.86999	13535.1
1574.20922	13792.9
1577.54624	13869.9
1580.88103	13472.5
1584.2136	12819.8
1587.54395	12342.8
1590.87208	12293.7
1594.19801	12730.6
1597.52172	13398.9
1600.84321	13766.2
1604.16251	13441.1
1607.47959	12758.9
1610.79447	11958.5
1614.10715	11190.5
1617.41763	10574.1
1620.7259	10217.4
1624.03199	10034.3
1627.33587	10041.7
1630.63757	10172.9
1633.93707	10502.3
1637.23439	11045.6
1640.52951	11819.8
1643.82246	12863.2
1647.11321	14106.1
1650.40179	15031
1653.68819	14796.9
1656.97241	13295.7
1660.25446	11601
1663.53433	10323.8
1666.81203	9540.3
1670.08756	9105.9
1673.36092	8838.4
1676.63211	8650.5
1679.90115	8516.7
1683.16801	8425.7
1686.43272	8350.6
1689.69527	8304.1
1692.95567	8293.8
1696.2139	8255.9
1699.46999	8290.7
1702.72392	8267.3
1705.97571	8247
1709.22535	8205.3
1712.47284	8193.3
1715.71819	8201.2
1718.96139	8188.8
1722.20246	8162.9
1725.44139	8183.3
1728.67818	8125.1
1731.91284	8069.1
1735.14537	8030.9
1738.37576	8005.2
1741.60403	7964.7
1744.83017	7943.9
1748.05418	7941.6
1751.27607	7931.7
1754.49584	7903.6
1757.71349	7910.3
1760.92903	7905.1
1764.14244	7907.6
1767.35375	7899.7
1770.56294	7866.8
1773.77002	7867.8
1776.97499	7851.8
1780.17785	7810.1
1783.37861	7800.8
1786.57727	7786.1
1789.77382	7765.3
1792.96828	7758
1796.16064	7748.7
1799.3509	7729
1802.53907	7706.2
1805.72514	7714.7
1808.90913	7670.5
1812.09102	7655.4
1815.27083	7638.3
1818.44856	7629.5
1821.6242	7627.8
1824.79776	7620.5
1827.96924	7590.7
1831.13864	7602.7
1834.30597	7591.8
1837.47122	7584
1840.6344	7584.4
1843.7955	7559.6
1846.95454	7548.1
1850.11151	7549.1
1853.26642	7543.6
1856.41926	7558.3
1859.57004	7577.4
1862.71876	7560.6
1865.86542	7542.4
1869.01003	7544.6
1872.15258	7549.7
1875.29308	7535.9
1878.43152	7504.5
1881.56792	7544.7
1884.70227	7535.2
1887.83457	7513.6
1890.96482	7516.4
1894.09304	7499.5
1897.21921	7510.6
1900.34335	7503.2
1903.46544	7478.7
1906.58551	7479.8
1909.70353	7483.9
1912.81953	7463.3
1915.93349	7463.2
1919.04543	7455.4
1922.15534	7429.5
1925.26322	7422.3
1928.36908	7414.7
1931.47292	7384.3
1934.57473	7371.2
1937.67453	7346.6
1940.77232	7332.5
1943.86808	7325.5
1946.96184	7280
1950.05358	7251.3
1953.14331	7252.8
1956.23103	7226.6
1959.31675	7228.8
1962.40046	7185.1
1965.48217	7184.2
1968.56188	7157.3
1971.63959	7143.8
1974.7153	7111.6
1977.78901	7103.2
1980.86073	7055.2
1983.93046	7038.1
1986.99819	7020.1
1990.06394	7009.9
1993.1277	6972.1
1996.18947	6955
1999.24925	6958.8
2002.30706	6923.6
2005.36288	6881.3
2008.41672	6885.8
2011.46859	6860.6
2014.51848	6849.1
2017.56639	6823.4
2020.61233	6808.2
2023.6563	6787.5
2026.6983	6770.5
2029.73833	6767.5
2032.7764	6740.9
2035.8125	6725
2038.84664	6707.5
2041.87881	6700.6
2044.90903	6678.4
2047.93729	6670.3
2050.96359	6668.4
2053.98794	6643.7
2057.01034	6662
2060.03078	6625
2063.04927	6630.3
2066.06582	6619.9
2069.08042	6623.3
2072.09307	6620.8
2075.10378	6600.5
2078.11255	6590.5
2081.11938	6581.3
2084.12426	6600.8
2087.12722	6604.5
2090.12824	6615.2
2093.12732	6615.2
2096.12447	6591.4
2099.11969	6591
2102.11299	6589.6
2105.10435	6592.7
2108.09379	6593.1
2111.08131	6599.6
2114.0669	6602
2117.05057	6590.7
2120.03233	6610.8
2123.01216	6602.2
2125.99008	6613.4
2128.96609	6611.5
2131.94018	6620.7
2134.91236	6613.9
2137.88263	6630.1
2140.851	6636.1
2143.81746	6631.1
2146.78201	6620.3
2149.74466	6626.6
2152.7054	6622.8
2155.66425	6631.4
2158.6212	6637.4
2161.57625	6624.9
2164.52941	6616.8
2167.48067	6624.4
2170.43004	6604.1
2173.37752	6599.7
2176.32311	6611.8
2179.26681	6607.2
2182.20863	6587.5
2185.14856	6585.2
2188.08661	6582.5
2191.02278	6597.1
2193.95707	6566.8
2196.88948	6586
2199.82001	6567.9
2202.74867	6565.2
2205.67545	6559.9
2208.60037	6551
2211.52341	6538.5
2214.44458	6529.5
2217.36388	6526.6
2220.28132	6491.1
2223.1969	6505.8
2226.11061	6484.3
2229.02246	6455.4
2231.93245	6443.1
2234.84058	6427.3
2237.74686	6429
2240.65128	6425.1
2243.55385	6405.7
2246.45456	6404.5
2249.35343	6389.4
2252.25044	6384.4
2255.14561	6360.9
2258.03893	6381.9
2260.93041	6368.2
2263.82004	6369.7
2266.70783	6356.6
2269.59378	6317.9
2272.4779	6322.2
2275.36017	6290.4
2278.24061	6289.1
2281.11922	6248.9
2283.996	6256.2
2286.87094	6251.6
2289.74405	6240.1
2292.61534	6215
2295.4848	6203.2
2298.35243	6209.3
2301.21824	6179.5
2304.08223	6176
2306.94439	6179.1
2309.80474	6169.5
2312.66327	6169.7
2315.51999	6168.8
2318.37489	6156.5
2321.22797	6147
2324.07925	6143.4
2326.92871	6139.1
2329.77637	6145.3
2332.62222	6138.6
2335.46626	6106.9
2338.3085	6099.7
2341.14893	6111.9
2343.98756	6103.7
2346.8244	6096
2349.65943	6106.8
2352.49267	6096.4
2355.32411	6091
2358.15376	6073.9
2360.98161	6079.6
2363.80768	6099.4
2366.63195	6101
2369.45444	6078.1
2372.27514	6093.6
2375.09405	6071.3
2377.91118	6055.4
2380.72652	6045.5
2383.54009	6017.3
2386.35187	6007.9
2389.16188	5990.2
2391.97011	5956.9
2394.77657	5958.3
2397.58125	5941.7
2400.38416	5937.6
2403.18529	5917.1
2405.98466	5892.8
2408.78226	5898.5
2411.57809	5882.4
2414.37216	5873.4
2417.16446	5863.4
2419.955	5851.9
2422.74378	5850.9
2425.5308	5836.5
2428.31606	5838.4
2431.09956	5816.7
2433.88131	5817.7
2436.6613	5809.9
2439.43954	5820
2442.21603	5810.9
2444.99077	5815.1
2447.76377	5805.6
2450.53501	5792.7
2453.30451	5788.2
2456.07226	5759.2
2458.83827	5788.5
2461.60254	5773.1
2464.36507	5790.7
2467.12586	5764.5
2469.88492	5757.9
2472.64224	5761
2475.39782	5755.5
2478.15167	5784
2480.90379	5755.7
2483.65417	5778.8
2486.40283	5770.3
2489.14976	5778.4
2491.89497	5775.7
2494.63845	5777.7
2497.3802	5768
2500.12024	5762.6
2502.85855	5740.3
2505.59514	5745.4
2508.33002	5729.7
2511.06318	5704.7
2513.79462	5698.4
2516.52435	5687.3
2519.25237	5672.2
2521.97867	5633
2524.70327	5641.3
2527.42616	5622.7
2530.14734	5614.2
2532.86681	5622.1
2535.58458	5623.2
2538.30065	5593.1
2541.01501	5597.3
2543.72768	5580.1
2546.43864	5578.7
2549.14791	5573.4
2551.85548	5572.6
2554.56136	5569.8
2557.26554	5541.5
2559.96803	5550.2
2562.66883	5534.5
2565.36794	5515.5
2568.06536	5523.9
2570.7611	5515
2573.45514	5488.2
2576.14751	5494.9
2578.83819	5485.7
2581.52719	5482.6
2584.21451	5461.2
2586.90015	5467.6
2589.58411	5439.3
2592.2664	5444.8
2594.94701	5416.2
2597.62594	5425
2600.30321	5415.6
2602.9788	5399.7
2605.65273	5418.9
2608.32498	5397.1
2610.99557	5395.1
2613.66449	5380.1
2616.33175	5383.5
2618.99734	5364.3
2621.66128	5369.6
2624.32355	5339.6
2626.98416	5359.6
2629.64311	5350.9
2632.30041	5355.1
2634.95605	5335.3
2637.61004	5326.4
2640.26238	5312.4
2642.91306	5310.3
2645.56209	5293.6
2648.20948	5290.6
2650.85521	5291.3
2653.4993	5294.6
2656.14175	5280.3
2658.78255	5281.8
2661.42171	5277.9
2664.05923	5285.8
2666.6951	5289.3
2669.32934	5299.2
2671.96194	5288.1
2674.59291	5297.8
2677.22224	5310.7
2679.84993	5307.2
2682.476	5292.2
2685.10043	5288.7
2687.72324	5297.3
2690.34441	5308.2
2692.96396	5293.2
2695.58188	5312.8
2698.19818	5286.7
2700.81285	5296.6
2703.4259	5313.4
2706.03733	5343.9
2708.64714	5311.9
2711.25533	5320.9
2713.86191	5308.3
2716.46687	5317.1
2719.07021	5307.5
2721.67194	5286.9
2724.27206	5299.2
2726.87057	5294.5
2729.46747	5292.5
2732.06276	5296.3
2734.65644	5283.4
2737.24852	5285.1
2739.83899	5267.9
2742.42786	5274.5
2745.01513	5268.5
2747.60079	5256.6
2750.18486	5254
2752.76733	5253.5
2755.3482	5244.1
2757.92747	5241.9
2760.50515	5226
2763.08123	5218.4
2765.65573	5202.1
2768.22863	5214.4
2770.79994	5188
2773.36967	5193.3
2775.9378	5202.4
2778.50435	5178.8
2781.06932	5171
2783.6327	5179.4
2786.1945	5165.8
2788.75471	5155.7
2791.31335	5152.4
2793.87041	5139
2796.42589	5106
2798.97979	5126
2801.53212	5107.3
2804.08288	5121
2806.63206	5107.8
2809.17967	5091.5
2811.72571	5094.2
2814.27018	5095.7
2816.81308	5084.5
2819.35442	5081.4
2821.89419	5083.4
2824.43239	5095.6
2826.96904	5091.8
2829.50412	5093.9
2832.03763	5073.2
2834.56959	5084.7
2837.1	5080.2
2839.62884	5095.5
2842.15613	5103.5
2844.68186	5127.7
2847.20604	5140.8
2849.72867	5177.9
2852.24974	5189.9
2854.76927	5194.1
2857.28724	5185.4
2859.80367	5179
2862.31855	5143.2
2864.83189	5151.5
2867.34368	5143.1
2869.85393	5129.3
2872.36264	5117.2
2874.8698	5123.6
2877.37543	5127.3
2879.87952	5113.4
2882.38207	5102.9
2884.88308	5109
2887.38256	5097
2889.88051	5110.3
2892.37692	5099.4
2894.8718	5092.5
2897.36515	5087.9
2899.85698	5093.9
2902.34727	5105.9
2904.83604	5112.7
2907.32328	5108.9
2909.809	5102.2
2912.29319	5103.3
2914.77587	5097.9
2917.25702	5086.2
2919.73665	5094.9
2922.21476	5070
2924.69136	5080.3
2927.16644	5092.9
2929.64	5067.2
2932.11205	5067.6
2934.58258	5046.5
2937.05161	5027
2939.51912	5044.1
2941.98513	5006
2944.44962	4988.5
2946.91261	4961.1
2949.37409	4944.5
2951.83407	4936.2
2954.29254	4924.8
2956.74951	4898.9
2959.20498	4920.7
2961.65895	4889.2
2964.11142	4894.3
2966.56239	4865.5
2969.01186	4880.9
2971.45984	4844.2
2973.90632	4845.6
2976.35131	4812.4
2978.7948	4815.5
2981.23681	4799.9
2983.67732	4788.2
2986.11635	4775.2
2988.55388	4763.4
2990.98993	4748.5
2993.4245	4744.5
2995.85758	4741.6
2998.28917	4727
3000.71928	4729.7
3003.14791	4702.3
3005.57506	4703.9
3008.00073	4693.3
3010.42493	4691.6
3012.84764	4677.4
3015.26888	4669.4
3017.68865	4667.2
3020.10694	4665.7
3022.52376	4653.4
3024.9391	4633.1
3027.35298	4648
3029.76539	4640.2
3032.17632	4645.5
3034.5858	4621
3036.9938	4632
3039.40034	4611.8
3041.80542	4609.2
3044.20903	4602.2
3046.61118	4597.9
3049.01187	4591.4
3051.4111	4576.3
3053.80888	4575.9
3056.20519	4567.8
3058.60005	4566.5
3060.99345	4546.6
3063.3854	4542.7
3065.7759	4537
3068.16494	4536.6
3070.55254	4511
3072.93868	4512.7
3075.32338	4489.3
3077.70662	4483.3
3080.08842	4473.1
3082.46878	4468.7
3084.84769	4466.9
3087.22515	4453.5
3089.60118	4444
3091.97576	4457
3094.3489	4440.4
3096.72061	4463.6
3099.09087	4448.5
3101.4597	4451.2
3103.82709	4430.9
3106.19305	4438.3
3108.55757	4424.1
3110.92066	4414
3113.28232	4401.4
3115.64255	4391.4
3118.00134	4392.3
3120.35871	4412.6
3122.71466	4396.7
3125.06917	4403.8
3127.42226	4376.1
3129.77393	4405.7
3132.12417	4392.1
3134.47299	4409.4
3136.82039	4401.7
3139.16636	4391.6
3141.51092	4417.9
3143.85406	4412.6
3146.19579	4418.9
3148.53609	4417.5
3150.87499	4426.2
3153.21246	4417.4
3155.54853	4447.9
3157.88318	4445.7
3160.21642	4437.1
3162.54826	4415.9
3164.87868	4421.4
3167.2077	4439.7
3169.5353	4442.8
3171.86151	4432.2
3174.18631	4427.8
3176.5097	4439.3
3178.83169	4424.8
3181.15228	4418.5
3183.47147	4410.4
3185.78926	4417.4
3188.10565	4422.9
3190.42065	4427.9
3192.73424	4427.6
3195.04645	4418.9
3197.35725	4447.8
3199.66667	4433.3
3201.97469	4447.3
3204.28132	4438.9
3206.58656	4455
3208.8904	4453.6
3211.19287	4452.8
3213.49394	4450.2
3215.79363	4445.7
3218.09193	4453
3220.38884	4468.9
3222.68438	4470.3
3224.97853	4452.7
3227.2713	4436.1
3229.56269	4444.3
3231.8527	4445.4
3234.14133	4431.7
3236.42858	4418.8
3238.71446	4407.8
3240.99896	4400.7
3243.28209	4407
3245.56384	4387.9
3247.84423	4407.2
3250.12324	4394.7
3252.40088	4410.6
3254.67715	4390.8
3256.95205	4386.3
3259.22558	4391.2
3261.49775	4380.6
3263.76855	4385.4
3266.03799	4367.4
3268.30606	4362.2
3270.57277	4339.8
3272.83812	4335.7
3275.10211	4332.8
3277.36474	4329.8
3279.62601	4334.3
3281.88593	4312.6
3284.14448	4338.6
3286.40168	4335.8
3288.65753	4323.5
3290.91202	4304.7
3293.16516	4298.5
3295.41695	4287.5
3297.66738	4266.7
3299.91647	4248.7
3302.16421	4217.1
3304.4106	4193.6
3306.65564	4190
3308.89933	4157.9
3311.14169	4129.6
3313.38269	4112
3315.62236	4076.7
3317.86068	4042.7
3320.09766	4008.7
3322.3333	3954.5
3324.5676	3978.5
3326.80056	3912.8
3329.03219	3895
3331.26248	2.5
3333.49143	-0.5
3335.71905	-0.7
