Data from AgNP_FTO_APTES_CRN_0uM_R6G_10uM_NaF_0.1M_Addition_RamanShift__25__11-58-52-926.txt Node

Date: Wed Dec 15 11:58:52 GMT 2021
User: TCL
Spectrometer: QEP01345
Trigger mode: 4
Integration Time (sec): 7.000000E0
Scans to average: 10
Electric dark correction enabled: true
Nonlinearity correction enabled: false
Boxcar width: 0
XAxis mode: Raman Shifts
Number of Pixels in Spectrum: 1044
>>>>>Begin Spectral Data<<<<<
46.04893	0.225
50.45542	-1.175
54.85868	0.425
59.25871	-0.375
63.6555	53.825
68.04907	65.625
72.43941	65.125
76.82654	73.625
81.21044	72.425
85.59113	81.025
89.96862	86.625
94.34289	83.825
98.71396	90.625
103.08183	94.525
107.4465	96.325
111.80798	97.025
116.16626	99.625
120.52136	97.025
124.87327	95.125
129.222	102.525
133.56755	100.325
137.90993	106.225
142.24913	108.625
146.58517	120.425
150.91804	125.525
155.24774	145.425
159.57429	171.625
163.89768	206.525
168.21792	257.025
172.53501	339.425
176.84895	447.425
181.15975	619.925
185.46741	857.025
189.77193	1167.325
194.07331	1554.825
198.37157	1995.225
202.6667	2459.425
206.9587	2912.525
211.24758	3383.725
215.53334	3840.325
219.81599	4330.325
224.09553	4892.425
228.37195	5500.325
232.64527	6156.225
236.91549	6825.525
241.18261	7400.525
245.44663	7914.725
249.70755	8343.625
253.96539	8660.725
258.22014	8941.825
262.4718	9216.825
266.72039	9407.525
270.96589	9449.625
275.20832	9415.725
279.44768	9239.325
283.68397	9048.225
287.91719	8894.825
292.14735	8815.025
296.37445	8882.425
300.59849	9103.225
304.81948	9444.325
309.03742	9652.125
313.25231	9717.425
317.46415	9497.225
321.67296	9044.225
325.87872	8658.225
330.08145	8478.325
334.28114	8472.125
338.47781	8533.825
342.67145	8675.425
346.86207	8896.425
351.04966	9235.125
355.23424	9649.725
359.4158	9948.625
363.59435	10140.325
367.76989	10165.125
371.94243	10168.825
376.11196	10131.525
380.27849	10097.925
384.44203	10037.725
388.60257	9949.325
392.76012	9868.325
396.91468	9853.525
401.06626	10051.125
405.21485	10180.125
409.36047	10075.825
413.50311	9827.425
417.64277	9731.325
421.77947	9662.425
425.9132	9182.325
430.04396	9012.825
434.17176	9081.825
438.2966	9273.225
442.41849	9617.625
446.53742	10028.225
450.6534	10401.725
454.76644	10547.025
458.87653	10420.725
462.98368	10089.725
467.08789	9767.925
471.18916	9487.325
475.2875	9207.025
479.38291	8991.325
483.4754	8833.225
487.56496	8745.625
491.6516	8693.625
495.73531	8671.725
499.81612	8700.325
503.89401	8833.525
507.96899	8969.825
512.04106	9137.525
516.11023	9295.125
520.1765	9478.925
524.23987	9554.125
528.30034	9502.825
532.35792	9406.725
536.41261	9202.025
540.46441	8930.925
544.51333	8776.025
548.55936	8790.925
552.60252	8950.725
556.64279	9187.625
560.6802	9352.325
564.71473	9390.025
568.7464	9513.825
572.7752	9618.525
576.80114	9369.925
580.82422	9121.925
584.84444	9172.725
588.86181	9615.725
592.87633	10329.325
596.888	10860.925
600.89682	10704.025
604.9028	10892.425
608.90594	12763.825
612.90624	15525.925
616.90371	15089.325
620.89834	11132.525
624.89015	9080.625
628.87913	8619.725
632.86528	8626.525
636.84862	8683.725
640.82913	8588.325
644.80683	8322.125
648.78172	8097.525
652.75379	8128.725
656.72306	8375.125
660.68952	8698.225
664.65319	8601.525
668.61405	8228.725
672.57211	8025.725
676.52738	8060.125
680.47986	8028.425
684.42955	7960.625
688.37646	7908.725
692.32058	7885.725
696.26192	7950.025
700.20048	8089.625
704.13626	8177.625
708.06928	8162.725
711.99952	8128.725
715.927	8147.525
719.85171	8193.925
723.77365	8205.225
727.69284	8128.025
731.60928	8066.925
735.52295	8070.125
739.43388	8101.325
743.34206	8137.825
747.24749	8110.025
751.15017	8143.725
755.05012	8213.025
758.94733	8496.025
762.8418	9184.525
766.73354	10527.725
770.62254	12073.925
774.50882	12881.125
778.39237	12329.925
782.27321	10830.025
786.15132	9409.625
790.02671	8541.525
793.89938	8140.425
797.76935	7953.925
801.6366	7872.925
805.50115	7797.925
809.36299	7732.225
813.22213	7667.325
817.07857	7629.925
820.93231	7627.425
824.78336	7596.225
828.63172	7629.525
832.47738	7654.025
836.32036	7678.525
840.16066	7653.825
843.99827	7630.325
847.8332	7631.425
851.66546	7618.225
855.49504	7585.625
859.32195	7558.425
863.1462	7512.125
866.96777	7465.925
870.78668	7473.725
874.60293	7475.825
878.41652	7467.825
882.22745	7515.725
886.03573	7553.025
889.84136	7554.125
893.64433	7526.125
897.44466	7531.125
901.24235	7548.625
905.0374	7573.625
908.8298	7607.125
912.61957	7621.225
916.40671	7686.925
920.19121	7783.425
923.97308	7908.525
927.75233	8010.925
931.52895	8029.925
935.30295	7942.825
939.07433	7721.625
942.84309	7511.925
946.60924	7353.225
950.37278	7249.225
954.13371	7179.725
957.89203	7104.025
961.64774	7048.925
965.40086	7005.225
969.15137	6990.825
972.89929	6956.225
976.64461	6936.825
980.38733	6920.325
984.12747	6946.525
987.86502	6956.925
991.59999	7021.425
995.33237	7106.825
999.06217	7272.025
1002.78939	7458.725
1006.51404	7601.225
1010.23611	7725.625
1013.95561	7774.825
1017.67255	7751.825
1021.38692	7583.625
1025.09872	7363.325
1028.80796	7233.325
1032.51465	7206.325
1036.21877	7264.525
1039.92035	7321.925
1043.61937	7399.825
1047.31584	7408.525
1051.00976	7451.225
1054.70114	7498.825
1058.38998	7497.325
1062.07627	7532.325
1065.76003	7586.525
1069.44126	7656.525
1073.11995	7821.925
1076.79611	7979.725
1080.46974	8077.825
1084.14085	8136.225
1087.80943	8172.225
1091.47549	8085.525
1095.13903	7882.225
1098.80005	7549.825
1102.45857	7253.725
1106.11456	7158.225
1109.76805	7183.725
1113.41903	7324.225
1117.06751	7534.525
1120.71348	7778.625
1124.35696	8037.825
1127.99793	8268.525
1131.63641	8335.325
1135.2724	8005.725
1138.90589	7637.325
1142.5369	7388.625
1146.16542	7242.925
1149.79145	7133.725
1153.415	7090.425
1157.03607	7101.625
1160.65467	7240.925
1164.27079	7504.525
1167.88443	7984.225
1171.49561	8815.925
1175.10432	10094.225
1178.71056	11760.425
1182.31434	13149.525
1185.91565	13386.925
1189.51451	12793.825
1193.11091	11746.625
1196.70485	10691.925
1200.29634	9891.925
1203.88538	9208.725
1207.47197	8526.725
1211.05612	8011.925
1214.63782	7780.725
1218.21708	7817.025
1221.79391	8014.125
1225.36829	8173.625
1228.94024	8128.725
1232.50976	7898.125
1236.07685	7669.725
1239.6415	7505.125
1243.20374	7437.025
1246.76355	7403.625
1250.32093	7447.725
1253.8759	7574.625
1257.42845	7779.725
1260.97859	8024.925
1264.52631	8338.425
1268.07163	8638.225
1271.61453	8874.425
1275.15503	9109.025
1278.69312	9244.925
1282.22882	9389.225
1285.76211	9664.725
1289.29301	10136.025
1292.82151	10662.725
1296.34761	11208.825
1299.87133	11851.325
1303.39266	12832.625
1306.9116	14227.225
1310.42815	16028.825
1313.94233	17358.625
1317.45412	17273.825
1320.96354	15950.125
1324.47058	14183.125
1327.97525	12633.525
1331.47754	11628.125
1334.97747	11161.325
1338.47502	11067.325
1341.97022	11156.025
1345.46305	11439.825
1348.95352	12174.625
1352.44163	13505.725
1355.92738	15419.825
1359.41078	17982.225
1362.89183	20609.925
1366.37053	20943.225
1369.84688	18049.325
1373.32088	14388.125
1376.79254	11926.825
1380.26186	10782.625
1383.72883	10278.025
1387.19347	9910.225
1390.65578	9510.325
1394.11575	9222.625
1397.57339	9132.725
1401.0287	9192.525
1404.48168	9259.125
1407.93234	9277.125
1411.38068	9185.525
1414.82669	9054.825
1418.27039	8860.825
1421.71177	8679.125
1425.15083	8443.025
1428.58758	8338.025
1432.02203	8440.125
1435.45416	8642.325
1438.88399	8798.125
1442.31151	8880.525
1445.73673	8896.225
1449.15965	8907.725
1452.58027	8812.225
1455.9986	8578.625
1459.41463	8419.925
1462.82837	8403.325
1466.23982	8640.825
1469.64898	8923.325
1473.05586	9149.925
1476.46045	9257.725
1479.86276	9370.325
1483.26279	9449.525
1486.66054	9558.925
1490.05602	9713.225
1493.44922	9974.125
1496.84016	10338.425
1500.22882	11081.825
1503.61521	12283.225
1506.99934	13855.625
1510.38121	15528.325
1513.76081	16409.825
1517.13816	15789.925
1520.51324	13892.325
1523.88607	11903.425
1527.25665	10569.925
1530.62498	9899.225
1533.99105	9533.425
1537.35488	9267.425
1540.71647	9024.125
1544.07581	8827.825
1547.4329	8643.725
1550.78776	8496.325
1554.14038	8397.925
1557.49077	8399.425
1560.83892	8489.925
1564.18484	8714.225
1567.52853	9067.225
1570.86999	9514.425
1574.20922	9988.925
1577.54624	10280.925
1580.88103	10069.625
1584.2136	9420.525
1587.54395	8844.725
1590.87208	8738.825
1594.19801	9189.025
1597.52172	10071.625
1600.84321	10698.325
1604.16251	10497.825
1607.47959	9626.125
1610.79447	8543.925
1614.10715	7558.625
1617.41763	6890.725
1620.7259	6503.825
1624.03199	6329.825
1627.33587	6311.125
1630.63757	6475.725
1633.93707	6841.925
1637.23439	7539.225
1640.52951	8704.925
1643.82246	10363.825
1647.11321	12107.725
1650.40179	13137.125
1653.68819	12555.525
1656.97241	10562.125
1660.25446	8429.725
1663.53433	6982.825
1666.81203	6102.425
1670.08756	5657.125
1673.36092	5380.525
1676.63211	5172.725
1679.90115	5058.425
1683.16801	4966.625
1686.43272	4915.125
1689.69527	4871.925
1692.95567	4834.325
1696.2139	4810.325
1699.46999	4766.525
1702.72392	4738.225
1705.97571	4732.325
1709.22535	4737.325
1712.47284	4722.925
1715.71819	4714.925
1718.96139	4708.325
1722.20246	4673.925
1725.44139	4645.625
1728.67818	4601.725
1731.91284	4553.525
1735.14537	4526.625
1738.37576	4481.525
1741.60403	4469.025
1744.83017	4456.025
1748.05418	4412.425
1751.27607	4399.525
1754.49584	4380.225
1757.71349	4363.125
1760.92903	4354.425
1764.14244	4337.025
1767.35375	4325.525
1770.56294	4308.525
1773.77002	4297.725
1776.97499	4292.925
1780.17785	4290.225
1783.37861	4270.025
1786.57727	4258.125
1789.77382	4239.125
1792.96828	4229.025
1796.16064	4219.225
1799.3509	4198.925
1802.53907	4194.425
1805.72514	4170.325
1808.90913	4168.025
1812.09102	4143.925
1815.27083	4127.725
1818.44856	4106.325
1821.6242	4097.925
1824.79776	4097.625
1827.96924	4082.425
1831.13864	4066.025
1834.30597	4074.225
1837.47122	4055.425
1840.6344	4047.325
1843.7955	4042.625
1846.95454	4043.625
1850.11151	4040.025
1853.26642	4028.325
1856.41926	4023.425
1859.57004	4006.025
1862.71876	4003.725
1865.86542	3999.225
1869.01003	3998.225
1872.15258	3980.825
1875.29308	3986.025
1878.43152	3971.725
1881.56792	3974.825
1884.70227	3973.825
1887.83457	3984.525
1890.96482	3989.425
1894.09304	3969.725
1897.21921	3963.525
1900.34335	3959.525
1903.46544	3978.825
1906.58551	3956.825
1909.70353	3973.325
1912.81953	3970.925
1915.93349	3947.525
1919.04543	3925.025
1922.15534	3926.125
1925.26322	3905.425
1928.36908	3897.425
1931.47292	3875.325
1934.57473	3860.925
1937.67453	3830.125
1940.77232	3815.225
1943.86808	3802.725
1946.96184	3771.825
1950.05358	3754.925
1953.14331	3745.225
1956.23103	3742.425
1959.31675	3722.425
1962.40046	3706.725
1965.48217	3699.225
1968.56188	3702.625
1971.63959	3671.425
1974.7153	3672.525
1977.78901	3651.425
1980.86073	3636.925
1983.93046	3621.025
1986.99819	3603.025
1990.06394	3576.325
1993.1277	3583.925
1996.18947	3547.525
1999.24925	3538.125
2002.30706	3542.425
2005.36288	3527.925
2008.41672	3513.725
2011.46859	3485.825
2014.51848	3490.725
2017.56639	3464.525
2020.61233	3462.625
2023.6563	3445.525
2026.6983	3425.125
2029.73833	3419.225
2032.7764	3408.025
2035.8125	3409.425
2038.84664	3399.925
2041.87881	3395.825
2044.90903	3378.125
2047.93729	3368.325
2050.96359	3361.125
2053.98794	3355.325
2057.01034	3349.425
2060.03078	3361.825
2063.04927	3330.925
2066.06582	3335.425
2069.08042	3331.225
2072.09307	3318.425
2075.10378	3312.025
2078.11255	3318.325
2081.11938	3323.925
2084.12426	3309.925
2087.12722	3295.725
2090.12824	3305.125
2093.12732	3314.425
2096.12447	3306.825
2099.11969	3290.225
2102.11299	3295.225
2105.10435	3305.125
2108.09379	3295.525
2111.08131	3281.225
2114.0669	3292.725
2117.05057	3291.125
2120.03233	3278.525
2123.01216	3281.525
2125.99008	3272.125
2128.96609	3293.725
2131.94018	3278.025
2134.91236	3280.925
2137.88263	3289.625
2140.851	3275.125
2143.81746	3273.725
2146.78201	3280.525
2149.74466	3276.025
2152.7054	3265.425
2155.66425	3274.625
2158.6212	3252.425
2161.57625	3254.825
2164.52941	3259.725
2167.48067	3247.725
2170.43004	3234.725
2173.37752	3248.525
2176.32311	3234.725
2179.26681	3242.025
2182.20863	3243.225
2185.14856	3234.425
2188.08661	3234.625
2191.02278	3240.425
2193.95707	3242.425
2196.88948	3224.425
2199.82001	3223.325
2202.74867	3220.625
2205.67545	3211.625
2208.60037	3208.825
2211.52341	3195.025
2214.44458	3179.625
2217.36388	3180.425
2220.28132	3156.525
2223.1969	3157.725
2226.11061	3164.125
2229.02246	3145.025
2231.93245	3135.225
2234.84058	3129.725
2237.74686	3117.925
2240.65128	3117.225
2243.55385	3120.125
2246.45456	3096.125
2249.35343	3114.925
2252.25044	3093.525
2255.14561	3084.325
2258.03893	3078.025
2260.93041	3074.025
2263.82004	3068.725
2266.70783	3067.725
2269.59378	3057.125
2272.4779	3038.825
2275.36017	3038.425
2278.24061	3027.925
2281.11922	3017.625
2283.996	3013.025
2286.87094	2998.825
2289.74405	2972.825
2292.61534	2974.525
2295.4848	2973.625
2298.35243	2965.425
2301.21824	2960.825
2304.08223	2968.925
2306.94439	2952.025
2309.80474	2955.525
2312.66327	2952.725
2315.51999	2947.825
2318.37489	2942.525
2321.22797	2938.525
2324.07925	2934.025
2326.92871	2938.825
2329.77637	2922.625
2332.62222	2914.125
2335.46626	2900.125
2338.3085	2907.025
2341.14893	2921.325
2343.98756	2906.825
2346.8244	2897.925
2349.65943	2899.425
2352.49267	2906.525
2355.32411	2912.025
2358.15376	2906.525
2360.98161	2917.425
2363.80768	2911.325
2366.63195	2909.125
2369.45444	2919.225
2372.27514	2921.125
2375.09405	2905.825
2377.91118	2899.325
2380.72652	2897.625
2383.54009	2874.525
2386.35187	2862.325
2389.16188	2853.025
2391.97011	2834.225
2394.77657	2825.625
2397.58125	2813.925
2400.38416	2810.325
2403.18529	2780.525
2405.98466	2781.825
2408.78226	2781.625
2411.57809	2770.025
2414.37216	2767.625
2417.16446	2761.925
2419.955	2764.725
2422.74378	2744.625
2425.5308	2752.225
2428.31606	2751.625
2431.09956	2742.925
2433.88131	2738.525
2436.6613	2741.025
2439.43954	2728.925
2442.21603	2734.625
2444.99077	2730.225
2447.76377	2738.825
2450.53501	2723.225
2453.30451	2728.525
2456.07226	2733.425
2458.83827	2736.925
2461.60254	2735.225
2464.36507	2729.825
2467.12586	2719.225
2469.88492	2706.125
2472.64224	2720.525
2475.39782	2729.225
2478.15167	2720.025
2480.90379	2727.225
2483.65417	2729.725
2486.40283	2729.925
2489.14976	2737.025
2491.89497	2731.825
2494.63845	2743.025
2497.3802	2724.225
2500.12024	2733.725
2502.85855	2733.725
2505.59514	2706.825
2508.33002	2703.325
2511.06318	2684.525
2513.79462	2664.425
2516.52435	2659.225
2519.25237	2651.425
2521.97867	2646.725
2524.70327	2627.525
2527.42616	2625.925
2530.14734	2632.625
2532.86681	2615.625
2535.58458	2611.725
2538.30065	2602.225
2541.01501	2616.125
2543.72768	2622.725
2546.43864	2609.725
2549.14791	2625.425
2551.85548	2606.125
2554.56136	2611.625
2557.26554	2604.525
2559.96803	2588.925
2562.66883	2590.725
2565.36794	2587.325
2568.06536	2590.525
2570.7611	2586.225
2573.45514	2589.425
2576.14751	2569.925
2578.83819	2566.625
2581.52719	2564.725
2584.21451	2555.225
2586.90015	2561.025
2589.58411	2547.825
2592.2664	2546.325
2594.94701	2541.325
2597.62594	2528.325
2600.30321	2532.625
2602.9788	2534.225
2605.65273	2520.325
2608.32498	2532.325
2610.99557	2514.125
2613.66449	2515.025
2616.33175	2522.325
2618.99734	2527.625
2621.66128	2505.325
2624.32355	2513.625
2626.98416	2499.325
2629.64311	2501.825
2632.30041	2507.425
2634.95605	2497.225
2637.61004	2497.725
2640.26238	2490.425
2642.91306	2495.025
2645.56209	2483.725
2648.20948	2465.225
2650.85521	2482.925
2653.4993	2487.125
2656.14175	2494.025
2658.78255	2493.625
2661.42171	2493.525
2664.05923	2493.625
2666.6951	2492.725
2669.32934	2498.925
2671.96194	2499.025
2674.59291	2494.925
2677.22224	2497.025
2679.84993	2499.025
2682.476	2493.125
2685.10043	2506.725
2687.72324	2488.625
2690.34441	2488.325
2692.96396	2492.025
2695.58188	2491.825
2698.19818	2480.625
2700.81285	2485.025
2703.4259	2485.125
2706.03733	2485.925
2708.64714	2491.125
2711.25533	2503.125
2713.86191	2509.325
2716.46687	2509.225
2719.07021	2527.125
2721.67194	2523.025
2724.27206	2521.125
2726.87057	2534.225
2729.46747	2540.525
2732.06276	2554.525
2734.65644	2555.625
2737.24852	2565.325
2739.83899	2569.125
2742.42786	2576.025
2745.01513	2572.625
2747.60079	2575.925
2750.18486	2583.725
2752.76733	2594.025
2755.3482	2592.825
2757.92747	2599.625
2760.50515	2605.125
2763.08123	2603.625
2765.65573	2606.425
2768.22863	2616.725
2770.79994	2614.125
2773.36967	2606.325
2775.9378	2621.625
2778.50435	2611.925
2781.06932	2621.525
2783.6327	2617.825
2786.1945	2629.725
2788.75471	2632.225
2791.31335	2648.925
2793.87041	2640.825
2796.42589	2642.925
2798.97979	2648.825
2801.53212	2651.825
2804.08288	2658.525
2806.63206	2648.525
2809.17967	2665.125
2811.72571	2656.525
2814.27018	2663.425
2816.81308	2675.725
2819.35442	2677.225
2821.89419	2672.425
2824.43239	2687.925
2826.96904	2690.725
2829.50412	2683.925
2832.03763	2686.225
2834.56959	2701.425
2837.1	2700.825
2839.62884	2719.625
2842.15613	2748.725
2844.68186	2766.225
2847.20604	2794.025
2849.72867	2831.225
2852.24974	2855.725
2854.76927	2872.025
2857.28724	2892.725
2859.80367	2916.525
2862.31855	2923.325
2864.83189	2936.625
2867.34368	2963.725
2869.85393	2969.825
2872.36264	2971.125
2874.8698	2987.125
2877.37543	3002.625
2879.87952	3014.225
2882.38207	3026.425
2884.88308	3015.125
2887.38256	3027.525
2889.88051	3029.925
2892.37692	3029.525
2894.8718	3029.525
2897.36515	3031.225
2899.85698	3034.425
2902.34727	3019.925
2904.83604	3020.725
2907.32328	3010.225
2909.809	3034.925
2912.29319	3028.325
2914.77587	3016.125
2917.25702	3022.325
2919.73665	3008.625
2922.21476	3005.525
2924.69136	2995.225
2927.16644	3004.425
2929.64	2970.925
2932.11205	2947.425
2934.58258	2917.925
2937.05161	2916.125
2939.51912	2875.125
2941.98513	2840.925
2944.44962	2806.225
2946.91261	2758.325
2949.37409	2728.825
2951.83407	2687.925
2954.29254	2667.125
2956.74951	2633.525
2959.20498	2605.225
2961.65895	2560.025
2964.11142	2553.925
2966.56239	2516.025
2969.01186	2502.725
2971.45984	2470.425
2973.90632	2452.425
2976.35131	2421.625
2978.7948	2404.525
2981.23681	2377.625
2983.67732	2356.225
2986.11635	2335.025
2988.55388	2325.725
2990.98993	2311.525
2993.4245	2294.525
2995.85758	2296.025
2998.28917	2271.425
3000.71928	2268.325
3003.14791	2262.425
3005.57506	2253.525
3008.00073	2251.525
3010.42493	2241.325
3012.84764	2237.525
3015.26888	2234.525
3017.68865	2224.925
3020.10694	2227.125
3022.52376	2225.125
3024.9391	2209.525
3027.35298	2199.025
3029.76539	2215.125
3032.17632	2187.425
3034.5858	2180.925
3036.9938	2193.825
3039.40034	2184.525
3041.80542	2188.325
3044.20903	2174.725
3046.61118	2186.125
3049.01187	2169.225
3051.4111	2169.425
3053.80888	2166.225
3056.20519	2172.325
3058.60005	2164.725
3060.99345	2173.425
3063.3854	2165.025
3065.7759	2157.425
3068.16494	2164.225
3070.55254	2157.925
3072.93868	2154.525
3075.32338	2152.925
3077.70662	2148.325
3080.08842	2142.525
3082.46878	2134.125
3084.84769	2139.425
3087.22515	2149.925
3089.60118	2139.225
3091.97576	2146.025
3094.3489	2147.325
3096.72061	2149.925
3099.09087	2140.425
3101.4597	2157.225
3103.82709	2151.825
3106.19305	2143.425
3108.55757	2154.925
3110.92066	2148.725
3113.28232	2148.025
3115.64255	2158.025
3118.00134	2153.025
3120.35871	2149.525
3122.71466	2156.925
3125.06917	2157.325
3127.42226	2154.625
3129.77393	2172.225
3132.12417	2170.925
3134.47299	2173.125
3136.82039	2194.225
3139.16636	2185.025
3141.51092	2198.325
3143.85406	2200.825
3146.19579	2196.125
3148.53609	2212.325
3150.87499	2210.425
3153.21246	2217.425
3155.54853	2220.025
3157.88318	2227.525
3160.21642	2228.125
3162.54826	2236.325
3164.87868	2239.125
3167.2077	2239.025
3169.5353	2252.425
3171.86151	2252.125
3174.18631	2248.825
3176.5097	2267.325
3178.83169	2262.925
3181.15228	2263.525
3183.47147	2260.625
3185.78926	2267.225
3188.10565	2268.825
3190.42065	2284.625
3192.73424	2288.225
3195.04645	2283.025
3197.35725	2287.325
3199.66667	2292.225
3201.97469	2312.025
3204.28132	2302.825
3206.58656	2302.725
3208.8904	2312.625
3211.19287	2314.025
3213.49394	2319.325
3215.79363	2314.925
3218.09193	2332.825
3220.38884	2324.925
3222.68438	2325.525
3224.97853	2333.925
3227.2713	2324.925
3229.56269	2334.525
3231.8527	2329.225
3234.14133	2333.825
3236.42858	2338.325
3238.71446	2336.325
3240.99896	2331.825
3243.28209	2343.725
3245.56384	2337.625
3247.84423	2352.025
3250.12324	2346.625
3252.40088	2348.125
3254.67715	2359.225
3256.95205	2351.725
3259.22558	2363.025
3261.49775	2336.025
3263.76855	2348.925
3266.03799	2346.025
3268.30606	2352.125
3270.57277	2358.125
3272.83812	2361.225
3275.10211	2342.625
3277.36474	2349.525
3279.62601	2347.125
3281.88593	2341.425
3284.14448	2337.125
3286.40168	2341.625
3288.65753	2356.125
3290.91202	2325.225
3293.16516	2330.125
3295.41695	2318.925
3297.66738	2309.125
3299.91647	2296.025
3302.16421	2280.925
3304.4106	2263.525
3306.65564	2271.125
3308.89933	2245.525
3311.14169	2230.625
3313.38269	2208.025
3315.62236	2185.525
3317.86068	2169.525
3320.09766	2151.025
3322.3333	2138.025
3324.5676	2138.925
3326.80056	2100.625
3329.03219	2082.825
3331.26248	0.625
3333.49143	-0.475
3335.71905	0.725
