Data from AgNP_FTO_APTES_CRN_20uM_R6G_10uM_NaF_0.1M_Addition_RamanShift__32__17-37-48-045.txt Node

Date: Wed Dec 15 17:37:48 GMT 2021
User: TCL
Spectrometer: QEP01345
Trigger mode: 4
Integration Time (sec): 7.000000E0
Scans to average: 10
Electric dark correction enabled: true
Nonlinearity correction enabled: false
Boxcar width: 0
XAxis mode: Raman Shifts
Number of Pixels in Spectrum: 1044
>>>>>Begin Spectral Data<<<<<
46.04893	1.4375
50.45542	-2.0625
54.85868	-1.3625
59.25871	-0.7625
63.6555	59.3375
68.04907	63.6375
72.43941	67.6375
76.82654	73.2375
81.21044	71.8375
85.59113	77.9375
89.96862	80.1375
94.34289	79.4375
98.71396	84.3375
103.08183	90.4375
107.4465	88.4375
111.80798	94.1375
116.16626	94.5375
120.52136	100.2375
124.87327	98.7375
129.222	102.7375
133.56755	104.0375
137.90993	113.0375
142.24913	125.0375
146.58517	138.6375
150.91804	152.8375
155.24774	179.2375
159.57429	219.1375
163.89768	281.9375
168.21792	368.8375
172.53501	490.5375
176.84895	683.6375
181.15975	956.8375
185.46741	1332.9375
189.77193	1838.4375
194.07331	2459.0375
198.37157	3175.7375
202.6667	3939.9375
206.9587	4676.9375
211.24758	5422.9375
215.53334	6182.3375
219.81599	6988.3375
224.09553	7901.1375
228.37195	8928.6375
232.64527	10025.4375
236.91549	11180.9375
241.18261	12293.9375
245.44663	13266.2375
249.70755	14092.0375
253.96539	14802.2375
258.22014	15455.4375
262.4718	16019.8375
266.72039	16433.9375
270.96589	16689.2375
275.20832	16735.1375
279.44768	16630.6375
283.68397	16428.5375
287.91719	16290.7375
292.14735	16259.8375
296.37445	16443.1375
300.59849	16679.3375
304.81948	17094.1375
309.03742	17331.4375
313.25231	17237.3375
317.46415	16672.2375
321.67296	15799.8375
325.87872	15041.4375
330.08145	14678.4375
334.28114	14686.5375
338.47781	14846.0375
342.67145	15123.3375
346.86207	15615.5375
351.04966	16228.7375
355.23424	16951.6375
359.4158	17506.0375
363.59435	17822.0375
367.76989	17955.8375
371.94243	17998.1375
376.11196	17955.6375
380.27849	17952.4375
384.44203	17848.8375
388.60257	17746.7375
392.76012	17743.7375
396.91468	17914.6375
401.06626	18293.4375
405.21485	18557.3375
409.36047	18388.1375
413.50311	17806.8375
417.64277	17220.2375
421.77947	16899.0375
425.9132	16814.9375
430.04396	16833.6375
434.17176	16955.4375
438.2966	17146.3375
442.41849	17465.7375
446.53742	17890.8375
450.6534	18338.2375
454.76644	18716.8375
458.87653	18839.5375
462.98368	18784.1375
467.08789	18540.1375
471.18916	18219.0375
475.2875	17845.9375
479.38291	17596.0375
483.4754	17328.9375
487.56496	17105.1375
491.6516	16947.2375
495.73531	16811.4375
499.81612	16795.9375
503.89401	16901.1375
507.96899	17006.1375
512.04106	17180.3375
516.11023	17387.0375
520.1765	17531.1375
524.23987	17504.4375
528.30034	17338.8375
532.35792	17094.8375
536.41261	16823.0375
540.46441	16513.9375
544.51333	16415.0375
548.55936	16484.6375
552.60252	16774.8375
556.64279	17122.6375
560.6802	17253.2375
564.71473	17406.0375
568.7464	17746.7375
572.7752	18069.0375
576.80114	17879.0375
580.82422	17578.1375
584.84444	17499.1375
588.86181	17565.3375
592.87633	17757.3375
596.888	17984.2375
600.89682	18404.1375
604.9028	19738.3375
608.90594	23180.1375
612.90624	27627.2375
616.90371	26705.0375
620.89834	20585.4375
624.89015	17677.1375
628.87913	17156.0375
632.86528	17151.7375
636.84862	17194.5375
640.82913	16959.1375
644.80683	16424.0375
648.78172	16077.2375
652.75379	16108.8375
656.72306	16504.3375
660.68952	17023.6375
664.65319	16995.1375
668.61405	16474.7375
672.57211	16195.8375
676.52738	16201.9375
680.47986	16181.8375
684.42955	16122.3375
688.37646	16115.0375
692.32058	16161.0375
696.26192	16299.5375
700.20048	16454.9375
704.13626	16546.6375
708.06928	16535.6375
711.99952	16403.7375
715.927	16339.7375
719.85171	16359.0375
723.77365	16349.1375
727.69284	16232.7375
731.60928	16085.7375
735.52295	16070.1375
739.43388	16113.8375
743.34206	16209.4375
747.24749	16265.8375
751.15017	16341.2375
755.05012	16600.3375
758.94733	17150.9375
762.8418	18305.7375
766.73354	20336.1375
770.62254	22443.2375
774.50882	23482.3375
778.39237	22482.4375
782.27321	20246.8375
786.15132	18167.4375
790.02671	16936.7375
793.89938	16400.8375
797.76935	16199.7375
801.6366	16113.5375
805.50115	16017.0375
809.36299	15929.8375
813.22213	15895.9375
817.07857	15881.4375
820.93231	15861.4375
824.78336	15906.5375
828.63172	15965.5375
832.47738	16018.8375
836.32036	16032.7375
840.16066	16045.7375
843.99827	16045.1375
847.8332	15968.4375
851.66546	15890.5375
855.49504	15884.9375
859.32195	15840.3375
863.1462	15768.8375
866.96777	15716.0375
870.78668	15646.3375
874.60293	15660.4375
878.41652	15716.0375
882.22745	15770.8375
886.03573	15791.4375
889.84136	15782.0375
893.64433	15670.7375
897.44466	15623.3375
901.24235	15598.8375
905.0374	15626.5375
908.8298	15580.5375
912.61957	15584.7375
916.40671	15687.8375
920.19121	15802.2375
923.97308	15955.1375
927.75233	16078.3375
931.52895	16145.8375
935.30295	16027.2375
939.07433	15713.7375
942.84309	15441.4375
946.60924	15330.3375
950.37278	15195.7375
954.13371	15117.5375
957.89203	15034.9375
961.64774	14980.7375
965.40086	14948.3375
969.15137	14883.8375
972.89929	14824.4375
976.64461	14803.5375
980.38733	14806.5375
984.12747	14860.8375
987.86502	14959.1375
991.59999	15075.9375
995.33237	15322.3375
999.06217	15708.2375
1002.78939	16143.1375
1006.51404	16476.5375
1010.23611	16668.4375
1013.95561	16836.5375
1017.67255	16829.2375
1021.38692	16651.3375
1025.09872	16539.9375
1028.80796	16638.1375
1032.51465	17000.6375
1036.21877	17393.7375
1039.92035	17473.2375
1043.61937	17289.1375
1047.31584	16928.4375
1051.00976	16599.9375
1054.70114	16401.0375
1058.38998	16371.6375
1062.07627	16423.6375
1065.76003	16575.7375
1069.44126	16744.4375
1073.11995	17034.9375
1076.79611	17303.1375
1080.46974	17493.7375
1084.14085	17622.9375
1087.80943	17686.1375
1091.47549	17593.6375
1095.13903	17276.5375
1098.80005	16826.1375
1102.45857	16449.1375
1106.11456	16289.9375
1109.76805	16291.1375
1113.41903	16530.7375
1117.06751	16837.1375
1120.71348	17198.3375
1124.35696	17587.7375
1127.99793	17946.5375
1131.63641	17982.8375
1135.2724	17554.5375
1138.90589	17059.6375
1142.5369	16766.9375
1146.16542	16561.1375
1149.79145	16414.1375
1153.415	16430.0375
1157.03607	16555.4375
1160.65467	16804.6375
1164.27079	17263.9375
1167.88443	18009.5375
1171.49561	19112.1375
1175.10432	20855.8375
1178.71056	23151.2375
1182.31434	25004.4375
1185.91565	25654.9375
1189.51451	25236.5375
1193.11091	23983.1375
1196.70485	22396.0375
1200.29634	21208.7375
1203.88538	20352.8375
1207.47197	19529.4375
1211.05612	18839.9375
1214.63782	18438.0375
1218.21708	18345.2375
1221.79391	18378.3375
1225.36829	18454.9375
1228.94024	18443.7375
1232.50976	18317.0375
1236.07685	18268.7375
1239.6415	18264.5375
1243.20374	18357.8375
1246.76355	18513.7375
1250.32093	18743.4375
1253.8759	19166.2375
1257.42845	19683.8375
1260.97859	20157.4375
1264.52631	20558.8375
1268.07163	20998.9375
1271.61453	21482.5375
1275.15503	21921.6375
1278.69312	22226.1375
1282.22882	22498.7375
1285.76211	22796.1375
1289.29301	23220.5375
1292.82151	23782.0375
1296.34761	24417.2375
1299.87133	25367.2375
1303.39266	26850.5375
1306.9116	29036.4375
1310.42815	31642.3375
1313.94233	33417.4375
1317.45412	33258.2375
1320.96354	31802.8375
1324.47058	30032.6375
1327.97525	28406.1375
1331.47754	27340.9375
1334.97747	27028.4375
1338.47502	27254.3375
1341.97022	27638.7375
1345.46305	28052.1375
1348.95352	28596.5375
1352.44163	29573.4375
1355.92738	31310.2375
1359.41078	34428.9375
1362.89183	37771.9375
1366.37053	37393.8375
1369.84688	33027.9375
1373.32088	28243.6375
1376.79254	25203.0375
1380.26186	23707.0375
1383.72883	23036.5375
1387.19347	22496.9375
1390.65578	21952.8375
1394.11575	21507.9375
1397.57339	21401.3375
1401.0287	21557.4375
1404.48168	21817.3375
1407.93234	22119.6375
1411.38068	22337.6375
1414.82669	22250.7375
1418.27039	21804.0375
1421.71177	21270.5375
1425.15083	20758.9375
1428.58758	20480.0375
1432.02203	20484.5375
1435.45416	20609.4375
1438.88399	20803.2375
1442.31151	20920.4375
1445.73673	21052.5375
1449.15965	21206.6375
1452.58027	21232.4375
1455.9986	21070.5375
1459.41463	21052.5375
1462.82837	21195.9375
1466.23982	21560.1375
1469.64898	21969.1375
1473.05586	22320.1375
1476.46045	22538.8375
1479.86276	22824.8375
1483.26279	23099.3375
1486.66054	23473.6375
1490.05602	23956.0375
1493.44922	24503.2375
1496.84016	25238.5375
1500.22882	26393.6375
1503.61521	28030.4375
1506.99934	30161.3375
1510.38121	32384.5375
1513.76081	33812.5375
1517.13816	33097.3375
1520.51324	30517.4375
1523.88607	27610.5375
1527.25665	25428.3375
1530.62498	24138.4375
1533.99105	23359.1375
1537.35488	22932.0375
1540.71647	22606.0375
1544.07581	22475.1375
1547.4329	22336.9375
1550.78776	22159.3375
1554.14038	22068.6375
1557.49077	22161.9375
1560.83892	22377.6375
1564.18484	22686.7375
1567.52853	23060.8375
1570.86999	23361.8375
1574.20922	23711.0375
1577.54624	24006.4375
1580.88103	23683.5375
1584.2136	23052.2375
1587.54395	22639.2375
1590.87208	22806.5375
1594.19801	23749.7375
1597.52172	25108.8375
1600.84321	25801.5375
1604.16251	25025.8375
1607.47959	23508.2375
1610.79447	21828.3375
1614.10715	20295.0375
1617.41763	19068.1375
1620.7259	18272.9375
1624.03199	17883.9375
1627.33587	17865.3375
1630.63757	18283.8375
1633.93707	18993.7375
1637.23439	20110.4375
1640.52951	21564.2375
1643.82246	23410.9375
1647.11321	25436.9375
1650.40179	26816.6375
1653.68819	26246.5375
1656.97241	23615.3375
1660.25446	20503.1375
1663.53433	18222.3375
1666.81203	16791.5375
1670.08756	15981.7375
1673.36092	15447.4375
1676.63211	15093.5375
1679.90115	14850.9375
1683.16801	14704.3375
1686.43272	14544.9375
1689.69527	14482.9375
1692.95567	14405.3375
1696.2139	14389.1375
1699.46999	14351.0375
1702.72392	14338.2375
1705.97571	14311.0375
1709.22535	14304.7375
1712.47284	14279.7375
1715.71819	14281.8375
1718.96139	14278.5375
1722.20246	14231.2375
1725.44139	14200.9375
1728.67818	14145.6375
1731.91284	14047.8375
1735.14537	13971.6375
1738.37576	13897.1375
1741.60403	13883.2375
1744.83017	13853.5375
1748.05418	13833.4375
1751.27607	13788.8375
1754.49584	13808.6375
1757.71349	13785.9375
1760.92903	13773.4375
1764.14244	13771.7375
1767.35375	13773.8375
1770.56294	13738.3375
1773.77002	13749.3375
1776.97499	13681.2375
1780.17785	13686.4375
1783.37861	13684.4375
1786.57727	13619.1375
1789.77382	13601.2375
1792.96828	13592.9375
1796.16064	13575.4375
1799.3509	13585.2375
1802.53907	13555.4375
1805.72514	13507.5375
1808.90913	13464.3375
1812.09102	13441.5375
1815.27083	13417.1375
1818.44856	13405.3375
1821.6242	13382.9375
1824.79776	13389.7375
1827.96924	13358.8375
1831.13864	13358.0375
1834.30597	13381.8375
1837.47122	13355.9375
1840.6344	13348.4375
1843.7955	13344.8375
1846.95454	13332.0375
1850.11151	13339.2375
1853.26642	13344.9375
1856.41926	13333.5375
1859.57004	13333.9375
1862.71876	13363.4375
1865.86542	13336.0375
1869.01003	13349.5375
1872.15258	13342.8375
1875.29308	13337.0375
1878.43152	13311.7375
1881.56792	13326.4375
1884.70227	13275.8375
1887.83457	13270.6375
1890.96482	13297.1375
1894.09304	13250.1375
1897.21921	13278.2375
1900.34335	13266.4375
1903.46544	13245.9375
1906.58551	13271.2375
1909.70353	13254.1375
1912.81953	13221.7375
1915.93349	13233.5375
1919.04543	13217.0375
1922.15534	13211.6375
1925.26322	13165.5375
1928.36908	13150.8375
1931.47292	13153.2375
1934.57473	13074.5375
1937.67453	13059.4375
1940.77232	13014.6375
1943.86808	12996.9375
1946.96184	12956.3375
1950.05358	12906.5375
1953.14331	12895.2375
1956.23103	12822.4375
1959.31675	12810.1375
1962.40046	12773.3375
1965.48217	12723.5375
1968.56188	12704.0375
1971.63959	12663.5375
1974.7153	12633.7375
1977.78901	12593.3375
1980.86073	12557.1375
1983.93046	12510.9375
1986.99819	12471.2375
1990.06394	12439.2375
1993.1277	12400.9375
1996.18947	12333.5375
1999.24925	12321.8375
2002.30706	12273.3375
2005.36288	12239.7375
2008.41672	12208.2375
2011.46859	12176.7375
2014.51848	12159.1375
2017.56639	12131.4375
2020.61233	12126.9375
2023.6563	12079.4375
2026.6983	12059.0375
2029.73833	12047.4375
2032.7764	12021.8375
2035.8125	11982.7375
2038.84664	11970.6375
2041.87881	11969.1375
2044.90903	11924.8375
2047.93729	11924.5375
2050.96359	11909.1375
2053.98794	11896.5375
2057.01034	11887.0375
2060.03078	11877.7375
2063.04927	11827.1375
2066.06582	11860.6375
2069.08042	11823.0375
2072.09307	11818.1375
2075.10378	11789.6375
2078.11255	11784.3375
2081.11938	11780.7375
2084.12426	11786.8375
2087.12722	11802.0375
2090.12824	11797.7375
2093.12732	11797.2375
2096.12447	11822.6375
2099.11969	11768.5375
2102.11299	11772.3375
2105.10435	11805.9375
2108.09379	11816.5375
2111.08131	11809.1375
2114.0669	11834.8375
2117.05057	11801.5375
2120.03233	11849.4375
2123.01216	11840.1375
2125.99008	11836.6375
2128.96609	11844.3375
2131.94018	11866.5375
2134.91236	11893.5375
2137.88263	11859.8375
2140.851	11897.4375
2143.81746	11894.8375
2146.78201	11893.3375
2149.74466	11917.0375
2152.7054	11911.1375
2155.66425	11923.0375
2158.6212	11911.8375
2161.57625	11908.9375
2164.52941	11906.5375
2167.48067	11899.0375
2170.43004	11898.9375
2173.37752	11904.8375
2176.32311	11893.0375
2179.26681	11891.3375
2182.20863	11910.4375
2185.14856	11896.1375
2188.08661	11876.5375
2191.02278	11882.8375
2193.95707	11903.9375
2196.88948	11866.4375
2199.82001	11881.5375
2202.74867	11884.5375
2205.67545	11843.6375
2208.60037	11872.0375
2211.52341	11880.0375
2214.44458	11856.6375
2217.36388	11840.0375
2220.28132	11809.5375
2223.1969	11791.3375
2226.11061	11813.1375
2229.02246	11777.1375
2231.93245	11750.3375
2234.84058	11707.5375
2237.74686	11694.6375
2240.65128	11694.3375
2243.55385	11658.6375
2246.45456	11631.0375
2249.35343	11662.5375
2252.25044	11629.5375
2255.14561	11609.1375
2258.03893	11619.6375
2260.93041	11614.6375
2263.82004	11612.8375
2266.70783	11554.1375
2269.59378	11537.9375
2272.4779	11493.0375
2275.36017	11443.5375
2278.24061	11454.1375
2281.11922	11423.2375
2283.996	11403.6375
2286.87094	11403.0375
2289.74405	11376.0375
2292.61534	11370.6375
2295.4848	11366.5375
2298.35243	11375.3375
2301.21824	11349.3375
2304.08223	11333.8375
2306.94439	11352.5375
2309.80474	11348.8375
2312.66327	11358.8375
2315.51999	11368.7375
2318.37489	11337.9375
2321.22797	11322.4375
2324.07925	11315.7375
2326.92871	11325.0375
2329.77637	11306.7375
2332.62222	11308.1375
2335.46626	11282.6375
2338.3085	11312.3375
2341.14893	11290.4375
2343.98756	11288.9375
2346.8244	11302.4375
2349.65943	11286.1375
2352.49267	11289.3375
2355.32411	11308.2375
2358.15376	11276.1375
2360.98161	11306.4375
2363.80768	11303.4375
2366.63195	11286.3375
2369.45444	11255.8375
2372.27514	11246.2375
2375.09405	11190.5375
2377.91118	11192.8375
2380.72652	11178.3375
2383.54009	11118.2375
2386.35187	11140.4375
2389.16188	11099.7375
2391.97011	11078.6375
2394.77657	11055.7375
2397.58125	11034.0375
2400.38416	11039.5375
2403.18529	10989.8375
2405.98466	10970.4375
2408.78226	10965.5375
2411.57809	10914.2375
2414.37216	10899.9375
2417.16446	10886.3375
2419.955	10879.6375
2422.74378	10880.0375
2425.5308	10829.8375
2428.31606	10861.3375
2431.09956	10832.0375
2433.88131	10835.2375
2436.6613	10854.6375
2439.43954	10840.6375
2442.21603	10803.6375
2444.99077	10793.6375
2447.76377	10807.5375
2450.53501	10813.6375
2453.30451	10780.5375
2456.07226	10753.8375
2458.83827	10790.3375
2461.60254	10770.4375
2464.36507	10748.7375
2467.12586	10765.9375
2469.88492	10763.1375
2472.64224	10759.1375
2475.39782	10749.2375
2478.15167	10792.6375
2480.90379	10789.4375
2483.65417	10789.8375
2486.40283	10785.9375
2489.14976	10807.0375
2491.89497	10816.9375
2494.63845	10822.3375
2497.3802	10843.5375
2500.12024	10826.5375
2502.85855	10817.8375
2505.59514	10787.8375
2508.33002	10776.8375
2511.06318	10763.5375
2513.79462	10749.4375
2516.52435	10706.7375
2519.25237	10697.8375
2521.97867	10695.2375
2524.70327	10663.4375
2527.42616	10660.2375
2530.14734	10636.8375
2532.86681	10637.7375
2535.58458	10649.0375
2538.30065	10622.2375
2541.01501	10638.6375
2543.72768	10612.0375
2546.43864	10610.6375
2549.14791	10585.7375
2551.85548	10577.3375
2554.56136	10558.0375
2557.26554	10553.5375
2559.96803	10532.6375
2562.66883	10559.9375
2565.36794	10526.0375
2568.06536	10532.8375
2570.7611	10507.0375
2573.45514	10505.6375
2576.14751	10489.4375
2578.83819	10448.2375
2581.52719	10462.4375
2584.21451	10477.5375
2586.90015	10463.4375
2589.58411	10447.9375
2592.2664	10456.1375
2594.94701	10436.4375
2597.62594	10407.8375
2600.30321	10412.7375
2602.9788	10403.5375
2605.65273	10368.1375
2608.32498	10375.5375
2610.99557	10354.6375
2613.66449	10362.6375
2616.33175	10372.5375
2618.99734	10358.1375
2621.66128	10352.7375
2624.32355	10363.0375
2626.98416	10356.9375
2629.64311	10353.4375
2632.30041	10359.7375
2634.95605	10365.3375
2637.61004	10315.1375
2640.26238	10299.1375
2642.91306	10307.9375
2645.56209	10286.2375
2648.20948	10274.6375
2650.85521	10256.8375
2653.4993	10267.1375
2656.14175	10271.3375
2658.78255	10249.9375
2661.42171	10238.1375
2664.05923	10267.8375
2666.6951	10259.6375
2669.32934	10277.3375
2671.96194	10264.4375
2674.59291	10281.2375
2677.22224	10271.8375
2679.84993	10299.4375
2682.476	10279.4375
2685.10043	10266.2375
2687.72324	10278.9375
2690.34441	10281.8375
2692.96396	10270.3375
2695.58188	10263.1375
2698.19818	10267.4375
2700.81285	10271.5375
2703.4259	10260.7375
2706.03733	10315.4375
2708.64714	10310.5375
2711.25533	10277.0375
2713.86191	10284.1375
2716.46687	10284.5375
2719.07021	10276.7375
2721.67194	10295.4375
2724.27206	10284.0375
2726.87057	10269.0375
2729.46747	10260.3375
2732.06276	10284.4375
2734.65644	10280.0375
2737.24852	10286.6375
2739.83899	10256.6375
2742.42786	10275.9375
2745.01513	10231.8375
2747.60079	10229.6375
2750.18486	10208.9375
2752.76733	10230.7375
2755.3482	10244.9375
2757.92747	10206.1375
2760.50515	10228.2375
2763.08123	10208.2375
2765.65573	10189.4375
2768.22863	10189.5375
2770.79994	10184.0375
2773.36967	10166.8375
2775.9378	10139.2375
2778.50435	10142.1375
2781.06932	10121.2375
2783.6327	10140.5375
2786.1945	10147.5375
2788.75471	10122.4375
2791.31335	10080.4375
2793.87041	10083.7375
2796.42589	10053.7375
2798.97979	10046.2375
2801.53212	10044.5375
2804.08288	10030.4375
2806.63206	10015.4375
2809.17967	9984.1375
2811.72571	9978.5375
2814.27018	9958.7375
2816.81308	9975.5375
2819.35442	9972.0375
2821.89419	9957.1375
2824.43239	9965.9375
2826.96904	9954.5375
2829.50412	9949.5375
2832.03763	9913.2375
2834.56959	9952.2375
2837.1	9922.2375
2839.62884	9941.6375
2842.15613	9929.4375
2844.68186	9949.8375
2847.20604	9950.9375
2849.72867	9972.4375
2852.24974	9951.9375
2854.76927	9933.6375
2857.28724	9957.4375
2859.80367	9931.8375
2862.31855	9928.7375
2864.83189	9901.7375
2867.34368	9894.2375
2869.85393	9897.4375
2872.36264	9896.3375
2874.8698	9906.4375
2877.37543	9879.2375
2879.87952	9902.0375
2882.38207	9887.6375
2884.88308	9887.1375
2887.38256	9914.2375
2889.88051	9877.3375
2892.37692	9904.3375
2894.8718	9866.4375
2897.36515	9882.2375
2899.85698	9898.7375
2902.34727	9925.2375
2904.83604	9887.0375
2907.32328	9936.7375
2909.809	9924.8375
2912.29319	9910.0375
2914.77587	9922.8375
2917.25702	9923.4375
2919.73665	9898.5375
2922.21476	9903.3375
2924.69136	9911.1375
2927.16644	9904.7375
2929.64	9889.6375
2932.11205	9868.8375
2934.58258	9825.4375
2937.05161	9861.0375
2939.51912	9851.6375
2941.98513	9843.1375
2944.44962	9811.6375
2946.91261	9766.5375
2949.37409	9791.0375
2951.83407	9774.5375
2954.29254	9777.5375
2956.74951	9743.2375
2959.20498	9728.9375
2961.65895	9744.8375
2964.11142	9753.2375
2966.56239	9715.4375
2969.01186	9715.9375
2971.45984	9651.4375
2973.90632	9668.7375
2976.35131	9636.4375
2978.7948	9617.7375
2981.23681	9592.1375
2983.67732	9618.3375
2986.11635	9579.9375
2988.55388	9546.8375
2990.98993	9529.5375
2993.4245	9510.9375
2995.85758	9522.3375
2998.28917	9484.4375
3000.71928	9478.6375
3003.14791	9464.9375
3005.57506	9433.3375
3008.00073	9439.6375
3010.42493	9433.2375
3012.84764	9408.5375
3015.26888	9403.1375
3017.68865	9373.4375
3020.10694	9370.2375
3022.52376	9341.5375
3024.9391	9341.8375
3027.35298	9347.7375
3029.76539	9346.9375
3032.17632	9311.0375
3034.5858	9313.3375
3036.9938	9298.5375
3039.40034	9298.9375
3041.80542	9262.8375
3044.20903	9265.8375
3046.61118	9258.2375
3049.01187	9235.9375
3051.4111	9251.1375
3053.80888	9219.7375
3056.20519	9215.6375
3058.60005	9170.7375
3060.99345	9173.5375
3063.3854	9164.4375
3065.7759	9106.4375
3068.16494	9085.9375
3070.55254	9071.4375
3072.93868	9074.6375
3075.32338	9057.0375
3077.70662	9019.7375
3080.08842	9011.8375
3082.46878	8998.3375
3084.84769	8981.4375
3087.22515	8984.1375
3089.60118	8986.5375
3091.97576	8978.4375
3094.3489	8994.8375
3096.72061	8994.7375
3099.09087	8964.5375
3101.4597	8963.1375
3103.82709	8957.6375
3106.19305	8953.1375
3108.55757	8928.1375
3110.92066	8924.1375
3113.28232	8910.9375
3115.64255	8877.6375
3118.00134	8872.6375
3120.35871	8866.0375
3122.71466	8862.9375
3125.06917	8853.2375
3127.42226	8832.8375
3129.77393	8842.8375
3132.12417	8833.7375
3134.47299	8852.6375
3136.82039	8844.3375
3139.16636	8849.1375
3141.51092	8845.2375
3143.85406	8874.0375
3146.19579	8869.8375
3148.53609	8869.7375
3150.87499	8873.2375
3153.21246	8872.8375
3155.54853	8879.8375
3157.88318	8864.8375
3160.21642	8870.8375
3162.54826	8861.7375
3164.87868	8871.9375
3167.2077	8871.6375
3169.5353	8874.0375
3171.86151	8867.1375
3174.18631	8849.0375
3176.5097	8848.1375
3178.83169	8835.8375
3181.15228	8832.8375
3183.47147	8832.5375
3185.78926	8838.4375
3188.10565	8815.6375
3190.42065	8829.7375
3192.73424	8806.5375
3195.04645	8832.6375
3197.35725	8853.2375
3199.66667	8838.1375
3201.97469	8869.7375
3204.28132	8824.9375
3206.58656	8856.0375
3208.8904	8863.3375
3211.19287	8878.3375
3213.49394	8872.4375
3215.79363	8870.1375
3218.09193	8840.8375
3220.38884	8859.9375
3222.68438	8897.1375
3224.97853	8847.2375
3227.2713	8848.8375
3229.56269	8841.2375
3231.8527	8835.2375
3234.14133	8805.0375
3236.42858	8806.7375
3238.71446	8790.7375
3240.99896	8784.8375
3243.28209	8799.2375
3245.56384	8783.6375
3247.84423	8766.5375
3250.12324	8781.8375
3252.40088	8786.6375
3254.67715	8759.0375
3256.95205	8746.3375
3259.22558	8771.2375
3261.49775	8740.0375
3263.76855	8746.7375
3266.03799	8729.0375
3268.30606	8718.3375
3270.57277	8695.6375
3272.83812	8676.5375
3275.10211	8674.8375
3277.36474	8668.9375
3279.62601	8655.8375
3281.88593	8654.9375
3284.14448	8672.3375
3286.40168	8662.3375
3288.65753	8640.1375
3290.91202	8633.7375
3293.16516	8608.4375
3295.41695	8585.8375
3297.66738	8551.4375
3299.91647	8488.7375
3302.16421	8468.3375
3304.4106	8422.1375
3306.65564	8383.6375
3308.89933	8340.7375
3311.14169	8322.0375
3313.38269	8233.8375
3315.62236	8202.2375
3317.86068	8116.7375
3320.09766	8067.7375
3322.3333	7996.2375
3324.5676	7989.8375
3326.80056	7880.7375
3329.03219	7829.3375
3331.26248	2.5375
3333.49143	-0.5625
3335.71905	0.2375
