Data from AgNP_FTO_APTES_CRN_20uM_R6G_10uM_NaF_0.1M_Addition_RamanShift__1__17-01-38-004.txt Node

Date: Wed Dec 15 17:01:38 GMT 2021
User: TCL
Spectrometer: QEP01345
Trigger mode: 4
Integration Time (sec): 7.000000E0
Scans to average: 10
Electric dark correction enabled: true
Nonlinearity correction enabled: false
Boxcar width: 0
XAxis mode: Raman Shifts
Number of Pixels in Spectrum: 1044
>>>>>Begin Spectral Data<<<<<
46.04893	-0.8125
50.45542	-1.1125
54.85868	-1.3125
59.25871	-0.8125
63.6555	69.9875
68.04907	78.9875
72.43941	77.3875
76.82654	83.6875
81.21044	85.7875
85.59113	91.7875
89.96862	94.4875
94.34289	94.9875
98.71396	101.1875
103.08183	105.7875
107.4465	104.9875
111.80798	103.8875
116.16626	111.3875
120.52136	118.4875
124.87327	118.4875
129.222	124.8875
133.56755	125.9875
137.90993	139.0875
142.24913	147.9875
146.58517	163.3875
150.91804	181.4875
155.24774	218.7875
159.57429	274.2875
163.89768	341.6875
168.21792	443.3875
172.53501	606.9875
176.84895	842.3875
181.15975	1176.9875
185.46741	1652.6875
189.77193	2284.8875
194.07331	3061.5875
198.37157	3945.3875
202.6667	4886.6875
206.9587	5816.1875
211.24758	6730.0875
215.53334	7647.8875
219.81599	8659.2875
224.09553	9725.9875
228.37195	10902.0875
232.64527	12189.8875
236.91549	13570.4875
241.18261	14925.6875
245.44663	16216.6875
249.70755	17346.0875
253.96539	18328.7875
258.22014	19183.4875
262.4718	19865.2875
266.72039	20312.7875
270.96589	20525.8875
275.20832	20533.3875
279.44768	20346.2875
283.68397	20098.0875
287.91719	19869.4875
292.14735	19730.6875
296.37445	19712.2875
300.59849	19780.8875
304.81948	19958.7875
309.03742	20088.0875
313.25231	20047.8875
317.46415	19801.2875
321.67296	19364.1875
325.87872	18993.7875
330.08145	18791.0875
334.28114	18768.6875
338.47781	18947.8875
342.67145	19233.3875
346.86207	19594.0875
351.04966	20037.2875
355.23424	20493.7875
359.4158	20810.8875
363.59435	21058.7875
367.76989	21175.6875
371.94243	21240.7875
376.11196	21259.9875
380.27849	21333.4875
384.44203	21371.3875
388.60257	21522.3875
392.76012	21716.7875
396.91468	21951.5875
401.06626	22312.4875
405.21485	22543.6875
409.36047	22479.3875
413.50311	22121.8875
417.64277	21880.5875
421.77947	21753.9875
425.9132	21810.3875
430.04396	21851.2875
434.17176	21941.9875
438.2966	22083.9875
442.41849	22418.2875
446.53742	22987.9875
450.6534	23561.2875
454.76644	23941.8875
458.87653	23985.8875
462.98368	23785.4875
467.08789	23547.2875
471.18916	23171.1875
475.2875	22821.4875
479.38291	22509.7875
483.4754	22302.1875
487.56496	22124.0875
491.6516	21978.3875
495.73531	21844.1875
499.81612	21847.8875
503.89401	22031.7875
507.96899	22108.6875
512.04106	22118.3875
516.11023	22188.3875
520.1765	22172.8875
524.23987	22199.1875
528.30034	22146.6875
532.35792	22006.1875
536.41261	21733.2875
540.46441	21431.9875
544.51333	21292.9875
548.55936	21430.7875
552.60252	21768.0875
556.64279	22197.4875
560.6802	22498.3875
564.71473	22539.7875
568.7464	22716.3875
572.7752	23028.1875
576.80114	23328.6875
580.82422	23683.8875
584.84444	24399.5875
588.86181	25340.5875
592.87633	26062.6875
596.888	26298.0875
600.89682	25680.8875
604.9028	25639.4875
608.90594	27486.2875
612.90624	29931.5875
616.90371	28677.2875
620.89834	24452.3875
624.89015	22407.6875
628.87913	22063.1875
632.86528	22126.0875
636.84862	22148.6875
640.82913	21904.7875
644.80683	21447.0875
648.78172	21164.0875
652.75379	21154.1875
656.72306	21438.0875
660.68952	21784.3875
664.65319	21715.1875
668.61405	21371.2875
672.57211	21281.6875
676.52738	21352.4875
680.47986	21384.6875
684.42955	21224.9875
688.37646	21136.8875
692.32058	21257.0875
696.26192	21545.2875
700.20048	21823.2875
704.13626	21970.7875
708.06928	21976.6875
711.99952	21896.5875
715.927	21844.3875
719.85171	21901.4875
723.77365	21829.3875
727.69284	21579.1875
731.60928	21342.3875
735.52295	21245.8875
739.43388	21275.5875
743.34206	21329.7875
747.24749	21422.3875
751.15017	21545.1875
755.05012	21818.2875
758.94733	22295.6875
762.8418	23232.1875
766.73354	24758.2875
770.62254	26273.6875
774.50882	26761.5875
778.39237	25894.5875
782.27321	24396.7875
786.15132	23019.3875
790.02671	22092.5875
793.89938	21683.8875
797.76935	21498.7875
801.6366	21444.5875
805.50115	21370.0875
809.36299	21264.2875
813.22213	21134.0875
817.07857	21084.5875
820.93231	21023.9875
824.78336	20999.6875
828.63172	21060.9875
832.47738	21072.9875
836.32036	21120.1875
840.16066	21163.8875
843.99827	21183.9875
847.8332	21138.0875
851.66546	21068.0875
855.49504	21063.3875
859.32195	21074.0875
863.1462	21052.4875
866.96777	21021.3875
870.78668	20962.4875
874.60293	20991.9875
878.41652	21023.8875
882.22745	21162.7875
886.03573	21155.1875
889.84136	21153.1875
893.64433	21140.5875
897.44466	21017.0875
901.24235	20908.4875
905.0374	20894.4875
908.8298	20896.2875
912.61957	20865.3875
916.40671	21001.2875
920.19121	21148.8875
923.97308	21325.1875
927.75233	21438.0875
931.52895	21451.0875
935.30295	21277.4875
939.07433	20998.5875
942.84309	20774.4875
946.60924	20682.7875
950.37278	20592.3875
954.13371	20557.2875
957.89203	20524.6875
961.64774	20462.9875
965.40086	20469.9875
969.15137	20436.5875
972.89929	20445.1875
976.64461	20457.7875
980.38733	20504.7875
984.12747	20575.4875
987.86502	20699.5875
991.59999	20801.6875
995.33237	21042.9875
999.06217	21443.0875
1002.78939	21798.5875
1006.51404	22142.2875
1010.23611	22457.2875
1013.95561	22663.1875
1017.67255	22688.8875
1021.38692	22461.8875
1025.09872	22185.3875
1028.80796	22099.6875
1032.51465	22278.6875
1036.21877	22571.2875
1039.92035	22728.6875
1043.61937	22660.6875
1047.31584	22499.7875
1051.00976	22345.1875
1054.70114	22249.6875
1058.38998	22362.6875
1062.07627	22589.3875
1065.76003	22903.0875
1069.44126	23319.6875
1073.11995	23814.2875
1076.79611	24183.4875
1080.46974	24282.5875
1084.14085	24172.0875
1087.80943	24052.4875
1091.47549	23981.6875
1095.13903	23792.9875
1098.80005	23431.7875
1102.45857	23062.8875
1106.11456	22716.3875
1109.76805	22560.2875
1113.41903	22604.7875
1117.06751	22666.2875
1120.71348	22914.1875
1124.35696	23136.9875
1127.99793	23440.5875
1131.63641	23538.8875
1135.2724	23332.2875
1138.90589	23086.0875
1142.5369	22944.3875
1146.16542	22970.9875
1149.79145	22959.8875
1153.415	22975.3875
1157.03607	23136.0875
1160.65467	23463.5875
1164.27079	24116.4875
1167.88443	25019.2875
1171.49561	26216.2875
1175.10432	27825.6875
1178.71056	29905.9875
1182.31434	31765.9875
1185.91565	32606.2875
1189.51451	32331.4875
1193.11091	31370.6875
1196.70485	30262.0875
1200.29634	29207.1875
1203.88538	28362.8875
1207.47197	27729.7875
1211.05612	27200.9875
1214.63782	26738.5875
1218.21708	26361.1875
1221.79391	25999.6875
1225.36829	25814.9875
1228.94024	25715.5875
1232.50976	25499.3875
1236.07685	25250.2875
1239.6415	25056.0875
1243.20374	25025.1875
1246.76355	25158.0875
1250.32093	25438.8875
1253.8759	25887.6875
1257.42845	26419.4875
1260.97859	27038.6875
1264.52631	27728.6875
1268.07163	28426.6875
1271.61453	29125.5875
1275.15503	29742.6875
1278.69312	30222.5875
1282.22882	30726.4875
1285.76211	31298.0875
1289.29301	32066.0875
1292.82151	33014.8875
1296.34761	34088.9875
1299.87133	35622.0875
1303.39266	37452.9875
1306.9116	39439.8875
1310.42815	41443.9875
1313.94233	42564.9875
1317.45412	42351.9875
1320.96354	41103.7875
1324.47058	39718.9875
1327.97525	38603.6875
1331.47754	37789.8875
1334.97747	37250.8875
1338.47502	37076.3875
1341.97022	36942.1875
1345.46305	36867.7875
1348.95352	37109.9875
1352.44163	37866.5875
1355.92738	39327.5875
1359.41078	41548.7875
1362.89183	43502.4875
1366.37053	42883.7875
1369.84688	39448.7875
1373.32088	35339.2875
1376.79254	32479.9875
1380.26186	31296.2875
1383.72883	30871.6875
1387.19347	30481.1875
1390.65578	29942.9875
1394.11575	29619.4875
1397.57339	29519.7875
1401.0287	29663.8875
1404.48168	29783.2875
1407.93234	29764.3875
1411.38068	29576.1875
1414.82669	29244.4875
1418.27039	28581.1875
1421.71177	27980.9875
1425.15083	27427.8875
1428.58758	27176.3875
1432.02203	27433.0875
1435.45416	27897.7875
1438.88399	28394.8875
1442.31151	28663.6875
1445.73673	28794.8875
1449.15965	28847.4875
1452.58027	28746.8875
1455.9986	28637.3875
1459.41463	28755.8875
1462.82837	29152.7875
1466.23982	29686.6875
1469.64898	30224.3875
1473.05586	30641.5875
1476.46045	30833.6875
1479.86276	30928.3875
1483.26279	30878.7875
1486.66054	30979.3875
1490.05602	31358.4875
1493.44922	31896.5875
1496.84016	32500.7875
1500.22882	33422.4875
1503.61521	34784.8875
1506.99934	36346.3875
1510.38121	37497.5875
1513.76081	37718.4875
1517.13816	36596.5875
1520.51324	34702.2875
1523.88607	32942.5875
1527.25665	31817.6875
1530.62498	31322.4875
1533.99105	31025.0875
1537.35488	30721.7875
1540.71647	30302.2875
1544.07581	29831.8875
1547.4329	29336.9875
1550.78776	28880.1875
1554.14038	28584.4875
1557.49077	28487.8875
1560.83892	28486.0875
1564.18484	28689.8875
1567.52853	29062.7875
1570.86999	29559.9875
1574.20922	30198.5875
1577.54624	30770.5875
1580.88103	30884.8875
1584.2136	30701.2875
1587.54395	30704.5875
1590.87208	31177.4875
1594.19801	32351.9875
1597.52172	33833.2875
1600.84321	34411.7875
1604.16251	33547.7875
1607.47959	31565.3875
1610.79447	29324.0875
1614.10715	27221.9875
1617.41763	25581.2875
1620.7259	24593.7875
1624.03199	24107.6875
1627.33587	24157.2875
1630.63757	24557.0875
1633.93707	25605.1875
1637.23439	27358.7875
1640.52951	29951.3875
1643.82246	33305.4875
1647.11321	36225.9875
1650.40179	37204.9875
1653.68819	35300.0875
1656.97241	31483.1875
1660.25446	27688.6875
1663.53433	24925.3875
1666.81203	23184.0875
1670.08756	22086.1875
1673.36092	21446.5875
1676.63211	20965.5875
1679.90115	20668.2875
1683.16801	20457.2875
1686.43272	20269.5875
1689.69527	20169.5875
1692.95567	20078.9875
1696.2139	20011.1875
1699.46999	20013.3875
1702.72392	19977.5875
1705.97571	19951.0875
1709.22535	19932.2875
1712.47284	19890.9875
1715.71819	19855.0875
1718.96139	19853.2875
1722.20246	19808.6875
1725.44139	19730.2875
1728.67818	19674.5875
1731.91284	19610.4875
1735.14537	19507.4875
1738.37576	19408.1875
1741.60403	19401.8875
1744.83017	19370.4875
1748.05418	19286.8875
1751.27607	19279.8875
1754.49584	19270.9875
1757.71349	19254.7875
1760.92903	19278.5875
1764.14244	19255.4875
1767.35375	19245.4875
1770.56294	19208.9875
1773.77002	19209.0875
1776.97499	19229.2875
1780.17785	19163.8875
1783.37861	19123.6875
1786.57727	19096.1875
1789.77382	19058.2875
1792.96828	19044.4875
1796.16064	19019.7875
1799.3509	18956.8875
1802.53907	18932.0875
1805.72514	18876.0875
1808.90913	18861.2875
1812.09102	18842.0875
1815.27083	18799.9875
1818.44856	18755.9875
1821.6242	18757.5875
1824.79776	18729.3875
1827.96924	18720.8875
1831.13864	18729.2875
1834.30597	18774.5875
1837.47122	18747.0875
1840.6344	18730.4875
1843.7955	18713.9875
1846.95454	18717.1875
1850.11151	18664.0875
1853.26642	18677.3875
1856.41926	18690.2875
1859.57004	18685.2875
1862.71876	18666.7875
1865.86542	18669.9875
1869.01003	18629.1875
1872.15258	18631.5875
1875.29308	18601.8875
1878.43152	18574.9875
1881.56792	18540.1875
1884.70227	18584.7875
1887.83457	18548.4875
1890.96482	18488.5875
1894.09304	18506.0875
1897.21921	18511.9875
1900.34335	18510.3875
1903.46544	18462.3875
1906.58551	18460.7875
1909.70353	18441.2875
1912.81953	18436.4875
1915.93349	18381.9875
1919.04543	18345.2875
1922.15534	18328.4875
1925.26322	18289.1875
1928.36908	18275.3875
1931.47292	18274.5875
1934.57473	18233.2875
1937.67453	18167.2875
1940.77232	18149.7875
1943.86808	18120.0875
1946.96184	18058.8875
1950.05358	18035.4875
1953.14331	18021.8875
1956.23103	17944.7875
1959.31675	17926.7875
1962.40046	17891.0875
1965.48217	17819.3875
1968.56188	17769.7875
1971.63959	17737.5875
1974.7153	17685.8875
1977.78901	17625.2875
1980.86073	17584.5875
1983.93046	17540.1875
1986.99819	17500.1875
1990.06394	17486.6875
1993.1277	17427.4875
1996.18947	17377.9875
1999.24925	17310.0875
2002.30706	17269.1875
2005.36288	17214.0875
2008.41672	17212.6875
2011.46859	17119.3875
2014.51848	17115.2875
2017.56639	17050.5875
2020.61233	17032.6875
2023.6563	16989.3875
2026.6983	16946.7875
2029.73833	16922.4875
2032.7764	16903.1875
2035.8125	16889.4875
2038.84664	16815.9875
2041.87881	16811.6875
2044.90903	16802.6875
2047.93729	16777.9875
2050.96359	16761.3875
2053.98794	16767.9875
2057.01034	16741.4875
2060.03078	16717.2875
2063.04927	16713.9875
2066.06582	16700.3875
2069.08042	16674.0875
2072.09307	16670.8875
2075.10378	16657.0875
2078.11255	16649.2875
2081.11938	16658.0875
2084.12426	16675.1875
2087.12722	16685.8875
2090.12824	16626.2875
2093.12732	16702.7875
2096.12447	16716.2875
2099.11969	16742.3875
2102.11299	16703.3875
2105.10435	16731.3875
2108.09379	16733.6875
2111.08131	16786.6875
2114.0669	16777.7875
2117.05057	16748.8875
2120.03233	16797.5875
2123.01216	16790.6875
2125.99008	16828.4875
2128.96609	16855.8875
2131.94018	16867.9875
2134.91236	16867.2875
2137.88263	16924.5875
2140.851	16911.1875
2143.81746	16943.1875
2146.78201	16962.5875
2149.74466	16924.8875
2152.7054	16978.3875
2155.66425	16983.1875
2158.6212	16995.7875
2161.57625	16955.1875
2164.52941	16957.5875
2167.48067	16977.1875
2170.43004	16939.5875
2173.37752	16985.7875
2176.32311	16954.3875
2179.26681	16942.6875
2182.20863	16964.5875
2185.14856	16993.4875
2188.08661	16958.6875
2191.02278	16957.5875
2193.95707	16938.4875
2196.88948	16944.2875
2199.82001	16923.9875
2202.74867	16921.3875
2205.67545	16940.2875
2208.60037	16941.5875
2211.52341	16910.4875
2214.44458	16903.2875
2217.36388	16883.7875
2220.28132	16844.3875
2223.1969	16803.7875
2226.11061	16802.4875
2229.02246	16791.2875
2231.93245	16748.0875
2234.84058	16724.6875
2237.74686	16685.1875
2240.65128	16699.3875
2243.55385	16698.1875
2246.45456	16620.1875
2249.35343	16636.5875
2252.25044	16596.7875
2255.14561	16588.4875
2258.03893	16568.0875
2260.93041	16565.1875
2263.82004	16542.6875
2266.70783	16465.9875
2269.59378	16468.9875
2272.4779	16423.1875
2275.36017	16400.9875
2278.24061	16380.1875
2281.11922	16320.5875
2283.996	16324.7875
2286.87094	16299.0875
2289.74405	16293.4875
2292.61534	16261.5875
2295.4848	16243.8875
2298.35243	16279.3875
2301.21824	16247.9875
2304.08223	16234.5875
2306.94439	16251.3875
2309.80474	16227.9875
2312.66327	16234.5875
2315.51999	16242.6875
2318.37489	16204.6875
2321.22797	16209.5875
2324.07925	16175.6875
2326.92871	16173.0875
2329.77637	16184.1875
2332.62222	16158.3875
2335.46626	16139.5875
2338.3085	16121.1875
2341.14893	16123.7875
2343.98756	16134.8875
2346.8244	16112.7875
2349.65943	16099.4875
2352.49267	16093.3875
2355.32411	16082.2875
2358.15376	16071.9875
2360.98161	16070.7875
2363.80768	16088.6875
2366.63195	16067.1875
2369.45444	16054.4875
2372.27514	16034.4875
2375.09405	15994.6875
2377.91118	16007.0875
2380.72652	15935.0875
2383.54009	15938.0875
2386.35187	15922.3875
2389.16188	15891.9875
2391.97011	15865.5875
2394.77657	15857.4875
2397.58125	15821.4875
2400.38416	15826.8875
2403.18529	15817.6875
2405.98466	15782.4875
2408.78226	15736.2875
2411.57809	15727.6875
2414.37216	15739.6875
2417.16446	15685.4875
2419.955	15672.1875
2422.74378	15680.6875
2425.5308	15664.2875
2428.31606	15594.4875
2431.09956	15631.8875
2433.88131	15615.1875
2436.6613	15631.1875
2439.43954	15604.3875
2442.21603	15585.9875
2444.99077	15561.7875
2447.76377	15602.2875
2450.53501	15591.0875
2453.30451	15570.9875
2456.07226	15532.9875
2458.83827	15553.9875
2461.60254	15514.6875
2464.36507	15509.5875
2467.12586	15498.8875
2469.88492	15522.8875
2472.64224	15485.5875
2475.39782	15514.0875
2478.15167	15558.7875
2480.90379	15560.2875
2483.65417	15552.2875
2486.40283	15552.6875
2489.14976	15532.7875
2491.89497	15538.5875
2494.63845	15570.4875
2497.3802	15546.3875
2500.12024	15526.2875
2502.85855	15486.0875
2505.59514	15500.4875
2508.33002	15461.3875
2511.06318	15464.1875
2513.79462	15470.1875
2516.52435	15450.9875
2519.25237	15416.5875
2521.97867	15395.8875
2524.70327	15406.7875
2527.42616	15373.3875
2530.14734	15356.6875
2532.86681	15356.2875
2535.58458	15352.6875
2538.30065	15307.7875
2541.01501	15306.0875
2543.72768	15320.4875
2546.43864	15299.0875
2549.14791	15276.7875
2551.85548	15259.0875
2554.56136	15235.4875
2557.26554	15209.9875
2559.96803	15225.2875
2562.66883	15203.7875
2565.36794	15202.1875
2568.06536	15200.6875
2570.7611	15209.9875
2573.45514	15188.1875
2576.14751	15152.6875
2578.83819	15136.4875
2581.52719	15123.9875
2584.21451	15125.0875
2586.90015	15104.1875
2589.58411	15083.3875
2592.2664	15054.3875
2594.94701	15035.8875
2597.62594	15021.4875
2600.30321	14973.2875
2602.9788	14973.2875
2605.65273	14965.4875
2608.32498	14943.5875
2610.99557	14934.7875
2613.66449	14952.8875
2616.33175	14940.9875
2618.99734	14940.0875
2621.66128	14897.7875
2624.32355	14878.7875
2626.98416	14861.8875
2629.64311	14871.5875
2632.30041	14863.4875
2634.95605	14838.4875
2637.61004	14814.2875
2640.26238	14800.4875
2642.91306	14798.6875
2645.56209	14807.8875
2648.20948	14809.0875
2650.85521	14773.8875
2653.4993	14779.4875
2656.14175	14794.5875
2658.78255	14796.9875
2661.42171	14786.7875
2664.05923	14795.3875
2666.6951	14789.8875
2669.32934	14810.8875
2671.96194	14770.2875
2674.59291	14782.9875
2677.22224	14778.5875
2679.84993	14799.2875
2682.476	14796.0875
2685.10043	14800.1875
2687.72324	14811.1875
2690.34441	14817.2875
2692.96396	14830.4875
2695.58188	14812.5875
2698.19818	14817.4875
2700.81285	14831.5875
2703.4259	14831.2875
2706.03733	14889.6875
2708.64714	14889.7875
2711.25533	14886.1875
2713.86191	14843.5875
2716.46687	14894.5875
2719.07021	14850.3875
2721.67194	14860.5875
2724.27206	14860.3875
2726.87057	14883.1875
2729.46747	14857.8875
2732.06276	14855.5875
2734.65644	14836.3875
2737.24852	14849.7875
2739.83899	14854.3875
2742.42786	14843.7875
2745.01513	14812.3875
2747.60079	14803.5875
2750.18486	14820.5875
2752.76733	14822.6875
2755.3482	14795.0875
2757.92747	14805.9875
2760.50515	14789.5875
2763.08123	14793.6875
2765.65573	14706.9875
2768.22863	14731.7875
2770.79994	14712.4875
2773.36967	14714.7875
2775.9378	14711.4875
2778.50435	14683.7875
2781.06932	14683.0875
2783.6327	14653.3875
2786.1945	14664.6875
2788.75471	14649.0875
2791.31335	14588.2875
2793.87041	14588.6875
2796.42589	14556.8875
2798.97979	14566.7875
2801.53212	14555.8875
2804.08288	14512.8875
2806.63206	14475.5875
2809.17967	14428.5875
2811.72571	14398.3875
2814.27018	14421.6875
2816.81308	14387.2875
2819.35442	14362.1875
2821.89419	14357.5875
2824.43239	14351.8875
2826.96904	14329.4875
2829.50412	14341.5875
2832.03763	14305.7875
2834.56959	14291.4875
2837.1	14290.5875
2839.62884	14262.2875
2842.15613	14267.2875
2844.68186	14274.2875
2847.20604	14267.0875
2849.72867	14237.6875
2852.24974	14256.4875
2854.76927	14248.8875
2857.28724	14249.0875
2859.80367	14225.7875
2862.31855	14209.6875
2864.83189	14190.5875
2867.34368	14167.8875
2869.85393	14193.5875
2872.36264	14196.4875
2874.8698	14167.3875
2877.37543	14208.4875
2879.87952	14184.1875
2882.38207	14176.8875
2884.88308	14186.4875
2887.38256	14186.8875
2889.88051	14183.5875
2892.37692	14217.8875
2894.8718	14184.6875
2897.36515	14182.7875
2899.85698	14211.1875
2902.34727	14211.5875
2904.83604	14204.7875
2907.32328	14228.1875
2909.809	14214.2875
2912.29319	14234.3875
2914.77587	14222.4875
2917.25702	14206.4875
2919.73665	14215.9875
2922.21476	14222.0875
2924.69136	14237.7875
2927.16644	14226.0875
2929.64	14214.9875
2932.11205	14166.0875
2934.58258	14173.1875
2937.05161	14165.8875
2939.51912	14199.5875
2941.98513	14186.4875
2944.44962	14127.9875
2946.91261	14100.8875
2949.37409	14136.1875
2951.83407	14124.0875
2954.29254	14113.6875
2956.74951	14096.6875
2959.20498	14117.5875
2961.65895	14091.1875
2964.11142	14095.5875
2966.56239	14074.9875
2969.01186	14063.1875
2971.45984	14044.1875
2973.90632	14004.6875
2976.35131	13956.7875
2978.7948	13944.2875
2981.23681	13947.3875
2983.67732	13923.8875
2986.11635	13927.5875
2988.55388	13870.7875
2990.98993	13849.0875
2993.4245	13811.4875
2995.85758	13793.4875
2998.28917	13791.4875
3000.71928	13764.6875
3003.14791	13755.9875
3005.57506	13759.9875
3008.00073	13726.8875
3010.42493	13695.2875
3012.84764	13664.9875
3015.26888	13691.6875
3017.68865	13651.3875
3020.10694	13650.3875
3022.52376	13611.7875
3024.9391	13629.0875
3027.35298	13603.2875
3029.76539	13579.1875
3032.17632	13597.6875
3034.5858	13551.7875
3036.9938	13557.1875
3039.40034	13524.2875
3041.80542	13519.9875
3044.20903	13506.3875
3046.61118	13480.3875
3049.01187	13482.9875
3051.4111	13475.3875
3053.80888	13473.1875
3056.20519	13411.3875
3058.60005	13393.9875
3060.99345	13353.2875
3063.3854	13346.6875
3065.7759	13327.7875
3068.16494	13294.0875
3070.55254	13259.9875
3072.93868	13265.9875
3075.32338	13228.3875
3077.70662	13182.1875
3080.08842	13137.8875
3082.46878	13168.4875
3084.84769	13157.6875
3087.22515	13140.5875
3089.60118	13153.8875
3091.97576	13181.4875
3094.3489	13170.4875
3096.72061	13141.5875
3099.09087	13153.8875
3101.4597	13118.0875
3103.82709	13095.0875
3106.19305	13107.4875
3108.55757	13088.4875
3110.92066	13036.9875
3113.28232	13042.1875
3115.64255	13012.4875
3118.00134	12987.0875
3120.35871	12985.1875
3122.71466	12993.8875
3125.06917	12945.8875
3127.42226	12914.9875
3129.77393	12960.5875
3132.12417	12960.3875
3134.47299	12921.7875
3136.82039	12965.4875
3139.16636	12936.8875
3141.51092	12955.0875
3143.85406	12976.1875
3146.19579	12951.5875
3148.53609	12947.9875
3150.87499	12966.0875
3153.21246	12953.3875
3155.54853	12986.3875
3157.88318	12954.6875
3160.21642	12991.3875
3162.54826	12958.3875
3164.87868	12964.8875
3167.2077	12944.6875
3169.5353	12951.5875
3171.86151	12921.7875
3174.18631	12931.5875
3176.5097	12956.3875
3178.83169	12897.7875
3181.15228	12915.8875
3183.47147	12868.3875
3185.78926	12885.7875
3188.10565	12874.7875
3190.42065	12891.2875
3192.73424	12857.6875
3195.04645	12863.0875
3197.35725	12873.8875
3199.66667	12870.2875
3201.97469	12877.7875
3204.28132	12875.3875
3206.58656	12888.0875
3208.8904	12905.4875
3211.19287	12924.7875
3213.49394	12869.1875
3215.79363	12872.3875
3218.09193	12881.0875
3220.38884	12865.4875
3222.68438	12894.5875
3224.97853	12864.0875
3227.2713	12862.0875
3229.56269	12825.6875
3231.8527	12841.3875
3234.14133	12815.5875
3236.42858	12779.3875
3238.71446	12773.8875
3240.99896	12760.7875
3243.28209	12721.6875
3245.56384	12723.1875
3247.84423	12730.4875
3250.12324	12736.9875
3252.40088	12744.0875
3254.67715	12726.7875
3256.95205	12714.7875
3259.22558	12741.1875
3261.49775	12705.8875
3263.76855	12700.8875
3266.03799	12665.0875
3268.30606	12643.4875
3270.57277	12621.7875
3272.83812	12609.6875
3275.10211	12576.3875
3277.36474	12580.0875
3279.62601	12590.4875
3281.88593	12563.7875
3284.14448	12587.1875
3286.40168	12547.1875
3288.65753	12554.5875
3290.91202	12529.6875
3293.16516	12491.2875
3295.41695	12483.1875
3297.66738	12373.7875
3299.91647	12357.0875
3302.16421	12252.6875
3304.4106	12230.3875
3306.65564	12146.8875
3308.89933	12086.9875
3311.14169	12025.3875
3313.38269	11930.1875
3315.62236	11881.7875
3317.86068	11753.5875
3320.09766	11676.1875
3322.3333	11590.1875
3324.5676	11593.8875
3326.80056	11409.3875
3329.03219	11353.4875
3331.26248	4.7875
3333.49143	0.1875
3335.71905	-0.3125
