Data from AgNP_FTO_APTES_CRN_500uM_R6G_10uM_NaF_0.1M_Addition_RamanShift__27__20-35-08-246.txt Node

Date: Wed Dec 15 20:35:08 GMT 2021
User: TCL
Spectrometer: QEP01345
Trigger mode: 4
Integration Time (sec): 7.000000E0
Scans to average: 10
Electric dark correction enabled: true
Nonlinearity correction enabled: false
Boxcar width: 0
XAxis mode: Raman Shifts
Number of Pixels in Spectrum: 1044
>>>>>Begin Spectral Data<<<<<
46.04893	0.2875
50.45542	-2.2125
54.85868	-0.0125
59.25871	-1.1125
63.6555	67.4875
68.04907	67.9875
72.43941	72.2875
76.82654	81.7875
81.21044	81.5875
85.59113	82.2875
89.96862	87.5875
94.34289	87.9875
98.71396	91.5875
103.08183	96.0875
107.4465	99.2875
111.80798	99.4875
116.16626	100.0875
120.52136	107.6875
124.87327	106.1875
129.222	108.1875
133.56755	111.0875
137.90993	124.4875
142.24913	134.2875
146.58517	150.4875
150.91804	172.7875
155.24774	201.7875
159.57429	249.5875
163.89768	313.8875
168.21792	407.7875
172.53501	554.5875
176.84895	762.9875
181.15975	1073.3875
185.46741	1514.2875
189.77193	2078.2875
194.07331	2784.1875
198.37157	3599.9875
202.6667	4444.9875
206.9587	5288.5875
211.24758	6131.7875
215.53334	6958.0875
219.81599	7808.4875
224.09553	8758.1875
228.37195	9789.3875
232.64527	10945.3875
236.91549	12116.1875
241.18261	13372.7875
245.44663	14547.2875
249.70755	15576.7875
253.96539	16483.3875
258.22014	17289.6875
262.4718	17941.4875
266.72039	18365.8875
270.96589	18614.2875
275.20832	18674.4875
279.44768	18578.9875
283.68397	18388.6875
287.91719	18220.3875
292.14735	18088.6875
296.37445	18077.3875
300.59849	18025.9875
304.81948	18054.0875
309.03742	17954.6875
313.25231	17804.2875
317.46415	17475.0875
321.67296	17133.6875
325.87872	16893.1875
330.08145	16828.8875
334.28114	16885.8875
338.47781	17001.9875
342.67145	17208.4875
346.86207	17478.5875
351.04966	17789.8875
355.23424	18142.5875
359.4158	18432.9875
363.59435	18650.0875
367.76989	18804.4875
371.94243	18946.3875
376.11196	19078.8875
380.27849	19181.9875
384.44203	19321.9875
388.60257	19437.7875
392.76012	19537.2875
396.91468	19757.0875
401.06626	19986.1875
405.21485	20189.6875
409.36047	20162.7875
413.50311	19972.3875
417.64277	19847.1875
421.77947	19772.1875
425.9132	19840.9875
430.04396	20017.4875
434.17176	20238.9875
438.2966	20535.8875
442.41849	20916.6875
446.53742	21456.4875
450.6534	22009.3875
454.76644	22439.5875
458.87653	22592.0875
462.98368	22498.2875
467.08789	22261.4875
471.18916	22086.0875
475.2875	21983.9875
479.38291	21888.8875
483.4754	21787.3875
487.56496	21560.5875
491.6516	21273.4875
495.73531	21018.0875
499.81612	20860.6875
503.89401	20933.9875
507.96899	20997.9875
512.04106	21097.3875
516.11023	21179.0875
520.1765	21245.7875
524.23987	21271.2875
528.30034	21197.8875
532.35792	21107.0875
536.41261	20967.3875
540.46441	20769.3875
544.51333	20786.3875
548.55936	20910.7875
552.60252	21173.6875
556.64279	21516.0875
560.6802	21820.7875
564.71473	21991.1875
568.7464	22191.4875
572.7752	22463.4875
576.80114	22534.4875
580.82422	22590.7875
584.84444	22686.7875
588.86181	23013.6875
592.87633	23577.8875
596.888	23928.7875
600.89682	23902.5875
604.9028	24139.1875
608.90594	25257.4875
612.90624	26686.6875
616.90371	25610.2875
620.89834	22669.1875
624.89015	21343.6875
628.87913	21143.0875
632.86528	21278.6875
636.84862	21308.0875
640.82913	21179.1875
644.80683	20837.6875
648.78172	20581.4875
652.75379	20554.8875
656.72306	20713.2875
660.68952	20928.8875
664.65319	20901.4875
668.61405	20669.7875
672.57211	20615.4875
676.52738	20681.7875
680.47986	20745.5875
684.42955	20694.2875
688.37646	20645.6875
692.32058	20701.2875
696.26192	20789.8875
700.20048	20973.3875
704.13626	21023.5875
708.06928	20966.7875
711.99952	20846.1875
715.927	20748.2875
719.85171	20741.5875
723.77365	20627.2875
727.69284	20527.7875
731.60928	20398.5875
735.52295	20351.7875
739.43388	20338.8875
743.34206	20321.5875
747.24749	20322.8875
751.15017	20400.0875
755.05012	20573.1875
758.94733	20909.9875
762.8418	21568.4875
766.73354	22582.4875
770.62254	23603.1875
774.50882	23945.0875
778.39237	23206.6875
782.27321	21953.8875
786.15132	20869.6875
790.02671	20215.3875
793.89938	19950.7875
797.76935	19815.1875
801.6366	19815.2875
805.50115	19817.5875
809.36299	19789.1875
813.22213	19732.5875
817.07857	19732.6875
820.93231	19704.4875
824.78336	19691.7875
828.63172	19642.3875
832.47738	19613.1875
836.32036	19636.0875
840.16066	19670.0875
843.99827	19655.3875
847.8332	19605.8875
851.66546	19585.8875
855.49504	19574.9875
859.32195	19627.2875
863.1462	19611.6875
866.96777	19593.3875
870.78668	19556.5875
874.60293	19470.0875
878.41652	19512.9875
882.22745	19484.3875
886.03573	19504.0875
889.84136	19532.0875
893.64433	19465.1875
897.44466	19417.8875
901.24235	19365.9875
905.0374	19309.6875
908.8298	19285.4875
912.61957	19323.1875
916.40671	19429.7875
920.19121	19566.0875
923.97308	19683.0875
927.75233	19734.1875
931.52895	19712.0875
935.30295	19573.0875
939.07433	19361.8875
942.84309	19206.4875
946.60924	19045.6875
950.37278	18942.6875
954.13371	18915.8875
957.89203	18871.6875
961.64774	18827.7875
965.40086	18827.3875
969.15137	18723.4875
972.89929	18633.1875
976.64461	18570.0875
980.38733	18572.6875
984.12747	18629.5875
987.86502	18722.3875
991.59999	18873.2875
995.33237	19021.0875
999.06217	19326.4875
1002.78939	19685.9875
1006.51404	19910.1875
1010.23611	20068.1875
1013.95561	20191.5875
1017.67255	20195.0875
1021.38692	20010.5875
1025.09872	19834.0875
1028.80796	19806.9875
1032.51465	19967.9875
1036.21877	20128.6875
1039.92035	20176.7875
1043.61937	20136.9875
1047.31584	19975.4875
1051.00976	19899.6875
1054.70114	19873.7875
1058.38998	19976.1875
1062.07627	20197.2875
1065.76003	20511.9875
1069.44126	20967.3875
1073.11995	21517.4875
1076.79611	21972.5875
1080.46974	21969.7875
1084.14085	21579.5875
1087.80943	21223.1875
1091.47549	20917.3875
1095.13903	20700.8875
1098.80005	20409.7875
1102.45857	20108.1875
1106.11456	19927.6875
1109.76805	19890.5875
1113.41903	19960.7875
1117.06751	20111.7875
1120.71348	20298.1875
1124.35696	20472.0875
1127.99793	20671.4875
1131.63641	20800.7875
1135.2724	20662.6875
1138.90589	20505.7875
1142.5369	20412.6875
1146.16542	20329.1875
1149.79145	20386.4875
1153.415	20480.0875
1157.03607	20629.2875
1160.65467	21015.3875
1164.27079	21555.1875
1167.88443	22323.6875
1171.49561	23401.8875
1175.10432	24808.2875
1178.71056	26480.0875
1182.31434	27855.6875
1185.91565	28284.0875
1189.51451	27989.2875
1193.11091	27259.8875
1196.70485	26401.0875
1200.29634	25609.6875
1203.88538	25036.8875
1207.47197	24579.4875
1211.05612	24201.4875
1214.63782	23918.4875
1218.21708	23771.0875
1221.79391	23617.8875
1225.36829	23426.0875
1228.94024	23248.4875
1232.50976	22925.8875
1236.07685	22711.4875
1239.6415	22692.7875
1243.20374	22672.1875
1246.76355	22829.9875
1250.32093	23002.9875
1253.8759	23292.7875
1257.42845	23732.4875
1260.97859	24050.6875
1264.52631	24398.5875
1268.07163	24779.6875
1271.61453	25214.5875
1275.15503	25687.6875
1278.69312	26146.3875
1282.22882	26546.4875
1285.76211	27070.3875
1289.29301	27783.9875
1292.82151	28694.7875
1296.34761	29813.9875
1299.87133	31160.7875
1303.39266	32603.4875
1306.9116	34201.8875
1310.42815	35811.7875
1313.94233	36925.1875
1317.45412	37150.7875
1320.96354	36718.1875
1324.47058	36047.4875
1327.97525	35298.7875
1331.47754	34784.9875
1334.97747	34625.4875
1338.47502	34693.2875
1341.97022	34688.3875
1345.46305	34382.7875
1348.95352	33934.7875
1352.44163	33819.6875
1355.92738	34385.6875
1359.41078	35573.0875
1362.89183	36818.0875
1366.37053	36492.4875
1369.84688	34103.8875
1373.32088	31152.5875
1376.79254	29126.0875
1380.26186	28263.8875
1383.72883	28108.0875
1387.19347	28135.6875
1390.65578	28064.5875
1394.11575	28160.8875
1397.57339	28459.7875
1401.0287	29039.5875
1404.48168	29657.6875
1407.93234	29917.8875
1411.38068	29708.8875
1414.82669	29089.0875
1418.27039	28042.2875
1421.71177	26948.5875
1425.15083	26009.0875
1428.58758	25450.5875
1432.02203	25410.5875
1435.45416	25683.0875
1438.88399	26139.5875
1442.31151	26594.0875
1445.73673	26965.9875
1449.15965	27350.6875
1452.58027	27625.8875
1455.9986	27793.4875
1459.41463	27897.1875
1462.82837	28198.0875
1466.23982	28597.9875
1469.64898	28978.2875
1473.05586	29205.2875
1476.46045	29175.7875
1479.86276	29061.4875
1483.26279	28757.8875
1486.66054	28545.0875
1490.05602	28408.3875
1493.44922	28375.5875
1496.84016	28273.1875
1500.22882	28349.2875
1503.61521	28750.9875
1506.99934	29435.5875
1510.38121	30186.5875
1513.76081	30456.1875
1517.13816	30004.6875
1520.51324	29058.8875
1523.88607	28149.7875
1527.25665	27593.3875
1530.62498	27447.9875
1533.99105	27540.9875
1537.35488	27561.0875
1540.71647	27488.9875
1544.07581	27278.6875
1547.4329	26933.9875
1550.78776	26551.0875
1554.14038	26295.4875
1557.49077	26169.4875
1560.83892	26150.4875
1564.18484	26253.6875
1567.52853	26459.1875
1570.86999	26884.5875
1574.20922	27695.0875
1577.54624	28541.2875
1580.88103	29057.3875
1584.2136	29072.4875
1587.54395	28988.7875
1590.87208	29289.4875
1594.19801	30098.3875
1597.52172	31291.0875
1600.84321	31742.4875
1604.16251	30829.1875
1607.47959	29001.6875
1610.79447	26853.8875
1614.10715	24927.7875
1617.41763	23412.7875
1620.7259	22419.8875
1624.03199	21924.4875
1627.33587	21879.9875
1630.63757	22287.3875
1633.93707	23220.6875
1637.23439	24749.4875
1640.52951	26845.8875
1643.82246	29277.5875
1647.11321	31272.6875
1650.40179	31736.0875
1653.68819	30152.8875
1656.97241	27227.0875
1660.25446	24225.7875
1663.53433	21976.3875
1666.81203	20456.7875
1670.08756	19483.0875
1673.36092	18877.1875
1676.63211	18479.3875
1679.90115	18174.4875
1683.16801	17937.0875
1686.43272	17786.1875
1689.69527	17674.2875
1692.95567	17593.2875
1696.2139	17516.4875
1699.46999	17494.7875
1702.72392	17463.3875
1705.97571	17395.3875
1709.22535	17372.0875
1712.47284	17360.4875
1715.71819	17286.0875
1718.96139	17251.4875
1722.20246	17209.3875
1725.44139	17155.8875
1728.67818	17071.9875
1731.91284	16954.4875
1735.14537	16927.9875
1738.37576	16889.8875
1741.60403	16855.4875
1744.83017	16800.6875
1748.05418	16791.5875
1751.27607	16737.3875
1754.49584	16727.2875
1757.71349	16703.6875
1760.92903	16687.9875
1764.14244	16661.5875
1767.35375	16648.7875
1770.56294	16639.9875
1773.77002	16627.1875
1776.97499	16599.4875
1780.17785	16569.7875
1783.37861	16578.8875
1786.57727	16532.1875
1789.77382	16469.8875
1792.96828	16460.8875
1796.16064	16415.0875
1799.3509	16392.2875
1802.53907	16388.4875
1805.72514	16340.6875
1808.90913	16296.5875
1812.09102	16247.6875
1815.27083	16236.5875
1818.44856	16227.3875
1821.6242	16194.9875
1824.79776	16175.3875
1827.96924	16168.6875
1831.13864	16163.6875
1834.30597	16154.7875
1837.47122	16130.5875
1840.6344	16093.9875
1843.7955	16123.6875
1846.95454	16111.5875
1850.11151	16098.1875
1853.26642	16070.4875
1856.41926	16100.0875
1859.57004	16080.8875
1862.71876	16052.8875
1865.86542	16071.3875
1869.01003	16048.9875
1872.15258	16051.4875
1875.29308	16047.1875
1878.43152	16008.6875
1881.56792	16013.6875
1884.70227	16010.2875
1887.83457	16022.9875
1890.96482	16003.7875
1894.09304	15967.7875
1897.21921	15990.7875
1900.34335	15998.9875
1903.46544	15947.4875
1906.58551	15962.9875
1909.70353	15939.7875
1912.81953	15934.6875
1915.93349	15916.4875
1919.04543	15871.1875
1922.15534	15857.5875
1925.26322	15823.9875
1928.36908	15819.8875
1931.47292	15762.1875
1934.57473	15737.5875
1937.67453	15688.3875
1940.77232	15659.5875
1943.86808	15611.1875
1946.96184	15598.8875
1950.05358	15492.7875
1953.14331	15480.3875
1956.23103	15461.8875
1959.31675	15408.6875
1962.40046	15350.6875
1965.48217	15321.3875
1968.56188	15281.9875
1971.63959	15210.1875
1974.7153	15184.8875
1977.78901	15147.7875
1980.86073	15097.8875
1983.93046	15062.4875
1986.99819	15010.1875
1990.06394	14959.7875
1993.1277	14912.7875
1996.18947	14873.3875
1999.24925	14861.5875
2002.30706	14788.3875
2005.36288	14753.5875
2008.41672	14717.2875
2011.46859	14679.8875
2014.51848	14670.2875
2017.56639	14633.4875
2020.61233	14572.0875
2023.6563	14568.5875
2026.6983	14528.7875
2029.73833	14533.4875
2032.7764	14479.4875
2035.8125	14448.1875
2038.84664	14426.5875
2041.87881	14419.4875
2044.90903	14372.9875
2047.93729	14366.8875
2050.96359	14350.2875
2053.98794	14303.1875
2057.01034	14304.7875
2060.03078	14308.8875
2063.04927	14273.3875
2066.06582	14249.8875
2069.08042	14260.2875
2072.09307	14255.6875
2075.10378	14238.4875
2078.11255	14224.9875
2081.11938	14226.7875
2084.12426	14201.2875
2087.12722	14256.1875
2090.12824	14232.5875
2093.12732	14226.7875
2096.12447	14224.2875
2099.11969	14222.8875
2102.11299	14235.7875
2105.10435	14239.8875
2108.09379	14222.3875
2111.08131	14254.1875
2114.0669	14247.9875
2117.05057	14252.2875
2120.03233	14307.2875
2123.01216	14243.8875
2125.99008	14289.2875
2128.96609	14296.1875
2131.94018	14297.1875
2134.91236	14313.3875
2137.88263	14315.9875
2140.851	14325.7875
2143.81746	14337.5875
2146.78201	14324.7875
2149.74466	14378.9875
2152.7054	14348.5875
2155.66425	14360.9875
2158.6212	14363.6875
2161.57625	14369.5875
2164.52941	14347.7875
2167.48067	14335.2875
2170.43004	14308.4875
2173.37752	14328.0875
2176.32311	14323.0875
2179.26681	14312.2875
2182.20863	14328.2875
2185.14856	14328.2875
2188.08661	14284.6875
2191.02278	14321.3875
2193.95707	14304.2875
2196.88948	14260.3875
2199.82001	14262.6875
2202.74867	14272.9875
2205.67545	14267.1875
2208.60037	14252.0875
2211.52341	14264.6875
2214.44458	14198.9875
2217.36388	14160.2875
2220.28132	14145.1875
2223.1969	14129.1875
2226.11061	14114.1875
2229.02246	14071.9875
2231.93245	14059.5875
2234.84058	14050.4875
2237.74686	14010.8875
2240.65128	14045.6875
2243.55385	13974.1875
2246.45456	13938.9875
2249.35343	13939.1875
2252.25044	13929.2875
2255.14561	13896.7875
2258.03893	13876.3875
2260.93041	13879.5875
2263.82004	13831.2875
2266.70783	13789.4875
2269.59378	13778.3875
2272.4779	13747.9875
2275.36017	13718.7875
2278.24061	13677.4875
2281.11922	13640.9875
2283.996	13612.5875
2286.87094	13622.9875
2289.74405	13557.0875
2292.61534	13568.6875
2295.4848	13547.3875
2298.35243	13582.6875
2301.21824	13529.5875
2304.08223	13538.4875
2306.94439	13528.6875
2309.80474	13519.4875
2312.66327	13516.9875
2315.51999	13531.9875
2318.37489	13479.8875
2321.22797	13499.4875
2324.07925	13512.4875
2326.92871	13494.8875
2329.77637	13440.2875
2332.62222	13444.3875
2335.46626	13410.3875
2338.3085	13414.4875
2341.14893	13386.9875
2343.98756	13380.7875
2346.8244	13372.7875
2349.65943	13383.0875
2352.49267	13348.4875
2355.32411	13355.0875
2358.15376	13327.3875
2360.98161	13341.2875
2363.80768	13312.4875
2366.63195	13290.0875
2369.45444	13300.5875
2372.27514	13255.6875
2375.09405	13262.7875
2377.91118	13237.4875
2380.72652	13205.4875
2383.54009	13191.7875
2386.35187	13152.6875
2389.16188	13135.4875
2391.97011	13103.5875
2394.77657	13108.8875
2397.58125	13051.0875
2400.38416	13072.9875
2403.18529	13045.9875
2405.98466	13026.0875
2408.78226	12989.6875
2411.57809	12972.3875
2414.37216	12954.0875
2417.16446	12943.5875
2419.955	12944.5875
2422.74378	12922.5875
2425.5308	12893.9875
2428.31606	12862.4875
2431.09956	12863.6875
2433.88131	12861.0875
2436.6613	12852.1875
2439.43954	12849.6875
2442.21603	12838.2875
2444.99077	12849.5875
2447.76377	12840.5875
2450.53501	12782.5875
2453.30451	12795.8875
2456.07226	12773.3875
2458.83827	12792.5875
2461.60254	12772.2875
2464.36507	12734.1875
2467.12586	12740.5875
2469.88492	12762.6875
2472.64224	12749.9875
2475.39782	12709.7875
2478.15167	12732.0875
2480.90379	12711.7875
2483.65417	12730.6875
2486.40283	12732.8875
2489.14976	12747.5875
2491.89497	12736.3875
2494.63845	12749.9875
2497.3802	12707.6875
2500.12024	12714.2875
2502.85855	12728.0875
2505.59514	12703.4875
2508.33002	12689.5875
2511.06318	12668.3875
2513.79462	12664.7875
2516.52435	12639.3875
2519.25237	12622.4875
2521.97867	12618.0875
2524.70327	12615.2875
2527.42616	12594.4875
2530.14734	12584.7875
2532.86681	12552.9875
2535.58458	12545.6875
2538.30065	12558.3875
2541.01501	12560.0875
2543.72768	12528.0875
2546.43864	12495.7875
2549.14791	12484.2875
2551.85548	12452.8875
2554.56136	12419.0875
2557.26554	12412.1875
2559.96803	12374.9875
2562.66883	12375.0875
2565.36794	12385.7875
2568.06536	12379.6875
2570.7611	12395.7875
2573.45514	12362.7875
2576.14751	12359.7875
2578.83819	12318.5875
2581.52719	12283.0875
2584.21451	12278.4875
2586.90015	12306.6875
2589.58411	12250.7875
2592.2664	12238.9875
2594.94701	12207.9875
2597.62594	12219.7875
2600.30321	12206.9875
2602.9788	12201.2875
2605.65273	12150.4875
2608.32498	12154.2875
2610.99557	12148.7875
2613.66449	12125.0875
2616.33175	12130.2875
2618.99734	12120.3875
2621.66128	12131.3875
2624.32355	12134.4875
2626.98416	12104.7875
2629.64311	12109.4875
2632.30041	12121.9875
2634.95605	12080.4875
2637.61004	12075.3875
2640.26238	12057.1875
2642.91306	12049.9875
2645.56209	12043.3875
2648.20948	12052.9875
2650.85521	12025.4875
2653.4993	12036.2875
2656.14175	12033.1875
2658.78255	12030.2875
2661.42171	12006.7875
2664.05923	12033.1875
2666.6951	12051.2875
2669.32934	12045.0875
2671.96194	12018.8875
2674.59291	12007.8875
2677.22224	12030.3875
2679.84993	12059.1875
2682.476	12003.3875
2685.10043	12004.5875
2687.72324	12004.7875
2690.34441	12016.0875
2692.96396	11994.5875
2695.58188	12018.7875
2698.19818	11988.1875
2700.81285	12024.5875
2703.4259	12022.4875
2706.03733	12051.2875
2708.64714	12054.1875
2711.25533	12050.4875
2713.86191	12039.0875
2716.46687	12034.4875
2719.07021	12050.4875
2721.67194	12028.3875
2724.27206	12023.9875
2726.87057	12025.4875
2729.46747	12027.1875
2732.06276	12028.0875
2734.65644	11986.0875
2737.24852	12012.8875
2739.83899	11996.7875
2742.42786	12012.8875
2745.01513	11976.6875
2747.60079	11969.0875
2750.18486	11984.7875
2752.76733	11984.7875
2755.3482	11984.6875
2757.92747	11957.0875
2760.50515	11940.7875
2763.08123	11949.9875
2765.65573	11932.4875
2768.22863	11931.5875
2770.79994	11905.7875
2773.36967	11904.3875
2775.9378	11898.2875
2778.50435	11883.4875
2781.06932	11869.2875
2783.6327	11858.7875
2786.1945	11855.3875
2788.75471	11853.6875
2791.31335	11822.6875
2793.87041	11789.1875
2796.42589	11757.8875
2798.97979	11771.6875
2801.53212	11759.4875
2804.08288	11739.1875
2806.63206	11684.3875
2809.17967	11666.1875
2811.72571	11666.7875
2814.27018	11647.8875
2816.81308	11641.4875
2819.35442	11637.4875
2821.89419	11621.8875
2824.43239	11596.4875
2826.96904	11569.1875
2829.50412	11579.2875
2832.03763	11541.5875
2834.56959	11580.5875
2837.1	11554.2875
2839.62884	11526.4875
2842.15613	11513.4875
2844.68186	11538.7875
2847.20604	11560.4875
2849.72867	11568.5875
2852.24974	11534.6875
2854.76927	11511.9875
2857.28724	11505.8875
2859.80367	11512.9875
2862.31855	11450.2875
2864.83189	11427.8875
2867.34368	11468.9875
2869.85393	11444.0875
2872.36264	11422.3875
2874.8698	11440.0875
2877.37543	11447.0875
2879.87952	11466.0875
2882.38207	11488.7875
2884.88308	11467.3875
2887.38256	11495.2875
2889.88051	11464.1875
2892.37692	11467.3875
2894.8718	11453.5875
2897.36515	11488.3875
2899.85698	11485.2875
2902.34727	11524.1875
2904.83604	11521.3875
2907.32328	11553.3875
2909.809	11533.0875
2912.29319	11531.7875
2914.77587	11532.5875
2917.25702	11527.6875
2919.73665	11522.6875
2922.21476	11550.1875
2924.69136	11523.4875
2927.16644	11537.2875
2929.64	11487.7875
2932.11205	11486.5875
2934.58258	11448.0875
2937.05161	11520.3875
2939.51912	11483.1875
2941.98513	11463.7875
2944.44962	11434.6875
2946.91261	11379.0875
2949.37409	11400.9875
2951.83407	11384.6875
2954.29254	11368.8875
2956.74951	11328.8875
2959.20498	11331.0875
2961.65895	11303.1875
2964.11142	11307.1875
2966.56239	11254.6875
2969.01186	11246.3875
2971.45984	11210.7875
2973.90632	11208.4875
2976.35131	11144.9875
2978.7948	11149.9875
2981.23681	11104.5875
2983.67732	11082.9875
2986.11635	11076.7875
2988.55388	11033.9875
2990.98993	11039.3875
2993.4245	10998.2875
2995.85758	10965.8875
2998.28917	10957.5875
3000.71928	10934.1875
3003.14791	10900.8875
3005.57506	10907.2875
3008.00073	10905.8875
3010.42493	10899.2875
3012.84764	10853.9875
3015.26888	10839.9875
3017.68865	10784.5875
3020.10694	10796.1875
3022.52376	10800.3875
3024.9391	10774.4875
3027.35298	10739.0875
3029.76539	10740.7875
3032.17632	10729.6875
3034.5858	10691.6875
3036.9938	10710.6875
3039.40034	10705.4875
3041.80542	10677.6875
3044.20903	10660.3875
3046.61118	10654.7875
3049.01187	10619.7875
3051.4111	10602.1875
3053.80888	10571.7875
3056.20519	10572.8875
3058.60005	10550.9875
3060.99345	10503.9875
3063.3854	10490.5875
3065.7759	10500.5875
3068.16494	10469.9875
3070.55254	10419.3875
3072.93868	10416.3875
3075.32338	10399.2875
3077.70662	10368.2875
3080.08842	10326.0875
3082.46878	10347.7875
3084.84769	10327.8875
3087.22515	10324.3875
3089.60118	10349.5875
3091.97576	10327.4875
3094.3489	10336.9875
3096.72061	10322.9875
3099.09087	10338.6875
3101.4597	10321.2875
3103.82709	10325.4875
3106.19305	10308.0875
3108.55757	10278.5875
3110.92066	10254.4875
3113.28232	10236.5875
3115.64255	10208.4875
3118.00134	10197.9875
3120.35871	10163.9875
3122.71466	10170.3875
3125.06917	10159.6875
3127.42226	10150.3875
3129.77393	10115.2875
3132.12417	10112.7875
3134.47299	10148.1875
3136.82039	10123.1875
3139.16636	10168.1875
3141.51092	10136.0875
3143.85406	10145.3875
3146.19579	10140.7875
3148.53609	10149.2875
3150.87499	10143.8875
3153.21246	10144.5875
3155.54853	10155.4875
3157.88318	10152.0875
3160.21642	10112.6875
3162.54826	10114.8875
3164.87868	10133.7875
3167.2077	10147.8875
3169.5353	10128.0875
3171.86151	10123.6875
3174.18631	10123.9875
3176.5097	10132.1875
3178.83169	10098.3875
3181.15228	10103.9875
3183.47147	10067.4875
3185.78926	10102.7875
3188.10565	10075.3875
3190.42065	10080.1875
3192.73424	10073.7875
3195.04645	10055.3875
3197.35725	10078.2875
3199.66667	10091.3875
3201.97469	10086.2875
3204.28132	10069.1875
3206.58656	10076.5875
3208.8904	10087.7875
3211.19287	10084.5875
3213.49394	10073.5875
3215.79363	10048.4875
3218.09193	10075.2875
3220.38884	10062.4875
3222.68438	10088.9875
3224.97853	10094.5875
3227.2713	10086.0875
3229.56269	10045.6875
3231.8527	10056.6875
3234.14133	10036.9875
3236.42858	9991.6875
3238.71446	10007.1875
3240.99896	9974.7875
3243.28209	9963.9875
3245.56384	9969.9875
3247.84423	9999.3875
3250.12324	9977.3875
3252.40088	9963.4875
3254.67715	9961.4875
3256.95205	9926.6875
3259.22558	9936.8875
3261.49775	9911.7875
3263.76855	9893.9875
3266.03799	9885.4875
3268.30606	9851.0875
3270.57277	9832.4875
3272.83812	9842.2875
3275.10211	9823.6875
3277.36474	9805.2875
3279.62601	9805.0875
3281.88593	9807.2875
3284.14448	9825.4875
3286.40168	9813.9875
3288.65753	9786.3875
3290.91202	9755.3875
3293.16516	9727.3875
3295.41695	9710.4875
3297.66738	9648.9875
3299.91647	9606.6875
3302.16421	9546.5875
3304.4106	9512.4875
3306.65564	9457.6875
3308.89933	9403.7875
3311.14169	9340.8875
3313.38269	9310.6875
3315.62236	9246.9875
3317.86068	9165.5875
3320.09766	9043.9875
3322.3333	9004.0875
3324.5676	8992.8875
3326.80056	8861.3875
3329.03219	8800.7875
3331.26248	4.5875
3333.49143	-0.3125
3335.71905	-0.6125
