Data from AgNP_FTO_APTES_CRN_1000uM_R6G_10uM_NaF_0.1M_Addition_RamanShift__29__21-24-08-301.txt Node

Date: Wed Dec 15 21:24:08 GMT 2021
User: TCL
Spectrometer: QEP01345
Trigger mode: 4
Integration Time (sec): 7.000000E0
Scans to average: 10
Electric dark correction enabled: true
Nonlinearity correction enabled: false
Boxcar width: 0
XAxis mode: Raman Shifts
Number of Pixels in Spectrum: 1044
>>>>>Begin Spectral Data<<<<<
46.04893	1.3375
50.45542	-2.1625
54.85868	-0.7625
59.25871	-0.1625
63.6555	63.1375
68.04907	68.8375
72.43941	72.1375
76.82654	78.0375
81.21044	77.0375
85.59113	78.2375
89.96862	83.9375
94.34289	80.8375
98.71396	89.5375
103.08183	94.1375
107.4465	97.1375
111.80798	98.2375
116.16626	102.1375
120.52136	108.6375
124.87327	111.1375
129.222	114.9375
133.56755	118.9375
137.90993	134.0375
142.24913	144.9375
146.58517	163.2375
150.91804	189.1375
155.24774	229.0375
159.57429	287.6375
163.89768	369.4375
168.21792	493.3375
172.53501	677.0375
176.84895	939.5375
181.15975	1315.1375
185.46741	1838.9375
189.77193	2545.6375
194.07331	3410.2375
198.37157	4395.9375
202.6667	5448.0375
206.9587	6471.5375
211.24758	7532.0375
215.53334	8587.6375
219.81599	9752.3375
224.09553	11028.8375
228.37195	12416.8375
232.64527	13967.8375
236.91549	15447.3375
241.18261	16917.6375
245.44663	18180.8375
249.70755	19243.5375
253.96539	20169.8375
258.22014	20956.2375
262.4718	21653.9375
266.72039	22166.6375
270.96589	22400.2375
275.20832	22418.7375
279.44768	22206.5375
283.68397	21849.7375
287.91719	21579.3375
292.14735	21599.4375
296.37445	21823.7375
300.59849	22317.2375
304.81948	22993.1375
309.03742	23378.3375
313.25231	23285.9375
317.46415	22426.3375
321.67296	21175.5375
325.87872	20094.7375
330.08145	19571.6375
334.28114	19602.0375
338.47781	19908.0375
342.67145	20350.8375
346.86207	21016.8375
351.04966	22011.1375
355.23424	23090.4375
359.4158	23877.9375
363.59435	24341.6375
367.76989	24481.6375
371.94243	24457.5375
376.11196	24435.0375
380.27849	24369.4375
384.44203	24229.8375
388.60257	24021.6375
392.76012	23877.4375
396.91468	24039.0375
401.06626	24523.7375
405.21485	24867.3375
409.36047	24550.6375
413.50311	23595.2375
417.64277	22706.1375
421.77947	22200.1375
425.9132	22005.8375
430.04396	22062.1375
434.17176	22310.5375
438.2966	22653.0375
442.41849	23235.7375
446.53742	23903.8375
450.6534	24585.6375
454.76644	24977.3375
458.87653	25032.4375
462.98368	24826.2375
467.08789	24486.9375
471.18916	24073.2375
475.2875	23689.6375
479.38291	23284.3375
483.4754	22895.9375
487.56496	22524.7375
491.6516	22298.2375
495.73531	22127.4375
499.81612	22126.2375
503.89401	22338.1375
507.96899	22659.2375
512.04106	23049.5375
516.11023	23544.6375
520.1765	23985.6375
524.23987	24120.0375
528.30034	23923.1375
532.35792	23586.6375
536.41261	23132.8375
540.46441	22701.0375
544.51333	22490.1375
548.55936	22546.6375
552.60252	22912.6375
556.64279	23362.1375
560.6802	23642.1375
564.71473	23902.0375
568.7464	24544.4375
572.7752	24974.0375
576.80114	24386.9375
580.82422	23547.7375
584.84444	23141.3375
588.86181	23250.1375
592.87633	23606.3375
596.888	23998.1375
600.89682	24513.4375
604.9028	26431.2375
608.90594	31803.9375
612.90624	38626.2375
616.90371	37150.1375
620.89834	27856.9375
624.89015	23404.3375
628.87913	22506.3375
632.86528	22542.1375
636.84862	22779.3375
640.82913	22576.2375
644.80683	21949.6375
648.78172	21503.6375
652.75379	21588.8375
656.72306	22182.8375
660.68952	22966.3375
664.65319	22803.8375
668.61405	22007.9375
672.57211	21603.5375
676.52738	21663.5375
680.47986	21702.7375
684.42955	21516.4375
688.37646	21469.6375
692.32058	21543.1375
696.26192	21674.0375
700.20048	21893.5375
704.13626	22025.7375
708.06928	21837.5375
711.99952	21670.9375
715.927	21557.4375
719.85171	21515.6375
723.77365	21413.4375
727.69284	21195.8375
731.60928	20964.4375
735.52295	20929.1375
739.43388	20937.9375
743.34206	20962.7375
747.24749	20923.7375
751.15017	20945.2375
755.05012	21217.4375
758.94733	21946.5375
762.8418	23747.2375
766.73354	26691.0375
770.62254	29893.4375
774.50882	31480.7375
778.39237	30215.1375
782.27321	26831.4375
786.15132	23592.8375
790.02671	21728.1375
793.89938	20850.4375
797.76935	20511.3375
801.6366	20336.5375
805.50115	20229.7375
809.36299	20197.3375
813.22213	20087.7375
817.07857	20050.9375
820.93231	20039.6375
824.78336	20109.0375
828.63172	20214.1375
832.47738	20270.9375
836.32036	20269.1375
840.16066	20189.8375
843.99827	20076.0375
847.8332	20017.5375
851.66546	19966.7375
855.49504	19959.4375
859.32195	19974.8375
863.1462	19947.5375
866.96777	19878.4375
870.78668	19772.2375
874.60293	19676.2375
878.41652	19693.0375
882.22745	19748.4375
886.03573	19765.2375
889.84136	19726.1375
893.64433	19628.7375
897.44466	19585.2375
901.24235	19540.1375
905.0374	19516.2375
908.8298	19470.6375
912.61957	19430.1375
916.40671	19523.1375
920.19121	19620.6375
923.97308	19781.4375
927.75233	19943.9375
931.52895	20183.7375
935.30295	20060.5375
939.07433	19616.0375
942.84309	19173.2375
946.60924	18883.7375
950.37278	18718.2375
954.13371	18590.5375
957.89203	18515.0375
961.64774	18463.2375
965.40086	18421.1375
969.15137	18328.4375
972.89929	18283.7375
976.64461	18253.0375
980.38733	18246.7375
984.12747	18285.6375
987.86502	18388.4375
991.59999	18458.9375
995.33237	18678.4375
999.06217	19005.9375
1002.78939	19381.2375
1006.51404	19729.4375
1010.23611	20069.7375
1013.95561	20238.4375
1017.67255	20158.6375
1021.38692	19858.2375
1025.09872	19633.7375
1028.80796	19543.3375
1032.51465	19645.0375
1036.21877	19818.9375
1039.92035	19941.4375
1043.61937	20007.3375
1047.31584	19952.4375
1051.00976	19871.4375
1054.70114	19914.4375
1058.38998	19984.0375
1062.07627	20230.7375
1065.76003	20649.5375
1069.44126	21256.0375
1073.11995	22106.7375
1076.79611	22870.1375
1080.46974	23213.0375
1084.14085	23072.3375
1087.80943	22646.7375
1091.47549	22089.0375
1095.13903	21344.9375
1098.80005	20601.3375
1102.45857	20059.9375
1106.11456	19854.4375
1109.76805	19966.7375
1113.41903	20266.5375
1117.06751	20823.5375
1120.71348	21453.0375
1124.35696	22150.8375
1127.99793	22750.2375
1131.63641	22719.5375
1135.2724	21976.1375
1138.90589	21256.6375
1142.5369	20701.3375
1146.16542	20270.8375
1149.79145	20105.9375
1153.415	20086.1375
1157.03607	20202.4375
1160.65467	20545.1375
1164.27079	21229.7375
1167.88443	22261.0375
1171.49561	23973.4375
1175.10432	26529.9375
1178.71056	29727.5375
1182.31434	32083.6375
1185.91565	32514.5375
1189.51451	31582.7375
1193.11091	29781.3375
1196.70485	27808.6375
1200.29634	26281.3375
1203.88538	25220.9375
1207.47197	23989.9375
1211.05612	22973.5375
1214.63782	22490.6375
1218.21708	22398.0375
1221.79391	22400.5375
1225.36829	22319.6375
1228.94024	22174.3375
1232.50976	22014.8375
1236.07685	21984.7375
1239.6415	22079.4375
1243.20374	22246.1375
1246.76355	22383.3375
1250.32093	22628.6375
1253.8759	23015.3375
1257.42845	23629.4375
1260.97859	24161.7375
1264.52631	24720.2375
1268.07163	25310.0375
1271.61453	25861.9375
1275.15503	26235.5375
1278.69312	26374.4375
1282.22882	26499.1375
1285.76211	26900.5375
1289.29301	27646.7375
1292.82151	28572.5375
1296.34761	29559.0375
1299.87133	30934.3375
1303.39266	33137.3375
1306.9116	36359.1375
1310.42815	39899.2375
1313.94233	41978.8375
1317.45412	41281.9375
1320.96354	39045.3375
1324.47058	36446.7375
1327.97525	34112.0375
1331.47754	32719.4375
1334.97747	32301.4375
1338.47502	32671.9375
1341.97022	33375.3375
1345.46305	34275.0375
1348.95352	35690.9375
1352.44163	37859.5375
1355.92738	41182.9375
1359.41078	46123.1375
1362.89183	50754.1375
1366.37053	49525.7375
1369.84688	42935.3375
1373.32088	36317.9375
1376.79254	32078.6375
1380.26186	29955.9375
1383.72883	28900.7375
1387.19347	28103.2375
1390.65578	27201.3375
1394.11575	26554.8375
1397.57339	26265.9375
1401.0287	26389.4375
1404.48168	26650.9375
1407.93234	26939.1375
1411.38068	27059.4375
1414.82669	26892.9375
1418.27039	26385.5375
1421.71177	25788.0375
1425.15083	25161.4375
1428.58758	24820.2375
1432.02203	24863.2375
1435.45416	25081.3375
1438.88399	25265.0375
1442.31151	25295.5375
1445.73673	25401.3375
1449.15965	25664.0375
1452.58027	25692.7375
1455.9986	25562.6375
1459.41463	25524.9375
1462.82837	25829.3375
1466.23982	26355.9375
1469.64898	26898.8375
1473.05586	27300.3375
1476.46045	27508.5375
1479.86276	27751.3375
1483.26279	28023.5375
1486.66054	28410.1375
1490.05602	28999.3375
1493.44922	29773.9375
1496.84016	30806.1375
1500.22882	32676.3375
1503.61521	35457.0375
1506.99934	38986.9375
1510.38121	42332.9375
1513.76081	43785.4375
1517.13816	41944.0375
1520.51324	37575.4375
1523.88607	33294.7375
1527.25665	30323.7375
1530.62498	28857.4375
1533.99105	28056.0375
1537.35488	27680.5375
1540.71647	27494.2375
1544.07581	27352.3375
1547.4329	27248.2375
1550.78776	27163.2375
1554.14038	27011.7375
1557.49077	27073.2375
1560.83892	27336.7375
1564.18484	27926.2375
1567.52853	28689.1375
1570.86999	29709.7375
1574.20922	30866.1375
1577.54624	31789.5375
1580.88103	31493.1375
1584.2136	30027.7375
1587.54395	28419.5375
1590.87208	27784.3375
1594.19801	28457.6375
1597.52172	29920.9375
1600.84321	30661.4375
1604.16251	29883.4375
1607.47959	27970.6375
1610.79447	25822.0375
1614.10715	23842.1375
1617.41763	22238.8375
1620.7259	21253.3375
1624.03199	20807.1375
1627.33587	20785.3375
1630.63757	21205.4375
1633.93707	22072.5375
1637.23439	23489.3375
1640.52951	25638.5375
1643.82246	28504.4375
1647.11321	31676.6375
1650.40179	33636.2375
1653.68819	32556.3375
1656.97241	28654.9375
1660.25446	24459.4375
1663.53433	21450.8375
1666.81203	19614.1375
1670.08756	18583.1375
1673.36092	17912.3375
1676.63211	17481.7375
1679.90115	17182.3375
1683.16801	16929.5375
1686.43272	16752.9375
1689.69527	16629.2375
1692.95567	16552.2375
1696.2139	16493.2375
1699.46999	16478.7375
1702.72392	16392.1375
1705.97571	16374.4375
1709.22535	16331.6375
1712.47284	16322.8375
1715.71819	16339.7375
1718.96139	16269.4375
1722.20246	16213.7375
1725.44139	16165.9375
1728.67818	16056.7375
1731.91284	15946.3375
1735.14537	15827.1375
1738.37576	15784.0375
1741.60403	15758.3375
1744.83017	15689.7375
1748.05418	15633.0375
1751.27607	15605.7375
1754.49584	15542.5375
1757.71349	15537.6375
1760.92903	15535.2375
1764.14244	15507.6375
1767.35375	15495.7375
1770.56294	15445.2375
1773.77002	15404.5375
1776.97499	15382.0375
1780.17785	15317.0375
1783.37861	15314.9375
1786.57727	15274.9375
1789.77382	15227.1375
1792.96828	15220.5375
1796.16064	15227.6375
1799.3509	15140.2375
1802.53907	15101.8375
1805.72514	15093.8375
1808.90913	15025.3375
1812.09102	14980.5375
1815.27083	14976.2375
1818.44856	14940.0375
1821.6242	14915.5375
1824.79776	14859.5375
1827.96924	14853.5375
1831.13864	14837.6375
1834.30597	14846.2375
1837.47122	14832.8375
1840.6344	14788.4375
1843.7955	14767.2375
1846.95454	14780.9375
1850.11151	14752.5375
1853.26642	14731.0375
1856.41926	14718.9375
1859.57004	14718.5375
1862.71876	14717.1375
1865.86542	14688.2375
1869.01003	14693.4375
1872.15258	14706.0375
1875.29308	14705.8375
1878.43152	14674.3375
1881.56792	14676.7375
1884.70227	14671.0375
1887.83457	14657.1375
1890.96482	14680.2375
1894.09304	14626.4375
1897.21921	14644.7375
1900.34335	14631.9375
1903.46544	14610.4375
1906.58551	14618.3375
1909.70353	14547.2375
1912.81953	14585.6375
1915.93349	14545.4375
1919.04543	14514.2375
1922.15534	14469.0375
1925.26322	14473.8375
1928.36908	14472.0375
1931.47292	14420.9375
1934.57473	14401.7375
1937.67453	14348.8375
1940.77232	14259.1375
1943.86808	14256.1375
1946.96184	14192.9375
1950.05358	14168.1375
1953.14331	14126.4375
1956.23103	14070.8375
1959.31675	14035.3375
1962.40046	14071.0375
1965.48217	13969.5375
1968.56188	13959.2375
1971.63959	13911.3375
1974.7153	13860.1375
1977.78901	13828.9375
1980.86073	13776.2375
1983.93046	13720.8375
1986.99819	13675.0375
1990.06394	13626.9375
1993.1277	13614.2375
1996.18947	13540.8375
1999.24925	13539.0375
2002.30706	13454.5375
2005.36288	13419.1375
2008.41672	13384.9375
2011.46859	13351.9375
2014.51848	13333.0375
2017.56639	13261.5375
2020.61233	13255.1375
2023.6563	13227.0375
2026.6983	13207.1375
2029.73833	13174.1375
2032.7764	13126.0375
2035.8125	13107.8375
2038.84664	13075.9375
2041.87881	13072.0375
2044.90903	13028.7375
2047.93729	12990.3375
2050.96359	12971.4375
2053.98794	12970.0375
2057.01034	12951.8375
2060.03078	12923.7375
2063.04927	12924.8375
2066.06582	12918.4375
2069.08042	12894.6375
2072.09307	12893.9375
2075.10378	12869.2375
2078.11255	12852.8375
2081.11938	12854.7375
2084.12426	12858.1375
2087.12722	12856.5375
2090.12824	12816.5375
2093.12732	12838.5375
2096.12447	12867.7375
2099.11969	12834.9375
2102.11299	12853.6375
2105.10435	12831.3375
2108.09379	12842.6375
2111.08131	12852.8375
2114.0669	12860.0375
2117.05057	12885.4375
2120.03233	12866.6375
2123.01216	12867.1375
2125.99008	12899.6375
2128.96609	12873.1375
2131.94018	12924.5375
2134.91236	12925.2375
2137.88263	12894.1375
2140.851	12909.4375
2143.81746	12901.3375
2146.78201	12902.2375
2149.74466	12909.2375
2152.7054	12915.1375
2155.66425	12907.0375
2158.6212	12947.1375
2161.57625	12896.6375
2164.52941	12909.6375
2167.48067	12846.2375
2170.43004	12842.3375
2173.37752	12855.2375
2176.32311	12846.1375
2179.26681	12853.4375
2182.20863	12844.1375
2185.14856	12816.1375
2188.08661	12814.3375
2191.02278	12805.7375
2193.95707	12795.7375
2196.88948	12778.2375
2199.82001	12766.7375
2202.74867	12734.7375
2205.67545	12762.4375
2208.60037	12763.0375
2211.52341	12746.5375
2214.44458	12719.7375
2217.36388	12667.1375
2220.28132	12668.7375
2223.1969	12631.3375
2226.11061	12589.0375
2229.02246	12574.4375
2231.93245	12564.3375
2234.84058	12512.2375
2237.74686	12524.7375
2240.65128	12502.9375
2243.55385	12487.0375
2246.45456	12426.5375
2249.35343	12433.6375
2252.25044	12450.8375
2255.14561	12427.0375
2258.03893	12416.5375
2260.93041	12398.0375
2263.82004	12366.9375
2266.70783	12361.8375
2269.59378	12306.6375
2272.4779	12291.0375
2275.36017	12267.6375
2278.24061	12238.1375
2281.11922	12189.8375
2283.996	12171.9375
2286.87094	12143.3375
2289.74405	12123.0375
2292.61534	12096.6375
2295.4848	12090.9375
2298.35243	12082.0375
2301.21824	12050.5375
2304.08223	12045.8375
2306.94439	12008.4375
2309.80474	12045.5375
2312.66327	12057.6375
2315.51999	12024.7375
2318.37489	12038.5375
2321.22797	12020.7375
2324.07925	11997.4375
2326.92871	12012.4375
2329.77637	11994.1375
2332.62222	11977.9375
2335.46626	11956.8375
2338.3085	11958.8375
2341.14893	11939.0375
2343.98756	11911.7375
2346.8244	11937.5375
2349.65943	11895.0375
2352.49267	11926.1375
2355.32411	11920.4375
2358.15376	11905.1375
2360.98161	11906.7375
2363.80768	11934.0375
2366.63195	11912.1375
2369.45444	11889.5375
2372.27514	11886.1375
2375.09405	11868.2375
2377.91118	11843.8375
2380.72652	11815.6375
2383.54009	11791.0375
2386.35187	11754.2375
2389.16188	11676.1375
2391.97011	11700.1375
2394.77657	11640.8375
2397.58125	11623.3375
2400.38416	11604.8375
2403.18529	11582.1375
2405.98466	11583.2375
2408.78226	11534.5375
2411.57809	11527.5375
2414.37216	11486.3375
2417.16446	11479.0375
2419.955	11461.3375
2422.74378	11466.2375
2425.5308	11446.3375
2428.31606	11412.4375
2431.09956	11414.6375
2433.88131	11426.5375
2436.6613	11427.3375
2439.43954	11425.8375
2442.21603	11412.0375
2444.99077	11401.9375
2447.76377	11426.5375
2450.53501	11389.6375
2453.30451	11369.5375
2456.07226	11362.3375
2458.83827	11366.6375
2461.60254	11347.5375
2464.36507	11358.0375
2467.12586	11339.6375
2469.88492	11341.5375
2472.64224	11306.2375
2475.39782	11298.2375
2478.15167	11332.8375
2480.90379	11332.5375
2483.65417	11327.0375
2486.40283	11354.4375
2489.14976	11367.7375
2491.89497	11363.4375
2494.63845	11383.4375
2497.3802	11356.4375
2500.12024	11322.7375
2502.85855	11305.6375
2505.59514	11291.2375
2508.33002	11268.3375
2511.06318	11231.7375
2513.79462	11236.1375
2516.52435	11198.3375
2519.25237	11160.2375
2521.97867	11125.1375
2524.70327	11132.9375
2527.42616	11131.5375
2530.14734	11115.6375
2532.86681	11083.9375
2535.58458	11079.4375
2538.30065	11064.2375
2541.01501	11063.9375
2543.72768	11071.0375
2546.43864	11055.3375
2549.14791	11033.7375
2551.85548	11021.7375
2554.56136	11002.5375
2557.26554	10946.1375
2559.96803	10978.7375
2562.66883	10928.0375
2565.36794	10908.2375
2568.06536	10942.7375
2570.7611	10931.7375
2573.45514	10915.9375
2576.14751	10881.1375
2578.83819	10867.0375
2581.52719	10869.4375
2584.21451	10826.8375
2586.90015	10818.8375
2589.58411	10792.4375
2592.2664	10772.9375
2594.94701	10763.2375
2597.62594	10735.9375
2600.30321	10717.6375
2602.9788	10706.2375
2605.65273	10701.5375
2608.32498	10703.3375
2610.99557	10680.3375
2613.66449	10697.0375
2616.33175	10669.7375
2618.99734	10666.1375
2621.66128	10645.1375
2624.32355	10655.3375
2626.98416	10628.9375
2629.64311	10634.0375
2632.30041	10635.6375
2634.95605	10613.3375
2637.61004	10589.4375
2640.26238	10562.7375
2642.91306	10557.9375
2645.56209	10541.6375
2648.20948	10569.2375
2650.85521	10542.9375
2653.4993	10551.7375
2656.14175	10571.4375
2658.78255	10555.5375
2661.42171	10546.7375
2664.05923	10554.0375
2666.6951	10557.1375
2669.32934	10556.0375
2671.96194	10547.5375
2674.59291	10560.9375
2677.22224	10555.9375
2679.84993	10595.0375
2682.476	10576.3375
2685.10043	10563.3375
2687.72324	10541.7375
2690.34441	10531.1375
2692.96396	10540.1375
2695.58188	10571.1375
2698.19818	10536.6375
2700.81285	10565.1375
2703.4259	10574.8375
2706.03733	10631.8375
2708.64714	10592.7375
2711.25533	10586.9375
2713.86191	10602.8375
2716.46687	10625.8375
2719.07021	10589.9375
2721.67194	10575.1375
2724.27206	10567.9375
2726.87057	10584.1375
2729.46747	10562.1375
2732.06276	10559.7375
2734.65644	10543.0375
2737.24852	10542.5375
2739.83899	10489.2375
2742.42786	10512.0375
2745.01513	10493.3375
2747.60079	10504.3375
2750.18486	10476.9375
2752.76733	10463.3375
2755.3482	10467.7375
2757.92747	10447.6375
2760.50515	10416.0375
2763.08123	10423.9375
2765.65573	10395.4375
2768.22863	10403.5375
2770.79994	10421.9375
2773.36967	10396.9375
2775.9378	10364.8375
2778.50435	10366.4375
2781.06932	10350.1375
2783.6327	10363.2375
2786.1945	10344.4375
2788.75471	10333.2375
2791.31335	10317.3375
2793.87041	10320.8375
2796.42589	10283.8375
2798.97979	10296.4375
2801.53212	10265.8375
2804.08288	10252.1375
2806.63206	10233.1375
2809.17967	10216.7375
2811.72571	10213.6375
2814.27018	10221.7375
2816.81308	10212.6375
2819.35442	10223.3375
2821.89419	10195.3375
2824.43239	10204.9375
2826.96904	10216.5375
2829.50412	10227.6375
2832.03763	10192.8375
2834.56959	10227.5375
2837.1	10198.2375
2839.62884	10217.3375
2842.15613	10235.6375
2844.68186	10266.1375
2847.20604	10301.3375
2849.72867	10349.9375
2852.24974	10317.2375
2854.76927	10335.0375
2857.28724	10327.5375
2859.80367	10314.7375
2862.31855	10289.4375
2864.83189	10256.3375
2867.34368	10256.4375
2869.85393	10265.0375
2872.36264	10257.3375
2874.8698	10251.5375
2877.37543	10264.9375
2879.87952	10277.1375
2882.38207	10280.9375
2884.88308	10261.4375
2887.38256	10293.4375
2889.88051	10276.7375
2892.37692	10283.5375
2894.8718	10275.6375
2897.36515	10285.7375
2899.85698	10289.8375
2902.34727	10342.5375
2904.83604	10313.4375
2907.32328	10335.6375
2909.809	10336.9375
2912.29319	10322.3375
2914.77587	10332.7375
2917.25702	10350.6375
2919.73665	10358.0375
2922.21476	10329.6375
2924.69136	10330.9375
2927.16644	10306.0375
2929.64	10285.6375
2932.11205	10283.3375
2934.58258	10232.8375
2937.05161	10248.0375
2939.51912	10213.1375
2941.98513	10187.9375
2944.44962	10134.0375
2946.91261	10067.4375
2949.37409	10035.2375
2951.83407	10014.9375
2954.29254	9992.2375
2956.74951	9943.6375
2959.20498	9925.7375
2961.65895	9909.2375
2964.11142	9888.7375
2966.56239	9839.6375
2969.01186	9826.9375
2971.45984	9784.6375
2973.90632	9790.9375
2976.35131	9727.4375
2978.7948	9706.7375
2981.23681	9695.6375
2983.67732	9670.6375
2986.11635	9658.5375
2988.55388	9628.6375
2990.98993	9597.6375
2993.4245	9590.2375
2995.85758	9575.8375
2998.28917	9525.1375
3000.71928	9485.2375
3003.14791	9501.3375
3005.57506	9485.6375
3008.00073	9479.5375
3010.42493	9465.1375
3012.84764	9423.2375
3015.26888	9420.9375
3017.68865	9418.6375
3020.10694	9374.3375
3022.52376	9367.7375
3024.9391	9343.6375
3027.35298	9358.3375
3029.76539	9345.5375
3032.17632	9322.9375
3034.5858	9288.4375
3036.9938	9282.9375
3039.40034	9263.8375
3041.80542	9232.4375
3044.20903	9221.9375
3046.61118	9214.4375
3049.01187	9187.0375
3051.4111	9200.5375
3053.80888	9171.6375
3056.20519	9139.5375
3058.60005	9127.0375
3060.99345	9106.4375
3063.3854	9106.5375
3065.7759	9074.6375
3068.16494	9066.6375
3070.55254	9044.4375
3072.93868	9035.8375
3075.32338	8969.9375
3077.70662	8980.0375
3080.08842	8959.4375
3082.46878	8929.4375
3084.84769	8940.1375
3087.22515	8931.6375
3089.60118	8935.3375
3091.97576	8936.1375
3094.3489	8939.7375
3096.72061	8913.3375
3099.09087	8908.8375
3101.4597	8899.7375
3103.82709	8892.3375
3106.19305	8886.9375
3108.55757	8839.1375
3110.92066	8836.9375
3113.28232	8822.9375
3115.64255	8793.6375
3118.00134	8784.9375
3120.35871	8794.7375
3122.71466	8761.2375
3125.06917	8755.2375
3127.42226	8739.1375
3129.77393	8730.6375
3132.12417	8756.9375
3134.47299	8750.1375
3136.82039	8751.4375
3139.16636	8763.5375
3141.51092	8756.1375
3143.85406	8751.5375
3146.19579	8752.1375
3148.53609	8770.8375
3150.87499	8768.3375
3153.21246	8760.3375
3155.54853	8790.8375
3157.88318	8770.7375
3160.21642	8769.3375
3162.54826	8762.4375
3164.87868	8751.0375
3167.2077	8770.2375
3169.5353	8749.9375
3171.86151	8750.6375
3174.18631	8735.5375
3176.5097	8750.6375
3178.83169	8705.9375
3181.15228	8717.3375
3183.47147	8717.5375
3185.78926	8723.4375
3188.10565	8678.1375
3190.42065	8692.4375
3192.73424	8728.5375
3195.04645	8690.0375
3197.35725	8719.8375
3199.66667	8687.0375
3201.97469	8727.3375
3204.28132	8705.0375
3206.58656	8721.9375
3208.8904	8709.5375
3211.19287	8714.7375
3213.49394	8727.1375
3215.79363	8710.5375
3218.09193	8713.1375
3220.38884	8711.4375
3222.68438	8729.3375
3224.97853	8703.6375
3227.2713	8708.2375
3229.56269	8679.5375
3231.8527	8682.7375
3234.14133	8680.3375
3236.42858	8659.2375
3238.71446	8635.9375
3240.99896	8618.1375
3243.28209	8632.8375
3245.56384	8606.2375
3247.84423	8642.4375
3250.12324	8629.1375
3252.40088	8604.1375
3254.67715	8601.6375
3256.95205	8584.9375
3259.22558	8566.4375
3261.49775	8574.8375
3263.76855	8562.7375
3266.03799	8548.0375
3268.30606	8512.1375
3270.57277	8530.2375
3272.83812	8484.9375
3275.10211	8464.4375
3277.36474	8473.7375
3279.62601	8463.8375
3281.88593	8462.7375
3284.14448	8484.6375
3286.40168	8483.6375
3288.65753	8462.4375
3290.91202	8442.5375
3293.16516	8416.7375
3295.41695	8400.5375
3297.66738	8339.6375
3299.91647	8299.1375
3302.16421	8270.5375
3304.4106	8232.3375
3306.65564	8187.3375
3308.89933	8124.5375
3311.14169	8092.8375
3313.38269	8044.3375
3315.62236	7993.1375
3317.86068	7905.4375
3320.09766	7832.8375
3322.3333	7774.6375
3324.5676	7770.3375
3326.80056	7657.8375
3329.03219	7613.8375
3331.26248	3.4375
3333.49143	-0.9625
3335.71905	0.6375
