Data from AgNP_FTO_APTES_CRN_0uM_R6G_10uM_NaF_0.1M_Addition_RamanShift__1__11-30-52-894.txt Node

Date: Wed Dec 15 11:30:52 GMT 2021
User: TCL
Spectrometer: QEP01345
Trigger mode: 4
Integration Time (sec): 7.000000E0
Scans to average: 10
Electric dark correction enabled: true
Nonlinearity correction enabled: false
Boxcar width: 0
XAxis mode: Raman Shifts
Number of Pixels in Spectrum: 1044
>>>>>Begin Spectral Data<<<<<
46.04893	1.7375
50.45542	-1.2625
54.85868	-0.0625
59.25871	1.0375
63.6555	77.8375
68.04907	88.3375
72.43941	93.8375
76.82654	101.3375
81.21044	110.9375
85.59113	115.1375
89.96862	118.9375
94.34289	124.0375
98.71396	128.9375
103.08183	131.9375
107.4465	137.3375
111.80798	131.8375
116.16626	135.3375
120.52136	135.3375
124.87327	133.7375
129.222	130.3375
133.56755	126.2375
137.90993	136.2375
142.24913	131.2375
146.58517	134.7375
150.91804	141.2375
155.24774	149.3375
159.57429	164.1375
163.89768	186.6375
168.21792	213.1375
172.53501	258.1375
176.84895	320.0375
181.15975	419.8375
185.46741	559.1375
189.77193	762.7375
194.07331	1020.6375
198.37157	1329.3375
202.6667	1686.3375
206.9587	2042.3375
211.24758	2413.1375
215.53334	2780.5375
219.81599	3170.6375
224.09553	3590.5375
228.37195	4040.9375
232.64527	4526.5375
236.91549	5018.1375
241.18261	5519.9375
245.44663	5969.4375
249.70755	6381.8375
253.96539	6669.4375
258.22014	6857.2375
262.4718	6941.8375
266.72039	6866.5375
270.96589	6713.7375
275.20832	6467.5375
279.44768	6162.6375
283.68397	5802.3375
287.91719	5498.8375
292.14735	5174.5375
296.37445	4896.9375
300.59849	4642.6375
304.81948	4448.1375
309.03742	4277.5375
313.25231	4107.3375
317.46415	3993.8375
321.67296	3884.1375
325.87872	3803.2375
330.08145	3750.8375
334.28114	3688.8375
338.47781	3631.2375
342.67145	3582.7375
346.86207	3543.6375
351.04966	3505.7375
355.23424	3452.4375
359.4158	3419.7375
363.59435	3374.6375
367.76989	3355.5375
371.94243	3316.1375
376.11196	3292.5375
380.27849	3274.3375
384.44203	3260.5375
388.60257	3247.4375
392.76012	3246.4375
396.91468	3272.4375
401.06626	3268.5375
405.21485	3295.7375
409.36047	3307.6375
413.50311	3318.0375
417.64277	3327.3375
421.77947	3351.8375
425.9132	3387.0375
430.04396	3427.4375
434.17176	3473.7375
438.2966	3503.1375
442.41849	3540.4375
446.53742	3566.8375
450.6534	3602.6375
454.76644	3608.7375
458.87653	3612.9375
462.98368	3618.2375
467.08789	3628.9375
471.18916	3602.2375
475.2875	3598.4375
479.38291	3574.1375
483.4754	3572.9375
487.56496	3548.8375
491.6516	3544.0375
495.73531	3533.9375
499.81612	3519.6375
503.89401	3523.2375
507.96899	3542.7375
512.04106	3547.8375
516.11023	3566.5375
520.1765	3585.3375
524.23987	3594.5375
528.30034	3614.9375
532.35792	3641.4375
536.41261	3665.8375
540.46441	3693.7375
544.51333	3742.1375
548.55936	3802.7375
552.60252	3860.2375
556.64279	3912.4375
560.6802	3943.5375
564.71473	3965.3375
568.7464	3958.4375
572.7752	3905.3375
576.80114	3860.1375
580.82422	3848.9375
584.84444	3888.6375
588.86181	3957.6375
592.87633	4075.6375
596.888	4285.2375
600.89682	4568.9375
604.9028	4947.6375
608.90594	5381.7375
612.90624	5720.1375
616.90371	5714.9375
620.89834	5331.9375
624.89015	4866.3375
628.87913	4442.5375
632.86528	4114.1375
636.84862	3862.6375
640.82913	3695.8375
644.80683	3592.7375
648.78172	3556.8375
652.75379	3513.0375
656.72306	3526.6375
660.68952	3522.7375
664.65319	3527.3375
668.61405	3535.2375
672.57211	3557.4375
676.52738	3573.3375
680.47986	3609.2375
684.42955	3626.2375
688.37646	3631.5375
692.32058	3647.6375
696.26192	3646.8375
700.20048	3643.6375
704.13626	3629.9375
708.06928	3611.9375
711.99952	3623.1375
715.927	3621.5375
719.85171	3630.4375
723.77365	3653.3375
727.69284	3681.9375
731.60928	3742.1375
735.52295	3768.3375
739.43388	3767.9375
743.34206	3751.3375
747.24749	3752.3375
751.15017	3756.0375
755.05012	3781.6375
758.94733	3828.6375
762.8418	3852.9375
766.73354	3897.3375
770.62254	3939.1375
774.50882	3964.7375
778.39237	3961.0375
782.27321	3907.0375
786.15132	3861.3375
790.02671	3828.6375
793.89938	3833.0375
797.76935	3864.0375
801.6366	3881.1375
805.50115	3900.4375
809.36299	3899.9375
813.22213	3896.7375
817.07857	3897.3375
820.93231	3887.6375
824.78336	3874.0375
828.63172	3871.1375
832.47738	3877.6375
836.32036	3891.6375
840.16066	3905.0375
843.99827	3930.3375
847.8332	3936.9375
851.66546	3910.5375
855.49504	3907.5375
859.32195	3919.4375
863.1462	3963.8375
866.96777	3985.2375
870.78668	4013.7375
874.60293	4083.8375
878.41652	4141.8375
882.22745	4234.4375
886.03573	4365.7375
889.84136	4559.8375
893.64433	4764.2375
897.44466	4997.8375
901.24235	5235.6375
905.0374	5473.3375
908.8298	5760.4375
912.61957	6101.1375
916.40671	6530.6375
920.19121	6916.4375
923.97308	7220.1375
927.75233	7396.9375
931.52895	7377.3375
935.30295	7122.6375
939.07433	6758.8375
942.84309	6358.7375
946.60924	6041.3375
950.37278	5815.1375
954.13371	5596.1375
957.89203	5333.6375
961.64774	5041.4375
965.40086	4790.7375
969.15137	4613.1375
972.89929	4464.9375
976.64461	4307.4375
980.38733	4227.5375
984.12747	4161.4375
987.86502	4096.9375
991.59999	4065.6375
995.33237	4067.9375
999.06217	4072.8375
1002.78939	4085.5375
1006.51404	4091.8375
1010.23611	4095.9375
1013.95561	4087.0375
1017.67255	4074.9375
1021.38692	4061.9375
1025.09872	4056.9375
1028.80796	4073.7375
1032.51465	4102.5375
1036.21877	4133.1375
1039.92035	4186.5375
1043.61937	4216.0375
1047.31584	4241.2375
1051.00976	4245.3375
1054.70114	4275.6375
1058.38998	4280.8375
1062.07627	4286.0375
1065.76003	4284.4375
1069.44126	4245.3375
1073.11995	4231.9375
1076.79611	4208.3375
1080.46974	4152.7375
1084.14085	4100.8375
1087.80943	4024.9375
1091.47549	3928.8375
1095.13903	3858.7375
1098.80005	3797.0375
1102.45857	3737.9375
1106.11456	3680.6375
1109.76805	3643.2375
1113.41903	3621.9375
1117.06751	3604.1375
1120.71348	3605.0375
1124.35696	3603.7375
1127.99793	3616.6375
1131.63641	3627.7375
1135.2724	3597.6375
1138.90589	3565.4375
1142.5369	3564.8375
1146.16542	3522.4375
1149.79145	3500.7375
1153.415	3459.3375
1157.03607	3432.4375
1160.65467	3418.0375
1164.27079	3420.7375
1167.88443	3442.0375
1171.49561	3489.7375
1175.10432	3526.8375
1178.71056	3642.1375
1182.31434	3721.1375
1185.91565	3825.2375
1189.51451	3856.7375
1193.11091	3892.1375
1196.70485	3870.2375
1200.29634	3813.0375
1203.88538	3755.2375
1207.47197	3673.8375
1211.05612	3626.9375
1214.63782	3591.5375
1218.21708	3596.3375
1221.79391	3611.1375
1225.36829	3621.5375
1228.94024	3655.2375
1232.50976	3668.4375
1236.07685	3694.0375
1239.6415	3698.2375
1243.20374	3678.3375
1246.76355	3673.6375
1250.32093	3678.3375
1253.8759	3699.9375
1257.42845	3747.7375
1260.97859	3776.5375
1264.52631	3831.7375
1268.07163	3872.6375
1271.61453	3949.0375
1275.15503	4003.6375
1278.69312	4070.1375
1282.22882	4130.9375
1285.76211	4202.5375
1289.29301	4295.1375
1292.82151	4392.0375
1296.34761	4460.2375
1299.87133	4523.0375
1303.39266	4549.4375
1306.9116	4557.7375
1310.42815	4569.7375
1313.94233	4533.8375
1317.45412	4473.2375
1320.96354	4412.6375
1324.47058	4345.8375
1327.97525	4312.2375
1331.47754	4333.1375
1334.97747	4354.8375
1338.47502	4410.8375
1341.97022	4511.3375
1345.46305	4630.7375
1348.95352	4768.3375
1352.44163	4945.5375
1355.92738	5106.2375
1359.41078	5303.0375
1362.89183	5454.2375
1366.37053	5529.1375
1369.84688	5475.6375
1373.32088	5365.0375
1376.79254	5302.0375
1380.26186	5217.0375
1383.72883	5156.5375
1387.19347	5126.1375
1390.65578	5080.1375
1394.11575	5041.5375
1397.57339	4990.5375
1401.0287	4901.6375
1404.48168	4854.4375
1407.93234	4785.2375
1411.38068	4736.7375
1414.82669	4680.2375
1418.27039	4602.0375
1421.71177	4528.4375
1425.15083	4442.5375
1428.58758	4366.4375
1432.02203	4295.6375
1435.45416	4228.5375
1438.88399	4191.7375
1442.31151	4201.1375
1445.73673	4195.6375
1449.15965	4191.5375
1452.58027	4194.2375
1455.9986	4174.7375
1459.41463	4155.8375
1462.82837	4174.9375
1466.23982	4202.9375
1469.64898	4201.0375
1473.05586	4225.6375
1476.46045	4240.9375
1479.86276	4266.9375
1483.26279	4257.9375
1486.66054	4282.4375
1490.05602	4258.6375
1493.44922	4236.4375
1496.84016	4207.7375
1500.22882	4203.4375
1503.61521	4221.2375
1506.99934	4232.2375
1510.38121	4237.5375
1513.76081	4231.2375
1517.13816	4178.3375
1520.51324	4089.5375
1523.88607	4007.1375
1527.25665	3943.7375
1530.62498	3915.7375
1533.99105	3885.7375
1537.35488	3843.8375
1540.71647	3831.5375
1544.07581	3819.7375
1547.4329	3812.5375
1550.78776	3787.6375
1554.14038	3751.2375
1557.49077	3736.0375
1560.83892	3699.9375
1564.18484	3685.3375
1567.52853	3638.4375
1570.86999	3623.1375
1574.20922	3606.1375
1577.54624	3604.5375
1580.88103	3573.4375
1584.2136	3544.8375
1587.54395	3510.0375
1590.87208	3476.1375
1594.19801	3457.9375
1597.52172	3465.3375
1600.84321	3447.5375
1604.16251	3434.7375
1607.47959	3434.8375
1610.79447	3431.0375
1614.10715	3435.6375
1617.41763	3420.0375
1620.7259	3420.5375
1624.03199	3446.4375
1627.33587	3440.8375
1630.63757	3440.0375
1633.93707	3435.6375
1637.23439	3431.6375
1640.52951	3417.4375
1643.82246	3385.8375
1647.11321	3380.3375
1650.40179	3339.2375
1653.68819	3271.8375
1656.97241	3168.9375
1660.25446	3057.4375
1663.53433	2932.3375
1666.81203	2843.0375
1670.08756	2775.7375
1673.36092	2718.8375
1676.63211	2681.8375
1679.90115	2641.2375
1683.16801	2588.6375
1686.43272	2565.9375
1689.69527	2548.8375
1692.95567	2519.3375
1696.2139	2502.1375
1699.46999	2469.6375
1702.72392	2454.0375
1705.97571	2448.5375
1709.22535	2434.9375
1712.47284	2420.8375
1715.71819	2396.7375
1718.96139	2374.0375
1722.20246	2350.4375
1725.44139	2338.2375
1728.67818	2330.4375
1731.91284	2300.5375
1735.14537	2302.6375
1738.37576	2279.9375
1741.60403	2269.5375
1744.83017	2264.0375
1748.05418	2247.4375
1751.27607	2243.0375
1754.49584	2231.9375
1757.71349	2218.3375
1760.92903	2203.9375
1764.14244	2202.5375
1767.35375	2203.9375
1770.56294	2193.0375
1773.77002	2183.7375
1776.97499	2189.4375
1780.17785	2177.7375
1783.37861	2180.8375
1786.57727	2192.3375
1789.77382	2159.7375
1792.96828	2170.8375
1796.16064	2171.1375
1799.3509	2164.7375
1802.53907	2155.9375
1805.72514	2166.4375
1808.90913	2141.3375
1812.09102	2132.7375
1815.27083	2131.2375
1818.44856	2135.9375
1821.6242	2136.2375
1824.79776	2119.5375
1827.96924	2124.9375
1831.13864	2124.4375
1834.30597	2124.9375
1837.47122	2120.2375
1840.6344	2108.0375
1843.7955	2108.3375
1846.95454	2114.9375
1850.11151	2098.2375
1853.26642	2093.8375
1856.41926	2093.4375
1859.57004	2088.7375
1862.71876	2079.8375
1865.86542	2068.2375
1869.01003	2075.6375
1872.15258	2069.3375
1875.29308	2059.3375
1878.43152	2054.8375
1881.56792	2049.2375
1884.70227	2052.0375
1887.83457	2040.3375
1890.96482	2038.2375
1894.09304	2027.3375
1897.21921	2025.2375
1900.34335	2025.0375
1903.46544	2033.9375
1906.58551	2019.2375
1909.70353	2014.6375
1912.81953	2015.4375
1915.93349	2000.6375
1919.04543	1996.3375
1922.15534	1995.6375
1925.26322	1995.9375
1928.36908	1988.7375
1931.47292	1986.3375
1934.57473	1975.8375
1937.67453	1979.9375
1940.77232	1973.3375
1943.86808	1971.9375
1946.96184	1961.8375
1950.05358	1947.2375
1953.14331	1953.1375
1956.23103	1933.2375
1959.31675	1936.5375
1962.40046	1922.9375
1965.48217	1921.0375
1968.56188	1911.9375
1971.63959	1909.9375
1974.7153	1896.8375
1977.78901	1896.3375
1980.86073	1894.7375
1983.93046	1884.8375
1986.99819	1877.4375
1990.06394	1871.8375
1993.1277	1872.0375
1996.18947	1862.9375
1999.24925	1856.3375
2002.30706	1846.2375
2005.36288	1844.1375
2008.41672	1838.7375
2011.46859	1833.0375
2014.51848	1822.9375
2017.56639	1814.3375
2020.61233	1815.2375
2023.6563	1804.8375
2026.6983	1808.6375
2029.73833	1790.2375
2032.7764	1796.7375
2035.8125	1782.7375
2038.84664	1795.1375
2041.87881	1789.8375
2044.90903	1783.6375
2047.93729	1776.9375
2050.96359	1770.5375
2053.98794	1772.3375
2057.01034	1774.1375
2060.03078	1769.6375
2063.04927	1773.1375
2066.06582	1764.7375
2069.08042	1774.7375
2072.09307	1781.4375
2075.10378	1776.2375
2078.11255	1782.0375
2081.11938	1785.9375
2084.12426	1775.9375
2087.12722	1779.1375
2090.12824	1786.2375
2093.12732	1791.0375
2096.12447	1792.3375
2099.11969	1784.9375
2102.11299	1784.1375
2105.10435	1777.5375
2108.09379	1792.7375
2111.08131	1778.5375
2114.0669	1783.4375
2117.05057	1788.7375
2120.03233	1777.2375
2123.01216	1780.3375
2125.99008	1776.9375
2128.96609	1769.5375
2131.94018	1758.0375
2134.91236	1764.1375
2137.88263	1767.4375
2140.851	1757.7375
2143.81746	1759.6375
2146.78201	1767.3375
2149.74466	1754.0375
2152.7054	1766.5375
2155.66425	1754.4375
2158.6212	1744.9375
2161.57625	1747.4375
2164.52941	1740.6375
2167.48067	1751.7375
2170.43004	1746.2375
2173.37752	1741.3375
2176.32311	1733.9375
2179.26681	1745.0375
2182.20863	1732.8375
2185.14856	1737.4375
2188.08661	1734.3375
2191.02278	1730.8375
2193.95707	1739.5375
2196.88948	1726.8375
2199.82001	1739.4375
2202.74867	1724.6375
2205.67545	1722.4375
2208.60037	1728.5375
2211.52341	1730.8375
2214.44458	1721.5375
2217.36388	1717.3375
2220.28132	1714.4375
2223.1969	1707.2375
2226.11061	1703.3375
2229.02246	1703.1375
2231.93245	1690.9375
2234.84058	1679.2375
2237.74686	1678.7375
2240.65128	1679.4375
2243.55385	1673.4375
2246.45456	1672.0375
2249.35343	1666.8375
2252.25044	1663.5375
2255.14561	1659.0375
2258.03893	1659.4375
2260.93041	1660.7375
2263.82004	1655.2375
2266.70783	1647.1375
2269.59378	1645.5375
2272.4779	1644.2375
2275.36017	1640.9375
2278.24061	1632.6375
2281.11922	1629.4375
2283.996	1626.5375
2286.87094	1625.9375
2289.74405	1621.3375
2292.61534	1610.5375
2295.4848	1615.8375
2298.35243	1607.1375
2301.21824	1608.4375
2304.08223	1611.8375
2306.94439	1603.1375
2309.80474	1598.6375
2312.66327	1599.9375
2315.51999	1595.4375
2318.37489	1597.2375
2321.22797	1591.1375
2324.07925	1583.5375
2326.92871	1593.0375
2329.77637	1586.5375
2332.62222	1582.5375
2335.46626	1575.8375
2338.3085	1579.5375
2341.14893	1577.0375
2343.98756	1575.1375
2346.8244	1576.0375
2349.65943	1552.3375
2352.49267	1564.5375
2355.32411	1552.2375
2358.15376	1557.3375
2360.98161	1552.5375
2363.80768	1546.6375
2366.63195	1551.5375
2369.45444	1547.7375
2372.27514	1542.0375
2375.09405	1547.7375
2377.91118	1542.8375
2380.72652	1550.7375
2383.54009	1539.2375
2386.35187	1530.2375
2389.16188	1523.7375
2391.97011	1539.3375
2394.77657	1524.3375
2397.58125	1515.9375
2400.38416	1518.3375
2403.18529	1517.1375
2405.98466	1506.6375
2408.78226	1514.2375
2411.57809	1510.7375
2414.37216	1503.3375
2417.16446	1498.5375
2419.955	1498.8375
2422.74378	1488.9375
2425.5308	1496.4375
2428.31606	1497.7375
2431.09956	1489.8375
2433.88131	1487.8375
2436.6613	1487.8375
2439.43954	1482.4375
2442.21603	1469.8375
2444.99077	1471.9375
2447.76377	1476.0375
2450.53501	1472.7375
2453.30451	1470.4375
2456.07226	1473.4375
2458.83827	1464.9375
2461.60254	1467.0375
2464.36507	1456.4375
2467.12586	1457.0375
2469.88492	1462.3375
2472.64224	1459.3375
2475.39782	1440.2375
2478.15167	1456.4375
2480.90379	1444.7375
2483.65417	1452.1375
2486.40283	1442.5375
2489.14976	1447.0375
2491.89497	1435.3375
2494.63845	1445.2375
2497.3802	1435.4375
2500.12024	1432.3375
2502.85855	1432.4375
2505.59514	1436.2375
2508.33002	1423.9375
2511.06318	1428.8375
2513.79462	1423.9375
2516.52435	1430.3375
2519.25237	1423.3375
2521.97867	1421.2375
2524.70327	1423.3375
2527.42616	1418.0375
2530.14734	1412.4375
2532.86681	1423.3375
2535.58458	1403.2375
2538.30065	1401.2375
2541.01501	1402.8375
2543.72768	1402.0375
2546.43864	1397.5375
2549.14791	1403.5375
2551.85548	1395.8375
2554.56136	1400.1375
2557.26554	1391.4375
2559.96803	1388.6375
2562.66883	1388.8375
2565.36794	1382.4375
2568.06536	1381.3375
2570.7611	1375.2375
2573.45514	1374.0375
2576.14751	1374.4375
2578.83819	1370.9375
2581.52719	1373.0375
2584.21451	1368.6375
2586.90015	1371.2375
2589.58411	1367.5375
2592.2664	1362.3375
2594.94701	1356.3375
2597.62594	1356.7375
2600.30321	1340.8375
2602.9788	1350.4375
2605.65273	1353.1375
2608.32498	1351.3375
2610.99557	1341.1375
2613.66449	1342.8375
2616.33175	1346.6375
2618.99734	1340.5375
2621.66128	1344.5375
2624.32355	1337.4375
2626.98416	1346.6375
2629.64311	1336.4375
2632.30041	1334.9375
2634.95605	1339.5375
2637.61004	1344.6375
2640.26238	1342.1375
2642.91306	1337.9375
2645.56209	1341.4375
2648.20948	1332.1375
2650.85521	1339.2375
2653.4993	1339.2375
2656.14175	1348.5375
2658.78255	1344.8375
2661.42171	1339.6375
2664.05923	1344.3375
2666.6951	1344.6375
2669.32934	1347.7375
2671.96194	1334.9375
2674.59291	1339.3375
2677.22224	1349.8375
2679.84993	1347.5375
2682.476	1342.5375
2685.10043	1347.6375
2687.72324	1344.0375
2690.34441	1355.2375
2692.96396	1347.6375
2695.58188	1352.6375
2698.19818	1353.5375
2700.81285	1357.1375
2703.4259	1350.4375
2706.03733	1348.9375
2708.64714	1347.7375
2711.25533	1353.3375
2713.86191	1356.0375
2716.46687	1365.0375
2719.07021	1356.8375
2721.67194	1356.1375
2724.27206	1362.8375
2726.87057	1372.0375
2729.46747	1366.3375
2732.06276	1362.6375
2734.65644	1365.0375
2737.24852	1366.4375
2739.83899	1358.5375
2742.42786	1369.4375
2745.01513	1368.1375
2747.60079	1369.6375
2750.18486	1375.4375
2752.76733	1374.9375
2755.3482	1377.3375
2757.92747	1376.3375
2760.50515	1381.1375
2763.08123	1383.0375
2765.65573	1387.2375
2768.22863	1391.0375
2770.79994	1387.7375
2773.36967	1376.4375
2775.9378	1374.3375
2778.50435	1375.6375
2781.06932	1372.3375
2783.6327	1379.7375
2786.1945	1379.9375
2788.75471	1374.0375
2791.31335	1365.5375
2793.87041	1379.8375
2796.42589	1374.6375
2798.97979	1383.0375
2801.53212	1373.1375
2804.08288	1382.6375
2806.63206	1369.5375
2809.17967	1366.2375
2811.72571	1365.1375
2814.27018	1361.4375
2816.81308	1366.4375
2819.35442	1363.6375
2821.89419	1362.1375
2824.43239	1358.4375
2826.96904	1347.2375
2829.50412	1345.7375
2832.03763	1353.4375
2834.56959	1359.9375
2837.1	1355.0375
2839.62884	1361.7375
2842.15613	1371.9375
2844.68186	1378.5375
2847.20604	1387.7375
2849.72867	1404.5375
2852.24974	1415.1375
2854.76927	1434.2375
2857.28724	1445.8375
2859.80367	1469.1375
2862.31855	1495.8375
2864.83189	1522.7375
2867.34368	1547.2375
2869.85393	1583.3375
2872.36264	1602.7375
2874.8698	1644.3375
2877.37543	1680.0375
2879.87952	1692.2375
2882.38207	1730.2375
2884.88308	1745.6375
2887.38256	1767.7375
2889.88051	1784.3375
2892.37692	1817.7375
2894.8718	1842.4375
2897.36515	1855.3375
2899.85698	1863.4375
2902.34727	1877.7375
2904.83604	1882.1375
2907.32328	1908.9375
2909.809	1907.3375
2912.29319	1914.2375
2914.77587	1925.2375
2917.25702	1935.7375
2919.73665	1948.8375
2922.21476	1963.4375
2924.69136	1978.6375
2927.16644	1985.3375
2929.64	1986.0375
2932.11205	1984.1375
2934.58258	1982.8375
2937.05161	1964.8375
2939.51912	1958.2375
2941.98513	1938.4375
2944.44962	1903.1375
2946.91261	1872.2375
2949.37409	1848.9375
2951.83407	1807.6375
2954.29254	1777.4375
2956.74951	1756.2375
2959.20498	1729.5375
2961.65895	1696.7375
2964.11142	1689.9375
2966.56239	1661.7375
2969.01186	1648.3375
2971.45984	1633.7375
2973.90632	1615.6375
2976.35131	1579.5375
2978.7948	1565.3375
2981.23681	1543.3375
2983.67732	1525.4375
2986.11635	1501.6375
2988.55388	1480.6375
2990.98993	1456.2375
2993.4245	1456.7375
2995.85758	1433.7375
2998.28917	1439.1375
3000.71928	1422.3375
3003.14791	1414.2375
3005.57506	1401.1375
3008.00073	1396.5375
3010.42493	1396.8375
3012.84764	1394.9375
3015.26888	1377.8375
3017.68865	1380.9375
3020.10694	1373.3375
3022.52376	1374.0375
3024.9391	1358.0375
3027.35298	1364.0375
3029.76539	1350.9375
3032.17632	1351.8375
3034.5858	1345.7375
3036.9938	1344.9375
3039.40034	1341.1375
3041.80542	1344.3375
3044.20903	1336.1375
3046.61118	1349.3375
3049.01187	1347.8375
3051.4111	1346.9375
3053.80888	1347.6375
3056.20519	1336.6375
3058.60005	1344.1375
3060.99345	1346.3375
3063.3854	1342.9375
3065.7759	1344.7375
3068.16494	1347.8375
3070.55254	1351.3375
3072.93868	1359.7375
3075.32338	1357.4375
3077.70662	1363.1375
3080.08842	1363.4375
3082.46878	1366.6375
3084.84769	1374.5375
3087.22515	1382.1375
3089.60118	1382.4375
3091.97576	1388.7375
3094.3489	1394.1375
3096.72061	1407.8375
3099.09087	1410.1375
3101.4597	1417.0375
3103.82709	1420.4375
3106.19305	1416.2375
3108.55757	1428.5375
3110.92066	1422.8375
3113.28232	1428.1375
3115.64255	1445.2375
3118.00134	1443.8375
3120.35871	1454.4375
3122.71466	1461.0375
3125.06917	1457.5375
3127.42226	1474.9375
3129.77393	1481.8375
3132.12417	1487.2375
3134.47299	1492.5375
3136.82039	1506.3375
3139.16636	1505.3375
3141.51092	1516.0375
3143.85406	1519.6375
3146.19579	1540.9375
3148.53609	1548.9375
3150.87499	1560.0375
3153.21246	1569.1375
3155.54853	1575.8375
3157.88318	1569.5375
3160.21642	1602.7375
3162.54826	1596.3375
3164.87868	1615.9375
3167.2077	1614.9375
3169.5353	1619.9375
3171.86151	1635.5375
3174.18631	1648.7375
3176.5097	1643.7375
3178.83169	1651.0375
3181.15228	1653.0375
3183.47147	1655.8375
3185.78926	1674.5375
3188.10565	1675.6375
3190.42065	1688.9375
3192.73424	1681.9375
3195.04645	1703.5375
3197.35725	1702.2375
3199.66667	1704.3375
3201.97469	1719.9375
3204.28132	1724.7375
3206.58656	1730.6375
3208.8904	1739.5375
3211.19287	1741.4375
3213.49394	1744.7375
3215.79363	1756.2375
3218.09193	1760.4375
3220.38884	1761.3375
3222.68438	1768.4375
3224.97853	1768.8375
3227.2713	1767.6375
3229.56269	1768.4375
3231.8527	1779.4375
3234.14133	1772.9375
3236.42858	1774.6375
3238.71446	1781.9375
3240.99896	1779.0375
3243.28209	1781.9375
3245.56384	1774.3375
3247.84423	1798.8375
3250.12324	1793.0375
3252.40088	1795.7375
3254.67715	1801.2375
3256.95205	1796.9375
3259.22558	1796.8375
3261.49775	1809.5375
3263.76855	1802.5375
3266.03799	1791.1375
3268.30606	1801.1375
3270.57277	1798.9375
3272.83812	1798.5375
3275.10211	1785.8375
3277.36474	1783.7375
3279.62601	1781.6375
3281.88593	1782.0375
3284.14448	1784.9375
3286.40168	1774.9375
3288.65753	1779.9375
3290.91202	1779.5375
3293.16516	1777.5375
3295.41695	1757.2375
3297.66738	1751.0375
3299.91647	1737.5375
3302.16421	1733.8375
3304.4106	1728.5375
3306.65564	1729.9375
3308.89933	1709.2375
3311.14169	1699.6375
3313.38269	1694.6375
3315.62236	1695.4375
3317.86068	1673.2375
3320.09766	1665.3375
3322.3333	1633.9375
3324.5676	1651.8375
3326.80056	1624.3375
3329.03219	1620.9375
3331.26248	0.8375
3333.49143	-1.8625
3335.71905	0.3375
