Data from AgNP_FTO_APTES_CRN_1uM_R6G_10uM_NaF_0.1M_Addition_RamanShift__16__14-04-10-799.txt Node

Date: Wed Dec 15 14:04:10 GMT 2021
User: TCL
Spectrometer: QEP01345
Trigger mode: 4
Integration Time (sec): 7.000000E0
Scans to average: 10
Electric dark correction enabled: true
Nonlinearity correction enabled: false
Boxcar width: 0
XAxis mode: Raman Shifts
Number of Pixels in Spectrum: 1044
>>>>>Begin Spectral Data<<<<<
46.04893	1.1125
50.45542	-2.9875
54.85868	-1.6875
59.25871	-1.8875
63.6555	155.7125
68.04907	163.5125
72.43941	174.4125
76.82654	178.8125
81.21044	189.2125
85.59113	194.8125
89.96862	204.7125
94.34289	207.1125
98.71396	218.5125
103.08183	226.4125
107.4465	232.7125
111.80798	234.5125
116.16626	238.7125
120.52136	247.1125
124.87327	255.7125
129.222	267.6125
133.56755	279.7125
137.90993	306.1125
142.24913	327.2125
146.58517	360.8125
150.91804	414.6125
155.24774	494.0125
159.57429	599.2125
163.89768	752.0125
168.21792	990.0125
172.53501	1334.6125
176.84895	1864.2125
181.15975	2601.4125
185.46741	3622.5125
189.77193	4994.7125
194.07331	6671.1125
198.37157	8603.3125
202.6667	10601.4125
206.9587	12640.0125
211.24758	14578.2125
215.53334	16503.6125
219.81599	18542.3125
224.09553	20798.4125
228.37195	23249.5125
232.64527	26065.4125
236.91549	28995.9125
241.18261	31986.0125
245.44663	34792.2125
249.70755	37440.7125
253.96539	39692.7125
258.22014	41674.1125
262.4718	43223.0125
266.72039	44206.3125
270.96589	44745.6125
275.20832	44870.6125
279.44768	44633.5125
283.68397	44283.1125
287.91719	43908.2125
292.14735	43572.7125
296.37445	43401.1125
300.59849	43411.7125
304.81948	43450.5125
309.03742	43392.7125
313.25231	43172.5125
317.46415	42596.0125
321.67296	41757.5125
325.87872	41079.9125
330.08145	40771.2125
334.28114	40822.8125
338.47781	41178.8125
342.67145	41690.0125
346.86207	42321.0125
351.04966	43026.6125
355.23424	43820.4125
359.4158	44544.9125
363.59435	45122.3125
367.76989	45528.1125
371.94243	45744.1125
376.11196	45926.8125
380.27849	45985.8125
384.44203	46227.2125
388.60257	46490.9125
392.76012	46919.1125
396.91468	47565.1125
401.06626	48350.4125
405.21485	48904.1125
409.36047	48976.6125
413.50311	48566.0125
417.64277	48339.0125
421.77947	48369.4125
425.9132	48676.0125
430.04396	48966.5125
434.17176	49197.6125
438.2966	49401.1125
442.41849	49918.1125
446.53742	50691.8125
450.6534	51765.5125
454.76644	52595.9125
458.87653	52934.6125
462.98368	52912.0125
467.08789	52585.6125
471.18916	51978.7125
475.2875	51361.3125
479.38291	50916.3125
483.4754	50568.4125
487.56496	50264.7125
491.6516	49858.5125
495.73531	49517.9125
499.81612	49369.2125
503.89401	49677.9125
507.96899	50031.5125
512.04106	50187.3125
516.11023	50080.9125
520.1765	49759.4125
524.23987	49395.6125
528.30034	48957.1125
532.35792	48441.2125
536.41261	47977.1125
540.46441	47579.0125
544.51333	47642.6125
548.55936	48145.4125
552.60252	48897.0125
556.64279	49577.4125
560.6802	50087.9125
564.71473	50622.4125
568.7464	51373.5125
572.7752	52516.4125
576.80114	53885.3125
580.82422	55344.8125
584.84444	56749.3125
588.86181	58087.6125
592.87633	59060.6125
596.888	59001.1125
600.89682	58071.2125
604.9028	58678.0125
608.90594	61763.6125
612.90624	64465.6125
616.90371	60873.9125
620.89834	53707.5125
624.89015	50623.8125
628.87913	50271.0125
632.86528	50549.5125
636.84862	50539.5125
640.82913	49839.7125
644.80683	48756.5125
648.78172	48030.0125
652.75379	47947.7125
656.72306	48429.4125
660.68952	49129.1125
664.65319	48928.8125
668.61405	48393.1125
672.57211	48215.5125
676.52738	48271.6125
680.47986	48233.8125
684.42955	48039.2125
688.37646	47916.9125
692.32058	48140.4125
696.26192	48676.9125
700.20048	49197.9125
704.13626	49567.8125
708.06928	49679.4125
711.99952	49573.9125
715.927	49461.7125
719.85171	49475.0125
723.77365	49294.9125
727.69284	48744.7125
731.60928	48227.6125
735.52295	47957.2125
739.43388	47892.4125
743.34206	47980.5125
747.24749	48291.7125
751.15017	48711.6125
755.05012	49395.9125
758.94733	50602.3125
762.8418	52541.3125
766.73354	55315.0125
770.62254	57831.6125
774.50882	58172.2125
778.39237	56052.3125
782.27321	53082.9125
786.15132	50677.6125
790.02671	49207.2125
793.89938	48403.9125
797.76935	48012.8125
801.6366	47862.4125
805.50115	47744.2125
809.36299	47561.2125
813.22213	47317.0125
817.07857	47244.6125
820.93231	47124.6125
824.78336	47090.3125
828.63172	47050.5125
832.47738	46925.7125
836.32036	46963.0125
840.16066	47050.4125
843.99827	47083.0125
847.8332	47156.5125
851.66546	47134.9125
855.49504	47199.3125
859.32195	47225.5125
863.1462	47100.1125
866.96777	47019.4125
870.78668	47010.3125
874.60293	47023.7125
878.41652	47084.1125
882.22745	47202.9125
886.03573	47270.2125
889.84136	47269.2125
893.64433	47223.5125
897.44466	47046.8125
901.24235	47019.7125
905.0374	46956.7125
908.8298	46990.4125
912.61957	47114.8125
916.40671	47421.7125
920.19121	47988.5125
923.97308	48430.4125
927.75233	48481.0125
931.52895	48111.7125
935.30295	47507.9125
939.07433	46866.5125
942.84309	46317.0125
946.60924	46099.0125
950.37278	46015.9125
954.13371	45935.7125
957.89203	45885.9125
961.64774	45792.5125
965.40086	45713.2125
969.15137	45683.2125
972.89929	45563.4125
976.64461	45483.0125
980.38733	45446.7125
984.12747	45590.4125
987.86502	45884.9125
991.59999	46192.5125
995.33237	46701.9125
999.06217	47406.5125
1002.78939	48297.8125
1006.51404	49220.0125
1010.23611	50009.7125
1013.95561	50386.8125
1017.67255	50336.1125
1021.38692	49754.4125
1025.09872	49109.7125
1028.80796	48760.2125
1032.51465	49047.0125
1036.21877	49386.1125
1039.92035	49597.8125
1043.61937	49554.4125
1047.31584	49290.6125
1051.00976	49060.4125
1054.70114	49027.5125
1058.38998	49316.2125
1062.07627	49846.7125
1065.76003	50604.9125
1069.44126	51436.0125
1073.11995	52491.7125
1076.79611	53299.5125
1080.46974	53513.1125
1084.14085	53538.4125
1087.80943	53646.3125
1091.47549	53781.5125
1095.13903	53770.0125
1098.80005	53267.7125
1102.45857	52175.6125
1106.11456	51253.9125
1109.76805	50767.8125
1113.41903	50582.1125
1117.06751	50701.0125
1120.71348	51000.0125
1124.35696	51244.7125
1127.99793	51649.4125
1131.63641	52043.1125
1135.2724	51979.8125
1138.90589	51896.3125
1142.5369	51889.4125
1146.16542	52010.9125
1149.79145	52284.1125
1153.415	52622.7125
1157.03607	53184.3125
1160.65467	54220.1125
1164.27079	55983.8125
1167.88443	58235.2125
1171.49561	60709.9125
1175.10432	63727.9125
1178.71056	67501.7125
1182.31434	71121.2125
1185.91565	73229.9125
1189.51451	73603.6125
1193.11091	72521.4125
1196.70485	70407.8125
1200.29634	68138.1125
1203.88538	66373.6125
1207.47197	65366.3125
1211.05612	64717.7125
1214.63782	64056.8125
1218.21708	63104.8125
1221.79391	61954.2125
1225.36829	61028.1125
1228.94024	60349.5125
1232.50976	59887.9125
1236.07685	59517.3125
1239.6415	59325.6125
1243.20374	59355.1125
1246.76355	59632.1125
1250.32093	60404.8125
1253.8759	61460.5125
1257.42845	62933.4125
1260.97859	64413.3125
1264.52631	65881.9125
1268.07163	67389.2125
1271.61453	68858.7125
1275.15503	70396.1125
1278.69312	72071.4125
1282.22882	73600.3125
1285.76211	75324.8125
1289.29301	77202.1125
1292.82151	79295.8125
1296.34761	81994.1125
1299.87133	85259.4125
1303.39266	88856.6125
1306.9116	92269.4125
1310.42815	95292.9125
1313.94233	97161.0125
1317.45412	97256.0125
1320.96354	96615.1125
1324.47058	95963.4125
1327.97525	95683.2125
1331.47754	95731.4125
1334.97747	96099.3125
1338.47502	96497.0125
1341.97022	96471.5125
1345.46305	95812.3125
1348.95352	94603.1125
1352.44163	93473.2125
1355.92738	93274.3125
1359.41078	94753.9125
1362.89183	96245.2125
1366.37053	94725.0125
1369.84688	89269.0125
1373.32088	82406.4125
1376.79254	77192.5125
1380.26186	74935.0125
1383.72883	74514.3125
1387.19347	74168.0125
1390.65578	73395.8125
1394.11575	72928.9125
1397.57339	73159.8125
1401.0287	74070.8125
1404.48168	75065.3125
1407.93234	75552.1125
1411.38068	74905.7125
1414.82669	73374.6125
1418.27039	71033.1125
1421.71177	68649.3125
1425.15083	66694.3125
1428.58758	65670.0125
1432.02203	66068.5125
1435.45416	67307.4125
1438.88399	68879.5125
1442.31151	70237.2125
1445.73673	71018.7125
1449.15965	71510.9125
1452.58027	71776.0125
1455.9986	71883.4125
1459.41463	72322.0125
1462.82837	73273.1125
1466.23982	74462.8125
1469.64898	75467.6125
1473.05586	76075.4125
1476.46045	76183.8125
1479.86276	75950.8125
1483.26279	75543.5125
1486.66054	75338.4125
1490.05602	75466.1125
1493.44922	76045.3125
1496.84016	76863.4125
1500.22882	78025.3125
1503.61521	79595.2125
1506.99934	81393.8125
1510.38121	82872.8125
1513.76081	83286.9125
1517.13816	82240.5125
1520.51324	80416.7125
1523.88607	78852.2125
1527.25665	78026.2125
1530.62498	77608.1125
1533.99105	77085.8125
1537.35488	76221.0125
1540.71647	74938.3125
1544.07581	73576.7125
1547.4329	72159.8125
1550.78776	70984.6125
1554.14038	70098.6125
1557.49077	69716.1125
1560.83892	69547.5125
1564.18484	69457.7125
1567.52853	69534.9125
1570.86999	70009.1125
1574.20922	71126.0125
1577.54624	72403.0125
1580.88103	73134.6125
1584.2136	73912.5125
1587.54395	75440.3125
1590.87208	77865.5125
1594.19801	81067.9125
1597.52172	84247.0125
1600.84321	84743.1125
1604.16251	81550.5125
1607.47959	76303.7125
1610.79447	70980.6125
1614.10715	66015.1125
1617.41763	61918.0125
1620.7259	58998.0125
1624.03199	57512.2125
1627.33587	57446.8125
1630.63757	58666.6125
1633.93707	61700.0125
1637.23439	66619.7125
1640.52951	73539.6125
1643.82246	81151.1125
1647.11321	86639.2125
1650.40179	86942.5125
1653.68819	81472.6125
1656.97241	72584.0125
1660.25446	63839.5125
1663.53433	57238.5125
1666.81203	52898.7125
1670.08756	50128.8125
1673.36092	48329.0125
1676.63211	47186.5125
1679.90115	46302.0125
1683.16801	45643.3125
1686.43272	45147.1125
1689.69527	44818.5125
1692.95567	44587.6125
1696.2139	44374.7125
1699.46999	44222.1125
1702.72392	44085.0125
1705.97571	43988.7125
1709.22535	43983.6125
1712.47284	43888.3125
1715.71819	43763.9125
1718.96139	43641.6125
1722.20246	43575.0125
1725.44139	43408.9125
1728.67818	43209.1125
1731.91284	42981.9125
1735.14537	42780.1125
1738.37576	42617.3125
1741.60403	42467.5125
1744.83017	42324.1125
1748.05418	42227.6125
1751.27607	42103.0125
1754.49584	42050.9125
1757.71349	41992.6125
1760.92903	41976.2125
1764.14244	41942.6125
1767.35375	41973.6125
1770.56294	41891.3125
1773.77002	41815.6125
1776.97499	41787.4125
1780.17785	41734.2125
1783.37861	41715.7125
1786.57727	41641.9125
1789.77382	41521.9125
1792.96828	41414.8125
1796.16064	41391.4125
1799.3509	41337.6125
1802.53907	41307.5125
1805.72514	41128.9125
1808.90913	41023.6125
1812.09102	40950.7125
1815.27083	40973.0125
1818.44856	40811.6125
1821.6242	40796.9125
1824.79776	40842.8125
1827.96924	40766.7125
1831.13864	40691.9125
1834.30597	40773.2125
1837.47122	40788.0125
1840.6344	40807.8125
1843.7955	40800.4125
1846.95454	40758.8125
1850.11151	40724.0125
1853.26642	40738.5125
1856.41926	40708.1125
1859.57004	40718.4125
1862.71876	40681.1125
1865.86542	40697.0125
1869.01003	40657.5125
1872.15258	40635.0125
1875.29308	40555.4125
1878.43152	40481.3125
1881.56792	40471.8125
1884.70227	40393.8125
1887.83457	40346.0125
1890.96482	40367.5125
1894.09304	40208.8125
1897.21921	40238.4125
1900.34335	40183.4125
1903.46544	40105.0125
1906.58551	40021.2125
1909.70353	40083.3125
1912.81953	39990.6125
1915.93349	39901.5125
1919.04543	39836.6125
1922.15534	39746.2125
1925.26322	39646.6125
1928.36908	39566.4125
1931.47292	39470.7125
1934.57473	39407.3125
1937.67453	39285.5125
1940.77232	39149.4125
1943.86808	39012.0125
1946.96184	38904.1125
1950.05358	38736.3125
1953.14331	38625.1125
1956.23103	38549.1125
1959.31675	38482.9125
1962.40046	38360.6125
1965.48217	38240.3125
1968.56188	38100.5125
1971.63959	37971.9125
1974.7153	37851.5125
1977.78901	37721.7125
1980.86073	37619.8125
1983.93046	37558.7125
1986.99819	37381.6125
1990.06394	37281.2125
1993.1277	37222.6125
1996.18947	37112.1125
1999.24925	36997.3125
2002.30706	36862.3125
2005.36288	36769.3125
2008.41672	36678.8125
2011.46859	36489.4125
2014.51848	36520.8125
2017.56639	36389.2125
2020.61233	36307.7125
2023.6563	36175.2125
2026.6983	36137.9125
2029.73833	36075.7125
2032.7764	35978.3125
2035.8125	35888.8125
2038.84664	35866.7125
2041.87881	35794.5125
2044.90903	35674.1125
2047.93729	35664.5125
2050.96359	35599.8125
2053.98794	35468.2125
2057.01034	35450.8125
2060.03078	35425.0125
2063.04927	35398.8125
2066.06582	35424.7125
2069.08042	35337.2125
2072.09307	35314.2125
2075.10378	35326.5125
2078.11255	35229.2125
2081.11938	35270.9125
2084.12426	35221.0125
2087.12722	35187.0125
2090.12824	35195.1125
2093.12732	35180.7125
2096.12447	35221.6125
2099.11969	35179.6125
2102.11299	35181.8125
2105.10435	35237.0125
2108.09379	35238.9125
2111.08131	35205.9125
2114.0669	35253.9125
2117.05057	35248.3125
2120.03233	35291.2125
2123.01216	35347.6125
2125.99008	35316.8125
2128.96609	35333.0125
2131.94018	35355.1125
2134.91236	35403.4125
2137.88263	35394.9125
2140.851	35362.4125
2143.81746	35465.4125
2146.78201	35403.4125
2149.74466	35419.1125
2152.7054	35478.2125
2155.66425	35443.2125
2158.6212	35427.5125
2161.57625	35428.8125
2164.52941	35423.9125
2167.48067	35369.7125
2170.43004	35358.2125
2173.37752	35332.1125
2176.32311	35315.9125
2179.26681	35303.3125
2182.20863	35341.0125
2185.14856	35360.4125
2188.08661	35246.5125
2191.02278	35297.7125
2193.95707	35274.1125
2196.88948	35262.7125
2199.82001	35239.4125
2202.74867	35182.4125
2205.67545	35118.9125
2208.60037	35087.1125
2211.52341	35053.1125
2214.44458	35059.7125
2217.36388	34934.1125
2220.28132	34903.8125
2223.1969	34811.0125
2226.11061	34746.1125
2229.02246	34730.2125
2231.93245	34699.4125
2234.84058	34595.1125
2237.74686	34479.8125
2240.65128	34482.9125
2243.55385	34390.4125
2246.45456	34366.1125
2249.35343	34291.8125
2252.25044	34287.4125
2255.14561	34174.6125
2258.03893	34176.9125
2260.93041	34072.6125
2263.82004	34006.8125
2266.70783	33897.8125
2269.59378	33811.0125
2272.4779	33765.7125
2275.36017	33676.3125
2278.24061	33573.8125
2281.11922	33513.8125
2283.996	33490.2125
2286.87094	33403.4125
2289.74405	33323.8125
2292.61534	33283.6125
2295.4848	33259.4125
2298.35243	33298.1125
2301.21824	33297.1125
2304.08223	33257.3125
2306.94439	33228.0125
2309.80474	33186.9125
2312.66327	33207.4125
2315.51999	33118.9125
2318.37489	33139.4125
2321.22797	33088.6125
2324.07925	33077.9125
2326.92871	33061.0125
2329.77637	33050.0125
2332.62222	32986.2125
2335.46626	32949.2125
2338.3085	32908.3125
2341.14893	32883.8125
2343.98756	32896.8125
2346.8244	32856.7125
2349.65943	32806.9125
2352.49267	32810.0125
2355.32411	32830.6125
2358.15376	32808.4125
2360.98161	32750.1125
2363.80768	32723.6125
2366.63195	32721.3125
2369.45444	32640.4125
2372.27514	32589.8125
2375.09405	32543.6125
2377.91118	32525.0125
2380.72652	32367.2125
2383.54009	32251.3125
2386.35187	32292.2125
2389.16188	32207.9125
2391.97011	32122.9125
2394.77657	32135.2125
2397.58125	32050.2125
2400.38416	31996.5125
2403.18529	31935.8125
2405.98466	31936.2125
2408.78226	31874.8125
2411.57809	31794.6125
2414.37216	31802.4125
2417.16446	31794.4125
2419.955	31697.7125
2422.74378	31670.0125
2425.5308	31642.5125
2428.31606	31681.9125
2431.09956	31614.5125
2433.88131	31536.8125
2436.6613	31537.6125
2439.43954	31544.9125
2442.21603	31484.1125
2444.99077	31477.0125
2447.76377	31477.5125
2450.53501	31451.9125
2453.30451	31459.5125
2456.07226	31412.7125
2458.83827	31393.9125
2461.60254	31367.2125
2464.36507	31355.1125
2467.12586	31346.1125
2469.88492	31291.8125
2472.64224	31313.6125
2475.39782	31267.8125
2478.15167	31322.0125
2480.90379	31284.3125
2483.65417	31286.2125
2486.40283	31285.0125
2489.14976	31223.4125
2491.89497	31194.5125
2494.63845	31175.5125
2497.3802	31204.6125
2500.12024	31211.1125
2502.85855	31206.5125
2505.59514	31141.1125
2508.33002	31175.9125
2511.06318	31064.4125
2513.79462	31040.0125
2516.52435	31051.1125
2519.25237	31059.5125
2521.97867	31018.4125
2524.70327	30966.4125
2527.42616	30899.4125
2530.14734	30945.6125
2532.86681	30879.9125
2535.58458	30806.3125
2538.30065	30778.0125
2541.01501	30793.0125
2543.72768	30693.5125
2546.43864	30700.4125
2549.14791	30646.2125
2551.85548	30626.0125
2554.56136	30641.9125
2557.26554	30557.5125
2559.96803	30564.7125
2562.66883	30497.3125
2565.36794	30486.1125
2568.06536	30420.6125
2570.7611	30343.3125
2573.45514	30372.5125
2576.14751	30323.7125
2578.83819	30259.3125
2581.52719	30275.6125
2584.21451	30216.7125
2586.90015	30178.6125
2589.58411	30140.8125
2592.2664	30150.7125
2594.94701	30054.8125
2597.62594	30067.6125
2600.30321	30021.4125
2602.9788	29979.5125
2605.65273	29910.6125
2608.32498	29917.5125
2610.99557	29924.4125
2613.66449	29937.1125
2616.33175	29896.0125
2618.99734	29862.3125
2621.66128	29879.6125
2624.32355	29927.1125
2626.98416	29835.7125
2629.64311	29756.2125
2632.30041	29738.8125
2634.95605	29714.5125
2637.61004	29670.1125
2640.26238	29609.9125
2642.91306	29647.0125
2645.56209	29621.5125
2648.20948	29609.4125
2650.85521	29596.6125
2653.4993	29617.9125
2656.14175	29573.8125
2658.78255	29632.9125
2661.42171	29582.4125
2664.05923	29596.9125
2666.6951	29565.4125
2669.32934	29629.1125
2671.96194	29631.0125
2674.59291	29698.1125
2677.22224	29646.3125
2679.84993	29636.7125
2682.476	29602.2125
2685.10043	29617.6125
2687.72324	29589.7125
2690.34441	29583.1125
2692.96396	29587.0125
2695.58188	29568.0125
2698.19818	29516.6125
2700.81285	29584.3125
2703.4259	29567.4125
2706.03733	29581.0125
2708.64714	29584.2125
2711.25533	29587.0125
2713.86191	29571.8125
2716.46687	29592.2125
2719.07021	29580.3125
2721.67194	29605.9125
2724.27206	29533.4125
2726.87057	29560.9125
2729.46747	29570.9125
2732.06276	29608.2125
2734.65644	29552.9125
2737.24852	29583.6125
2739.83899	29571.5125
2742.42786	29612.8125
2745.01513	29558.4125
2747.60079	29550.5125
2750.18486	29551.9125
2752.76733	29532.0125
2755.3482	29480.2125
2757.92747	29411.1125
2760.50515	29376.2125
2763.08123	29373.2125
2765.65573	29277.4125
2768.22863	29330.2125
2770.79994	29304.6125
2773.36967	29303.8125
2775.9378	29283.8125
2778.50435	29237.4125
2781.06932	29149.0125
2783.6327	29165.4125
2786.1945	29174.2125
2788.75471	29083.5125
2791.31335	29058.5125
2793.87041	29023.1125
2796.42589	28896.8125
2798.97979	28875.8125
2801.53212	28829.4125
2804.08288	28785.6125
2806.63206	28719.7125
2809.17967	28641.2125
2811.72571	28641.7125
2814.27018	28580.8125
2816.81308	28563.6125
2819.35442	28498.7125
2821.89419	28423.8125
2824.43239	28404.7125
2826.96904	28344.5125
2829.50412	28324.3125
2832.03763	28224.0125
2834.56959	28217.0125
2837.1	28162.6125
2839.62884	28159.4125
2842.15613	28075.8125
2844.68186	28108.2125
2847.20604	28085.2125
2849.72867	28023.5125
2852.24974	28009.6125
2854.76927	27996.8125
2857.28724	27928.5125
2859.80367	27906.4125
2862.31855	27886.8125
2864.83189	27801.5125
2867.34368	27805.3125
2869.85393	27799.1125
2872.36264	27765.1125
2874.8698	27689.9125
2877.37543	27758.7125
2879.87952	27715.9125
2882.38207	27664.0125
2884.88308	27702.1125
2887.38256	27723.6125
2889.88051	27639.5125
2892.37692	27675.1125
2894.8718	27673.2125
2897.36515	27703.0125
2899.85698	27726.9125
2902.34727	27747.3125
2904.83604	27685.9125
2907.32328	27723.9125
2909.809	27724.0125
2912.29319	27750.6125
2914.77587	27701.3125
2917.25702	27707.8125
2919.73665	27691.5125
2922.21476	27701.4125
2924.69136	27649.6125
2927.16644	27676.6125
2929.64	27638.0125
2932.11205	27597.9125
2934.58258	27534.7125
2937.05161	27538.3125
2939.51912	27515.6125
2941.98513	27535.5125
2944.44962	27461.9125
2946.91261	27343.6125
2949.37409	27412.1125
2951.83407	27370.5125
2954.29254	27378.9125
2956.74951	27305.1125
2959.20498	27303.6125
2961.65895	27244.6125
2964.11142	27263.1125
2966.56239	27185.3125
2969.01186	27200.5125
2971.45984	27081.8125
2973.90632	27051.9125
2976.35131	26977.6125
2978.7948	26949.8125
2981.23681	26868.4125
2983.67732	26834.2125
2986.11635	26717.7125
2988.55388	26698.8125
2990.98993	26635.1125
2993.4245	26557.1125
2995.85758	26480.8125
2998.28917	26402.9125
3000.71928	26429.2125
3003.14791	26338.4125
3005.57506	26316.8125
3008.00073	26231.1125
3010.42493	26208.5125
3012.84764	26182.6125
3015.26888	26161.2125
3017.68865	26105.4125
3020.10694	26039.2125
3022.52376	25932.3125
3024.9391	25956.6125
3027.35298	25849.1125
3029.76539	25836.6125
3032.17632	25835.3125
3034.5858	25752.3125
3036.9938	25706.5125
3039.40034	25682.8125
3041.80542	25641.6125
3044.20903	25591.8125
3046.61118	25561.1125
3049.01187	25491.5125
3051.4111	25449.5125
3053.80888	25388.5125
3056.20519	25344.3125
3058.60005	25297.1125
3060.99345	25250.5125
3063.3854	25154.3125
3065.7759	25119.9125
3068.16494	25075.8125
3070.55254	24946.1125
3072.93868	24892.2125
3075.32338	24800.9125
3077.70662	24763.6125
3080.08842	24668.9125
3082.46878	24677.8125
3084.84769	24608.6125
3087.22515	24584.5125
3089.60118	24589.6125
3091.97576	24550.7125
3094.3489	24543.1125
3096.72061	24540.6125
3099.09087	24483.2125
3101.4597	24440.3125
3103.82709	24455.1125
3106.19305	24406.5125
3108.55757	24373.9125
3110.92066	24278.1125
3113.28232	24251.4125
3115.64255	24136.7125
3118.00134	24104.1125
3120.35871	24049.5125
3122.71466	23991.6125
3125.06917	23938.5125
3127.42226	23889.6125
3129.77393	23881.0125
3132.12417	23870.1125
3134.47299	23787.8125
3136.82039	23786.1125
3139.16636	23792.0125
3141.51092	23770.4125
3143.85406	23778.1125
3146.19579	23769.0125
3148.53609	23749.2125
3150.87499	23731.6125
3153.21246	23713.9125
3155.54853	23703.1125
3157.88318	23682.7125
3160.21642	23638.4125
3162.54826	23625.3125
3164.87868	23607.9125
3167.2077	23526.1125
3169.5353	23598.6125
3171.86151	23570.2125
3174.18631	23523.5125
3176.5097	23473.7125
3178.83169	23419.4125
3181.15228	23416.6125
3183.47147	23332.1125
3185.78926	23357.1125
3188.10565	23314.8125
3190.42065	23262.8125
3192.73424	23292.4125
3195.04645	23246.6125
3197.35725	23268.6125
3199.66667	23209.6125
3201.97469	23204.3125
3204.28132	23187.2125
3206.58656	23162.2125
3208.8904	23141.2125
3211.19287	23138.2125
3213.49394	23097.3125
3215.79363	23098.9125
3218.09193	23101.1125
3220.38884	23086.5125
3222.68438	23085.7125
3224.97853	22985.6125
3227.2713	23015.8125
3229.56269	22936.8125
3231.8527	22974.9125
3234.14133	22920.2125
3236.42858	22883.5125
3238.71446	22852.3125
3240.99896	22785.9125
3243.28209	22777.3125
3245.56384	22752.5125
3247.84423	22728.0125
3250.12324	22695.5125
3252.40088	22656.7125
3254.67715	22612.0125
3256.95205	22582.0125
3259.22558	22578.0125
3261.49775	22539.4125
3263.76855	22524.1125
3266.03799	22430.6125
3268.30606	22436.4125
3270.57277	22382.8125
3272.83812	22322.4125
3275.10211	22279.9125
3277.36474	22244.8125
3279.62601	22269.6125
3281.88593	22222.8125
3284.14448	22236.0125
3286.40168	22196.3125
3288.65753	22177.4125
3290.91202	22102.9125
3293.16516	22027.0125
3295.41695	22017.6125
3297.66738	21850.6125
3299.91647	21791.5125
3302.16421	21634.6125
3304.4106	21561.9125
3306.65564	21437.3125
3308.89933	21299.7125
3311.14169	21121.8125
3313.38269	20981.3125
3315.62236	20876.6125
3317.86068	20665.6125
3320.09766	20437.2125
3322.3333	20269.4125
3324.5676	20254.3125
3326.80056	19880.4125
3329.03219	19803.8125
3331.26248	4.5125
3333.49143	0.5125
3335.71905	-0.1875
