Data from AgNP_FTO_APTES_CRN_0uM_R6G_10uM_NaF_0.1M_Addition_RamanShift__63__12-43-12-976.txt Node

Date: Wed Dec 15 12:43:12 GMT 2021
User: TCL
Spectrometer: QEP01345
Trigger mode: 4
Integration Time (sec): 7.000000E0
Scans to average: 10
Electric dark correction enabled: true
Nonlinearity correction enabled: false
Boxcar width: 0
XAxis mode: Raman Shifts
Number of Pixels in Spectrum: 1044
>>>>>Begin Spectral Data<<<<<
46.04893	0.7
50.45542	-2.4
54.85868	-1.6
59.25871	-1.1
63.6555	155.5
68.04907	166
72.43941	177
76.82654	180.9
81.21044	187.8
85.59113	192.5
89.96862	207.1
94.34289	210.3
98.71396	213.7
103.08183	226
107.4465	229.7
111.80798	235.1
116.16626	239.1
120.52136	248.2
124.87327	256.7
129.222	269.1
133.56755	283.5
137.90993	303.3
142.24913	330.4
146.58517	363.4
150.91804	416.4
155.24774	494.1
159.57429	608.7
163.89768	772.9
168.21792	1012.6
172.53501	1370.1
176.84895	1899
181.15975	2660.9
185.46741	3719.3
189.77193	5133.6
194.07331	6848.1
198.37157	8793
202.6667	10861.4
206.9587	12885.2
211.24758	14888
215.53334	16937.2
219.81599	19099.2
224.09553	21486.1
228.37195	24197.1
232.64527	27080.9
236.91549	30206.8
241.18261	33243.4
245.44663	35954.5
249.70755	38363.3
253.96539	40403.5
258.22014	42184.9
262.4718	43764.4
266.72039	44898.4
270.96589	45475.9
275.20832	45595.7
279.44768	45266
283.68397	44792.3
287.91719	44420.5
292.14735	44071.5
296.37445	44075.8
300.59849	44414
304.81948	44873.6
309.03742	45174.4
313.25231	44959.8
317.46415	43980.8
321.67296	42502.6
325.87872	41233.5
330.08145	40713.2
334.28114	40813.1
338.47781	41240.7
342.67145	41886.9
346.86207	42820.5
351.04966	44026.9
355.23424	45437.5
359.4158	46638.1
363.59435	47419.4
367.76989	47804
371.94243	47974.7
376.11196	48063.8
380.27849	48172
384.44203	48311.9
388.60257	48465
392.76012	48723.3
396.91468	49310.1
401.06626	50282.7
405.21485	51162.2
409.36047	51093.5
413.50311	50171.9
417.64277	49364.8
421.77947	49105.2
425.9132	49201.2
430.04396	49526.4
434.17176	49833.4
438.2966	50364.5
442.41849	51355.3
446.53742	52800.2
450.6534	54458.2
454.76644	55704.9
458.87653	56273.2
462.98368	55980.1
467.08789	55010.7
471.18916	53765.8
475.2875	52538.2
479.38291	51676.7
483.4754	51127.2
487.56496	50542.9
491.6516	49969.2
495.73531	49544.7
499.81612	49413.4
503.89401	49662.5
507.96899	49884.6
512.04106	50039.1
516.11023	50030.6
520.1765	50138.6
524.23987	50058.2
528.30034	49705.9
532.35792	49078.6
536.41261	48269.4
540.46441	47471.8
544.51333	47293.4
548.55936	47609.4
552.60252	48515.6
556.64279	49297.4
560.6802	49793.8
564.71473	50071.3
568.7464	50994.8
572.7752	52005.9
576.80114	52540.9
580.82422	53014.7
584.84444	53769.6
588.86181	54726.8
592.87633	55892.1
596.888	57204.5
600.89682	58234.5
604.9028	61221.8
608.90594	68020.3
612.90624	74774.4
616.90371	70420.9
620.89834	57954.2
624.89015	52621.4
628.87913	52011.3
632.86528	51705.2
636.84862	50934.3
640.82913	49698.5
644.80683	48020.3
648.78172	46921.5
652.75379	46903.1
656.72306	47865
660.68952	49040
664.65319	48906.9
668.61405	47818.8
672.57211	47334.2
676.52738	47259.1
680.47986	47169.1
684.42955	46969.7
688.37646	46920.5
692.32058	47191.1
696.26192	47672.3
700.20048	48385.3
704.13626	48662.2
708.06928	48364
711.99952	47923.6
715.927	47954.1
719.85171	48022.7
723.77365	47791.9
727.69284	47111.9
731.60928	46592.2
735.52295	46472.2
739.43388	46611.7
743.34206	46871.9
747.24749	47236.8
751.15017	47759.4
755.05012	48612.5
758.94733	50109.4
762.8418	52952.8
766.73354	57490.8
770.62254	61947.1
774.50882	63305
778.39237	60344.4
782.27321	55372.8
786.15132	51207.6
790.02671	48806.5
793.89938	47736
797.76935	47373.7
801.6366	47273.8
805.50115	47036.7
809.36299	46685.3
813.22213	46414.7
817.07857	46288.3
820.93231	46223.8
824.78336	46209.1
828.63172	46275.4
832.47738	46473.8
836.32036	46679.3
840.16066	47068.3
843.99827	47376.9
847.8332	47171.8
851.66546	46764.2
855.49504	46531.2
859.32195	46430.9
863.1462	46183
866.96777	45863.3
870.78668	45708.9
874.60293	45652.2
878.41652	45678.9
882.22745	45853.7
886.03573	46038
889.84136	45985.3
893.64433	45709.6
897.44466	45500.4
901.24235	45433.1
905.0374	45357.6
908.8298	45385.5
912.61957	45458.8
916.40671	45939.7
920.19121	46687.1
923.97308	47548.2
927.75233	48121
931.52895	48127.9
935.30295	47535.7
939.07433	46502.5
942.84309	45657.3
946.60924	45458.3
950.37278	45251.4
954.13371	44861.2
957.89203	44506
961.64774	44218.5
965.40086	44107
969.15137	43916.7
972.89929	43777.7
976.64461	43775.8
980.38733	43971.2
984.12747	44284.7
987.86502	44835.6
991.59999	45737.9
995.33237	47048.4
999.06217	49204.3
1002.78939	51505.2
1006.51404	52952.8
1010.23611	53546
1013.95561	53945.9
1017.67255	53722.3
1021.38692	52983.1
1025.09872	52660.1
1028.80796	53956
1032.51465	56761.9
1036.21877	59286.6
1039.92035	59502.1
1043.61937	57954.4
1047.31584	55307.8
1051.00976	52549.5
1054.70114	50946.1
1058.38998	50476.5
1062.07627	50575.8
1065.76003	50894.7
1069.44126	51599.6
1073.11995	52734.3
1076.79611	53830.9
1080.46974	54364.8
1084.14085	54458
1087.80943	54500.3
1091.47549	54220.2
1095.13903	53353
1098.80005	52088.2
1102.45857	50932.5
1106.11456	50277.9
1109.76805	50292.8
1113.41903	50618.6
1117.06751	51051.1
1120.71348	51652.8
1124.35696	52276.2
1127.99793	52852.4
1131.63641	53093.3
1135.2724	52643.2
1138.90589	52010.7
1142.5369	51507.4
1146.16542	51151.8
1149.79145	51052.1
1153.415	51237.5
1157.03607	51794.5
1160.65467	52883.3
1164.27079	54704.1
1167.88443	57574.7
1171.49561	61491.1
1175.10432	66971
1178.71056	74032.5
1182.31434	80356.2
1185.91565	83568.1
1189.51451	82950.5
1193.11091	79277.2
1196.70485	74573.8
1200.29634	70506.6
1203.88538	67558.5
1207.47197	65275.3
1211.05612	63567.6
1214.63782	62650
1218.21708	62610.1
1221.79391	63072
1225.36829	63471.8
1228.94024	63116.8
1232.50976	61933.8
1236.07685	60903.7
1239.6415	60380.2
1243.20374	60157.2
1246.76355	60574.8
1250.32093	61470.8
1253.8759	63130
1257.42845	65107.5
1260.97859	67072.9
1264.52631	68672.6
1268.07163	70478.7
1271.61453	72636.1
1275.15503	75182.7
1278.69312	77853.5
1282.22882	80148.3
1285.76211	81947.4
1289.29301	83724
1292.82151	85727.3
1296.34761	88545.1
1299.87133	92826.4
1303.39266	98819.1
1306.9116	106431.2
1310.42815	114253.1
1313.94233	119307.7
1317.45412	119232.4
1320.96354	115424.5
1324.47058	110501.3
1327.97525	106175.4
1331.47754	103175.2
1334.97747	101955.4
1338.47502	101845.5
1341.97022	101709.9
1345.46305	100819.4
1348.95352	99827.3
1352.44163	100018.4
1355.92738	103141.1
1359.41078	110208.8
1362.89183	117068.9
1366.37053	116139.1
1369.84688	105814.8
1373.32088	93482.5
1376.79254	84705.9
1380.26186	80428.7
1383.72883	78947.6
1387.19347	77811.7
1390.65578	76475.7
1394.11575	75687.4
1397.57339	76177.9
1401.0287	77678.9
1404.48168	79290.6
1407.93234	80662.3
1411.38068	81248.2
1414.82669	80400.8
1418.27039	78173.1
1421.71177	75158
1425.15083	72415.8
1428.58758	70972.2
1432.02203	71036
1435.45416	72008.4
1438.88399	73218.2
1442.31151	74172.5
1445.73673	75079.6
1449.15965	75787.7
1452.58027	76066.5
1455.9986	75600.2
1459.41463	75419
1462.82837	76274.9
1466.23982	77798.3
1469.64898	79416.5
1473.05586	80468
1476.46045	81115.2
1479.86276	81505.4
1483.26279	81748.5
1486.66054	82210.3
1490.05602	83016.7
1493.44922	84082
1496.84016	84945.8
1500.22882	86198.8
1503.61521	88357.9
1506.99934	91554.3
1510.38121	95099.4
1513.76081	96931.6
1517.13816	95310.2
1520.51324	90751.5
1523.88607	85916.4
1527.25665	82664.6
1530.62498	80732.1
1533.99105	79570.1
1537.35488	78794.4
1540.71647	78135.4
1544.07581	77303.5
1547.4329	76181.6
1550.78776	74944.8
1554.14038	73952.8
1557.49077	73429.8
1560.83892	73318.5
1564.18484	73277.5
1567.52853	73429.5
1570.86999	73965
1574.20922	75131.7
1577.54624	76579.5
1580.88103	77295.1
1584.2136	77686.8
1587.54395	79117.3
1590.87208	82345.9
1594.19801	87759
1597.52172	93695.2
1600.84321	95994.4
1604.16251	92168.8
1607.47959	84302
1610.79447	75954.2
1614.10715	68791.1
1617.41763	63478.6
1620.7259	60105.9
1624.03199	58584.3
1627.33587	58913.9
1630.63757	60868.6
1633.93707	64655.6
1637.23439	70096
1640.52951	76818.1
1643.82246	84141.7
1647.11321	89634.5
1650.40179	90469
1653.68819	84996.4
1656.97241	74837.3
1660.25446	64534.8
1663.53433	57014.4
1666.81203	52257.7
1670.08756	49305.1
1673.36092	47511.3
1676.63211	46249.8
1679.90115	45382.7
1683.16801	44709.7
1686.43272	44264.5
1689.69527	43977.7
1692.95567	43744.4
1696.2139	43581.6
1699.46999	43460.7
1702.72392	43366.6
1705.97571	43348.6
1709.22535	43233
1712.47284	43249.6
1715.71819	43187.6
1718.96139	43037.5
1722.20246	42968.4
1725.44139	42772.4
1728.67818	42568.9
1731.91284	42340.2
1735.14537	42087.1
1738.37576	41968.7
1741.60403	41809.6
1744.83017	41698.2
1748.05418	41571.9
1751.27607	41512.3
1754.49584	41428.5
1757.71349	41433.9
1760.92903	41414.6
1764.14244	41365.7
1767.35375	41353.1
1770.56294	41318.9
1773.77002	41249
1776.97499	41241
1780.17785	41184.4
1783.37861	41161.3
1786.57727	41151.9
1789.77382	41069.1
1792.96828	41015.8
1796.16064	40966.9
1799.3509	40952.4
1802.53907	40904.4
1805.72514	40769
1808.90913	40697.3
1812.09102	40618.1
1815.27083	40576.5
1818.44856	40539.1
1821.6242	40436.2
1824.79776	40413.4
1827.96924	40420.2
1831.13864	40386.6
1834.30597	40419.4
1837.47122	40411
1840.6344	40395.4
1843.7955	40400.4
1846.95454	40446.9
1850.11151	40411.7
1853.26642	40401.9
1856.41926	40405.1
1859.57004	40395.3
1862.71876	40410.4
1865.86542	40393.8
1869.01003	40403.6
1872.15258	40395.2
1875.29308	40442.1
1878.43152	40394.4
1881.56792	40443.5
1884.70227	40468.3
1887.83457	40529
1890.96482	40512.5
1894.09304	40457.5
1897.21921	40453.2
1900.34335	40439.4
1903.46544	40436.3
1906.58551	40513.5
1909.70353	40500.6
1912.81953	40504.2
1915.93349	40375.6
1919.04543	40317
1922.15534	40264.8
1925.26322	40189.1
1928.36908	40040.4
1931.47292	39982.6
1934.57473	39819.5
1937.67453	39759.3
1940.77232	39631.5
1943.86808	39451.6
1946.96184	39325.5
1950.05358	39178.3
1953.14331	39017.8
1956.23103	38921.9
1959.31675	38848.4
1962.40046	38736.7
1965.48217	38604.9
1968.56188	38547
1971.63959	38422
1974.7153	38297.5
1977.78901	38234.6
1980.86073	38100
1983.93046	37953.8
1986.99819	37837.6
1990.06394	37754.9
1993.1277	37645.6
1996.18947	37505.3
1999.24925	37452.9
2002.30706	37267.2
2005.36288	37202.7
2008.41672	37160.6
2011.46859	37027.8
2014.51848	36941.9
2017.56639	36874.8
2020.61233	36763.4
2023.6563	36709
2026.6983	36650
2029.73833	36626.6
2032.7764	36559.1
2035.8125	36514.6
2038.84664	36488.9
2041.87881	36440
2044.90903	36413.3
2047.93729	36342.1
2050.96359	36320.2
2053.98794	36309.6
2057.01034	36272.5
2060.03078	36223.1
2063.04927	36179.7
2066.06582	36175.1
2069.08042	36148.1
2072.09307	36144.7
2075.10378	36039.2
2078.11255	35998.2
2081.11938	36005.2
2084.12426	35963.9
2087.12722	35901.9
2090.12824	35861.7
2093.12732	35900.7
2096.12447	35862.5
2099.11969	35850.2
2102.11299	35872.2
2105.10435	35877.3
2108.09379	35955.4
2111.08131	35926.4
2114.0669	35983.6
2117.05057	35962.6
2120.03233	35986.4
2123.01216	35963.8
2125.99008	36013.9
2128.96609	36061.7
2131.94018	36083.9
2134.91236	36045.1
2137.88263	36118.7
2140.851	36167.3
2143.81746	36209.5
2146.78201	36206
2149.74466	36248.6
2152.7054	36253.6
2155.66425	36256.6
2158.6212	36229.5
2161.57625	36240.2
2164.52941	36212.8
2167.48067	36220.8
2170.43004	36175.4
2173.37752	36134.3
2176.32311	36151.2
2179.26681	36150.7
2182.20863	36170.9
2185.14856	36253.2
2188.08661	36283.3
2191.02278	36295.6
2193.95707	36241.2
2196.88948	36272.3
2199.82001	36317.5
2202.74867	36332
2205.67545	36383.6
2208.60037	36307.4
2211.52341	36299.9
2214.44458	36274.6
2217.36388	36251.2
2220.28132	36256.6
2223.1969	36204.3
2226.11061	36230.6
2229.02246	36065.5
2231.93245	35987.2
2234.84058	35886.5
2237.74686	35823.8
2240.65128	35821.3
2243.55385	35725
2246.45456	35722.4
2249.35343	35623.5
2252.25044	35604.3
2255.14561	35539.5
2258.03893	35519.7
2260.93041	35497
2263.82004	35458.7
2266.70783	35349.1
2269.59378	35230.5
2272.4779	35180.4
2275.36017	35063.5
2278.24061	35008.6
2281.11922	34912.4
2283.996	34883.1
2286.87094	34854.7
2289.74405	34794.5
2292.61534	34822.4
2295.4848	34729.1
2298.35243	34853.7
2301.21824	34863.3
2304.08223	34951.4
2306.94439	35007.2
2309.80474	34978.4
2312.66327	35038.8
2315.51999	34998.1
2318.37489	35066.6
2321.22797	35048.4
2324.07925	35068
2326.92871	35028.8
2329.77637	35059
2332.62222	35038.4
2335.46626	34988.8
2338.3085	35069.3
2341.14893	35116.1
2343.98756	35170.3
2346.8244	35175.9
2349.65943	35151.8
2352.49267	35162.5
2355.32411	35100.8
2358.15376	35071
2360.98161	34985.7
2363.80768	34960.4
2366.63195	34890.9
2369.45444	34850.3
2372.27514	34736
2375.09405	34603.1
2377.91118	34537.5
2380.72652	34440.8
2383.54009	34370.3
2386.35187	34330.4
2389.16188	34292.9
2391.97011	34309.3
2394.77657	34272.7
2397.58125	34232.9
2400.38416	34141.9
2403.18529	34101.4
2405.98466	33990.9
2408.78226	33924.2
2411.57809	33866.8
2414.37216	33735.9
2417.16446	33718.6
2419.955	33611.9
2422.74378	33598.2
2425.5308	33557.3
2428.31606	33520
2431.09956	33473
2433.88131	33418.8
2436.6613	33496
2439.43954	33437.7
2442.21603	33444.9
2444.99077	33411.3
2447.76377	33379.4
2450.53501	33370.2
2453.30451	33355.9
2456.07226	33375.4
2458.83827	33405.1
2461.60254	33402.2
2464.36507	33400.3
2467.12586	33326.1
2469.88492	33422.1
2472.64224	33420.4
2475.39782	33456.1
2478.15167	33477.1
2480.90379	33444.6
2483.65417	33483.8
2486.40283	33549.9
2489.14976	33613.9
2491.89497	33586.7
2494.63845	33589.6
2497.3802	33609.4
2500.12024	33627.4
2502.85855	33608.8
2505.59514	33650
2508.33002	33544.1
2511.06318	33499.7
2513.79462	33456.8
2516.52435	33455.6
2519.25237	33352.2
2521.97867	33340.7
2524.70327	33333.7
2527.42616	33319.7
2530.14734	33363.2
2532.86681	33312.3
2535.58458	33302.2
2538.30065	33282.1
2541.01501	33298.8
2543.72768	33291.7
2546.43864	33300.5
2549.14791	33193.8
2551.85548	33296.7
2554.56136	33220.7
2557.26554	33165.7
2559.96803	33138.4
2562.66883	33109.8
2565.36794	33089.5
2568.06536	33095.8
2570.7611	33055.7
2573.45514	33071.7
2576.14751	33077.2
2578.83819	33035.6
2581.52719	33069.9
2584.21451	33015.8
2586.90015	33037
2589.58411	33019.8
2592.2664	33052.5
2594.94701	33000.3
2597.62594	33015
2600.30321	32933
2602.9788	32988.6
2605.65273	32950.5
2608.32498	32956.3
2610.99557	32902.9
2613.66449	32998.7
2616.33175	32961.5
2618.99734	32964.1
2621.66128	33043
2624.32355	33051.3
2626.98416	33045.4
2629.64311	33104
2632.30041	33078.6
2634.95605	33077
2637.61004	33069.8
2640.26238	32994.3
2642.91306	32972.8
2645.56209	32864.3
2648.20948	32791
2650.85521	32798.5
2653.4993	32751.6
2656.14175	32779.3
2658.78255	32785.6
2661.42171	32751.2
2664.05923	32842.8
2666.6951	32817.8
2669.32934	32877.6
2671.96194	32929.3
2674.59291	32901.7
2677.22224	32840.7
2679.84993	32866
2682.476	32813.8
2685.10043	32786
2687.72324	32753.3
2690.34441	32750.6
2692.96396	32688.7
2695.58188	32699.2
2698.19818	32648.3
2700.81285	32661.4
2703.4259	32645.4
2706.03733	32646.7
2708.64714	32615.1
2711.25533	32644.8
2713.86191	32635.6
2716.46687	32656
2719.07021	32621.6
2721.67194	32629
2724.27206	32642.5
2726.87057	32683
2729.46747	32669.9
2732.06276	32723.9
2734.65644	32711.1
2737.24852	32720.5
2739.83899	32690.9
2742.42786	32676.5
2745.01513	32643.8
2747.60079	32633.3
2750.18486	32628.8
2752.76733	32632.4
2755.3482	32656.2
2757.92747	32649.5
2760.50515	32613.5
2763.08123	32590.4
2765.65573	32564.7
2768.22863	32628.9
2770.79994	32586.7
2773.36967	32531.8
2775.9378	32495.2
2778.50435	32511.4
2781.06932	32510.5
2783.6327	32485.9
2786.1945	32477.7
2788.75471	32441.1
2791.31335	32375.9
2793.87041	32363.4
2796.42589	32264.9
2798.97979	32266.9
2801.53212	32141.8
2804.08288	32078.8
2806.63206	32052.7
2809.17967	31986.1
2811.72571	31954.7
2814.27018	31963.7
2816.81308	31891
2819.35442	31919.8
2821.89419	31922.2
2824.43239	31900.9
2826.96904	31883.2
2829.50412	31948.9
2832.03763	31864.2
2834.56959	31874.5
2837.1	31795.3
2839.62884	31768.7
2842.15613	31688.6
2844.68186	31700.8
2847.20604	31715.6
2849.72867	31684.2
2852.24974	31604.5
2854.76927	31621.6
2857.28724	31597.1
2859.80367	31584.7
2862.31855	31555.7
2864.83189	31555.2
2867.34368	31503.4
2869.85393	31546.6
2872.36264	31488.8
2874.8698	31482.6
2877.37543	31491.6
2879.87952	31546.6
2882.38207	31538
2884.88308	31551.9
2887.38256	31607.9
2889.88051	31576.9
2892.37692	31590.9
2894.8718	31617.8
2897.36515	31635.2
2899.85698	31631
2902.34727	31691
2904.83604	31683.6
2907.32328	31736.1
2909.809	31708.3
2912.29319	31805.8
2914.77587	31761.5
2917.25702	31746.1
2919.73665	31699.1
2922.21476	31690.8
2924.69136	31656.8
2927.16644	31597.4
2929.64	31567.2
2932.11205	31528.8
2934.58258	31388.4
2937.05161	31483.1
2939.51912	31490.4
2941.98513	31425.1
2944.44962	31355
2946.91261	31252.7
2949.37409	31300.9
2951.83407	31340.2
2954.29254	31288.4
2956.74951	31241.3
2959.20498	31255.8
2961.65895	31196.1
2964.11142	31133.7
2966.56239	31087.8
2969.01186	31020.9
2971.45984	30907.8
2973.90632	30827.7
2976.35131	30761.8
2978.7948	30775.6
2981.23681	30650.9
2983.67732	30610.1
2986.11635	30487.2
2988.55388	30474.8
2990.98993	30386.5
2993.4245	30323.4
2995.85758	30260.6
2998.28917	30197.8
3000.71928	30123.9
3003.14791	30046.2
3005.57506	30036.2
3008.00073	29915.2
3010.42493	29927.1
3012.84764	29936.1
3015.26888	29895.1
3017.68865	29825.8
3020.10694	29817.4
3022.52376	29721.3
3024.9391	29651.4
3027.35298	29648
3029.76539	29542.6
3032.17632	29539.3
3034.5858	29493.6
3036.9938	29503.9
3039.40034	29406.8
3041.80542	29406.1
3044.20903	29356.1
3046.61118	29299.8
3049.01187	29229.3
3051.4111	29202
3053.80888	29117.8
3056.20519	29068.6
3058.60005	28996.7
3060.99345	28969.1
3063.3854	28884.5
3065.7759	28794
3068.16494	28750.5
3070.55254	28654.8
3072.93868	28646.7
3075.32338	28553.2
3077.70662	28430.1
3080.08842	28318.3
3082.46878	28358.8
3084.84769	28297.4
3087.22515	28272.9
3089.60118	28317.3
3091.97576	28286.4
3094.3489	28269.5
3096.72061	28227
3099.09087	28183.2
3101.4597	28161.3
3103.82709	28173
3106.19305	28080.8
3108.55757	28056.5
3110.92066	28004
3113.28232	27965
3115.64255	27872.7
3118.00134	27809.4
3120.35871	27739
3122.71466	27702.7
3125.06917	27675.2
3127.42226	27593.8
3129.77393	27650.6
3132.12417	27575.2
3134.47299	27592.4
3136.82039	27606
3139.16636	27598.2
3141.51092	27528
3143.85406	27552.2
3146.19579	27518.9
3148.53609	27504.6
3150.87499	27505.3
3153.21246	27517.8
3155.54853	27566.6
3157.88318	27515.5
3160.21642	27466.1
3162.54826	27484.7
3164.87868	27429
3167.2077	27377.7
3169.5353	27398.2
3171.86151	27381.1
3174.18631	27344.8
3176.5097	27348.6
3178.83169	27302
3181.15228	27262.8
3183.47147	27230.7
3185.78926	27237.1
3188.10565	27196.1
3190.42065	27193.8
3192.73424	27221.5
3195.04645	27185.6
3197.35725	27165
3199.66667	27175.5
3201.97469	27191
3204.28132	27155.1
3206.58656	27159.4
3208.8904	27149.1
3211.19287	27147.4
3213.49394	27116.8
3215.79363	27146.2
3218.09193	27154.5
3220.38884	27143.3
3222.68438	27161.7
3224.97853	27112.7
3227.2713	27061.7
3229.56269	27073.1
3231.8527	27056.4
3234.14133	26991.6
3236.42858	26947.4
3238.71446	26901.8
3240.99896	26843.2
3243.28209	26844.1
3245.56384	26862.1
3247.84423	26890.6
3250.12324	26837.3
3252.40088	26830.1
3254.67715	26803.7
3256.95205	26747.8
3259.22558	26740
3261.49775	26683.9
3263.76855	26654.2
3266.03799	26577.1
3268.30606	26559.7
3270.57277	26502
3272.83812	26528.7
3275.10211	26471.5
3277.36474	26450.3
3279.62601	26480.2
3281.88593	26439.1
3284.14448	26466.9
3286.40168	26416.9
3288.65753	26414.6
3290.91202	26369
3293.16516	26287.9
3295.41695	26245.1
3297.66738	26122.1
3299.91647	26011.6
3302.16421	25850.9
3304.4106	25797.4
3306.65564	25651.3
3308.89933	25476.1
3311.14169	25329.1
3313.38269	25131.7
3315.62236	25023
3317.86068	24786.6
3320.09766	24568.2
3322.3333	24347.6
3324.5676	24398.6
3326.80056	23981.6
3329.03219	23854.3
3331.26248	4.3
3333.49143	0.4
3335.71905	0.2
