Data from AgNP_FTO_APTES_CRN_1uM_R6G_10uM_NaF_0.1M_Addition_RamanShift__14__14-01-50-796.txt Node

Date: Wed Dec 15 14:01:50 GMT 2021
User: TCL
Spectrometer: QEP01345
Trigger mode: 4
Integration Time (sec): 7.000000E0
Scans to average: 10
Electric dark correction enabled: true
Nonlinearity correction enabled: false
Boxcar width: 0
XAxis mode: Raman Shifts
Number of Pixels in Spectrum: 1044
>>>>>Begin Spectral Data<<<<<
46.04893	0.5375
50.45542	-2.9625
54.85868	-1.1625
59.25871	-1.2625
63.6555	156.1375
68.04907	165.2375
72.43941	170.2375
76.82654	184.1375
81.21044	189.1375
85.59113	200.2375
89.96862	204.2375
94.34289	204.6375
98.71396	215.4375
103.08183	227.8375
107.4465	233.2375
111.80798	234.2375
116.16626	242.4375
120.52136	251.9375
124.87327	255.3375
129.222	268.8375
133.56755	282.0375
137.90993	301.6375
142.24913	326.6375
146.58517	364.7375
150.91804	426.1375
155.24774	490.4375
159.57429	607.1375
163.89768	773.5375
168.21792	1013.5375
172.53501	1368.8375
176.84895	1895.7375
181.15975	2659.3375
185.46741	3707.3375
189.77193	5095.2375
194.07331	6813.0375
198.37157	8767.0375
202.6667	10812.0375
206.9587	12857.3375
211.24758	14819.3375
215.53334	16788.4375
219.81599	18858.6375
224.09553	21074.6375
228.37195	23616.7375
232.64527	26371.8375
236.91549	29339.8375
241.18261	32328.9375
245.44663	35280.1375
249.70755	37948.6375
253.96539	40224.9375
258.22014	42181.9375
262.4718	43717.7375
266.72039	44723.8375
270.96589	45193.8375
275.20832	45271.9375
279.44768	45077.6375
283.68397	44731.3375
287.91719	44318.7375
292.14735	44057.6375
296.37445	43794.7375
300.59849	43731.9375
304.81948	43636.4375
309.03742	43594.1375
313.25231	43475.0375
317.46415	43059.4375
321.67296	42495.7375
325.87872	41940.9375
330.08145	41706.5375
334.28114	41726.9375
338.47781	42068.5375
342.67145	42470.0375
346.86207	42965.5375
351.04966	43469.7375
355.23424	44148.1375
359.4158	44671.0375
363.59435	45158.9375
367.76989	45505.2375
371.94243	45728.2375
376.11196	45805.7375
380.27849	45905.3375
384.44203	46056.9375
388.60257	46353.7375
392.76012	46876.2375
396.91468	47586.5375
401.06626	48373.9375
405.21485	48876.0375
409.36047	48933.6375
413.50311	48687.8375
417.64277	48739.4375
421.77947	49095.8375
425.9132	49592.9375
430.04396	49861.9375
434.17176	50020.1375
438.2966	50088.0375
442.41849	50456.2375
446.53742	51202.7375
450.6534	52200.9375
454.76644	52901.0375
458.87653	53221.6375
462.98368	53181.0375
467.08789	52803.9375
471.18916	52206.6375
475.2875	51517.4375
479.38291	51106.7375
483.4754	50776.0375
487.56496	50443.3375
491.6516	50011.5375
495.73531	49722.6375
499.81612	49523.4375
503.89401	49895.3375
507.96899	50355.5375
512.04106	50565.6375
516.11023	50435.4375
520.1765	50033.5375
524.23987	49379.0375
528.30034	48816.6375
532.35792	48290.1375
536.41261	47822.4375
540.46441	47519.9375
544.51333	47557.8375
548.55936	48105.4375
552.60252	48833.4375
556.64279	49545.8375
560.6802	50182.6375
564.71473	50768.0375
568.7464	51619.5375
572.7752	53135.6375
576.80114	55192.6375
580.82422	57578.6375
584.84444	60046.8375
588.86181	62646.3375
592.87633	64594.2375
596.888	63937.0375
600.89682	61118.9375
604.9028	59777.7375
608.90594	61078.5375
612.90624	62163.1375
616.90371	58520.1375
620.89834	52675.7375
624.89015	50341.3375
628.87913	50302.5375
632.86528	50808.0375
636.84862	50541.5375
640.82913	49659.5375
644.80683	48542.9375
648.78172	47837.0375
652.75379	47812.9375
656.72306	48251.6375
660.68952	48701.1375
664.65319	48545.9375
668.61405	48024.8375
672.57211	47995.5375
676.52738	48086.9375
680.47986	47993.7375
684.42955	47857.0375
688.37646	47697.8375
692.32058	47896.7375
696.26192	48496.9375
700.20048	49069.0375
704.13626	49407.7375
708.06928	49781.6375
711.99952	49723.7375
715.927	49673.3375
719.85171	49622.7375
723.77365	49266.5375
727.69284	48525.9375
731.60928	47875.4375
735.52295	47565.0375
739.43388	47396.0375
743.34206	47489.6375
747.24749	47797.8375
751.15017	48308.2375
755.05012	49110.5375
758.94733	50314.4375
762.8418	52116.3375
766.73354	54566.0375
770.62254	56555.9375
774.50882	56373.0375
778.39237	54298.5375
782.27321	51763.5375
786.15132	49831.1375
790.02671	48606.0375
793.89938	47878.3375
797.76935	47468.3375
801.6366	47325.0375
805.50115	47220.6375
809.36299	46972.2375
813.22213	46771.1375
817.07857	46609.1375
820.93231	46497.5375
824.78336	46450.3375
828.63172	46265.7375
832.47738	46085.5375
836.32036	46004.5375
840.16066	46039.7375
843.99827	46024.7375
847.8332	46116.9375
851.66546	46190.9375
855.49504	46338.6375
859.32195	46377.2375
863.1462	46259.9375
866.96777	46232.8375
870.78668	46258.6375
874.60293	46266.7375
878.41652	46308.7375
882.22745	46421.3375
886.03573	46564.2375
889.84136	46636.1375
893.64433	46524.3375
897.44466	46395.1375
901.24235	46373.2375
905.0374	46405.5375
908.8298	46363.9375
912.61957	46502.6375
916.40671	46964.8375
920.19121	47604.0375
923.97308	48091.1375
927.75233	48056.7375
931.52895	47483.4375
935.30295	46619.2375
939.07433	45923.4375
942.84309	45414.5375
946.60924	45114.6375
950.37278	44972.5375
954.13371	45040.5375
957.89203	44988.1375
961.64774	44953.0375
965.40086	44937.8375
969.15137	44870.0375
972.89929	44715.0375
976.64461	44582.7375
980.38733	44458.6375
984.12747	44435.2375
987.86502	44550.7375
991.59999	44729.6375
995.33237	45016.3375
999.06217	45530.2375
1002.78939	46262.0375
1006.51404	47253.5375
1010.23611	48188.1375
1013.95561	48671.8375
1017.67255	48596.9375
1021.38692	48121.6375
1025.09872	47349.7375
1028.80796	46715.7375
1032.51465	46356.8375
1036.21877	46418.7375
1039.92035	46585.9375
1043.61937	46814.1375
1047.31584	47006.9375
1051.00976	47274.4375
1054.70114	47506.8375
1058.38998	48004.4375
1062.07627	48730.0375
1065.76003	49611.3375
1069.44126	50637.1375
1073.11995	51815.5375
1076.79611	52675.3375
1080.46974	52860.8375
1084.14085	52660.3375
1087.80943	52779.8375
1091.47549	52981.6375
1095.13903	53088.3375
1098.80005	52549.7375
1102.45857	51333.8375
1106.11456	50197.0375
1109.76805	49529.1375
1113.41903	49299.5375
1117.06751	49268.0375
1120.71348	49430.8375
1124.35696	49738.4375
1127.99793	50038.5375
1131.63641	50452.7375
1135.2724	50657.3375
1138.90589	50773.7375
1142.5369	51089.3375
1146.16542	51488.0375
1149.79145	51898.9375
1153.415	52405.8375
1157.03607	53071.6375
1160.65467	54446.5375
1164.27079	56499.6375
1167.88443	58891.8375
1171.49561	61276.8375
1175.10432	63756.4375
1178.71056	66908.3375
1182.31434	69948.0375
1185.91565	71972.8375
1189.51451	72695.7375
1193.11091	72295.9375
1196.70485	70836.1375
1200.29634	68787.2375
1203.88538	67311.5375
1207.47197	66842.0375
1211.05612	66733.9375
1214.63782	66143.0375
1218.21708	64683.6375
1221.79391	62660.1375
1225.36829	60940.3375
1228.94024	59915.9375
1232.50976	59385.7375
1236.07685	58985.8375
1239.6415	58798.0375
1243.20374	58737.4375
1246.76355	59058.3375
1250.32093	59805.5375
1253.8759	60812.3375
1257.42845	62324.0375
1260.97859	64156.8375
1264.52631	65782.0375
1268.07163	67627.9375
1271.61453	69299.3375
1275.15503	71094.9375
1278.69312	72895.5375
1282.22882	74799.0375
1285.76211	76957.2375
1289.29301	79302.3375
1292.82151	82018.0375
1296.34761	85093.0375
1299.87133	88906.4375
1303.39266	92557.9375
1306.9116	95442.9375
1310.42815	97271.5375
1313.94233	97964.0375
1317.45412	97799.6375
1320.96354	97317.2375
1324.47058	97485.0375
1327.97525	98215.2375
1331.47754	99127.9375
1334.97747	99827.1375
1338.47502	100192.6375
1341.97022	100203.3375
1345.46305	99701.2375
1348.95352	98550.4375
1352.44163	97026.2375
1355.92738	95950.8375
1359.41078	95969.0375
1362.89183	96144.7375
1366.37053	94385.3375
1369.84688	89925.2375
1373.32088	83616.5375
1376.79254	78409.3375
1380.26186	76194.2375
1383.72883	76180.6375
1387.19347	76336.6375
1390.65578	75733.4375
1394.11575	75328.0375
1397.57339	75774.8375
1401.0287	76946.1375
1404.48168	77932.5375
1407.93234	77871.0375
1411.38068	76491.1375
1414.82669	74174.6375
1418.27039	71342.1375
1421.71177	68714.1375
1425.15083	66794.8375
1428.58758	66074.5375
1432.02203	66798.7375
1435.45416	68474.1375
1438.88399	70512.4375
1442.31151	71988.6375
1445.73673	72669.6375
1449.15965	72934.1375
1452.58027	72957.5375
1455.9986	73077.2375
1459.41463	73715.0375
1462.82837	74807.9375
1466.23982	76030.2375
1469.64898	76783.6375
1473.05586	77125.4375
1476.46045	77029.4375
1479.86276	76596.9375
1483.26279	75960.2375
1486.66054	75589.6375
1490.05602	75641.0375
1493.44922	76187.1375
1496.84016	77055.4375
1500.22882	78090.5375
1503.61521	79200.5375
1506.99934	80297.4375
1510.38121	80961.1375
1513.76081	81065.0375
1517.13816	80596.6375
1520.51324	80338.9375
1523.88607	80483.1375
1527.25665	80957.1375
1530.62498	81184.1375
1533.99105	80827.8375
1537.35488	79569.1375
1540.71647	77549.0375
1544.07581	75418.4375
1547.4329	73410.8375
1550.78776	71701.8375
1554.14038	70613.5375
1557.49077	69916.4375
1560.83892	69483.0375
1564.18484	69277.3375
1567.52853	69190.7375
1570.86999	69733.2375
1574.20922	71175.3375
1577.54624	72852.1375
1580.88103	74183.6375
1584.2136	75741.0375
1587.54395	77926.7375
1590.87208	80840.3375
1594.19801	84106.7375
1597.52172	86862.2375
1600.84321	86697.5375
1604.16251	82725.8375
1607.47959	77154.3375
1610.79447	71610.7375
1614.10715	66398.3375
1617.41763	61936.1375
1620.7259	58751.6375
1624.03199	57102.2375
1627.33587	57038.8375
1630.63757	58471.8375
1633.93707	61991.9375
1637.23439	67966.1375
1640.52951	76374.0375
1643.82246	85862.0375
1647.11321	92517.2375
1650.40179	92490.0375
1653.68819	85506.0375
1656.97241	74996.6375
1660.25446	65026.2375
1663.53433	57668.1375
1666.81203	52789.4375
1670.08756	49727.3375
1673.36092	47686.8375
1676.63211	46365.3375
1679.90115	45445.9375
1683.16801	44678.5375
1686.43272	44169.1375
1689.69527	43773.9375
1692.95567	43415.3375
1696.2139	43211.3375
1699.46999	43053.6375
1702.72392	42827.9375
1705.97571	42794.6375
1709.22535	42639.4375
1712.47284	42605.8375
1715.71819	42520.6375
1718.96139	42361.9375
1722.20246	42214.8375
1725.44139	41976.2375
1728.67818	41813.1375
1731.91284	41561.9375
1735.14537	41327.3375
1738.37576	41178.8375
1741.60403	41014.6375
1744.83017	40824.3375
1748.05418	40750.2375
1751.27607	40683.7375
1754.49584	40558.5375
1757.71349	40497.3375
1760.92903	40490.0375
1764.14244	40478.6375
1767.35375	40463.7375
1770.56294	40338.2375
1773.77002	40298.5375
1776.97499	40220.3375
1780.17785	40135.5375
1783.37861	40100.5375
1786.57727	40126.7375
1789.77382	39945.0375
1792.96828	39830.4375
1796.16064	39788.0375
1799.3509	39756.2375
1802.53907	39629.2375
1805.72514	39511.6375
1808.90913	39422.3375
1812.09102	39333.3375
1815.27083	39264.9375
1818.44856	39261.9375
1821.6242	39251.8375
1824.79776	39185.2375
1827.96924	39171.5375
1831.13864	39088.6375
1834.30597	39170.8375
1837.47122	39264.4375
1840.6344	39178.3375
1843.7955	39246.8375
1846.95454	39161.8375
1850.11151	39203.1375
1853.26642	39157.3375
1856.41926	39152.4375
1859.57004	39129.5375
1862.71876	39074.1375
1865.86542	39001.0375
1869.01003	39043.4375
1872.15258	38935.6375
1875.29308	38834.4375
1878.43152	38775.9375
1881.56792	38709.4375
1884.70227	38623.6375
1887.83457	38564.4375
1890.96482	38602.6375
1894.09304	38478.9375
1897.21921	38352.8375
1900.34335	38321.2375
1903.46544	38243.1375
1906.58551	38221.6375
1909.70353	38156.8375
1912.81953	38112.3375
1915.93349	37983.4375
1919.04543	37969.8375
1922.15534	37848.0375
1925.26322	37781.8375
1928.36908	37667.6375
1931.47292	37543.6375
1934.57473	37493.0375
1937.67453	37406.7375
1940.77232	37256.7375
1943.86808	37164.7375
1946.96184	37063.2375
1950.05358	36930.9375
1953.14331	36823.3375
1956.23103	36689.8375
1959.31675	36660.8375
1962.40046	36539.4375
1965.48217	36411.4375
1968.56188	36316.5375
1971.63959	36123.7375
1974.7153	36032.0375
1977.78901	35871.2375
1980.86073	35847.6375
1983.93046	35682.5375
1986.99819	35550.1375
1990.06394	35473.1375
1993.1277	35461.4375
1996.18947	35261.4375
1999.24925	35193.0375
2002.30706	35047.6375
2005.36288	34960.5375
2008.41672	34862.6375
2011.46859	34693.9375
2014.51848	34668.9375
2017.56639	34611.3375
2020.61233	34464.1375
2023.6563	34368.4375
2026.6983	34317.0375
2029.73833	34209.3375
2032.7764	34167.7375
2035.8125	34082.1375
2038.84664	34040.0375
2041.87881	34010.0375
2044.90903	33859.9375
2047.93729	33819.4375
2050.96359	33769.8375
2053.98794	33682.4375
2057.01034	33637.9375
2060.03078	33587.8375
2063.04927	33567.5375
2066.06582	33553.7375
2069.08042	33557.2375
2072.09307	33501.9375
2075.10378	33453.2375
2078.11255	33478.0375
2081.11938	33424.2375
2084.12426	33360.6375
2087.12722	33378.1375
2090.12824	33342.2375
2093.12732	33352.4375
2096.12447	33320.6375
2099.11969	33380.0375
2102.11299	33374.1375
2105.10435	33400.4375
2108.09379	33355.6375
2111.08131	33421.7375
2114.0669	33379.6375
2117.05057	33395.3375
2120.03233	33430.8375
2123.01216	33458.6375
2125.99008	33506.6375
2128.96609	33477.7375
2131.94018	33552.6375
2134.91236	33498.9375
2137.88263	33507.5375
2140.851	33455.7375
2143.81746	33543.8375
2146.78201	33517.9375
2149.74466	33535.0375
2152.7054	33478.2375
2155.66425	33516.5375
2158.6212	33524.0375
2161.57625	33531.1375
2164.52941	33471.2375
2167.48067	33525.1375
2170.43004	33433.7375
2173.37752	33419.6375
2176.32311	33386.6375
2179.26681	33387.1375
2182.20863	33343.1375
2185.14856	33372.0375
2188.08661	33353.9375
2191.02278	33363.3375
2193.95707	33289.4375
2196.88948	33296.5375
2199.82001	33308.6375
2202.74867	33176.3375
2205.67545	33138.3375
2208.60037	33070.9375
2211.52341	33020.9375
2214.44458	32997.1375
2217.36388	32901.0375
2220.28132	32894.1375
2223.1969	32761.7375
2226.11061	32714.9375
2229.02246	32666.0375
2231.93245	32676.7375
2234.84058	32595.6375
2237.74686	32538.4375
2240.65128	32525.8375
2243.55385	32456.3375
2246.45456	32383.4375
2249.35343	32320.1375
2252.25044	32269.8375
2255.14561	32158.2375
2258.03893	32148.5375
2260.93041	32067.6375
2263.82004	31945.2375
2266.70783	31875.5375
2269.59378	31822.4375
2272.4779	31742.5375
2275.36017	31661.5375
2278.24061	31571.9375
2281.11922	31572.8375
2283.996	31455.7375
2286.87094	31387.8375
2289.74405	31310.7375
2292.61534	31321.2375
2295.4848	31265.6375
2298.35243	31281.7375
2301.21824	31249.0375
2304.08223	31215.2375
2306.94439	31196.0375
2309.80474	31122.3375
2312.66327	31100.1375
2315.51999	31039.9375
2318.37489	31092.0375
2321.22797	30995.2375
2324.07925	31007.4375
2326.92871	30982.7375
2329.77637	30948.4375
2332.62222	30832.7375
2335.46626	30833.7375
2338.3085	30820.1375
2341.14893	30760.2375
2343.98756	30785.0375
2346.8244	30705.2375
2349.65943	30707.8375
2352.49267	30666.7375
2355.32411	30689.4375
2358.15376	30667.7375
2360.98161	30629.5375
2363.80768	30607.3375
2366.63195	30574.6375
2369.45444	30568.5375
2372.27514	30566.7375
2375.09405	30503.1375
2377.91118	30427.9375
2380.72652	30329.6375
2383.54009	30224.6375
2386.35187	30256.0375
2389.16188	30138.3375
2391.97011	30086.4375
2394.77657	30011.7375
2397.58125	30034.2375
2400.38416	29961.6375
2403.18529	29906.8375
2405.98466	29881.0375
2408.78226	29813.9375
2411.57809	29772.4375
2414.37216	29789.9375
2417.16446	29777.5375
2419.955	29740.4375
2422.74378	29691.4375
2425.5308	29656.1375
2428.31606	29635.8375
2431.09956	29630.7375
2433.88131	29589.3375
2436.6613	29570.6375
2439.43954	29530.3375
2442.21603	29472.4375
2444.99077	29500.0375
2447.76377	29467.5375
2450.53501	29428.3375
2453.30451	29442.8375
2456.07226	29407.9375
2458.83827	29430.9375
2461.60254	29412.1375
2464.36507	29389.8375
2467.12586	29360.2375
2469.88492	29350.9375
2472.64224	29295.2375
2475.39782	29267.3375
2478.15167	29299.4375
2480.90379	29301.0375
2483.65417	29263.2375
2486.40283	29249.1375
2489.14976	29203.1375
2491.89497	29176.7375
2494.63845	29188.0375
2497.3802	29156.9375
2500.12024	29134.2375
2502.85855	29137.6375
2505.59514	29133.9375
2508.33002	29125.1375
2511.06318	29049.6375
2513.79462	29025.9375
2516.52435	29011.3375
2519.25237	29060.9375
2521.97867	29017.9375
2524.70327	28985.2375
2527.42616	28965.4375
2530.14734	28919.4375
2532.86681	28871.6375
2535.58458	28847.6375
2538.30065	28864.6375
2541.01501	28804.6375
2543.72768	28734.6375
2546.43864	28712.5375
2549.14791	28709.4375
2551.85548	28682.6375
2554.56136	28645.5375
2557.26554	28603.6375
2559.96803	28566.5375
2562.66883	28550.2375
2565.36794	28514.8375
2568.06536	28480.3375
2570.7611	28430.9375
2573.45514	28408.2375
2576.14751	28375.6375
2578.83819	28304.8375
2581.52719	28324.7375
2584.21451	28268.9375
2586.90015	28210.1375
2589.58411	28186.2375
2592.2664	28112.3375
2594.94701	28069.9375
2597.62594	28043.8375
2600.30321	28047.7375
2602.9788	27994.9375
2605.65273	28003.2375
2608.32498	27944.8375
2610.99557	27970.4375
2613.66449	27987.8375
2616.33175	27925.6375
2618.99734	27935.5375
2621.66128	27890.6375
2624.32355	27859.6375
2626.98416	27867.5375
2629.64311	27765.4375
2632.30041	27741.0375
2634.95605	27723.1375
2637.61004	27700.4375
2640.26238	27702.5375
2642.91306	27706.9375
2645.56209	27628.6375
2648.20948	27683.2375
2650.85521	27681.3375
2653.4993	27686.1375
2656.14175	27691.2375
2658.78255	27666.7375
2661.42171	27643.9375
2664.05923	27657.1375
2666.6951	27670.4375
2669.32934	27691.3375
2671.96194	27680.6375
2674.59291	27711.1375
2677.22224	27692.9375
2679.84993	27690.8375
2682.476	27650.2375
2685.10043	27714.4375
2687.72324	27673.2375
2690.34441	27714.1375
2692.96396	27666.9375
2695.58188	27681.4375
2698.19818	27642.8375
2700.81285	27691.5375
2703.4259	27645.5375
2706.03733	27705.8375
2708.64714	27672.7375
2711.25533	27715.1375
2713.86191	27673.2375
2716.46687	27704.4375
2719.07021	27687.3375
2721.67194	27724.6375
2724.27206	27688.2375
2726.87057	27718.1375
2729.46747	27721.1375
2732.06276	27707.2375
2734.65644	27674.4375
2737.24852	27718.6375
2739.83899	27704.9375
2742.42786	27770.3375
2745.01513	27692.1375
2747.60079	27689.3375
2750.18486	27654.3375
2752.76733	27681.0375
2755.3482	27631.1375
2757.92747	27560.7375
2760.50515	27546.0375
2763.08123	27533.8375
2765.65573	27482.1375
2768.22863	27502.1375
2770.79994	27417.5375
2773.36967	27426.8375
2775.9378	27427.7375
2778.50435	27392.6375
2781.06932	27321.1375
2783.6327	27328.1375
2786.1945	27320.4375
2788.75471	27273.7375
2791.31335	27240.4375
2793.87041	27149.9375
2796.42589	27071.8375
2798.97979	27035.7375
2801.53212	27018.5375
2804.08288	26980.3375
2806.63206	26914.1375
2809.17967	26858.3375
2811.72571	26783.2375
2814.27018	26754.1375
2816.81308	26710.4375
2819.35442	26689.8375
2821.89419	26630.3375
2824.43239	26567.6375
2826.96904	26522.5375
2829.50412	26481.7375
2832.03763	26364.2375
2834.56959	26413.2375
2837.1	26322.6375
2839.62884	26316.1375
2842.15613	26239.0375
2844.68186	26251.9375
2847.20604	26214.1375
2849.72867	26207.1375
2852.24974	26129.7375
2854.76927	26136.2375
2857.28724	26109.6375
2859.80367	26103.0375
2862.31855	26048.3375
2864.83189	25969.4375
2867.34368	25913.2375
2869.85393	25984.8375
2872.36264	25963.6375
2874.8698	25893.8375
2877.37543	25920.6375
2879.87952	25876.1375
2882.38207	25811.0375
2884.88308	25837.4375
2887.38256	25871.6375
2889.88051	25803.1375
2892.37692	25806.8375
2894.8718	25850.9375
2897.36515	25841.7375
2899.85698	25824.0375
2902.34727	25833.0375
2904.83604	25814.9375
2907.32328	25831.0375
2909.809	25809.6375
2912.29319	25884.5375
2914.77587	25855.0375
2917.25702	25814.4375
2919.73665	25822.1375
2922.21476	25813.0375
2924.69136	25772.4375
2927.16644	25840.6375
2929.64	25780.0375
2932.11205	25729.2375
2934.58258	25646.2375
2937.05161	25669.4375
2939.51912	25668.1375
2941.98513	25669.7375
2944.44962	25611.7375
2946.91261	25526.2375
2949.37409	25565.7375
2951.83407	25552.5375
2954.29254	25500.3375
2956.74951	25504.5375
2959.20498	25486.3375
2961.65895	25440.3375
2964.11142	25399.2375
2966.56239	25359.0375
2969.01186	25336.3375
2971.45984	25275.8375
2973.90632	25223.7375
2976.35131	25174.2375
2978.7948	25120.2375
2981.23681	25111.4375
2983.67732	25049.2375
2986.11635	24921.9375
2988.55388	24835.2375
2990.98993	24798.7375
2993.4245	24756.6375
2995.85758	24685.3375
2998.28917	24653.6375
3000.71928	24618.7375
3003.14791	24533.6375
3005.57506	24499.2375
3008.00073	24389.4375
3010.42493	24389.0375
3012.84764	24339.8375
3015.26888	24328.8375
3017.68865	24263.1375
3020.10694	24197.7375
3022.52376	24142.8375
3024.9391	24095.7375
3027.35298	24065.7375
3029.76539	24027.0375
3032.17632	23952.7375
3034.5858	23963.4375
3036.9938	23941.1375
3039.40034	23903.8375
3041.80542	23836.3375
3044.20903	23778.3375
3046.61118	23751.5375
3049.01187	23653.2375
3051.4111	23656.3375
3053.80888	23601.6375
3056.20519	23579.6375
3058.60005	23500.8375
3060.99345	23454.1375
3063.3854	23356.9375
3065.7759	23299.9375
3068.16494	23250.8375
3070.55254	23125.8375
3072.93868	23107.0375
3075.32338	23020.0375
3077.70662	22964.1375
3080.08842	22867.1375
3082.46878	22847.2375
3084.84769	22805.5375
3087.22515	22768.0375
3089.60118	22753.3375
3091.97576	22747.6375
3094.3489	22704.3375
3096.72061	22734.4375
3099.09087	22656.6375
3101.4597	22653.8375
3103.82709	22636.0375
3106.19305	22582.5375
3108.55757	22569.4375
3110.92066	22448.9375
3113.28232	22403.8375
3115.64255	22313.0375
3118.00134	22290.5375
3120.35871	22231.0375
3122.71466	22184.4375
3125.06917	22134.0375
3127.42226	22081.8375
3129.77393	22081.7375
3132.12417	21988.9375
3134.47299	21973.3375
3136.82039	21938.3375
3139.16636	21986.6375
3141.51092	21996.5375
3143.85406	21934.4375
3146.19579	21943.2375
3148.53609	21905.4375
3150.87499	21898.7375
3153.21246	21869.3375
3155.54853	21851.1375
3157.88318	21782.6375
3160.21642	21820.7375
3162.54826	21764.7375
3164.87868	21786.6375
3167.2077	21775.0375
3169.5353	21732.4375
3171.86151	21721.6375
3174.18631	21664.8375
3176.5097	21680.2375
3178.83169	21595.4375
3181.15228	21590.8375
3183.47147	21548.2375
3185.78926	21547.9375
3188.10565	21488.5375
3190.42065	21469.3375
3192.73424	21415.8375
3195.04645	21386.9375
3197.35725	21400.0375
3199.66667	21349.6375
3201.97469	21319.8375
3204.28132	21293.1375
3206.58656	21296.9375
3208.8904	21273.6375
3211.19287	21256.1375
3213.49394	21196.6375
3215.79363	21167.0375
3218.09193	21210.2375
3220.38884	21201.4375
3222.68438	21158.0375
3224.97853	21128.8375
3227.2713	21120.3375
3229.56269	21098.5375
3231.8527	21087.4375
3234.14133	21057.0375
3236.42858	20994.9375
3238.71446	21003.5375
3240.99896	20924.1375
3243.28209	20896.1375
3245.56384	20857.0375
3247.84423	20856.7375
3250.12324	20796.2375
3252.40088	20768.4375
3254.67715	20743.3375
3256.95205	20689.1375
3259.22558	20647.6375
3261.49775	20599.2375
3263.76855	20631.7375
3266.03799	20554.7375
3268.30606	20536.1375
3270.57277	20474.2375
3272.83812	20420.0375
3275.10211	20376.5375
3277.36474	20387.7375
3279.62601	20381.5375
3281.88593	20316.8375
3284.14448	20314.5375
3286.40168	20358.4375
3288.65753	20269.0375
3290.91202	20253.7375
3293.16516	20169.0375
3295.41695	20101.1375
3297.66738	19998.3375
3299.91647	19890.6375
3302.16421	19754.0375
3304.4106	19685.3375
3306.65564	19582.7375
3308.89933	19402.3375
3311.14169	19311.4375
3313.38269	19124.4375
3315.62236	19047.3375
3317.86068	18837.5375
3320.09766	18663.7375
3322.3333	18480.4375
3324.5676	18437.6375
3326.80056	18130.9375
3329.03219	18029.2375
3331.26248	5.2375
3333.49143	0.5375
3335.71905	-0.5625
