Data from AgNP_FTO_APTES_CRN_10uM_R6G_10uM_NaF_0.1M_Addition_RamanShift__1__16-16-07-939.txt Node

Date: Wed Dec 15 16:16:07 GMT 2021
User: TCL
Spectrometer: QEP01345
Trigger mode: 4
Integration Time (sec): 7.000000E0
Scans to average: 10
Electric dark correction enabled: true
Nonlinearity correction enabled: false
Boxcar width: 0
XAxis mode: Raman Shifts
Number of Pixels in Spectrum: 1044
>>>>>Begin Spectral Data<<<<<
46.04893	0.6375
50.45542	-3.2625
54.85868	-0.8625
59.25871	-0.6625
63.6555	81.2375
68.04907	84.1375
72.43941	86.7375
76.82654	93.9375
81.21044	99.0375
85.59113	100.9375
89.96862	103.1375
94.34289	102.9375
98.71396	109.0375
103.08183	116.5375
107.4465	122.2375
111.80798	118.6375
116.16626	125.9375
120.52136	128.2375
124.87327	131.4375
129.222	142.0375
133.56755	142.6375
137.90993	156.5375
142.24913	173.1375
146.58517	191.6375
150.91804	226.3375
155.24774	261.6375
159.57429	328.5375
163.89768	418.0375
168.21792	551.2375
172.53501	756.6375
176.84895	1048.5375
181.15975	1469.4375
185.46741	2076.5375
189.77193	2865.6375
194.07331	3846.3375
198.37157	4970.4375
202.6667	6161.3375
206.9587	7345.8375
211.24758	8514.1375
215.53334	9687.6375
219.81599	10950.1375
224.09553	12322.3375
228.37195	13876.1375
232.64527	15536.5375
236.91549	17250.9375
241.18261	18981.9375
245.44663	20537.3375
249.70755	21905.1375
253.96539	23042.1375
258.22014	23972.9375
262.4718	24716.0375
266.72039	25233.8375
270.96589	25397.9375
275.20832	25316.8375
279.44768	25036.7375
283.68397	24696.1375
287.91719	24389.4375
292.14735	24278.0375
296.37445	24300.2375
300.59849	24468.0375
304.81948	24807.0375
309.03742	25021.8375
313.25231	24938.7375
317.46415	24461.8375
321.67296	23664.7375
325.87872	22963.7375
330.08145	22588.6375
334.28114	22559.3375
338.47781	22762.7375
342.67145	23163.3375
346.86207	23632.9375
351.04966	24289.0375
355.23424	24886.6375
359.4158	25390.3375
363.59435	25615.8375
367.76989	25656.2375
371.94243	25599.7375
376.11196	25502.5375
380.27849	25412.1375
384.44203	25399.4375
388.60257	25454.6375
392.76012	25678.1375
396.91468	26047.1375
401.06626	26508.5375
405.21485	26861.7375
409.36047	26696.9375
413.50311	26176.3375
417.64277	25664.7375
421.77947	25436.4375
425.9132	25362.4375
430.04396	25361.3375
434.17176	25391.3375
438.2966	25498.6375
442.41849	25734.2375
446.53742	26217.9375
450.6534	26749.0375
454.76644	27044.2375
458.87653	27154.6375
462.98368	27031.5375
467.08789	26882.8375
471.18916	26633.9375
475.2875	26299.7375
479.38291	25997.5375
483.4754	25773.9375
487.56496	25530.9375
491.6516	25335.8375
495.73531	25205.4375
499.81612	25213.8375
503.89401	25352.8375
507.96899	25505.1375
512.04106	25621.2375
516.11023	25776.9375
520.1765	25833.0375
524.23987	25861.7375
528.30034	25749.2375
532.35792	25502.2375
536.41261	25028.4375
540.46441	24612.3375
544.51333	24461.9375
548.55936	24695.4375
552.60252	25155.8375
556.64279	25651.3375
560.6802	25880.8375
564.71473	26030.3375
568.7464	26324.1375
572.7752	26848.5375
576.80114	27266.5375
580.82422	27825.5375
584.84444	28662.8375
588.86181	29467.4375
592.87633	29684.0375
596.888	29439.4375
600.89682	28946.0375
604.9028	29625.6375
608.90594	32758.2375
612.90624	36496.4375
616.90371	34664.0375
620.89834	28416.5375
624.89015	25538.1375
628.87913	25066.6375
632.86528	25276.2375
636.84862	25428.3375
640.82913	25155.7375
644.80683	24477.2375
648.78172	24037.4375
652.75379	24028.2375
656.72306	24352.5375
660.68952	24825.8375
664.65319	24696.6375
668.61405	24220.6375
672.57211	24096.5375
676.52738	24105.1375
680.47986	24073.5375
684.42955	23855.4375
688.37646	23748.1375
692.32058	23823.7375
696.26192	24102.5375
700.20048	24475.5375
704.13626	24707.3375
708.06928	24814.4375
711.99952	24733.4375
715.927	24719.4375
719.85171	24746.4375
723.77365	24599.0375
727.69284	24280.0375
731.60928	23916.9375
735.52295	23817.1375
739.43388	23778.6375
743.34206	23836.8375
747.24749	24005.3375
751.15017	24154.4375
755.05012	24507.8375
758.94733	25211.8375
762.8418	26701.2375
766.73354	29133.4375
770.62254	31492.1375
774.50882	32066.6375
778.39237	30731.0375
782.27321	28477.5375
786.15132	26385.6375
790.02671	25018.8375
793.89938	24343.7375
797.76935	24085.2375
801.6366	23965.3375
805.50115	23807.5375
809.36299	23750.5375
813.22213	23572.9375
817.07857	23511.9375
820.93231	23438.6375
824.78336	23462.0375
828.63172	23495.6375
832.47738	23546.7375
836.32036	23638.2375
840.16066	23677.0375
843.99827	23638.9375
847.8332	23552.1375
851.66546	23437.8375
855.49504	23424.7375
859.32195	23399.3375
863.1462	23360.3375
866.96777	23307.4375
870.78668	23273.9375
874.60293	23268.1375
878.41652	23343.7375
882.22745	23469.7375
886.03573	23550.8375
889.84136	23583.6375
893.64433	23542.2375
897.44466	23482.4375
901.24235	23455.7375
905.0374	23392.3375
908.8298	23357.5375
912.61957	23364.9375
916.40671	23525.2375
920.19121	23692.9375
923.97308	23944.5375
927.75233	24125.7375
931.52895	24160.7375
935.30295	23964.7375
939.07433	23517.7375
942.84309	23076.8375
946.60924	22840.5375
950.37278	22713.7375
954.13371	22639.4375
957.89203	22551.7375
961.64774	22565.3375
965.40086	22539.1375
969.15137	22518.4375
972.89929	22441.4375
976.64461	22484.2375
980.38733	22491.3375
984.12747	22551.8375
987.86502	22694.3375
991.59999	22861.0375
995.33237	23091.6375
999.06217	23530.2375
1002.78939	23943.1375
1006.51404	24352.9375
1010.23611	24818.5375
1013.95561	25045.6375
1017.67255	24973.1375
1021.38692	24685.8375
1025.09872	24386.8375
1028.80796	24279.6375
1032.51465	24512.5375
1036.21877	24858.9375
1039.92035	25089.4375
1043.61937	25113.4375
1047.31584	25074.0375
1051.00976	25028.5375
1054.70114	25046.7375
1058.38998	25323.4375
1062.07627	25815.0375
1065.76003	26549.2375
1069.44126	27515.7375
1073.11995	28589.3375
1076.79611	29241.4375
1080.46974	29097.2375
1084.14085	28508.4375
1087.80943	27912.9375
1091.47549	27541.7375
1095.13903	27150.2375
1098.80005	26595.2375
1102.45857	25869.2375
1106.11456	25348.1375
1109.76805	25037.9375
1113.41903	25001.4375
1117.06751	25196.6375
1120.71348	25524.4375
1124.35696	26008.0375
1127.99793	26508.8375
1131.63641	26707.0375
1135.2724	26426.8375
1138.90589	26091.5375
1142.5369	25836.9375
1146.16542	25658.5375
1149.79145	25577.9375
1153.415	25648.3375
1157.03607	25739.4375
1160.65467	26279.2375
1164.27079	27114.7375
1167.88443	28399.9375
1171.49561	30049.3375
1175.10432	32359.8375
1178.71056	35352.8375
1182.31434	37901.5375
1185.91565	39068.9375
1189.51451	38709.1375
1193.11091	37476.5375
1196.70485	35738.4375
1200.29634	33946.1375
1203.88538	32557.6375
1207.47197	31440.8375
1211.05612	30492.0375
1214.63782	29797.4375
1218.21708	29297.1375
1221.79391	28881.2375
1225.36829	28584.5375
1228.94024	28464.2375
1232.50976	28289.9375
1236.07685	28156.8375
1239.6415	27977.0375
1243.20374	27972.4375
1246.76355	28096.1375
1250.32093	28454.2375
1253.8759	28949.6375
1257.42845	29644.7375
1260.97859	30486.1375
1264.52631	31386.9375
1268.07163	32185.3375
1271.61453	33103.5375
1275.15503	33901.1375
1278.69312	34506.3375
1282.22882	35236.4375
1285.76211	35957.5375
1289.29301	36922.4375
1292.82151	38072.4375
1296.34761	39316.9375
1299.87133	41013.8375
1303.39266	43176.9375
1306.9116	45811.0375
1310.42815	48462.6375
1313.94233	49902.8375
1317.45412	49394.7375
1320.96354	47941.6375
1324.47058	46466.9375
1327.97525	45251.8375
1331.47754	44304.7375
1334.97747	43727.8375
1338.47502	43450.9375
1341.97022	43366.1375
1345.46305	43732.3375
1348.95352	44514.7375
1352.44163	45746.0375
1355.92738	47564.0375
1359.41078	50254.0375
1362.89183	52808.0375
1366.37053	51942.8375
1369.84688	47323.4375
1373.32088	41955.9375
1376.79254	38274.0375
1380.26186	36417.1375
1383.72883	35497.4375
1387.19347	34610.9375
1390.65578	33709.2375
1394.11575	33069.1375
1397.57339	32761.2375
1401.0287	32731.1375
1404.48168	32721.5375
1407.93234	32674.6375
1411.38068	32431.2375
1414.82669	31995.6375
1418.27039	31323.2375
1421.71177	30721.6375
1425.15083	30144.3375
1428.58758	29844.5375
1432.02203	30071.9375
1435.45416	30504.0375
1438.88399	30916.0375
1442.31151	31118.1375
1445.73673	31308.6375
1449.15965	31476.9375
1452.58027	31618.0375
1455.9986	31622.6375
1459.41463	31828.1375
1462.82837	32384.0375
1466.23982	33012.2375
1469.64898	33578.0375
1473.05586	34046.7375
1476.46045	34415.6375
1479.86276	34639.1375
1483.26279	34877.8375
1486.66054	35286.1375
1490.05602	35980.9375
1493.44922	37075.8375
1496.84016	38600.6375
1500.22882	40886.2375
1503.61521	43906.5375
1506.99934	47060.5375
1510.38121	49195.6375
1513.76081	49178.9375
1517.13816	46753.8375
1520.51324	43173.8375
1523.88607	40011.4375
1527.25665	37880.1375
1530.62498	36676.0375
1533.99105	35957.3375
1537.35488	35309.9375
1540.71647	34599.8375
1544.07581	33969.4375
1547.4329	33280.7375
1550.78776	32787.0375
1554.14038	32581.4375
1557.49077	32528.0375
1560.83892	32723.9375
1564.18484	33202.6375
1567.52853	33996.5375
1570.86999	35038.2375
1574.20922	36345.3375
1577.54624	37526.3375
1580.88103	37915.8375
1584.2136	37399.4375
1587.54395	36535.2375
1590.87208	35883.0375
1594.19801	36296.3375
1597.52172	37416.5375
1600.84321	37865.4375
1604.16251	36786.9375
1607.47959	34829.0375
1610.79447	32556.5375
1614.10715	30403.8375
1617.41763	28523.1375
1620.7259	27245.9375
1624.03199	26586.3375
1627.33587	26508.9375
1630.63757	27040.2375
1633.93707	28233.5375
1637.23439	30246.8375
1640.52951	33371.6375
1643.82246	37330.3375
1647.11321	41175.6375
1650.40179	43014.6375
1653.68819	41328.7375
1656.97241	36866.7375
1660.25446	31990.4375
1663.53433	28266.5375
1666.81203	25878.6375
1670.08756	24346.5375
1673.36092	23453.9375
1676.63211	22799.6375
1679.90115	22404.8375
1683.16801	22120.2375
1686.43272	21909.9375
1689.69527	21732.4375
1692.95567	21634.0375
1696.2139	21582.8375
1699.46999	21565.2375
1702.72392	21507.9375
1705.97571	21463.8375
1709.22535	21415.8375
1712.47284	21350.7375
1715.71819	21339.9375
1718.96139	21299.7375
1722.20246	21250.4375
1725.44139	21171.8375
1728.67818	21086.0375
1731.91284	20952.1375
1735.14537	20834.8375
1738.37576	20798.3375
1741.60403	20704.1375
1744.83017	20651.3375
1748.05418	20618.3375
1751.27607	20593.9375
1754.49584	20590.0375
1757.71349	20599.2375
1760.92903	20586.6375
1764.14244	20571.7375
1767.35375	20535.5375
1770.56294	20521.1375
1773.77002	20503.6375
1776.97499	20475.3375
1780.17785	20369.7375
1783.37861	20323.9375
1786.57727	20293.6375
1789.77382	20262.9375
1792.96828	20209.7375
1796.16064	20195.7375
1799.3509	20132.9375
1802.53907	20094.0375
1805.72514	20050.9375
1808.90913	20004.2375
1812.09102	19969.3375
1815.27083	19947.6375
1818.44856	19922.6375
1821.6242	19894.0375
1824.79776	19884.2375
1827.96924	19879.3375
1831.13864	19884.3375
1834.30597	19879.3375
1837.47122	19896.2375
1840.6344	19881.3375
1843.7955	19901.9375
1846.95454	19851.3375
1850.11151	19866.4375
1853.26642	19846.9375
1856.41926	19842.8375
1859.57004	19839.8375
1862.71876	19832.1375
1865.86542	19821.2375
1869.01003	19786.3375
1872.15258	19751.4375
1875.29308	19734.6375
1878.43152	19689.0375
1881.56792	19656.7375
1884.70227	19647.5375
1887.83457	19602.1375
1890.96482	19580.6375
1894.09304	19557.7375
1897.21921	19514.1375
1900.34335	19509.6375
1903.46544	19481.0375
1906.58551	19487.0375
1909.70353	19457.6375
1912.81953	19438.5375
1915.93349	19390.9375
1919.04543	19350.2375
1922.15534	19321.3375
1925.26322	19268.8375
1928.36908	19246.7375
1931.47292	19203.5375
1934.57473	19152.5375
1937.67453	19119.1375
1940.77232	19092.9375
1943.86808	19033.1375
1946.96184	18983.6375
1950.05358	18934.2375
1953.14331	18879.4375
1956.23103	18879.9375
1959.31675	18866.4375
1962.40046	18783.5375
1965.48217	18705.4375
1968.56188	18685.0375
1971.63959	18643.3375
1974.7153	18584.8375
1977.78901	18517.0375
1980.86073	18437.6375
1983.93046	18404.7375
1986.99819	18358.9375
1990.06394	18323.2375
1993.1277	18286.6375
1996.18947	18174.0375
1999.24925	18137.6375
2002.30706	18092.6375
2005.36288	18056.6375
2008.41672	18003.1375
2011.46859	17977.6375
2014.51848	17939.0375
2017.56639	17916.4375
2020.61233	17855.1375
2023.6563	17810.2375
2026.6983	17775.6375
2029.73833	17763.1375
2032.7764	17699.6375
2035.8125	17661.0375
2038.84664	17612.9375
2041.87881	17608.8375
2044.90903	17577.0375
2047.93729	17536.6375
2050.96359	17526.2375
2053.98794	17539.3375
2057.01034	17509.0375
2060.03078	17482.8375
2063.04927	17500.9375
2066.06582	17481.2375
2069.08042	17429.0375
2072.09307	17423.2375
2075.10378	17422.0375
2078.11255	17406.1375
2081.11938	17405.4375
2084.12426	17409.3375
2087.12722	17402.7375
2090.12824	17419.1375
2093.12732	17448.3375
2096.12447	17473.2375
2099.11969	17484.1375
2102.11299	17456.5375
2105.10435	17454.9375
2108.09379	17518.6375
2111.08131	17530.9375
2114.0669	17516.8375
2117.05057	17522.6375
2120.03233	17561.0375
2123.01216	17597.3375
2125.99008	17588.0375
2128.96609	17611.0375
2131.94018	17620.1375
2134.91236	17644.6375
2137.88263	17666.7375
2140.851	17646.7375
2143.81746	17691.4375
2146.78201	17694.7375
2149.74466	17676.8375
2152.7054	17704.6375
2155.66425	17696.8375
2158.6212	17698.2375
2161.57625	17666.7375
2164.52941	17678.2375
2167.48067	17687.9375
2170.43004	17678.3375
2173.37752	17660.9375
2176.32311	17717.2375
2179.26681	17670.4375
2182.20863	17691.0375
2185.14856	17653.5375
2188.08661	17687.5375
2191.02278	17704.7375
2193.95707	17668.7375
2196.88948	17647.1375
2199.82001	17610.9375
2202.74867	17638.1375
2205.67545	17612.1375
2208.60037	17625.0375
2211.52341	17601.0375
2214.44458	17572.8375
2217.36388	17538.7375
2220.28132	17541.1375
2223.1969	17504.4375
2226.11061	17505.2375
2229.02246	17449.8375
2231.93245	17432.3375
2234.84058	17387.0375
2237.74686	17410.3375
2240.65128	17388.1375
2243.55385	17331.5375
2246.45456	17295.7375
2249.35343	17304.0375
2252.25044	17277.0375
2255.14561	17228.6375
2258.03893	17239.3375
2260.93041	17261.4375
2263.82004	17187.7375
2266.70783	17210.9375
2269.59378	17127.5375
2272.4779	17096.6375
2275.36017	17062.9375
2278.24061	17014.1375
2281.11922	16986.5375
2283.996	16988.7375
2286.87094	16963.6375
2289.74405	16900.5375
2292.61534	16919.3375
2295.4848	16892.3375
2298.35243	16895.4375
2301.21824	16864.6375
2304.08223	16873.3375
2306.94439	16856.2375
2309.80474	16874.8375
2312.66327	16855.9375
2315.51999	16843.5375
2318.37489	16837.0375
2321.22797	16818.3375
2324.07925	16824.2375
2326.92871	16809.2375
2329.77637	16781.0375
2332.62222	16775.2375
2335.46626	16742.9375
2338.3085	16747.3375
2341.14893	16734.3375
2343.98756	16740.6375
2346.8244	16716.8375
2349.65943	16723.2375
2352.49267	16713.6375
2355.32411	16741.9375
2358.15376	16709.6375
2360.98161	16711.7375
2363.80768	16712.1375
2366.63195	16695.3375
2369.45444	16686.8375
2372.27514	16672.3375
2375.09405	16656.4375
2377.91118	16599.0375
2380.72652	16603.5375
2383.54009	16570.4375
2386.35187	16541.0375
2389.16188	16476.7375
2391.97011	16478.9375
2394.77657	16456.1375
2397.58125	16438.2375
2400.38416	16373.2375
2403.18529	16361.2375
2405.98466	16314.6375
2408.78226	16303.8375
2411.57809	16295.6375
2414.37216	16301.5375
2417.16446	16267.6375
2419.955	16240.3375
2422.74378	16262.8375
2425.5308	16218.0375
2428.31606	16214.1375
2431.09956	16229.5375
2433.88131	16200.5375
2436.6613	16209.0375
2439.43954	16198.7375
2442.21603	16148.5375
2444.99077	16187.1375
2447.76377	16208.6375
2450.53501	16166.3375
2453.30451	16139.4375
2456.07226	16145.6375
2458.83827	16143.8375
2461.60254	16141.2375
2464.36507	16112.4375
2467.12586	16112.2375
2469.88492	16127.1375
2472.64224	16137.4375
2475.39782	16100.3375
2478.15167	16114.7375
2480.90379	16140.6375
2483.65417	16117.3375
2486.40283	16142.2375
2489.14976	16150.9375
2491.89497	16142.2375
2494.63845	16158.2375
2497.3802	16127.9375
2500.12024	16121.8375
2502.85855	16087.9375
2505.59514	16101.2375
2508.33002	16050.1375
2511.06318	16019.0375
2513.79462	15960.8375
2516.52435	15963.5375
2519.25237	15959.4375
2521.97867	15970.7375
2524.70327	15955.1375
2527.42616	15907.2375
2530.14734	15923.9375
2532.86681	15893.5375
2535.58458	15924.1375
2538.30065	15885.5375
2541.01501	15847.6375
2543.72768	15848.7375
2546.43864	15880.4375
2549.14791	15843.2375
2551.85548	15795.1375
2554.56136	15772.2375
2557.26554	15798.4375
2559.96803	15785.1375
2562.66883	15765.8375
2565.36794	15742.3375
2568.06536	15721.7375
2570.7611	15721.9375
2573.45514	15687.3375
2576.14751	15688.7375
2578.83819	15655.7375
2581.52719	15617.4375
2584.21451	15636.2375
2586.90015	15608.3375
2589.58411	15583.2375
2592.2664	15539.5375
2594.94701	15516.0375
2597.62594	15516.2375
2600.30321	15495.0375
2602.9788	15485.7375
2605.65273	15469.8375
2608.32498	15442.9375
2610.99557	15462.2375
2613.66449	15409.9375
2616.33175	15424.4375
2618.99734	15419.1375
2621.66128	15394.0375
2624.32355	15360.1375
2626.98416	15364.8375
2629.64311	15343.5375
2632.30041	15355.7375
2634.95605	15338.2375
2637.61004	15306.4375
2640.26238	15256.7375
2642.91306	15288.9375
2645.56209	15236.0375
2648.20948	15266.8375
2650.85521	15265.3375
2653.4993	15243.2375
2656.14175	15241.9375
2658.78255	15289.1375
2661.42171	15266.7375
2664.05923	15278.8375
2666.6951	15243.8375
2669.32934	15254.1375
2671.96194	15263.6375
2674.59291	15261.5375
2677.22224	15262.1375
2679.84993	15267.4375
2682.476	15219.5375
2685.10043	15238.3375
2687.72324	15203.6375
2690.34441	15248.2375
2692.96396	15242.1375
2695.58188	15226.7375
2698.19818	15267.2375
2700.81285	15300.3375
2703.4259	15287.6375
2706.03733	15343.4375
2708.64714	15300.4375
2711.25533	15308.7375
2713.86191	15315.1375
2716.46687	15328.4375
2719.07021	15308.5375
2721.67194	15320.1375
2724.27206	15276.0375
2726.87057	15291.7375
2729.46747	15306.3375
2732.06276	15297.8375
2734.65644	15299.0375
2737.24852	15290.0375
2739.83899	15282.7375
2742.42786	15300.4375
2745.01513	15250.8375
2747.60079	15212.6375
2750.18486	15224.0375
2752.76733	15242.0375
2755.3482	15256.7375
2757.92747	15244.1375
2760.50515	15197.1375
2763.08123	15162.1375
2765.65573	15152.0375
2768.22863	15144.2375
2770.79994	15137.6375
2773.36967	15124.9375
2775.9378	15110.3375
2778.50435	15068.3375
2781.06932	15070.3375
2783.6327	15070.8375
2786.1945	15043.5375
2788.75471	15066.0375
2791.31335	14990.5375
2793.87041	14987.3375
2796.42589	14937.8375
2798.97979	14930.5375
2801.53212	14933.0375
2804.08288	14930.1375
2806.63206	14886.7375
2809.17967	14857.9375
2811.72571	14823.5375
2814.27018	14817.7375
2816.81308	14782.7375
2819.35442	14759.7375
2821.89419	14796.6375
2824.43239	14747.0375
2826.96904	14751.5375
2829.50412	14759.1375
2832.03763	14721.0375
2834.56959	14720.3375
2837.1	14683.5375
2839.62884	14706.2375
2842.15613	14721.5375
2844.68186	14721.7375
2847.20604	14731.4375
2849.72867	14760.3375
2852.24974	14759.0375
2854.76927	14736.9375
2857.28724	14739.6375
2859.80367	14721.5375
2862.31855	14724.8375
2864.83189	14724.2375
2867.34368	14712.9375
2869.85393	14729.1375
2872.36264	14724.0375
2874.8698	14710.8375
2877.37543	14728.2375
2879.87952	14707.7375
2882.38207	14726.7375
2884.88308	14680.7375
2887.38256	14736.4375
2889.88051	14706.2375
2892.37692	14705.8375
2894.8718	14713.8375
2897.36515	14700.7375
2899.85698	14698.9375
2902.34727	14753.0375
2904.83604	14723.4375
2907.32328	14754.6375
2909.809	14735.2375
2912.29319	14778.0375
2914.77587	14755.3375
2917.25702	14730.2375
2919.73665	14720.5375
2922.21476	14738.1375
2924.69136	14756.7375
2927.16644	14759.2375
2929.64	14740.0375
2932.11205	14686.7375
2934.58258	14691.7375
2937.05161	14700.5375
2939.51912	14718.4375
2941.98513	14646.5375
2944.44962	14587.7375
2946.91261	14558.3375
2949.37409	14598.4375
2951.83407	14600.4375
2954.29254	14566.7375
2956.74951	14530.2375
2959.20498	14526.6375
2961.65895	14518.5375
2964.11142	14529.0375
2966.56239	14493.1375
2969.01186	14473.9375
2971.45984	14441.0375
2973.90632	14398.2375
2976.35131	14371.1375
2978.7948	14352.3375
2981.23681	14302.2375
2983.67732	14306.3375
2986.11635	14292.6375
2988.55388	14259.4375
2990.98993	14239.1375
2993.4245	14195.0375
2995.85758	14178.8375
2998.28917	14151.0375
3000.71928	14152.4375
3003.14791	14144.0375
3005.57506	14088.4375
3008.00073	14093.0375
3010.42493	14090.0375
3012.84764	14034.9375
3015.26888	14025.0375
3017.68865	13987.7375
3020.10694	14009.5375
3022.52376	13938.9375
3024.9391	13957.3375
3027.35298	13949.1375
3029.76539	13965.1375
3032.17632	13936.6375
3034.5858	13875.4375
3036.9938	13877.8375
3039.40034	13867.5375
3041.80542	13827.7375
3044.20903	13795.3375
3046.61118	13821.0375
3049.01187	13787.2375
3051.4111	13785.2375
3053.80888	13752.4375
3056.20519	13772.4375
3058.60005	13731.5375
3060.99345	13704.3375
3063.3854	13700.3375
3065.7759	13660.5375
3068.16494	13618.8375
3070.55254	13590.3375
3072.93868	13605.3375
3075.32338	13572.2375
3077.70662	13511.5375
3080.08842	13479.8375
3082.46878	13493.8375
3084.84769	13476.5375
3087.22515	13441.5375
3089.60118	13481.6375
3091.97576	13469.4375
3094.3489	13485.7375
3096.72061	13478.8375
3099.09087	13448.5375
3101.4597	13443.7375
3103.82709	13448.6375
3106.19305	13425.8375
3108.55757	13430.4375
3110.92066	13376.2375
3113.28232	13357.9375
3115.64255	13319.5375
3118.00134	13317.2375
3120.35871	13305.7375
3122.71466	13293.6375
3125.06917	13270.7375
3127.42226	13243.8375
3129.77393	13259.7375
3132.12417	13252.4375
3134.47299	13268.0375
3136.82039	13253.7375
3139.16636	13273.6375
3141.51092	13264.0375
3143.85406	13270.6375
3146.19579	13277.9375
3148.53609	13280.1375
3150.87499	13326.0375
3153.21246	13298.9375
3155.54853	13319.4375
3157.88318	13360.6375
3160.21642	13343.0375
3162.54826	13316.0375
3164.87868	13308.7375
3167.2077	13317.5375
3169.5353	13313.1375
3171.86151	13282.4375
3174.18631	13296.0375
3176.5097	13289.0375
3178.83169	13266.2375
3181.15228	13260.9375
3183.47147	13237.3375
3185.78926	13200.9375
3188.10565	13210.9375
3190.42065	13206.1375
3192.73424	13186.1375
3195.04645	13198.3375
3197.35725	13211.9375
3199.66667	13192.6375
3201.97469	13243.8375
3204.28132	13227.6375
3206.58656	13262.2375
3208.8904	13244.8375
3211.19287	13235.9375
3213.49394	13234.6375
3215.79363	13241.7375
3218.09193	13232.3375
3220.38884	13245.3375
3222.68438	13274.0375
3224.97853	13227.8375
3227.2713	13219.7375
3229.56269	13180.5375
3231.8527	13196.1375
3234.14133	13156.2375
3236.42858	13140.2375
3238.71446	13142.4375
3240.99896	13138.5375
3243.28209	13114.7375
3245.56384	13085.1375
3247.84423	13124.0375
3250.12324	13092.1375
3252.40088	13111.2375
3254.67715	13093.5375
3256.95205	13079.8375
3259.22558	13102.0375
3261.49775	13073.5375
3263.76855	13056.8375
3266.03799	13041.5375
3268.30606	13015.4375
3270.57277	12958.1375
3272.83812	12955.9375
3275.10211	12968.5375
3277.36474	12943.7375
3279.62601	12958.6375
3281.88593	12924.4375
3284.14448	12948.9375
3286.40168	12942.1375
3288.65753	12931.7375
3290.91202	12870.6375
3293.16516	12851.3375
3295.41695	12816.1375
3297.66738	12749.4375
3299.91647	12687.8375
3302.16421	12622.6375
3304.4106	12575.7375
3306.65564	12513.9375
3308.89933	12436.2375
3311.14169	12381.3375
3313.38269	12280.0375
3315.62236	12232.5375
3317.86068	12102.8375
3320.09766	12000.7375
3322.3333	11888.9375
3324.5676	11905.9375
3326.80056	11718.1375
3329.03219	11655.3375
3331.26248	5.0375
3333.49143	-0.3625
3335.71905	0.1375
