Data from AgNP_FTO_APTES_CRN_1000uM_R6G_10uM_NaF_0.1M_Addition_RamanShift__6__20-57-18-271.txt Node

Date: Wed Dec 15 20:57:18 GMT 2021
User: TCL
Spectrometer: QEP01345
Trigger mode: 4
Integration Time (sec): 7.000000E0
Scans to average: 10
Electric dark correction enabled: true
Nonlinearity correction enabled: false
Boxcar width: 0
XAxis mode: Raman Shifts
Number of Pixels in Spectrum: 1044
>>>>>Begin Spectral Data<<<<<
46.04893	0.5
50.45542	-1.9
54.85868	0.4
59.25871	-0.6
63.6555	64.5
68.04907	71.5
72.43941	71.3
76.82654	81
81.21044	79.1
85.59113	77.7
89.96862	85.5
94.34289	84.8
98.71396	89.3
103.08183	96.3
107.4465	99.4
111.80798	97.8
116.16626	102.8
120.52136	109.1
124.87327	108.1
129.222	116.3
133.56755	122.7
137.90993	130.8
142.24913	147.6
146.58517	154.4
150.91804	189.1
155.24774	219.8
159.57429	270.1
163.89768	347.9
168.21792	464
172.53501	624.9
176.84895	866.5
181.15975	1218.7
185.46741	1713
189.77193	2365.2
194.07331	3170.8
198.37157	4072.8
202.6667	5037.5
206.9587	5985.7
211.24758	6910.2
215.53334	7850.2
219.81599	8818.7
224.09553	9875.9
228.37195	11028
232.64527	12283.7
236.91549	13632.5
241.18261	15037
245.44663	16335.6
249.70755	17581.2
253.96539	18684.2
258.22014	19632.4
262.4718	20355.7
266.72039	20831.1
270.96589	21144.8
275.20832	21187.2
279.44768	21056.5
283.68397	20891.7
287.91719	20725.8
292.14735	20618
296.37445	20541.9
300.59849	20475.3
304.81948	20479
309.03742	20348.6
313.25231	20183.7
317.46415	19923.2
321.67296	19559.3
325.87872	19297.9
330.08145	19171.7
334.28114	19221.1
338.47781	19304.6
342.67145	19497.3
346.86207	19739.5
351.04966	20030.8
355.23424	20300.4
359.4158	20496.1
363.59435	20730.1
367.76989	20868.4
371.94243	20979.4
376.11196	21080.2
380.27849	21171.9
384.44203	21265.2
388.60257	21490.5
392.76012	21717.9
396.91468	21917.4
401.06626	22161
405.21485	22390.7
409.36047	22400.8
413.50311	22344.5
417.64277	22316
421.77947	22377
425.9132	22470.9
430.04396	22682
434.17176	22801.6
438.2966	22983.7
442.41849	23222.1
446.53742	23627
450.6534	24124.6
454.76644	24478.2
458.87653	24658.8
462.98368	24613.2
467.08789	24519.3
471.18916	24368.2
475.2875	24302.4
479.38291	24304.5
483.4754	24167.6
487.56496	23954.8
491.6516	23601.5
495.73531	23283.6
499.81612	23123.2
503.89401	23227.6
507.96899	23336.9
512.04106	23359.9
516.11023	23290.4
520.1765	23135.1
524.23987	22989
528.30034	22843.1
532.35792	22725.6
536.41261	22541.7
540.46441	22406.4
544.51333	22483.6
548.55936	22672.9
552.60252	23004.5
556.64279	23435.3
560.6802	23763.7
564.71473	23976.2
568.7464	24299.1
572.7752	24831.4
576.80114	25393
580.82422	25884.4
584.84444	26462.9
588.86181	27211.4
592.87633	27662.7
596.888	27376.1
600.89682	26589.6
604.9028	26253.9
608.90594	26888
612.90624	27503.8
616.90371	26216.4
620.89834	23821.8
624.89015	22752.7
628.87913	22643.9
632.86528	22783.6
636.84862	22848.9
640.82913	22656.1
644.80683	22373.6
648.78172	22206.2
652.75379	22150.7
656.72306	22281.7
660.68952	22391.1
664.65319	22359.1
668.61405	22151.4
672.57211	22201.7
676.52738	22276
680.47986	22335.6
684.42955	22292.5
688.37646	22174.7
692.32058	22252.4
696.26192	22390.7
700.20048	22584.7
704.13626	22764.5
708.06928	22802.8
711.99952	22778.9
715.927	22794.2
719.85171	22768.4
723.77365	22677.8
727.69284	22487.4
731.60928	22264.1
735.52295	22204
739.43388	22216.1
743.34206	22207.7
747.24749	22304.1
751.15017	22446.9
755.05012	22703.5
758.94733	23114.4
762.8418	23803.2
766.73354	24827
770.62254	25561.4
774.50882	25573.6
778.39237	24784.5
782.27321	23753.3
786.15132	22912.6
790.02671	22364.8
793.89938	22087.3
797.76935	21986.5
801.6366	21998.5
805.50115	21985.6
809.36299	21907.1
813.22213	21844.6
817.07857	21798
820.93231	21711
824.78336	21618.9
828.63172	21550.8
832.47738	21510.7
836.32036	21525.2
840.16066	21524.9
843.99827	21516.3
847.8332	21487.3
851.66546	21508.8
855.49504	21510.4
859.32195	21504.4
863.1462	21456.1
866.96777	21454.2
870.78668	21423.1
874.60293	21472.7
878.41652	21463
882.22745	21526
886.03573	21565.4
889.84136	21549.3
893.64433	21511.5
897.44466	21477
901.24235	21421.2
905.0374	21371.9
908.8298	21348.6
912.61957	21381.4
916.40671	21525.6
920.19121	21689.4
923.97308	21788.3
927.75233	21716.3
931.52895	21551.9
935.30295	21293.5
939.07433	21087.9
942.84309	20887.1
946.60924	20784.2
950.37278	20734.6
954.13371	20719.1
957.89203	20701
961.64774	20700.6
965.40086	20682
969.15137	20652.9
972.89929	20500.5
976.64461	20425.7
980.38733	20369.7
984.12747	20413.7
987.86502	20475.6
991.59999	20486.6
995.33237	20607.9
999.06217	20842.8
1002.78939	21099.7
1006.51404	21343.7
1010.23611	21596.5
1013.95561	21833.5
1017.67255	21840.8
1021.38692	21703.7
1025.09872	21445.2
1028.80796	21260.7
1032.51465	21235.4
1036.21877	21267.5
1039.92035	21356.9
1043.61937	21406.9
1047.31584	21445.8
1051.00976	21545.8
1054.70114	21628.5
1058.38998	21816.2
1062.07627	22061.1
1065.76003	22484.9
1069.44126	22938.1
1073.11995	23280.4
1076.79611	23521.4
1080.46974	23363
1084.14085	23098.2
1087.80943	22988.7
1091.47549	22919.4
1095.13903	22863.5
1098.80005	22699.9
1102.45857	22360.7
1106.11456	21993.2
1109.76805	21893.3
1113.41903	21823
1117.06751	21907.3
1120.71348	22056.5
1124.35696	22200.1
1127.99793	22392.4
1131.63641	22576.6
1135.2724	22564.9
1138.90589	22501.5
1142.5369	22569.8
1146.16542	22648.5
1149.79145	22822.4
1153.415	23028.1
1157.03607	23343
1160.65467	23860.5
1164.27079	24665.4
1167.88443	25634.3
1171.49561	26622.4
1175.10432	27842.5
1178.71056	29322.5
1182.31434	30669.2
1185.91565	31312.1
1189.51451	31114.6
1193.11091	30689.1
1196.70485	29987.9
1200.29634	29209.8
1203.88538	28733.1
1207.47197	28542.9
1211.05612	28299.9
1214.63782	27937.5
1218.21708	27285.7
1221.79391	26573.7
1225.36829	26082.3
1228.94024	25771
1232.50976	25470.1
1236.07685	25220.5
1239.6415	25080.6
1243.20374	25079.1
1246.76355	25235.7
1250.32093	25486.1
1253.8759	25838.6
1257.42845	26398.4
1260.97859	26898.3
1264.52631	27462.5
1268.07163	27922.8
1271.61453	28507.2
1275.15503	29080
1278.69312	29783.7
1282.22882	30470.2
1285.76211	31289.6
1289.29301	32359.6
1292.82151	33724.8
1296.34761	35293.1
1299.87133	37076.6
1303.39266	38679.5
1306.9116	39975.8
1310.42815	40895.4
1313.94233	41345.6
1317.45412	41272.2
1320.96354	40901.4
1324.47058	40573.4
1327.97525	40447.8
1331.47754	40286.6
1334.97747	40179.5
1338.47502	39927.8
1341.97022	39583.6
1345.46305	39053.8
1348.95352	38511.7
1352.44163	38251.7
1355.92738	38392.7
1359.41078	38969.7
1362.89183	39503.1
1366.37053	38922
1369.84688	36805.1
1373.32088	34027.3
1376.79254	32081.2
1380.26186	31363.7
1383.72883	31510.1
1387.19347	31654.9
1390.65578	31627.6
1394.11575	31689
1397.57339	32047.6
1401.0287	32527
1404.48168	32774.9
1407.93234	32582.6
1411.38068	31897.1
1414.82669	30753.5
1418.27039	29572.4
1421.71177	28366.2
1425.15083	27454.6
1428.58758	26982.9
1432.02203	27173.2
1435.45416	27695.9
1438.88399	28538.4
1442.31151	29058.5
1445.73673	29400.4
1449.15965	29749.8
1452.58027	29922.2
1455.9986	30008.9
1459.41463	30183.8
1462.82837	30560.6
1466.23982	30952.8
1469.64898	31227.7
1473.05586	31411.5
1476.46045	31401.9
1479.86276	31111.7
1483.26279	30774.1
1486.66054	30520
1490.05602	30551.6
1493.44922	30675.6
1496.84016	30851.2
1500.22882	31188.5
1503.61521	31645
1506.99934	32155
1510.38121	32592.4
1513.76081	32561.3
1517.13816	32257.3
1520.51324	31811.3
1523.88607	31591.4
1527.25665	31652.1
1530.62498	31835.8
1533.99105	31837.8
1537.35488	31582
1540.71647	31086.4
1544.07581	30402.2
1547.4329	29707.8
1550.78776	29056
1554.14038	28585.8
1557.49077	28272.8
1560.83892	28169.4
1564.18484	28088.7
1567.52853	28271.9
1570.86999	28707.5
1574.20922	29531.1
1577.54624	30351.9
1580.88103	31000
1584.2136	31385.8
1587.54395	31819.9
1590.87208	32501.2
1594.19801	33495.3
1597.52172	34536.4
1600.84321	34628
1604.16251	33394.3
1607.47959	31307.3
1610.79447	29073.1
1614.10715	27082
1617.41763	25389.7
1620.7259	24275.4
1624.03199	23654.6
1627.33587	23655.6
1630.63757	24178.5
1633.93707	25405.5
1637.23439	27459.3
1640.52951	30399.3
1643.82246	33716
1647.11321	36133.1
1650.40179	36309.5
1653.68819	33925.3
1656.97241	30169.6
1660.25446	26596.1
1663.53433	23985
1666.81203	22187
1670.08756	21058.1
1673.36092	20308.8
1676.63211	19832.7
1679.90115	19481
1683.16801	19188
1686.43272	19020.1
1689.69527	18851.3
1692.95567	18749.9
1696.2139	18676.9
1699.46999	18592.5
1702.72392	18581.1
1705.97571	18547.7
1709.22535	18469.8
1712.47284	18440.9
1715.71819	18427.4
1718.96139	18341.4
1722.20246	18286.6
1725.44139	18242.6
1728.67818	18129.3
1731.91284	18050.8
1735.14537	17968.5
1738.37576	17939.9
1741.60403	17874.3
1744.83017	17815.7
1748.05418	17778.1
1751.27607	17761.8
1754.49584	17763.3
1757.71349	17736.4
1760.92903	17751.2
1764.14244	17725.8
1767.35375	17711.5
1770.56294	17657.4
1773.77002	17626.2
1776.97499	17591.1
1780.17785	17529.3
1783.37861	17523.9
1786.57727	17497.9
1789.77382	17394.6
1792.96828	17378.2
1796.16064	17337.4
1799.3509	17298.1
1802.53907	17280.2
1805.72514	17245.9
1808.90913	17178.5
1812.09102	17153.3
1815.27083	17105.9
1818.44856	17083.9
1821.6242	17053.9
1824.79776	17023.8
1827.96924	17036.3
1831.13864	17034.6
1834.30597	17014
1837.47122	16993
1840.6344	16958.1
1843.7955	16955.5
1846.95454	16926.2
1850.11151	16958.8
1853.26642	16907.6
1856.41926	16899.3
1859.57004	16873.3
1862.71876	16849.9
1865.86542	16859.2
1869.01003	16834.9
1872.15258	16827
1875.29308	16816.2
1878.43152	16803.5
1881.56792	16779.4
1884.70227	16736.7
1887.83457	16733.7
1890.96482	16709.7
1894.09304	16674.4
1897.21921	16664.3
1900.34335	16633.6
1903.46544	16612.4
1906.58551	16602.6
1909.70353	16558.7
1912.81953	16532.3
1915.93349	16532.6
1919.04543	16469.4
1922.15534	16397.9
1925.26322	16376.1
1928.36908	16396.9
1931.47292	16370.8
1934.57473	16291.5
1937.67453	16229.6
1940.77232	16222.6
1943.86808	16191.4
1946.96184	16176.2
1950.05358	16092
1953.14331	16044.2
1956.23103	16022.7
1959.31675	15954.2
1962.40046	15906.8
1965.48217	15874.5
1968.56188	15809.8
1971.63959	15792.2
1974.7153	15722
1977.78901	15648.6
1980.86073	15601.7
1983.93046	15584.2
1986.99819	15547.9
1990.06394	15503.1
1993.1277	15466.7
1996.18947	15403.2
1999.24925	15368.8
2002.30706	15287.5
2005.36288	15239.8
2008.41672	15184
2011.46859	15149.5
2014.51848	15143.6
2017.56639	15102
2020.61233	15075.6
2023.6563	15040.5
2026.6983	14989.3
2029.73833	14977.7
2032.7764	14920.5
2035.8125	14925.2
2038.84664	14838
2041.87881	14845.8
2044.90903	14799.8
2047.93729	14742.4
2050.96359	14748.8
2053.98794	14752.7
2057.01034	14722.1
2060.03078	14685.9
2063.04927	14671.2
2066.06582	14665.7
2069.08042	14666.6
2072.09307	14659.5
2075.10378	14635.1
2078.11255	14611
2081.11938	14642
2084.12426	14612.4
2087.12722	14619.1
2090.12824	14590.8
2093.12732	14617.8
2096.12447	14619.2
2099.11969	14595.3
2102.11299	14615.6
2105.10435	14591.5
2108.09379	14591.6
2111.08131	14596.8
2114.0669	14597.7
2117.05057	14602.2
2120.03233	14624.1
2123.01216	14614.8
2125.99008	14611.9
2128.96609	14648.4
2131.94018	14640
2134.91236	14655.7
2137.88263	14634.4
2140.851	14643.7
2143.81746	14641
2146.78201	14658.4
2149.74466	14660.9
2152.7054	14693.3
2155.66425	14683.1
2158.6212	14691.6
2161.57625	14659
2164.52941	14631.6
2167.48067	14642
2170.43004	14611.2
2173.37752	14602
2176.32311	14637.5
2179.26681	14622.8
2182.20863	14617.8
2185.14856	14601.9
2188.08661	14565.5
2191.02278	14595.3
2193.95707	14525
2196.88948	14496.7
2199.82001	14510.7
2202.74867	14497.6
2205.67545	14511.7
2208.60037	14481.3
2211.52341	14462.1
2214.44458	14450
2217.36388	14384
2220.28132	14370.6
2223.1969	14328.6
2226.11061	14297
2229.02246	14294
2231.93245	14292.4
2234.84058	14247.1
2237.74686	14244.5
2240.65128	14201.1
2243.55385	14162.4
2246.45456	14147.1
2249.35343	14132.9
2252.25044	14102.7
2255.14561	14064.3
2258.03893	14072.2
2260.93041	14016.6
2263.82004	13995.6
2266.70783	13968.6
2269.59378	13931.3
2272.4779	13877.4
2275.36017	13856
2278.24061	13820.1
2281.11922	13751.6
2283.996	13773.6
2286.87094	13718.8
2289.74405	13718.9
2292.61534	13680
2295.4848	13666
2298.35243	13662.1
2301.21824	13637.1
2304.08223	13614.7
2306.94439	13617.7
2309.80474	13596
2312.66327	13590.7
2315.51999	13624.9
2318.37489	13581.8
2321.22797	13553.4
2324.07925	13536.9
2326.92871	13519
2329.77637	13546.8
2332.62222	13482.8
2335.46626	13463.4
2338.3085	13445
2341.14893	13420.7
2343.98756	13403.5
2346.8244	13391
2349.65943	13394.8
2352.49267	13408.4
2355.32411	13379.5
2358.15376	13371.3
2360.98161	13369.8
2363.80768	13326
2366.63195	13332.7
2369.45444	13287.6
2372.27514	13312.4
2375.09405	13278.1
2377.91118	13260.5
2380.72652	13189.5
2383.54009	13193.2
2386.35187	13190.7
2389.16188	13147.4
2391.97011	13125.5
2394.77657	13113.8
2397.58125	13061.9
2400.38416	13042.6
2403.18529	13036.7
2405.98466	13012
2408.78226	13001.2
2411.57809	12975.6
2414.37216	12939.6
2417.16446	12939.6
2419.955	12918.2
2422.74378	12894.2
2425.5308	12867.1
2428.31606	12854.2
2431.09956	12869
2433.88131	12857.4
2436.6613	12840.5
2439.43954	12835.6
2442.21603	12816.6
2444.99077	12794.9
2447.76377	12814.5
2450.53501	12788.5
2453.30451	12774.3
2456.07226	12760.9
2458.83827	12740.4
2461.60254	12729.7
2464.36507	12719
2467.12586	12748.6
2469.88492	12706.5
2472.64224	12660.6
2475.39782	12643.5
2478.15167	12672.6
2480.90379	12641.7
2483.65417	12654.7
2486.40283	12626.9
2489.14976	12684.1
2491.89497	12627.9
2494.63845	12635.3
2497.3802	12621.4
2500.12024	12593.7
2502.85855	12604.3
2505.59514	12598.4
2508.33002	12580.3
2511.06318	12577.7
2513.79462	12559.5
2516.52435	12547.9
2519.25237	12507.1
2521.97867	12483.5
2524.70327	12522.1
2527.42616	12475.3
2530.14734	12465.7
2532.86681	12441.2
2535.58458	12438.7
2538.30065	12422.5
2541.01501	12391.9
2543.72768	12377.3
2546.43864	12379.4
2549.14791	12353.3
2551.85548	12333.7
2554.56136	12297.8
2557.26554	12277.5
2559.96803	12255.6
2562.66883	12255.1
2565.36794	12243.2
2568.06536	12238
2570.7611	12202.3
2573.45514	12198.6
2576.14751	12193.3
2578.83819	12161.5
2581.52719	12136.9
2584.21451	12103.6
2586.90015	12109.6
2589.58411	12098.2
2592.2664	12068.2
2594.94701	12040.9
2597.62594	12027.7
2600.30321	12024
2602.9788	12010
2605.65273	11969.5
2608.32498	11979.2
2610.99557	11972.2
2613.66449	11924.6
2616.33175	11915.3
2618.99734	11922.3
2621.66128	11902.5
2624.32355	11895.1
2626.98416	11887.4
2629.64311	11883.3
2632.30041	11851.5
2634.95605	11860.8
2637.61004	11851.2
2640.26238	11814.7
2642.91306	11822.2
2645.56209	11801.4
2648.20948	11820.5
2650.85521	11808.8
2653.4993	11818
2656.14175	11792.2
2658.78255	11778.3
2661.42171	11779.4
2664.05923	11809.6
2666.6951	11792.5
2669.32934	11791
2671.96194	11772.7
2674.59291	11783.9
2677.22224	11783.2
2679.84993	11766.9
2682.476	11759
2685.10043	11760.6
2687.72324	11719.2
2690.34441	11751.7
2692.96396	11729.7
2695.58188	11754.9
2698.19818	11737.8
2700.81285	11770.8
2703.4259	11744.8
2706.03733	11801.7
2708.64714	11764.6
2711.25533	11784.6
2713.86191	11766.8
2716.46687	11762.8
2719.07021	11758.8
2721.67194	11747
2724.27206	11776.5
2726.87057	11737.3
2729.46747	11743.6
2732.06276	11736.4
2734.65644	11740.7
2737.24852	11704.9
2739.83899	11721.1
2742.42786	11715.9
2745.01513	11694
2747.60079	11671.7
2750.18486	11668.1
2752.76733	11690.9
2755.3482	11674.3
2757.92747	11627.4
2760.50515	11615.8
2763.08123	11627.6
2765.65573	11609.3
2768.22863	11612.8
2770.79994	11603.8
2773.36967	11610.1
2775.9378	11602.1
2778.50435	11569.6
2781.06932	11531.3
2783.6327	11540.4
2786.1945	11522.3
2788.75471	11496.7
2791.31335	11483.6
2793.87041	11467.8
2796.42589	11434.5
2798.97979	11433.4
2801.53212	11405.4
2804.08288	11376.8
2806.63206	11323.7
2809.17967	11330.9
2811.72571	11288
2814.27018	11277.9
2816.81308	11260.2
2819.35442	11240.9
2821.89419	11231.9
2824.43239	11204.3
2826.96904	11194.3
2829.50412	11190.6
2832.03763	11162.2
2834.56959	11165.1
2837.1	11156.9
2839.62884	11153.2
2842.15613	11175.1
2844.68186	11167.9
2847.20604	11186.8
2849.72867	11191
2852.24974	11164.7
2854.76927	11161.6
2857.28724	11131.9
2859.80367	11117.6
2862.31855	11117.6
2864.83189	11091.7
2867.34368	11069.1
2869.85393	11082
2872.36264	11018
2874.8698	11019.3
2877.37543	11037.4
2879.87952	11022.3
2882.38207	11028.8
2884.88308	11019.6
2887.38256	10999.5
2889.88051	11038.3
2892.37692	11017.1
2894.8718	11017.3
2897.36515	10997.1
2899.85698	11026.2
2902.34727	11033
2904.83604	11044.5
2907.32328	11038.6
2909.809	11043
2912.29319	11044
2914.77587	11015
2917.25702	11019.4
2919.73665	11012.2
2922.21476	11026.5
2924.69136	11018.3
2927.16644	11027.5
2929.64	11003.9
2932.11205	10988.9
2934.58258	10954.9
2937.05161	11002
2939.51912	11005.5
2941.98513	10991.7
2944.44962	10960.3
2946.91261	10916.9
2949.37409	10902.5
2951.83407	10893.8
2954.29254	10893.4
2956.74951	10836.8
2959.20498	10837.7
2961.65895	10826.5
2964.11142	10798.1
2966.56239	10789.2
2969.01186	10776.6
2971.45984	10743.4
2973.90632	10727.8
2976.35131	10689.6
2978.7948	10657.2
2981.23681	10656.7
2983.67732	10624.7
2986.11635	10614.5
2988.55388	10574.9
2990.98993	10553.7
2993.4245	10522.3
2995.85758	10484.2
2998.28917	10469.6
3000.71928	10452.6
3003.14791	10423.7
3005.57506	10410.7
3008.00073	10430.8
3010.42493	10411.2
3012.84764	10386.4
3015.26888	10360.4
3017.68865	10354.5
3020.10694	10326.5
3022.52376	10301.6
3024.9391	10271.4
3027.35298	10290.5
3029.76539	10276.5
3032.17632	10268.1
3034.5858	10244
3036.9938	10242.8
3039.40034	10214.7
3041.80542	10214.4
3044.20903	10205
3046.61118	10186.1
3049.01187	10173.3
3051.4111	10149.1
3053.80888	10134
3056.20519	10121.1
3058.60005	10113.1
3060.99345	10073.5
3063.3854	10053.2
3065.7759	10044.5
3068.16494	10039.6
3070.55254	9996.9
3072.93868	9962.9
3075.32338	9958.9
3077.70662	9924.7
3080.08842	9876.5
3082.46878	9903.4
3084.84769	9851.6
3087.22515	9861.1
3089.60118	9886.3
3091.97576	9893.2
3094.3489	9874.8
3096.72061	9888.3
3099.09087	9893.3
3101.4597	9870.9
3103.82709	9843.2
3106.19305	9825.1
3108.55757	9835.1
3110.92066	9823.5
3113.28232	9780.8
3115.64255	9760.4
3118.00134	9732.8
3120.35871	9744.1
3122.71466	9742.5
3125.06917	9702.6
3127.42226	9668.8
3129.77393	9694.6
3132.12417	9683.6
3134.47299	9682.4
3136.82039	9698.2
3139.16636	9717.8
3141.51092	9692
3143.85406	9699.9
3146.19579	9700.3
3148.53609	9689.2
3150.87499	9687.5
3153.21246	9690.4
3155.54853	9700.6
3157.88318	9687
3160.21642	9683.8
3162.54826	9675.9
3164.87868	9673.7
3167.2077	9678.6
3169.5353	9698.4
3171.86151	9699.8
3174.18631	9664.6
3176.5097	9696.8
3178.83169	9658.9
3181.15228	9659.8
3183.47147	9647.8
3185.78926	9650.8
3188.10565	9642.4
3190.42065	9646.8
3192.73424	9625.5
3195.04645	9621.1
3197.35725	9622.7
3199.66667	9606
3201.97469	9607.2
3204.28132	9622.4
3206.58656	9614.9
3208.8904	9592.2
3211.19287	9585
3213.49394	9625
3215.79363	9586.9
3218.09193	9611.9
3220.38884	9596.6
3222.68438	9640.2
3224.97853	9607.1
3227.2713	9590
3229.56269	9573.3
3231.8527	9558.4
3234.14133	9541.3
3236.42858	9512.8
3238.71446	9524.8
3240.99896	9505.7
3243.28209	9502.8
3245.56384	9491.3
3247.84423	9511.5
3250.12324	9482.8
3252.40088	9476.3
3254.67715	9458.7
3256.95205	9441.6
3259.22558	9439.4
3261.49775	9421.6
3263.76855	9403.4
3266.03799	9371.4
3268.30606	9381.8
3270.57277	9339.4
3272.83812	9324.3
3275.10211	9295.2
3277.36474	9286.3
3279.62601	9300.7
3281.88593	9279.6
3284.14448	9326.7
3286.40168	9297.2
3288.65753	9275.4
3290.91202	9253.8
3293.16516	9212.5
3295.41695	9216.4
3297.66738	9141.3
3299.91647	9090.6
3302.16421	9050.8
3304.4106	9026.6
3306.65564	8974.4
3308.89933	8889.4
3311.14169	8852.3
3313.38269	8783.1
3315.62236	8745.2
3317.86068	8649
3320.09766	8566.2
3322.3333	8484.6
3324.5676	8500.5
3326.80056	8355.9
3329.03219	8307.3
3331.26248	2.8
3333.49143	-0.5
3335.71905	-1
