Data from AgNP_FTO_APTES_CRN_1uM_R6G_10uM_NaF_0.1M_Addition_RamanShift__21__14-10-00-805.txt Node

Date: Wed Dec 15 14:10:00 GMT 2021
User: TCL
Spectrometer: QEP01345
Trigger mode: 4
Integration Time (sec): 7.000000E0
Scans to average: 10
Electric dark correction enabled: true
Nonlinearity correction enabled: false
Boxcar width: 0
XAxis mode: Raman Shifts
Number of Pixels in Spectrum: 1044
>>>>>Begin Spectral Data<<<<<
46.04893	0.0375
50.45542	-2.8625
54.85868	-0.2625
59.25871	-0.7625
63.6555	133.5375
68.04907	146.9375
72.43941	151.5375
76.82654	160.0375
81.21044	164.5375
85.59113	176.7375
89.96862	181.5375
94.34289	186.2375
98.71396	191.3375
103.08183	202.7375
107.4465	205.1375
111.80798	206.2375
116.16626	213.7375
120.52136	222.9375
124.87327	224.8375
129.222	236.5375
133.56755	241.9375
137.90993	264.4375
142.24913	283.4375
146.58517	313.0375
150.91804	357.8375
155.24774	424.1375
159.57429	519.2375
163.89768	653.1375
168.21792	851.9375
172.53501	1165.3375
176.84895	1604.7375
181.15975	2250.0375
185.46741	3128.8375
189.77193	4290.3375
194.07331	5719.4375
198.37157	7326.3375
202.6667	9045.9375
206.9587	10726.5375
211.24758	12396.2375
215.53334	14072.9375
219.81599	15881.0375
224.09553	17870.8375
228.37195	20104.4375
232.64527	22551.5375
236.91549	25070.5375
241.18261	27602.4375
245.44663	29881.9375
249.70755	31887.4375
253.96539	33610.0375
258.22014	35099.2375
262.4718	36297.0375
266.72039	37224.1375
270.96589	37734.5375
275.20832	37820.1375
279.44768	37594.5375
283.68397	37248.8375
287.91719	36943.4375
292.14735	36795.4375
296.37445	36891.4375
300.59849	37143.9375
304.81948	37434.7375
309.03742	37596.2375
313.25231	37348.8375
317.46415	36477.4375
321.67296	35302.7375
325.87872	34310.7375
330.08145	33753.1375
334.28114	33772.2375
338.47781	34021.8375
342.67145	34493.9375
346.86207	35164.6375
351.04966	36038.9375
355.23424	36989.0375
359.4158	37806.9375
363.59435	38445.5375
367.76989	38735.8375
371.94243	38920.6375
376.11196	39029.6375
380.27849	39043.0375
384.44203	39152.9375
388.60257	39328.8375
392.76012	39643.9375
396.91468	40150.7375
401.06626	40882.6375
405.21485	41408.1375
409.36047	41267.8375
413.50311	40528.5375
417.64277	39875.7375
421.77947	39599.6375
425.9132	39712.6375
430.04396	39941.2375
434.17176	40168.6375
438.2966	40568.9375
442.41849	41230.6375
446.53742	42338.9375
450.6534	43684.6375
454.76644	44788.7375
458.87653	45117.7375
462.98368	44912.6375
467.08789	44255.7375
471.18916	43400.7375
475.2875	42506.3375
479.38291	41935.5375
483.4754	41553.1375
487.56496	41047.9375
491.6516	40494.9375
495.73531	40115.8375
499.81612	40016.9375
503.89401	40335.4375
507.96899	40605.1375
512.04106	40671.0375
516.11023	40590.4375
520.1765	40401.4375
524.23987	40173.6375
528.30034	39820.9375
532.35792	39253.7375
536.41261	38571.6375
540.46441	37994.7375
544.51333	37904.6375
548.55936	38302.1375
552.60252	39168.6375
556.64279	40018.3375
560.6802	40544.2375
564.71473	40833.5375
568.7464	41556.9375
572.7752	42585.8375
576.80114	43317.2375
580.82422	44140.1375
584.84444	45010.6375
588.86181	45788.7375
592.87633	46713.0375
596.888	47472.5375
600.89682	47955.0375
604.9028	50159.9375
608.90594	55228.7375
612.90624	59858.4375
616.90371	55533.2375
620.89834	45577.8375
624.89015	41404.3375
628.87913	40989.9375
632.86528	41020.4375
636.84862	40524.2375
640.82913	39673.5375
644.80683	38366.2375
648.78172	37406.2375
652.75379	37268.2375
656.72306	37913.9375
660.68952	38754.1375
664.65319	38566.6375
668.61405	37756.6375
672.57211	37409.5375
676.52738	37425.0375
680.47986	37320.7375
684.42955	37091.1375
688.37646	36983.7375
692.32058	37282.5375
696.26192	37738.2375
700.20048	38267.4375
704.13626	38541.2375
708.06928	38429.0375
711.99952	38129.9375
715.927	38150.2375
719.85171	38278.0375
723.77365	38072.5375
727.69284	37489.5375
731.60928	36986.8375
735.52295	36813.9375
739.43388	36836.0375
743.34206	37006.0375
747.24749	37224.9375
751.15017	37663.3375
755.05012	38428.0375
758.94733	39746.7375
762.8418	42088.9375
766.73354	45872.4375
770.62254	49442.8375
774.50882	50165.8375
778.39237	47444.0375
782.27321	43396.7375
786.15132	40205.2375
790.02671	38341.0375
793.89938	37501.4375
797.76935	37233.3375
801.6366	37157.8375
805.50115	37020.6375
809.36299	36676.1375
813.22213	36394.6375
817.07857	36193.0375
820.93231	36087.4375
824.78336	36057.0375
828.63172	35991.8375
832.47738	36084.6375
836.32036	36153.0375
840.16066	36439.7375
843.99827	36715.1375
847.8332	36551.3375
851.66546	36313.1375
855.49504	36145.3375
859.32195	36099.6375
863.1462	35900.5375
866.96777	35660.5375
870.78668	35510.9375
874.60293	35489.6375
878.41652	35497.8375
882.22745	35641.7375
886.03573	35778.6375
889.84136	35716.5375
893.64433	35483.3375
897.44466	35291.4375
901.24235	35250.5375
905.0374	35185.6375
908.8298	35118.1375
912.61957	35290.7375
916.40671	35637.9375
920.19121	36329.9375
923.97308	37010.8375
927.75233	37370.0375
931.52895	37244.6375
935.30295	36643.6375
939.07433	35783.1375
942.84309	35146.4375
946.60924	34978.5375
950.37278	34932.6375
954.13371	34772.0375
957.89203	34494.7375
961.64774	34360.4375
965.40086	34276.7375
969.15137	34207.9375
972.89929	34125.6375
976.64461	34065.2375
980.38733	34148.2375
984.12747	34371.6375
987.86502	34841.2375
991.59999	35490.1375
995.33237	36530.3375
999.06217	38035.0375
1002.78939	39793.1375
1006.51404	40802.8375
1010.23611	41377.1375
1013.95561	41673.2375
1017.67255	41394.5375
1021.38692	40701.4375
1025.09872	40357.8375
1028.80796	41079.5375
1032.51465	43017.0375
1036.21877	44794.7375
1039.92035	45010.4375
1043.61937	44030.5375
1047.31584	42315.9375
1051.00976	40567.9375
1054.70114	39615.6375
1058.38998	39527.4375
1062.07627	39784.1375
1065.76003	40225.4375
1069.44126	40898.7375
1073.11995	42008.1375
1076.79611	42988.7375
1080.46974	43391.4375
1084.14085	43512.2375
1087.80943	43588.6375
1091.47549	43463.5375
1095.13903	43022.2375
1098.80005	42205.6375
1102.45857	41081.2375
1106.11456	40293.8375
1109.76805	40075.6375
1113.41903	40184.2375
1117.06751	40461.7375
1120.71348	40809.8375
1124.35696	41287.7375
1127.99793	41840.4375
1131.63641	42147.6375
1135.2724	41919.9375
1138.90589	41614.5375
1142.5369	41409.9375
1146.16542	41298.8375
1149.79145	41470.6375
1153.415	41807.7375
1157.03607	42451.3375
1160.65467	43587.3375
1164.27079	45561.8375
1167.88443	48264.8375
1171.49561	51664.0375
1175.10432	56273.7375
1178.71056	62017.7375
1182.31434	67347.7375
1185.91565	70011.2375
1189.51451	69494.0375
1193.11091	66419.5375
1196.70485	62681.5375
1200.29634	59433.0375
1203.88538	57098.1375
1207.47197	55597.7375
1211.05612	54368.0375
1214.63782	53617.3375
1218.21708	53108.2375
1221.79391	52810.3375
1225.36829	52625.4375
1228.94024	52092.6375
1232.50976	50979.6375
1236.07685	50096.0375
1239.6415	49607.3375
1243.20374	49478.8375
1246.76355	49828.8375
1250.32093	50804.1375
1253.8759	52216.5375
1257.42845	53973.2375
1260.97859	55757.8375
1264.52631	57472.4375
1268.07163	59318.4375
1271.61453	61396.3375
1275.15503	63674.8375
1278.69312	65913.5375
1282.22882	67803.3375
1285.76211	69384.2375
1289.29301	71016.2375
1292.82151	73086.9375
1296.34761	76008.0375
1299.87133	80410.5375
1303.39266	85913.2375
1306.9116	92229.3375
1310.42815	98377.9375
1313.94233	102203.5375
1317.45412	102285.6375
1320.96354	99704.8375
1324.47058	96409.7375
1327.97525	93551.3375
1331.47754	91507.5375
1334.97747	90397.4375
1338.47502	89857.0375
1341.97022	89100.0375
1345.46305	87648.2375
1348.95352	86134.3375
1352.44163	85878.6375
1355.92738	88106.4375
1359.41078	93255.5375
1362.89183	98054.8375
1366.37053	96705.6375
1369.84688	88415.8375
1373.32088	78385.6375
1376.79254	71328.2375
1380.26186	68283.7375
1383.72883	67608.3375
1387.19347	67043.8375
1390.65578	65961.4375
1394.11575	65261.7375
1397.57339	65598.6375
1401.0287	66841.2375
1404.48168	68177.2375
1407.93234	68821.9375
1411.38068	68309.9375
1414.82669	66649.7375
1418.27039	64143.7375
1421.71177	61505.0375
1425.15083	59120.7375
1428.58758	57929.6375
1432.02203	58074.8375
1435.45416	59456.0375
1438.88399	61250.8375
1442.31151	62833.1375
1445.73673	63910.6375
1449.15965	64714.1375
1452.58027	65064.3375
1455.9986	65084.3375
1459.41463	65367.2375
1462.82837	66397.4375
1466.23982	68090.4375
1469.64898	69728.8375
1473.05586	70787.6375
1476.46045	71125.9375
1479.86276	70801.8375
1483.26279	70062.9375
1486.66054	69391.4375
1490.05602	69334.3375
1493.44922	69644.0375
1496.84016	70118.2375
1500.22882	71333.8375
1503.61521	73538.1375
1506.99934	76478.6375
1510.38121	79260.4375
1513.76081	80270.3375
1517.13816	78513.2375
1520.51324	74944.3375
1523.88607	71466.0375
1527.25665	69343.3375
1530.62498	68319.9375
1533.99105	67856.7375
1537.35488	67402.5375
1540.71647	66581.3375
1544.07581	65598.2375
1547.4329	64437.6375
1550.78776	63258.5375
1554.14038	62363.3375
1557.49077	61878.4375
1560.83892	61633.2375
1564.18484	61517.3375
1567.52853	61715.0375
1570.86999	62472.0375
1574.20922	63817.5375
1577.54624	65179.6375
1580.88103	65827.8375
1584.2136	66383.3375
1587.54395	67994.9375
1590.87208	70972.6375
1594.19801	75582.1375
1597.52172	80429.0375
1600.84321	81844.1375
1604.16251	77811.9375
1607.47959	70886.2375
1610.79447	63875.5375
1614.10715	57707.2375
1617.41763	52904.4375
1620.7259	49735.9375
1624.03199	48202.3375
1627.33587	48372.9375
1630.63757	50011.9375
1633.93707	53545.5375
1637.23439	59020.4375
1640.52951	66362.4375
1643.82246	74477.3375
1647.11321	80308.2375
1650.40179	80861.0375
1653.68819	74794.3375
1656.97241	64708.5375
1660.25446	54777.7375
1663.53433	47484.4375
1666.81203	42859.7375
1670.08756	39936.1375
1673.36092	38100.2375
1676.63211	36897.8375
1679.90115	36026.6375
1683.16801	35363.5375
1686.43272	34917.7375
1689.69527	34607.2375
1692.95567	34270.1375
1696.2139	34169.9375
1699.46999	34024.8375
1702.72392	33879.5375
1705.97571	33820.8375
1709.22535	33761.5375
1712.47284	33656.2375
1715.71819	33611.0375
1718.96139	33494.1375
1722.20246	33403.2375
1725.44139	33250.4375
1728.67818	33025.8375
1731.91284	32834.3375
1735.14537	32622.7375
1738.37576	32538.5375
1741.60403	32372.3375
1744.83017	32255.1375
1748.05418	32151.3375
1751.27607	32108.5375
1754.49584	32020.7375
1757.71349	31952.1375
1760.92903	31935.9375
1764.14244	31928.4375
1767.35375	31952.1375
1770.56294	31875.8375
1773.77002	31851.8375
1776.97499	31821.4375
1780.17785	31703.5375
1783.37861	31710.3375
1786.57727	31675.5375
1789.77382	31606.0375
1792.96828	31532.1375
1796.16064	31489.0375
1799.3509	31441.9375
1802.53907	31409.1375
1805.72514	31265.3375
1808.90913	31173.3375
1812.09102	31208.4375
1815.27083	31078.0375
1818.44856	30998.9375
1821.6242	31007.2375
1824.79776	30962.1375
1827.96924	30932.6375
1831.13864	30913.1375
1834.30597	30971.8375
1837.47122	31004.2375
1840.6344	30955.3375
1843.7955	30952.7375
1846.95454	30891.5375
1850.11151	30976.9375
1853.26642	30929.8375
1856.41926	30928.6375
1859.57004	30909.8375
1862.71876	30916.0375
1865.86542	30885.9375
1869.01003	30929.2375
1872.15258	30936.4375
1875.29308	30941.9375
1878.43152	30870.8375
1881.56792	30889.0375
1884.70227	30875.0375
1887.83457	30937.4375
1890.96482	30921.1375
1894.09304	30890.3375
1897.21921	30846.3375
1900.34335	30872.8375
1903.46544	30821.9375
1906.58551	30836.4375
1909.70353	30843.5375
1912.81953	30820.3375
1915.93349	30747.1375
1919.04543	30736.0375
1922.15534	30664.7375
1925.26322	30561.4375
1928.36908	30510.9375
1931.47292	30424.0375
1934.57473	30340.6375
1937.67453	30295.5375
1940.77232	30114.5375
1943.86808	30016.4375
1946.96184	29938.2375
1950.05358	29831.0375
1953.14331	29715.4375
1956.23103	29608.1375
1959.31675	29576.1375
1962.40046	29495.3375
1965.48217	29351.7375
1968.56188	29365.8375
1971.63959	29253.1375
1974.7153	29167.9375
1977.78901	29097.0375
1980.86073	28998.2375
1983.93046	28904.2375
1986.99819	28850.8375
1990.06394	28738.0375
1993.1277	28690.7375
1996.18947	28629.3375
1999.24925	28504.2375
2002.30706	28412.5375
2005.36288	28307.8375
2008.41672	28229.9375
2011.46859	28195.5375
2014.51848	28163.6375
2017.56639	28085.5375
2020.61233	28006.6375
2023.6563	27941.2375
2026.6983	27912.3375
2029.73833	27921.1375
2032.7764	27873.1375
2035.8125	27836.4375
2038.84664	27860.8375
2041.87881	27825.1375
2044.90903	27775.7375
2047.93729	27736.7375
2050.96359	27699.7375
2053.98794	27634.2375
2057.01034	27604.6375
2060.03078	27617.7375
2063.04927	27567.3375
2066.06582	27555.1375
2069.08042	27578.7375
2072.09307	27541.6375
2075.10378	27454.6375
2078.11255	27445.1375
2081.11938	27470.9375
2084.12426	27432.0375
2087.12722	27394.6375
2090.12824	27366.9375
2093.12732	27380.7375
2096.12447	27427.5375
2099.11969	27391.4375
2102.11299	27459.0375
2105.10435	27428.8375
2108.09379	27433.3375
2111.08131	27454.1375
2114.0669	27489.0375
2117.05057	27475.0375
2120.03233	27501.4375
2123.01216	27537.6375
2125.99008	27560.0375
2128.96609	27597.0375
2131.94018	27607.4375
2134.91236	27637.6375
2137.88263	27651.2375
2140.851	27635.6375
2143.81746	27693.8375
2146.78201	27664.5375
2149.74466	27720.4375
2152.7054	27727.2375
2155.66425	27726.2375
2158.6212	27747.2375
2161.57625	27751.9375
2164.52941	27751.5375
2167.48067	27706.9375
2170.43004	27716.3375
2173.37752	27684.5375
2176.32311	27715.6375
2179.26681	27729.6375
2182.20863	27736.2375
2185.14856	27751.1375
2188.08661	27724.0375
2191.02278	27742.0375
2193.95707	27780.4375
2196.88948	27780.1375
2199.82001	27765.0375
2202.74867	27765.3375
2205.67545	27770.0375
2208.60037	27762.9375
2211.52341	27777.6375
2214.44458	27750.1375
2217.36388	27710.5375
2220.28132	27731.9375
2223.1969	27676.6375
2226.11061	27639.3375
2229.02246	27565.5375
2231.93245	27558.6375
2234.84058	27434.8375
2237.74686	27360.2375
2240.65128	27401.1375
2243.55385	27312.0375
2246.45456	27250.6375
2249.35343	27226.6375
2252.25044	27161.8375
2255.14561	27155.9375
2258.03893	27131.5375
2260.93041	27084.1375
2263.82004	27029.4375
2266.70783	26974.4375
2269.59378	26964.5375
2272.4779	26885.7375
2275.36017	26805.3375
2278.24061	26713.3375
2281.11922	26715.2375
2283.996	26709.0375
2286.87094	26661.5375
2289.74405	26596.1375
2292.61534	26611.5375
2295.4848	26638.3375
2298.35243	26663.3375
2301.21824	26684.3375
2304.08223	26713.1375
2306.94439	26760.3375
2309.80474	26766.8375
2312.66327	26765.1375
2315.51999	26801.0375
2318.37489	26876.7375
2321.22797	26837.3375
2324.07925	26838.7375
2326.92871	26818.1375
2329.77637	26842.9375
2332.62222	26812.1375
2335.46626	26805.2375
2338.3085	26809.7375
2341.14893	26898.0375
2343.98756	26960.7375
2346.8244	26959.0375
2349.65943	26919.4375
2352.49267	26909.0375
2355.32411	26924.9375
2358.15376	26887.5375
2360.98161	26849.4375
2363.80768	26817.9375
2366.63195	26769.5375
2369.45444	26734.5375
2372.27514	26634.3375
2375.09405	26593.9375
2377.91118	26541.4375
2380.72652	26435.5375
2383.54009	26373.9375
2386.35187	26323.0375
2389.16188	26307.2375
2391.97011	26267.1375
2394.77657	26278.3375
2397.58125	26237.5375
2400.38416	26262.8375
2403.18529	26154.0375
2405.98466	26165.4375
2408.78226	26095.4375
2411.57809	26018.4375
2414.37216	25926.9375
2417.16446	25935.1375
2419.955	25928.7375
2422.74378	25837.9375
2425.5308	25825.3375
2428.31606	25817.9375
2431.09956	25831.8375
2433.88131	25784.9375
2436.6613	25812.7375
2439.43954	25788.4375
2442.21603	25793.8375
2444.99077	25740.6375
2447.76377	25772.3375
2450.53501	25769.2375
2453.30451	25772.1375
2456.07226	25822.6375
2458.83827	25788.8375
2461.60254	25764.7375
2464.36507	25809.9375
2467.12586	25824.0375
2469.88492	25840.6375
2472.64224	25803.6375
2475.39782	25858.3375
2478.15167	25902.0375
2480.90379	25915.4375
2483.65417	25926.3375
2486.40283	26013.1375
2489.14976	25989.5375
2491.89497	25989.1375
2494.63845	26037.5375
2497.3802	26015.5375
2500.12024	26049.5375
2502.85855	26061.5375
2505.59514	26007.5375
2508.33002	26008.9375
2511.06318	25928.5375
2513.79462	25897.1375
2516.52435	25888.3375
2519.25237	25922.9375
2521.97867	25871.9375
2524.70327	25900.4375
2527.42616	25830.5375
2530.14734	25877.9375
2532.86681	25861.6375
2535.58458	25857.7375
2538.30065	25808.6375
2541.01501	25869.7375
2543.72768	25854.0375
2546.43864	25784.1375
2549.14791	25804.5375
2551.85548	25761.6375
2554.56136	25784.4375
2557.26554	25759.5375
2559.96803	25750.7375
2562.66883	25696.1375
2565.36794	25739.2375
2568.06536	25718.4375
2570.7611	25691.7375
2573.45514	25682.4375
2576.14751	25706.7375
2578.83819	25678.2375
2581.52719	25701.1375
2584.21451	25673.8375
2586.90015	25703.8375
2589.58411	25671.9375
2592.2664	25683.0375
2594.94701	25662.8375
2597.62594	25681.1375
2600.30321	25670.8375
2602.9788	25664.7375
2605.65273	25635.2375
2608.32498	25660.8375
2610.99557	25675.2375
2613.66449	25687.3375
2616.33175	25694.2375
2618.99734	25716.0375
2621.66128	25768.5375
2624.32355	25726.7375
2626.98416	25749.3375
2629.64311	25770.5375
2632.30041	25770.4375
2634.95605	25736.2375
2637.61004	25692.4375
2640.26238	25682.8375
2642.91306	25648.5375
2645.56209	25624.0375
2648.20948	25598.3375
2650.85521	25552.9375
2653.4993	25581.1375
2656.14175	25572.4375
2658.78255	25543.1375
2661.42171	25555.3375
2664.05923	25595.0375
2666.6951	25603.1375
2669.32934	25714.9375
2671.96194	25667.9375
2674.59291	25719.4375
2677.22224	25680.5375
2679.84993	25673.7375
2682.476	25594.4375
2685.10043	25635.3375
2687.72324	25568.1375
2690.34441	25564.1375
2692.96396	25536.6375
2695.58188	25516.1375
2698.19818	25467.0375
2700.81285	25467.6375
2703.4259	25460.5375
2706.03733	25540.3375
2708.64714	25511.3375
2711.25533	25521.3375
2713.86191	25561.9375
2716.46687	25567.9375
2719.07021	25534.3375
2721.67194	25550.8375
2724.27206	25576.5375
2726.87057	25583.4375
2729.46747	25613.4375
2732.06276	25571.3375
2734.65644	25594.4375
2737.24852	25611.7375
2739.83899	25596.6375
2742.42786	25647.1375
2745.01513	25642.8375
2747.60079	25602.3375
2750.18486	25608.1375
2752.76733	25593.4375
2755.3482	25589.9375
2757.92747	25566.3375
2760.50515	25524.9375
2763.08123	25561.5375
2765.65573	25544.7375
2768.22863	25526.8375
2770.79994	25492.7375
2773.36967	25549.9375
2775.9378	25534.4375
2778.50435	25527.9375
2781.06932	25503.2375
2783.6327	25492.8375
2786.1945	25500.9375
2788.75471	25520.7375
2791.31335	25433.1375
2793.87041	25433.4375
2796.42589	25313.0375
2798.97979	25331.9375
2801.53212	25232.2375
2804.08288	25270.2375
2806.63206	25201.5375
2809.17967	25193.8375
2811.72571	25131.7375
2814.27018	25120.0375
2816.81308	25108.8375
2819.35442	25094.8375
2821.89419	25036.2375
2824.43239	25019.0375
2826.96904	24983.2375
2829.50412	24959.9375
2832.03763	24866.2375
2834.56959	24913.2375
2837.1	24865.3375
2839.62884	24882.4375
2842.15613	24806.1375
2844.68186	24835.1375
2847.20604	24811.7375
2849.72867	24788.9375
2852.24974	24775.6375
2854.76927	24798.8375
2857.28724	24748.9375
2859.80367	24716.7375
2862.31855	24714.6375
2864.83189	24695.8375
2867.34368	24694.9375
2869.85393	24684.7375
2872.36264	24699.1375
2874.8698	24694.1375
2877.37543	24710.9375
2879.87952	24729.3375
2882.38207	24690.4375
2884.88308	24706.7375
2887.38256	24730.3375
2889.88051	24686.1375
2892.37692	24754.6375
2894.8718	24777.0375
2897.36515	24801.5375
2899.85698	24824.6375
2902.34727	24868.6375
2904.83604	24854.7375
2907.32328	24913.9375
2909.809	24922.8375
2912.29319	24992.9375
2914.77587	24960.5375
2917.25702	24945.4375
2919.73665	24904.9375
2922.21476	24933.6375
2924.69136	24884.7375
2927.16644	24908.8375
2929.64	24826.9375
2932.11205	24799.3375
2934.58258	24718.0375
2937.05161	24736.4375
2939.51912	24725.9375
2941.98513	24696.2375
2944.44962	24625.8375
2946.91261	24598.7375
2949.37409	24600.2375
2951.83407	24599.7375
2954.29254	24601.8375
2956.74951	24583.8375
2959.20498	24568.6375
2961.65895	24504.6375
2964.11142	24494.0375
2966.56239	24457.4375
2969.01186	24410.2375
2971.45984	24325.1375
2973.90632	24301.6375
2976.35131	24212.0375
2978.7948	24193.8375
2981.23681	24128.7375
2983.67732	24106.5375
2986.11635	23991.3375
2988.55388	23937.9375
2990.98993	23856.5375
2993.4245	23834.6375
2995.85758	23809.6375
2998.28917	23772.7375
3000.71928	23717.3375
3003.14791	23687.9375
3005.57506	23689.2375
3008.00073	23600.9375
3010.42493	23639.3375
3012.84764	23546.3375
3015.26888	23527.8375
3017.68865	23458.6375
3020.10694	23413.5375
3022.52376	23352.1375
3024.9391	23336.1375
3027.35298	23319.4375
3029.76539	23293.6375
3032.17632	23260.3375
3034.5858	23258.3375
3036.9938	23218.4375
3039.40034	23185.3375
3041.80542	23156.8375
3044.20903	23076.0375
3046.61118	23108.8375
3049.01187	23024.9375
3051.4111	23022.6375
3053.80888	22964.0375
3056.20519	22953.1375
3058.60005	22924.4375
3060.99345	22893.1375
3063.3854	22839.5375
3065.7759	22743.8375
3068.16494	22719.3375
3070.55254	22657.7375
3072.93868	22590.5375
3075.32338	22541.1375
3077.70662	22477.6375
3080.08842	22442.1375
3082.46878	22453.9375
3084.84769	22359.3375
3087.22515	22380.1375
3089.60118	22334.8375
3091.97576	22333.0375
3094.3489	22349.1375
3096.72061	22355.5375
3099.09087	22274.1375
3101.4597	22293.1375
3103.82709	22290.2375
3106.19305	22275.4375
3108.55757	22256.4375
3110.92066	22168.7375
3113.28232	22160.7375
3115.64255	22036.1375
3118.00134	22052.0375
3120.35871	22006.8375
3122.71466	21942.0375
3125.06917	21924.6375
3127.42226	21907.1375
3129.77393	21859.7375
3132.12417	21856.3375
3134.47299	21862.6375
3136.82039	21825.7375
3139.16636	21803.3375
3141.51092	21824.0375
3143.85406	21827.2375
3146.19579	21787.4375
3148.53609	21857.9375
3150.87499	21809.2375
3153.21246	21754.9375
3155.54853	21808.0375
3157.88318	21753.5375
3160.21642	21766.6375
3162.54826	21777.4375
3164.87868	21765.4375
3167.2077	21736.6375
3169.5353	21729.2375
3171.86151	21741.0375
3174.18631	21709.1375
3176.5097	21665.9375
3178.83169	21601.7375
3181.15228	21643.1375
3183.47147	21621.9375
3185.78926	21609.6375
3188.10565	21595.4375
3190.42065	21586.3375
3192.73424	21589.5375
3195.04645	21587.5375
3197.35725	21608.8375
3199.66667	21575.8375
3201.97469	21584.8375
3204.28132	21534.8375
3206.58656	21578.3375
3208.8904	21547.6375
3211.19287	21553.4375
3213.49394	21537.1375
3215.79363	21532.5375
3218.09193	21532.1375
3220.38884	21526.8375
3222.68438	21548.4375
3224.97853	21489.5375
3227.2713	21481.1375
3229.56269	21513.7375
3231.8527	21490.1375
3234.14133	21467.2375
3236.42858	21425.2375
3238.71446	21413.5375
3240.99896	21357.7375
3243.28209	21310.5375
3245.56384	21314.9375
3247.84423	21333.9375
3250.12324	21339.3375
3252.40088	21298.8375
3254.67715	21238.5375
3256.95205	21248.6375
3259.22558	21217.5375
3261.49775	21179.7375
3263.76855	21181.1375
3266.03799	21139.0375
3268.30606	21145.9375
3270.57277	21111.2375
3272.83812	21047.0375
3275.10211	21039.8375
3277.36474	21044.8375
3279.62601	21033.1375
3281.88593	20958.5375
3284.14448	21015.7375
3286.40168	21030.3375
3288.65753	21029.4375
3290.91202	20985.7375
3293.16516	20907.3375
3295.41695	20875.6375
3297.66738	20741.2375
3299.91647	20658.6375
3302.16421	20549.7375
3304.4106	20448.8375
3306.65564	20366.6375
3308.89933	20245.9375
3311.14169	20123.9375
3313.38269	19933.0375
3315.62236	19867.7375
3317.86068	19689.1375
3320.09766	19530.7375
3322.3333	19360.1375
3324.5676	19353.6375
3326.80056	19033.1375
3329.03219	18930.1375
3331.26248	4.5375
3333.49143	0.0375
3335.71905	-0.2625
