Data from AgNP_FTO_APTES_CRN_50uM_R6G_10uM_NaF_0.1M_Addition_RamanShift__12__17-59-58-070.txt Node

Date: Wed Dec 15 17:59:58 GMT 2021
User: TCL
Spectrometer: QEP01345
Trigger mode: 4
Integration Time (sec): 7.000000E0
Scans to average: 10
Electric dark correction enabled: true
Nonlinearity correction enabled: false
Boxcar width: 0
XAxis mode: Raman Shifts
Number of Pixels in Spectrum: 1044
>>>>>Begin Spectral Data<<<<<
46.04893	0.4875
50.45542	-0.3125
54.85868	-0.7125
59.25871	-0.5125
63.6555	54.4875
68.04907	61.5875
72.43941	62.7875
76.82654	65.7875
81.21044	68.8875
85.59113	73.6875
89.96862	74.4875
94.34289	74.6875
98.71396	81.5875
103.08183	88.2875
107.4465	87.0875
111.80798	86.5875
116.16626	89.9875
120.52136	93.9875
124.87327	90.4875
129.222	95.2875
133.56755	97.6875
137.90993	109.0875
142.24913	113.3875
146.58517	124.9875
150.91804	144.7875
155.24774	168.6875
159.57429	207.2875
163.89768	258.8875
168.21792	343.8875
172.53501	458.9875
176.84895	634.2875
181.15975	882.6875
185.46741	1238.7875
189.77193	1707.7875
194.07331	2295.5875
198.37157	2952.7875
202.6667	3651.9875
206.9587	4352.1875
211.24758	5034.6875
215.53334	5715.4875
219.81599	6426.0875
224.09553	7210.7875
228.37195	8056.0875
232.64527	8996.8875
236.91549	10026.3875
241.18261	11075.3875
245.44663	12062.8875
249.70755	12959.4875
253.96539	13767.7875
258.22014	14445.4875
262.4718	14971.9875
266.72039	15320.3875
270.96589	15502.6875
275.20832	15589.0875
279.44768	15506.7875
283.68397	15414.7875
287.91719	15294.7875
292.14735	15300.6875
296.37445	15217.5875
300.59849	15208.6875
304.81948	15201.8875
309.03742	15152.1875
313.25231	14996.0875
317.46415	14812.7875
321.67296	14519.2875
325.87872	14262.1875
330.08145	14139.2875
334.28114	14127.8875
338.47781	14259.7875
342.67145	14354.5875
346.86207	14544.2875
351.04966	14763.1875
355.23424	14954.6875
359.4158	15054.0875
363.59435	15193.2875
367.76989	15272.3875
371.94243	15329.6875
376.11196	15412.6875
380.27849	15430.7875
384.44203	15490.6875
388.60257	15562.0875
392.76012	15749.7875
396.91468	15910.0875
401.06626	16190.7875
405.21485	16354.0875
409.36047	16366.5875
413.50311	16280.9875
417.64277	16169.1875
421.77947	16212.8875
425.9132	16265.5875
430.04396	16376.3875
434.17176	16469.4875
438.2966	16507.9875
442.41849	16610.7875
446.53742	16810.8875
450.6534	17091.7875
454.76644	17271.4875
458.87653	17396.9875
462.98368	17433.5875
467.08789	17396.8875
471.18916	17323.0875
475.2875	17219.9875
479.38291	17119.0875
483.4754	17061.0875
487.56496	16912.5875
491.6516	16777.1875
495.73531	16646.6875
499.81612	16609.9875
503.89401	16719.6875
507.96899	16777.0875
512.04106	16818.2875
516.11023	16811.1875
520.1765	16711.8875
524.23987	16589.3875
528.30034	16488.8875
532.35792	16388.4875
536.41261	16302.5875
540.46441	16207.2875
544.51333	16239.7875
548.55936	16389.7875
552.60252	16692.9875
556.64279	16905.0875
560.6802	17021.4875
564.71473	17098.4875
568.7464	17252.4875
572.7752	17595.0875
576.80114	17974.1875
580.82422	18434.9875
584.84444	18769.5875
588.86181	19089.3875
592.87633	19142.1875
596.888	19007.6875
600.89682	18745.9875
604.9028	18794.2875
608.90594	19461.3875
612.90624	20145.8875
616.90371	19272.5875
620.89834	17362.0875
624.89015	16566.5875
628.87913	16521.3875
632.86528	16636.2875
636.84862	16717.6875
640.82913	16609.6875
644.80683	16360.4875
648.78172	16181.5875
652.75379	16124.6875
656.72306	16230.3875
660.68952	16347.7875
664.65319	16356.5875
668.61405	16255.8875
672.57211	16236.6875
676.52738	16279.7875
680.47986	16251.3875
684.42955	16225.7875
688.37646	16189.5875
692.32058	16264.2875
696.26192	16369.6875
700.20048	16514.9875
704.13626	16653.2875
708.06928	16721.0875
711.99952	16726.8875
715.927	16677.3875
719.85171	16616.2875
723.77365	16512.9875
727.69284	16341.3875
731.60928	16226.7875
735.52295	16151.8875
739.43388	16132.7875
743.34206	16186.3875
747.24749	16200.1875
751.15017	16305.6875
755.05012	16501.4875
758.94733	16832.9875
762.8418	17405.7875
766.73354	18255.9875
770.62254	19044.7875
774.50882	19133.2875
778.39237	18456.5875
782.27321	17599.7875
786.15132	16898.1875
790.02671	16453.6875
793.89938	16181.8875
797.76935	16092.2875
801.6366	16034.4875
805.50115	15998.8875
809.36299	15967.7875
813.22213	15912.1875
817.07857	15889.3875
820.93231	15859.3875
824.78336	15869.7875
828.63172	15835.7875
832.47738	15816.2875
836.32036	15839.2875
840.16066	15834.7875
843.99827	15821.3875
847.8332	15791.4875
851.66546	15775.6875
855.49504	15766.3875
859.32195	15784.5875
863.1462	15762.9875
866.96777	15774.0875
870.78668	15737.1875
874.60293	15741.7875
878.41652	15777.9875
882.22745	15809.4875
886.03573	15855.9875
889.84136	15857.6875
893.64433	15834.4875
897.44466	15796.8875
901.24235	15789.0875
905.0374	15746.1875
908.8298	15766.2875
912.61957	15782.8875
916.40671	15906.6875
920.19121	16070.9875
923.97308	16098.0875
927.75233	16051.6875
931.52895	15953.9875
935.30295	15795.8875
939.07433	15620.6875
942.84309	15482.4875
946.60924	15369.5875
950.37278	15305.3875
954.13371	15301.1875
957.89203	15279.8875
961.64774	15283.4875
965.40086	15262.7875
969.15137	15241.3875
972.89929	15140.7875
976.64461	15111.2875
980.38733	15095.4875
984.12747	15109.9875
987.86502	15143.5875
991.59999	15206.9875
995.33237	15217.8875
999.06217	15357.5875
1002.78939	15532.4875
1006.51404	15680.4875
1010.23611	15895.4875
1013.95561	16026.6875
1017.67255	16010.2875
1021.38692	15896.0875
1025.09872	15784.6875
1028.80796	15666.7875
1032.51465	15617.6875
1036.21877	15626.8875
1039.92035	15699.7875
1043.61937	15790.5875
1047.31584	15837.7875
1051.00976	15953.7875
1054.70114	16074.0875
1058.38998	16238.3875
1062.07627	16508.3875
1065.76003	16847.5875
1069.44126	17185.9875
1073.11995	17486.7875
1076.79611	17643.5875
1080.46974	17590.1875
1084.14085	17375.4875
1087.80943	17214.7875
1091.47549	17167.9875
1095.13903	17149.1875
1098.80005	17057.5875
1102.45857	16763.5875
1106.11456	16430.9875
1109.76805	16259.6875
1113.41903	16173.3875
1117.06751	16194.7875
1120.71348	16285.7875
1124.35696	16401.9875
1127.99793	16581.6875
1131.63641	16711.7875
1135.2724	16663.3875
1138.90589	16557.9875
1142.5369	16564.7875
1146.16542	16592.3875
1149.79145	16648.6875
1153.415	16758.7875
1157.03607	16860.0875
1160.65467	17130.5875
1164.27079	17536.3875
1167.88443	18089.4875
1171.49561	18767.7875
1175.10432	19552.5875
1178.71056	20583.4875
1182.31434	21482.1875
1185.91565	22042.9875
1189.51451	22173.5875
1193.11091	21988.6875
1196.70485	21504.7875
1200.29634	20874.3875
1203.88538	20332.0875
1207.47197	19946.4875
1211.05612	19649.0875
1214.63782	19358.1875
1218.21708	19000.0875
1221.79391	18622.6875
1225.36829	18300.0875
1228.94024	18134.7875
1232.50976	18036.9875
1236.07685	18012.8875
1239.6415	18005.2875
1243.20374	18018.3875
1246.76355	18121.4875
1250.32093	18259.6875
1253.8759	18509.1875
1257.42845	18883.9875
1260.97859	19196.1875
1264.52631	19563.3875
1268.07163	19899.6875
1271.61453	20200.1875
1275.15503	20464.8875
1278.69312	20822.5875
1282.22882	21155.9875
1285.76211	21503.7875
1289.29301	22041.3875
1292.82151	22559.7875
1296.34761	23240.2875
1299.87133	23987.3875
1303.39266	24739.6875
1306.9116	25447.2875
1310.42815	26057.6875
1313.94233	26368.0875
1317.45412	26376.5875
1320.96354	26299.9875
1324.47058	26268.5875
1327.97525	26274.7875
1331.47754	26395.0875
1334.97747	26521.0875
1338.47502	26705.8875
1341.97022	26910.2875
1345.46305	27122.1875
1348.95352	27149.3875
1352.44163	27131.5875
1355.92738	27048.1875
1359.41078	27230.8875
1362.89183	27400.4875
1366.37053	26953.2875
1369.84688	25602.5875
1373.32088	23913.0875
1376.79254	22543.2875
1380.26186	21908.5875
1383.72883	21652.9875
1387.19347	21484.6875
1390.65578	21286.3875
1394.11575	21101.6875
1397.57339	20999.2875
1401.0287	21020.0875
1404.48168	20992.4875
1407.93234	20916.5875
1411.38068	20654.0875
1414.82669	20180.2875
1418.27039	19598.0875
1421.71177	19048.0875
1425.15083	18608.7875
1428.58758	18394.6875
1432.02203	18404.8875
1435.45416	18638.3875
1438.88399	18931.2875
1442.31151	19151.2875
1445.73673	19304.3875
1449.15965	19501.3875
1452.58027	19676.5875
1455.9986	19794.3875
1459.41463	19938.5875
1462.82837	20229.8875
1466.23982	20553.0875
1469.64898	20901.6875
1473.05586	21092.7875
1476.46045	21234.5875
1479.86276	21297.1875
1483.26279	21255.2875
1486.66054	21313.5875
1490.05602	21450.4875
1493.44922	21787.2875
1496.84016	22112.8875
1500.22882	22721.3875
1503.61521	23475.9875
1506.99934	24189.3875
1510.38121	24670.1875
1513.76081	24634.2875
1517.13816	24259.0875
1520.51324	23654.3875
1523.88607	23160.2875
1527.25665	22884.1875
1530.62498	22696.2875
1533.99105	22558.6875
1537.35488	22279.5875
1540.71647	21802.2875
1544.07581	21350.5875
1547.4329	20921.7875
1550.78776	20505.1875
1554.14038	20220.0875
1557.49077	20117.0875
1560.83892	20187.8875
1564.18484	20237.2875
1567.52853	20412.9875
1570.86999	20683.1875
1574.20922	21044.1875
1577.54624	21470.7875
1580.88103	21660.9875
1584.2136	21629.1875
1587.54395	21490.2875
1590.87208	21519.3875
1594.19801	21816.6875
1597.52172	22377.2875
1600.84321	22482.9875
1604.16251	21923.2875
1607.47959	21039.6875
1610.79447	20055.1875
1614.10715	19034.9875
1617.41763	18104.5875
1620.7259	17388.7875
1624.03199	16920.7875
1627.33587	16817.2875
1630.63757	16977.8875
1633.93707	17543.2875
1637.23439	18464.5875
1640.52951	19936.7875
1643.82246	21651.8875
1647.11321	23197.1875
1650.40179	23869.6875
1653.68819	23191.4875
1656.97241	21419.0875
1660.25446	19425.9875
1663.53433	17680.0875
1666.81203	16441.3875
1670.08756	15603.1875
1673.36092	15048.3875
1676.63211	14656.6875
1679.90115	14426.5875
1683.16801	14197.8875
1686.43272	14086.6875
1689.69527	13976.5875
1692.95567	13920.1875
1696.2139	13884.9875
1699.46999	13865.6875
1702.72392	13818.1875
1705.97571	13779.6875
1709.22535	13710.1875
1712.47284	13712.6875
1715.71819	13661.6875
1718.96139	13637.4875
1722.20246	13611.7875
1725.44139	13542.0875
1728.67818	13514.4875
1731.91284	13433.6875
1735.14537	13386.2875
1738.37576	13374.0875
1741.60403	13307.8875
1744.83017	13249.8875
1748.05418	13223.9875
1751.27607	13211.2875
1754.49584	13195.7875
1757.71349	13205.1875
1760.92903	13175.3875
1764.14244	13191.4875
1767.35375	13194.3875
1770.56294	13152.3875
1773.77002	13128.2875
1776.97499	13121.5875
1780.17785	13070.1875
1783.37861	13049.9875
1786.57727	13031.7875
1789.77382	12953.6875
1792.96828	12955.2875
1796.16064	12911.1875
1799.3509	12905.4875
1802.53907	12883.6875
1805.72514	12831.0875
1808.90913	12820.5875
1812.09102	12781.7875
1815.27083	12761.4875
1818.44856	12735.8875
1821.6242	12733.5875
1824.79776	12718.7875
1827.96924	12711.6875
1831.13864	12694.7875
1834.30597	12718.1875
1837.47122	12703.9875
1840.6344	12668.2875
1843.7955	12666.2875
1846.95454	12670.0875
1850.11151	12648.3875
1853.26642	12627.2875
1856.41926	12646.4875
1859.57004	12625.3875
1862.71876	12608.6875
1865.86542	12576.2875
1869.01003	12559.3875
1872.15258	12538.1875
1875.29308	12512.1875
1878.43152	12499.1875
1881.56792	12474.0875
1884.70227	12473.1875
1887.83457	12430.5875
1890.96482	12405.9875
1894.09304	12396.6875
1897.21921	12405.8875
1900.34335	12378.4875
1903.46544	12328.7875
1906.58551	12336.1875
1909.70353	12301.1875
1912.81953	12287.2875
1915.93349	12274.9875
1919.04543	12226.8875
1922.15534	12214.0875
1925.26322	12212.3875
1928.36908	12189.3875
1931.47292	12144.7875
1934.57473	12115.1875
1937.67453	12086.3875
1940.77232	12061.4875
1943.86808	12009.9875
1946.96184	12024.4875
1950.05358	11988.5875
1953.14331	11928.4875
1956.23103	11919.1875
1959.31675	11881.7875
1962.40046	11851.4875
1965.48217	11821.1875
1968.56188	11790.5875
1971.63959	11705.7875
1974.7153	11693.5875
1977.78901	11640.8875
1980.86073	11598.8875
1983.93046	11575.0875
1986.99819	11564.5875
1990.06394	11521.9875
1993.1277	11482.7875
1996.18947	11413.5875
1999.24925	11385.2875
2002.30706	11371.9875
2005.36288	11335.8875
2008.41672	11304.4875
2011.46859	11265.4875
2014.51848	11252.8875
2017.56639	11208.5875
2020.61233	11172.7875
2023.6563	11152.5875
2026.6983	11106.3875
2029.73833	11117.6875
2032.7764	11105.8875
2035.8125	11051.9875
2038.84664	10976.1875
2041.87881	10973.7875
2044.90903	10961.5875
2047.93729	10944.8875
2050.96359	10920.5875
2053.98794	10906.2875
2057.01034	10888.9875
2060.03078	10892.1875
2063.04927	10884.9875
2066.06582	10857.4875
2069.08042	10867.9875
2072.09307	10868.7875
2075.10378	10852.1875
2078.11255	10811.4875
2081.11938	10840.3875
2084.12426	10826.2875
2087.12722	10862.2875
2090.12824	10806.4875
2093.12732	10817.7875
2096.12447	10849.2875
2099.11969	10814.2875
2102.11299	10806.8875
2105.10435	10822.8875
2108.09379	10831.1875
2111.08131	10857.5875
2114.0669	10850.0875
2117.05057	10858.7875
2120.03233	10850.8875
2123.01216	10838.2875
2125.99008	10847.1875
2128.96609	10860.8875
2131.94018	10855.1875
2134.91236	10864.1875
2137.88263	10874.8875
2140.851	10865.3875
2143.81746	10870.9875
2146.78201	10904.5875
2149.74466	10884.9875
2152.7054	10890.3875
2155.66425	10878.2875
2158.6212	10913.9875
2161.57625	10892.1875
2164.52941	10887.6875
2167.48067	10849.3875
2170.43004	10867.1875
2173.37752	10860.9875
2176.32311	10828.6875
2179.26681	10838.3875
2182.20863	10838.1875
2185.14856	10838.6875
2188.08661	10813.7875
2191.02278	10827.1875
2193.95707	10818.7875
2196.88948	10777.9875
2199.82001	10797.1875
2202.74867	10746.9875
2205.67545	10761.1875
2208.60037	10741.1875
2211.52341	10725.3875
2214.44458	10706.6875
2217.36388	10692.7875
2220.28132	10683.6875
2223.1969	10636.5875
2226.11061	10626.6875
2229.02246	10584.5875
2231.93245	10599.1875
2234.84058	10574.1875
2237.74686	10554.3875
2240.65128	10572.8875
2243.55385	10535.3875
2246.45456	10493.9875
2249.35343	10495.5875
2252.25044	10483.9875
2255.14561	10458.2875
2258.03893	10435.8875
2260.93041	10417.3875
2263.82004	10392.8875
2266.70783	10360.9875
2269.59378	10355.7875
2272.4779	10311.2875
2275.36017	10299.4875
2278.24061	10260.3875
2281.11922	10234.3875
2283.996	10222.5875
2286.87094	10207.5875
2289.74405	10165.6875
2292.61534	10161.8875
2295.4848	10155.5875
2298.35243	10181.4875
2301.21824	10133.8875
2304.08223	10138.2875
2306.94439	10118.9875
2309.80474	10086.5875
2312.66327	10088.3875
2315.51999	10059.4875
2318.37489	10065.5875
2321.22797	10062.5875
2324.07925	10033.4875
2326.92871	9986.8875
2329.77637	10009.8875
2332.62222	10004.9875
2335.46626	9979.3875
2338.3085	9957.9875
2341.14893	9964.4875
2343.98756	9934.5875
2346.8244	9923.3875
2349.65943	9925.3875
2352.49267	9902.5875
2355.32411	9919.2875
2358.15376	9895.9875
2360.98161	9899.6875
2363.80768	9893.5875
2366.63195	9883.2875
2369.45444	9885.6875
2372.27514	9875.1875
2375.09405	9860.2875
2377.91118	9830.8875
2380.72652	9822.0875
2383.54009	9786.6875
2386.35187	9799.2875
2389.16188	9744.3875
2391.97011	9713.4875
2394.77657	9740.0875
2397.58125	9683.3875
2400.38416	9689.2875
2403.18529	9670.4875
2405.98466	9657.3875
2408.78226	9650.5875
2411.57809	9621.6875
2414.37216	9598.0875
2417.16446	9593.6875
2419.955	9591.0875
2422.74378	9561.4875
2425.5308	9552.8875
2428.31606	9530.9875
2431.09956	9536.4875
2433.88131	9523.6875
2436.6613	9508.4875
2439.43954	9502.2875
2442.21603	9479.1875
2444.99077	9459.0875
2447.76377	9475.3875
2450.53501	9469.3875
2453.30451	9422.4875
2456.07226	9421.9875
2458.83827	9425.5875
2461.60254	9411.1875
2464.36507	9406.3875
2467.12586	9397.8875
2469.88492	9394.1875
2472.64224	9394.6875
2475.39782	9376.0875
2478.15167	9363.1875
2480.90379	9374.1875
2483.65417	9363.4875
2486.40283	9352.2875
2489.14976	9395.3875
2491.89497	9347.9875
2494.63845	9370.9875
2497.3802	9333.3875
2500.12024	9301.1875
2502.85855	9325.0875
2505.59514	9314.4875
2508.33002	9311.5875
2511.06318	9288.1875
2513.79462	9274.8875
2516.52435	9258.8875
2519.25237	9257.6875
2521.97867	9253.1875
2524.70327	9247.1875
2527.42616	9236.7875
2530.14734	9202.3875
2532.86681	9205.2875
2535.58458	9187.3875
2538.30065	9145.2875
2541.01501	9156.1875
2543.72768	9148.2875
2546.43864	9126.8875
2549.14791	9096.5875
2551.85548	9094.7875
2554.56136	9089.2875
2557.26554	9046.1875
2559.96803	9045.7875
2562.66883	9025.1875
2565.36794	9033.2875
2568.06536	8993.5875
2570.7611	9007.3875
2573.45514	8981.9875
2576.14751	8975.8875
2578.83819	8923.8875
2581.52719	8942.9875
2584.21451	8918.3875
2586.90015	8916.3875
2589.58411	8903.6875
2592.2664	8864.6875
2594.94701	8850.0875
2597.62594	8834.9875
2600.30321	8817.8875
2602.9788	8805.4875
2605.65273	8778.8875
2608.32498	8798.9875
2610.99557	8769.0875
2613.66449	8779.4875
2616.33175	8752.5875
2618.99734	8729.5875
2621.66128	8728.2875
2624.32355	8701.6875
2626.98416	8716.5875
2629.64311	8698.2875
2632.30041	8705.0875
2634.95605	8672.7875
2637.61004	8644.6875
2640.26238	8652.2875
2642.91306	8667.2875
2645.56209	8635.7875
2648.20948	8645.0875
2650.85521	8652.3875
2653.4993	8631.3875
2656.14175	8633.2875
2658.78255	8645.3875
2661.42171	8624.9875
2664.05923	8641.2875
2666.6951	8606.2875
2669.32934	8619.4875
2671.96194	8620.7875
2674.59291	8604.6875
2677.22224	8604.2875
2679.84993	8616.6875
2682.476	8611.8875
2685.10043	8621.0875
2687.72324	8614.2875
2690.34441	8619.5875
2692.96396	8582.4875
2695.58188	8594.1875
2698.19818	8587.5875
2700.81285	8598.2875
2703.4259	8624.4875
2706.03733	8645.2875
2708.64714	8625.3875
2711.25533	8611.3875
2713.86191	8610.3875
2716.46687	8608.3875
2719.07021	8607.2875
2721.67194	8594.8875
2724.27206	8571.7875
2726.87057	8596.2875
2729.46747	8574.1875
2732.06276	8557.4875
2734.65644	8571.2875
2737.24852	8573.9875
2739.83899	8555.9875
2742.42786	8566.5875
2745.01513	8507.1875
2747.60079	8517.4875
2750.18486	8533.6875
2752.76733	8514.9875
2755.3482	8534.8875
2757.92747	8498.4875
2760.50515	8489.4875
2763.08123	8467.0875
2765.65573	8473.0875
2768.22863	8430.6875
2770.79994	8437.4875
2773.36967	8441.3875
2775.9378	8428.5875
2778.50435	8402.8875
2781.06932	8381.4875
2783.6327	8365.1875
2786.1945	8360.2875
2788.75471	8347.2875
2791.31335	8345.7875
2793.87041	8328.5875
2796.42589	8324.7875
2798.97979	8313.7875
2801.53212	8282.4875
2804.08288	8273.5875
2806.63206	8248.2875
2809.17967	8239.9875
2811.72571	8205.8875
2814.27018	8207.0875
2816.81308	8195.3875
2819.35442	8188.8875
2821.89419	8173.8875
2824.43239	8166.5875
2826.96904	8143.7875
2829.50412	8130.6875
2832.03763	8128.8875
2834.56959	8131.5875
2837.1	8100.6875
2839.62884	8096.2875
2842.15613	8102.5875
2844.68186	8130.5875
2847.20604	8123.1875
2849.72867	8120.3875
2852.24974	8109.0875
2854.76927	8095.9875
2857.28724	8097.1875
2859.80367	8085.9875
2862.31855	8080.1875
2864.83189	8070.8875
2867.34368	8048.0875
2869.85393	8039.6875
2872.36264	8022.6875
2874.8698	8048.4875
2877.37543	8013.5875
2879.87952	8000.8875
2882.38207	7993.8875
2884.88308	8002.6875
2887.38256	7999.6875
2889.88051	8001.3875
2892.37692	7993.7875
2894.8718	7994.6875
2897.36515	7991.2875
2899.85698	7979.5875
2902.34727	7979.6875
2904.83604	7998.0875
2907.32328	8012.6875
2909.809	7985.5875
2912.29319	8002.6875
2914.77587	7990.2875
2917.25702	7973.5875
2919.73665	7954.1875
2922.21476	7983.4875
2924.69136	7974.9875
2927.16644	7965.8875
2929.64	7967.5875
2932.11205	7963.9875
2934.58258	7926.1875
2937.05161	7953.0875
2939.51912	7943.2875
2941.98513	7915.9875
2944.44962	7916.6875
2946.91261	7869.6875
2949.37409	7892.1875
2951.83407	7865.9875
2954.29254	7898.7875
2956.74951	7845.9875
2959.20498	7841.2875
2961.65895	7849.8875
2964.11142	7879.9875
2966.56239	7821.9875
2969.01186	7808.3875
2971.45984	7795.4875
2973.90632	7778.5875
2976.35131	7762.9875
2978.7948	7748.3875
2981.23681	7735.1875
2983.67732	7746.6875
2986.11635	7731.2875
2988.55388	7705.0875
2990.98993	7678.3875
2993.4245	7651.7875
2995.85758	7668.2875
2998.28917	7623.5875
3000.71928	7627.4875
3003.14791	7615.5875
3005.57506	7590.8875
3008.00073	7580.7875
3010.42493	7589.6875
3012.84764	7535.8875
3015.26888	7529.2875
3017.68865	7531.2875
3020.10694	7534.8875
3022.52376	7495.7875
3024.9391	7492.8875
3027.35298	7476.3875
3029.76539	7486.3875
3032.17632	7488.9875
3034.5858	7458.1875
3036.9938	7467.2875
3039.40034	7445.9875
3041.80542	7454.9875
3044.20903	7400.5875
3046.61118	7428.4875
3049.01187	7391.9875
3051.4111	7388.9875
3053.80888	7369.4875
3056.20519	7355.2875
3058.60005	7347.4875
3060.99345	7339.6875
3063.3854	7346.6875
3065.7759	7306.3875
3068.16494	7302.0875
3070.55254	7286.0875
3072.93868	7266.3875
3075.32338	7248.8875
3077.70662	7223.3875
3080.08842	7198.3875
3082.46878	7205.0875
3084.84769	7202.7875
3087.22515	7197.7875
3089.60118	7197.1875
3091.97576	7187.6875
3094.3489	7186.8875
3096.72061	7183.2875
3099.09087	7175.1875
3101.4597	7164.3875
3103.82709	7195.8875
3106.19305	7143.3875
3108.55757	7148.0875
3110.92066	7123.4875
3113.28232	7129.0875
3115.64255	7105.5875
3118.00134	7081.6875
3120.35871	7103.7875
3122.71466	7084.3875
3125.06917	7063.4875
3127.42226	7055.4875
3129.77393	7088.2875
3132.12417	7063.0875
3134.47299	7073.4875
3136.82039	7068.8875
3139.16636	7064.5875
3141.51092	7057.8875
3143.85406	7074.1875
3146.19579	7062.1875
3148.53609	7072.7875
3150.87499	7073.9875
3153.21246	7090.3875
3155.54853	7100.0875
3157.88318	7051.9875
3160.21642	7089.6875
3162.54826	7057.8875
3164.87868	7073.2875
3167.2077	7079.6875
3169.5353	7071.3875
3171.86151	7045.5875
3174.18631	7059.8875
3176.5097	7063.3875
3178.83169	7053.4875
3181.15228	7057.1875
3183.47147	7045.5875
3185.78926	7062.2875
3188.10565	7034.3875
3190.42065	7012.9875
3192.73424	7031.1875
3195.04645	7019.6875
3197.35725	7016.1875
3199.66667	7011.4875
3201.97469	7020.4875
3204.28132	7013.5875
3206.58656	7035.8875
3208.8904	7002.5875
3211.19287	7013.3875
3213.49394	7020.9875
3215.79363	7029.5875
3218.09193	7021.9875
3220.38884	7007.6875
3222.68438	7034.6875
3224.97853	7015.0875
3227.2713	6999.3875
3229.56269	6991.6875
3231.8527	6992.7875
3234.14133	6956.3875
3236.42858	6930.8875
3238.71446	6968.6875
3240.99896	6904.5875
3243.28209	6930.6875
3245.56384	6926.7875
3247.84423	6938.4875
3250.12324	6910.6875
3252.40088	6915.4875
3254.67715	6905.7875
3256.95205	6890.0875
3259.22558	6902.4875
3261.49775	6882.8875
3263.76855	6893.7875
3266.03799	6846.3875
3268.30606	6830.8875
3270.57277	6826.5875
3272.83812	6838.2875
3275.10211	6802.6875
3277.36474	6795.8875
3279.62601	6784.4875
3281.88593	6776.0875
3284.14448	6778.7875
3286.40168	6785.9875
3288.65753	6771.6875
3290.91202	6775.3875
3293.16516	6733.8875
3295.41695	6735.9875
3297.66738	6667.6875
3299.91647	6629.5875
3302.16421	6598.6875
3304.4106	6570.3875
3306.65564	6528.3875
3308.89933	6494.5875
3311.14169	6471.9875
3313.38269	6411.3875
3315.62236	6386.9875
3317.86068	6328.7875
3320.09766	6273.6875
3322.3333	6196.4875
3324.5676	6215.4875
3326.80056	6114.5875
3329.03219	6086.8875
3331.26248	3.2875
3333.49143	-1.1125
3335.71905	-0.0125
