Data from AgNP_FTO_APTES_CRN_5uM_R6G_10uM_NaF_0.1M_Addition_RamanShift__11__15-38-47-909.txt Node

Date: Wed Dec 15 15:38:47 GMT 2021
User: TCL
Spectrometer: QEP01345
Trigger mode: 4
Integration Time (sec): 7.000000E0
Scans to average: 10
Electric dark correction enabled: true
Nonlinearity correction enabled: false
Boxcar width: 0
XAxis mode: Raman Shifts
Number of Pixels in Spectrum: 1044
>>>>>Begin Spectral Data<<<<<
46.04893	1.425
50.45542	-1.875
54.85868	-1.575
59.25871	-1.075
63.6555	119.925
68.04907	132.425
72.43941	133.625
76.82654	140.425
81.21044	143.325
85.59113	152.525
89.96862	159.525
94.34289	156.325
98.71396	167.525
103.08183	172.625
107.4465	181.025
111.80798	182.125
116.16626	183.825
120.52136	192.625
124.87327	201.025
129.222	210.925
133.56755	224.225
137.90993	245.925
142.24913	267.825
146.58517	299.525
150.91804	348.925
155.24774	416.625
159.57429	513.925
163.89768	647.825
168.21792	850.625
172.53501	1171.225
176.84895	1633.825
181.15975	2286.225
185.46741	3206.825
189.77193	4413.725
194.07331	5894.925
198.37157	7583.325
202.6667	9371.225
206.9587	11130.025
211.24758	12817.625
215.53334	14576.225
219.81599	16331.225
224.09553	18311.725
228.37195	20486.425
232.64527	22937.025
236.91549	25500.125
241.18261	28094.125
245.44663	30576.725
249.70755	32829.625
253.96539	34885.825
258.22014	36589.025
262.4718	37854.725
266.72039	38791.725
270.96589	39265.025
275.20832	39398.225
279.44768	39264.325
283.68397	38881.925
287.91719	38616.925
292.14735	38364.925
296.37445	38274.925
300.59849	38265.225
304.81948	38243.925
309.03742	38260.525
313.25231	38063.825
317.46415	37607.125
321.67296	37013.025
325.87872	36496.525
330.08145	36316.525
334.28114	36410.325
338.47781	36718.525
342.67145	37116.125
346.86207	37585.425
351.04966	38186.125
355.23424	38698.125
359.4158	39262.625
363.59435	39729.125
367.76989	40077.225
371.94243	40372.025
376.11196	40508.925
380.27849	40525.725
384.44203	40667.925
388.60257	40928.825
392.76012	41371.625
396.91468	41892.225
401.06626	42584.325
405.21485	43008.425
409.36047	43060.325
413.50311	42911.325
417.64277	42870.725
421.77947	43253.425
425.9132	43609.325
430.04396	43810.525
434.17176	43938.725
438.2966	43915.225
442.41849	44203.825
446.53742	44992.825
450.6534	45953.425
454.76644	46586.925
458.87653	46942.125
462.98368	46894.325
467.08789	46579.125
471.18916	45992.325
475.2875	45307.825
479.38291	44848.925
483.4754	44522.425
487.56496	44156.425
491.6516	43799.725
495.73531	43481.025
499.81612	43488.025
503.89401	43902.725
507.96899	44270.625
512.04106	44558.625
516.11023	44465.625
520.1765	43971.225
524.23987	43513.225
528.30034	43069.725
532.35792	42582.025
536.41261	42202.525
540.46441	41937.725
544.51333	41968.325
548.55936	42374.525
552.60252	43093.825
556.64279	43773.925
560.6802	44278.625
564.71473	44643.025
568.7464	45286.225
572.7752	46460.125
576.80114	48038.125
580.82422	49830.025
584.84444	51867.525
588.86181	53887.125
592.87633	55031.725
596.888	54021.625
600.89682	51908.625
604.9028	51469.925
608.90594	53121.225
612.90624	54510.625
616.90371	51465.125
620.89834	46067.825
624.89015	43827.125
628.87913	43793.125
632.86528	44052.425
636.84862	44053.725
640.82913	43414.825
644.80683	42589.725
648.78172	42120.725
652.75379	42191.225
656.72306	42568.525
660.68952	42967.525
664.65319	42766.825
668.61405	42353.525
672.57211	42392.525
676.52738	42510.525
680.47986	42460.225
684.42955	42231.325
688.37646	42150.025
692.32058	42382.125
696.26192	42909.125
700.20048	43452.525
704.13626	43767.625
708.06928	43959.725
711.99952	43860.725
715.927	43823.025
719.85171	43840.525
723.77365	43610.225
727.69284	43012.725
731.60928	42462.425
735.52295	42148.725
739.43388	42035.225
743.34206	42156.525
747.24749	42439.025
751.15017	42860.125
755.05012	43473.625
758.94733	44559.525
762.8418	46182.725
766.73354	48417.125
770.62254	50212.325
774.50882	50113.925
778.39237	48262.925
782.27321	46076.325
786.15132	44312.925
790.02671	43141.425
793.89938	42548.425
797.76935	42291.725
801.6366	42261.725
805.50115	42259.825
809.36299	42057.225
813.22213	41726.425
817.07857	41534.525
820.93231	41336.125
824.78336	41154.625
828.63172	41060.125
832.47738	40985.725
836.32036	41003.425
840.16066	41033.225
843.99827	41010.525
847.8332	41042.825
851.66546	41090.125
855.49504	41154.425
859.32195	41188.125
863.1462	41079.025
866.96777	41085.925
870.78668	41032.525
874.60293	41112.325
878.41652	41176.825
882.22745	41266.925
886.03573	41331.125
889.84136	41384.625
893.64433	41304.125
897.44466	41230.025
901.24235	41147.525
905.0374	41129.125
908.8298	41068.325
912.61957	41128.025
916.40671	41492.525
920.19121	41983.525
923.97308	42344.725
927.75233	42258.325
931.52895	41764.125
935.30295	41176.125
939.07433	40714.525
942.84309	40404.225
946.60924	40197.325
950.37278	40127.025
954.13371	40137.825
957.89203	40118.425
961.64774	40110.925
965.40086	40120.625
969.15137	40053.025
972.89929	39880.525
976.64461	39829.625
980.38733	39814.025
984.12747	39885.625
987.86502	39956.825
991.59999	40134.825
995.33237	40407.925
999.06217	40921.225
1002.78939	41638.425
1006.51404	42436.525
1010.23611	43227.825
1013.95561	43763.225
1017.67255	43744.225
1021.38692	43272.825
1025.09872	42714.625
1028.80796	42190.225
1032.51465	42101.625
1036.21877	42172.925
1039.92035	42370.125
1043.61937	42499.325
1047.31584	42516.825
1051.00976	42658.325
1054.70114	42886.825
1058.38998	43243.625
1062.07627	43940.825
1065.76003	44906.225
1069.44126	45914.225
1073.11995	46998.325
1076.79611	47798.825
1080.46974	47960.725
1084.14085	47714.725
1087.80943	47563.225
1091.47549	47580.325
1095.13903	47421.425
1098.80005	46803.425
1102.45857	45833.825
1106.11456	44988.225
1109.76805	44482.525
1113.41903	44287.025
1117.06751	44281.925
1120.71348	44509.025
1124.35696	44754.125
1127.99793	45124.025
1131.63641	45418.225
1135.2724	45549.825
1138.90589	45698.425
1142.5369	45960.425
1146.16542	46192.325
1149.79145	46392.325
1153.415	46782.925
1157.03607	47447.525
1160.65467	48645.625
1164.27079	50641.125
1167.88443	52951.825
1171.49561	55045.125
1175.10432	57453.025
1178.71056	60290.425
1182.31434	63364.225
1185.91565	65289.625
1189.51451	65873.725
1193.11091	65330.525
1196.70485	63883.525
1200.29634	61927.925
1203.88538	60497.025
1207.47197	59923.225
1211.05612	59708.825
1214.63782	58987.125
1218.21708	57473.225
1221.79391	55653.325
1225.36829	54269.725
1228.94024	53400.625
1232.50976	52925.825
1236.07685	52567.125
1239.6415	52424.925
1243.20374	52522.425
1246.76355	52786.625
1250.32093	53367.725
1253.8759	54403.225
1257.42845	55696.225
1260.97859	57240.625
1264.52631	58790.025
1268.07163	60273.925
1271.61453	61671.625
1275.15503	63152.025
1278.69312	64676.325
1282.22882	66096.425
1285.76211	67720.325
1289.29301	69610.525
1292.82151	71858.625
1296.34761	74784.525
1299.87133	78250.125
1303.39266	81715.025
1306.9116	84689.325
1310.42815	86659.825
1313.94233	87398.125
1317.45412	87144.225
1320.96354	86628.525
1324.47058	86716.225
1327.97525	87411.825
1331.47754	88201.125
1334.97747	88788.725
1338.47502	89176.825
1341.97022	89265.525
1345.46305	88983.625
1348.95352	87946.625
1352.44163	86717.125
1355.92738	85925.125
1359.41078	86232.825
1362.89183	86470.625
1366.37053	84636.825
1369.84688	80091.525
1373.32088	74100.925
1376.79254	69436.825
1380.26186	67545.225
1383.72883	67471.325
1387.19347	67757.825
1390.65578	67321.325
1394.11575	67067.525
1397.57339	67498.325
1401.0287	68621.425
1404.48168	69605.325
1407.93234	69744.925
1411.38068	68697.925
1414.82669	66775.825
1418.27039	64267.725
1421.71177	61898.625
1425.15083	60133.625
1428.58758	59450.225
1432.02203	60106.425
1435.45416	61667.125
1438.88399	63450.325
1442.31151	64819.725
1445.73673	65426.325
1449.15965	65630.525
1452.58027	65501.925
1455.9986	65377.525
1459.41463	65865.225
1462.82837	66770.725
1466.23982	67810.725
1469.64898	68644.325
1473.05586	69069.025
1476.46045	68909.225
1479.86276	68413.125
1483.26279	67783.725
1486.66054	67318.325
1490.05602	67421.025
1493.44922	67738.725
1496.84016	68200.625
1500.22882	68926.825
1503.61521	70035.425
1506.99934	71259.325
1510.38121	72044.325
1513.76081	72136.725
1517.13816	71524.825
1520.51324	70908.625
1523.88607	70735.525
1527.25665	70967.525
1530.62498	71331.425
1533.99105	71361.625
1537.35488	70594.225
1540.71647	69220.925
1544.07581	67685.125
1547.4329	66078.025
1550.78776	64635.425
1554.14038	63551.225
1557.49077	62792.725
1560.83892	62280.725
1564.18484	61937.025
1567.52853	61861.725
1570.86999	62429.025
1574.20922	63764.725
1577.54624	65473.825
1580.88103	66942.425
1584.2136	68273.225
1587.54395	70049.725
1590.87208	72348.125
1594.19801	75085.625
1597.52172	77565.425
1600.84321	77613.825
1604.16251	74450.525
1607.47959	69761.225
1610.79447	65046.725
1614.10715	60417.125
1617.41763	56300.225
1620.7259	53269.225
1624.03199	51599.225
1627.33587	51451.825
1630.63757	52715.725
1633.93707	55623.525
1637.23439	60757.925
1640.52951	67958.225
1643.82246	75685.425
1647.11321	80976.825
1650.40179	80780.725
1653.68819	74718.325
1656.97241	65688.025
1660.25446	57396.025
1663.53433	51235.425
1666.81203	47179.525
1670.08756	44596.425
1673.36092	42990.825
1676.63211	41887.925
1679.90115	41116.125
1683.16801	40474.325
1686.43272	40067.725
1689.69527	39721.025
1692.95567	39483.925
1696.2139	39300.125
1699.46999	39206.825
1702.72392	39035.925
1705.97571	38907.425
1709.22535	38837.525
1712.47284	38727.525
1715.71819	38731.525
1718.96139	38593.125
1722.20246	38460.925
1725.44139	38309.625
1728.67818	38173.925
1731.91284	37943.625
1735.14537	37723.525
1738.37576	37554.025
1741.60403	37446.625
1744.83017	37320.825
1748.05418	37220.925
1751.27607	37192.225
1754.49584	37106.025
1757.71349	37019.225
1760.92903	37021.225
1764.14244	36986.625
1767.35375	36987.425
1770.56294	36958.325
1773.77002	36917.025
1776.97499	36888.825
1780.17785	36825.925
1783.37861	36718.625
1786.57727	36637.725
1789.77382	36545.925
1792.96828	36479.525
1796.16064	36389.625
1799.3509	36371.825
1802.53907	36307.525
1805.72514	36183.325
1808.90913	36142.325
1812.09102	36052.625
1815.27083	35970.225
1818.44856	35978.025
1821.6242	35941.225
1824.79776	35968.125
1827.96924	35941.425
1831.13864	35971.725
1834.30597	36010.025
1837.47122	36005.025
1840.6344	36005.425
1843.7955	35997.025
1846.95454	35979.325
1850.11151	35977.825
1853.26642	35951.125
1856.41926	35970.325
1859.57004	35899.825
1862.71876	35818.725
1865.86542	35801.425
1869.01003	35749.525
1872.15258	35719.825
1875.29308	35744.425
1878.43152	35574.825
1881.56792	35548.325
1884.70227	35468.725
1887.83457	35451.025
1890.96482	35396.725
1894.09304	35356.125
1897.21921	35357.625
1900.34335	35288.425
1903.46544	35147.925
1906.58551	35173.125
1909.70353	35127.925
1912.81953	35023.725
1915.93349	34974.725
1919.04543	34874.925
1922.15534	34850.825
1925.26322	34715.625
1928.36908	34655.425
1931.47292	34596.225
1934.57473	34502.225
1937.67453	34423.725
1940.77232	34381.025
1943.86808	34278.525
1946.96184	34204.025
1950.05358	34091.025
1953.14331	34015.625
1956.23103	33960.625
1959.31675	33878.725
1962.40046	33745.325
1965.48217	33650.425
1968.56188	33530.725
1971.63959	33457.925
1974.7153	33338.225
1977.78901	33204.725
1980.86073	33182.225
1983.93046	33113.825
1986.99819	33028.525
1990.06394	32918.425
1993.1277	32830.625
1996.18947	32699.725
1999.24925	32632.925
2002.30706	32498.425
2005.36288	32417.925
2008.41672	32332.425
2011.46859	32277.225
2014.51848	32175.025
2017.56639	32120.325
2020.61233	32040.525
2023.6563	31982.125
2026.6983	31962.925
2029.73833	31883.425
2032.7764	31809.625
2035.8125	31654.925
2038.84664	31582.425
2041.87881	31589.825
2044.90903	31537.925
2047.93729	31414.825
2050.96359	31437.325
2053.98794	31403.525
2057.01034	31365.625
2060.03078	31302.625
2063.04927	31317.425
2066.06582	31306.425
2069.08042	31258.725
2072.09307	31259.825
2075.10378	31239.525
2078.11255	31214.325
2081.11938	31196.825
2084.12426	31196.225
2087.12722	31183.025
2090.12824	31166.025
2093.12732	31193.825
2096.12447	31240.825
2099.11969	31142.225
2102.11299	31163.125
2105.10435	31194.525
2108.09379	31268.625
2111.08131	31289.525
2114.0669	31291.025
2117.05057	31240.525
2120.03233	31318.025
2123.01216	31290.525
2125.99008	31328.225
2128.96609	31360.125
2131.94018	31355.625
2134.91236	31375.225
2137.88263	31390.725
2140.851	31382.325
2143.81746	31395.625
2146.78201	31434.225
2149.74466	31403.825
2152.7054	31404.125
2155.66425	31403.125
2158.6212	31441.925
2161.57625	31395.425
2164.52941	31380.525
2167.48067	31409.325
2170.43004	31422.225
2173.37752	31389.425
2176.32311	31363.625
2179.26681	31315.625
2182.20863	31348.525
2185.14856	31348.725
2188.08661	31354.825
2191.02278	31361.025
2193.95707	31290.525
2196.88948	31315.125
2199.82001	31245.525
2202.74867	31217.625
2205.67545	31198.625
2208.60037	31172.025
2211.52341	31073.925
2214.44458	31085.525
2217.36388	31009.725
2220.28132	31001.225
2223.1969	30939.725
2226.11061	30909.925
2229.02246	30868.825
2231.93245	30775.225
2234.84058	30703.125
2237.74686	30658.725
2240.65128	30682.425
2243.55385	30570.225
2246.45456	30551.025
2249.35343	30517.925
2252.25044	30467.325
2255.14561	30318.625
2258.03893	30311.825
2260.93041	30336.425
2263.82004	30226.525
2266.70783	30167.725
2269.59378	30099.225
2272.4779	29987.325
2275.36017	29929.625
2278.24061	29861.825
2281.11922	29822.525
2283.996	29771.925
2286.87094	29741.925
2289.74405	29714.225
2292.61534	29687.825
2295.4848	29612.425
2298.35243	29635.325
2301.21824	29582.125
2304.08223	29577.725
2306.94439	29519.725
2309.80474	29559.225
2312.66327	29509.725
2315.51999	29488.825
2318.37489	29428.425
2321.22797	29435.725
2324.07925	29386.225
2326.92871	29340.725
2329.77637	29313.425
2332.62222	29295.325
2335.46626	29230.825
2338.3085	29237.725
2341.14893	29224.325
2343.98756	29190.325
2346.8244	29178.825
2349.65943	29147.925
2352.49267	29119.925
2355.32411	29109.625
2358.15376	29093.125
2360.98161	29084.525
2363.80768	29139.325
2366.63195	29079.125
2369.45444	29037.625
2372.27514	29001.725
2375.09405	28966.625
2377.91118	28949.225
2380.72652	28899.425
2383.54009	28873.025
2386.35187	28834.225
2389.16188	28724.025
2391.97011	28696.725
2394.77657	28663.625
2397.58125	28605.625
2400.38416	28583.525
2403.18529	28513.125
2405.98466	28479.125
2408.78226	28453.325
2411.57809	28454.625
2414.37216	28378.225
2417.16446	28343.325
2419.955	28347.425
2422.74378	28334.025
2425.5308	28309.425
2428.31606	28265.625
2431.09956	28239.225
2433.88131	28234.425
2436.6613	28239.125
2439.43954	28151.025
2442.21603	28161.825
2444.99077	28112.825
2447.76377	28150.725
2450.53501	28071.925
2453.30451	28073.525
2456.07226	28090.225
2458.83827	28066.225
2461.60254	28038.225
2464.36507	28047.925
2467.12586	27997.225
2469.88492	27971.325
2472.64224	27962.725
2475.39782	27946.425
2478.15167	27953.525
2480.90379	27972.925
2483.65417	27944.525
2486.40283	27902.825
2489.14976	27913.725
2491.89497	27879.525
2494.63845	27935.925
2497.3802	27867.925
2500.12024	27921.425
2502.85855	27930.025
2505.59514	27910.225
2508.33002	27899.125
2511.06318	27870.625
2513.79462	27812.525
2516.52435	27823.825
2519.25237	27815.725
2521.97867	27773.125
2524.70327	27795.325
2527.42616	27729.925
2530.14734	27711.625
2532.86681	27678.325
2535.58458	27652.825
2538.30065	27612.225
2541.01501	27611.125
2543.72768	27642.125
2546.43864	27534.925
2549.14791	27516.925
2551.85548	27499.125
2554.56136	27467.025
2557.26554	27411.525
2559.96803	27377.425
2562.66883	27354.125
2565.36794	27362.025
2568.06536	27370.225
2570.7611	27296.425
2573.45514	27260.125
2576.14751	27274.925
2578.83819	27185.225
2581.52719	27206.325
2584.21451	27127.825
2586.90015	27100.825
2589.58411	27050.525
2592.2664	27049.225
2594.94701	27023.025
2597.62594	27023.725
2600.30321	26928.125
2602.9788	26932.125
2605.65273	26927.125
2608.32498	26920.525
2610.99557	26864.125
2613.66449	26850.125
2616.33175	26822.825
2618.99734	26828.825
2621.66128	26792.825
2624.32355	26824.925
2626.98416	26710.425
2629.64311	26707.525
2632.30041	26717.925
2634.95605	26674.925
2637.61004	26618.625
2640.26238	26657.425
2642.91306	26646.825
2645.56209	26600.025
2648.20948	26658.125
2650.85521	26600.525
2653.4993	26657.725
2656.14175	26608.025
2658.78255	26632.025
2661.42171	26617.525
2664.05923	26670.825
2666.6951	26682.325
2669.32934	26664.525
2671.96194	26667.125
2674.59291	26649.625
2677.22224	26639.125
2679.84993	26668.625
2682.476	26623.025
2685.10043	26651.725
2687.72324	26594.425
2690.34441	26629.825
2692.96396	26656.125
2695.58188	26654.025
2698.19818	26623.625
2700.81285	26640.425
2703.4259	26612.925
2706.03733	26703.625
2708.64714	26719.925
2711.25533	26749.725
2713.86191	26749.725
2716.46687	26753.925
2719.07021	26739.625
2721.67194	26717.125
2724.27206	26716.025
2726.87057	26752.925
2729.46747	26744.025
2732.06276	26788.425
2734.65644	26797.225
2737.24852	26778.225
2739.83899	26775.225
2742.42786	26742.925
2745.01513	26679.425
2747.60079	26741.325
2750.18486	26678.425
2752.76733	26703.325
2755.3482	26712.625
2757.92747	26716.725
2760.50515	26678.325
2763.08123	26630.925
2765.65573	26531.425
2768.22863	26540.625
2770.79994	26495.225
2773.36967	26470.225
2775.9378	26459.625
2778.50435	26415.625
2781.06932	26407.725
2783.6327	26445.625
2786.1945	26388.725
2788.75471	26359.825
2791.31335	26253.825
2793.87041	26256.625
2796.42589	26148.625
2798.97979	26177.425
2801.53212	26131.825
2804.08288	26075.825
2806.63206	26017.625
2809.17967	25991.825
2811.72571	25910.425
2814.27018	25881.625
2816.81308	25854.425
2819.35442	25805.825
2821.89419	25779.125
2824.43239	25696.625
2826.96904	25670.825
2829.50412	25683.725
2832.03763	25570.525
2834.56959	25613.125
2837.1	25559.025
2839.62884	25534.625
2842.15613	25488.525
2844.68186	25522.525
2847.20604	25440.425
2849.72867	25434.425
2852.24974	25381.325
2854.76927	25377.825
2857.28724	25351.925
2859.80367	25310.725
2862.31855	25295.225
2864.83189	25275.325
2867.34368	25206.325
2869.85393	25209.325
2872.36264	25141.025
2874.8698	25149.125
2877.37543	25155.425
2879.87952	25189.125
2882.38207	25150.725
2884.88308	25106.225
2887.38256	25183.725
2889.88051	25140.525
2892.37692	25135.225
2894.8718	25093.025
2897.36515	25120.525
2899.85698	25128.525
2902.34727	25182.925
2904.83604	25183.825
2907.32328	25192.625
2909.809	25203.225
2912.29319	25237.225
2914.77587	25215.225
2917.25702	25219.025
2919.73665	25183.425
2922.21476	25234.525
2924.69136	25198.325
2927.16644	25162.225
2929.64	25125.025
2932.11205	25100.925
2934.58258	25016.525
2937.05161	25102.225
2939.51912	25117.525
2941.98513	25073.225
2944.44962	24978.625
2946.91261	24901.325
2949.37409	24971.025
2951.83407	24957.825
2954.29254	24899.725
2956.74951	24878.225
2959.20498	24837.625
2961.65895	24839.425
2964.11142	24836.825
2966.56239	24770.725
2969.01186	24772.525
2971.45984	24708.025
2973.90632	24678.525
2976.35131	24608.725
2978.7948	24596.625
2981.23681	24574.225
2983.67732	24513.125
2986.11635	24471.325
2988.55388	24419.625
2990.98993	24368.825
2993.4245	24294.225
2995.85758	24209.625
2998.28917	24204.625
3000.71928	24158.125
3003.14791	24079.625
3005.57506	24052.825
3008.00073	23966.525
3010.42493	23967.325
3012.84764	23911.625
3015.26888	23911.025
3017.68865	23839.925
3020.10694	23811.125
3022.52376	23786.025
3024.9391	23730.225
3027.35298	23714.325
3029.76539	23733.925
3032.17632	23642.125
3034.5858	23653.525
3036.9938	23644.225
3039.40034	23573.625
3041.80542	23500.625
3044.20903	23489.025
3046.61118	23474.525
3049.01187	23395.025
3051.4111	23341.025
3053.80888	23298.625
3056.20519	23262.425
3058.60005	23194.225
3060.99345	23151.425
3063.3854	23116.525
3065.7759	23044.725
3068.16494	22990.325
3070.55254	22908.825
3072.93868	22866.325
3075.32338	22763.025
3077.70662	22750.725
3080.08842	22668.725
3082.46878	22656.325
3084.84769	22655.025
3087.22515	22617.425
3089.60118	22565.225
3091.97576	22579.525
3094.3489	22527.725
3096.72061	22498.825
3099.09087	22497.625
3101.4597	22463.225
3103.82709	22460.125
3106.19305	22371.725
3108.55757	22393.025
3110.92066	22282.425
3113.28232	22232.525
3115.64255	22193.525
3118.00134	22160.525
3120.35871	22112.325
3122.71466	22070.225
3125.06917	22040.025
3127.42226	21995.825
3129.77393	21982.325
3132.12417	21951.625
3134.47299	21962.825
3136.82039	21885.925
3139.16636	21904.525
3141.51092	21877.225
3143.85406	21860.225
3146.19579	21910.325
3148.53609	21851.125
3150.87499	21878.225
3153.21246	21893.425
3155.54853	21905.225
3157.88318	21835.525
3160.21642	21850.025
3162.54826	21785.425
3164.87868	21781.425
3167.2077	21752.525
3169.5353	21715.725
3171.86151	21726.925
3174.18631	21680.525
3176.5097	21617.325
3178.83169	21621.225
3181.15228	21581.125
3183.47147	21538.425
3185.78926	21570.125
3188.10565	21506.525
3190.42065	21481.525
3192.73424	21469.425
3195.04645	21451.725
3197.35725	21418.125
3199.66667	21427.925
3201.97469	21419.925
3204.28132	21376.725
3206.58656	21366.925
3208.8904	21384.825
3211.19287	21369.225
3213.49394	21330.325
3215.79363	21323.725
3218.09193	21374.225
3220.38884	21348.225
3222.68438	21355.325
3224.97853	21313.425
3227.2713	21295.125
3229.56269	21279.325
3231.8527	21206.725
3234.14133	21178.525
3236.42858	21158.525
3238.71446	21104.625
3240.99896	21052.725
3243.28209	21050.125
3245.56384	21003.025
3247.84423	20995.125
3250.12324	20950.525
3252.40088	20917.025
3254.67715	20907.125
3256.95205	20838.625
3259.22558	20844.425
3261.49775	20752.125
3263.76855	20737.825
3266.03799	20688.925
3268.30606	20685.725
3270.57277	20653.325
3272.83812	20595.225
3275.10211	20582.825
3277.36474	20520.425
3279.62601	20576.225
3281.88593	20550.025
3284.14448	20542.925
3286.40168	20512.425
3288.65753	20489.725
3290.91202	20430.225
3293.16516	20376.125
3295.41695	20312.925
3297.66738	20185.025
3299.91647	20108.725
3302.16421	19953.325
3304.4106	19874.925
3306.65564	19788.525
3308.89933	19659.625
3311.14169	19469.925
3313.38269	19317.225
3315.62236	19198.125
3317.86068	19015.725
3320.09766	18840.925
3322.3333	18678.925
3324.5676	18664.725
3326.80056	18375.125
3329.03219	18285.325
3331.26248	4.625
3333.49143	-0.275
3335.71905	0.025
