Data from AgNP_FTO_APTES_CRN_20uM_R6G_10uM_NaF_0.1M_Addition_RamanShift__22__17-26-08-031.txt Node

Date: Wed Dec 15 17:26:08 GMT 2021
User: TCL
Spectrometer: QEP01345
Trigger mode: 4
Integration Time (sec): 7.000000E0
Scans to average: 10
Electric dark correction enabled: true
Nonlinearity correction enabled: false
Boxcar width: 0
XAxis mode: Raman Shifts
Number of Pixels in Spectrum: 1044
>>>>>Begin Spectral Data<<<<<
46.04893	1.0875
50.45542	-1.5125
54.85868	-1.2125
59.25871	0.3875
63.6555	59.3875
68.04907	66.8875
72.43941	70.3875
76.82654	70.8875
81.21044	75.6875
85.59113	77.8875
89.96862	81.8875
94.34289	83.4875
98.71396	89.8875
103.08183	90.9875
107.4465	91.8875
111.80798	98.4875
116.16626	96.9875
120.52136	101.6875
124.87327	97.9875
129.222	103.9875
133.56755	109.3875
137.90993	116.7875
142.24913	124.6875
146.58517	137.5875
150.91804	157.5875
155.24774	176.1875
159.57429	220.5875
163.89768	276.7875
168.21792	356.8875
172.53501	485.6875
176.84895	673.0875
181.15975	931.2875
185.46741	1311.7875
189.77193	1812.4875
194.07331	2406.8875
198.37157	3098.8875
202.6667	3842.0875
206.9587	4547.0875
211.24758	5264.1875
215.53334	5962.3875
219.81599	6722.2875
224.09553	7549.4875
228.37195	8461.6875
232.64527	9448.5875
236.91549	10521.6875
241.18261	11632.0875
245.44663	12658.7875
249.70755	13576.5875
253.96539	14382.2875
258.22014	15065.6875
262.4718	15679.6875
266.72039	16039.4875
270.96589	16270.3875
275.20832	16326.0875
279.44768	16204.0875
283.68397	16088.8875
287.91719	15943.5875
292.14735	15881.9875
296.37445	15860.0875
300.59849	15882.8875
304.81948	15918.2875
309.03742	15822.1875
313.25231	15654.7875
317.46415	15371.6875
321.67296	15009.6875
325.87872	14703.3875
330.08145	14549.0875
334.28114	14551.6875
338.47781	14666.5875
342.67145	14850.1875
346.86207	15101.4875
351.04966	15365.7875
355.23424	15683.1875
359.4158	15934.4875
363.59435	16106.9875
367.76989	16222.8875
371.94243	16362.7875
376.11196	16412.3875
380.27849	16478.8875
384.44203	16547.6875
388.60257	16651.4875
392.76012	16791.2875
396.91468	16975.2875
401.06626	17244.2875
405.21485	17421.1875
409.36047	17411.4875
413.50311	17198.6875
417.64277	16987.9875
421.77947	16937.5875
425.9132	17005.6875
430.04396	17073.0875
434.17176	17203.0875
438.2966	17339.0875
442.41849	17578.7875
446.53742	18011.5875
450.6534	18422.4875
454.76644	18797.2875
458.87653	18984.4875
462.98368	18895.8875
467.08789	18739.7875
471.18916	18507.0875
475.2875	18329.4875
479.38291	18207.7875
483.4754	18070.4875
487.56496	17869.3875
491.6516	17630.4875
495.73531	17435.1875
499.81612	17339.4875
503.89401	17438.7875
507.96899	17503.8875
512.04106	17520.5875
516.11023	17483.1875
520.1765	17405.0875
524.23987	17363.7875
528.30034	17278.3875
532.35792	17138.7875
536.41261	16945.9875
540.46441	16760.7875
544.51333	16718.4875
548.55936	16871.1875
552.60252	17143.1875
556.64279	17464.2875
560.6802	17617.3875
564.71473	17687.8875
568.7464	17849.4875
572.7752	18096.1875
576.80114	18326.6875
580.82422	18586.4875
584.84444	18827.5875
588.86181	19068.4875
592.87633	19430.4875
596.888	19722.4875
600.89682	19904.6875
604.9028	20429.2875
608.90594	21704.0875
612.90624	22942.9875
616.90371	21750.5875
620.89834	18833.3875
624.89015	17580.0875
628.87913	17499.0875
632.86528	17586.7875
636.84862	17494.3875
640.82913	17276.6875
644.80683	16896.5875
648.78172	16536.6875
652.75379	16498.3875
656.72306	16623.6875
660.68952	16841.8875
664.65319	16774.7875
668.61405	16557.3875
672.57211	16471.0875
676.52738	16474.1875
680.47986	16466.1875
684.42955	16425.0875
688.37646	16386.2875
692.32058	16444.8875
696.26192	16587.1875
700.20048	16750.7875
704.13626	16861.6875
708.06928	16854.1875
711.99952	16786.4875
715.927	16732.7875
719.85171	16742.9875
723.77365	16692.9875
727.69284	16558.7875
731.60928	16433.0875
735.52295	16384.3875
739.43388	16399.6875
743.34206	16427.7875
747.24749	16508.0875
751.15017	16589.9875
755.05012	16840.4875
758.94733	17236.6875
762.8418	17930.3875
766.73354	19039.3875
770.62254	20159.6875
774.50882	20435.5875
778.39237	19604.0875
782.27321	18317.1875
786.15132	17317.4875
790.02671	16689.5875
793.89938	16427.2875
797.76935	16371.5875
801.6366	16326.5875
805.50115	16280.4875
809.36299	16237.8875
813.22213	16132.6875
817.07857	16120.3875
820.93231	16029.7875
824.78336	16051.1875
828.63172	16068.3875
832.47738	16059.5875
836.32036	16130.8875
840.16066	16202.2875
843.99827	16239.3875
847.8332	16151.4875
851.66546	16078.3875
855.49504	16017.5875
859.32195	16026.5875
863.1462	15970.5875
866.96777	15938.4875
870.78668	15883.5875
874.60293	15854.8875
878.41652	15868.3875
882.22745	15915.9875
886.03573	15916.0875
889.84136	15921.0875
893.64433	15893.4875
897.44466	15805.2875
901.24235	15734.8875
905.0374	15734.6875
908.8298	15700.9875
912.61957	15746.6875
916.40671	15895.3875
920.19121	16068.3875
923.97308	16212.1875
927.75233	16280.4875
931.52895	16224.8875
935.30295	16065.0875
939.07433	15856.4875
942.84309	15636.2875
946.60924	15545.2875
950.37278	15472.4875
954.13371	15468.0875
957.89203	15387.9875
961.64774	15322.5875
965.40086	15288.6875
969.15137	15264.2875
972.89929	15176.8875
976.64461	15165.6875
980.38733	15181.5875
984.12747	15258.5875
987.86502	15337.3875
991.59999	15548.8875
995.33237	15821.3875
999.06217	16280.8875
1002.78939	16716.2875
1006.51404	16945.4875
1010.23611	17134.6875
1013.95561	17253.2875
1017.67255	17202.4875
1021.38692	17036.6875
1025.09872	16914.7875
1028.80796	17036.7875
1032.51465	17520.8875
1036.21877	17979.4875
1039.92035	18048.8875
1043.61937	17824.3875
1047.31584	17463.8875
1051.00976	17091.2875
1054.70114	16901.3875
1058.38998	16938.5875
1062.07627	17125.3875
1065.76003	17350.8875
1069.44126	17687.7875
1073.11995	18081.0875
1076.79611	18381.9875
1080.46974	18441.1875
1084.14085	18287.3875
1087.80943	18132.1875
1091.47549	17971.4875
1095.13903	17781.4875
1098.80005	17499.2875
1102.45857	17150.6875
1106.11456	16925.5875
1109.76805	16846.6875
1113.41903	16925.9875
1117.06751	17026.1875
1120.71348	17105.6875
1124.35696	17272.1875
1127.99793	17441.6875
1131.63641	17577.1875
1135.2724	17482.8875
1138.90589	17349.9875
1142.5369	17259.1875
1146.16542	17242.8875
1149.79145	17269.6875
1153.415	17367.9875
1157.03607	17550.2875
1160.65467	17919.7875
1164.27079	18468.8875
1167.88443	19302.9875
1171.49561	20354.0875
1175.10432	21736.2875
1178.71056	23476.8875
1182.31434	25025.9875
1185.91565	25720.7875
1189.51451	25538.2875
1193.11091	24712.5875
1196.70485	23612.2875
1200.29634	22600.9875
1203.88538	21958.3875
1207.47197	21513.4875
1211.05612	21124.1875
1214.63782	20870.0875
1218.21708	20664.4875
1221.79391	20481.1875
1225.36829	20367.9875
1228.94024	20230.2875
1232.50976	19943.0875
1236.07685	19694.7875
1239.6415	19567.1875
1243.20374	19582.4875
1246.76355	19681.7875
1250.32093	19998.2875
1253.8759	20367.7875
1257.42845	20854.5875
1260.97859	21284.2875
1264.52631	21725.6875
1268.07163	22204.6875
1271.61453	22782.4875
1275.15503	23445.7875
1278.69312	24114.9875
1282.22882	24639.1875
1285.76211	25113.4875
1289.29301	25713.5875
1292.82151	26400.4875
1296.34761	27385.9875
1299.87133	28720.2875
1303.39266	30277.7875
1306.9116	32016.8875
1310.42815	33698.8875
1313.94233	34719.2875
1317.45412	34773.3875
1320.96354	34266.9875
1324.47058	33517.4875
1327.97525	32813.2875
1331.47754	32184.3875
1334.97747	31913.8875
1338.47502	31819.7875
1341.97022	31728.1875
1345.46305	31409.6875
1348.95352	30996.8875
1352.44163	30841.1875
1355.92738	31326.6875
1359.41078	32611.0875
1362.89183	33866.9875
1366.37053	33411.8875
1369.84688	31060.9875
1373.32088	28240.4875
1376.79254	26145.1875
1380.26186	25228.9875
1383.72883	24982.0875
1387.19347	24882.5875
1390.65578	24635.7875
1394.11575	24563.0875
1397.57339	24721.7875
1401.0287	25178.3875
1404.48168	25602.2875
1407.93234	25791.2875
1411.38068	25553.4875
1414.82669	24944.5875
1418.27039	24029.2875
1421.71177	23082.0875
1425.15083	22303.3875
1428.58758	21824.7875
1432.02203	21837.1875
1435.45416	22161.2875
1438.88399	22681.2875
1442.31151	23178.0875
1445.73673	23533.5875
1449.15965	23874.9875
1452.58027	24072.4875
1455.9986	24204.0875
1459.41463	24386.4875
1462.82837	24751.1875
1466.23982	25301.5875
1469.64898	25778.2875
1473.05586	26068.2875
1476.46045	26100.5875
1479.86276	26041.9875
1483.26279	25819.2875
1486.66054	25567.7875
1490.05602	25532.2875
1493.44922	25624.7875
1496.84016	25756.1875
1500.22882	26062.5875
1503.61521	26651.8875
1506.99934	27421.0875
1510.38121	28113.6875
1513.76081	28386.1875
1517.13816	27864.6875
1520.51324	26944.8875
1523.88607	26014.3875
1527.25665	25403.0875
1530.62498	25125.4875
1533.99105	25026.5875
1537.35488	24914.9875
1540.71647	24717.9875
1544.07581	24391.4875
1547.4329	24060.1875
1550.78776	23684.7875
1554.14038	23473.8875
1557.49077	23278.2875
1560.83892	23271.5875
1564.18484	23323.2875
1567.52853	23434.2875
1570.86999	23777.7875
1574.20922	24325.5875
1577.54624	24942.0875
1580.88103	25259.1875
1584.2136	25499.2875
1587.54395	25708.9875
1590.87208	26159.1875
1594.19801	27148.2875
1597.52172	28389.4875
1600.84321	28850.3875
1604.16251	27770.4875
1607.47959	25928.5875
1610.79447	23892.1875
1614.10715	22152.7875
1617.41763	20624.9875
1620.7259	19653.8875
1624.03199	19120.4875
1627.33587	19135.9875
1630.63757	19573.9875
1633.93707	20515.8875
1637.23439	22075.7875
1640.52951	24201.0875
1643.82246	26594.7875
1647.11321	28480.3875
1650.40179	28825.6875
1653.68819	27234.5875
1656.97241	24272.5875
1660.25446	21357.9875
1663.53433	19143.5875
1666.81203	17635.9875
1670.08756	16723.3875
1673.36092	16102.0875
1676.63211	15686.6875
1679.90115	15412.2875
1683.16801	15189.2875
1686.43272	15042.7875
1689.69527	14942.0875
1692.95567	14870.4875
1696.2139	14776.9875
1699.46999	14773.1875
1702.72392	14722.0875
1705.97571	14690.1875
1709.22535	14653.8875
1712.47284	14602.9875
1715.71819	14588.6875
1718.96139	14542.1875
1722.20246	14505.9875
1725.44139	14476.9875
1728.67818	14393.3875
1731.91284	14351.4875
1735.14537	14279.3875
1738.37576	14190.7875
1741.60403	14200.0875
1744.83017	14178.4875
1748.05418	14137.3875
1751.27607	14097.0875
1754.49584	14091.3875
1757.71349	14084.7875
1760.92903	14087.0875
1764.14244	14061.8875
1767.35375	14068.3875
1770.56294	14025.9875
1773.77002	14035.8875
1776.97499	14037.7875
1780.17785	13972.8875
1783.37861	13956.6875
1786.57727	13915.8875
1789.77382	13867.5875
1792.96828	13899.2875
1796.16064	13877.3875
1799.3509	13839.9875
1802.53907	13800.8875
1805.72514	13745.5875
1808.90913	13757.7875
1812.09102	13711.2875
1815.27083	13694.6875
1818.44856	13699.8875
1821.6242	13628.3875
1824.79776	13620.1875
1827.96924	13631.0875
1831.13864	13617.6875
1834.30597	13674.5875
1837.47122	13630.3875
1840.6344	13607.1875
1843.7955	13602.0875
1846.95454	13604.5875
1850.11151	13599.4875
1853.26642	13612.3875
1856.41926	13599.4875
1859.57004	13600.3875
1862.71876	13576.7875
1865.86542	13582.6875
1869.01003	13544.2875
1872.15258	13561.6875
1875.29308	13549.5875
1878.43152	13511.4875
1881.56792	13505.9875
1884.70227	13523.1875
1887.83457	13487.9875
1890.96482	13487.0875
1894.09304	13473.9875
1897.21921	13491.7875
1900.34335	13478.3875
1903.46544	13471.4875
1906.58551	13459.9875
1909.70353	13449.3875
1912.81953	13456.3875
1915.93349	13431.7875
1919.04543	13399.7875
1922.15534	13388.4875
1925.26322	13343.0875
1928.36908	13325.7875
1931.47292	13326.7875
1934.57473	13254.2875
1937.67453	13250.2875
1940.77232	13216.3875
1943.86808	13158.5875
1946.96184	13161.9875
1950.05358	13115.7875
1953.14331	13064.2875
1956.23103	13023.3875
1959.31675	13028.0875
1962.40046	12978.0875
1965.48217	12924.6875
1968.56188	12905.5875
1971.63959	12839.6875
1974.7153	12828.1875
1977.78901	12777.7875
1980.86073	12749.8875
1983.93046	12735.3875
1986.99819	12664.7875
1990.06394	12651.5875
1993.1277	12611.7875
1996.18947	12546.2875
1999.24925	12541.3875
2002.30706	12492.5875
2005.36288	12469.6875
2008.41672	12443.2875
2011.46859	12402.1875
2014.51848	12366.6875
2017.56639	12335.9875
2020.61233	12289.0875
2023.6563	12277.6875
2026.6983	12272.1875
2029.73833	12264.3875
2032.7764	12240.1875
2035.8125	12220.3875
2038.84664	12183.8875
2041.87881	12167.0875
2044.90903	12157.8875
2047.93729	12139.0875
2050.96359	12146.4875
2053.98794	12120.0875
2057.01034	12119.5875
2060.03078	12111.9875
2063.04927	12067.0875
2066.06582	12070.6875
2069.08042	12077.9875
2072.09307	12052.2875
2075.10378	12043.7875
2078.11255	12036.6875
2081.11938	12029.9875
2084.12426	12064.3875
2087.12722	12028.7875
2090.12824	12039.3875
2093.12732	12042.5875
2096.12447	12040.3875
2099.11969	12046.0875
2102.11299	12040.7875
2105.10435	12051.4875
2108.09379	12064.4875
2111.08131	12079.9875
2114.0669	12106.0875
2117.05057	12085.6875
2120.03233	12061.0875
2123.01216	12076.1875
2125.99008	12081.9875
2128.96609	12121.2875
2131.94018	12138.8875
2134.91236	12133.0875
2137.88263	12146.3875
2140.851	12148.4875
2143.81746	12174.8875
2146.78201	12182.8875
2149.74466	12174.7875
2152.7054	12200.5875
2155.66425	12212.3875
2158.6212	12204.5875
2161.57625	12192.9875
2164.52941	12183.6875
2167.48067	12167.1875
2170.43004	12156.9875
2173.37752	12177.8875
2176.32311	12157.4875
2179.26681	12184.9875
2182.20863	12175.3875
2185.14856	12165.3875
2188.08661	12160.3875
2191.02278	12164.8875
2193.95707	12162.5875
2196.88948	12167.9875
2199.82001	12182.0875
2202.74867	12157.3875
2205.67545	12167.0875
2208.60037	12169.3875
2211.52341	12154.3875
2214.44458	12129.3875
2217.36388	12101.6875
2220.28132	12091.9875
2223.1969	12087.5875
2226.11061	12070.9875
2229.02246	12080.6875
2231.93245	12030.1875
2234.84058	11993.7875
2237.74686	12018.3875
2240.65128	11993.2875
2243.55385	11967.2875
2246.45456	11922.8875
2249.35343	11910.1875
2252.25044	11904.4875
2255.14561	11890.6875
2258.03893	11881.3875
2260.93041	11886.0875
2263.82004	11826.8875
2266.70783	11820.6875
2269.59378	11785.7875
2272.4779	11763.8875
2275.36017	11703.3875
2278.24061	11682.4875
2281.11922	11671.4875
2283.996	11658.2875
2286.87094	11662.4875
2289.74405	11643.7875
2292.61534	11623.7875
2295.4848	11638.7875
2298.35243	11662.7875
2301.21824	11628.9875
2304.08223	11634.5875
2306.94439	11640.8875
2309.80474	11649.1875
2312.66327	11672.4875
2315.51999	11630.4875
2318.37489	11662.7875
2321.22797	11628.5875
2324.07925	11609.1875
2326.92871	11614.2875
2329.77637	11607.0875
2332.62222	11640.8875
2335.46626	11596.9875
2338.3085	11593.1875
2341.14893	11597.1875
2343.98756	11619.7875
2346.8244	11598.4875
2349.65943	11605.1875
2352.49267	11585.5875
2355.32411	11565.0875
2358.15376	11577.4875
2360.98161	11566.5875
2363.80768	11568.2875
2366.63195	11577.7875
2369.45444	11529.9875
2372.27514	11513.4875
2375.09405	11488.7875
2377.91118	11471.8875
2380.72652	11436.1875
2383.54009	11427.7875
2386.35187	11437.0875
2389.16188	11368.7875
2391.97011	11362.4875
2394.77657	11378.2875
2397.58125	11342.7875
2400.38416	11372.1875
2403.18529	11319.2875
2405.98466	11325.1875
2408.78226	11301.7875
2411.57809	11271.8875
2414.37216	11245.2875
2417.16446	11233.8875
2419.955	11214.8875
2422.74378	11220.8875
2425.5308	11207.8875
2428.31606	11200.8875
2431.09956	11174.4875
2433.88131	11183.2875
2436.6613	11179.4875
2439.43954	11178.6875
2442.21603	11138.7875
2444.99077	11132.2875
2447.76377	11151.4875
2450.53501	11153.0875
2453.30451	11156.1875
2456.07226	11131.8875
2458.83827	11126.9875
2461.60254	11117.1875
2464.36507	11107.3875
2467.12586	11133.2875
2469.88492	11138.6875
2472.64224	11128.2875
2475.39782	11144.4875
2478.15167	11146.3875
2480.90379	11124.4875
2483.65417	11148.7875
2486.40283	11174.2875
2489.14976	11175.7875
2491.89497	11175.5875
2494.63845	11186.0875
2497.3802	11183.4875
2500.12024	11161.0875
2502.85855	11163.4875
2505.59514	11149.5875
2508.33002	11141.6875
2511.06318	11130.4875
2513.79462	11106.3875
2516.52435	11132.5875
2519.25237	11110.0875
2521.97867	11085.2875
2524.70327	11094.7875
2527.42616	11096.0875
2530.14734	11059.3875
2532.86681	11061.9875
2535.58458	11060.6875
2538.30065	11053.1875
2541.01501	11051.4875
2543.72768	11059.1875
2546.43864	11011.5875
2549.14791	11000.6875
2551.85548	11022.5875
2554.56136	10991.2875
2557.26554	10969.9875
2559.96803	10982.9875
2562.66883	10982.4875
2565.36794	10999.9875
2568.06536	10973.0875
2570.7611	10974.6875
2573.45514	10955.5875
2576.14751	10978.0875
2578.83819	10927.5875
2581.52719	10942.4875
2584.21451	10931.1875
2586.90015	10936.5875
2589.58411	10905.7875
2592.2664	10913.8875
2594.94701	10881.3875
2597.62594	10883.5875
2600.30321	10882.3875
2602.9788	10857.6875
2605.65273	10864.4875
2608.32498	10858.0875
2610.99557	10847.7875
2613.66449	10859.2875
2616.33175	10844.9875
2618.99734	10856.3875
2621.66128	10856.5875
2624.32355	10857.2875
2626.98416	10854.6875
2629.64311	10851.1875
2632.30041	10846.5875
2634.95605	10844.4875
2637.61004	10840.2875
2640.26238	10805.4875
2642.91306	10798.6875
2645.56209	10814.1875
2648.20948	10791.5875
2650.85521	10786.1875
2653.4993	10797.6875
2656.14175	10788.8875
2658.78255	10796.1875
2661.42171	10786.5875
2664.05923	10799.8875
2666.6951	10790.5875
2669.32934	10812.4875
2671.96194	10803.2875
2674.59291	10800.2875
2677.22224	10787.8875
2679.84993	10823.8875
2682.476	10807.3875
2685.10043	10791.1875
2687.72324	10773.4875
2690.34441	10791.3875
2692.96396	10766.2875
2695.58188	10792.4875
2698.19818	10780.1875
2700.81285	10792.6875
2703.4259	10798.1875
2706.03733	10851.4875
2708.64714	10825.2875
2711.25533	10853.2875
2713.86191	10817.9875
2716.46687	10847.3875
2719.07021	10851.5875
2721.67194	10851.5875
2724.27206	10840.3875
2726.87057	10848.2875
2729.46747	10837.8875
2732.06276	10849.5875
2734.65644	10810.1875
2737.24852	10823.8875
2739.83899	10829.9875
2742.42786	10847.8875
2745.01513	10791.2875
2747.60079	10814.2875
2750.18486	10799.7875
2752.76733	10834.6875
2755.3482	10822.7875
2757.92747	10823.4875
2760.50515	10804.6875
2763.08123	10783.9875
2765.65573	10793.1875
2768.22863	10784.1875
2770.79994	10791.3875
2773.36967	10772.1875
2775.9378	10770.8875
2778.50435	10757.3875
2781.06932	10769.3875
2783.6327	10784.7875
2786.1945	10751.7875
2788.75471	10716.1875
2791.31335	10708.7875
2793.87041	10695.8875
2796.42589	10680.1875
2798.97979	10682.5875
2801.53212	10660.8875
2804.08288	10662.7875
2806.63206	10651.0875
2809.17967	10611.5875
2811.72571	10554.2875
2814.27018	10585.6875
2816.81308	10577.4875
2819.35442	10565.6875
2821.89419	10543.9875
2824.43239	10536.8875
2826.96904	10530.1875
2829.50412	10536.7875
2832.03763	10492.6875
2834.56959	10510.0875
2837.1	10493.1875
2839.62884	10496.8875
2842.15613	10481.8875
2844.68186	10508.3875
2847.20604	10484.9875
2849.72867	10463.6875
2852.24974	10471.7875
2854.76927	10497.0875
2857.28724	10467.5875
2859.80367	10458.9875
2862.31855	10462.8875
2864.83189	10454.9875
2867.34368	10426.9875
2869.85393	10438.2875
2872.36264	10401.4875
2874.8698	10428.8875
2877.37543	10418.5875
2879.87952	10433.7875
2882.38207	10435.1875
2884.88308	10465.4875
2887.38256	10476.7875
2889.88051	10453.3875
2892.37692	10466.0875
2894.8718	10429.6875
2897.36515	10455.5875
2899.85698	10461.1875
2902.34727	10471.9875
2904.83604	10487.4875
2907.32328	10515.7875
2909.809	10503.9875
2912.29319	10525.3875
2914.77587	10507.8875
2917.25702	10499.7875
2919.73665	10479.6875
2922.21476	10532.9875
2924.69136	10493.7875
2927.16644	10502.5875
2929.64	10479.7875
2932.11205	10454.7875
2934.58258	10496.0875
2937.05161	10488.6875
2939.51912	10486.4875
2941.98513	10468.9875
2944.44962	10454.8875
2946.91261	10417.4875
2949.37409	10430.3875
2951.83407	10425.0875
2954.29254	10419.4875
2956.74951	10392.7875
2959.20498	10396.9875
2961.65895	10414.1875
2964.11142	10398.5875
2966.56239	10394.9875
2969.01186	10365.0875
2971.45984	10345.2875
2973.90632	10310.6875
2976.35131	10305.3875
2978.7948	10266.6875
2981.23681	10266.9875
2983.67732	10240.5875
2986.11635	10213.4875
2988.55388	10216.1875
2990.98993	10194.8875
2993.4245	10178.2875
2995.85758	10182.8875
2998.28917	10125.7875
3000.71928	10132.8875
3003.14791	10101.1875
3005.57506	10087.6875
3008.00073	10089.5875
3010.42493	10102.0875
3012.84764	10060.0875
3015.26888	10056.1875
3017.68865	10024.7875
3020.10694	10033.4875
3022.52376	10010.1875
3024.9391	9988.0875
3027.35298	10001.5875
3029.76539	10013.6875
3032.17632	9988.5875
3034.5858	9982.7875
3036.9938	9965.4875
3039.40034	9988.1875
3041.80542	9963.4875
3044.20903	9959.0875
3046.61118	9958.9875
3049.01187	9946.1875
3051.4111	9932.9875
3053.80888	9900.8875
3056.20519	9903.9875
3058.60005	9866.0875
3060.99345	9857.1875
3063.3854	9829.7875
3065.7759	9835.5875
3068.16494	9802.8875
3070.55254	9758.0875
3072.93868	9760.5875
3075.32338	9758.0875
3077.70662	9727.1875
3080.08842	9689.8875
3082.46878	9687.4875
3084.84769	9683.4875
3087.22515	9684.4875
3089.60118	9682.4875
3091.97576	9694.5875
3094.3489	9689.2875
3096.72061	9682.5875
3099.09087	9686.3875
3101.4597	9687.6875
3103.82709	9682.8875
3106.19305	9646.9875
3108.55757	9668.8875
3110.92066	9642.2875
3113.28232	9633.9875
3115.64255	9612.2875
3118.00134	9587.4875
3120.35871	9590.5875
3122.71466	9577.5875
3125.06917	9550.5875
3127.42226	9569.4875
3129.77393	9561.3875
3132.12417	9558.4875
3134.47299	9556.6875
3136.82039	9565.0875
3139.16636	9572.2875
3141.51092	9571.1875
3143.85406	9573.3875
3146.19579	9591.6875
3148.53609	9562.8875
3150.87499	9607.0875
3153.21246	9570.9875
3155.54853	9602.1875
3157.88318	9591.5875
3160.21642	9599.6875
3162.54826	9597.0875
3164.87868	9585.2875
3167.2077	9603.6875
3169.5353	9597.0875
3171.86151	9597.4875
3174.18631	9586.8875
3176.5097	9576.6875
3178.83169	9583.6875
3181.15228	9560.7875
3183.47147	9574.0875
3185.78926	9588.8875
3188.10565	9555.9875
3190.42065	9575.8875
3192.73424	9569.5875
3195.04645	9565.2875
3197.35725	9559.6875
3199.66667	9568.5875
3201.97469	9593.4875
3204.28132	9579.8875
3206.58656	9631.9875
3208.8904	9597.2875
3211.19287	9612.4875
3213.49394	9606.6875
3215.79363	9596.0875
3218.09193	9606.4875
3220.38884	9614.5875
3222.68438	9592.3875
3224.97853	9608.6875
3227.2713	9594.7875
3229.56269	9597.2875
3231.8527	9579.2875
3234.14133	9546.9875
3236.42858	9569.7875
3238.71446	9539.5875
3240.99896	9519.4875
3243.28209	9516.8875
3245.56384	9505.0875
3247.84423	9520.0875
3250.12324	9518.4875
3252.40088	9532.8875
3254.67715	9517.1875
3256.95205	9513.9875
3259.22558	9511.0875
3261.49775	9500.0875
3263.76855	9487.9875
3266.03799	9464.7875
3268.30606	9453.2875
3270.57277	9450.8875
3272.83812	9422.0875
3275.10211	9410.7875
3277.36474	9386.7875
3279.62601	9413.0875
3281.88593	9385.4875
3284.14448	9419.7875
3286.40168	9410.9875
3288.65753	9406.9875
3290.91202	9383.3875
3293.16516	9361.8875
3295.41695	9341.6875
3297.66738	9280.5875
3299.91647	9241.3875
3302.16421	9193.2875
3304.4106	9182.2875
3306.65564	9124.0875
3308.89933	9083.4875
3311.14169	9032.5875
3313.38269	8943.8875
3315.62236	8928.3875
3317.86068	8846.5875
3320.09766	8762.7875
3322.3333	8700.4875
3324.5676	8714.0875
3326.80056	8573.2875
3329.03219	8532.1875
3331.26248	2.7875
3333.49143	0.0875
3335.71905	-0.8125
