Data from AgNP_FTO_APTES_CRN_200uM_R6G_10uM_NaF_0.1M_Addition_RamanShift__23__19-43-48-187.txt Node

Date: Wed Dec 15 19:43:48 GMT 2021
User: TCL
Spectrometer: QEP01345
Trigger mode: 4
Integration Time (sec): 7.000000E0
Scans to average: 10
Electric dark correction enabled: true
Nonlinearity correction enabled: false
Boxcar width: 0
XAxis mode: Raman Shifts
Number of Pixels in Spectrum: 1044
>>>>>Begin Spectral Data<<<<<
46.04893	1.6375
50.45542	-1.4625
54.85868	-0.9625
59.25871	-1.1625
63.6555	59.4375
68.04907	69.4375
72.43941	68.9375
76.82654	73.2375
81.21044	76.2375
85.59113	76.7375
89.96862	85.0375
94.34289	80.9375
98.71396	89.2375
103.08183	93.5375
107.4465	94.8375
111.80798	98.0375
116.16626	101.1375
120.52136	102.5375
124.87327	104.9375
129.222	108.1375
133.56755	107.6375
137.90993	119.0375
142.24913	127.5375
146.58517	141.6375
150.91804	169.4375
155.24774	195.0375
159.57429	237.9375
163.89768	300.9375
168.21792	396.4375
172.53501	529.9375
176.84895	741.6375
181.15975	1024.6375
185.46741	1446.8375
189.77193	1987.1375
194.07331	2659.9375
198.37157	3429.8375
202.6667	4244.8375
206.9587	5049.2375
211.24758	5844.3375
215.53334	6611.8375
219.81599	7435.5375
224.09553	8352.5375
228.37195	9333.9375
232.64527	10449.0375
236.91549	11624.3375
241.18261	12794.4375
245.44663	13930.6375
249.70755	14947.1375
253.96539	15809.2375
258.22014	16629.3375
262.4718	17264.5375
266.72039	17678.2375
270.96589	17925.8375
275.20832	17977.8375
279.44768	17863.3375
283.68397	17712.3375
287.91719	17556.1375
292.14735	17461.6375
296.37445	17445.8375
300.59849	17471.4375
304.81948	17423.8375
309.03742	17382.7375
313.25231	17190.6375
317.46415	16864.3375
321.67296	16484.5375
325.87872	16210.3375
330.08145	16106.4375
334.28114	16096.3375
338.47781	16242.2375
342.67145	16390.5375
346.86207	16663.3375
351.04966	16961.1375
355.23424	17277.6375
359.4158	17552.9375
363.59435	17757.6375
367.76989	17932.1375
371.94243	18054.3375
376.11196	18149.6375
380.27849	18289.5375
384.44203	18410.3375
388.60257	18521.8375
392.76012	18653.5375
396.91468	18851.8375
401.06626	19097.4375
405.21485	19234.5375
409.36047	19194.9375
413.50311	18960.5375
417.64277	18794.3375
421.77947	18748.5375
425.9132	18797.2375
430.04396	18933.5375
434.17176	19062.9375
438.2966	19333.9375
442.41849	19717.5375
446.53742	20228.9375
450.6534	20721.4375
454.76644	21157.6375
458.87653	21269.9375
462.98368	21140.0375
467.08789	20939.7375
471.18916	20755.3375
475.2875	20666.7375
479.38291	20586.0375
483.4754	20508.8375
487.56496	20214.3375
491.6516	19933.9375
495.73531	19679.9375
499.81612	19522.1375
503.89401	19538.3375
507.96899	19603.4375
512.04106	19622.7375
516.11023	19656.9375
520.1765	19679.1375
524.23987	19689.8375
528.30034	19610.1375
532.35792	19522.5375
536.41261	19379.3375
540.46441	19198.9375
544.51333	19181.9375
548.55936	19308.0375
552.60252	19625.2375
556.64279	20033.2375
560.6802	20277.7375
564.71473	20408.9375
568.7464	20566.4375
572.7752	20818.7375
576.80114	20875.0375
580.82422	20913.6375
584.84444	21046.1375
588.86181	21435.9375
592.87633	22011.7375
596.888	22429.7375
600.89682	22422.4375
604.9028	22641.8375
608.90594	23769.3375
612.90624	25141.2375
616.90371	24068.6375
620.89834	21088.9375
624.89015	19705.7375
628.87913	19582.5375
632.86528	19688.7375
636.84862	19727.7375
640.82913	19562.7375
644.80683	19220.6375
648.78172	18953.6375
652.75379	18879.3375
656.72306	18968.6375
660.68952	19206.4375
664.65319	19189.9375
668.61405	18935.5375
672.57211	18855.5375
676.52738	18926.1375
680.47986	18963.8375
684.42955	18937.4375
688.37646	18871.2375
692.32058	18899.1375
696.26192	19024.3375
700.20048	19160.7375
704.13626	19262.0375
708.06928	19232.6375
711.99952	19148.7375
715.927	19087.8375
719.85171	19071.6375
723.77365	19043.5375
727.69284	18991.7375
731.60928	18860.9375
735.52295	18841.4375
739.43388	18815.2375
743.34206	18842.8375
747.24749	18893.4375
751.15017	18967.6375
755.05012	19155.8375
758.94733	19557.3375
762.8418	20202.2375
766.73354	21330.9375
770.62254	22417.6375
774.50882	22770.1375
778.39237	21985.5375
782.27321	20653.4375
786.15132	19545.4375
790.02671	18949.2375
793.89938	18651.2375
797.76935	18563.4375
801.6366	18504.3375
805.50115	18478.4375
809.36299	18479.0375
813.22213	18423.8375
817.07857	18454.0375
820.93231	18405.6375
824.78336	18387.3375
828.63172	18385.4375
832.47738	18378.6375
836.32036	18383.8375
840.16066	18407.5375
843.99827	18387.9375
847.8332	18348.2375
851.66546	18283.5375
855.49504	18274.8375
859.32195	18298.2375
863.1462	18290.4375
866.96777	18244.3375
870.78668	18221.5375
874.60293	18209.2375
878.41652	18180.4375
882.22745	18241.7375
886.03573	18292.1375
889.84136	18217.2375
893.64433	18195.4375
897.44466	18150.8375
901.24235	18093.5375
905.0374	18033.3375
908.8298	18048.5375
912.61957	18037.5375
916.40671	18180.8375
920.19121	18282.5375
923.97308	18350.7375
927.75233	18435.5375
931.52895	18411.5375
935.30295	18232.7375
939.07433	18034.6375
942.84309	17823.5375
946.60924	17717.9375
950.37278	17629.0375
954.13371	17631.2375
957.89203	17575.8375
961.64774	17559.3375
965.40086	17543.4375
969.15137	17471.9375
972.89929	17393.8375
976.64461	17352.7375
980.38733	17307.1375
984.12747	17374.4375
987.86502	17467.1375
991.59999	17584.1375
995.33237	17775.3375
999.06217	18063.4375
1002.78939	18377.6375
1006.51404	18605.6375
1010.23611	18769.1375
1013.95561	18860.1375
1017.67255	18850.7375
1021.38692	18721.5375
1025.09872	18550.7375
1028.80796	18530.0375
1032.51465	18646.0375
1036.21877	18825.7375
1039.92035	18906.4375
1043.61937	18842.7375
1047.31584	18694.2375
1051.00976	18590.6375
1054.70114	18560.8375
1058.38998	18647.8375
1062.07627	18838.4375
1065.76003	19110.3375
1069.44126	19440.6375
1073.11995	19829.8375
1076.79611	20130.7375
1080.46974	20150.0375
1084.14085	19939.1375
1087.80943	19752.2375
1091.47549	19564.8375
1095.13903	19415.4375
1098.80005	19168.2375
1102.45857	18872.6375
1106.11456	18674.5375
1109.76805	18605.9375
1113.41903	18709.5375
1117.06751	18832.4375
1120.71348	19008.1375
1124.35696	19183.9375
1127.99793	19375.1375
1131.63641	19463.2375
1135.2724	19369.8375
1138.90589	19205.8375
1142.5369	19081.9375
1146.16542	19020.9375
1149.79145	19069.7375
1153.415	19200.0375
1157.03607	19363.6375
1160.65467	19675.9375
1164.27079	20258.8375
1167.88443	21032.6375
1171.49561	22049.4375
1175.10432	23444.4375
1178.71056	25089.1375
1182.31434	26501.8375
1185.91565	27109.6375
1189.51451	26805.4375
1193.11091	26048.6375
1196.70485	25119.1375
1200.29634	24280.0375
1203.88538	23617.3375
1207.47197	23167.8375
1211.05612	22774.6375
1214.63782	22524.1375
1218.21708	22283.2375
1221.79391	22118.5375
1225.36829	21991.6375
1228.94024	21763.7375
1232.50976	21479.0375
1236.07685	21257.8375
1239.6415	21196.4375
1243.20374	21207.3375
1246.76355	21333.0375
1250.32093	21538.3375
1253.8759	21841.3375
1257.42845	22304.4375
1260.97859	22659.3375
1264.52631	22988.7375
1268.07163	23406.4375
1271.61453	23845.2375
1275.15503	24332.7375
1278.69312	24833.6375
1282.22882	25242.0375
1285.76211	25767.7375
1289.29301	26460.5375
1292.82151	27355.0375
1296.34761	28488.9375
1299.87133	29767.9375
1303.39266	31203.0375
1306.9116	32831.6375
1310.42815	34441.3375
1313.94233	35580.4375
1317.45412	35826.7375
1320.96354	35327.9375
1324.47058	34592.9375
1327.97525	33878.0375
1331.47754	33302.7375
1334.97747	33034.7375
1338.47502	33041.9375
1341.97022	32930.7375
1345.46305	32621.5375
1348.95352	32139.3375
1352.44163	32038.6375
1355.92738	32580.9375
1359.41078	33857.0375
1362.89183	35091.8375
1366.37053	34857.4375
1369.84688	32449.2375
1373.32088	29506.3375
1376.79254	27429.1375
1380.26186	26587.2375
1383.72883	26437.9375
1387.19347	26454.1375
1390.65578	26347.9375
1394.11575	26430.8375
1397.57339	26772.6375
1401.0287	27392.8375
1404.48168	27893.9375
1407.93234	28102.9375
1411.38068	27894.2375
1414.82669	27226.7375
1418.27039	26221.7375
1421.71177	25153.0375
1425.15083	24189.1375
1428.58758	23662.8375
1432.02203	23646.2375
1435.45416	23940.7375
1438.88399	24416.4375
1442.31151	24856.0375
1445.73673	25267.2375
1449.15965	25610.4375
1452.58027	25931.9375
1455.9986	26081.1375
1459.41463	26264.6375
1462.82837	26563.7375
1466.23982	27036.6375
1469.64898	27370.8375
1473.05586	27575.6375
1476.46045	27599.0375
1479.86276	27426.3375
1483.26279	27227.2375
1486.66054	27049.8375
1490.05602	26979.1375
1493.44922	27014.2375
1496.84016	27014.2375
1500.22882	27126.4375
1503.61521	27614.8375
1506.99934	28392.7375
1510.38121	29144.9375
1513.76081	29480.8375
1517.13816	28938.1375
1520.51324	27888.4375
1523.88607	26906.1375
1527.25665	26343.5375
1530.62498	26102.7375
1533.99105	26059.1375
1537.35488	26035.8375
1540.71647	25913.8375
1544.07581	25701.0375
1547.4329	25362.3375
1550.78776	25005.6375
1554.14038	24738.7375
1557.49077	24648.3375
1560.83892	24626.4375
1564.18484	24700.7375
1567.52853	24902.9375
1570.86999	25239.6375
1574.20922	25843.4375
1577.54624	26504.3375
1580.88103	26858.7375
1584.2136	26909.5375
1587.54395	26947.2375
1590.87208	27401.3375
1594.19801	28338.7375
1597.52172	29471.9375
1600.84321	29960.4375
1604.16251	29159.1375
1607.47959	27393.0375
1610.79447	25358.7375
1614.10715	23404.5375
1617.41763	21958.7375
1620.7259	20994.6375
1624.03199	20456.9375
1627.33587	20445.4375
1630.63757	20796.9375
1633.93707	21708.4375
1637.23439	23210.0375
1640.52951	25315.4375
1643.82246	27731.5375
1647.11321	29804.7375
1650.40179	30347.9375
1653.68819	28919.2375
1656.97241	25974.6375
1660.25446	23017.3375
1663.53433	20728.3375
1666.81203	19260.0375
1670.08756	18298.9375
1673.36092	17699.5375
1676.63211	17318.4375
1679.90115	17004.7375
1683.16801	16787.2375
1686.43272	16644.8375
1689.69527	16526.2375
1692.95567	16432.2375
1696.2139	16421.9375
1699.46999	16373.1375
1702.72392	16321.0375
1705.97571	16281.2375
1709.22535	16224.5375
1712.47284	16185.2375
1715.71819	16193.8375
1718.96139	16152.5375
1722.20246	16104.3375
1725.44139	16047.4375
1728.67818	15968.8375
1731.91284	15899.7375
1735.14537	15835.5375
1738.37576	15828.7375
1741.60403	15764.6375
1744.83017	15752.8375
1748.05418	15730.3375
1751.27607	15686.4375
1754.49584	15669.9375
1757.71349	15640.4375
1760.92903	15661.3375
1764.14244	15649.1375
1767.35375	15640.2375
1770.56294	15621.2375
1773.77002	15572.4375
1776.97499	15563.0375
1780.17785	15541.1375
1783.37861	15513.6375
1786.57727	15481.5375
1789.77382	15471.2375
1792.96828	15433.4375
1796.16064	15411.8375
1799.3509	15381.5375
1802.53907	15342.4375
1805.72514	15316.7375
1808.90913	15275.6375
1812.09102	15240.5375
1815.27083	15200.5375
1818.44856	15199.4375
1821.6242	15195.2375
1824.79776	15159.1375
1827.96924	15155.6375
1831.13864	15135.0375
1834.30597	15130.2375
1837.47122	15114.2375
1840.6344	15100.3375
1843.7955	15112.6375
1846.95454	15106.6375
1850.11151	15078.0375
1853.26642	15080.8375
1856.41926	15108.1375
1859.57004	15083.4375
1862.71876	15079.8375
1865.86542	15082.4375
1869.01003	15079.2375
1872.15258	15067.3375
1875.29308	15059.4375
1878.43152	15031.3375
1881.56792	15055.2375
1884.70227	14997.0375
1887.83457	15008.8375
1890.96482	14999.2375
1894.09304	14988.4375
1897.21921	14985.8375
1900.34335	14972.9375
1903.46544	14950.4375
1906.58551	14941.9375
1909.70353	14917.0375
1912.81953	14935.7375
1915.93349	14907.5375
1919.04543	14875.4375
1922.15534	14845.4375
1925.26322	14821.8375
1928.36908	14799.0375
1931.47292	14792.0375
1934.57473	14765.4375
1937.67453	14694.3375
1940.77232	14683.3375
1943.86808	14619.7375
1946.96184	14600.5375
1950.05358	14558.7375
1953.14331	14505.0375
1956.23103	14446.6375
1959.31675	14459.1375
1962.40046	14395.3375
1965.48217	14353.6375
1968.56188	14328.9375
1971.63959	14289.7375
1974.7153	14231.5375
1977.78901	14194.8375
1980.86073	14112.2375
1983.93046	14083.9375
1986.99819	14070.0375
1990.06394	14042.3375
1993.1277	14000.8375
1996.18947	13929.3375
1999.24925	13912.0375
2002.30706	13901.7375
2005.36288	13835.8375
2008.41672	13807.7375
2011.46859	13789.5375
2014.51848	13745.9375
2017.56639	13715.1375
2020.61233	13663.1375
2023.6563	13661.8375
2026.6983	13623.8375
2029.73833	13612.5375
2032.7764	13563.0375
2035.8125	13578.8375
2038.84664	13520.7375
2041.87881	13530.5375
2044.90903	13484.8375
2047.93729	13466.5375
2050.96359	13448.8375
2053.98794	13450.5375
2057.01034	13408.0375
2060.03078	13409.1375
2063.04927	13383.5375
2066.06582	13389.9375
2069.08042	13360.7375
2072.09307	13356.1375
2075.10378	13342.9375
2078.11255	13335.3375
2081.11938	13337.7375
2084.12426	13346.0375
2087.12722	13346.9375
2090.12824	13333.5375
2093.12732	13373.2375
2096.12447	13370.4375
2099.11969	13356.7375
2102.11299	13350.2375
2105.10435	13343.7375
2108.09379	13356.6375
2111.08131	13364.0375
2114.0669	13322.8375
2117.05057	13358.3375
2120.03233	13376.9375
2123.01216	13366.9375
2125.99008	13395.4375
2128.96609	13414.9375
2131.94018	13400.5375
2134.91236	13403.7375
2137.88263	13456.0375
2140.851	13437.9375
2143.81746	13488.8375
2146.78201	13456.9375
2149.74466	13446.1375
2152.7054	13444.1375
2155.66425	13483.7375
2158.6212	13494.3375
2161.57625	13507.1375
2164.52941	13463.1375
2167.48067	13455.5375
2170.43004	13432.0375
2173.37752	13420.3375
2176.32311	13458.8375
2179.26681	13434.4375
2182.20863	13461.0375
2185.14856	13448.6375
2188.08661	13406.9375
2191.02278	13453.9375
2193.95707	13418.1375
2196.88948	13417.0375
2199.82001	13408.8375
2202.74867	13400.0375
2205.67545	13412.1375
2208.60037	13412.5375
2211.52341	13389.4375
2214.44458	13330.6375
2217.36388	13312.0375
2220.28132	13272.5375
2223.1969	13272.9375
2226.11061	13260.1375
2229.02246	13238.9375
2231.93245	13208.5375
2234.84058	13180.6375
2237.74686	13207.8375
2240.65128	13193.9375
2243.55385	13157.1375
2246.45456	13135.6375
2249.35343	13127.3375
2252.25044	13087.3375
2255.14561	13074.7375
2258.03893	13081.9375
2260.93041	13044.3375
2263.82004	13001.5375
2266.70783	12955.3375
2269.59378	12951.9375
2272.4779	12929.4375
2275.36017	12893.5375
2278.24061	12861.6375
2281.11922	12824.7375
2283.996	12823.2375
2286.87094	12801.7375
2289.74405	12764.1375
2292.61534	12746.3375
2295.4848	12753.1375
2298.35243	12786.1375
2301.21824	12744.1375
2304.08223	12724.8375
2306.94439	12707.8375
2309.80474	12736.8375
2312.66327	12738.7375
2315.51999	12710.6375
2318.37489	12713.3375
2321.22797	12682.7375
2324.07925	12704.1375
2326.92871	12663.4375
2329.77637	12668.4375
2332.62222	12647.5375
2335.46626	12610.5375
2338.3085	12634.9375
2341.14893	12597.4375
2343.98756	12631.4375
2346.8244	12586.9375
2349.65943	12595.3375
2352.49267	12569.1375
2355.32411	12603.6375
2358.15376	12561.5375
2360.98161	12549.9375
2363.80768	12568.7375
2366.63195	12551.7375
2369.45444	12501.1375
2372.27514	12514.8375
2375.09405	12527.6375
2377.91118	12461.8375
2380.72652	12460.0375
2383.54009	12414.0375
2386.35187	12396.2375
2389.16188	12364.0375
2391.97011	12344.2375
2394.77657	12333.1375
2397.58125	12319.5375
2400.38416	12307.3375
2403.18529	12289.8375
2405.98466	12265.4375
2408.78226	12232.5375
2411.57809	12223.3375
2414.37216	12184.6375
2417.16446	12202.6375
2419.955	12158.6375
2422.74378	12184.2375
2425.5308	12156.4375
2428.31606	12127.6375
2431.09956	12118.4375
2433.88131	12100.4375
2436.6613	12108.1375
2439.43954	12094.5375
2442.21603	12080.9375
2444.99077	12088.5375
2447.76377	12065.0375
2450.53501	12066.4375
2453.30451	12051.3375
2456.07226	12044.1375
2458.83827	12051.0375
2461.60254	12028.3375
2464.36507	12045.2375
2467.12586	12024.5375
2469.88492	12027.8375
2472.64224	12001.1375
2475.39782	12013.5375
2478.15167	12027.0375
2480.90379	12037.8375
2483.65417	12039.1375
2486.40283	12047.9375
2489.14976	12046.6375
2491.89497	12023.7375
2494.63845	12026.9375
2497.3802	12003.9375
2500.12024	11988.8375
2502.85855	11979.8375
2505.59514	11980.3375
2508.33002	11987.6375
2511.06318	11979.8375
2513.79462	11943.7375
2516.52435	11947.8375
2519.25237	11921.8375
2521.97867	11910.6375
2524.70327	11906.9375
2527.42616	11875.0375
2530.14734	11861.2375
2532.86681	11881.6375
2535.58458	11859.5375
2538.30065	11835.3375
2541.01501	11824.0375
2543.72768	11839.1375
2546.43864	11807.4375
2549.14791	11778.3375
2551.85548	11774.5375
2554.56136	11739.7375
2557.26554	11731.3375
2559.96803	11713.1375
2562.66883	11697.3375
2565.36794	11679.1375
2568.06536	11690.0375
2570.7611	11678.6375
2573.45514	11680.4375
2576.14751	11642.4375
2578.83819	11623.8375
2581.52719	11630.9375
2584.21451	11610.6375
2586.90015	11622.5375
2589.58411	11620.2375
2592.2664	11570.1375
2594.94701	11585.9375
2597.62594	11566.7375
2600.30321	11553.9375
2602.9788	11539.2375
2605.65273	11509.9375
2608.32498	11502.6375
2610.99557	11497.0375
2613.66449	11499.0375
2616.33175	11482.0375
2618.99734	11467.7375
2621.66128	11467.2375
2624.32355	11439.0375
2626.98416	11444.7375
2629.64311	11457.8375
2632.30041	11447.7375
2634.95605	11453.3375
2637.61004	11439.7375
2640.26238	11412.6375
2642.91306	11388.5375
2645.56209	11383.0375
2648.20948	11408.3375
2650.85521	11385.2375
2653.4993	11378.9375
2656.14175	11372.1375
2658.78255	11371.4375
2661.42171	11391.9375
2664.05923	11405.3375
2666.6951	11380.8375
2669.32934	11404.5375
2671.96194	11398.9375
2674.59291	11383.1375
2677.22224	11402.0375
2679.84993	11374.5375
2682.476	11382.0375
2685.10043	11385.5375
2687.72324	11360.4375
2690.34441	11378.1375
2692.96396	11366.9375
2695.58188	11376.0375
2698.19818	11373.9375
2700.81285	11379.8375
2703.4259	11391.0375
2706.03733	11436.6375
2708.64714	11432.1375
2711.25533	11430.0375
2713.86191	11402.0375
2716.46687	11420.5375
2719.07021	11398.2375
2721.67194	11397.1375
2724.27206	11400.1375
2726.87057	11401.1375
2729.46747	11408.2375
2732.06276	11418.3375
2734.65644	11367.6375
2737.24852	11415.8375
2739.83899	11377.5375
2742.42786	11387.6375
2745.01513	11363.9375
2747.60079	11366.3375
2750.18486	11351.7375
2752.76733	11333.8375
2755.3482	11360.0375
2757.92747	11348.6375
2760.50515	11346.0375
2763.08123	11335.5375
2765.65573	11331.0375
2768.22863	11310.8375
2770.79994	11270.4375
2773.36967	11312.3375
2775.9378	11306.8375
2778.50435	11290.3375
2781.06932	11275.8375
2783.6327	11281.1375
2786.1945	11253.9375
2788.75471	11268.2375
2791.31335	11223.4375
2793.87041	11214.2375
2796.42589	11164.8375
2798.97979	11196.5375
2801.53212	11167.1375
2804.08288	11111.1375
2806.63206	11096.6375
2809.17967	11078.9375
2811.72571	11052.5375
2814.27018	11081.1375
2816.81308	11038.7375
2819.35442	11031.4375
2821.89419	11018.1375
2824.43239	11014.6375
2826.96904	10993.1375
2829.50412	10989.1375
2832.03763	10950.2375
2834.56959	10980.6375
2837.1	10951.5375
2839.62884	10970.4375
2842.15613	10955.2375
2844.68186	10967.4375
2847.20604	10968.3375
2849.72867	10968.6375
2852.24974	10954.2375
2854.76927	10933.4375
2857.28724	10942.0375
2859.80367	10913.3375
2862.31855	10903.9375
2864.83189	10876.9375
2867.34368	10874.7375
2869.85393	10901.3375
2872.36264	10861.1375
2874.8698	10869.5375
2877.37543	10882.9375
2879.87952	10885.4375
2882.38207	10889.3375
2884.88308	10892.0375
2887.38256	10893.5375
2889.88051	10917.7375
2892.37692	10886.7375
2894.8718	10882.3375
2897.36515	10887.0375
2899.85698	10897.0375
2902.34727	10924.4375
2904.83604	10895.3375
2907.32328	10918.1375
2909.809	10915.5375
2912.29319	10933.1375
2914.77587	10932.6375
2917.25702	10917.3375
2919.73665	10919.1375
2922.21476	10925.5375
2924.69136	10911.5375
2927.16644	10907.9375
2929.64	10908.1375
2932.11205	10895.0375
2934.58258	10853.7375
2937.05161	10878.6375
2939.51912	10859.7375
2941.98513	10887.5375
2944.44962	10876.5375
2946.91261	10821.8375
2949.37409	10837.2375
2951.83407	10806.8375
2954.29254	10803.5375
2956.74951	10790.3375
2959.20498	10764.9375
2961.65895	10741.4375
2964.11142	10746.1375
2966.56239	10715.1375
2969.01186	10715.3375
2971.45984	10672.9375
2973.90632	10677.2375
2976.35131	10632.3375
2978.7948	10607.4375
2981.23681	10606.8375
2983.67732	10599.3375
2986.11635	10564.2375
2988.55388	10524.0375
2990.98993	10513.9375
2993.4245	10480.2375
2995.85758	10477.8375
2998.28917	10438.8375
3000.71928	10402.8375
3003.14791	10429.8375
3005.57506	10431.4375
3008.00073	10416.5375
3010.42493	10393.7375
3012.84764	10362.7375
3015.26888	10346.8375
3017.68865	10339.5375
3020.10694	10341.7375
3022.52376	10295.8375
3024.9391	10281.0375
3027.35298	10263.5375
3029.76539	10274.4375
3032.17632	10262.3375
3034.5858	10217.6375
3036.9938	10221.4375
3039.40034	10241.0375
3041.80542	10206.8375
3044.20903	10217.7375
3046.61118	10191.3375
3049.01187	10183.2375
3051.4111	10166.0375
3053.80888	10116.7375
3056.20519	10146.8375
3058.60005	10111.7375
3060.99345	10106.7375
3063.3854	10057.5375
3065.7759	10038.0375
3068.16494	10029.4375
3070.55254	10001.2375
3072.93868	9983.0375
3075.32338	9962.0375
3077.70662	9958.3375
3080.08842	9928.5375
3082.46878	9910.8375
3084.84769	9890.9375
3087.22515	9919.0375
3089.60118	9899.8375
3091.97576	9925.7375
3094.3489	9905.3375
3096.72061	9920.2375
3099.09087	9910.2375
3101.4597	9913.7375
3103.82709	9882.6375
3106.19305	9869.2375
3108.55757	9873.9375
3110.92066	9837.1375
3113.28232	9811.5375
3115.64255	9784.0375
3118.00134	9793.0375
3120.35871	9792.6375
3122.71466	9776.7375
3125.06917	9746.0375
3127.42226	9753.9375
3129.77393	9719.9375
3132.12417	9734.5375
3134.47299	9765.5375
3136.82039	9753.0375
3139.16636	9749.4375
3141.51092	9753.2375
3143.85406	9762.8375
3146.19579	9721.1375
3148.53609	9751.1375
3150.87499	9751.6375
3153.21246	9755.7375
3155.54853	9760.1375
3157.88318	9753.9375
3160.21642	9758.6375
3162.54826	9752.2375
3164.87868	9720.4375
3167.2077	9746.8375
3169.5353	9736.1375
3171.86151	9753.6375
3174.18631	9734.5375
3176.5097	9741.1375
3178.83169	9723.5375
3181.15228	9731.6375
3183.47147	9710.9375
3185.78926	9725.1375
3188.10565	9684.6375
3190.42065	9710.2375
3192.73424	9716.1375
3195.04645	9706.5375
3197.35725	9692.4375
3199.66667	9710.2375
3201.97469	9712.7375
3204.28132	9714.7375
3206.58656	9714.9375
3208.8904	9714.3375
3211.19287	9718.7375
3213.49394	9707.7375
3215.79363	9687.0375
3218.09193	9716.6375
3220.38884	9735.5375
3222.68438	9724.1375
3224.97853	9726.7375
3227.2713	9701.3375
3229.56269	9699.2375
3231.8527	9705.7375
3234.14133	9682.1375
3236.42858	9637.1375
3238.71446	9665.8375
3240.99896	9633.6375
3243.28209	9639.9375
3245.56384	9636.9375
3247.84423	9642.0375
3250.12324	9640.3375
3252.40088	9623.3375
3254.67715	9608.8375
3256.95205	9603.6375
3259.22558	9604.3375
3261.49775	9571.0375
3263.76855	9567.6375
3266.03799	9555.8375
3268.30606	9519.5375
3270.57277	9489.5375
3272.83812	9462.7375
3275.10211	9492.4375
3277.36474	9477.0375
3279.62601	9449.6375
3281.88593	9457.8375
3284.14448	9475.9375
3286.40168	9484.4375
3288.65753	9462.2375
3290.91202	9439.8375
3293.16516	9416.4375
3295.41695	9372.1375
3297.66738	9334.2375
3299.91647	9284.3375
3302.16421	9224.3375
3304.4106	9203.3375
3306.65564	9128.7375
3308.89933	9078.9375
3311.14169	9042.0375
3313.38269	8956.7375
3315.62236	8945.0375
3317.86068	8834.1375
3320.09766	8762.2375
3322.3333	8716.4375
3324.5676	8707.0375
3326.80056	8578.8375
3329.03219	8530.1375
3331.26248	3.1375
3333.49143	-0.5625
3335.71905	-1.1625
