Data from AgNP_FTO_APTES_CRN_1uM_R6G_10uM_NaF_0.1M_Addition_RamanShift__19__14-07-40-803.txt Node

Date: Wed Dec 15 14:07:40 GMT 2021
User: TCL
Spectrometer: QEP01345
Trigger mode: 4
Integration Time (sec): 7.000000E0
Scans to average: 10
Electric dark correction enabled: true
Nonlinearity correction enabled: false
Boxcar width: 0
XAxis mode: Raman Shifts
Number of Pixels in Spectrum: 1044
>>>>>Begin Spectral Data<<<<<
46.04893	0.225
50.45542	-2.775
54.85868	-0.875
59.25871	-0.975
63.6555	136.625
68.04907	147.525
72.43941	152.525
76.82654	163.525
81.21044	168.325
85.59113	174.925
89.96862	184.325
94.34289	181.325
98.71396	194.425
103.08183	199.425
107.4465	206.425
111.80798	208.425
116.16626	216.425
120.52136	224.125
124.87327	224.325
129.222	241.125
133.56755	249.625
137.90993	268.225
142.24913	285.925
146.58517	314.525
150.91804	360.925
155.24774	425.525
159.57429	521.425
163.89768	662.125
168.21792	868.025
172.53501	1167.725
176.84895	1618.725
181.15975	2255.825
185.46741	3163.025
189.77193	4347.025
194.07331	5776.325
198.37157	7440.625
202.6667	9171.725
206.9587	10860.225
211.24758	12531.625
215.53334	14240.825
219.81599	16064.925
224.09553	18082.725
228.37195	20318.025
232.64527	22792.125
236.91549	25350.725
241.18261	27910.625
245.44663	30193.525
249.70755	32274.125
253.96539	34017.125
258.22014	35536.825
262.4718	36797.825
266.72039	37670.525
270.96589	38205.125
275.20832	38244.425
279.44768	38057.225
283.68397	37680.225
287.91719	37375.825
292.14735	37188.825
296.37445	37282.325
300.59849	37512.225
304.81948	37785.325
309.03742	37981.725
313.25231	37697.225
317.46415	36841.825
321.67296	35654.825
325.87872	34605.825
330.08145	34095.425
334.28114	34078.825
338.47781	34355.925
342.67145	34875.825
346.86207	35516.825
351.04966	36406.325
355.23424	37417.225
359.4158	38201.525
363.59435	38818.425
367.76989	39143.125
371.94243	39349.925
376.11196	39476.125
380.27849	39536.125
384.44203	39611.525
388.60257	39775.825
392.76012	40077.925
396.91468	40582.925
401.06626	41342.425
405.21485	41885.425
409.36047	41766.825
413.50311	41026.625
417.64277	40340.125
421.77947	40138.725
425.9132	40115.825
430.04396	40350.725
434.17176	40583.425
438.2966	40910.225
442.41849	41647.825
446.53742	42705.825
450.6534	43992.825
454.76644	44989.725
458.87653	45433.025
462.98368	45217.325
467.08789	44553.125
471.18916	43761.425
475.2875	42940.125
479.38291	42393.525
483.4754	41996.225
487.56496	41537.525
491.6516	41062.025
495.73531	40597.425
499.81612	40492.025
503.89401	40817.025
507.96899	41063.425
512.04106	41160.125
516.11023	41079.625
520.1765	40863.425
524.23987	40607.425
528.30034	40218.925
532.35792	39706.525
536.41261	38997.425
540.46441	38421.625
544.51333	38367.425
548.55936	38852.225
552.60252	39648.225
556.64279	40451.425
560.6802	40964.125
564.71473	41295.525
568.7464	42061.225
572.7752	43023.625
576.80114	43821.825
580.82422	44596.025
584.84444	45441.825
588.86181	46183.625
592.87633	46997.325
596.888	47694.725
600.89682	48348.425
604.9028	50486.825
608.90594	55645.325
612.90624	60183.325
616.90371	55962.025
620.89834	46046.125
624.89015	41802.925
628.87913	41469.125
632.86528	41488.125
636.84862	41098.125
640.82913	40280.625
644.80683	38998.125
648.78172	38036.025
652.75379	37909.025
656.72306	38530.725
660.68952	39354.025
664.65319	39185.325
668.61405	38363.025
672.57211	38030.825
676.52738	38026.325
680.47986	37925.725
684.42955	37713.525
688.37646	37626.825
692.32058	37842.125
696.26192	38376.125
700.20048	38853.525
704.13626	39132.025
708.06928	39008.225
711.99952	38737.325
715.927	38752.625
719.85171	38872.225
723.77365	38684.825
727.69284	38144.025
731.60928	37673.725
735.52295	37396.625
739.43388	37464.325
743.34206	37637.925
747.24749	37879.125
751.15017	38261.225
755.05012	39025.525
758.94733	40316.125
762.8418	42740.625
766.73354	46374.225
770.62254	49929.525
774.50882	50745.725
778.39237	48086.325
782.27321	44094.325
786.15132	40810.125
790.02671	38970.825
793.89938	38143.725
797.76935	37820.625
801.6366	37767.425
805.50115	37624.125
809.36299	37338.125
813.22213	36988.925
817.07857	36852.925
820.93231	36791.625
824.78336	36711.025
828.63172	36686.825
832.47738	36644.525
836.32036	36775.025
840.16066	37015.425
843.99827	37293.725
847.8332	37188.925
851.66546	36922.625
855.49504	36824.725
859.32195	36798.925
863.1462	36630.925
866.96777	36364.625
870.78668	36253.925
874.60293	36221.625
878.41652	36206.925
882.22745	36397.725
886.03573	36462.525
889.84136	36425.425
893.64433	36160.925
897.44466	36020.625
901.24235	35924.025
905.0374	35877.125
908.8298	35825.325
912.61957	35988.325
916.40671	36349.925
920.19121	36924.625
923.97308	37697.925
927.75233	38033.125
931.52895	37845.025
935.30295	37304.025
939.07433	36459.225
942.84309	35856.225
946.60924	35657.625
950.37278	35641.225
954.13371	35435.525
957.89203	35224.325
961.64774	35070.225
965.40086	35017.925
969.15137	34938.825
972.89929	34836.425
976.64461	34823.125
980.38733	34931.225
984.12747	35197.925
987.86502	35632.325
991.59999	36312.225
995.33237	37264.525
999.06217	38711.025
1002.78939	40354.525
1006.51404	41384.525
1010.23611	41903.925
1013.95561	42155.625
1017.67255	41924.525
1021.38692	41240.125
1025.09872	40838.825
1028.80796	41491.825
1032.51465	43192.825
1036.21877	44851.625
1039.92035	45058.025
1043.61937	44152.725
1047.31584	42657.525
1051.00976	40998.525
1054.70114	40129.225
1058.38998	40080.625
1062.07627	40384.225
1065.76003	40847.825
1069.44126	41487.125
1073.11995	42545.225
1076.79611	43474.025
1080.46974	43921.625
1084.14085	44115.625
1087.80943	44311.125
1091.47549	44216.725
1095.13903	43857.625
1098.80005	43037.725
1102.45857	41943.125
1106.11456	41194.825
1109.76805	40919.925
1113.41903	41063.925
1117.06751	41243.925
1120.71348	41616.225
1124.35696	42103.925
1127.99793	42613.625
1131.63641	42941.625
1135.2724	42710.525
1138.90589	42384.525
1142.5369	42200.725
1146.16542	42090.025
1149.79145	42179.425
1153.415	42476.325
1157.03607	43127.525
1160.65467	44263.425
1164.27079	46167.025
1167.88443	48794.225
1171.49561	52161.825
1175.10432	56598.525
1178.71056	62230.225
1182.31434	67372.525
1185.91565	69894.325
1189.51451	69389.925
1193.11091	66574.225
1196.70485	62862.225
1200.29634	59712.125
1203.88538	57545.425
1207.47197	56058.525
1211.05612	54939.325
1214.63782	54139.925
1218.21708	53543.325
1221.79391	53246.825
1225.36829	53123.725
1228.94024	52515.625
1232.50976	51452.425
1236.07685	50610.625
1239.6415	50181.625
1243.20374	50054.625
1246.76355	50400.925
1250.32093	51386.025
1253.8759	52758.525
1257.42845	54522.625
1260.97859	56277.825
1264.52631	57956.725
1268.07163	59648.025
1271.61453	61693.825
1275.15503	63878.425
1278.69312	66064.325
1282.22882	67940.725
1285.76211	69481.625
1289.29301	71084.825
1292.82151	73090.425
1296.34761	75938.325
1299.87133	80246.625
1303.39266	85558.425
1306.9116	91648.525
1310.42815	97609.325
1313.94233	101388.825
1317.45412	101387.425
1320.96354	98880.925
1324.47058	95756.925
1327.97525	93057.225
1331.47754	91302.225
1334.97747	90299.125
1338.47502	89830.625
1341.97022	89043.725
1345.46305	87545.025
1348.95352	86044.425
1352.44163	85681.525
1355.92738	87798.425
1359.41078	92751.325
1362.89183	97471.125
1366.37053	96142.325
1369.84688	88048.525
1373.32088	78244.925
1376.79254	71285.825
1380.26186	68289.025
1383.72883	67636.425
1387.19347	67164.425
1390.65578	66025.425
1394.11575	65318.025
1397.57339	65678.625
1401.0287	66915.625
1404.48168	68137.825
1407.93234	68803.825
1411.38068	68351.625
1414.82669	66660.025
1418.27039	64244.425
1421.71177	61586.125
1425.15083	59281.025
1428.58758	58106.525
1432.02203	58255.125
1435.45416	59704.425
1438.88399	61450.425
1442.31151	63010.025
1445.73673	64152.325
1449.15965	64894.825
1452.58027	65238.825
1455.9986	65255.625
1459.41463	65628.425
1462.82837	66687.525
1466.23982	68320.925
1469.64898	69893.625
1473.05586	70930.525
1476.46045	71228.225
1479.86276	70874.825
1483.26279	70136.925
1486.66054	69528.825
1490.05602	69454.825
1493.44922	69679.225
1496.84016	70256.925
1500.22882	71518.125
1503.61521	73820.925
1506.99934	76864.925
1510.38121	79568.825
1513.76081	80553.225
1517.13816	78813.825
1520.51324	75175.725
1523.88607	71746.925
1527.25665	69537.225
1530.62498	68412.225
1533.99105	67913.525
1537.35488	67369.725
1540.71647	66598.425
1544.07581	65602.225
1547.4329	64501.625
1550.78776	63420.225
1554.14038	62625.025
1557.49077	62182.125
1560.83892	61889.325
1564.18484	61861.325
1567.52853	62138.325
1570.86999	62894.625
1574.20922	64076.325
1577.54624	65425.725
1580.88103	65864.725
1584.2136	66435.025
1587.54395	67894.725
1590.87208	70912.825
1594.19801	75324.525
1597.52172	80104.825
1600.84321	81440.625
1604.16251	77529.625
1607.47959	70830.825
1610.79447	63960.225
1614.10715	57997.525
1617.41763	53322.025
1620.7259	50193.625
1624.03199	48722.525
1627.33587	48782.025
1630.63757	50401.925
1633.93707	53772.225
1637.23439	59060.625
1640.52951	66323.125
1643.82246	74374.125
1647.11321	80233.525
1650.40179	80803.025
1653.68819	75064.825
1656.97241	65095.025
1660.25446	55310.525
1663.53433	48084.625
1666.81203	43517.025
1670.08756	40606.025
1673.36092	38758.325
1676.63211	37577.725
1679.90115	36698.625
1683.16801	36015.225
1686.43272	35597.125
1689.69527	35291.625
1692.95567	35015.325
1696.2139	34833.625
1699.46999	34737.325
1702.72392	34612.625
1705.97571	34499.025
1709.22535	34432.925
1712.47284	34396.225
1715.71819	34341.625
1718.96139	34212.525
1722.20246	34102.525
1725.44139	33979.425
1728.67818	33784.925
1731.91284	33581.525
1735.14537	33377.625
1738.37576	33211.225
1741.60403	33101.325
1744.83017	32966.625
1748.05418	32894.125
1751.27607	32839.625
1754.49584	32707.825
1757.71349	32674.725
1760.92903	32677.425
1764.14244	32655.925
1767.35375	32659.725
1770.56294	32589.825
1773.77002	32560.225
1776.97499	32520.425
1780.17785	32442.525
1783.37861	32443.025
1786.57727	32371.325
1789.77382	32322.525
1792.96828	32232.425
1796.16064	32211.425
1799.3509	32158.825
1802.53907	32122.325
1805.72514	32032.525
1808.90913	31904.125
1812.09102	31870.625
1815.27083	31774.125
1818.44856	31698.125
1821.6242	31702.525
1824.79776	31728.625
1827.96924	31639.925
1831.13864	31627.125
1834.30597	31635.725
1837.47122	31689.425
1840.6344	31662.925
1843.7955	31687.525
1846.95454	31634.225
1850.11151	31633.125
1853.26642	31609.125
1856.41926	31661.125
1859.57004	31625.725
1862.71876	31616.125
1865.86542	31587.725
1869.01003	31616.825
1872.15258	31622.725
1875.29308	31607.525
1878.43152	31592.325
1881.56792	31571.025
1884.70227	31557.525
1887.83457	31612.825
1890.96482	31619.225
1894.09304	31537.025
1897.21921	31519.325
1900.34335	31501.225
1903.46544	31541.625
1906.58551	31454.625
1909.70353	31509.625
1912.81953	31468.925
1915.93349	31403.725
1919.04543	31372.225
1922.15534	31314.725
1925.26322	31251.425
1928.36908	31159.825
1931.47292	31118.125
1934.57473	31010.725
1937.67453	30920.025
1940.77232	30795.525
1943.86808	30681.525
1946.96184	30627.825
1950.05358	30436.525
1953.14331	30373.525
1956.23103	30309.825
1959.31675	30224.025
1962.40046	30164.825
1965.48217	30067.525
1968.56188	29993.825
1971.63959	29911.425
1974.7153	29821.725
1977.78901	29753.125
1980.86073	29589.225
1983.93046	29538.725
1986.99819	29453.525
1990.06394	29397.525
1993.1277	29331.925
1996.18947	29238.725
1999.24925	29146.625
2002.30706	29027.425
2005.36288	28929.325
2008.41672	28893.525
2011.46859	28836.025
2014.51848	28766.025
2017.56639	28700.525
2020.61233	28632.825
2023.6563	28575.325
2026.6983	28573.725
2029.73833	28519.925
2032.7764	28485.525
2035.8125	28445.225
2038.84664	28453.225
2041.87881	28414.625
2044.90903	28361.925
2047.93729	28329.025
2050.96359	28276.325
2053.98794	28249.525
2057.01034	28276.025
2060.03078	28197.025
2063.04927	28213.825
2066.06582	28170.225
2069.08042	28142.425
2072.09307	28128.725
2075.10378	28093.925
2078.11255	28035.825
2081.11938	28045.925
2084.12426	28030.625
2087.12722	27969.825
2090.12824	27997.725
2093.12732	28049.225
2096.12447	27987.825
2099.11969	27999.825
2102.11299	28030.825
2105.10435	28053.425
2108.09379	28010.325
2111.08131	28050.825
2114.0669	28112.125
2117.05057	28098.725
2120.03233	28099.225
2123.01216	28157.825
2125.99008	28142.125
2128.96609	28201.725
2131.94018	28210.725
2134.91236	28228.025
2137.88263	28256.525
2140.851	28237.325
2143.81746	28284.725
2146.78201	28304.425
2149.74466	28279.725
2152.7054	28333.225
2155.66425	28336.425
2158.6212	28366.025
2161.57625	28375.625
2164.52941	28320.125
2167.48067	28298.325
2170.43004	28325.325
2173.37752	28245.325
2176.32311	28306.025
2179.26681	28336.825
2182.20863	28314.725
2185.14856	28331.925
2188.08661	28341.225
2191.02278	28384.625
2193.95707	28345.225
2196.88948	28381.125
2199.82001	28360.425
2202.74867	28352.425
2205.67545	28356.425
2208.60037	28312.625
2211.52341	28349.525
2214.44458	28300.025
2217.36388	28292.025
2220.28132	28322.525
2223.1969	28233.925
2226.11061	28150.025
2229.02246	28117.225
2231.93245	28131.125
2234.84058	27998.125
2237.74686	27927.525
2240.65128	27947.725
2243.55385	27865.325
2246.45456	27822.725
2249.35343	27825.625
2252.25044	27771.925
2255.14561	27699.525
2258.03893	27737.325
2260.93041	27714.325
2263.82004	27579.825
2266.70783	27550.225
2269.59378	27497.825
2272.4779	27441.125
2275.36017	27298.225
2278.24061	27320.725
2281.11922	27248.225
2283.996	27238.525
2286.87094	27205.625
2289.74405	27168.725
2292.61534	27149.525
2295.4848	27146.125
2298.35243	27205.925
2301.21824	27224.825
2304.08223	27235.525
2306.94439	27273.625
2309.80474	27283.525
2312.66327	27287.425
2315.51999	27329.325
2318.37489	27339.225
2321.22797	27360.125
2324.07925	27321.025
2326.92871	27330.525
2329.77637	27312.925
2332.62222	27277.825
2335.46626	27334.925
2338.3085	27351.425
2341.14893	27363.925
2343.98756	27387.625
2346.8244	27388.225
2349.65943	27429.725
2352.49267	27415.525
2355.32411	27380.525
2358.15376	27361.525
2360.98161	27333.125
2363.80768	27316.525
2366.63195	27247.625
2369.45444	27205.525
2372.27514	27143.925
2375.09405	27087.025
2377.91118	27038.325
2380.72652	26898.925
2383.54009	26838.225
2386.35187	26825.325
2389.16188	26757.825
2391.97011	26708.525
2394.77657	26768.925
2397.58125	26702.825
2400.38416	26699.425
2403.18529	26617.625
2405.98466	26636.425
2408.78226	26545.725
2411.57809	26471.125
2414.37216	26441.925
2417.16446	26413.925
2419.955	26337.525
2422.74378	26336.425
2425.5308	26346.025
2428.31606	26300.225
2431.09956	26293.325
2433.88131	26275.025
2436.6613	26280.325
2439.43954	26271.925
2442.21603	26239.325
2444.99077	26239.125
2447.76377	26266.725
2450.53501	26221.825
2453.30451	26286.725
2456.07226	26260.325
2458.83827	26248.725
2461.60254	26283.225
2464.36507	26262.425
2467.12586	26261.725
2469.88492	26269.825
2472.64224	26289.625
2475.39782	26307.425
2478.15167	26358.725
2480.90379	26403.425
2483.65417	26420.225
2486.40283	26441.425
2489.14976	26447.125
2491.89497	26448.325
2494.63845	26465.825
2497.3802	26487.725
2500.12024	26472.725
2502.85855	26452.925
2505.59514	26444.625
2508.33002	26403.225
2511.06318	26370.525
2513.79462	26322.025
2516.52435	26347.225
2519.25237	26301.025
2521.97867	26323.625
2524.70327	26294.825
2527.42616	26252.725
2530.14734	26264.625
2532.86681	26280.325
2535.58458	26258.725
2538.30065	26276.325
2541.01501	26295.025
2543.72768	26213.225
2546.43864	26208.325
2549.14791	26200.925
2551.85548	26218.525
2554.56136	26190.925
2557.26554	26146.025
2559.96803	26130.025
2562.66883	26130.625
2565.36794	26143.825
2568.06536	26073.425
2570.7611	26101.625
2573.45514	26128.325
2576.14751	26101.525
2578.83819	26057.025
2581.52719	26060.125
2584.21451	26079.625
2586.90015	26093.225
2589.58411	26052.725
2592.2664	26044.725
2594.94701	26027.025
2597.62594	26031.925
2600.30321	26068.625
2602.9788	26045.925
2605.65273	26019.925
2608.32498	26021.525
2610.99557	26041.725
2613.66449	26052.325
2616.33175	26046.825
2618.99734	26060.125
2621.66128	26047.325
2624.32355	26096.625
2626.98416	26083.625
2629.64311	26085.825
2632.30041	26056.125
2634.95605	26011.125
2637.61004	26079.925
2640.26238	26012.825
2642.91306	25985.725
2645.56209	25960.725
2648.20948	25937.325
2650.85521	25922.225
2653.4993	25936.825
2656.14175	25893.125
2658.78255	25892.025
2661.42171	25926.225
2664.05923	25960.625
2666.6951	25916.125
2669.32934	26014.925
2671.96194	26027.025
2674.59291	26035.325
2677.22224	26022.725
2679.84993	26006.625
2682.476	25945.025
2685.10043	25969.625
2687.72324	25951.125
2690.34441	25916.725
2692.96396	25892.225
2695.58188	25881.025
2698.19818	25842.125
2700.81285	25839.325
2703.4259	25810.525
2706.03733	25869.425
2708.64714	25867.225
2711.25533	25898.725
2713.86191	25863.825
2716.46687	25929.525
2719.07021	25896.125
2721.67194	25929.425
2724.27206	25886.225
2726.87057	25938.625
2729.46747	25947.025
2732.06276	25948.525
2734.65644	25974.025
2737.24852	25927.625
2739.83899	25961.025
2742.42786	25979.725
2745.01513	26000.525
2747.60079	25971.725
2750.18486	25935.625
2752.76733	25974.425
2755.3482	25943.125
2757.92747	25892.925
2760.50515	25876.925
2763.08123	25874.625
2765.65573	25823.525
2768.22863	25850.125
2770.79994	25866.225
2773.36967	25896.525
2775.9378	25860.925
2778.50435	25850.525
2781.06932	25782.825
2783.6327	25829.425
2786.1945	25852.625
2788.75471	25825.425
2791.31335	25765.625
2793.87041	25729.825
2796.42589	25665.625
2798.97979	25618.325
2801.53212	25577.625
2804.08288	25575.425
2806.63206	25509.725
2809.17967	25490.525
2811.72571	25417.225
2814.27018	25431.125
2816.81308	25415.325
2819.35442	25417.425
2821.89419	25323.425
2824.43239	25322.725
2826.96904	25282.925
2829.50412	25294.125
2832.03763	25201.325
2834.56959	25199.325
2837.1	25140.525
2839.62884	25162.025
2842.15613	25099.625
2844.68186	25138.625
2847.20604	25105.725
2849.72867	25113.125
2852.24974	25068.225
2854.76927	25074.625
2857.28724	25084.725
2859.80367	25008.325
2862.31855	25010.925
2864.83189	24984.825
2867.34368	24938.825
2869.85393	24988.825
2872.36264	24955.125
2874.8698	24987.825
2877.37543	24986.125
2879.87952	24964.325
2882.38207	24974.125
2884.88308	24940.525
2887.38256	25005.925
2889.88051	24984.025
2892.37692	25022.525
2894.8718	25037.325
2897.36515	25085.725
2899.85698	25035.625
2902.34727	25112.025
2904.83604	25095.925
2907.32328	25178.225
2909.809	25171.625
2912.29319	25221.525
2914.77587	25205.325
2917.25702	25203.825
2919.73665	25170.125
2922.21476	25195.225
2924.69136	25153.625
2927.16644	25152.325
2929.64	25089.925
2932.11205	25082.125
2934.58258	25040.125
2937.05161	24996.025
2939.51912	24969.325
2941.98513	24972.625
2944.44962	24913.025
2946.91261	24819.225
2949.37409	24856.325
2951.83407	24850.125
2954.29254	24864.825
2956.74951	24833.925
2959.20498	24825.425
2961.65895	24749.025
2964.11142	24733.625
2966.56239	24680.425
2969.01186	24664.225
2971.45984	24551.925
2973.90632	24514.525
2976.35131	24488.125
2978.7948	24424.925
2981.23681	24405.525
2983.67732	24300.325
2986.11635	24261.125
2988.55388	24186.925
2990.98993	24167.225
2993.4245	24091.725
2995.85758	24032.725
2998.28917	23994.725
3000.71928	23974.125
3003.14791	23943.425
3005.57506	23893.025
3008.00073	23817.225
3010.42493	23831.225
3012.84764	23789.525
3015.26888	23760.425
3017.68865	23704.025
3020.10694	23667.825
3022.52376	23626.525
3024.9391	23578.925
3027.35298	23543.725
3029.76539	23556.225
3032.17632	23480.125
3034.5858	23452.825
3036.9938	23431.825
3039.40034	23395.825
3041.80542	23410.525
3044.20903	23357.025
3046.61118	23321.225
3049.01187	23270.525
3051.4111	23283.225
3053.80888	23185.425
3056.20519	23174.125
3058.60005	23123.325
3060.99345	23101.125
3063.3854	23067.625
3065.7759	23007.625
3068.16494	22944.525
3070.55254	22840.525
3072.93868	22801.625
3075.32338	22729.825
3077.70662	22714.625
3080.08842	22627.525
3082.46878	22632.825
3084.84769	22577.425
3087.22515	22591.725
3089.60118	22548.225
3091.97576	22583.825
3094.3489	22557.325
3096.72061	22549.125
3099.09087	22536.125
3101.4597	22497.125
3103.82709	22511.025
3106.19305	22472.625
3108.55757	22466.325
3110.92066	22394.125
3113.28232	22332.625
3115.64255	22287.525
3118.00134	22249.825
3120.35871	22191.825
3122.71466	22150.325
3125.06917	22139.325
3127.42226	22027.125
3129.77393	22113.525
3132.12417	22037.625
3134.47299	22019.725
3136.82039	22035.425
3139.16636	22031.025
3141.51092	22021.025
3143.85406	22049.925
3146.19579	22010.125
3148.53609	22030.025
3150.87499	21995.825
3153.21246	21960.225
3155.54853	22009.225
3157.88318	21951.325
3160.21642	22001.225
3162.54826	21960.925
3164.87868	21919.525
3167.2077	21916.125
3169.5353	21887.125
3171.86151	21908.525
3174.18631	21873.425
3176.5097	21876.625
3178.83169	21816.025
3181.15228	21818.025
3183.47147	21780.825
3185.78926	21823.325
3188.10565	21758.325
3190.42065	21761.625
3192.73424	21748.625
3195.04645	21776.525
3197.35725	21763.025
3199.66667	21737.325
3201.97469	21749.425
3204.28132	21745.425
3206.58656	21724.525
3208.8904	21690.325
3211.19287	21717.325
3213.49394	21695.625
3215.79363	21667.625
3218.09193	21710.425
3220.38884	21689.625
3222.68438	21715.025
3224.97853	21662.625
3227.2713	21672.825
3229.56269	21670.925
3231.8527	21652.625
3234.14133	21641.125
3236.42858	21581.925
3238.71446	21599.325
3240.99896	21550.925
3243.28209	21513.625
3245.56384	21486.325
3247.84423	21483.125
3250.12324	21442.425
3252.40088	21426.625
3254.67715	21402.725
3256.95205	21373.325
3259.22558	21377.025
3261.49775	21338.725
3263.76855	21320.925
3266.03799	21269.725
3268.30606	21282.425
3270.57277	21236.725
3272.83812	21215.225
3275.10211	21179.025
3277.36474	21154.425
3279.62601	21182.025
3281.88593	21118.925
3284.14448	21179.625
3286.40168	21127.025
3288.65753	21147.725
3290.91202	21104.725
3293.16516	21035.125
3295.41695	20995.825
3297.66738	20856.125
3299.91647	20783.025
3302.16421	20671.625
3304.4106	20621.425
3306.65564	20507.425
3308.89933	20381.925
3311.14169	20248.525
3313.38269	20101.625
3315.62236	19976.825
3317.86068	19831.525
3320.09766	19643.525
3322.3333	19464.025
3324.5676	19458.725
3326.80056	19139.425
3329.03219	19044.625
3331.26248	4.725
3333.49143	0.225
3335.71905	0.225
