Data from AgNP_FTO_APTES_CRN_10uM_R6G_10uM_NaF_0.1M_Addition_RamanShift__13__16-30-07-968.txt Node

Date: Wed Dec 15 16:30:07 GMT 2021
User: TCL
Spectrometer: QEP01345
Trigger mode: 4
Integration Time (sec): 7.000000E0
Scans to average: 10
Electric dark correction enabled: true
Nonlinearity correction enabled: false
Boxcar width: 0
XAxis mode: Raman Shifts
Number of Pixels in Spectrum: 1044
>>>>>Begin Spectral Data<<<<<
46.04893	0.8375
50.45542	-2.9625
54.85868	-0.0625
59.25871	-0.3625
63.6555	75.2375
68.04907	82.8375
72.43941	85.2375
76.82654	89.2375
81.21044	90.9375
85.59113	97.5375
89.96862	102.6375
94.34289	104.3375
98.71396	110.3375
103.08183	109.9375
107.4465	117.8375
111.80798	115.7375
116.16626	120.9375
120.52136	127.3375
124.87327	127.7375
129.222	133.8375
133.56755	137.5375
137.90993	153.2375
142.24913	168.5375
146.58517	184.8375
150.91804	209.7375
155.24774	252.3375
159.57429	311.8375
163.89768	397.1375
168.21792	515.0375
172.53501	697.5375
176.84895	968.3375
181.15975	1352.8375
185.46741	1899.1375
189.77193	2621.1375
194.07331	3535.4375
198.37157	4550.6375
202.6667	5652.2375
206.9587	6764.1375
211.24758	7844.0375
215.53334	8908.2375
219.81599	10041.2375
224.09553	11240.8375
228.37195	12592.2375
232.64527	14080.2375
236.91549	15673.6375
241.18261	17285.1375
245.44663	18831.0375
249.70755	20240.6375
253.96539	21470.9375
258.22014	22406.1375
262.4718	23213.8375
266.72039	23692.9375
270.96589	23908.0375
275.20832	23934.3375
279.44768	23767.8375
283.68397	23592.9375
287.91719	23465.4375
292.14735	23389.2375
296.37445	23379.3375
300.59849	23327.3375
304.81948	23256.1375
309.03742	23222.5375
313.25231	22971.8375
317.46415	22569.2375
321.67296	22051.4375
325.87872	21545.6375
330.08145	21310.6375
334.28114	21292.3375
338.47781	21484.9375
342.67145	21689.9375
346.86207	21928.2375
351.04966	22265.0375
355.23424	22543.8375
359.4158	22800.5375
363.59435	22948.0375
367.76989	23079.9375
371.94243	23092.5375
376.11196	23048.8375
380.27849	23078.9375
384.44203	23049.5375
388.60257	23158.1375
392.76012	23330.9375
396.91468	23613.6375
401.06626	24010.1375
405.21485	24260.9375
409.36047	24221.6375
413.50311	24024.6375
417.64277	23846.8375
421.77947	23823.6375
425.9132	23890.4375
430.04396	24064.8375
434.17176	24173.0375
438.2966	24290.7375
442.41849	24377.6375
446.53742	24715.1375
450.6534	25073.5375
454.76644	25363.2375
458.87653	25535.6375
462.98368	25595.9375
467.08789	25546.0375
471.18916	25498.8375
475.2875	25321.0375
479.38291	25223.3375
483.4754	25126.9375
487.56496	24906.8375
491.6516	24714.1375
495.73531	24487.7375
499.81612	24404.8375
503.89401	24533.1375
507.96899	24645.6375
512.04106	24749.1375
516.11023	24737.2375
520.1765	24645.8375
524.23987	24513.8375
528.30034	24314.5375
532.35792	24089.0375
536.41261	23844.9375
540.46441	23674.8375
544.51333	23712.8375
548.55936	23985.1375
552.60252	24377.1375
556.64279	24772.1375
560.6802	25030.4375
564.71473	25201.7375
568.7464	25486.7375
572.7752	26118.5375
576.80114	26838.1375
580.82422	27598.7375
584.84444	28122.0375
588.86181	28384.1375
592.87633	28370.5375
596.888	28102.3375
600.89682	27645.8375
604.9028	27775.7375
608.90594	28898.9375
612.90624	30118.2375
616.90371	28695.2375
620.89834	25500.6375
624.89015	24094.6375
628.87913	23928.3375
632.86528	24128.8375
636.84862	24229.3375
640.82913	24065.4375
644.80683	23594.2375
648.78172	23268.1375
652.75379	23141.7375
656.72306	23218.6375
660.68952	23454.9375
664.65319	23474.1375
668.61405	23323.0375
672.57211	23326.8375
676.52738	23321.2375
680.47986	23316.5375
684.42955	23245.2375
688.37646	23176.1375
692.32058	23233.5375
696.26192	23412.5375
700.20048	23607.9375
704.13626	23855.8375
708.06928	24036.4375
711.99952	24092.9375
715.927	23977.3375
719.85171	23866.2375
723.77365	23646.3375
727.69284	23365.5375
731.60928	23113.3375
735.52295	22948.9375
739.43388	22893.3375
743.34206	22947.7375
747.24749	23045.8375
751.15017	23225.9375
755.05012	23489.2375
758.94733	24102.6375
762.8418	25095.4375
766.73354	26581.3375
770.62254	27910.2375
774.50882	27976.4375
778.39237	26881.8375
782.27321	25477.0375
786.15132	24303.5375
790.02671	23565.6375
793.89938	23090.9375
797.76935	22932.4375
801.6366	22803.1375
805.50115	22737.4375
809.36299	22676.3375
813.22213	22546.1375
817.07857	22517.0375
820.93231	22550.0375
824.78336	22515.3375
828.63172	22470.4375
832.47738	22482.1375
836.32036	22491.0375
840.16066	22491.8375
843.99827	22433.0375
847.8332	22371.2375
851.66546	22321.4375
855.49504	22351.1375
859.32195	22336.9375
863.1462	22285.9375
866.96777	22274.0375
870.78668	22272.8375
874.60293	22242.6375
878.41652	22249.4375
882.22745	22353.3375
886.03573	22398.2375
889.84136	22451.5375
893.64433	22453.8375
897.44466	22417.2375
901.24235	22433.3375
905.0374	22428.0375
908.8298	22441.3375
912.61957	22513.6375
916.40671	22748.1375
920.19121	22938.0375
923.97308	23031.9375
927.75233	23006.5375
931.52895	22803.3375
935.30295	22603.3375
939.07433	22207.3375
942.84309	21956.1375
946.60924	21741.9375
950.37278	21659.5375
954.13371	21605.4375
957.89203	21544.2375
961.64774	21590.3375
965.40086	21518.0375
969.15137	21507.3375
972.89929	21424.6375
976.64461	21306.1375
980.38733	21255.4375
984.12747	21283.0375
987.86502	21329.7375
991.59999	21371.5375
995.33237	21493.6375
999.06217	21711.3375
1002.78939	21966.1375
1006.51404	22291.7375
1010.23611	22674.3375
1013.95561	22915.4375
1017.67255	22859.6375
1021.38692	22648.6375
1025.09872	22448.1375
1028.80796	22189.7375
1032.51465	22142.9375
1036.21877	22184.1375
1039.92035	22325.3375
1043.61937	22517.2375
1047.31584	22669.5375
1051.00976	22883.5375
1054.70114	23109.9375
1058.38998	23532.6375
1062.07627	24106.2375
1065.76003	24835.7375
1069.44126	25672.9375
1073.11995	26361.0375
1076.79611	26643.2375
1080.46974	26420.9375
1084.14085	25887.5375
1087.80943	25394.6375
1091.47549	25158.4375
1095.13903	24970.6375
1098.80005	24680.1375
1102.45857	24135.9375
1106.11456	23629.0375
1109.76805	23241.1375
1113.41903	23075.0375
1117.06751	23104.5375
1120.71348	23279.4375
1124.35696	23509.5375
1127.99793	23840.8375
1131.63641	24073.0375
1135.2724	24032.2375
1138.90589	23967.5375
1142.5369	23991.0375
1146.16542	23975.2375
1149.79145	24074.7375
1153.415	24193.2375
1157.03607	24441.3375
1160.65467	24886.0375
1164.27079	25562.4375
1167.88443	26553.4375
1171.49561	27747.9375
1175.10432	29323.2375
1178.71056	31112.4375
1182.31434	32818.0375
1185.91565	33850.2375
1189.51451	34173.7375
1193.11091	33801.0375
1196.70485	32909.3375
1200.29634	31633.9375
1203.88538	30502.5375
1207.47197	29820.5375
1211.05612	29212.7375
1214.63782	28752.8375
1218.21708	28159.7375
1221.79391	27442.5375
1225.36829	26937.3375
1228.94024	26618.7375
1232.50976	26514.0375
1236.07685	26459.5375
1239.6415	26436.6375
1243.20374	26505.7375
1246.76355	26611.9375
1250.32093	26880.2375
1253.8759	27256.2375
1257.42845	27858.1375
1260.97859	28557.1375
1264.52631	29244.9375
1268.07163	29805.4375
1271.61453	30424.8375
1275.15503	30953.1375
1278.69312	31580.3375
1282.22882	32218.0375
1285.76211	32910.7375
1289.29301	33744.3375
1292.82151	34722.8375
1296.34761	35740.5375
1299.87133	36983.2375
1303.39266	38298.4375
1306.9116	39474.7375
1310.42815	40483.1375
1313.94233	41023.2375
1317.45412	41116.7375
1320.96354	41074.8375
1324.47058	41200.3375
1327.97525	41445.0375
1331.47754	41730.7375
1334.97747	42015.8375
1338.47502	42322.2375
1341.97022	42812.1375
1345.46305	43253.9375
1348.95352	43299.3375
1352.44163	42971.3375
1355.92738	42512.8375
1359.41078	42524.2375
1362.89183	42570.8375
1366.37053	41722.9375
1369.84688	39541.1375
1373.32088	36844.2375
1376.79254	34735.3375
1380.26186	33693.4375
1383.72883	33172.2375
1387.19347	32881.7375
1390.65578	32506.6375
1394.11575	32196.0375
1397.57339	31975.1375
1401.0287	31813.3375
1404.48168	31696.1375
1407.93234	31393.8375
1411.38068	30848.7375
1414.82669	30036.8375
1418.27039	29077.9375
1421.71177	28214.6375
1425.15083	27589.8375
1428.58758	27210.8375
1432.02203	27348.2375
1435.45416	27677.4375
1438.88399	28145.5375
1442.31151	28539.7375
1445.73673	28870.6375
1449.15965	29310.8375
1452.58027	29739.3375
1455.9986	29977.4375
1459.41463	30319.5375
1462.82837	30777.7375
1466.23982	31346.2375
1469.64898	31792.3375
1473.05586	32089.0375
1476.46045	32219.7375
1479.86276	32312.1375
1483.26279	32299.7375
1486.66054	32386.2375
1490.05602	32650.7375
1493.44922	33172.4375
1496.84016	33965.0375
1500.22882	35203.1375
1503.61521	36635.6375
1506.99934	38041.3375
1510.38121	38824.4375
1513.76081	38855.9375
1517.13816	38041.8375
1520.51324	36977.3375
1523.88607	36107.6375
1527.25665	35559.0375
1530.62498	35245.2375
1533.99105	34787.2375
1537.35488	34227.9375
1540.71647	33450.4375
1544.07581	32556.1375
1547.4329	31787.3375
1550.78776	31140.8375
1554.14038	30808.2375
1557.49077	30696.5375
1560.83892	30717.0375
1564.18484	31050.2375
1567.52853	31430.9375
1570.86999	32004.8375
1574.20922	32888.2375
1577.54624	33919.3375
1580.88103	34514.3375
1584.2136	34647.3375
1587.54395	34213.3375
1590.87208	33722.3375
1594.19801	33779.2375
1597.52172	34212.4375
1600.84321	34164.4375
1604.16251	33102.6375
1607.47959	31568.9375
1610.79447	29908.6375
1614.10715	28290.4375
1617.41763	26745.4375
1620.7259	25547.0375
1624.03199	24814.3375
1627.33587	24650.3375
1630.63757	24983.2375
1633.93707	25929.2375
1637.23439	27634.8375
1640.52951	30156.9375
1643.82246	33159.4375
1647.11321	35730.2375
1650.40179	36865.0375
1653.68819	35664.6375
1656.97241	32631.3375
1660.25446	29103.7375
1663.53433	26065.2375
1666.81203	23895.7375
1670.08756	22443.6375
1673.36092	21521.0375
1676.63211	20915.1375
1679.90115	20485.6375
1683.16801	20167.7375
1686.43272	19965.6375
1689.69527	19824.0375
1692.95567	19704.8375
1696.2139	19617.6375
1699.46999	19567.0375
1702.72392	19488.8375
1705.97571	19462.5375
1709.22535	19359.4375
1712.47284	19283.1375
1715.71819	19243.0375
1718.96139	19198.1375
1722.20246	19088.9375
1725.44139	19058.0375
1728.67818	18920.0375
1731.91284	18844.9375
1735.14537	18746.9375
1738.37576	18697.1375
1741.60403	18632.8375
1744.83017	18584.3375
1748.05418	18547.7375
1751.27607	18499.3375
1754.49584	18479.3375
1757.71349	18497.7375
1760.92903	18466.1375
1764.14244	18475.9375
1767.35375	18461.8375
1770.56294	18417.5375
1773.77002	18378.5375
1776.97499	18313.5375
1780.17785	18257.0375
1783.37861	18222.9375
1786.57727	18154.5375
1789.77382	18104.8375
1792.96828	18082.2375
1796.16064	18016.6375
1799.3509	17986.3375
1802.53907	17963.6375
1805.72514	17888.6375
1808.90913	17829.7375
1812.09102	17824.2375
1815.27083	17774.4375
1818.44856	17768.2375
1821.6242	17746.4375
1824.79776	17703.1375
1827.96924	17698.9375
1831.13864	17722.4375
1834.30597	17747.6375
1837.47122	17719.9375
1840.6344	17736.4375
1843.7955	17731.6375
1846.95454	17714.0375
1850.11151	17714.0375
1853.26642	17705.7375
1856.41926	17659.7375
1859.57004	17661.5375
1862.71876	17624.0375
1865.86542	17588.6375
1869.01003	17586.7375
1872.15258	17533.9375
1875.29308	17507.5375
1878.43152	17418.6375
1881.56792	17390.2375
1884.70227	17329.0375
1887.83457	17307.2375
1890.96482	17275.8375
1894.09304	17254.5375
1897.21921	17238.4375
1900.34335	17210.9375
1903.46544	17182.7375
1906.58551	17163.1375
1909.70353	17139.3375
1912.81953	17130.0375
1915.93349	17064.8375
1919.04543	17021.3375
1922.15534	16993.0375
1925.26322	16943.6375
1928.36908	16909.7375
1931.47292	16858.7375
1934.57473	16816.9375
1937.67453	16799.8375
1940.77232	16761.1375
1943.86808	16700.7375
1946.96184	16659.7375
1950.05358	16629.8375
1953.14331	16588.9375
1956.23103	16529.8375
1959.31675	16512.1375
1962.40046	16441.7375
1965.48217	16374.7375
1968.56188	16327.1375
1971.63959	16282.0375
1974.7153	16202.9375
1977.78901	16148.8375
1980.86073	16079.4375
1983.93046	16042.4375
1986.99819	16005.8375
1990.06394	15969.9375
1993.1277	15923.0375
1996.18947	15838.2375
1999.24925	15809.7375
2002.30706	15733.4375
2005.36288	15711.0375
2008.41672	15660.4375
2011.46859	15595.8375
2014.51848	15588.1375
2017.56639	15541.9375
2020.61233	15478.3375
2023.6563	15436.5375
2026.6983	15387.3375
2029.73833	15357.6375
2032.7764	15337.2375
2035.8125	15285.8375
2038.84664	15229.2375
2041.87881	15185.0375
2044.90903	15182.2375
2047.93729	15131.6375
2050.96359	15121.8375
2053.98794	15098.6375
2057.01034	15104.8375
2060.03078	15074.8375
2063.04927	15070.3375
2066.06582	15037.7375
2069.08042	15016.3375
2072.09307	15026.0375
2075.10378	14961.3375
2078.11255	14962.2375
2081.11938	14976.2375
2084.12426	15003.3375
2087.12722	14947.5375
2090.12824	14926.2375
2093.12732	14978.7375
2096.12447	14980.6375
2099.11969	14949.3375
2102.11299	14971.1375
2105.10435	14961.0375
2108.09379	14986.9375
2111.08131	15002.0375
2114.0669	14972.4375
2117.05057	15007.9375
2120.03233	14996.0375
2123.01216	14991.4375
2125.99008	15008.3375
2128.96609	15017.7375
2131.94018	15035.9375
2134.91236	15016.4375
2137.88263	15039.2375
2140.851	15031.2375
2143.81746	15047.5375
2146.78201	15036.6375
2149.74466	15017.7375
2152.7054	15045.3375
2155.66425	15051.8375
2158.6212	15040.4375
2161.57625	15033.8375
2164.52941	15015.4375
2167.48067	15007.9375
2170.43004	15015.7375
2173.37752	14995.0375
2176.32311	14983.9375
2179.26681	14963.8375
2182.20863	14969.3375
2185.14856	14966.0375
2188.08661	14963.7375
2191.02278	14965.3375
2193.95707	14939.4375
2196.88948	14890.3375
2199.82001	14884.8375
2202.74867	14888.1375
2205.67545	14879.5375
2208.60037	14855.5375
2211.52341	14845.1375
2214.44458	14800.9375
2217.36388	14780.7375
2220.28132	14736.9375
2223.1969	14705.5375
2226.11061	14696.5375
2229.02246	14651.8375
2231.93245	14657.3375
2234.84058	14629.3375
2237.74686	14585.5375
2240.65128	14590.8375
2243.55385	14545.2375
2246.45456	14521.5375
2249.35343	14467.9375
2252.25044	14480.7375
2255.14561	14403.0375
2258.03893	14421.5375
2260.93041	14393.8375
2263.82004	14346.9375
2266.70783	14363.4375
2269.59378	14269.4375
2272.4779	14248.4375
2275.36017	14198.7375
2278.24061	14177.8375
2281.11922	14139.5375
2283.996	14125.3375
2286.87094	14107.1375
2289.74405	14047.9375
2292.61534	14030.2375
2295.4848	14012.0375
2298.35243	14009.7375
2301.21824	13983.1375
2304.08223	13972.5375
2306.94439	13970.7375
2309.80474	13917.2375
2312.66327	13946.1375
2315.51999	13901.2375
2318.37489	13893.3375
2321.22797	13870.4375
2324.07925	13867.4375
2326.92871	13837.7375
2329.77637	13853.5375
2332.62222	13819.7375
2335.46626	13794.6375
2338.3085	13768.7375
2341.14893	13763.6375
2343.98756	13735.0375
2346.8244	13705.6375
2349.65943	13711.2375
2352.49267	13728.6375
2355.32411	13742.1375
2358.15376	13705.5375
2360.98161	13708.3375
2363.80768	13700.6375
2366.63195	13687.4375
2369.45444	13656.1375
2372.27514	13681.8375
2375.09405	13650.2375
2377.91118	13577.4375
2380.72652	13586.0375
2383.54009	13568.6375
2386.35187	13566.7375
2389.16188	13489.4375
2391.97011	13469.8375
2394.77657	13447.8375
2397.58125	13399.9375
2400.38416	13391.1375
2403.18529	13345.2375
2405.98466	13341.2375
2408.78226	13349.9375
2411.57809	13316.9375
2414.37216	13295.6375
2417.16446	13262.9375
2419.955	13269.0375
2422.74378	13269.0375
2425.5308	13228.7375
2428.31606	13206.3375
2431.09956	13174.3375
2433.88131	13186.1375
2436.6613	13160.0375
2439.43954	13187.5375
2442.21603	13122.5375
2444.99077	13110.5375
2447.76377	13133.9375
2450.53501	13109.9375
2453.30451	13097.1375
2456.07226	13082.8375
2458.83827	13070.3375
2461.60254	13047.4375
2464.36507	13035.8375
2467.12586	12999.8375
2469.88492	13022.4375
2472.64224	13027.0375
2475.39782	13015.1375
2478.15167	13030.4375
2480.90379	12997.2375
2483.65417	12949.9375
2486.40283	12975.2375
2489.14976	13003.4375
2491.89497	12967.5375
2494.63845	12982.2375
2497.3802	12978.8375
2500.12024	12946.2375
2502.85855	12953.7375
2505.59514	12933.3375
2508.33002	12912.1375
2511.06318	12878.5375
2513.79462	12851.4375
2516.52435	12888.4375
2519.25237	12830.1375
2521.97867	12811.8375
2524.70327	12815.6375
2527.42616	12795.2375
2530.14734	12800.8375
2532.86681	12777.6375
2535.58458	12764.1375
2538.30065	12712.8375
2541.01501	12734.5375
2543.72768	12706.4375
2546.43864	12693.2375
2549.14791	12694.1375
2551.85548	12642.9375
2554.56136	12598.9375
2557.26554	12604.5375
2559.96803	12592.6375
2562.66883	12589.0375
2565.36794	12576.2375
2568.06536	12515.6375
2570.7611	12539.5375
2573.45514	12522.3375
2576.14751	12483.3375
2578.83819	12437.6375
2581.52719	12444.2375
2584.21451	12420.9375
2586.90015	12409.1375
2589.58411	12367.6375
2592.2664	12326.8375
2594.94701	12309.4375
2597.62594	12320.1375
2600.30321	12295.6375
2602.9788	12269.6375
2605.65273	12260.1375
2608.32498	12223.9375
2610.99557	12222.2375
2613.66449	12193.2375
2616.33175	12198.5375
2618.99734	12181.2375
2621.66128	12168.6375
2624.32355	12148.4375
2626.98416	12148.1375
2629.64311	12137.9375
2632.30041	12146.8375
2634.95605	12107.4375
2637.61004	12096.1375
2640.26238	12049.8375
2642.91306	12047.3375
2645.56209	12055.8375
2648.20948	12047.0375
2650.85521	12055.1375
2653.4993	12016.4375
2656.14175	12038.9375
2658.78255	12034.8375
2661.42171	12009.8375
2664.05923	12003.7375
2666.6951	11998.4375
2669.32934	12009.9375
2671.96194	12004.3375
2674.59291	12022.0375
2677.22224	12003.7375
2679.84993	12012.0375
2682.476	11999.3375
2685.10043	11986.1375
2687.72324	11972.2375
2690.34441	12014.8375
2692.96396	12013.7375
2695.58188	12006.5375
2698.19818	11999.5375
2700.81285	12032.8375
2703.4259	12015.3375
2706.03733	12073.8375
2708.64714	12044.9375
2711.25533	12034.8375
2713.86191	12007.4375
2716.46687	12005.3375
2719.07021	12014.6375
2721.67194	11987.1375
2724.27206	11967.1375
2726.87057	12004.5375
2729.46747	11973.1375
2732.06276	11964.5375
2734.65644	11983.0375
2737.24852	11992.2375
2739.83899	11978.3375
2742.42786	11941.3375
2745.01513	11921.5375
2747.60079	11898.3375
2750.18486	11904.8375
2752.76733	11906.3375
2755.3482	11924.9375
2757.92747	11925.7375
2760.50515	11869.0375
2763.08123	11849.4375
2765.65573	11831.8375
2768.22863	11824.2375
2770.79994	11784.7375
2773.36967	11798.2375
2775.9378	11776.5375
2778.50435	11741.1375
2781.06932	11745.6375
2783.6327	11732.5375
2786.1945	11688.9375
2788.75471	11684.7375
2791.31335	11667.6375
2793.87041	11642.9375
2796.42589	11628.5375
2798.97979	11605.6375
2801.53212	11580.9375
2804.08288	11606.0375
2806.63206	11554.7375
2809.17967	11533.5375
2811.72571	11481.0375
2814.27018	11474.6375
2816.81308	11490.6375
2819.35442	11447.9375
2821.89419	11427.3375
2824.43239	11423.8375
2826.96904	11415.9375
2829.50412	11418.7375
2832.03763	11367.4375
2834.56959	11383.8375
2837.1	11344.3375
2839.62884	11336.7375
2842.15613	11330.3375
2844.68186	11363.3375
2847.20604	11345.5375
2849.72867	11371.0375
2852.24974	11350.8375
2854.76927	11360.7375
2857.28724	11347.5375
2859.80367	11344.1375
2862.31855	11344.7375
2864.83189	11288.6375
2867.34368	11271.4375
2869.85393	11279.5375
2872.36264	11251.9375
2874.8698	11280.8375
2877.37543	11248.9375
2879.87952	11260.2375
2882.38207	11237.9375
2884.88308	11241.9375
2887.38256	11243.0375
2889.88051	11237.3375
2892.37692	11241.8375
2894.8718	11208.9375
2897.36515	11205.9375
2899.85698	11214.8375
2902.34727	11226.8375
2904.83604	11229.8375
2907.32328	11234.2375
2909.809	11233.7375
2912.29319	11218.1375
2914.77587	11233.2375
2917.25702	11213.9375
2919.73665	11202.1375
2922.21476	11218.5375
2924.69136	11202.5375
2927.16644	11229.6375
2929.64	11222.2375
2932.11205	11175.2375
2934.58258	11147.1375
2937.05161	11181.0375
2939.51912	11197.2375
2941.98513	11147.0375
2944.44962	11077.5375
2946.91261	11068.9375
2949.37409	11076.9375
2951.83407	11069.8375
2954.29254	11031.0375
2956.74951	11044.7375
2959.20498	11021.2375
2961.65895	11009.8375
2964.11142	11001.2375
2966.56239	10969.6375
2969.01186	10967.0375
2971.45984	10902.5375
2973.90632	10905.4375
2976.35131	10871.9375
2978.7948	10839.5375
2981.23681	10832.4375
2983.67732	10807.1375
2986.11635	10821.8375
2988.55388	10784.5375
2990.98993	10746.8375
2993.4245	10696.0375
2995.85758	10684.7375
2998.28917	10665.5375
3000.71928	10646.4375
3003.14791	10608.8375
3005.57506	10616.3375
3008.00073	10559.4375
3010.42493	10559.7375
3012.84764	10524.9375
3015.26888	10529.7375
3017.68865	10493.9375
3020.10694	10479.6375
3022.52376	10479.4375
3024.9391	10478.8375
3027.35298	10475.4375
3029.76539	10453.5375
3032.17632	10448.5375
3034.5858	10422.2375
3036.9938	10412.9375
3039.40034	10385.0375
3041.80542	10363.9375
3044.20903	10343.5375
3046.61118	10342.2375
3049.01187	10327.6375
3051.4111	10316.3375
3053.80888	10296.0375
3056.20519	10284.9375
3058.60005	10264.2375
3060.99345	10218.8375
3063.3854	10201.3375
3065.7759	10191.8375
3068.16494	10161.7375
3070.55254	10127.1375
3072.93868	10131.7375
3075.32338	10082.5375
3077.70662	10073.3375
3080.08842	10034.4375
3082.46878	10027.5375
3084.84769	10022.7375
3087.22515	9977.6375
3089.60118	10016.1375
3091.97576	9989.5375
3094.3489	10001.7375
3096.72061	10011.2375
3099.09087	9970.6375
3101.4597	9981.5375
3103.82709	9954.9375
3106.19305	9962.5375
3108.55757	9949.6375
3110.92066	9904.9375
3113.28232	9908.6375
3115.64255	9868.1375
3118.00134	9843.7375
3120.35871	9834.3375
3122.71466	9815.5375
3125.06917	9809.9375
3127.42226	9796.2375
3129.77393	9819.3375
3132.12417	9803.4375
3134.47299	9790.6375
3136.82039	9796.6375
3139.16636	9791.5375
3141.51092	9793.8375
3143.85406	9800.1375
3146.19579	9821.7375
3148.53609	9823.9375
3150.87499	9814.3375
3153.21246	9813.1375
3155.54853	9819.8375
3157.88318	9815.0375
3160.21642	9821.8375
3162.54826	9814.5375
3164.87868	9819.7375
3167.2077	9810.4375
3169.5353	9802.0375
3171.86151	9772.6375
3174.18631	9774.8375
3176.5097	9805.7375
3178.83169	9763.7375
3181.15228	9779.6375
3183.47147	9732.0375
3185.78926	9737.6375
3188.10565	9734.1375
3190.42065	9712.4375
3192.73424	9717.0375
3195.04645	9700.0375
3197.35725	9725.4375
3199.66667	9688.2375
3201.97469	9714.5375
3204.28132	9714.7375
3206.58656	9722.8375
3208.8904	9727.2375
3211.19287	9716.9375
3213.49394	9696.8375
3215.79363	9696.1375
3218.09193	9710.7375
3220.38884	9723.3375
3222.68438	9716.0375
3224.97853	9691.2375
3227.2713	9674.3375
3229.56269	9667.8375
3231.8527	9633.6375
3234.14133	9622.1375
3236.42858	9605.8375
3238.71446	9612.3375
3240.99896	9566.6375
3243.28209	9584.1375
3245.56384	9559.9375
3247.84423	9547.0375
3250.12324	9554.9375
3252.40088	9548.2375
3254.67715	9556.2375
3256.95205	9509.7375
3259.22558	9535.6375
3261.49775	9519.7375
3263.76855	9512.0375
3266.03799	9465.0375
3268.30606	9449.0375
3270.57277	9444.3375
3272.83812	9426.2375
3275.10211	9393.5375
3277.36474	9374.0375
3279.62601	9390.3375
3281.88593	9390.6375
3284.14448	9395.8375
3286.40168	9383.3375
3288.65753	9371.6375
3290.91202	9345.4375
3293.16516	9316.8375
3295.41695	9303.8375
3297.66738	9235.9375
3299.91647	9185.4375
3302.16421	9111.0375
3304.4106	9096.7375
3306.65564	9055.9375
3308.89933	8969.7375
3311.14169	8906.9375
3313.38269	8882.0375
3315.62236	8805.1375
3317.86068	8734.3375
3320.09766	8636.7375
3322.3333	8558.7375
3324.5676	8555.5375
3326.80056	8437.7375
3329.03219	8384.4375
3331.26248	3.9375
3333.49143	-1.6625
3335.71905	0.3375
