Data from AgNP_FTO_APTES_CRN_50uM_R6G_10uM_NaF_0.1M_Addition_RamanShift__11__17-58-48-068.txt Node

Date: Wed Dec 15 17:58:48 GMT 2021
User: TCL
Spectrometer: QEP01345
Trigger mode: 4
Integration Time (sec): 7.000000E0
Scans to average: 10
Electric dark correction enabled: true
Nonlinearity correction enabled: false
Boxcar width: 0
XAxis mode: Raman Shifts
Number of Pixels in Spectrum: 1044
>>>>>Begin Spectral Data<<<<<
46.04893	0.4375
50.45542	-1.2625
54.85868	-0.2625
59.25871	-0.7625
63.6555	56.2375
68.04907	61.9375
72.43941	61.3375
76.82654	68.7375
81.21044	70.4375
85.59113	74.6375
89.96862	74.6375
94.34289	77.5375
98.71396	83.1375
103.08183	86.8375
107.4465	88.9375
111.80798	87.6375
116.16626	91.2375
120.52136	95.4375
124.87327	94.6375
129.222	99.3375
133.56755	99.3375
137.90993	109.4375
142.24913	116.9375
146.58517	127.8375
150.91804	149.9375
155.24774	167.9375
159.57429	217.2375
163.89768	271.0375
168.21792	345.9375
172.53501	473.8375
176.84895	660.4375
181.15975	913.7375
185.46741	1281.0375
189.77193	1775.7375
194.07331	2371.5375
198.37157	3060.3375
202.6667	3784.8375
206.9587	4487.9375
211.24758	5217.1375
215.53334	5880.2375
219.81599	6630.1375
224.09553	7416.0375
228.37195	8324.5375
232.64527	9314.1375
236.91549	10333.9375
241.18261	11413.6375
245.44663	12405.5375
249.70755	13364.8375
253.96539	14145.2375
258.22014	14829.3375
262.4718	15384.2375
266.72039	15750.2375
270.96589	15951.1375
275.20832	16012.3375
279.44768	15971.0375
283.68397	15828.3375
287.91719	15766.3375
292.14735	15701.1375
296.37445	15695.2375
300.59849	15681.7375
304.81948	15720.3375
309.03742	15643.4375
313.25231	15521.5375
317.46415	15267.7375
321.67296	14956.5375
325.87872	14651.5375
330.08145	14517.8375
334.28114	14503.8375
338.47781	14609.9375
342.67145	14766.4375
346.86207	14944.2375
351.04966	15164.0375
355.23424	15365.8375
359.4158	15535.3375
363.59435	15632.6375
367.76989	15740.2375
371.94243	15763.0375
376.11196	15807.7375
380.27849	15864.1375
384.44203	15922.2375
388.60257	16044.4375
392.76012	16212.3375
396.91468	16396.7375
401.06626	16662.3375
405.21485	16808.8375
409.36047	16822.7375
413.50311	16697.3375
417.64277	16578.3375
421.77947	16577.2375
425.9132	16667.9375
430.04396	16738.9375
434.17176	16811.8375
438.2966	16865.9375
442.41849	16987.1375
446.53742	17224.0375
450.6534	17501.0375
454.76644	17709.8375
458.87653	17833.8375
462.98368	17848.2375
467.08789	17811.5375
471.18916	17741.7375
475.2875	17619.7375
479.38291	17517.6375
483.4754	17438.8375
487.56496	17231.7375
491.6516	17069.8375
495.73531	16897.6375
499.81612	16864.5375
503.89401	17002.2375
507.96899	17087.3375
512.04106	17122.1375
516.11023	17089.5375
520.1765	17000.1375
524.23987	16905.0375
528.30034	16734.4375
532.35792	16661.2375
536.41261	16512.1375
540.46441	16392.3375
544.51333	16449.0375
548.55936	16608.3375
552.60252	16875.4375
556.64279	17176.7375
560.6802	17338.6375
564.71473	17409.4375
568.7464	17583.7375
572.7752	17917.6375
576.80114	18360.6375
580.82422	18791.8375
584.84444	19227.2375
588.86181	19537.4375
592.87633	19636.6375
596.888	19487.8375
600.89682	19108.4375
604.9028	19176.2375
608.90594	19987.0375
612.90624	20805.2375
616.90371	19808.1375
620.89834	17620.9375
624.89015	16641.8375
628.87913	16561.1375
632.86528	16714.8375
636.84862	16803.7375
640.82913	16658.7375
644.80683	16384.5375
648.78172	16197.4375
652.75379	16171.2375
656.72306	16249.1375
660.68952	16421.2375
664.65319	16400.6375
668.61405	16230.1375
672.57211	16244.1375
676.52738	16266.3375
680.47986	16249.4375
684.42955	16192.4375
688.37646	16192.9375
692.32058	16232.4375
696.26192	16374.3375
700.20048	16531.6375
704.13626	16650.1375
708.06928	16726.1375
711.99952	16751.0375
715.927	16707.7375
719.85171	16636.0375
723.77365	16522.6375
727.69284	16366.2375
731.60928	16215.9375
735.52295	16091.4375
739.43388	16113.1375
743.34206	16140.0375
747.24749	16197.5375
751.15017	16312.3375
755.05012	16548.0375
758.94733	16873.9375
762.8418	17524.4375
766.73354	18482.9375
770.62254	19396.4375
774.50882	19454.7375
778.39237	18715.7375
782.27321	17751.5375
786.15132	16965.3375
790.02671	16473.3375
793.89938	16177.5375
797.76935	16056.4375
801.6366	16003.2375
805.50115	15962.7375
809.36299	15930.6375
813.22213	15840.6375
817.07857	15843.5375
820.93231	15813.0375
824.78336	15765.9375
828.63172	15767.1375
832.47738	15759.1375
836.32036	15744.7375
840.16066	15726.9375
843.99827	15750.4375
847.8332	15686.6375
851.66546	15656.3375
855.49504	15656.4375
859.32195	15679.4375
863.1462	15624.4375
866.96777	15646.3375
870.78668	15624.5375
874.60293	15602.3375
878.41652	15652.3375
882.22745	15706.2375
886.03573	15752.8375
889.84136	15769.4375
893.64433	15739.2375
897.44466	15668.9375
901.24235	15634.2375
905.0374	15594.4375
908.8298	15612.7375
912.61957	15653.0375
916.40671	15759.1375
920.19121	15905.3375
923.97308	15987.0375
927.75233	15916.2375
931.52895	15799.2375
935.30295	15640.8375
939.07433	15441.2375
942.84309	15273.3375
946.60924	15199.1375
950.37278	15141.9375
954.13371	15140.3375
957.89203	15095.0375
961.64774	15088.7375
965.40086	15074.8375
969.15137	15035.1375
972.89929	14993.1375
976.64461	14949.9375
980.38733	14932.3375
984.12747	14911.4375
987.86502	14963.2375
991.59999	14996.4375
995.33237	15088.4375
999.06217	15222.5375
1002.78939	15384.6375
1006.51404	15586.6375
1010.23611	15807.4375
1013.95561	15975.5375
1017.67255	15972.3375
1021.38692	15842.6375
1025.09872	15674.6375
1028.80796	15561.1375
1032.51465	15519.1375
1036.21877	15526.5375
1039.92035	15621.3375
1043.61937	15705.8375
1047.31584	15791.2375
1051.00976	15885.4375
1054.70114	15991.7375
1058.38998	16213.0375
1062.07627	16516.6375
1065.76003	16908.9375
1069.44126	17279.8375
1073.11995	17671.9375
1076.79611	17864.6375
1080.46974	17717.3375
1084.14085	17485.2375
1087.80943	17286.8375
1091.47549	17227.0375
1095.13903	17156.6375
1098.80005	16970.2375
1102.45857	16672.6375
1106.11456	16298.7375
1109.76805	16126.4375
1113.41903	16056.0375
1117.06751	16078.2375
1120.71348	16206.9375
1124.35696	16355.6375
1127.99793	16519.7375
1131.63641	16707.6375
1135.2724	16619.0375
1138.90589	16540.7375
1142.5369	16559.5375
1146.16542	16583.5375
1149.79145	16643.1375
1153.415	16772.9375
1157.03607	16874.8375
1160.65467	17179.9375
1164.27079	17705.2375
1167.88443	18383.8375
1171.49561	19166.8375
1175.10432	20146.2375
1178.71056	21291.2375
1182.31434	22393.2375
1185.91565	23005.2375
1189.51451	23067.1375
1193.11091	22749.5375
1196.70485	22098.5375
1200.29634	21349.5375
1203.88538	20766.1375
1207.47197	20376.2375
1211.05612	20027.7375
1214.63782	19757.0375
1218.21708	19265.7375
1221.79391	18846.8375
1225.36829	18514.2375
1228.94024	18344.0375
1232.50976	18263.0375
1236.07685	18176.6375
1239.6415	18159.0375
1243.20374	18182.2375
1246.76355	18249.9375
1250.32093	18447.8375
1253.8759	18712.6375
1257.42845	19097.9375
1260.97859	19555.7375
1264.52631	19932.0375
1268.07163	20296.3375
1271.61453	20626.7375
1275.15503	20991.0375
1278.69312	21361.7375
1282.22882	21766.2375
1285.76211	22242.0375
1289.29301	22812.5375
1292.82151	23508.2375
1296.34761	24382.4375
1299.87133	25318.5375
1303.39266	26235.6375
1306.9116	27064.4375
1310.42815	27810.1375
1313.94233	28146.7375
1317.45412	28202.9375
1320.96354	28081.2375
1324.47058	27978.3375
1327.97525	27972.4375
1331.47754	28011.8375
1334.97747	28132.5375
1338.47502	28273.5375
1341.97022	28333.9375
1345.46305	28430.8375
1348.95352	28434.5375
1352.44163	28310.5375
1355.92738	28413.1375
1359.41078	28843.1375
1362.89183	29160.4375
1366.37053	28676.3375
1369.84688	27049.7375
1373.32088	25052.7375
1376.79254	23476.7375
1380.26186	22785.9375
1383.72883	22541.1375
1387.19347	22414.0375
1390.65578	22178.9375
1394.11575	22024.7375
1397.57339	21925.4375
1401.0287	21976.9375
1404.48168	22003.9375
1407.93234	21862.2375
1411.38068	21533.1375
1414.82669	20958.1375
1418.27039	20311.7375
1421.71177	19658.0375
1425.15083	19162.0375
1428.58758	18887.8375
1432.02203	18972.8375
1435.45416	19230.5375
1438.88399	19599.2375
1442.31151	19899.5375
1445.73673	20105.0375
1449.15965	20301.1375
1452.58027	20455.7375
1455.9986	20519.9375
1459.41463	20705.1375
1462.82837	21003.2375
1466.23982	21375.1375
1469.64898	21653.4375
1473.05586	21889.9375
1476.46045	21974.1375
1479.86276	21989.5375
1483.26279	21956.1375
1486.66054	21947.2375
1490.05602	22167.8375
1493.44922	22415.6375
1496.84016	22814.4375
1500.22882	23456.3375
1503.61521	24316.8375
1506.99934	25107.7375
1510.38121	25685.8375
1513.76081	25698.9375
1517.13816	25214.2375
1520.51324	24536.8375
1523.88607	23994.1375
1527.25665	23661.8375
1530.62498	23538.0375
1533.99105	23346.2375
1537.35488	23049.5375
1540.71647	22617.9375
1544.07581	22112.1375
1547.4329	21557.6375
1550.78776	21056.9375
1554.14038	20796.0375
1557.49077	20673.9375
1560.83892	20630.0375
1564.18484	20778.2375
1567.52853	20967.0375
1570.86999	21337.7375
1574.20922	21839.8375
1577.54624	22420.5375
1580.88103	22691.9375
1584.2136	22640.1375
1587.54395	22515.2375
1590.87208	22553.3375
1594.19801	22939.7375
1597.52172	23564.5375
1600.84321	23707.7375
1604.16251	22992.4375
1607.47959	21881.2375
1610.79447	20669.3375
1614.10715	19418.8375
1617.41763	18369.0375
1620.7259	17559.6375
1624.03199	17095.7375
1627.33587	16990.1375
1630.63757	17218.1375
1633.93707	17857.5375
1637.23439	19014.8375
1640.52951	20729.9375
1643.82246	22829.3375
1647.11321	24633.7375
1650.40179	25197.1375
1653.68819	24259.4375
1656.97241	22079.5375
1660.25446	19664.8375
1663.53433	17736.6375
1666.81203	16382.8375
1670.08756	15506.2375
1673.36092	14889.1375
1676.63211	14554.1375
1679.90115	14256.9375
1683.16801	14072.5375
1686.43272	13889.7375
1689.69527	13797.0375
1692.95567	13719.6375
1696.2139	13663.3375
1699.46999	13644.9375
1702.72392	13613.7375
1705.97571	13540.6375
1709.22535	13497.1375
1712.47284	13484.2375
1715.71819	13453.0375
1718.96139	13407.7375
1722.20246	13371.4375
1725.44139	13316.4375
1728.67818	13269.3375
1731.91284	13245.9375
1735.14537	13138.4375
1738.37576	13074.1375
1741.60403	13062.2375
1744.83017	13009.2375
1748.05418	12979.8375
1751.27607	12975.6375
1754.49584	12959.2375
1757.71349	12953.3375
1760.92903	12963.4375
1764.14244	12929.3375
1767.35375	12906.0375
1770.56294	12901.1375
1773.77002	12881.7375
1776.97499	12879.0375
1780.17785	12826.0375
1783.37861	12783.6375
1786.57727	12758.5375
1789.77382	12707.0375
1792.96828	12715.9375
1796.16064	12676.7375
1799.3509	12651.7375
1802.53907	12612.5375
1805.72514	12572.1375
1808.90913	12558.9375
1812.09102	12520.4375
1815.27083	12495.5375
1818.44856	12517.6375
1821.6242	12495.5375
1824.79776	12446.5375
1827.96924	12469.7375
1831.13864	12461.3375
1834.30597	12473.6375
1837.47122	12490.5375
1840.6344	12448.8375
1843.7955	12431.2375
1846.95454	12435.7375
1850.11151	12404.8375
1853.26642	12394.6375
1856.41926	12403.7375
1859.57004	12373.2375
1862.71876	12367.8375
1865.86542	12349.7375
1869.01003	12336.7375
1872.15258	12319.1375
1875.29308	12307.6375
1878.43152	12237.0375
1881.56792	12254.1375
1884.70227	12247.0375
1887.83457	12178.5375
1890.96482	12191.5375
1894.09304	12157.7375
1897.21921	12149.6375
1900.34335	12143.5375
1903.46544	12139.5375
1906.58551	12091.5375
1909.70353	12054.8375
1912.81953	12059.8375
1915.93349	12013.5375
1919.04543	12020.9375
1922.15534	11964.7375
1925.26322	11954.3375
1928.36908	11941.8375
1931.47292	11893.0375
1934.57473	11892.9375
1937.67453	11849.1375
1940.77232	11831.5375
1943.86808	11801.4375
1946.96184	11771.7375
1950.05358	11758.3375
1953.14331	11711.5375
1956.23103	11676.3375
1959.31675	11666.3375
1962.40046	11614.0375
1965.48217	11581.7375
1968.56188	11507.2375
1971.63959	11495.5375
1974.7153	11441.9375
1977.78901	11443.2375
1980.86073	11393.5375
1983.93046	11370.4375
1986.99819	11334.1375
1990.06394	11317.5375
1993.1277	11278.0375
1996.18947	11208.9375
1999.24925	11182.6375
2002.30706	11135.2375
2005.36288	11137.0375
2008.41672	11075.9375
2011.46859	11058.8375
2014.51848	11028.4375
2017.56639	10996.9375
2020.61233	10980.8375
2023.6563	10938.8375
2026.6983	10928.0375
2029.73833	10914.2375
2032.7764	10867.1375
2035.8125	10845.2375
2038.84664	10808.0375
2041.87881	10786.7375
2044.90903	10788.4375
2047.93729	10747.0375
2050.96359	10748.2375
2053.98794	10715.7375
2057.01034	10730.5375
2060.03078	10702.7375
2063.04927	10693.7375
2066.06582	10679.9375
2069.08042	10683.3375
2072.09307	10691.7375
2075.10378	10659.7375
2078.11255	10641.1375
2081.11938	10640.8375
2084.12426	10604.4375
2087.12722	10648.3375
2090.12824	10639.2375
2093.12732	10628.2375
2096.12447	10642.1375
2099.11969	10624.0375
2102.11299	10655.9375
2105.10435	10628.1375
2108.09379	10654.6375
2111.08131	10670.0375
2114.0669	10673.6375
2117.05057	10665.8375
2120.03233	10666.6375
2123.01216	10661.2375
2125.99008	10674.8375
2128.96609	10673.4375
2131.94018	10673.4375
2134.91236	10692.8375
2137.88263	10693.4375
2140.851	10693.1375
2143.81746	10721.0375
2146.78201	10703.5375
2149.74466	10716.5375
2152.7054	10734.5375
2155.66425	10709.3375
2158.6212	10709.5375
2161.57625	10711.5375
2164.52941	10712.5375
2167.48067	10711.8375
2170.43004	10700.5375
2173.37752	10669.4375
2176.32311	10668.8375
2179.26681	10662.6375
2182.20863	10654.7375
2185.14856	10670.8375
2188.08661	10649.0375
2191.02278	10658.3375
2193.95707	10640.7375
2196.88948	10640.5375
2199.82001	10612.4375
2202.74867	10582.7375
2205.67545	10573.6375
2208.60037	10582.8375
2211.52341	10571.6375
2214.44458	10534.0375
2217.36388	10516.9375
2220.28132	10506.5375
2223.1969	10482.8375
2226.11061	10445.5375
2229.02246	10439.1375
2231.93245	10439.0375
2234.84058	10416.8375
2237.74686	10388.3375
2240.65128	10384.3375
2243.55385	10357.0375
2246.45456	10337.8375
2249.35343	10308.7375
2252.25044	10331.4375
2255.14561	10291.5375
2258.03893	10280.2375
2260.93041	10277.7375
2263.82004	10253.0375
2266.70783	10223.6375
2269.59378	10169.9375
2272.4779	10162.2375
2275.36017	10142.0375
2278.24061	10103.2375
2281.11922	10082.6375
2283.996	10079.3375
2286.87094	10076.7375
2289.74405	10024.9375
2292.61534	10025.4375
2295.4848	10031.4375
2298.35243	10017.0375
2301.21824	9990.2375
2304.08223	9994.5375
2306.94439	9986.7375
2309.80474	9971.4375
2312.66327	9946.3375
2315.51999	9946.5375
2318.37489	9928.1375
2321.22797	9903.9375
2324.07925	9908.9375
2326.92871	9888.8375
2329.77637	9914.5375
2332.62222	9885.4375
2335.46626	9875.7375
2338.3085	9847.7375
2341.14893	9813.3375
2343.98756	9834.2375
2346.8244	9810.5375
2349.65943	9827.6375
2352.49267	9802.5375
2355.32411	9807.5375
2358.15376	9784.6375
2360.98161	9794.9375
2363.80768	9787.7375
2366.63195	9780.7375
2369.45444	9760.6375
2372.27514	9755.0375
2375.09405	9757.7375
2377.91118	9715.2375
2380.72652	9715.3375
2383.54009	9687.2375
2386.35187	9659.8375
2389.16188	9639.4375
2391.97011	9622.6375
2394.77657	9603.8375
2397.58125	9582.7375
2400.38416	9584.8375
2403.18529	9548.0375
2405.98466	9548.0375
2408.78226	9515.0375
2411.57809	9530.5375
2414.37216	9489.8375
2417.16446	9507.3375
2419.955	9493.1375
2422.74378	9479.6375
2425.5308	9460.5375
2428.31606	9430.4375
2431.09956	9462.2375
2433.88131	9433.7375
2436.6613	9427.7375
2439.43954	9398.9375
2442.21603	9402.7375
2444.99077	9401.6375
2447.76377	9406.4375
2450.53501	9378.8375
2453.30451	9360.9375
2456.07226	9366.2375
2458.83827	9353.0375
2461.60254	9345.6375
2464.36507	9317.5375
2467.12586	9307.8375
2469.88492	9328.8375
2472.64224	9306.0375
2475.39782	9296.3375
2478.15167	9309.5375
2480.90379	9321.1375
2483.65417	9293.4375
2486.40283	9286.8375
2489.14976	9289.2375
2491.89497	9296.2375
2494.63845	9295.8375
2497.3802	9278.1375
2500.12024	9249.8375
2502.85855	9269.5375
2505.59514	9247.8375
2508.33002	9246.6375
2511.06318	9229.3375
2513.79462	9208.7375
2516.52435	9221.4375
2519.25237	9202.9375
2521.97867	9185.3375
2524.70327	9188.2375
2527.42616	9171.7375
2530.14734	9164.0375
2532.86681	9136.0375
2535.58458	9122.4375
2538.30065	9114.9375
2541.01501	9114.1375
2543.72768	9086.0375
2546.43864	9079.0375
2549.14791	9078.5375
2551.85548	9074.1375
2554.56136	9031.5375
2557.26554	9033.1375
2559.96803	9029.1375
2562.66883	8986.3375
2565.36794	9002.7375
2568.06536	9004.0375
2570.7611	8960.2375
2573.45514	8975.9375
2576.14751	8928.9375
2578.83819	8915.4375
2581.52719	8914.2375
2584.21451	8878.8375
2586.90015	8896.9375
2589.58411	8863.6375
2592.2664	8828.0375
2594.94701	8835.3375
2597.62594	8810.9375
2600.30321	8787.9375
2602.9788	8788.4375
2605.65273	8776.0375
2608.32498	8758.4375
2610.99557	8766.6375
2613.66449	8768.3375
2616.33175	8752.6375
2618.99734	8741.4375
2621.66128	8699.9375
2624.32355	8717.2375
2626.98416	8680.3375
2629.64311	8706.4375
2632.30041	8690.0375
2634.95605	8681.2375
2637.61004	8662.4375
2640.26238	8657.5375
2642.91306	8671.5375
2645.56209	8669.6375
2648.20948	8652.4375
2650.85521	8628.6375
2653.4993	8639.0375
2656.14175	8619.4375
2658.78255	8647.1375
2661.42171	8632.7375
2664.05923	8643.0375
2666.6951	8640.1375
2669.32934	8635.2375
2671.96194	8616.3375
2674.59291	8629.6375
2677.22224	8606.2375
2679.84993	8628.7375
2682.476	8611.2375
2685.10043	8619.8375
2687.72324	8623.7375
2690.34441	8633.6375
2692.96396	8615.8375
2695.58188	8617.4375
2698.19818	8626.6375
2700.81285	8616.5375
2703.4259	8646.2375
2706.03733	8652.6375
2708.64714	8650.7375
2711.25533	8647.3375
2713.86191	8635.3375
2716.46687	8642.2375
2719.07021	8636.6375
2721.67194	8626.0375
2724.27206	8613.1375
2726.87057	8601.0375
2729.46747	8607.8375
2732.06276	8611.7375
2734.65644	8588.2375
2737.24852	8593.7375
2739.83899	8583.4375
2742.42786	8599.2375
2745.01513	8568.8375
2747.60079	8575.0375
2750.18486	8578.3375
2752.76733	8562.3375
2755.3482	8546.2375
2757.92747	8546.4375
2760.50515	8523.0375
2763.08123	8535.2375
2765.65573	8507.3375
2768.22863	8506.8375
2770.79994	8485.7375
2773.36967	8487.6375
2775.9378	8479.6375
2778.50435	8480.3375
2781.06932	8433.6375
2783.6327	8435.2375
2786.1945	8433.9375
2788.75471	8421.8375
2791.31335	8383.8375
2793.87041	8375.4375
2796.42589	8368.9375
2798.97979	8375.3375
2801.53212	8351.2375
2804.08288	8335.7375
2806.63206	8303.9375
2809.17967	8287.8375
2811.72571	8276.0375
2814.27018	8269.0375
2816.81308	8241.9375
2819.35442	8265.3375
2821.89419	8245.5375
2824.43239	8216.3375
2826.96904	8212.1375
2829.50412	8206.6375
2832.03763	8179.3375
2834.56959	8188.8375
2837.1	8176.4375
2839.62884	8197.3375
2842.15613	8165.1375
2844.68186	8197.3375
2847.20604	8201.2375
2849.72867	8202.3375
2852.24974	8209.8375
2854.76927	8184.5375
2857.28724	8154.1375
2859.80367	8159.2375
2862.31855	8132.4375
2864.83189	8141.3375
2867.34368	8116.7375
2869.85393	8116.4375
2872.36264	8094.4375
2874.8698	8136.5375
2877.37543	8119.1375
2879.87952	8079.1375
2882.38207	8103.0375
2884.88308	8100.4375
2887.38256	8090.3375
2889.88051	8106.1375
2892.37692	8099.9375
2894.8718	8087.2375
2897.36515	8082.2375
2899.85698	8083.6375
2902.34727	8089.9375
2904.83604	8080.5375
2907.32328	8110.7375
2909.809	8088.5375
2912.29319	8114.1375
2914.77587	8087.6375
2917.25702	8068.5375
2919.73665	8068.4375
2922.21476	8101.0375
2924.69136	8075.4375
2927.16644	8070.2375
2929.64	8054.7375
2932.11205	8047.6375
2934.58258	8043.6375
2937.05161	8065.1375
2939.51912	8045.8375
2941.98513	8041.4375
2944.44962	8005.1375
2946.91261	7983.4375
2949.37409	8000.9375
2951.83407	7987.4375
2954.29254	7946.2375
2956.74951	7932.7375
2959.20498	7955.5375
2961.65895	7946.8375
2964.11142	7941.2375
2966.56239	7941.6375
2969.01186	7925.2375
2971.45984	7870.9375
2973.90632	7886.8375
2976.35131	7860.9375
2978.7948	7853.3375
2981.23681	7855.3375
2983.67732	7831.3375
2986.11635	7824.6375
2988.55388	7788.3375
2990.98993	7773.4375
2993.4245	7759.0375
2995.85758	7745.9375
2998.28917	7725.8375
3000.71928	7706.6375
3003.14791	7711.8375
3005.57506	7690.8375
3008.00073	7674.3375
3010.42493	7690.6375
3012.84764	7646.9375
3015.26888	7635.1375
3017.68865	7621.3375
3020.10694	7618.4375
3022.52376	7591.3375
3024.9391	7590.6375
3027.35298	7568.4375
3029.76539	7580.8375
3032.17632	7580.4375
3034.5858	7552.4375
3036.9938	7561.8375
3039.40034	7544.9375
3041.80542	7518.1375
3044.20903	7521.6375
3046.61118	7517.7375
3049.01187	7494.1375
3051.4111	7479.6375
3053.80888	7491.2375
3056.20519	7470.7375
3058.60005	7446.4375
3060.99345	7436.6375
3063.3854	7413.6375
3065.7759	7412.9375
3068.16494	7389.0375
3070.55254	7377.3375
3072.93868	7385.2375
3075.32338	7344.4375
3077.70662	7321.1375
3080.08842	7289.2375
3082.46878	7314.1375
3084.84769	7300.2375
3087.22515	7288.2375
3089.60118	7292.6375
3091.97576	7294.3375
3094.3489	7291.2375
3096.72061	7281.5375
3099.09087	7284.4375
3101.4597	7266.2375
3103.82709	7265.4375
3106.19305	7244.0375
3108.55757	7247.3375
3110.92066	7237.2375
3113.28232	7206.2375
3115.64255	7192.1375
3118.00134	7171.3375
3120.35871	7189.0375
3122.71466	7183.7375
3125.06917	7172.1375
3127.42226	7151.8375
3129.77393	7148.3375
3132.12417	7161.4375
3134.47299	7164.0375
3136.82039	7166.6375
3139.16636	7170.3375
3141.51092	7177.6375
3143.85406	7189.6375
3146.19579	7183.4375
3148.53609	7162.7375
3150.87499	7181.1375
3153.21246	7183.1375
3155.54853	7186.1375
3157.88318	7172.0375
3160.21642	7191.5375
3162.54826	7160.1375
3164.87868	7180.1375
3167.2077	7182.6375
3169.5353	7173.5375
3171.86151	7154.0375
3174.18631	7166.7375
3176.5097	7162.3375
3178.83169	7168.2375
3181.15228	7146.0375
3183.47147	7137.3375
3185.78926	7158.9375
3188.10565	7138.3375
3190.42065	7120.1375
3192.73424	7127.5375
3195.04645	7124.8375
3197.35725	7131.0375
3199.66667	7141.7375
3201.97469	7139.0375
3204.28132	7143.3375
3206.58656	7128.7375
3208.8904	7134.8375
3211.19287	7156.7375
3213.49394	7144.9375
3215.79363	7121.0375
3218.09193	7147.3375
3220.38884	7121.5375
3222.68438	7144.1375
3224.97853	7139.2375
3227.2713	7123.9375
3229.56269	7104.2375
3231.8527	7116.1375
3234.14133	7067.7375
3236.42858	7057.6375
3238.71446	7058.5375
3240.99896	7041.4375
3243.28209	7037.5375
3245.56384	7024.8375
3247.84423	7035.6375
3250.12324	7010.4375
3252.40088	7035.0375
3254.67715	7014.3375
3256.95205	7017.0375
3259.22558	7016.8375
3261.49775	7006.5375
3263.76855	6982.2375
3266.03799	6974.8375
3268.30606	6972.7375
3270.57277	6944.4375
3272.83812	6919.6375
3275.10211	6938.4375
3277.36474	6915.1375
3279.62601	6903.7375
3281.88593	6892.3375
3284.14448	6913.0375
3286.40168	6915.3375
3288.65753	6896.3375
3290.91202	6870.9375
3293.16516	6861.9375
3295.41695	6840.6375
3297.66738	6788.7375
3299.91647	6782.3375
3302.16421	6720.7375
3304.4106	6700.0375
3306.65564	6669.4375
3308.89933	6620.4375
3311.14169	6584.6375
3313.38269	6541.6375
3315.62236	6498.8375
3317.86068	6452.9375
3320.09766	6384.0375
3322.3333	6317.4375
3324.5676	6309.8375
3326.80056	6240.7375
3329.03219	6191.4375
3331.26248	3.1375
3333.49143	-0.2625
3335.71905	-0.1625
