Data from AgNP_FTO_APTES_CRN_2uM_R6G_10uM_NaF_0.1M_Addition_RamanShift__21__14-59-29-351.txt Node

Date: Wed Dec 15 14:59:29 GMT 2021
User: TCL
Spectrometer: QEP01345
Trigger mode: 4
Integration Time (sec): 7.000000E0
Scans to average: 10
Electric dark correction enabled: true
Nonlinearity correction enabled: false
Boxcar width: 0
XAxis mode: Raman Shifts
Number of Pixels in Spectrum: 1044
>>>>>Begin Spectral Data<<<<<
46.04893	0.3875
50.45542	-1.9125
54.85868	-2.9125
59.25871	0.0875
63.6555	119.4875
68.04907	132.3875
72.43941	134.5875
76.82654	147.0875
81.21044	151.6875
85.59113	150.6875
89.96862	160.6875
94.34289	162.2875
98.71396	169.8875
103.08183	177.5875
107.4465	179.5875
111.80798	183.8875
116.16626	191.5875
120.52136	196.5875
124.87327	200.7875
129.222	210.2875
133.56755	222.1875
137.90993	242.0875
142.24913	263.4875
146.58517	293.6875
150.91804	338.5875
155.24774	402.4875
159.57429	497.8875
163.89768	634.7875
168.21792	827.9875
172.53501	1127.7875
176.84895	1570.3875
181.15975	2188.3875
185.46741	3063.4875
189.77193	4218.8875
194.07331	5613.9875
198.37157	7225.2875
202.6667	8912.3875
206.9587	10569.3875
211.24758	12202.4875
215.53334	13874.4875
219.81599	15603.3875
224.09553	17583.6875
228.37195	19737.9875
232.64527	22167.8875
236.91549	24689.6875
241.18261	27150.4875
245.44663	29448.7875
249.70755	31417.2875
253.96539	33110.0875
258.22014	34653.2875
262.4718	35908.1875
266.72039	36827.8875
270.96589	37286.0875
275.20832	37384.4875
279.44768	37183.3875
283.68397	36881.2875
287.91719	36548.5875
292.14735	36374.2875
296.37445	36465.3875
300.59849	36690.9875
304.81948	36933.9875
309.03742	36951.1875
313.25231	36690.0875
317.46415	35870.1875
321.67296	34838.1875
325.87872	33876.9875
330.08145	33518.8875
334.28114	33463.5875
338.47781	33764.5875
342.67145	34269.0875
346.86207	34893.7875
351.04966	35709.6875
355.23424	36561.7875
359.4158	37374.7875
363.59435	37871.2875
367.76989	38213.8875
371.94243	38354.0875
376.11196	38436.0875
380.27849	38421.1875
384.44203	38508.3875
388.60257	38765.8875
392.76012	39024.0875
396.91468	39558.8875
401.06626	40200.6875
405.21485	40710.2875
409.36047	40498.5875
413.50311	39826.9875
417.64277	39201.7875
421.77947	38971.4875
425.9132	39012.2875
430.04396	39340.7875
434.17176	39580.6875
438.2966	39904.5875
442.41849	40541.1875
446.53742	41598.4875
450.6534	42864.8875
454.76644	43791.6875
458.87653	44180.5875
462.98368	43967.1875
467.08789	43384.9875
471.18916	42630.0875
475.2875	41925.1875
479.38291	41409.3875
483.4754	41007.7875
487.56496	40508.2875
491.6516	39970.4875
495.73531	39635.4875
499.81612	39555.1875
503.89401	39883.9875
507.96899	40132.9875
512.04106	40182.8875
516.11023	40088.4875
520.1765	39864.4875
524.23987	39654.8875
528.30034	39344.1875
532.35792	38892.1875
536.41261	38251.7875
540.46441	37738.1875
544.51333	37651.5875
548.55936	38061.2875
552.60252	38865.0875
556.64279	39678.0875
560.6802	40124.7875
564.71473	40397.2875
568.7464	41049.3875
572.7752	41975.8875
576.80114	42703.5875
580.82422	43449.3875
584.84444	44264.0875
588.86181	44952.8875
592.87633	45765.2875
596.888	46476.4875
600.89682	47049.2875
604.9028	48945.8875
608.90594	53452.6875
612.90624	57481.7875
616.90371	53483.8875
620.89834	44418.6875
624.89015	40741.4875
628.87913	40450.1875
632.86528	40520.1875
636.84862	40105.4875
640.82913	39284.4875
644.80683	38078.7875
648.78172	37223.9875
652.75379	37110.6875
656.72306	37697.9875
660.68952	38380.5875
664.65319	38165.9875
668.61405	37456.4875
672.57211	37132.9875
676.52738	37169.7875
680.47986	37115.5875
684.42955	36861.3875
688.37646	36789.7875
692.32058	37008.6875
696.26192	37413.6875
700.20048	37939.4875
704.13626	38217.9875
708.06928	38072.2875
711.99952	37846.7875
715.927	37790.3875
719.85171	37918.3875
723.77365	37737.0875
727.69284	37244.6875
731.60928	36824.9875
735.52295	36600.2875
739.43388	36622.4875
743.34206	36738.7875
747.24749	36978.7875
751.15017	37384.5875
755.05012	38080.8875
758.94733	39305.1875
762.8418	41606.9875
766.73354	45118.7875
770.62254	48362.7875
774.50882	48995.6875
778.39237	46433.2875
782.27321	42725.2875
786.15132	39680.0875
790.02671	38025.2875
793.89938	37235.2875
797.76935	36939.7875
801.6366	36904.8875
805.50115	36809.6875
809.36299	36545.8875
813.22213	36189.9875
817.07857	35977.6875
820.93231	35865.1875
824.78336	35755.6875
828.63172	35705.1875
832.47738	35776.2875
836.32036	35950.8875
840.16066	36201.3875
843.99827	36356.6875
847.8332	36224.3875
851.66546	35997.1875
855.49504	35961.2875
859.32195	35860.7875
863.1462	35698.2875
866.96777	35472.7875
870.78668	35347.0875
874.60293	35364.9875
878.41652	35347.6875
882.22745	35492.6875
886.03573	35608.3875
889.84136	35552.6875
893.64433	35361.3875
897.44466	35239.0875
901.24235	35154.9875
905.0374	35068.0875
908.8298	35072.6875
912.61957	35149.5875
916.40671	35549.5875
920.19121	36148.0875
923.97308	36786.7875
927.75233	36972.0875
931.52895	36869.7875
935.30295	36230.0875
939.07433	35544.2875
942.84309	34919.3875
946.60924	34742.3875
950.37278	34723.4875
954.13371	34513.8875
957.89203	34304.9875
961.64774	34190.7875
965.40086	34089.1875
969.15137	34000.0875
972.89929	33910.7875
976.64461	33863.1875
980.38733	33939.0875
984.12747	34169.2875
987.86502	34574.6875
991.59999	35163.3875
995.33237	36039.3875
999.06217	37456.1875
1002.78939	38942.5875
1006.51404	39902.7875
1010.23611	40319.3875
1013.95561	40683.6875
1017.67255	40515.0875
1021.38692	39859.5875
1025.09872	39537.5875
1028.80796	40095.2875
1032.51465	41734.0875
1036.21877	43272.3875
1039.92035	43421.0875
1043.61937	42623.9875
1047.31584	41208.5875
1051.00976	39755.4875
1054.70114	38993.4875
1058.38998	38988.6875
1062.07627	39368.4875
1065.76003	39827.4875
1069.44126	40536.7875
1073.11995	41577.6875
1076.79611	42468.4875
1080.46974	42894.2875
1084.14085	42886.7875
1087.80943	42909.0875
1091.47549	42748.4875
1095.13903	42301.8875
1098.80005	41473.6875
1102.45857	40426.3875
1106.11456	39754.2875
1109.76805	39544.6875
1113.41903	39689.2875
1117.06751	39934.6875
1120.71348	40278.8875
1124.35696	40710.4875
1127.99793	41180.7875
1131.63641	41514.1875
1135.2724	41271.3875
1138.90589	41057.3875
1142.5369	40866.2875
1146.16542	40753.2875
1149.79145	40833.6875
1153.415	41193.7875
1157.03607	41848.3875
1160.65467	42976.5875
1164.27079	44814.6875
1167.88443	47308.7875
1171.49561	50615.2875
1175.10432	54856.0875
1178.71056	60161.3875
1182.31434	65135.1875
1185.91565	67615.9875
1189.51451	67078.3875
1193.11091	64388.4875
1196.70485	60911.1875
1200.29634	57746.7875
1203.88538	55530.4875
1207.47197	54074.9875
1211.05612	53011.1875
1214.63782	52270.3875
1218.21708	51619.9875
1221.79391	51393.8875
1225.36829	51223.0875
1228.94024	50729.0875
1232.50976	49712.6875
1236.07685	48894.3875
1239.6415	48439.2875
1243.20374	48371.2875
1246.76355	48707.3875
1250.32093	49457.9875
1253.8759	50768.4875
1257.42845	52370.4875
1260.97859	54031.3875
1264.52631	55658.7875
1268.07163	57252.4875
1271.61453	59217.3875
1275.15503	61281.0875
1278.69312	63398.5875
1282.22882	65246.0875
1285.76211	66592.5875
1289.29301	68093.5875
1292.82151	69955.2875
1296.34761	72672.1875
1299.87133	76625.8875
1303.39266	81595.5875
1306.9116	87438.3875
1310.42815	93027.5875
1313.94233	96460.5875
1317.45412	96604.2875
1320.96354	94490.2875
1324.47058	91947.2875
1327.97525	89592.9875
1331.47754	87832.7875
1334.97747	86988.8875
1338.47502	86602.5875
1341.97022	86192.7875
1345.46305	85056.2875
1348.95352	83709.1875
1352.44163	83144.9875
1355.92738	84797.7875
1359.41078	89057.5875
1362.89183	93018.2875
1366.37053	91461.8875
1369.84688	83908.1875
1373.32088	74866.2875
1376.79254	68562.5875
1380.26186	65790.2875
1383.72883	65096.8875
1387.19347	64723.3875
1390.65578	63743.2875
1394.11575	63201.4875
1397.57339	63569.2875
1401.0287	64770.5875
1404.48168	66045.9875
1407.93234	66601.4875
1411.38068	66073.5875
1414.82669	64429.4875
1418.27039	62058.3875
1421.71177	59446.6875
1425.15083	57367.0875
1428.58758	56095.3875
1432.02203	56244.1875
1435.45416	57459.1875
1438.88399	59075.2875
1442.31151	60589.3875
1445.73673	61808.7875
1449.15965	62602.1875
1452.58027	63036.5875
1455.9986	63024.3875
1459.41463	63456.3875
1462.82837	64527.9875
1466.23982	66200.1875
1469.64898	67710.5875
1473.05586	68618.7875
1476.46045	68906.8875
1479.86276	68446.6875
1483.26279	67759.2875
1486.66054	67105.4875
1490.05602	67029.1875
1493.44922	67188.8875
1496.84016	67675.1875
1500.22882	68686.5875
1503.61521	70768.9875
1506.99934	73447.1875
1510.38121	75875.1875
1513.76081	76708.8875
1517.13816	75079.4875
1520.51324	71935.8875
1523.88607	68985.3875
1527.25665	67067.3875
1530.62498	66197.0875
1533.99105	65753.9875
1537.35488	65215.3875
1540.71647	64557.2875
1544.07581	63637.9875
1547.4329	62503.0875
1550.78776	61505.2875
1554.14038	60721.1875
1557.49077	60267.9875
1560.83892	59994.4875
1564.18484	60025.6875
1567.52853	60142.2875
1570.86999	60900.7875
1574.20922	62256.0875
1577.54624	63645.5875
1580.88103	64319.3875
1584.2136	64915.6875
1587.54395	66209.2875
1590.87208	68677.5875
1594.19801	72592.4875
1597.52172	76840.5875
1600.84321	78134.7875
1604.16251	74611.3875
1607.47959	68458.5875
1610.79447	62206.9875
1614.10715	56553.0875
1617.41763	52034.3875
1620.7259	48994.1875
1624.03199	47433.9875
1627.33587	47543.6875
1630.63757	49044.1875
1633.93707	52247.8875
1637.23439	57382.9875
1640.52951	64297.9875
1643.82246	71746.4875
1647.11321	77206.6875
1650.40179	77814.6875
1653.68819	72289.9875
1656.97241	62942.6875
1660.25446	53718.4875
1663.53433	46928.1875
1666.81203	42439.5875
1670.08756	39731.2875
1673.36092	37977.1875
1676.63211	36740.9875
1679.90115	35898.2875
1683.16801	35237.1875
1686.43272	34808.9875
1689.69527	34482.9875
1692.95567	34227.4875
1696.2139	34082.9875
1699.46999	33968.6875
1702.72392	33872.5875
1705.97571	33746.4875
1709.22535	33711.0875
1712.47284	33631.0875
1715.71819	33610.4875
1718.96139	33495.2875
1722.20246	33349.6875
1725.44139	33195.5875
1728.67818	33035.9875
1731.91284	32798.2875
1735.14537	32584.1875
1738.37576	32457.8875
1741.60403	32326.8875
1744.83017	32260.0875
1748.05418	32140.4875
1751.27607	32056.9875
1754.49584	31928.5875
1757.71349	31958.8875
1760.92903	31928.6875
1764.14244	31907.3875
1767.35375	31886.0875
1770.56294	31841.5875
1773.77002	31815.2875
1776.97499	31815.9875
1780.17785	31745.4875
1783.37861	31689.7875
1786.57727	31599.5875
1789.77382	31520.4875
1792.96828	31502.3875
1796.16064	31453.2875
1799.3509	31410.0875
1802.53907	31333.6875
1805.72514	31239.7875
1808.90913	31185.9875
1812.09102	31112.6875
1815.27083	31069.1875
1818.44856	31017.3875
1821.6242	30991.4875
1824.79776	30953.7875
1827.96924	30900.1875
1831.13864	30891.9875
1834.30597	30933.0875
1837.47122	30954.5875
1840.6344	30929.6875
1843.7955	30947.3875
1846.95454	30941.3875
1850.11151	30945.4875
1853.26642	30931.2875
1856.41926	30952.7875
1859.57004	30941.6875
1862.71876	30876.0875
1865.86542	30864.0875
1869.01003	30889.5875
1872.15258	30920.6875
1875.29308	30880.6875
1878.43152	30857.8875
1881.56792	30853.7875
1884.70227	30822.8875
1887.83457	30852.1875
1890.96482	30865.2875
1894.09304	30865.7875
1897.21921	30853.6875
1900.34335	30820.9875
1903.46544	30820.1875
1906.58551	30785.6875
1909.70353	30780.1875
1912.81953	30723.0875
1915.93349	30665.7875
1919.04543	30616.9875
1922.15534	30594.6875
1925.26322	30491.5875
1928.36908	30435.1875
1931.47292	30333.8875
1934.57473	30266.2875
1937.67453	30193.9875
1940.77232	30085.0875
1943.86808	29976.7875
1946.96184	29882.5875
1950.05358	29789.1875
1953.14331	29679.4875
1956.23103	29616.2875
1959.31675	29531.7875
1962.40046	29453.4875
1965.48217	29327.0875
1968.56188	29229.2875
1971.63959	29238.5875
1974.7153	29109.5875
1977.78901	28986.4875
1980.86073	28959.9875
1983.93046	28871.2875
1986.99819	28790.7875
1990.06394	28736.9875
1993.1277	28682.9875
1996.18947	28539.7875
1999.24925	28437.5875
2002.30706	28321.5875
2005.36288	28283.6875
2008.41672	28213.9875
2011.46859	28175.6875
2014.51848	28109.4875
2017.56639	28064.6875
2020.61233	28025.5875
2023.6563	27959.6875
2026.6983	27933.1875
2029.73833	27881.8875
2032.7764	27816.9875
2035.8125	27807.6875
2038.84664	27736.9875
2041.87881	27714.6875
2044.90903	27747.4875
2047.93729	27645.0875
2050.96359	27630.4875
2053.98794	27613.7875
2057.01034	27616.6875
2060.03078	27576.7875
2063.04927	27540.1875
2066.06582	27562.4875
2069.08042	27509.9875
2072.09307	27499.9875
2075.10378	27443.8875
2078.11255	27421.8875
2081.11938	27446.0875
2084.12426	27408.6875
2087.12722	27388.7875
2090.12824	27415.9875
2093.12732	27394.4875
2096.12447	27397.7875
2099.11969	27357.3875
2102.11299	27327.0875
2105.10435	27394.3875
2108.09379	27425.0875
2111.08131	27447.7875
2114.0669	27439.2875
2117.05057	27448.4875
2120.03233	27500.6875
2123.01216	27522.3875
2125.99008	27524.4875
2128.96609	27517.8875
2131.94018	27526.4875
2134.91236	27577.8875
2137.88263	27587.6875
2140.851	27598.1875
2143.81746	27635.4875
2146.78201	27653.8875
2149.74466	27700.9875
2152.7054	27686.9875
2155.66425	27663.8875
2158.6212	27670.7875
2161.57625	27656.2875
2164.52941	27664.5875
2167.48067	27689.2875
2170.43004	27672.5875
2173.37752	27664.0875
2176.32311	27703.9875
2179.26681	27648.6875
2182.20863	27639.4875
2185.14856	27677.0875
2188.08661	27698.8875
2191.02278	27690.3875
2193.95707	27712.3875
2196.88948	27672.4875
2199.82001	27704.7875
2202.74867	27691.5875
2205.67545	27677.7875
2208.60037	27656.3875
2211.52341	27644.2875
2214.44458	27651.4875
2217.36388	27624.1875
2220.28132	27622.0875
2223.1969	27590.8875
2226.11061	27571.5875
2229.02246	27462.2875
2231.93245	27436.5875
2234.84058	27329.4875
2237.74686	27289.3875
2240.65128	27282.7875
2243.55385	27221.6875
2246.45456	27192.6875
2249.35343	27151.3875
2252.25044	27141.2875
2255.14561	27068.0875
2258.03893	27054.5875
2260.93041	27032.2875
2263.82004	26977.0875
2266.70783	26924.8875
2269.59378	26845.5875
2272.4779	26803.3875
2275.36017	26704.4875
2278.24061	26656.6875
2281.11922	26590.1875
2283.996	26546.3875
2286.87094	26573.1875
2289.74405	26547.6875
2292.61534	26521.4875
2295.4848	26538.2875
2298.35243	26516.9875
2301.21824	26514.0875
2304.08223	26570.1875
2306.94439	26580.5875
2309.80474	26596.0875
2312.66327	26660.3875
2315.51999	26685.6875
2318.37489	26655.8875
2321.22797	26639.2875
2324.07925	26647.4875
2326.92871	26590.0875
2329.77637	26585.5875
2332.62222	26611.7875
2335.46626	26603.2875
2338.3085	26615.4875
2341.14893	26628.1875
2343.98756	26654.3875
2346.8244	26719.5875
2349.65943	26693.5875
2352.49267	26664.0875
2355.32411	26695.4875
2358.15376	26670.7875
2360.98161	26597.5875
2363.80768	26629.1875
2366.63195	26555.7875
2369.45444	26478.7875
2372.27514	26453.7875
2375.09405	26344.4875
2377.91118	26335.7875
2380.72652	26298.6875
2383.54009	26243.2875
2386.35187	26188.9875
2389.16188	26160.0875
2391.97011	26121.5875
2394.77657	26141.7875
2397.58125	26108.1875
2400.38416	26032.6875
2403.18529	25996.0875
2405.98466	25966.8875
2408.78226	25890.8875
2411.57809	25840.8875
2414.37216	25807.1875
2417.16446	25799.8875
2419.955	25749.6875
2422.74378	25717.6875
2425.5308	25720.8875
2428.31606	25655.3875
2431.09956	25648.2875
2433.88131	25623.4875
2436.6613	25624.6875
2439.43954	25623.3875
2442.21603	25571.1875
2444.99077	25585.8875
2447.76377	25618.2875
2450.53501	25636.0875
2453.30451	25604.5875
2456.07226	25612.1875
2458.83827	25574.8875
2461.60254	25635.9875
2464.36507	25589.2875
2467.12586	25599.2875
2469.88492	25610.7875
2472.64224	25635.8875
2475.39782	25647.1875
2478.15167	25683.3875
2480.90379	25705.0875
2483.65417	25725.0875
2486.40283	25698.9875
2489.14976	25742.9875
2491.89497	25786.5875
2494.63845	25809.0875
2497.3802	25820.6875
2500.12024	25817.2875
2502.85855	25819.8875
2505.59514	25800.5875
2508.33002	25769.2875
2511.06318	25758.3875
2513.79462	25746.5875
2516.52435	25698.3875
2519.25237	25765.2875
2521.97867	25669.0875
2524.70327	25681.3875
2527.42616	25658.4875
2530.14734	25649.5875
2532.86681	25625.9875
2535.58458	25619.3875
2538.30065	25559.4875
2541.01501	25624.9875
2543.72768	25623.9875
2546.43864	25615.0875
2549.14791	25544.6875
2551.85548	25553.4875
2554.56136	25485.1875
2557.26554	25508.5875
2559.96803	25482.7875
2562.66883	25460.5875
2565.36794	25486.0875
2568.06536	25488.8875
2570.7611	25460.0875
2573.45514	25421.6875
2576.14751	25443.3875
2578.83819	25453.7875
2581.52719	25496.8875
2584.21451	25452.2875
2586.90015	25460.8875
2589.58411	25423.7875
2592.2664	25422.6875
2594.94701	25446.0875
2597.62594	25420.5875
2600.30321	25399.7875
2602.9788	25433.4875
2605.65273	25373.9875
2608.32498	25386.8875
2610.99557	25375.7875
2613.66449	25369.0875
2616.33175	25342.3875
2618.99734	25371.8875
2621.66128	25390.6875
2624.32355	25446.3875
2626.98416	25378.8875
2629.64311	25418.6875
2632.30041	25441.3875
2634.95605	25404.7875
2637.61004	25414.6875
2640.26238	25383.2875
2642.91306	25332.4875
2645.56209	25326.5875
2648.20948	25320.2875
2650.85521	25296.6875
2653.4993	25276.6875
2656.14175	25250.5875
2658.78255	25319.6875
2661.42171	25297.6875
2664.05923	25346.6875
2666.6951	25340.1875
2669.32934	25342.8875
2671.96194	25316.2875
2674.59291	25333.6875
2677.22224	25352.2875
2679.84993	25329.5875
2682.476	25308.8875
2685.10043	25338.3875
2687.72324	25242.3875
2690.34441	25226.3875
2692.96396	25204.3875
2695.58188	25239.0875
2698.19818	25200.5875
2700.81285	25200.8875
2703.4259	25175.6875
2706.03733	25256.2875
2708.64714	25261.0875
2711.25533	25280.0875
2713.86191	25306.0875
2716.46687	25312.0875
2719.07021	25278.5875
2721.67194	25337.4875
2724.27206	25298.9875
2726.87057	25321.3875
2729.46747	25357.1875
2732.06276	25387.2875
2734.65644	25332.4875
2737.24852	25368.8875
2739.83899	25330.5875
2742.42786	25337.7875
2745.01513	25300.4875
2747.60079	25312.0875
2750.18486	25289.3875
2752.76733	25294.9875
2755.3482	25283.7875
2757.92747	25313.8875
2760.50515	25299.6875
2763.08123	25266.6875
2765.65573	25263.6875
2768.22863	25227.0875
2770.79994	25216.1875
2773.36967	25193.8875
2775.9378	25193.0875
2778.50435	25185.2875
2781.06932	25195.6875
2783.6327	25204.4875
2786.1945	25205.4875
2788.75471	25149.8875
2791.31335	25100.0875
2793.87041	25105.3875
2796.42589	25033.1875
2798.97979	25008.2875
2801.53212	24989.4875
2804.08288	24995.7875
2806.63206	24880.4875
2809.17967	24845.5875
2811.72571	24791.6875
2814.27018	24790.9875
2816.81308	24756.6875
2819.35442	24725.4875
2821.89419	24724.1875
2824.43239	24693.1875
2826.96904	24691.6875
2829.50412	24677.4875
2832.03763	24646.8875
2834.56959	24648.1875
2837.1	24597.1875
2839.62884	24572.5875
2842.15613	24524.8875
2844.68186	24536.0875
2847.20604	24501.5875
2849.72867	24473.8875
2852.24974	24477.5875
2854.76927	24471.6875
2857.28724	24433.7875
2859.80367	24390.4875
2862.31855	24397.9875
2864.83189	24337.8875
2867.34368	24349.4875
2869.85393	24374.6875
2872.36264	24377.3875
2874.8698	24386.5875
2877.37543	24367.2875
2879.87952	24424.2875
2882.38207	24368.9875
2884.88308	24348.5875
2887.38256	24422.0875
2889.88051	24400.9875
2892.37692	24397.0875
2894.8718	24416.7875
2897.36515	24446.1875
2899.85698	24451.4875
2902.34727	24534.3875
2904.83604	24529.9875
2907.32328	24584.4875
2909.809	24600.2875
2912.29319	24676.0875
2914.77587	24660.4875
2917.25702	24635.9875
2919.73665	24609.9875
2922.21476	24663.3875
2924.69136	24594.7875
2927.16644	24586.0875
2929.64	24535.3875
2932.11205	24487.3875
2934.58258	24405.4875
2937.05161	24472.3875
2939.51912	24463.5875
2941.98513	24427.3875
2944.44962	24340.1875
2946.91261	24292.9875
2949.37409	24383.7875
2951.83407	24360.0875
2954.29254	24306.5875
2956.74951	24247.3875
2959.20498	24274.1875
2961.65895	24223.3875
2964.11142	24229.5875
2966.56239	24130.4875
2969.01186	24133.2875
2971.45984	24033.4875
2973.90632	24028.3875
2976.35131	23988.8875
2978.7948	23922.5875
2981.23681	23907.7875
2983.67732	23864.9875
2986.11635	23806.5875
2988.55388	23693.7875
2990.98993	23664.4875
2993.4245	23629.6875
2995.85758	23571.2875
2998.28917	23522.3875
3000.71928	23433.5875
3003.14791	23448.4875
3005.57506	23467.4875
3008.00073	23356.6875
3010.42493	23357.6875
3012.84764	23343.4875
3015.26888	23331.0875
3017.68865	23259.4875
3020.10694	23226.1875
3022.52376	23193.1875
3024.9391	23192.6875
3027.35298	23206.8875
3029.76539	23158.9875
3032.17632	23093.4875
3034.5858	23044.4875
3036.9938	23050.0875
3039.40034	23036.9875
3041.80542	23000.2875
3044.20903	22982.4875
3046.61118	22972.2875
3049.01187	22887.1875
3051.4111	22842.1875
3053.80888	22781.5875
3056.20519	22765.2875
3058.60005	22735.6875
3060.99345	22714.8875
3063.3854	22645.2875
3065.7759	22546.8875
3068.16494	22564.1875
3070.55254	22487.8875
3072.93868	22489.5875
3075.32338	22397.7875
3077.70662	22381.2875
3080.08842	22286.0875
3082.46878	22348.2875
3084.84769	22265.5875
3087.22515	22206.2875
3089.60118	22213.6875
3091.97576	22200.6875
3094.3489	22175.0875
3096.72061	22150.9875
3099.09087	22164.1875
3101.4597	22203.1875
3103.82709	22124.6875
3106.19305	22068.5875
3108.55757	22045.4875
3110.92066	21973.9875
3113.28232	21918.0875
3115.64255	21922.8875
3118.00134	21908.6875
3120.35871	21882.8875
3122.71466	21863.7875
3125.06917	21800.4875
3127.42226	21763.6875
3129.77393	21782.5875
3132.12417	21721.2875
3134.47299	21716.6875
3136.82039	21724.0875
3139.16636	21742.6875
3141.51092	21703.9875
3143.85406	21699.0875
3146.19579	21708.4875
3148.53609	21670.2875
3150.87499	21729.1875
3153.21246	21692.9875
3155.54853	21729.6875
3157.88318	21671.9875
3160.21642	21697.8875
3162.54826	21662.7875
3164.87868	21646.2875
3167.2077	21600.9875
3169.5353	21628.3875
3171.86151	21611.1875
3174.18631	21567.1875
3176.5097	21584.0875
3178.83169	21479.4875
3181.15228	21514.3875
3183.47147	21486.7875
3185.78926	21488.4875
3188.10565	21472.5875
3190.42065	21481.2875
3192.73424	21454.1875
3195.04645	21473.5875
3197.35725	21461.1875
3199.66667	21456.0875
3201.97469	21476.0875
3204.28132	21428.5875
3206.58656	21492.5875
3208.8904	21448.9875
3211.19287	21457.7875
3213.49394	21427.5875
3215.79363	21459.4875
3218.09193	21450.8875
3220.38884	21479.5875
3222.68438	21507.5875
3224.97853	21438.4875
3227.2713	21459.4875
3229.56269	21434.5875
3231.8527	21407.9875
3234.14133	21361.1875
3236.42858	21341.3875
3238.71446	21331.0875
3240.99896	21272.0875
3243.28209	21275.6875
3245.56384	21249.1875
3247.84423	21266.8875
3250.12324	21240.7875
3252.40088	21180.2875
3254.67715	21159.6875
3256.95205	21135.8875
3259.22558	21107.7875
3261.49775	21092.6875
3263.76855	21060.3875
3266.03799	21023.5875
3268.30606	21020.4875
3270.57277	20951.9875
3272.83812	20956.1875
3275.10211	20922.0875
3277.36474	20895.6875
3279.62601	20932.6875
3281.88593	20911.7875
3284.14448	20945.2875
3286.40168	20873.2875
3288.65753	20867.3875
3290.91202	20854.7875
3293.16516	20778.1875
3295.41695	20771.8875
3297.66738	20651.0875
3299.91647	20592.5875
3302.16421	20412.3875
3304.4106	20366.0875
3306.65564	20293.7875
3308.89933	20147.5875
3311.14169	20000.8875
3313.38269	19856.9875
3315.62236	19761.3875
3317.86068	19587.3875
3320.09766	19412.6875
3322.3333	19230.9875
3324.5676	19248.9875
3326.80056	18944.0875
3329.03219	18859.9875
3331.26248	4.5875
3333.49143	0.2875
3335.71905	-0.3125
