Data from AgNP_FTO_APTES_CRN_20uM_R6G_10uM_NaF_0.1M_Addition_RamanShift__3__17-03-58-006.txt Node

Date: Wed Dec 15 17:03:58 GMT 2021
User: TCL
Spectrometer: QEP01345
Trigger mode: 4
Integration Time (sec): 7.000000E0
Scans to average: 10
Electric dark correction enabled: true
Nonlinearity correction enabled: false
Boxcar width: 0
XAxis mode: Raman Shifts
Number of Pixels in Spectrum: 1044
>>>>>Begin Spectral Data<<<<<
46.04893	-0.0625
50.45542	-1.7625
54.85868	-1.2625
59.25871	-0.3625
63.6555	67.5375
68.04907	70.2375
72.43941	75.4375
76.82654	82.6375
81.21044	83.0375
85.59113	85.6375
89.96862	92.4375
94.34289	88.6375
98.71396	96.4375
103.08183	100.8375
107.4465	104.6375
111.80798	103.4375
116.16626	105.2375
120.52136	111.5375
124.87327	115.0375
129.222	117.9375
133.56755	124.5375
137.90993	129.6375
142.24913	141.5375
146.58517	157.7375
150.91804	183.6375
155.24774	213.2375
159.57429	267.1375
163.89768	332.7375
168.21792	430.5375
172.53501	587.2375
176.84895	818.6375
181.15975	1146.2375
185.46741	1594.5375
189.77193	2193.4375
194.07331	2942.1375
198.37157	3789.8375
202.6667	4683.7375
206.9587	5564.5375
211.24758	6438.0375
215.53334	7313.6375
219.81599	8257.4375
224.09553	9275.0375
228.37195	10376.9375
232.64527	11634.5375
236.91549	12958.7375
241.18261	14258.8375
245.44663	15521.1375
249.70755	16617.1375
253.96539	17553.6375
258.22014	18362.9375
262.4718	18992.9375
266.72039	19472.9375
270.96589	19701.6375
275.20832	19708.0375
279.44768	19522.9375
283.68397	19290.9375
287.91719	19130.0375
292.14735	19011.9375
296.37445	18949.5375
300.59849	19019.5375
304.81948	19138.7375
309.03742	19201.7375
313.25231	19153.1375
317.46415	18925.7375
321.67296	18555.1375
325.87872	18213.2375
330.08145	18000.5375
334.28114	17989.8375
338.47781	18115.4375
342.67145	18379.4375
346.86207	18668.9375
351.04966	18996.5375
355.23424	19407.2375
359.4158	19708.5375
363.59435	19876.9375
367.76989	20022.3375
371.94243	20103.5375
376.11196	20137.3375
380.27849	20244.2375
384.44203	20296.6375
388.60257	20451.2375
392.76012	20649.4375
396.91468	20887.4375
401.06626	21203.7375
405.21485	21415.5375
409.36047	21408.5375
413.50311	21157.9375
417.64277	21025.3375
421.77947	20992.7375
425.9132	21146.0375
430.04396	21244.9375
434.17176	21371.2375
438.2966	21436.5375
442.41849	21774.0375
446.53742	22367.9375
450.6534	23009.8375
454.76644	23414.7375
458.87653	23479.6375
462.98368	23251.9375
467.08789	22920.1375
471.18916	22563.9375
475.2875	22085.2375
479.38291	21790.8375
483.4754	21586.4375
487.56496	21354.5375
491.6516	21168.1375
495.73531	21016.2375
499.81612	21016.7375
503.89401	21189.8375
507.96899	21346.3375
512.04106	21317.2375
516.11023	21248.1375
520.1765	21154.7375
524.23987	21090.1375
528.30034	21034.0375
532.35792	20885.0375
536.41261	20570.3375
540.46441	20321.4375
544.51333	20217.4375
548.55936	20406.5375
552.60252	20778.3375
556.64279	21253.2375
560.6802	21575.0375
564.71473	21665.1375
568.7464	21804.2375
572.7752	22197.4375
576.80114	22646.2375
580.82422	23296.5375
584.84444	24207.4375
588.86181	25245.7375
592.87633	26135.8375
596.888	26128.1375
600.89682	25172.4375
604.9028	24846.4375
608.90594	26196.0375
612.90624	27873.9375
616.90371	26532.9375
620.89834	22851.1375
624.89015	21177.9375
628.87913	20915.6375
632.86528	20894.8375
636.84862	20801.6375
640.82913	20519.4375
644.80683	20088.6375
648.78172	19853.6375
652.75379	19858.0375
656.72306	20031.0375
660.68952	20269.7375
664.65319	20217.9375
668.61405	19905.8375
672.57211	19870.1375
676.52738	19976.6375
680.47986	19902.0375
684.42955	19799.1375
688.37646	19717.6375
692.32058	19827.5375
696.26192	20133.9375
700.20048	20432.3375
704.13626	20608.3375
708.06928	20581.9375
711.99952	20457.9375
715.927	20451.4375
719.85171	20549.2375
723.77365	20452.9375
727.69284	20180.5375
731.60928	19896.4375
735.52295	19841.1375
739.43388	19867.5375
743.34206	19886.5375
747.24749	20014.1375
751.15017	20180.4375
755.05012	20455.6375
758.94733	20961.7375
762.8418	21865.3375
766.73354	23220.4375
770.62254	24550.9375
774.50882	24774.3375
778.39237	23849.7375
782.27321	22458.5375
786.15132	21230.3375
790.02671	20478.6375
793.89938	20112.5375
797.76935	20005.4375
801.6366	19959.8375
805.50115	19930.2375
809.36299	19806.7375
813.22213	19622.2375
817.07857	19527.4375
820.93231	19443.9375
824.78336	19399.5375
828.63172	19424.7375
832.47738	19451.3375
836.32036	19462.7375
840.16066	19547.5375
843.99827	19624.7375
847.8332	19521.3375
851.66546	19464.5375
855.49504	19434.3375
859.32195	19422.8375
863.1462	19390.8375
866.96777	19307.5375
870.78668	19302.3375
874.60293	19301.6375
878.41652	19339.3375
882.22745	19412.5375
886.03573	19461.3375
889.84136	19460.9375
893.64433	19372.3375
897.44466	19281.2375
901.24235	19225.9375
905.0374	19173.6375
908.8298	19130.2375
912.61957	19169.3375
916.40671	19291.8375
920.19121	19503.8375
923.97308	19687.1375
927.75233	19839.6375
931.52895	19765.6375
935.30295	19504.1375
939.07433	19207.8375
942.84309	18988.2375
946.60924	18910.3375
950.37278	18859.8375
954.13371	18806.6375
957.89203	18762.9375
961.64774	18710.3375
965.40086	18716.8375
969.15137	18705.6375
972.89929	18647.3375
976.64461	18599.2375
980.38733	18639.1375
984.12747	18731.0375
987.86502	18897.0375
991.59999	19021.8375
995.33237	19274.1375
999.06217	19738.6375
1002.78939	20249.6375
1006.51404	20624.4375
1010.23611	20970.9375
1013.95561	21195.7375
1017.67255	21215.0375
1021.38692	20946.3375
1025.09872	20636.3375
1028.80796	20594.2375
1032.51465	20912.5375
1036.21877	21382.6375
1039.92035	21518.7375
1043.61937	21366.0375
1047.31584	21078.2375
1051.00976	20723.8375
1054.70114	20572.2375
1058.38998	20651.2375
1062.07627	20873.1375
1065.76003	21177.0375
1069.44126	21605.0375
1073.11995	22113.2375
1076.79611	22500.7375
1080.46974	22552.7375
1084.14085	22411.6375
1087.80943	22315.8375
1091.47549	22177.4375
1095.13903	21970.3375
1098.80005	21664.4375
1102.45857	21201.9375
1106.11456	20859.2375
1109.76805	20735.0375
1113.41903	20723.7375
1117.06751	20853.9375
1120.71348	21014.3375
1124.35696	21158.5375
1127.99793	21392.6375
1131.63641	21500.4375
1135.2724	21393.0375
1138.90589	21312.2375
1142.5369	21298.6375
1146.16542	21314.4375
1149.79145	21351.5375
1153.415	21457.8375
1157.03607	21679.8375
1160.65467	22147.1375
1164.27079	23038.7375
1167.88443	24159.3375
1171.49561	25482.5375
1175.10432	27149.1375
1178.71056	29286.6375
1182.31434	31298.2375
1185.91565	32245.5375
1189.51451	31894.9375
1193.11091	30832.6375
1196.70485	29589.1375
1200.29634	28415.8375
1203.88538	27641.3375
1207.47197	27123.7375
1211.05612	26705.5375
1214.63782	26309.9375
1218.21708	25774.6375
1221.79391	25381.8375
1225.36829	25118.5375
1228.94024	24894.9375
1232.50976	24529.4375
1236.07685	24131.3375
1239.6415	23886.0375
1243.20374	23814.3375
1246.76355	24009.2375
1250.32093	24364.4375
1253.8759	24868.4375
1257.42845	25514.5375
1260.97859	26190.9375
1264.52631	26930.8375
1268.07163	27677.1375
1271.61453	28484.5375
1275.15503	29280.9375
1278.69312	29988.3375
1282.22882	30620.6375
1285.76211	31331.5375
1289.29301	32228.4375
1292.82151	33376.2375
1296.34761	34841.8375
1299.87133	36764.4375
1303.39266	38975.3375
1306.9116	41258.4375
1310.42815	43340.3375
1313.94233	44386.7375
1317.45412	44067.9375
1320.96354	42885.5375
1324.47058	41676.1375
1327.97525	40703.2375
1331.47754	40068.1375
1334.97747	39606.6375
1338.47502	39268.2375
1341.97022	38869.2375
1345.46305	38287.1375
1348.95352	38051.9375
1352.44163	38461.4375
1355.92738	39768.8375
1359.41078	41785.4375
1362.89183	43374.1375
1366.37053	42693.5375
1369.84688	39431.3375
1373.32088	35257.3375
1376.79254	32378.3375
1380.26186	31238.1375
1383.72883	31035.0375
1387.19347	30806.4375
1390.65578	30412.5375
1394.11575	30162.8375
1397.57339	30335.6375
1401.0287	30745.3375
1404.48168	31089.5375
1407.93234	31180.0375
1411.38068	30900.9375
1414.82669	30221.3375
1418.27039	29272.3375
1421.71177	28257.8375
1425.15083	27386.5375
1428.58758	26978.7375
1432.02203	27242.7375
1435.45416	27951.3375
1438.88399	28728.3375
1442.31151	29278.2375
1445.73673	29517.4375
1449.15965	29658.5375
1452.58027	29547.8375
1455.9986	29380.8375
1459.41463	29490.0375
1462.82837	29922.7375
1466.23982	30607.5375
1469.64898	31191.7375
1473.05586	31638.4375
1476.46045	31786.9375
1479.86276	31687.9375
1483.26279	31502.6375
1486.66054	31396.0375
1490.05602	31530.4375
1493.44922	31885.9375
1496.84016	32190.7375
1500.22882	32640.8375
1503.61521	33502.9375
1506.99934	34465.0375
1510.38121	35234.3375
1513.76081	35300.7375
1517.13816	34442.2375
1520.51324	33091.6375
1523.88607	31946.2375
1527.25665	31340.5375
1530.62498	31232.8375
1533.99105	31195.5375
1537.35488	31078.8375
1540.71647	30572.8375
1544.07581	30001.3375
1547.4329	29375.5375
1550.78776	28770.1375
1554.14038	28257.0375
1557.49077	28000.6375
1560.83892	27867.1375
1564.18484	27868.9375
1567.52853	28130.8375
1570.86999	28602.1375
1574.20922	29249.5375
1577.54624	29999.9375
1580.88103	30383.2375
1584.2136	30601.2375
1587.54395	31015.6375
1590.87208	31920.9375
1594.19801	33569.2375
1597.52172	35426.1375
1600.84321	36186.5375
1604.16251	34935.3375
1607.47959	32312.4375
1610.79447	29461.4375
1614.10715	26847.3375
1617.41763	24831.1375
1620.7259	23644.9375
1624.03199	22999.2375
1627.33587	23044.8375
1630.63757	23662.7375
1633.93707	24959.6375
1637.23439	27134.9375
1640.52951	30383.3375
1643.82246	34285.3375
1647.11321	37379.6375
1650.40179	37902.5375
1653.68819	35197.3375
1656.97241	30720.3375
1660.25446	26522.3375
1663.53433	23482.1375
1666.81203	21625.4375
1670.08756	20456.9375
1673.36092	19655.9375
1676.63211	19191.6375
1679.90115	18830.3375
1683.16801	18567.3375
1686.43272	18386.4375
1689.69527	18253.2375
1692.95567	18160.6375
1696.2139	18139.6375
1699.46999	18039.2375
1702.72392	18012.9375
1705.97571	17970.9375
1709.22535	17947.7375
1712.47284	17877.0375
1715.71819	17885.0375
1718.96139	17848.6375
1722.20246	17846.2375
1725.44139	17717.9375
1728.67818	17663.6375
1731.91284	17568.8375
1735.14537	17453.8375
1738.37576	17411.8375
1741.60403	17363.1375
1744.83017	17337.7375
1748.05418	17266.9375
1751.27607	17233.8375
1754.49584	17212.8375
1757.71349	17218.2375
1760.92903	17208.0375
1764.14244	17220.5375
1767.35375	17188.3375
1770.56294	17145.9375
1773.77002	17153.7375
1776.97499	17151.3375
1780.17785	17092.9375
1783.37861	17078.4375
1786.57727	17053.2375
1789.77382	17012.7375
1792.96828	16979.6375
1796.16064	16954.3375
1799.3509	16906.7375
1802.53907	16882.1375
1805.72514	16836.9375
1808.90913	16793.4375
1812.09102	16778.2375
1815.27083	16751.0375
1818.44856	16752.8375
1821.6242	16730.2375
1824.79776	16718.1375
1827.96924	16724.9375
1831.13864	16694.7375
1834.30597	16739.6375
1837.47122	16734.2375
1840.6344	16672.2375
1843.7955	16705.7375
1846.95454	16697.3375
1850.11151	16690.0375
1853.26642	16667.6375
1856.41926	16649.3375
1859.57004	16674.3375
1862.71876	16610.5375
1865.86542	16634.7375
1869.01003	16609.5375
1872.15258	16610.1375
1875.29308	16590.3375
1878.43152	16555.4375
1881.56792	16527.1375
1884.70227	16545.7375
1887.83457	16480.8375
1890.96482	16494.2375
1894.09304	16503.6375
1897.21921	16492.6375
1900.34335	16449.7375
1903.46544	16445.3375
1906.58551	16436.4375
1909.70353	16419.1375
1912.81953	16367.4375
1915.93349	16363.1375
1919.04543	16310.3375
1922.15534	16306.2375
1925.26322	16264.5375
1928.36908	16256.6375
1931.47292	16216.7375
1934.57473	16191.1375
1937.67453	16139.6375
1940.77232	16097.1375
1943.86808	16065.0375
1946.96184	16051.7375
1950.05358	16021.4375
1953.14331	15970.6375
1956.23103	15921.2375
1959.31675	15911.1375
1962.40046	15863.0375
1965.48217	15814.7375
1968.56188	15770.5375
1971.63959	15750.4375
1974.7153	15684.6375
1977.78901	15641.2375
1980.86073	15596.4375
1983.93046	15518.3375
1986.99819	15520.5375
1990.06394	15493.4375
1993.1277	15451.3375
1996.18947	15369.6375
1999.24925	15350.8375
2002.30706	15307.3375
2005.36288	15263.5375
2008.41672	15243.5375
2011.46859	15178.0375
2014.51848	15148.5375
2017.56639	15133.6375
2020.61233	15105.9375
2023.6563	15066.2375
2026.6983	15031.7375
2029.73833	15020.0375
2032.7764	15018.2375
2035.8125	14979.7375
2038.84664	14943.6375
2041.87881	14910.9375
2044.90903	14916.8375
2047.93729	14858.3375
2050.96359	14869.2375
2053.98794	14863.9375
2057.01034	14826.1375
2060.03078	14812.1375
2063.04927	14810.5375
2066.06582	14810.7375
2069.08042	14815.5375
2072.09307	14780.8375
2075.10378	14781.3375
2078.11255	14768.8375
2081.11938	14773.8375
2084.12426	14745.7375
2087.12722	14759.7375
2090.12824	14765.2375
2093.12732	14778.0375
2096.12447	14784.4375
2099.11969	14770.5375
2102.11299	14778.8375
2105.10435	14814.4375
2108.09379	14817.0375
2111.08131	14837.2375
2114.0669	14830.4375
2117.05057	14839.2375
2120.03233	14852.1375
2123.01216	14865.4375
2125.99008	14876.1375
2128.96609	14886.7375
2131.94018	14911.5375
2134.91236	14913.8375
2137.88263	14959.7375
2140.851	14949.4375
2143.81746	14979.2375
2146.78201	14974.4375
2149.74466	14971.7375
2152.7054	14987.0375
2155.66425	14998.8375
2158.6212	14997.6375
2161.57625	14993.1375
2164.52941	14971.1375
2167.48067	14985.6375
2170.43004	14986.0375
2173.37752	14988.4375
2176.32311	14985.5375
2179.26681	14984.2375
2182.20863	14935.5375
2185.14856	14977.9375
2188.08661	14983.6375
2191.02278	14988.7375
2193.95707	15004.9375
2196.88948	14965.6375
2199.82001	14938.9375
2202.74867	14951.3375
2205.67545	14941.9375
2208.60037	14962.0375
2211.52341	14944.4375
2214.44458	14909.3375
2217.36388	14910.0375
2220.28132	14881.8375
2223.1969	14847.5375
2226.11061	14820.8375
2229.02246	14840.9375
2231.93245	14801.6375
2234.84058	14792.9375
2237.74686	14749.7375
2240.65128	14771.4375
2243.55385	14724.3375
2246.45456	14727.4375
2249.35343	14661.1375
2252.25044	14657.0375
2255.14561	14606.1375
2258.03893	14616.6375
2260.93041	14605.9375
2263.82004	14588.0375
2266.70783	14560.8375
2269.59378	14533.0375
2272.4779	14506.0375
2275.36017	14442.2375
2278.24061	14408.2375
2281.11922	14388.6375
2283.996	14370.0375
2286.87094	14376.9375
2289.74405	14347.0375
2292.61534	14318.8375
2295.4848	14323.2375
2298.35243	14343.5375
2301.21824	14335.7375
2304.08223	14375.1375
2306.94439	14359.1375
2309.80474	14332.5375
2312.66327	14360.1375
2315.51999	14354.4375
2318.37489	14358.7375
2321.22797	14319.9375
2324.07925	14303.7375
2326.92871	14306.8375
2329.77637	14305.5375
2332.62222	14302.3375
2335.46626	14266.0375
2338.3085	14259.1375
2341.14893	14256.5375
2343.98756	14268.1375
2346.8244	14243.5375
2349.65943	14276.5375
2352.49267	14250.1375
2355.32411	14249.8375
2358.15376	14214.6375
2360.98161	14216.4375
2363.80768	14206.9375
2366.63195	14211.2375
2369.45444	14160.8375
2372.27514	14158.9375
2375.09405	14136.5375
2377.91118	14145.3375
2380.72652	14086.7375
2383.54009	14075.7375
2386.35187	14083.4375
2389.16188	14035.3375
2391.97011	14009.8375
2394.77657	14022.5375
2397.58125	13970.0375
2400.38416	13995.5375
2403.18529	13950.3375
2405.98466	13950.4375
2408.78226	13932.8375
2411.57809	13904.5375
2414.37216	13869.0375
2417.16446	13883.3375
2419.955	13844.8375
2422.74378	13848.1375
2425.5308	13808.5375
2428.31606	13810.4375
2431.09956	13800.4375
2433.88131	13808.7375
2436.6613	13795.5375
2439.43954	13799.4375
2442.21603	13781.8375
2444.99077	13767.0375
2447.76377	13780.2375
2450.53501	13747.6375
2453.30451	13746.9375
2456.07226	13761.0375
2458.83827	13727.2375
2461.60254	13724.8375
2464.36507	13740.1375
2467.12586	13733.7375
2469.88492	13751.7375
2472.64224	13725.9375
2475.39782	13736.8375
2478.15167	13767.8375
2480.90379	13742.7375
2483.65417	13775.7375
2486.40283	13747.5375
2489.14976	13790.9375
2491.89497	13775.8375
2494.63845	13776.9375
2497.3802	13796.5375
2500.12024	13789.4375
2502.85855	13779.6375
2505.59514	13755.6375
2508.33002	13742.1375
2511.06318	13721.8375
2513.79462	13718.1375
2516.52435	13720.8375
2519.25237	13701.4375
2521.97867	13695.5375
2524.70327	13706.6375
2527.42616	13666.1375
2530.14734	13655.1375
2532.86681	13642.2375
2535.58458	13637.5375
2538.30065	13637.4375
2541.01501	13614.1375
2543.72768	13616.2375
2546.43864	13624.8375
2549.14791	13592.8375
2551.85548	13565.0375
2554.56136	13559.7375
2557.26554	13560.0375
2559.96803	13549.5375
2562.66883	13567.3375
2565.36794	13547.7375
2568.06536	13552.9375
2570.7611	13541.9375
2573.45514	13522.4375
2576.14751	13501.8375
2578.83819	13468.2375
2581.52719	13480.3375
2584.21451	13468.2375
2586.90015	13472.8375
2589.58411	13456.9375
2592.2664	13436.6375
2594.94701	13405.8375
2597.62594	13413.9375
2600.30321	13387.5375
2602.9788	13416.5375
2605.65273	13368.9375
2608.32498	13389.0375
2610.99557	13350.5375
2613.66449	13387.8375
2616.33175	13362.9375
2618.99734	13361.9375
2621.66128	13338.8375
2624.32355	13354.3375
2626.98416	13341.1375
2629.64311	13340.5375
2632.30041	13331.2375
2634.95605	13335.8375
2637.61004	13278.0375
2640.26238	13283.9375
2642.91306	13281.9375
2645.56209	13277.5375
2648.20948	13314.8375
2650.85521	13258.7375
2653.4993	13267.3375
2656.14175	13247.1375
2658.78255	13291.4375
2661.42171	13275.3375
2664.05923	13300.2375
2666.6951	13289.0375
2669.32934	13301.9375
2671.96194	13299.8375
2674.59291	13298.8375
2677.22224	13270.7375
2679.84993	13297.5375
2682.476	13292.2375
2685.10043	13294.9375
2687.72324	13293.0375
2690.34441	13314.3375
2692.96396	13289.7375
2695.58188	13299.4375
2698.19818	13298.0375
2700.81285	13312.6375
2703.4259	13310.1375
2706.03733	13397.3375
2708.64714	13365.1375
2711.25533	13361.8375
2713.86191	13348.8375
2716.46687	13375.9375
2719.07021	13366.1375
2721.67194	13365.4375
2724.27206	13347.9375
2726.87057	13346.9375
2729.46747	13380.2375
2732.06276	13369.9375
2734.65644	13367.6375
2737.24852	13396.5375
2739.83899	13374.2375
2742.42786	13378.5375
2745.01513	13336.2375
2747.60079	13352.4375
2750.18486	13326.0375
2752.76733	13336.4375
2755.3482	13378.5375
2757.92747	13341.7375
2760.50515	13320.8375
2763.08123	13313.8375
2765.65573	13308.4375
2768.22863	13317.9375
2770.79994	13300.1375
2773.36967	13324.6375
2775.9378	13290.8375
2778.50435	13279.0375
2781.06932	13256.2375
2783.6327	13260.4375
2786.1945	13285.1375
2788.75471	13266.3375
2791.31335	13205.0375
2793.87041	13201.4375
2796.42589	13188.1375
2798.97979	13180.2375
2801.53212	13133.6375
2804.08288	13121.3375
2806.63206	13094.4375
2809.17967	13075.5375
2811.72571	13037.8375
2814.27018	13052.4375
2816.81308	13051.5375
2819.35442	13001.2375
2821.89419	12991.1375
2824.43239	13030.5375
2826.96904	12976.8375
2829.50412	12977.9375
2832.03763	12950.5375
2834.56959	12964.0375
2837.1	12946.2375
2839.62884	12933.0375
2842.15613	12966.4375
2844.68186	12980.5375
2847.20604	12933.1375
2849.72867	12933.7375
2852.24974	12921.3375
2854.76927	12926.8375
2857.28724	12924.3375
2859.80367	12919.5375
2862.31855	12891.8375
2864.83189	12882.9375
2867.34368	12863.1375
2869.85393	12892.0375
2872.36264	12865.2375
2874.8698	12906.9375
2877.37543	12866.9375
2879.87952	12874.3375
2882.38207	12876.2375
2884.88308	12886.9375
2887.38256	12899.5375
2889.88051	12898.6375
2892.37692	12914.3375
2894.8718	12889.6375
2897.36515	12902.6375
2899.85698	12903.3375
2902.34727	12930.6375
2904.83604	12938.9375
2907.32328	12959.7375
2909.809	12939.2375
2912.29319	12945.3375
2914.77587	12947.1375
2917.25702	12941.6375
2919.73665	12930.5375
2922.21476	12959.6375
2924.69136	12934.5375
2927.16644	12949.5375
2929.64	12942.3375
2932.11205	12940.8375
2934.58258	12912.2375
2937.05161	12940.4375
2939.51912	12934.3375
2941.98513	12927.1375
2944.44962	12880.8375
2946.91261	12855.2375
2949.37409	12876.5375
2951.83407	12871.4375
2954.29254	12883.2375
2956.74951	12814.9375
2959.20498	12847.7375
2961.65895	12843.8375
2964.11142	12833.0375
2966.56239	12803.5375
2969.01186	12816.4375
2971.45984	12756.2375
2973.90632	12761.0375
2976.35131	12705.4375
2978.7948	12705.0375
2981.23681	12671.8375
2983.67732	12669.2375
2986.11635	12661.6375
2988.55388	12634.8375
2990.98993	12610.1375
2993.4245	12600.1375
2995.85758	12549.8375
2998.28917	12527.0375
3000.71928	12526.0375
3003.14791	12492.2375
3005.57506	12501.2375
3008.00073	12479.9375
3010.42493	12489.2375
3012.84764	12439.4375
3015.26888	12419.4375
3017.68865	12403.4375
3020.10694	12391.3375
3022.52376	12392.4375
3024.9391	12374.3375
3027.35298	12347.6375
3029.76539	12369.6375
3032.17632	12394.5375
3034.5858	12347.6375
3036.9938	12352.4375
3039.40034	12329.4375
3041.80542	12309.9375
3044.20903	12293.9375
3046.61118	12292.6375
3049.01187	12274.6375
3051.4111	12280.0375
3053.80888	12250.0375
3056.20519	12210.4375
3058.60005	12200.3375
3060.99345	12184.2375
3063.3854	12176.3375
3065.7759	12121.3375
3068.16494	12139.0375
3070.55254	12059.4375
3072.93868	12078.0375
3075.32338	12040.9375
3077.70662	12041.6375
3080.08842	11983.8375
3082.46878	11987.6375
3084.84769	11955.6375
3087.22515	11971.6375
3089.60118	11966.5375
3091.97576	11978.2375
3094.3489	11956.2375
3096.72061	11953.5375
3099.09087	11968.0375
3101.4597	11937.4375
3103.82709	11946.8375
3106.19305	11916.5375
3108.55757	11947.5375
3110.92066	11907.0375
3113.28232	11876.7375
3115.64255	11842.7375
3118.00134	11843.7375
3120.35871	11841.7375
3122.71466	11825.5375
3125.06917	11791.6375
3127.42226	11782.6375
3129.77393	11795.0375
3132.12417	11797.9375
3134.47299	11803.1375
3136.82039	11791.7375
3139.16636	11796.2375
3141.51092	11787.9375
3143.85406	11819.4375
3146.19579	11810.0375
3148.53609	11814.7375
3150.87499	11807.1375
3153.21246	11826.9375
3155.54853	11819.6375
3157.88318	11798.1375
3160.21642	11856.7375
3162.54826	11803.2375
3164.87868	11809.6375
3167.2077	11785.8375
3169.5353	11800.0375
3171.86151	11813.3375
3174.18631	11808.2375
3176.5097	11797.6375
3178.83169	11757.7375
3181.15228	11764.5375
3183.47147	11762.6375
3185.78926	11768.5375
3188.10565	11741.5375
3190.42065	11763.8375
3192.73424	11742.6375
3195.04645	11754.6375
3197.35725	11739.1375
3199.66667	11759.2375
3201.97469	11786.2375
3204.28132	11767.7375
3206.58656	11769.9375
3208.8904	11780.6375
3211.19287	11768.3375
3213.49394	11749.1375
3215.79363	11751.5375
3218.09193	11768.6375
3220.38884	11793.5375
3222.68438	11773.6375
3224.97853	11759.5375
3227.2713	11741.5375
3229.56269	11730.5375
3231.8527	11716.9375
3234.14133	11711.1375
3236.42858	11682.0375
3238.71446	11695.0375
3240.99896	11654.7375
3243.28209	11670.7375
3245.56384	11665.5375
3247.84423	11650.9375
3250.12324	11643.9375
3252.40088	11644.2375
3254.67715	11679.8375
3256.95205	11605.2375
3259.22558	11644.5375
3261.49775	11603.0375
3263.76855	11618.6375
3266.03799	11579.2375
3268.30606	11560.2375
3270.57277	11532.7375
3272.83812	11501.9375
3275.10211	11502.3375
3277.36474	11487.9375
3279.62601	11489.2375
3281.88593	11469.5375
3284.14448	11516.1375
3286.40168	11488.6375
3288.65753	11497.1375
3290.91202	11477.9375
3293.16516	11441.2375
3295.41695	11424.7375
3297.66738	11342.8375
3299.91647	11309.0375
3302.16421	11208.2375
3304.4106	11198.9375
3306.65564	11142.5375
3308.89933	11073.2375
3311.14169	11005.2375
3313.38269	10926.1375
3315.62236	10876.9375
3317.86068	10784.5375
3320.09766	10686.8375
3322.3333	10602.9375
3324.5676	10608.6375
3326.80056	10451.2375
3329.03219	10401.8375
3331.26248	5.0375
3333.49143	-0.5625
3335.71905	-1.2625
