Data from AgNP_FTO_APTES_CRN_0uM_R6G_10uM_NaF_0.1M_Addition_RamanShift__69__12-50-12-984.txt Node

Date: Wed Dec 15 12:50:12 GMT 2021
User: TCL
Spectrometer: QEP01345
Trigger mode: 4
Integration Time (sec): 7.000000E0
Scans to average: 10
Electric dark correction enabled: true
Nonlinearity correction enabled: false
Boxcar width: 0
XAxis mode: Raman Shifts
Number of Pixels in Spectrum: 1044
>>>>>Begin Spectral Data<<<<<
46.04893	-0.375
50.45542	-2.775
54.85868	-1.075
59.25871	-0.175
63.6555	140.725
68.04907	151.025
72.43941	154.425
76.82654	165.425
81.21044	168.625
85.59113	177.325
89.96862	188.825
94.34289	185.325
98.71396	194.825
103.08183	202.725
107.4465	209.925
111.80798	212.025
116.16626	217.825
120.52136	220.925
124.87327	229.525
129.222	236.925
133.56755	245.625
137.90993	261.525
142.24913	284.225
146.58517	310.725
150.91804	355.225
155.24774	414.825
159.57429	505.225
163.89768	632.025
168.21792	822.225
172.53501	1116.425
176.84895	1534.425
181.15975	2139.125
185.46741	2967.225
189.77193	4094.425
194.07331	5473.125
198.37157	7035.525
202.6667	8686.425
206.9587	10315.025
211.24758	11926.325
215.53334	13585.825
219.81599	15360.125
224.09553	17355.825
228.37195	19592.325
232.64527	22023.125
236.91549	24478.225
241.18261	26915.625
245.44663	29069.225
249.70755	30908.625
253.96539	32529.225
258.22014	33941.325
262.4718	35194.925
266.72039	36148.625
270.96589	36689.725
275.20832	36815.225
279.44768	36594.425
283.68397	36231.125
287.91719	35917.725
292.14735	35778.825
296.37445	35943.825
300.59849	36437.525
304.81948	37132.525
309.03742	37628.425
313.25231	37556.025
317.46415	36488.725
321.67296	34861.825
325.87872	33466.225
330.08145	32949.725
334.28114	32954.125
338.47781	33388.425
342.67145	34064.825
346.86207	35003.625
351.04966	36361.025
355.23424	37868.125
359.4158	39123.125
363.59435	39883.225
367.76989	40170.125
371.94243	40309.225
376.11196	40298.825
380.27849	40317.725
384.44203	40322.625
388.60257	40218.825
392.76012	40366.525
396.91468	40913.925
401.06626	41819.925
405.21485	42621.025
409.36047	42467.425
413.50311	41466.925
417.64277	40507.225
421.77947	40113.025
425.9132	40142.325
430.04396	40270.425
434.17176	40568.025
438.2966	41038.525
442.41849	41971.725
446.53742	43197.025
450.6534	44535.225
454.76644	45585.725
458.87653	46012.325
462.98368	45841.525
467.08789	45093.725
471.18916	43929.325
475.2875	42839.425
479.38291	41914.425
483.4754	41344.025
487.56496	40881.325
491.6516	40435.825
495.73531	40117.925
499.81612	40095.125
503.89401	40313.925
507.96899	40511.525
512.04106	40751.625
516.11023	40998.925
520.1765	41170.225
524.23987	41166.225
528.30034	40790.225
532.35792	40252.825
536.41261	39632.725
540.46441	38948.425
544.51333	38716.825
548.55936	38999.325
552.60252	39629.225
556.64279	40296.025
560.6802	40658.825
564.71473	40960.125
568.7464	41935.025
572.7752	42887.225
576.80114	42906.025
580.82422	42776.425
584.84444	43002.425
588.86181	43339.525
592.87633	43940.125
596.888	44786.125
600.89682	46019.525
604.9028	49268.825
608.90594	56790.625
612.90624	65098.125
616.90371	61784.825
620.89834	49065.425
624.89015	43335.825
628.87913	42323.225
632.86528	42079.425
636.84862	41781.525
640.82913	40957.325
644.80683	39656.425
648.78172	38805.925
652.75379	38899.125
656.72306	39970.725
660.68952	41226.825
664.65319	41095.125
668.61405	40023.225
672.57211	39467.625
676.52738	39420.925
680.47986	39366.625
684.42955	39234.025
688.37646	39255.025
692.32058	39333.125
696.26192	39667.425
700.20048	40180.625
704.13626	40445.125
708.06928	40253.425
711.99952	39987.625
715.927	39843.325
719.85171	39913.825
723.77365	39654.625
727.69284	39253.725
731.60928	38917.325
735.52295	38907.525
739.43388	39090.625
743.34206	39387.125
747.24749	39743.225
751.15017	40181.825
755.05012	40940.825
758.94733	42288.325
762.8418	44995.425
766.73354	49370.325
770.62254	53824.425
774.50882	55494.225
778.39237	53081.525
782.27321	48204.025
786.15132	43917.225
790.02671	41320.225
793.89938	40202.525
797.76935	39785.625
801.6366	39561.225
805.50115	39324.325
809.36299	39131.125
813.22213	38946.525
817.07857	38926.025
820.93231	38974.425
824.78336	39022.025
828.63172	39183.325
832.47738	39348.425
836.32036	39530.925
840.16066	39653.725
843.99827	39653.725
847.8332	39584.125
851.66546	39418.625
855.49504	39176.025
859.32195	39167.825
863.1462	38932.825
866.96777	38706.125
870.78668	38585.425
874.60293	38654.225
878.41652	38679.025
882.22745	38884.925
886.03573	39020.425
889.84136	38949.025
893.64433	38773.125
897.44466	38657.625
901.24235	38637.325
905.0374	38632.825
908.8298	38626.125
912.61957	38648.225
916.40671	38992.625
920.19121	39499.425
923.97308	40116.325
927.75233	40512.725
931.52895	40640.525
935.30295	40126.525
939.07433	39321.725
942.84309	38677.725
946.60924	38481.025
950.37278	38278.025
954.13371	37920.525
957.89203	37633.325
961.64774	37463.425
965.40086	37322.225
969.15137	37195.325
972.89929	37073.025
976.64461	37157.025
980.38733	37230.325
984.12747	37461.425
987.86502	37818.425
991.59999	38339.625
995.33237	39180.525
999.06217	40554.725
1002.78939	42357.225
1006.51404	43724.125
1010.23611	44471.725
1013.95561	45052.025
1017.67255	44943.025
1021.38692	44375.625
1025.09872	44007.625
1028.80796	44679.225
1032.51465	46320.925
1036.21877	47822.525
1039.92035	47905.825
1043.61937	46915.425
1047.31584	45173.925
1051.00976	43435.925
1054.70114	42396.125
1058.38998	42003.325
1062.07627	42039.125
1065.76003	42317.325
1069.44126	42732.325
1073.11995	43444.625
1076.79611	44085.525
1080.46974	44453.125
1084.14085	44765.825
1087.80943	45085.425
1091.47549	44945.725
1095.13903	44220.625
1098.80005	43167.025
1102.45857	42160.125
1106.11456	41744.325
1109.76805	41752.325
1113.41903	42199.625
1117.06751	42751.325
1120.71348	43508.925
1124.35696	44355.425
1127.99793	45078.625
1131.63641	45207.525
1135.2724	44481.825
1138.90589	43611.925
1142.5369	42993.725
1146.16542	42441.825
1149.79145	42279.525
1153.415	42440.725
1157.03607	42842.025
1160.65467	43595.325
1164.27079	44833.225
1167.88443	46778.525
1171.49561	49783.625
1175.10432	54275.325
1178.71056	60029.325
1182.31434	65041.825
1185.91565	67492.325
1189.51451	67237.025
1193.11091	64396.525
1196.70485	60436.925
1200.29634	57040.325
1203.88538	54531.325
1207.47197	52268.225
1211.05612	50607.925
1214.63782	49782.425
1218.21708	49781.625
1221.79391	50208.525
1225.36829	50577.125
1228.94024	50624.425
1232.50976	50332.925
1236.07685	49986.125
1239.6415	49844.125
1243.20374	49764.325
1246.76355	49976.325
1250.32093	50662.925
1253.8759	51902.825
1257.42845	53536.725
1260.97859	54969.825
1264.52631	56097.925
1268.07163	57250.525
1271.61453	58560.225
1275.15503	60079.425
1278.69312	61672.025
1282.22882	63089.225
1285.76211	64582.325
1289.29301	66010.525
1292.82151	67465.925
1296.34761	69230.125
1299.87133	71891.825
1303.39266	75999.025
1306.9116	81808.625
1310.42815	88292.025
1313.94233	92779.025
1317.45412	92853.225
1320.96354	89794.325
1324.47058	85582.525
1327.97525	82064.125
1331.47754	79887.025
1334.97747	79325.325
1338.47502	79811.025
1341.97022	80619.825
1345.46305	80962.425
1348.95352	81078.325
1352.44163	81983.825
1355.92738	85074.925
1359.41078	91437.825
1362.89183	98076.625
1366.37053	97039.625
1369.84688	87350.225
1373.32088	76515.425
1376.79254	69107.325
1380.26186	65361.025
1383.72883	63588.125
1387.19347	62298.125
1390.65578	61061.025
1394.11575	60322.525
1397.57339	60487.425
1401.0287	61430.925
1404.48168	62840.125
1407.93234	64408.625
1411.38068	65760.625
1414.82669	65791.125
1418.27039	64255.125
1421.71177	62028.725
1425.15083	60042.425
1428.58758	59036.325
1432.02203	58992.825
1435.45416	59438.925
1438.88399	59917.525
1442.31151	60182.325
1445.73673	60536.525
1449.15965	60925.025
1452.58027	60878.225
1455.9986	60398.625
1459.41463	60140.525
1462.82837	60539.025
1466.23982	61475.325
1469.64898	62626.625
1473.05586	63405.425
1476.46045	64048.525
1479.86276	64803.825
1483.26279	65684.325
1486.66054	66844.325
1490.05602	68203.525
1493.44922	69742.825
1496.84016	71245.425
1500.22882	73141.625
1503.61521	75862.825
1506.99934	79446.625
1510.38121	83457.425
1513.76081	85821.425
1517.13816	84348.725
1520.51324	79402.425
1523.88607	73802.925
1527.25665	69654.725
1530.62498	67043.025
1533.99105	65465.925
1537.35488	64439.925
1540.71647	63868.825
1544.07581	63371.325
1547.4329	62745.325
1550.78776	62081.825
1554.14038	61480.725
1557.49077	61300.525
1560.83892	61419.025
1564.18484	61752.725
1567.52853	61900.525
1570.86999	62108.225
1574.20922	62677.025
1577.54624	63162.325
1580.88103	62790.125
1584.2136	62019.525
1587.54395	62456.525
1590.87208	64893.125
1594.19801	69070.025
1597.52172	73984.025
1600.84321	76330.125
1604.16251	73965.325
1607.47959	68471.125
1610.79447	62326.325
1614.10715	56834.225
1617.41763	52878.425
1620.7259	50352.725
1624.03199	49213.525
1627.33587	49485.825
1630.63757	50869.725
1633.93707	53583.025
1637.23439	57353.625
1640.52951	61756.625
1643.82246	66490.925
1647.11321	70376.725
1650.40179	71806.225
1653.68819	68802.625
1656.97241	61503.625
1660.25446	53617.925
1663.53433	47889.325
1666.81203	44269.325
1670.08756	42059.125
1673.36092	40724.625
1676.63211	39792.125
1679.90115	39150.925
1683.16801	38673.625
1686.43272	38372.325
1689.69527	38119.125
1692.95567	37995.725
1696.2139	37910.425
1699.46999	37742.025
1702.72392	37750.525
1705.97571	37663.225
1709.22535	37717.225
1712.47284	37668.025
1715.71819	37684.025
1718.96139	37642.525
1722.20246	37552.325
1725.44139	37449.725
1728.67818	37325.725
1731.91284	37083.425
1735.14537	36866.525
1738.37576	36750.125
1741.60403	36633.125
1744.83017	36487.025
1748.05418	36442.325
1751.27607	36453.625
1754.49584	36355.525
1757.71349	36323.225
1760.92903	36294.525
1764.14244	36267.125
1767.35375	36299.025
1770.56294	36236.725
1773.77002	36186.425
1776.97499	36202.525
1780.17785	36216.325
1783.37861	36163.325
1786.57727	36100.025
1789.77382	36019.125
1792.96828	36031.025
1796.16064	35989.525
1799.3509	35975.325
1802.53907	35947.625
1805.72514	35864.825
1808.90913	35780.025
1812.09102	35762.625
1815.27083	35673.625
1818.44856	35636.525
1821.6242	35579.325
1824.79776	35557.325
1827.96924	35574.425
1831.13864	35579.625
1834.30597	35550.825
1837.47122	35510.825
1840.6344	35521.925
1843.7955	35555.825
1846.95454	35552.625
1850.11151	35560.725
1853.26642	35554.625
1856.41926	35559.625
1859.57004	35595.525
1862.71876	35587.225
1865.86542	35599.125
1869.01003	35596.925
1872.15258	35611.125
1875.29308	35691.125
1878.43152	35638.825
1881.56792	35686.425
1884.70227	35690.425
1887.83457	35712.025
1890.96482	35715.525
1894.09304	35689.525
1897.21921	35687.925
1900.34335	35664.725
1903.46544	35712.225
1906.58551	35737.925
1909.70353	35758.425
1912.81953	35730.825
1915.93349	35651.125
1919.04543	35595.925
1922.15534	35590.625
1925.26322	35519.725
1928.36908	35402.425
1931.47292	35345.225
1934.57473	35232.525
1937.67453	35107.525
1940.77232	34995.425
1943.86808	34893.825
1946.96184	34665.825
1950.05358	34562.625
1953.14331	34446.025
1956.23103	34339.925
1959.31675	34286.025
1962.40046	34205.725
1965.48217	34109.025
1968.56188	34020.025
1971.63959	33905.825
1974.7153	33805.525
1977.78901	33695.425
1980.86073	33588.625
1983.93046	33463.625
1986.99819	33344.925
1990.06394	33271.725
1993.1277	33166.825
1996.18947	33108.625
1999.24925	32977.825
2002.30706	32910.725
2005.36288	32839.225
2008.41672	32778.825
2011.46859	32649.925
2014.51848	32600.025
2017.56639	32512.325
2020.61233	32417.425
2023.6563	32342.425
2026.6983	32242.425
2029.73833	32227.625
2032.7764	32161.525
2035.8125	32126.725
2038.84664	32080.725
2041.87881	32078.025
2044.90903	32010.725
2047.93729	31922.825
2050.96359	31954.825
2053.98794	31863.025
2057.01034	31837.225
2060.03078	31754.925
2063.04927	31693.925
2066.06582	31724.225
2069.08042	31710.925
2072.09307	31700.625
2075.10378	31664.625
2078.11255	31598.725
2081.11938	31604.625
2084.12426	31541.125
2087.12722	31533.425
2090.12824	31493.725
2093.12732	31510.725
2096.12447	31463.925
2099.11969	31478.125
2102.11299	31488.825
2105.10435	31461.125
2108.09379	31520.025
2111.08131	31560.425
2114.0669	31535.025
2117.05057	31532.825
2120.03233	31512.425
2123.01216	31527.825
2125.99008	31591.825
2128.96609	31620.825
2131.94018	31643.125
2134.91236	31599.825
2137.88263	31662.925
2140.851	31682.525
2143.81746	31686.125
2146.78201	31713.225
2149.74466	31733.825
2152.7054	31665.125
2155.66425	31700.525
2158.6212	31695.625
2161.57625	31693.825
2164.52941	31686.525
2167.48067	31668.525
2170.43004	31708.525
2173.37752	31626.725
2176.32311	31603.625
2179.26681	31667.425
2182.20863	31675.425
2185.14856	31666.125
2188.08661	31707.925
2191.02278	31693.525
2193.95707	31706.125
2196.88948	31703.025
2199.82001	31723.525
2202.74867	31679.525
2205.67545	31731.325
2208.60037	31680.825
2211.52341	31639.825
2214.44458	31604.225
2217.36388	31587.225
2220.28132	31553.325
2223.1969	31509.325
2226.11061	31481.625
2229.02246	31400.525
2231.93245	31302.225
2234.84058	31233.825
2237.74686	31168.325
2240.65128	31188.125
2243.55385	31151.925
2246.45456	31046.425
2249.35343	30994.625
2252.25044	31027.225
2255.14561	30963.125
2258.03893	30966.825
2260.93041	30920.125
2263.82004	30869.425
2266.70783	30789.425
2269.59378	30646.325
2272.4779	30596.325
2275.36017	30520.225
2278.24061	30463.125
2281.11922	30420.625
2283.996	30338.125
2286.87094	30334.025
2289.74405	30275.125
2292.61534	30216.025
2295.4848	30221.425
2298.35243	30247.425
2301.21824	30243.325
2304.08223	30281.125
2306.94439	30299.725
2309.80474	30296.825
2312.66327	30311.225
2315.51999	30366.625
2318.37489	30339.525
2321.22797	30285.825
2324.07925	30295.025
2326.92871	30288.825
2329.77637	30251.125
2332.62222	30237.725
2335.46626	30244.125
2338.3085	30264.125
2341.14893	30330.525
2343.98756	30333.225
2346.8244	30326.125
2349.65943	30295.425
2352.49267	30341.025
2355.32411	30239.725
2358.15376	30240.025
2360.98161	30210.025
2363.80768	30178.225
2366.63195	30102.225
2369.45444	30078.025
2372.27514	29977.325
2375.09405	29913.725
2377.91118	29835.125
2380.72652	29781.225
2383.54009	29632.925
2386.35187	29676.125
2389.16188	29597.325
2391.97011	29602.225
2394.77657	29543.025
2397.58125	29467.225
2400.38416	29450.225
2403.18529	29365.525
2405.98466	29305.525
2408.78226	29214.125
2411.57809	29136.625
2414.37216	29089.225
2417.16446	29067.325
2419.955	28976.125
2422.74378	28923.925
2425.5308	28929.525
2428.31606	28922.025
2431.09956	28865.425
2433.88131	28797.825
2436.6613	28829.925
2439.43954	28818.525
2442.21603	28800.725
2444.99077	28775.725
2447.76377	28795.425
2450.53501	28713.325
2453.30451	28711.925
2456.07226	28717.425
2458.83827	28691.225
2461.60254	28684.825
2464.36507	28659.825
2467.12586	28694.325
2469.88492	28663.125
2472.64224	28672.125
2475.39782	28679.925
2478.15167	28739.925
2480.90379	28705.525
2483.65417	28730.025
2486.40283	28740.025
2489.14976	28812.325
2491.89497	28784.125
2494.63845	28792.325
2497.3802	28782.525
2500.12024	28825.225
2502.85855	28786.925
2505.59514	28823.325
2508.33002	28732.825
2511.06318	28637.625
2513.79462	28652.225
2516.52435	28550.425
2519.25237	28555.025
2521.97867	28508.125
2524.70327	28488.725
2527.42616	28461.425
2530.14734	28482.325
2532.86681	28436.725
2535.58458	28400.825
2538.30065	28355.425
2541.01501	28358.925
2543.72768	28366.325
2546.43864	28369.425
2549.14791	28331.025
2551.85548	28321.825
2554.56136	28279.725
2557.26554	28219.225
2559.96803	28213.625
2562.66883	28186.225
2565.36794	28165.825
2568.06536	28171.025
2570.7611	28150.525
2573.45514	28084.125
2576.14751	28133.025
2578.83819	28097.125
2581.52719	28045.225
2584.21451	28023.525
2586.90015	28077.925
2589.58411	28003.825
2592.2664	28009.725
2594.94701	27940.225
2597.62594	27951.025
2600.30321	27899.325
2602.9788	27928.825
2605.65273	27941.825
2608.32498	27939.025
2610.99557	27887.725
2613.66449	27885.825
2616.33175	27889.425
2618.99734	27897.925
2621.66128	27940.625
2624.32355	27941.325
2626.98416	27932.725
2629.64311	27930.425
2632.30041	27947.325
2634.95605	27922.525
2637.61004	27879.825
2640.26238	27824.925
2642.91306	27788.125
2645.56209	27760.925
2648.20948	27684.825
2650.85521	27639.125
2653.4993	27677.525
2656.14175	27669.225
2658.78255	27675.225
2661.42171	27668.925
2664.05923	27723.625
2666.6951	27713.225
2669.32934	27792.225
2671.96194	27801.725
2674.59291	27818.725
2677.22224	27779.725
2679.84993	27781.825
2682.476	27770.125
2685.10043	27745.525
2687.72324	27711.025
2690.34441	27736.025
2692.96396	27713.325
2695.58188	27720.325
2698.19818	27681.825
2700.81285	27685.325
2703.4259	27657.525
2706.03733	27681.625
2708.64714	27635.325
2711.25533	27671.125
2713.86191	27634.525
2716.46687	27675.525
2719.07021	27602.125
2721.67194	27638.225
2724.27206	27642.225
2726.87057	27681.625
2729.46747	27665.525
2732.06276	27714.825
2734.65644	27689.225
2737.24852	27677.925
2739.83899	27640.925
2742.42786	27658.525
2745.01513	27619.325
2747.60079	27613.625
2750.18486	27559.125
2752.76733	27610.025
2755.3482	27605.525
2757.92747	27607.625
2760.50515	27577.725
2763.08123	27578.325
2765.65573	27594.225
2768.22863	27591.125
2770.79994	27531.225
2773.36967	27514.325
2775.9378	27479.925
2778.50435	27467.425
2781.06932	27427.125
2783.6327	27468.925
2786.1945	27390.525
2788.75471	27398.625
2791.31335	27369.625
2793.87041	27316.825
2796.42589	27220.425
2798.97979	27194.325
2801.53212	27160.625
2804.08288	27166.725
2806.63206	27086.725
2809.17967	27030.625
2811.72571	27003.325
2814.27018	27008.125
2816.81308	26996.425
2819.35442	26988.225
2821.89419	26951.425
2824.43239	27002.725
2826.96904	26991.725
2829.50412	27003.925
2832.03763	26945.825
2834.56959	26993.325
2837.1	26896.325
2839.62884	26916.425
2842.15613	26841.525
2844.68186	26898.025
2847.20604	26913.225
2849.72867	26868.025
2852.24974	26885.525
2854.76927	26871.525
2857.28724	26809.125
2859.80367	26756.725
2862.31855	26736.025
2864.83189	26752.625
2867.34368	26705.725
2869.85393	26695.925
2872.36264	26625.025
2874.8698	26677.825
2877.37543	26664.825
2879.87952	26656.825
2882.38207	26672.425
2884.88308	26638.125
2887.38256	26685.325
2889.88051	26635.925
2892.37692	26687.625
2894.8718	26654.625
2897.36515	26717.325
2899.85698	26650.625
2902.34727	26735.225
2904.83604	26709.525
2907.32328	26755.425
2909.809	26700.925
2912.29319	26758.325
2914.77587	26727.525
2917.25702	26700.325
2919.73665	26692.925
2922.21476	26687.025
2924.69136	26638.525
2927.16644	26636.925
2929.64	26585.525
2932.11205	26533.025
2934.58258	26447.225
2937.05161	26533.325
2939.51912	26443.325
2941.98513	26468.425
2944.44962	26357.725
2946.91261	26247.125
2949.37409	26320.625
2951.83407	26261.125
2954.29254	26240.325
2956.74951	26173.425
2959.20498	26166.025
2961.65895	26132.825
2964.11142	26109.925
2966.56239	25993.825
2969.01186	25993.725
2971.45984	25884.625
2973.90632	25849.925
2976.35131	25781.925
2978.7948	25778.625
2981.23681	25690.125
2983.67732	25634.025
2986.11635	25539.825
2988.55388	25478.625
2990.98993	25446.825
2993.4245	25393.225
2995.85758	25350.725
2998.28917	25307.125
3000.71928	25235.725
3003.14791	25162.425
3005.57506	25081.325
3008.00073	25072.625
3010.42493	25050.225
3012.84764	25041.925
3015.26888	24982.325
3017.68865	24972.225
3020.10694	24928.925
3022.52376	24853.925
3024.9391	24815.925
3027.35298	24738.225
3029.76539	24702.225
3032.17632	24663.325
3034.5858	24636.625
3036.9938	24596.325
3039.40034	24576.025
3041.80542	24557.825
3044.20903	24471.725
3046.61118	24490.725
3049.01187	24397.625
3051.4111	24342.125
3053.80888	24295.425
3056.20519	24236.625
3058.60005	24172.925
3060.99345	24135.625
3063.3854	24049.025
3065.7759	23984.925
3068.16494	23938.125
3070.55254	23839.525
3072.93868	23823.725
3075.32338	23676.625
3077.70662	23603.525
3080.08842	23559.725
3082.46878	23586.725
3084.84769	23528.225
3087.22515	23486.025
3089.60118	23514.825
3091.97576	23495.525
3094.3489	23451.125
3096.72061	23407.625
3099.09087	23367.825
3101.4597	23359.425
3103.82709	23333.525
3106.19305	23283.725
3108.55757	23283.125
3110.92066	23174.425
3113.28232	23178.625
3115.64255	23093.925
3118.00134	23053.125
3120.35871	23010.425
3122.71466	22915.125
3125.06917	22924.725
3127.42226	22876.425
3129.77393	22889.725
3132.12417	22858.425
3134.47299	22843.725
3136.82039	22848.025
3139.16636	22810.025
3141.51092	22787.925
3143.85406	22785.425
3146.19579	22791.225
3148.53609	22746.425
3150.87499	22759.225
3153.21246	22759.525
3155.54853	22790.725
3157.88318	22726.425
3160.21642	22731.525
3162.54826	22728.625
3164.87868	22644.525
3167.2077	22640.325
3169.5353	22632.625
3171.86151	22601.925
3174.18631	22522.725
3176.5097	22548.525
3178.83169	22508.125
3181.15228	22486.425
3183.47147	22428.925
3185.78926	22457.425
3188.10565	22462.125
3190.42065	22425.125
3192.73424	22418.825
3195.04645	22393.525
3197.35725	22407.625
3199.66667	22362.125
3201.97469	22424.025
3204.28132	22355.325
3206.58656	22386.025
3208.8904	22384.125
3211.19287	22359.025
3213.49394	22374.025
3215.79363	22374.725
3218.09193	22369.525
3220.38884	22364.725
3222.68438	22364.025
3224.97853	22307.325
3227.2713	22265.125
3229.56269	22258.025
3231.8527	22254.925
3234.14133	22198.425
3236.42858	22152.125
3238.71446	22135.825
3240.99896	22064.725
3243.28209	22057.025
3245.56384	22073.725
3247.84423	22085.925
3250.12324	22092.525
3252.40088	22050.425
3254.67715	22012.425
3256.95205	21958.025
3259.22558	21947.625
3261.49775	21889.025
3263.76855	21896.525
3266.03799	21776.925
3268.30606	21817.225
3270.57277	21792.025
3272.83812	21725.725
3275.10211	21702.725
3277.36474	21686.025
3279.62601	21700.825
3281.88593	21637.125
3284.14448	21663.425
3286.40168	21668.225
3288.65753	21609.525
3290.91202	21595.825
3293.16516	21503.625
3295.41695	21496.425
3297.66738	21378.025
3299.91647	21282.025
3302.16421	21142.425
3304.4106	21101.025
3306.65564	20954.325
3308.89933	20857.625
3311.14169	20711.025
3313.38269	20547.025
3315.62236	20459.025
3317.86068	20250.625
3320.09766	20076.925
3322.3333	19877.625
3324.5676	19912.125
3326.80056	19585.125
3329.03219	19469.525
3331.26248	5.725
3333.49143	0.525
3335.71905	-0.375
