Data from AgNP_FTO_APTES_CRN_2uM_R6G_10uM_NaF_0.1M_Addition_RamanShift__8__14-44-19-333.txt Node

Date: Wed Dec 15 14:44:19 GMT 2021
User: TCL
Spectrometer: QEP01345
Trigger mode: 4
Integration Time (sec): 7.000000E0
Scans to average: 10
Electric dark correction enabled: true
Nonlinearity correction enabled: false
Boxcar width: 0
XAxis mode: Raman Shifts
Number of Pixels in Spectrum: 1044
>>>>>Begin Spectral Data<<<<<
46.04893	-0.475
50.45542	-2.275
54.85868	-1.475
59.25871	0.125
63.6555	148.725
68.04907	154.825
72.43941	161.825
76.82654	172.225
81.21044	172.825
85.59113	177.625
89.96862	187.825
94.34289	187.825
98.71396	196.525
103.08183	204.825
107.4465	214.425
111.80798	215.925
116.16626	222.325
120.52136	226.025
124.87327	245.725
129.222	253.025
133.56755	267.225
137.90993	293.025
142.24913	320.225
146.58517	353.125
150.91804	412.425
155.24774	496.825
159.57429	613.525
163.89768	784.025
168.21792	1026.425
172.53501	1404.425
176.84895	1948.925
181.15975	2748.625
185.46741	3823.825
189.77193	5285.925
194.07331	7046.925
198.37157	9068.325
202.6667	11188.225
206.9587	13290.525
211.24758	15315.625
215.53334	17338.125
219.81599	19516.625
224.09553	21897.825
228.37195	24490.025
232.64527	27391.825
236.91549	30498.825
241.18261	33614.625
245.44663	36570.925
249.70755	39192.025
253.96539	41613.425
258.22014	43538.025
262.4718	45114.025
266.72039	46201.225
270.96589	46689.725
275.20832	46799.625
279.44768	46576.925
283.68397	46137.025
287.91719	45798.825
292.14735	45469.225
296.37445	45388.925
300.59849	45412.525
304.81948	45476.825
309.03742	45530.925
313.25231	45344.525
317.46415	44843.525
321.67296	44206.025
325.87872	43610.225
330.08145	43315.525
334.28114	43377.925
338.47781	43709.525
342.67145	44114.725
346.86207	44741.725
351.04966	45401.125
355.23424	46119.225
359.4158	46889.425
363.59435	47550.425
367.76989	47946.825
371.94243	48230.225
376.11196	48363.625
380.27849	48430.125
384.44203	48558.125
388.60257	48901.725
392.76012	49480.925
396.91468	50228.525
401.06626	51060.825
405.21485	51595.625
409.36047	51688.425
413.50311	51521.225
417.64277	51643.725
421.77947	52143.325
425.9132	52610.825
430.04396	52873.625
434.17176	52979.325
438.2966	52974.325
442.41849	53279.225
446.53742	54313.125
450.6534	55588.225
454.76644	56527.025
458.87653	56916.825
462.98368	56731.325
467.08789	55983.825
471.18916	55121.725
475.2875	54207.425
479.38291	53551.925
483.4754	53103.325
487.56496	52697.025
491.6516	52206.725
495.73531	51885.225
499.81612	51885.625
503.89401	52459.025
507.96899	52996.325
512.04106	53227.025
516.11023	52967.525
520.1765	52279.625
524.23987	51596.025
528.30034	50962.025
532.35792	50475.625
536.41261	49877.125
540.46441	49477.025
544.51333	49531.425
548.55936	50020.825
552.60252	50875.625
556.64279	51787.725
560.6802	52532.625
564.71473	53139.225
568.7464	54030.225
572.7752	55627.525
576.80114	57818.325
580.82422	60409.025
584.84444	63540.225
588.86181	66855.125
592.87633	68750.925
596.888	67102.925
600.89682	63538.725
604.9028	62297.725
608.90594	64188.325
612.90624	65854.725
616.90371	61797.225
620.89834	54904.325
624.89015	52134.225
628.87913	51972.725
632.86528	52307.125
636.84862	52099.725
640.82913	51252.525
644.80683	50143.625
648.78172	49583.125
652.75379	49769.525
656.72306	50306.725
660.68952	50713.525
664.65319	50355.125
668.61405	49763.925
672.57211	49750.825
676.52738	49954.625
680.47986	49926.825
684.42955	49569.925
688.37646	49367.625
692.32058	49802.225
696.26192	50545.125
700.20048	51334.725
704.13626	51827.025
708.06928	51885.725
711.99952	51835.125
715.927	51803.325
719.85171	51990.425
723.77365	51766.825
727.69284	50914.425
731.60928	50151.725
735.52295	49673.925
739.43388	49505.825
743.34206	49649.825
747.24749	50091.625
751.15017	50653.025
755.05012	51535.725
758.94733	52797.025
762.8418	54800.825
766.73354	57518.325
770.62254	59642.225
774.50882	59343.125
778.39237	56934.325
782.27321	54156.725
786.15132	52033.225
790.02671	50718.225
793.89938	50076.025
797.76935	49753.125
801.6366	49745.025
805.50115	49735.525
809.36299	49600.625
813.22213	49130.425
817.07857	48784.125
820.93231	48493.325
824.78336	48256.325
828.63172	48065.625
832.47738	48004.925
836.32036	47990.625
840.16066	48072.525
843.99827	48078.525
847.8332	48097.225
851.66546	48136.325
855.49504	48315.025
859.32195	48285.425
863.1462	48199.725
866.96777	48095.125
870.78668	48065.425
874.60293	48115.325
878.41652	48141.325
882.22745	48267.725
886.03573	48443.625
889.84136	48387.825
893.64433	48330.125
897.44466	48176.125
901.24235	48108.925
905.0374	48009.425
908.8298	48041.325
912.61957	48155.225
916.40671	48609.925
920.19121	49364.825
923.97308	49913.325
927.75233	49789.725
931.52895	49138.825
935.30295	48310.525
939.07433	47552.225
942.84309	47092.625
946.60924	46973.525
950.37278	46943.725
954.13371	46978.025
957.89203	47012.125
961.64774	46982.825
965.40086	46973.525
969.15137	46889.025
972.89929	46747.025
976.64461	46635.925
980.38733	46679.425
984.12747	46751.025
987.86502	46918.525
991.59999	47128.925
995.33237	47513.525
999.06217	48267.025
1002.78939	49256.725
1006.51404	50385.925
1010.23611	51482.225
1013.95561	52141.225
1017.67255	52068.025
1021.38692	51322.325
1025.09872	50477.025
1028.80796	49916.425
1032.51465	49870.425
1036.21877	50172.525
1039.92035	50364.925
1043.61937	50475.625
1047.31584	50420.725
1051.00976	50368.025
1054.70114	50491.625
1058.38998	50906.225
1062.07627	51658.925
1065.76003	52749.925
1069.44126	53983.025
1073.11995	55418.925
1076.79611	56420.625
1080.46974	56677.025
1084.14085	56444.725
1087.80943	56439.625
1091.47549	56437.825
1095.13903	56344.625
1098.80005	55562.225
1102.45857	54200.125
1106.11456	53154.825
1109.76805	52485.525
1113.41903	52266.625
1117.06751	52335.625
1120.71348	52544.425
1124.35696	52900.025
1127.99793	53294.625
1131.63641	53701.225
1135.2724	53882.325
1138.90589	54139.325
1142.5369	54511.525
1146.16542	54893.025
1149.79145	55296.425
1153.415	55854.225
1157.03607	56797.525
1160.65467	58725.625
1164.27079	61581.725
1167.88443	64708.025
1171.49561	67483.225
1175.10432	70385.625
1178.71056	74056.725
1182.31434	77870.425
1185.91565	80150.725
1189.51451	80181.325
1193.11091	79083.825
1196.70485	77108.925
1200.29634	74804.525
1203.88538	73372.725
1207.47197	73174.725
1211.05612	73249.825
1214.63782	72438.125
1218.21708	70464.225
1221.79391	68003.325
1225.36829	66059.725
1228.94024	64845.725
1232.50976	64069.425
1236.07685	63416.925
1239.6415	63065.125
1243.20374	63193.125
1246.76355	63569.825
1250.32093	64594.625
1253.8759	65943.625
1257.42845	67654.425
1260.97859	69662.525
1264.52631	71738.425
1268.07163	73826.025
1271.61453	75925.025
1275.15503	78051.125
1278.69312	80177.725
1282.22882	82257.525
1285.76211	84736.825
1289.29301	87598.825
1292.82151	90939.025
1296.34761	95231.425
1299.87133	100394.125
1303.39266	105707.225
1306.9116	109949.525
1310.42815	112475.925
1313.94233	113118.625
1317.45412	112332.825
1320.96354	111465.125
1324.47058	111524.325
1327.97525	112224.225
1331.47754	113085.125
1334.97747	113558.625
1338.47502	113219.725
1341.97022	112267.925
1345.46305	110533.025
1348.95352	108406.025
1352.44163	106574.825
1355.92738	106262.825
1359.41078	107870.325
1362.89183	109153.625
1366.37053	107398.125
1369.84688	101460.025
1373.32088	92948.725
1376.79254	86390.925
1380.26186	83878.225
1383.72883	84133.625
1387.19347	84702.325
1390.65578	84194.425
1394.11575	83802.625
1397.57339	84675.925
1401.0287	86637.125
1404.48168	88456.425
1407.93234	88847.825
1411.38068	87448.525
1414.82669	84665.325
1418.27039	81008.525
1421.71177	77560.725
1425.15083	75030.725
1428.58758	74129.225
1432.02203	75147.525
1435.45416	77487.125
1438.88399	80309.825
1442.31151	82337.725
1445.73673	83014.325
1449.15965	83064.025
1452.58027	82654.925
1455.9986	81991.025
1459.41463	82355.625
1462.82837	83634.125
1466.23982	85147.625
1469.64898	86405.725
1473.05586	87065.625
1476.46045	87025.625
1479.86276	86274.625
1483.26279	85291.825
1486.66054	84612.425
1490.05602	84640.725
1493.44922	84987.025
1496.84016	85258.925
1500.22882	85790.725
1503.61521	86602.725
1506.99934	87478.725
1510.38121	88181.825
1513.76081	88113.025
1517.13816	87467.425
1520.51324	87054.825
1523.88607	87195.725
1527.25665	88077.125
1530.62498	88850.025
1533.99105	88859.725
1537.35488	87859.625
1540.71647	85869.925
1544.07581	83495.525
1547.4329	81158.925
1550.78776	79176.925
1554.14038	77692.025
1557.49077	76647.525
1560.83892	75877.125
1564.18484	75363.925
1567.52853	75143.825
1570.86999	75814.725
1574.20922	77707.625
1577.54624	79951.925
1580.88103	81918.725
1584.2136	84172.825
1587.54395	87447.625
1590.87208	91665.925
1594.19801	96465.025
1597.52172	100454.125
1600.84321	100405.325
1604.16251	95165.125
1607.47959	87616.725
1610.79447	80265.625
1614.10715	73556.225
1617.41763	68100.425
1620.7259	64369.125
1624.03199	62427.325
1627.33587	62515.925
1630.63757	64402.125
1633.93707	68776.825
1637.23439	76129.525
1640.52951	86625.225
1643.82246	97888.725
1647.11321	105611.925
1650.40179	104842.725
1653.68819	95512.825
1656.97241	82426.425
1660.25446	70691.325
1663.53433	62254.925
1666.81203	56848.925
1670.08756	53463.425
1673.36092	51331.025
1676.63211	49966.125
1679.90115	48865.625
1683.16801	48115.125
1686.43272	47574.425
1689.69527	47128.725
1692.95567	46815.825
1696.2139	46639.525
1699.46999	46470.825
1702.72392	46282.825
1705.97571	46150.225
1709.22535	46041.425
1712.47284	46005.925
1715.71819	45898.125
1718.96139	45805.425
1722.20246	45566.325
1725.44139	45411.725
1728.67818	45137.125
1731.91284	44835.825
1735.14537	44674.525
1738.37576	44420.125
1741.60403	44272.625
1744.83017	44144.625
1748.05418	44055.025
1751.27607	43910.425
1754.49584	43836.125
1757.71349	43757.025
1760.92903	43727.825
1764.14244	43733.025
1767.35375	43663.925
1770.56294	43689.725
1773.77002	43548.325
1776.97499	43586.725
1780.17785	43432.825
1783.37861	43392.525
1786.57727	43302.125
1789.77382	43172.225
1792.96828	43100.225
1796.16064	43081.725
1799.3509	42968.625
1802.53907	42913.025
1805.72514	42792.825
1808.90913	42668.125
1812.09102	42641.725
1815.27083	42576.225
1818.44856	42506.825
1821.6242	42519.825
1824.79776	42516.625
1827.96924	42481.225
1831.13864	42544.825
1834.30597	42546.225
1837.47122	42570.325
1840.6344	42633.825
1843.7955	42585.525
1846.95454	42561.025
1850.11151	42625.125
1853.26642	42509.525
1856.41926	42540.625
1859.57004	42498.325
1862.71876	42417.825
1865.86542	42302.525
1869.01003	42304.625
1872.15258	42249.825
1875.29308	42226.725
1878.43152	42136.425
1881.56792	42067.825
1884.70227	41995.425
1887.83457	42000.825
1890.96482	41932.925
1894.09304	41880.725
1897.21921	41942.225
1900.34335	41801.325
1903.46544	41697.225
1906.58551	41678.625
1909.70353	41582.225
1912.81953	41490.025
1915.93349	41397.225
1919.04543	41359.125
1922.15534	41338.825
1925.26322	41215.925
1928.36908	41033.625
1931.47292	40976.125
1934.57473	40879.225
1937.67453	40793.425
1940.77232	40727.125
1943.86808	40587.925
1946.96184	40472.425
1950.05358	40335.825
1953.14331	40236.025
1956.23103	40211.425
1959.31675	40111.525
1962.40046	39933.125
1965.48217	39870.925
1968.56188	39710.325
1971.63959	39563.425
1974.7153	39494.025
1977.78901	39360.625
1980.86073	39254.325
1983.93046	39199.425
1986.99819	39058.025
1990.06394	39032.725
1993.1277	38938.125
1996.18947	38784.225
1999.24925	38654.325
2002.30706	38520.325
2005.36288	38413.525
2008.41672	38318.125
2011.46859	38245.325
2014.51848	38151.025
2017.56639	38100.625
2020.61233	38041.725
2023.6563	37910.025
2026.6983	37878.825
2029.73833	37792.225
2032.7764	37712.525
2035.8125	37592.325
2038.84664	37501.925
2041.87881	37463.225
2044.90903	37438.425
2047.93729	37303.725
2050.96359	37285.625
2053.98794	37235.825
2057.01034	37245.325
2060.03078	37162.425
2063.04927	37179.025
2066.06582	37204.225
2069.08042	37130.725
2072.09307	37145.425
2075.10378	37115.025
2078.11255	37047.825
2081.11938	37087.125
2084.12426	37041.025
2087.12722	36989.325
2090.12824	37033.425
2093.12732	37001.225
2096.12447	37029.425
2099.11969	36960.025
2102.11299	36957.625
2105.10435	37025.725
2108.09379	37077.725
2111.08131	37115.425
2114.0669	37096.725
2117.05057	37091.625
2120.03233	37143.925
2123.01216	37158.525
2125.99008	37160.625
2128.96609	37113.225
2131.94018	37219.325
2134.91236	37234.925
2137.88263	37254.325
2140.851	37243.825
2143.81746	37269.325
2146.78201	37255.625
2149.74466	37259.825
2152.7054	37261.725
2155.66425	37291.925
2158.6212	37287.925
2161.57625	37308.625
2164.52941	37297.625
2167.48067	37311.425
2170.43004	37286.225
2173.37752	37269.325
2176.32311	37249.925
2179.26681	37196.225
2182.20863	37169.325
2185.14856	37238.725
2188.08661	37210.025
2191.02278	37207.725
2193.95707	37214.325
2196.88948	37174.125
2199.82001	37164.625
2202.74867	37069.925
2205.67545	37057.025
2208.60037	37038.225
2211.52341	36947.425
2214.44458	36925.025
2217.36388	36855.925
2220.28132	36835.725
2223.1969	36772.025
2226.11061	36746.025
2229.02246	36704.525
2231.93245	36618.725
2234.84058	36542.525
2237.74686	36533.725
2240.65128	36479.625
2243.55385	36423.525
2246.45456	36338.025
2249.35343	36251.525
2252.25044	36200.025
2255.14561	36084.325
2258.03893	36052.425
2260.93041	36040.325
2263.82004	35935.325
2266.70783	35863.125
2269.59378	35782.225
2272.4779	35727.825
2275.36017	35638.425
2278.24061	35586.525
2281.11922	35465.525
2283.996	35414.025
2286.87094	35429.325
2289.74405	35318.425
2292.61534	35292.725
2295.4848	35236.125
2298.35243	35218.725
2301.21824	35213.325
2304.08223	35263.025
2306.94439	35208.125
2309.80474	35233.025
2312.66327	35176.925
2315.51999	35124.925
2318.37489	35111.425
2321.22797	35045.325
2324.07925	35062.125
2326.92871	34978.425
2329.77637	34985.325
2332.62222	34943.425
2335.46626	34937.525
2338.3085	34870.425
2341.14893	34865.825
2343.98756	34858.625
2346.8244	34792.125
2349.65943	34771.025
2352.49267	34736.525
2355.32411	34760.425
2358.15376	34742.225
2360.98161	34734.025
2363.80768	34725.325
2366.63195	34701.725
2369.45444	34652.125
2372.27514	34570.325
2375.09405	34547.825
2377.91118	34550.825
2380.72652	34536.125
2383.54009	34431.925
2386.35187	34359.125
2389.16188	34280.425
2391.97011	34235.325
2394.77657	34223.325
2397.58125	34165.025
2400.38416	34146.325
2403.18529	34068.925
2405.98466	34013.425
2408.78226	33986.825
2411.57809	33939.425
2414.37216	33873.125
2417.16446	33906.925
2419.955	33838.325
2422.74378	33873.925
2425.5308	33792.025
2428.31606	33752.725
2431.09956	33740.425
2433.88131	33675.825
2436.6613	33714.325
2439.43954	33689.225
2442.21603	33627.125
2444.99077	33609.525
2447.76377	33638.125
2450.53501	33608.025
2453.30451	33641.525
2456.07226	33590.925
2458.83827	33588.625
2461.60254	33557.925
2464.36507	33531.725
2467.12586	33497.625
2469.88492	33494.025
2472.64224	33497.025
2475.39782	33501.525
2478.15167	33502.925
2480.90379	33518.425
2483.65417	33514.825
2486.40283	33474.825
2489.14976	33436.325
2491.89497	33423.125
2494.63845	33482.525
2497.3802	33448.125
2500.12024	33431.925
2502.85855	33514.625
2505.59514	33533.425
2508.33002	33459.425
2511.06318	33429.725
2513.79462	33441.025
2516.52435	33403.625
2519.25237	33388.525
2521.97867	33378.225
2524.70327	33383.925
2527.42616	33279.525
2530.14734	33297.825
2532.86681	33236.325
2535.58458	33253.525
2538.30065	33166.625
2541.01501	33220.525
2543.72768	33199.625
2546.43864	33125.425
2549.14791	33073.925
2551.85548	33069.625
2554.56136	33013.825
2557.26554	32987.225
2559.96803	32931.225
2562.66883	32925.725
2565.36794	32945.325
2568.06536	32911.225
2570.7611	32864.925
2573.45514	32826.725
2576.14751	32836.725
2578.83819	32808.625
2581.52719	32779.025
2584.21451	32708.425
2586.90015	32681.325
2589.58411	32658.125
2592.2664	32616.825
2594.94701	32644.425
2597.62594	32602.425
2600.30321	32547.625
2602.9788	32538.625
2605.65273	32496.825
2608.32498	32469.725
2610.99557	32504.825
2613.66449	32460.025
2616.33175	32416.425
2618.99734	32403.525
2621.66128	32342.225
2624.32355	32430.525
2626.98416	32340.525
2629.64311	32319.725
2632.30041	32280.925
2634.95605	32241.125
2637.61004	32233.725
2640.26238	32236.325
2642.91306	32282.325
2645.56209	32240.125
2648.20948	32250.725
2650.85521	32221.825
2653.4993	32258.925
2656.14175	32230.225
2658.78255	32272.025
2661.42171	32273.825
2664.05923	32298.525
2666.6951	32343.725
2669.32934	32347.025
2671.96194	32310.025
2674.59291	32286.425
2677.22224	32285.025
2679.84993	32285.225
2682.476	32257.825
2685.10043	32310.925
2687.72324	32276.025
2690.34441	32300.725
2692.96396	32291.825
2695.58188	32288.925
2698.19818	32304.625
2700.81285	32318.325
2703.4259	32296.925
2706.03733	32393.825
2708.64714	32376.425
2711.25533	32393.425
2713.86191	32412.925
2716.46687	32459.425
2719.07021	32413.725
2721.67194	32435.625
2724.27206	32408.025
2726.87057	32482.925
2729.46747	32480.225
2732.06276	32516.525
2734.65644	32463.825
2737.24852	32567.325
2739.83899	32487.425
2742.42786	32511.525
2745.01513	32452.225
2747.60079	32429.725
2750.18486	32408.525
2752.76733	32464.525
2755.3482	32429.025
2757.92747	32417.825
2760.50515	32407.225
2763.08123	32397.825
2765.65573	32352.325
2768.22863	32294.825
2770.79994	32256.725
2773.36967	32204.425
2775.9378	32166.125
2778.50435	32178.425
2781.06932	32112.125
2783.6327	32199.525
2786.1945	32138.625
2788.75471	32041.225
2791.31335	31959.725
2793.87041	31962.525
2796.42589	31863.125
2798.97979	31841.425
2801.53212	31835.325
2804.08288	31804.725
2806.63206	31737.425
2809.17967	31622.025
2811.72571	31588.125
2814.27018	31545.025
2816.81308	31484.225
2819.35442	31416.225
2821.89419	31358.325
2824.43239	31332.225
2826.96904	31309.225
2829.50412	31282.325
2832.03763	31235.125
2834.56959	31245.725
2837.1	31130.825
2839.62884	31135.825
2842.15613	31064.525
2844.68186	31083.125
2847.20604	30983.725
2849.72867	30998.425
2852.24974	30968.025
2854.76927	30926.525
2857.28724	30930.325
2859.80367	30864.525
2862.31855	30837.325
2864.83189	30775.725
2867.34368	30732.325
2869.85393	30714.425
2872.36264	30707.025
2874.8698	30746.825
2877.37543	30747.525
2879.87952	30710.725
2882.38207	30694.025
2884.88308	30703.025
2887.38256	30673.125
2889.88051	30685.325
2892.37692	30675.925
2894.8718	30688.025
2897.36515	30737.625
2899.85698	30726.125
2902.34727	30792.625
2904.83604	30772.925
2907.32328	30801.925
2909.809	30797.125
2912.29319	30850.725
2914.77587	30808.825
2917.25702	30804.525
2919.73665	30721.625
2922.21476	30779.125
2924.69136	30791.025
2927.16644	30730.125
2929.64	30697.625
2932.11205	30674.825
2934.58258	30599.625
2937.05161	30660.825
2939.51912	30748.625
2941.98513	30724.325
2944.44962	30607.625
2946.91261	30496.625
2949.37409	30556.525
2951.83407	30533.725
2954.29254	30469.225
2956.74951	30392.825
2959.20498	30345.925
2961.65895	30364.425
2964.11142	30360.125
2966.56239	30284.625
2969.01186	30280.525
2971.45984	30158.425
2973.90632	30171.025
2976.35131	30085.225
2978.7948	30038.525
2981.23681	29971.725
2983.67732	29943.625
2986.11635	29907.925
2988.55388	29818.425
2990.98993	29693.325
2993.4245	29673.225
2995.85758	29629.525
2998.28917	29502.425
3000.71928	29475.825
3003.14791	29384.225
3005.57506	29365.425
3008.00073	29263.625
3010.42493	29248.625
3012.84764	29211.625
3015.26888	29192.125
3017.68865	29118.125
3020.10694	29103.425
3022.52376	29032.025
3024.9391	28986.525
3027.35298	28950.725
3029.76539	28967.425
3032.17632	28900.525
3034.5858	28851.725
3036.9938	28831.825
3039.40034	28755.025
3041.80542	28720.725
3044.20903	28659.425
3046.61118	28671.825
3049.01187	28577.625
3051.4111	28529.525
3053.80888	28406.725
3056.20519	28410.325
3058.60005	28298.425
3060.99345	28268.325
3063.3854	28214.225
3065.7759	28094.625
3068.16494	28046.325
3070.55254	27962.225
3072.93868	27921.725
3075.32338	27821.425
3077.70662	27776.025
3080.08842	27647.225
3082.46878	27646.125
3084.84769	27609.025
3087.22515	27538.125
3089.60118	27509.125
3091.97576	27530.625
3094.3489	27471.625
3096.72061	27458.025
3099.09087	27444.925
3101.4597	27394.425
3103.82709	27371.325
3106.19305	27280.725
3108.55757	27233.225
3110.92066	27180.225
3113.28232	27111.525
3115.64255	27035.925
3118.00134	26948.925
3120.35871	26956.425
3122.71466	26916.625
3125.06917	26831.925
3127.42226	26815.225
3129.77393	26786.025
3132.12417	26728.425
3134.47299	26758.525
3136.82039	26698.825
3139.16636	26714.525
3141.51092	26634.325
3143.85406	26684.225
3146.19579	26616.525
3148.53609	26606.825
3150.87499	26598.925
3153.21246	26595.625
3155.54853	26597.425
3157.88318	26550.425
3160.21642	26575.925
3162.54826	26480.125
3164.87868	26464.925
3167.2077	26421.525
3169.5353	26451.325
3171.86151	26396.125
3174.18631	26332.225
3176.5097	26320.125
3178.83169	26259.325
3181.15228	26236.725
3183.47147	26186.025
3185.78926	26202.125
3188.10565	26157.425
3190.42065	26102.425
3192.73424	26130.125
3195.04645	26046.125
3197.35725	26057.825
3199.66667	26036.325
3201.97469	26052.125
3204.28132	25967.225
3206.58656	25995.325
3208.8904	25988.825
3211.19287	25987.025
3213.49394	25891.625
3215.79363	25899.125
3218.09193	25904.125
3220.38884	25908.625
3222.68438	25940.025
3224.97853	25878.725
3227.2713	25895.025
3229.56269	25822.925
3231.8527	25762.725
3234.14133	25743.925
3236.42858	25723.525
3238.71446	25650.125
3240.99896	25613.125
3243.28209	25519.825
3245.56384	25540.125
3247.84423	25552.625
3250.12324	25526.725
3252.40088	25431.625
3254.67715	25404.525
3256.95205	25340.625
3259.22558	25342.825
3261.49775	25247.125
3263.76855	25209.225
3266.03799	25123.225
3268.30606	25103.325
3270.57277	25048.125
3272.83812	25016.725
3275.10211	24949.125
3277.36474	24956.525
3279.62601	25011.525
3281.88593	24973.825
3284.14448	24952.125
3286.40168	24929.325
3288.65753	24907.325
3290.91202	24867.225
3293.16516	24782.125
3295.41695	24686.725
3297.66738	24556.125
3299.91647	24448.725
3302.16421	24287.225
3304.4106	24195.425
3306.65564	24065.525
3308.89933	23873.125
3311.14169	23696.125
3313.38269	23484.125
3315.62236	23350.925
3317.86068	23177.325
3320.09766	22947.125
3322.3333	22730.725
3324.5676	22736.525
3326.80056	22318.325
3329.03219	22223.425
3331.26248	6.725
3333.49143	-0.775
3335.71905	-0.075
