Data from AgNP_FTO_APTES_CRN_10uM_R6G_10uM_NaF_0.1M_Addition_RamanShift__30__16-49-57-990.txt Node

Date: Wed Dec 15 16:49:57 GMT 2021
User: TCL
Spectrometer: QEP01345
Trigger mode: 4
Integration Time (sec): 7.000000E0
Scans to average: 10
Electric dark correction enabled: true
Nonlinearity correction enabled: false
Boxcar width: 0
XAxis mode: Raman Shifts
Number of Pixels in Spectrum: 1044
>>>>>Begin Spectral Data<<<<<
46.04893	0.9
50.45542	-1.5
54.85868	-0.7
59.25871	-1.1
63.6555	72.3
68.04907	76.3
72.43941	79.5
76.82654	83.4
81.21044	87.3
85.59113	92.7
89.96862	99
94.34289	95
98.71396	101.5
103.08183	104.9
107.4465	108.5
111.80798	110.2
116.16626	115.6
120.52136	115.6
124.87327	117.8
129.222	124.5
133.56755	130.9
137.90993	138
142.24913	147.4
146.58517	165.2
150.91804	185.8
155.24774	218.7
159.57429	268.2
163.89768	347.6
168.21792	451.4
172.53501	613.1
176.84895	842
181.15975	1177.9
185.46741	1644.8
189.77193	2263.4
194.07331	3007.4
198.37157	3895.1
202.6667	4806.3
206.9587	5720.9
211.24758	6645.3
215.53334	7586.9
219.81599	8632.1
224.09553	9811.1
228.37195	11070.2
232.64527	12503.2
236.91549	13879.2
241.18261	15226.5
245.44663	16318.1
249.70755	17219.8
253.96539	17981.3
258.22014	18692.8
262.4718	19329.7
266.72039	19828.3
270.96589	20120.9
275.20832	20199.8
279.44768	20005.6
283.68397	19772.9
287.91719	19660.2
292.14735	19724.3
296.37445	20054.7
300.59849	20627.2
304.81948	21296.1
309.03742	21792.6
313.25231	21668
317.46415	20760.5
321.67296	19357.6
325.87872	18197.6
330.08145	17548.4
334.28114	17466.9
338.47781	17704.3
342.67145	18143.1
346.86207	18803.4
351.04966	19785.4
355.23424	20899.7
359.4158	21753.1
363.59435	22093
367.76989	22196.9
371.94243	22095.1
376.11196	21962.2
380.27849	21802.4
384.44203	21601
388.60257	21395.8
392.76012	21302.7
396.91468	21492.1
401.06626	21969.5
405.21485	22343.4
409.36047	22010.6
413.50311	20967.3
417.64277	20038.8
421.77947	19481.3
425.9132	19278.6
430.04396	19256.3
434.17176	19343.9
438.2966	19592
442.41849	19977.5
446.53742	20588.4
450.6534	21151.1
454.76644	21537.6
458.87653	21677.4
462.98368	21534.2
467.08789	21208.1
471.18916	20815.7
475.2875	20305.9
479.38291	19925.3
483.4754	19581.4
487.56496	19294.5
491.6516	19084.5
495.73531	18968.3
499.81612	19013.3
503.89401	19176.1
507.96899	19403.4
512.04106	19681.3
516.11023	20017.5
520.1765	20270.5
524.23987	20345.9
528.30034	20083.4
532.35792	19689.2
536.41261	19179.8
540.46441	18711.1
544.51333	18482.3
548.55936	18598
552.60252	18975.4
556.64279	19481
560.6802	19749.7
564.71473	19966
568.7464	20596.3
572.7752	21074.7
576.80114	20701.1
580.82422	20130.3
584.84444	19891.9
588.86181	19901.8
592.87633	20055.7
596.888	20447.3
600.89682	21185.4
604.9028	23258.5
608.90594	28720.5
612.90624	35672.1
616.90371	34266.9
620.89834	24665.2
624.89015	20079.9
628.87913	19239.8
632.86528	19276.4
636.84862	19413.9
640.82913	19113.5
644.80683	18337.4
648.78172	17815.9
652.75379	17810.6
656.72306	18422.2
660.68952	19273.6
664.65319	19140.5
668.61405	18342.3
672.57211	17928.5
676.52738	17857.3
680.47986	17868.6
684.42955	17754
688.37646	17664.7
692.32058	17730.6
696.26192	17914
700.20048	18179.6
704.13626	18308.9
708.06928	18295.9
711.99952	18199.3
715.927	18109.4
719.85171	18114.6
723.77365	18046.2
727.69284	17863.3
731.60928	17700.7
735.52295	17670.7
739.43388	17665.4
743.34206	17748.9
747.24749	17861.5
751.15017	17988.7
755.05012	18330.1
758.94733	19174.4
762.8418	21029.5
766.73354	24297.4
770.62254	27757.9
774.50882	29283
778.39237	27707.9
782.27321	24229.4
786.15132	20983
790.02671	19050.9
793.89938	18187.7
797.76935	17853.5
801.6366	17669.4
805.50115	17558.7
809.36299	17463.1
813.22213	17375.9
817.07857	17337.7
820.93231	17350.2
824.78336	17386.8
828.63172	17487
832.47738	17555.8
836.32036	17606.2
840.16066	17569
843.99827	17518.2
847.8332	17423.4
851.66546	17317.2
855.49504	17305.7
859.32195	17257.3
863.1462	17102.8
866.96777	17054.5
870.78668	17019.3
874.60293	17013.2
878.41652	17073.8
882.22745	17146.1
886.03573	17221.3
889.84136	17161.3
893.64433	17056.3
897.44466	17006
901.24235	17019.2
905.0374	16994.1
908.8298	16969.9
912.61957	16988.2
916.40671	17111.1
920.19121	17264.5
923.97308	17428.3
927.75233	17647.9
931.52895	17781
935.30295	17596.8
939.07433	17129.4
942.84309	16669.2
946.60924	16427.7
950.37278	16284.1
954.13371	16175.7
957.89203	16114.5
961.64774	16086.9
965.40086	16032.1
969.15137	15952.8
972.89929	15915.2
976.64461	15890.2
980.38733	15885.3
984.12747	15970.9
987.86502	16075
991.59999	16191.5
995.33237	16452.7
999.06217	16912.1
1002.78939	17441.2
1006.51404	17869.5
1010.23611	18198.4
1013.95561	18489.1
1017.67255	18365
1021.38692	18119.2
1025.09872	17967.6
1028.80796	17985.7
1032.51465	18312.9
1036.21877	18751.5
1039.92035	18859
1043.61937	18745.3
1047.31584	18497.8
1051.00976	18149.7
1054.70114	17997.3
1058.38998	18043.8
1062.07627	18197.5
1065.76003	18485.1
1069.44126	18916.5
1073.11995	19529.2
1076.79611	20065.5
1080.46974	20448.9
1084.14085	20627.1
1087.80943	20584
1091.47549	20301.7
1095.13903	19652.9
1098.80005	18846.8
1102.45857	18222.7
1106.11456	17917.9
1109.76805	17999.3
1113.41903	18259.8
1117.06751	18735.1
1120.71348	19363.1
1124.35696	20041.7
1127.99793	20693.6
1131.63641	20779.4
1135.2724	20011.7
1138.90589	19284.8
1142.5369	18766.2
1146.16542	18413.6
1149.79145	18198.9
1153.415	18241.5
1157.03607	18437.2
1160.65467	18822.6
1164.27079	19522.6
1167.88443	20593.4
1171.49561	22273
1175.10432	25006.7
1178.71056	28490.9
1182.31434	31167.5
1185.91565	31965.4
1189.51451	31076.2
1193.11091	29196.8
1196.70485	26871
1200.29634	25060.8
1203.88538	23781.7
1207.47197	22531.6
1211.05612	21412.1
1214.63782	20810.6
1218.21708	20624.9
1221.79391	20660.6
1225.36829	20718.3
1228.94024	20805.9
1232.50976	20756.9
1236.07685	20709.8
1239.6415	20660.2
1243.20374	20709.4
1246.76355	20836.8
1250.32093	21158.6
1253.8759	21647.3
1257.42845	22290.2
1260.97859	22984.1
1264.52631	23664.8
1268.07163	24337.3
1271.61453	25053.6
1275.15503	25657.1
1278.69312	26041
1282.22882	26317.8
1285.76211	26796
1289.29301	27532.4
1292.82151	28347.7
1296.34761	29200.7
1299.87133	30564
1303.39266	32748.4
1306.9116	36084.6
1310.42815	40054.4
1313.94233	42829.2
1317.45412	42607.4
1320.96354	40379.5
1324.47058	37622.5
1327.97525	35139.8
1331.47754	33480.6
1334.97747	32722.5
1338.47502	32728.9
1341.97022	33228.5
1345.46305	33945.6
1348.95352	35126.2
1352.44163	37079
1355.92738	40064.3
1359.41078	45202
1362.89183	50651.4
1366.37053	50230.5
1369.84688	43407.6
1373.32088	36046.5
1376.79254	31376.2
1380.26186	29090.6
1383.72883	27955.3
1387.19347	27037.2
1390.65578	26081.6
1394.11575	25347.5
1397.57339	25007.2
1401.0287	25132.7
1404.48168	25406.5
1407.93234	25647.8
1411.38068	25774.6
1414.82669	25572.4
1418.27039	24992.7
1421.71177	24419.6
1425.15083	23805.1
1428.58758	23411.3
1432.02203	23368.5
1435.45416	23610.4
1438.88399	23778.1
1442.31151	23951.7
1445.73673	24096.3
1449.15965	24310.1
1452.58027	24360.6
1455.9986	24221.6
1459.41463	24219.8
1462.82837	24437.8
1466.23982	24971.8
1469.64898	25494.4
1473.05586	25915.6
1476.46045	26160.8
1479.86276	26516.2
1483.26279	26941.2
1486.66054	27403.5
1490.05602	28048.7
1493.44922	29029.3
1496.84016	30318.9
1500.22882	32387.8
1503.61521	35293.9
1506.99934	39045
1510.38121	42855.7
1513.76081	45138.9
1517.13816	43960.6
1520.51324	39769.7
1523.88607	35014.2
1527.25665	31496.8
1530.62498	29316.6
1533.99105	28035.4
1537.35488	27280
1540.71647	26715.3
1544.07581	26334.6
1547.4329	26139.8
1550.78776	25912.4
1554.14038	25902.5
1557.49077	26166.9
1560.83892	26607.3
1564.18484	27285.2
1567.52853	28004.1
1570.86999	28716.2
1574.20922	29495.8
1577.54624	30165.2
1580.88103	29812.3
1584.2136	28718
1587.54395	27670.4
1590.87208	27248.4
1594.19801	28116.5
1597.52172	29669.7
1600.84321	30354.9
1604.16251	29224.1
1607.47959	27181.3
1610.79447	25058.8
1614.10715	23113.4
1617.41763	21525.4
1620.7259	20493.8
1624.03199	20012.8
1627.33587	20015
1630.63757	20518.3
1633.93707	21528.4
1637.23439	23117.5
1640.52951	25306.5
1643.82246	28111.9
1647.11321	31280.8
1650.40179	33578.8
1653.68819	33014.9
1656.97241	29132.1
1660.25446	24550.1
1663.53433	21167.5
1666.81203	19007.8
1670.08756	17763.3
1673.36092	16953.5
1676.63211	16476.1
1679.90115	16144.8
1683.16801	15899.3
1686.43272	15735.2
1689.69527	15644
1692.95567	15499.5
1696.2139	15479.3
1699.46999	15471.5
1702.72392	15427.2
1705.97571	15378.1
1709.22535	15321.2
1712.47284	15311.4
1715.71819	15314.9
1718.96139	15291.1
1722.20246	15263
1725.44139	15221.2
1728.67818	15124.7
1731.91284	15024.1
1735.14537	14913.7
1738.37576	14834.6
1741.60403	14780.6
1744.83017	14752.8
1748.05418	14712.2
1751.27607	14689.3
1754.49584	14651.5
1757.71349	14671.4
1760.92903	14639.5
1764.14244	14644.6
1767.35375	14600.1
1770.56294	14565.4
1773.77002	14559.9
1776.97499	14524.4
1780.17785	14496.3
1783.37861	14453.8
1786.57727	14412.7
1789.77382	14379.4
1792.96828	14391.1
1796.16064	14333.5
1799.3509	14333.9
1802.53907	14311.7
1805.72514	14276.2
1808.90913	14227.7
1812.09102	14190.9
1815.27083	14142.8
1818.44856	14131.5
1821.6242	14133.2
1824.79776	14095.7
1827.96924	14105.6
1831.13864	14102.4
1834.30597	14114.7
1837.47122	14098.6
1840.6344	14099.3
1843.7955	14059.9
1846.95454	14079.4
1850.11151	14083.9
1853.26642	14063.9
1856.41926	14100.4
1859.57004	14105.8
1862.71876	14079.1
1865.86542	14119
1869.01003	14102.4
1872.15258	14075.2
1875.29308	14090
1878.43152	14087.2
1881.56792	14067.3
1884.70227	14036
1887.83457	14078.5
1890.96482	14069.8
1894.09304	14060.1
1897.21921	14067.2
1900.34335	14086.4
1903.46544	14066
1906.58551	14087.1
1909.70353	14085.1
1912.81953	14057.7
1915.93349	14060.3
1919.04543	14043.4
1922.15534	13973.7
1925.26322	13936.9
1928.36908	13950.4
1931.47292	13908.2
1934.57473	13844.9
1937.67453	13808.8
1940.77232	13757
1943.86808	13696
1946.96184	13666.1
1950.05358	13599.8
1953.14331	13576.1
1956.23103	13517.8
1959.31675	13478.8
1962.40046	13468.3
1965.48217	13410.7
1968.56188	13405
1971.63959	13372.6
1974.7153	13332.8
1977.78901	13274.9
1980.86073	13198.8
1983.93046	13179.5
1986.99819	13129.9
1990.06394	13088.1
1993.1277	13068
1996.18947	12992.1
1999.24925	12955.8
2002.30706	12945.2
2005.36288	12928.4
2008.41672	12878.7
2011.46859	12831.5
2014.51848	12795.3
2017.56639	12762.6
2020.61233	12740.2
2023.6563	12701.5
2026.6983	12682.7
2029.73833	12673.7
2032.7764	12626.3
2035.8125	12632.8
2038.84664	12594.8
2041.87881	12554.2
2044.90903	12551.1
2047.93729	12501
2050.96359	12522.1
2053.98794	12512.8
2057.01034	12510.6
2060.03078	12500.4
2063.04927	12467.6
2066.06582	12466.2
2069.08042	12467
2072.09307	12435
2075.10378	12407
2078.11255	12396.4
2081.11938	12416.3
2084.12426	12415.9
2087.12722	12393.4
2090.12824	12403.3
2093.12732	12401.5
2096.12447	12394.2
2099.11969	12400.9
2102.11299	12404.3
2105.10435	12408.8
2108.09379	12436.7
2111.08131	12444
2114.0669	12428.8
2117.05057	12453
2120.03233	12457.5
2123.01216	12467.7
2125.99008	12477.6
2128.96609	12497.4
2131.94018	12491.1
2134.91236	12527.1
2137.88263	12519.8
2140.851	12493.7
2143.81746	12526.6
2146.78201	12536.7
2149.74466	12520.4
2152.7054	12531.3
2155.66425	12541.1
2158.6212	12563.1
2161.57625	12517.7
2164.52941	12539.1
2167.48067	12521.8
2170.43004	12523.6
2173.37752	12541
2176.32311	12514.8
2179.26681	12511.5
2182.20863	12515.2
2185.14856	12517.7
2188.08661	12516.8
2191.02278	12522.5
2193.95707	12517.3
2196.88948	12497.3
2199.82001	12496.6
2202.74867	12494.4
2205.67545	12482.6
2208.60037	12477.1
2211.52341	12482.1
2214.44458	12465.2
2217.36388	12450.7
2220.28132	12451.1
2223.1969	12398.6
2226.11061	12389.5
2229.02246	12371.2
2231.93245	12364.6
2234.84058	12293.9
2237.74686	12295.2
2240.65128	12291.6
2243.55385	12271.4
2246.45456	12246.4
2249.35343	12225.3
2252.25044	12235.8
2255.14561	12214.1
2258.03893	12231.1
2260.93041	12237.7
2263.82004	12192.9
2266.70783	12169.5
2269.59378	12139
2272.4779	12110
2275.36017	12079.9
2278.24061	12029.3
2281.11922	12022
2283.996	12024.3
2286.87094	11984.9
2289.74405	11957.2
2292.61534	11942.3
2295.4848	11934.5
2298.35243	11943.1
2301.21824	11914
2304.08223	11930.7
2306.94439	11953
2309.80474	11953.6
2312.66327	11962.8
2315.51999	11959.4
2318.37489	11945.8
2321.22797	11936.3
2324.07925	11938.3
2326.92871	11933.4
2329.77637	11910.5
2332.62222	11916.2
2335.46626	11924.1
2338.3085	11906.3
2341.14893	11907.1
2343.98756	11922.2
2346.8244	11915.5
2349.65943	11895.2
2352.49267	11925.1
2355.32411	11941.1
2358.15376	11942.6
2360.98161	11923.3
2363.80768	11940
2366.63195	11910.3
2369.45444	11932
2372.27514	11912.4
2375.09405	11892.2
2377.91118	11851.3
2380.72652	11850.2
2383.54009	11788.1
2386.35187	11770.2
2389.16188	11735.6
2391.97011	11698.1
2394.77657	11659.4
2397.58125	11646.3
2400.38416	11604.2
2403.18529	11620.7
2405.98466	11583.1
2408.78226	11558.8
2411.57809	11533.5
2414.37216	11503.8
2417.16446	11513.1
2419.955	11488.9
2422.74378	11492.4
2425.5308	11451.7
2428.31606	11434.4
2431.09956	11445.3
2433.88131	11452.2
2436.6613	11459.3
2439.43954	11472.9
2442.21603	11412.3
2444.99077	11439.7
2447.76377	11438.8
2450.53501	11446.6
2453.30451	11441.9
2456.07226	11436.1
2458.83827	11434.3
2461.60254	11409.6
2464.36507	11420
2467.12586	11429.5
2469.88492	11439.3
2472.64224	11432.7
2475.39782	11428.5
2478.15167	11441.3
2480.90379	11466.8
2483.65417	11495.6
2486.40283	11492.5
2489.14976	11506.5
2491.89497	11510.5
2494.63845	11533
2497.3802	11546.4
2500.12024	11525.6
2502.85855	11519.2
2505.59514	11502.6
2508.33002	11464.4
2511.06318	11424.2
2513.79462	11400.5
2516.52435	11365.5
2519.25237	11355.3
2521.97867	11323.4
2524.70327	11308.9
2527.42616	11315
2530.14734	11292
2532.86681	11303.8
2535.58458	11287.5
2538.30065	11257
2541.01501	11255
2543.72768	11291.3
2546.43864	11256.8
2549.14791	11240.6
2551.85548	11240.7
2554.56136	11214.2
2557.26554	11215.3
2559.96803	11224.1
2562.66883	11186.9
2565.36794	11214.6
2568.06536	11184.3
2570.7611	11169.2
2573.45514	11168.7
2576.14751	11143.8
2578.83819	11143
2581.52719	11123.3
2584.21451	11124.9
2586.90015	11137.3
2589.58411	11114.2
2592.2664	11104.8
2594.94701	11079.1
2597.62594	11072.9
2600.30321	11061
2602.9788	11061.4
2605.65273	11037.1
2608.32498	11031.4
2610.99557	11037.1
2613.66449	11044.5
2616.33175	11024.7
2618.99734	11024.6
2621.66128	11031.2
2624.32355	11033.2
2626.98416	11037
2629.64311	11020.9
2632.30041	11017.9
2634.95605	11011.8
2637.61004	10987.1
2640.26238	10969.7
2642.91306	10967.1
2645.56209	10961.6
2648.20948	10955.9
2650.85521	10925.6
2653.4993	10917
2656.14175	10929.7
2658.78255	10915.9
2661.42171	10905.8
2664.05923	10952.6
2666.6951	10930
2669.32934	10948.6
2671.96194	10933.5
2674.59291	10945.7
2677.22224	10975.7
2679.84993	10965.2
2682.476	10953.8
2685.10043	10953.1
2687.72324	10957.8
2690.34441	10964.3
2692.96396	10937.2
2695.58188	10961.5
2698.19818	10970.1
2700.81285	10955.6
2703.4259	10959.2
2706.03733	11017.2
2708.64714	11000.4
2711.25533	11033
2713.86191	10996
2716.46687	10967.8
2719.07021	10993.6
2721.67194	11015.7
2724.27206	10995.1
2726.87057	10984.3
2729.46747	10981.2
2732.06276	10984.5
2734.65644	10990.5
2737.24852	10996
2739.83899	10969.4
2742.42786	10959
2745.01513	10951.2
2747.60079	10918.8
2750.18486	10914.2
2752.76733	10927.5
2755.3482	10941.2
2757.92747	10965.8
2760.50515	10918.1
2763.08123	10897.9
2765.65573	10896
2768.22863	10890
2770.79994	10879.9
2773.36967	10874
2775.9378	10849.5
2778.50435	10834.6
2781.06932	10817.7
2783.6327	10843.1
2786.1945	10828.8
2788.75471	10809.4
2791.31335	10795.6
2793.87041	10768.6
2796.42589	10758.3
2798.97979	10751.2
2801.53212	10757.6
2804.08288	10758.4
2806.63206	10720.1
2809.17967	10698.3
2811.72571	10678.9
2814.27018	10687
2816.81308	10694.9
2819.35442	10686.2
2821.89419	10679.3
2824.43239	10708.7
2826.96904	10699.6
2829.50412	10702.2
2832.03763	10675
2834.56959	10700.8
2837.1	10677.7
2839.62884	10714.3
2842.15613	10701
2844.68186	10737.9
2847.20604	10760.2
2849.72867	10799.9
2852.24974	10767
2854.76927	10816.6
2857.28724	10809
2859.80367	10812.3
2862.31855	10793.4
2864.83189	10734.5
2867.34368	10743.5
2869.85393	10774.2
2872.36264	10743.7
2874.8698	10746.5
2877.37543	10749.5
2879.87952	10769.2
2882.38207	10736.9
2884.88308	10740.5
2887.38256	10759.5
2889.88051	10742.7
2892.37692	10740.9
2894.8718	10727.4
2897.36515	10756.1
2899.85698	10734.3
2902.34727	10769.5
2904.83604	10765.6
2907.32328	10782.8
2909.809	10767.8
2912.29319	10802
2914.77587	10785.4
2917.25702	10780
2919.73665	10755.4
2922.21476	10771.4
2924.69136	10768.2
2927.16644	10756.5
2929.64	10742
2932.11205	10724.7
2934.58258	10704.5
2937.05161	10671.2
2939.51912	10682.6
2941.98513	10664.9
2944.44962	10625.6
2946.91261	10554.4
2949.37409	10593.7
2951.83407	10562.9
2954.29254	10554.5
2956.74951	10540.8
2959.20498	10520.5
2961.65895	10507.7
2964.11142	10503.4
2966.56239	10476.6
2969.01186	10468.9
2971.45984	10422.2
2973.90632	10399.3
2976.35131	10372.5
2978.7948	10335.1
2981.23681	10301.1
2983.67732	10312.5
2986.11635	10303.2
2988.55388	10271.2
2990.98993	10256.5
2993.4245	10232.7
2995.85758	10230.6
2998.28917	10202.4
3000.71928	10191.2
3003.14791	10194.5
3005.57506	10149.3
3008.00073	10144.6
3010.42493	10145.7
3012.84764	10113.8
3015.26888	10114.9
3017.68865	10094.2
3020.10694	10091
3022.52376	10032.5
3024.9391	10049.3
3027.35298	10051.8
3029.76539	10056.2
3032.17632	10040.5
3034.5858	10029.2
3036.9938	10013.1
3039.40034	10000.1
3041.80542	9947.4
3044.20903	9928.4
3046.61118	9964.5
3049.01187	9931.9
3051.4111	9943.9
3053.80888	9928.9
3056.20519	9918
3058.60005	9899.4
3060.99345	9874.1
3063.3854	9829.5
3065.7759	9809.8
3068.16494	9809.6
3070.55254	9777.3
3072.93868	9779
3075.32338	9747.9
3077.70662	9724.9
3080.08842	9668.3
3082.46878	9689.5
3084.84769	9693.5
3087.22515	9662.5
3089.60118	9680
3091.97576	9657.4
3094.3489	9644.8
3096.72061	9634.3
3099.09087	9636.5
3101.4597	9650.9
3103.82709	9614.2
3106.19305	9625.8
3108.55757	9628.1
3110.92066	9604.5
3113.28232	9583.7
3115.64255	9569.8
3118.00134	9563.3
3120.35871	9541.3
3122.71466	9528.3
3125.06917	9518.4
3127.42226	9511.7
3129.77393	9504.5
3132.12417	9533
3134.47299	9533.5
3136.82039	9548
3139.16636	9539.3
3141.51092	9546.7
3143.85406	9551.3
3146.19579	9562.3
3148.53609	9552.4
3150.87499	9575.7
3153.21246	9579.7
3155.54853	9593.6
3157.88318	9585.9
3160.21642	9595.2
3162.54826	9589.7
3164.87868	9574.2
3167.2077	9588.9
3169.5353	9572
3171.86151	9587.7
3174.18631	9566.8
3176.5097	9575.7
3178.83169	9546.3
3181.15228	9555.8
3183.47147	9545.5
3185.78926	9547.1
3188.10565	9527
3190.42065	9526.1
3192.73424	9538.4
3195.04645	9529.6
3197.35725	9571.8
3199.66667	9534.1
3201.97469	9574.1
3204.28132	9568.2
3206.58656	9595.2
3208.8904	9588.8
3211.19287	9608.8
3213.49394	9599.5
3215.79363	9619.2
3218.09193	9610.1
3220.38884	9613.7
3222.68438	9635
3224.97853	9607
3227.2713	9593.3
3229.56269	9573
3231.8527	9578.2
3234.14133	9556.9
3236.42858	9559.3
3238.71446	9539.5
3240.99896	9535
3243.28209	9511.9
3245.56384	9517.5
3247.84423	9514.3
3250.12324	9507.2
3252.40088	9504
3254.67715	9513.8
3256.95205	9504.5
3259.22558	9529.8
3261.49775	9518.1
3263.76855	9518.5
3266.03799	9463
3268.30606	9462.3
3270.57277	9435.1
3272.83812	9413.2
3275.10211	9394.8
3277.36474	9396
3279.62601	9416
3281.88593	9405.7
3284.14448	9406
3286.40168	9410.4
3288.65753	9396.6
3290.91202	9369.2
3293.16516	9360.1
3295.41695	9320.5
3297.66738	9273.7
3299.91647	9261.2
3302.16421	9187.8
3304.4106	9161.2
3306.65564	9098
3308.89933	9051.7
3311.14169	8995.5
3313.38269	8939.3
3315.62236	8891.6
3317.86068	8818.1
3320.09766	8723.1
3322.3333	8678.2
3324.5676	8667.4
3326.80056	8524.5
3329.03219	8491.3
3331.26248	4.1
3333.49143	-0.6
3335.71905	-0.1
