Data from AgNP_FTO_APTES_CRN_200uM_R6G_10uM_NaF_0.1M_Addition_RamanShift__3__19-20-28-161.txt Node

Date: Wed Dec 15 19:20:28 GMT 2021
User: TCL
Spectrometer: QEP01345
Trigger mode: 4
Integration Time (sec): 7.000000E0
Scans to average: 10
Electric dark correction enabled: true
Nonlinearity correction enabled: false
Boxcar width: 0
XAxis mode: Raman Shifts
Number of Pixels in Spectrum: 1044
>>>>>Begin Spectral Data<<<<<
46.04893	1.8375
50.45542	-0.7625
54.85868	-0.7625
59.25871	-0.5625
63.6555	61.5375
68.04907	65.0375
72.43941	67.3375
76.82654	74.4375
81.21044	71.0375
85.59113	77.9375
89.96862	80.6375
94.34289	81.4375
98.71396	87.1375
103.08183	88.0375
107.4465	92.1375
111.80798	91.5375
116.16626	93.4375
120.52136	98.0375
124.87327	99.5375
129.222	100.9375
133.56755	105.0375
137.90993	113.2375
142.24913	121.9375
146.58517	130.7375
150.91804	156.2375
155.24774	180.4375
159.57429	221.2375
163.89768	280.6375
168.21792	359.1375
172.53501	491.8375
176.84895	676.8375
181.15975	946.7375
185.46741	1330.6375
189.77193	1820.6375
194.07331	2425.2375
198.37157	3137.8375
202.6667	3865.4375
206.9587	4598.7375
211.24758	5327.3375
215.53334	6038.2375
219.81599	6772.3375
224.09553	7602.1375
228.37195	8521.5375
232.64527	9508.8375
236.91549	10552.3375
241.18261	11655.9375
245.44663	12697.8375
249.70755	13626.3375
253.96539	14485.7375
258.22014	15190.1375
262.4718	15709.1375
266.72039	16119.6375
270.96589	16249.2375
275.20832	16282.8375
279.44768	16184.7375
283.68397	15974.7375
287.91719	15845.9375
292.14735	15709.0375
296.37445	15658.4375
300.59849	15624.6375
304.81948	15639.5375
309.03742	15609.2375
313.25231	15514.4375
317.46415	15297.0375
321.67296	15025.3375
325.87872	14772.7375
330.08145	14627.9375
334.28114	14627.7375
338.47781	14741.7375
342.67145	14850.2375
346.86207	15081.6375
351.04966	15340.8375
355.23424	15555.1375
359.4158	15743.4375
363.59435	15865.3375
367.76989	15971.3375
371.94243	16022.0375
376.11196	16075.2375
380.27849	16166.1375
384.44203	16283.9375
388.60257	16408.1375
392.76012	16579.1375
396.91468	16782.5375
401.06626	17016.1375
405.21485	17161.1375
409.36047	17173.0375
413.50311	17002.8375
417.64277	16884.8375
421.77947	16905.3375
425.9132	16937.3375
430.04396	17015.3375
434.17176	17117.4375
438.2966	17209.1375
442.41849	17377.8375
446.53742	17774.1375
450.6534	18139.7375
454.76644	18386.7375
458.87653	18468.3375
462.98368	18429.6375
467.08789	18297.5375
471.18916	18216.0375
475.2875	18115.4375
479.38291	18078.7375
483.4754	18012.3375
487.56496	17796.0375
491.6516	17568.9375
495.73531	17374.5375
499.81612	17320.8375
503.89401	17394.7375
507.96899	17450.5375
512.04106	17474.4375
516.11023	17460.7375
520.1765	17376.6375
524.23987	17367.8375
528.30034	17235.2375
532.35792	17123.4375
536.41261	16934.3375
540.46441	16806.3375
544.51333	16833.6375
548.55936	16964.4375
552.60252	17271.2375
556.64279	17552.7375
560.6802	17776.8375
564.71473	17847.6375
568.7464	17995.7375
572.7752	18343.5375
576.80114	18633.8375
580.82422	19019.2375
584.84444	19525.4375
588.86181	20061.6375
592.87633	20464.4375
596.888	20398.7375
600.89682	19934.5375
604.9028	19851.0375
608.90594	20682.7375
612.90624	21618.5375
616.90371	20615.0375
620.89834	18238.4375
624.89015	17164.7375
628.87913	17066.6375
632.86528	17127.6375
636.84862	17158.1375
640.82913	16989.9375
644.80683	16739.8375
648.78172	16570.0375
652.75379	16552.9375
656.72306	16624.6375
660.68952	16751.4375
664.65319	16745.1375
668.61405	16566.2375
672.57211	16546.8375
676.52738	16610.9375
680.47986	16656.9375
684.42955	16604.1375
688.37646	16538.4375
692.32058	16563.4375
696.26192	16725.7375
700.20048	16901.6375
704.13626	17026.0375
708.06928	17072.5375
711.99952	17052.6375
715.927	17047.2375
719.85171	17053.8375
723.77365	16992.4375
727.69284	16828.5375
731.60928	16645.7375
735.52295	16608.4375
739.43388	16603.0375
743.34206	16671.7375
747.24749	16715.6375
751.15017	16798.6375
755.05012	17042.1375
758.94733	17358.6375
762.8418	17971.2375
766.73354	18893.6375
770.62254	19802.2375
774.50882	19978.3375
778.39237	19315.4375
782.27321	18278.2375
786.15132	17448.0375
790.02671	16948.3375
793.89938	16675.7375
797.76935	16567.0375
801.6366	16589.6375
805.50115	16534.1375
809.36299	16500.9375
813.22213	16419.2375
817.07857	16430.0375
820.93231	16379.6375
824.78336	16327.2375
828.63172	16334.7375
832.47738	16321.1375
836.32036	16366.9375
840.16066	16397.9375
843.99827	16427.1375
847.8332	16379.2375
851.66546	16323.4375
855.49504	16297.7375
859.32195	16284.5375
863.1462	16278.0375
866.96777	16245.9375
870.78668	16230.1375
874.60293	16228.3375
878.41652	16256.2375
882.22745	16300.3375
886.03573	16312.0375
889.84136	16352.2375
893.64433	16320.2375
897.44466	16254.1375
901.24235	16237.5375
905.0374	16186.2375
908.8298	16162.2375
912.61957	16192.7375
916.40671	16299.0375
920.19121	16461.4375
923.97308	16577.7375
927.75233	16594.7375
931.52895	16568.1375
935.30295	16389.1375
939.07433	16158.4375
942.84309	15948.8375
946.60924	15843.8375
950.37278	15785.0375
954.13371	15767.3375
957.89203	15710.1375
961.64774	15721.2375
965.40086	15727.2375
969.15137	15667.1375
972.89929	15621.8375
976.64461	15604.7375
980.38733	15560.9375
984.12747	15602.5375
987.86502	15719.6375
991.59999	15798.5375
995.33237	15954.6375
999.06217	16199.3375
1002.78939	16415.5375
1006.51404	16626.5375
1010.23611	16792.9375
1013.95561	16971.5375
1017.67255	16980.5375
1021.38692	16852.9375
1025.09872	16690.4375
1028.80796	16651.6375
1032.51465	16811.7375
1036.21877	17031.7375
1039.92035	17150.6375
1043.61937	17098.9375
1047.31584	17023.8375
1051.00976	16930.5375
1054.70114	16940.6375
1058.38998	17094.8375
1062.07627	17349.2375
1065.76003	17728.5375
1069.44126	18138.6375
1073.11995	18576.8375
1076.79611	18791.9375
1080.46974	18603.8375
1084.14085	18286.9375
1087.80943	18064.0375
1091.47549	17910.0375
1095.13903	17834.8375
1098.80005	17644.8375
1102.45857	17314.8375
1106.11456	17021.8375
1109.76805	16884.9375
1113.41903	16902.9375
1117.06751	16957.0375
1120.71348	17087.7375
1124.35696	17253.3375
1127.99793	17457.4375
1131.63641	17644.4375
1135.2724	17530.0375
1138.90589	17409.9375
1142.5369	17367.2375
1146.16542	17405.8375
1149.79145	17440.2375
1153.415	17568.7375
1157.03607	17708.4375
1160.65467	18042.6375
1164.27079	18641.8375
1167.88443	19370.2375
1171.49561	20323.0375
1175.10432	21464.3375
1178.71056	22907.4375
1182.31434	24179.9375
1185.91565	24692.3375
1189.51451	24485.8375
1193.11091	23841.5375
1196.70485	22995.8375
1200.29634	22179.2375
1203.88538	21599.5375
1207.47197	21271.9375
1211.05612	20961.4375
1214.63782	20712.9375
1218.21708	20334.3375
1221.79391	19931.6375
1225.36829	19700.6375
1228.94024	19527.4375
1232.50976	19325.3375
1236.07685	19095.0375
1239.6415	19051.4375
1243.20374	19021.7375
1246.76355	19135.7375
1250.32093	19333.7375
1253.8759	19651.8375
1257.42845	20064.4375
1260.97859	20447.8375
1264.52631	20871.7375
1268.07163	21272.1375
1271.61453	21781.1375
1275.15503	22267.4375
1278.69312	22782.7375
1282.22882	23315.9375
1285.76211	23900.6375
1289.29301	24622.6375
1292.82151	25518.8375
1296.34761	26574.4375
1299.87133	27865.4375
1303.39266	29083.7375
1306.9116	30355.5375
1310.42815	31458.1375
1313.94233	32028.8375
1317.45412	31860.7375
1320.96354	31302.0375
1324.47058	30712.9375
1327.97525	30239.0375
1331.47754	29856.0375
1334.97747	29546.2375
1338.47502	29360.6375
1341.97022	29203.5375
1345.46305	28948.4375
1348.95352	28851.3375
1352.44163	29058.7375
1355.92738	29800.9375
1359.41078	30889.5375
1362.89183	31770.1375
1366.37053	31401.1375
1369.84688	29415.1375
1373.32088	26802.1375
1376.79254	24952.7375
1380.26186	24100.3375
1383.72883	23897.6375
1387.19347	23717.7375
1390.65578	23508.6375
1394.11575	23428.9375
1397.57339	23550.7375
1401.0287	23822.7375
1404.48168	23967.0375
1407.93234	23864.3375
1411.38068	23479.0375
1414.82669	22915.2375
1418.27039	22170.6375
1421.71177	21414.8375
1425.15083	20785.9375
1428.58758	20430.0375
1432.02203	20493.1375
1435.45416	20874.7375
1438.88399	21315.3375
1442.31151	21578.8375
1445.73673	21778.3375
1449.15965	21992.2375
1452.58027	22139.8375
1455.9986	22170.4375
1459.41463	22343.3375
1462.82837	22621.8375
1466.23982	22975.4375
1469.64898	23339.2375
1473.05586	23609.9375
1476.46045	23711.7375
1479.86276	23672.9375
1483.26279	23630.6375
1486.66054	23667.7375
1490.05602	23837.4375
1493.44922	24133.6375
1496.84016	24480.5375
1500.22882	24963.2375
1503.61521	25632.8375
1506.99934	26402.7375
1510.38121	26908.9375
1513.76081	26971.8375
1517.13816	26324.6375
1520.51324	25475.0375
1523.88607	24783.1375
1527.25665	24391.7375
1530.62498	24239.3375
1533.99105	24113.8375
1537.35488	23915.7375
1540.71647	23567.8375
1544.07581	23104.0375
1547.4329	22593.0375
1550.78776	22179.9375
1554.14038	21936.8375
1557.49077	21745.1375
1560.83892	21721.4375
1564.18484	21831.4375
1567.52853	22067.4375
1570.86999	22526.6375
1574.20922	23215.3375
1577.54624	23897.8375
1580.88103	24263.6375
1584.2136	24223.8375
1587.54395	24217.1375
1590.87208	24411.6375
1594.19801	25077.9375
1597.52172	25942.6375
1600.84321	26254.8375
1604.16251	25506.9375
1607.47959	24002.2375
1610.79447	22342.5375
1614.10715	20787.8375
1617.41763	19559.3375
1620.7259	18756.7375
1624.03199	18309.5375
1627.33587	18244.9375
1630.63757	18556.1375
1633.93707	19357.2375
1637.23439	20693.9375
1640.52951	22717.5375
1643.82246	25188.4375
1647.11321	27331.5375
1650.40179	27979.7375
1653.68819	26554.1375
1656.97241	23930.6375
1660.25446	21188.6375
1663.53433	19073.2375
1666.81203	17685.2375
1670.08756	16756.6375
1673.36092	16183.0375
1676.63211	15797.6375
1679.90115	15525.1375
1683.16801	15319.1375
1686.43272	15190.7375
1689.69527	15118.2375
1692.95567	15022.9375
1696.2139	15007.6375
1699.46999	14972.5375
1702.72392	14944.9375
1705.97571	14889.4375
1709.22535	14846.7375
1712.47284	14810.3375
1715.71819	14814.2375
1718.96139	14785.9375
1722.20246	14724.5375
1725.44139	14708.8375
1728.67818	14614.4375
1731.91284	14554.7375
1735.14537	14512.3375
1738.37576	14469.9375
1741.60403	14473.9375
1744.83017	14429.1375
1748.05418	14390.4375
1751.27607	14367.8375
1754.49584	14390.6375
1757.71349	14393.5375
1760.92903	14378.8375
1764.14244	14378.9375
1767.35375	14376.6375
1770.56294	14326.4375
1773.77002	14300.4375
1776.97499	14306.0375
1780.17785	14261.4375
1783.37861	14222.6375
1786.57727	14207.0375
1789.77382	14175.2375
1792.96828	14169.1375
1796.16064	14142.6375
1799.3509	14117.1375
1802.53907	14084.9375
1805.72514	14024.0375
1808.90913	13995.0375
1812.09102	13991.5375
1815.27083	13970.5375
1818.44856	13958.8375
1821.6242	13938.7375
1824.79776	13946.4375
1827.96924	13936.7375
1831.13864	13907.9375
1834.30597	13928.0375
1837.47122	13900.1375
1840.6344	13919.3375
1843.7955	13911.7375
1846.95454	13888.6375
1850.11151	13888.0375
1853.26642	13874.1375
1856.41926	13854.0375
1859.57004	13845.2375
1862.71876	13856.3375
1865.86542	13857.2375
1869.01003	13855.7375
1872.15258	13808.8375
1875.29308	13821.6375
1878.43152	13772.0375
1881.56792	13772.1375
1884.70227	13755.1375
1887.83457	13762.4375
1890.96482	13749.4375
1894.09304	13711.7375
1897.21921	13726.0375
1900.34335	13708.3375
1903.46544	13700.5375
1906.58551	13670.3375
1909.70353	13620.2375
1912.81953	13639.4375
1915.93349	13607.8375
1919.04543	13584.4375
1922.15534	13575.5375
1925.26322	13505.5375
1928.36908	13523.6375
1931.47292	13533.2375
1934.57473	13499.3375
1937.67453	13463.4375
1940.77232	13410.9375
1943.86808	13417.8375
1946.96184	13380.0375
1950.05358	13338.3375
1953.14331	13307.7375
1956.23103	13248.8375
1959.31675	13245.2375
1962.40046	13198.9375
1965.48217	13178.4375
1968.56188	13121.8375
1971.63959	13101.0375
1974.7153	13069.4375
1977.78901	13023.2375
1980.86073	12990.5375
1983.93046	12944.8375
1986.99819	12912.9375
1990.06394	12908.5375
1993.1277	12828.5375
1996.18947	12799.5375
1999.24925	12796.9375
2002.30706	12730.4375
2005.36288	12736.7375
2008.41672	12672.0375
2011.46859	12678.0375
2014.51848	12648.6375
2017.56639	12606.9375
2020.61233	12569.2375
2023.6563	12548.4375
2026.6983	12529.9375
2029.73833	12504.2375
2032.7764	12494.8375
2035.8125	12451.8375
2038.84664	12418.4375
2041.87881	12414.7375
2044.90903	12404.8375
2047.93729	12379.0375
2050.96359	12366.5375
2053.98794	12344.4375
2057.01034	12351.7375
2060.03078	12355.5375
2063.04927	12318.4375
2066.06582	12312.7375
2069.08042	12323.2375
2072.09307	12304.3375
2075.10378	12283.7375
2078.11255	12266.5375
2081.11938	12282.9375
2084.12426	12287.1375
2087.12722	12293.3375
2090.12824	12283.7375
2093.12732	12283.5375
2096.12447	12313.8375
2099.11969	12285.7375
2102.11299	12313.3375
2105.10435	12319.1375
2108.09379	12318.5375
2111.08131	12348.7375
2114.0669	12347.8375
2117.05057	12346.3375
2120.03233	12321.3375
2123.01216	12366.8375
2125.99008	12378.7375
2128.96609	12399.6375
2131.94018	12409.2375
2134.91236	12405.4375
2137.88263	12415.1375
2140.851	12417.9375
2143.81746	12426.7375
2146.78201	12436.2375
2149.74466	12446.4375
2152.7054	12470.3375
2155.66425	12470.3375
2158.6212	12474.4375
2161.57625	12470.7375
2164.52941	12460.1375
2167.48067	12450.7375
2170.43004	12446.3375
2173.37752	12445.3375
2176.32311	12463.4375
2179.26681	12453.8375
2182.20863	12460.0375
2185.14856	12447.2375
2188.08661	12422.8375
2191.02278	12436.5375
2193.95707	12409.2375
2196.88948	12441.3375
2199.82001	12428.9375
2202.74867	12416.6375
2205.67545	12440.3375
2208.60037	12417.5375
2211.52341	12416.6375
2214.44458	12376.3375
2217.36388	12352.0375
2220.28132	12320.1375
2223.1969	12288.6375
2226.11061	12289.5375
2229.02246	12274.5375
2231.93245	12270.1375
2234.84058	12221.0375
2237.74686	12226.6375
2240.65128	12238.9375
2243.55385	12205.4375
2246.45456	12153.6375
2249.35343	12158.8375
2252.25044	12164.9375
2255.14561	12136.3375
2258.03893	12133.0375
2260.93041	12101.5375
2263.82004	12083.1375
2266.70783	12051.0375
2269.59378	12017.8375
2272.4779	12021.5375
2275.36017	11976.4375
2278.24061	11966.3375
2281.11922	11924.7375
2283.996	11925.8375
2286.87094	11913.6375
2289.74405	11888.0375
2292.61534	11865.7375
2295.4848	11883.0375
2298.35243	11897.9375
2301.21824	11880.8375
2304.08223	11839.3375
2306.94439	11867.0375
2309.80474	11833.2375
2312.66327	11872.7375
2315.51999	11858.8375
2318.37489	11858.7375
2321.22797	11837.0375
2324.07925	11833.0375
2326.92871	11821.8375
2329.77637	11812.2375
2332.62222	11801.3375
2335.46626	11770.6375
2338.3085	11758.3375
2341.14893	11758.6375
2343.98756	11731.5375
2346.8244	11720.3375
2349.65943	11716.9375
2352.49267	11722.2375
2355.32411	11703.9375
2358.15376	11692.2375
2360.98161	11713.9375
2363.80768	11700.5375
2366.63195	11712.1375
2369.45444	11707.1375
2372.27514	11680.1375
2375.09405	11678.7375
2377.91118	11650.7375
2380.72652	11633.9375
2383.54009	11583.8375
2386.35187	11604.3375
2389.16188	11566.5375
2391.97011	11560.5375
2394.77657	11526.9375
2397.58125	11505.3375
2400.38416	11476.6375
2403.18529	11480.1375
2405.98466	11480.1375
2408.78226	11461.9375
2411.57809	11437.3375
2414.37216	11433.0375
2417.16446	11407.8375
2419.955	11380.5375
2422.74378	11387.2375
2425.5308	11362.6375
2428.31606	11378.8375
2431.09956	11366.5375
2433.88131	11350.0375
2436.6613	11350.4375
2439.43954	11354.5375
2442.21603	11336.9375
2444.99077	11320.4375
2447.76377	11345.3375
2450.53501	11318.6375
2453.30451	11311.5375
2456.07226	11292.3375
2458.83827	11309.7375
2461.60254	11290.9375
2464.36507	11298.6375
2467.12586	11295.9375
2469.88492	11279.6375
2472.64224	11285.7375
2475.39782	11268.2375
2478.15167	11265.7375
2480.90379	11264.7375
2483.65417	11272.0375
2486.40283	11290.9375
2489.14976	11282.1375
2491.89497	11249.7375
2494.63845	11278.1375
2497.3802	11247.3375
2500.12024	11242.7375
2502.85855	11233.9375
2505.59514	11225.8375
2508.33002	11218.8375
2511.06318	11219.9375
2513.79462	11204.1375
2516.52435	11181.8375
2519.25237	11194.0375
2521.97867	11149.0375
2524.70327	11166.8375
2527.42616	11150.0375
2530.14734	11133.0375
2532.86681	11126.9375
2535.58458	11139.6375
2538.30065	11126.1375
2541.01501	11098.7375
2543.72768	11114.6375
2546.43864	11095.0375
2549.14791	11071.7375
2551.85548	11047.7375
2554.56136	11027.1375
2557.26554	11025.8375
2559.96803	11015.3375
2562.66883	10999.1375
2565.36794	10978.0375
2568.06536	11005.9375
2570.7611	10995.0375
2573.45514	10994.3375
2576.14751	10978.7375
2578.83819	10950.7375
2581.52719	10944.8375
2584.21451	10925.4375
2586.90015	10910.9375
2589.58411	10906.0375
2592.2664	10888.5375
2594.94701	10855.7375
2597.62594	10886.7375
2600.30321	10840.1375
2602.9788	10845.2375
2605.65273	10826.2375
2608.32498	10784.6375
2610.99557	10802.7375
2613.66449	10792.8375
2616.33175	10771.7375
2618.99734	10790.4375
2621.66128	10762.7375
2624.32355	10747.1375
2626.98416	10724.4375
2629.64311	10746.0375
2632.30041	10757.4375
2634.95605	10725.2375
2637.61004	10737.7375
2640.26238	10704.5375
2642.91306	10709.4375
2645.56209	10693.1375
2648.20948	10691.1375
2650.85521	10664.4375
2653.4993	10688.1375
2656.14175	10676.2375
2658.78255	10704.6375
2661.42171	10685.9375
2664.05923	10683.5375
2666.6951	10695.2375
2669.32934	10700.3375
2671.96194	10702.7375
2674.59291	10686.6375
2677.22224	10699.6375
2679.84993	10723.1375
2682.476	10669.3375
2685.10043	10701.1375
2687.72324	10672.4375
2690.34441	10696.4375
2692.96396	10696.2375
2695.58188	10702.0375
2698.19818	10699.3375
2700.81285	10689.1375
2703.4259	10718.0375
2706.03733	10770.6375
2708.64714	10762.9375
2711.25533	10769.3375
2713.86191	10740.8375
2716.46687	10739.0375
2719.07021	10729.6375
2721.67194	10747.7375
2724.27206	10712.4375
2726.87057	10739.2375
2729.46747	10755.7375
2732.06276	10754.6375
2734.65644	10750.6375
2737.24852	10741.1375
2739.83899	10721.7375
2742.42786	10708.0375
2745.01513	10718.6375
2747.60079	10712.2375
2750.18486	10673.8375
2752.76733	10664.5375
2755.3482	10686.8375
2757.92747	10669.3375
2760.50515	10683.1375
2763.08123	10658.1375
2765.65573	10646.5375
2768.22863	10648.9375
2770.79994	10620.5375
2773.36967	10640.3375
2775.9378	10621.4375
2778.50435	10584.1375
2781.06932	10582.3375
2783.6327	10611.6375
2786.1945	10600.9375
2788.75471	10583.8375
2791.31335	10572.6375
2793.87041	10545.7375
2796.42589	10514.0375
2798.97979	10509.5375
2801.53212	10491.0375
2804.08288	10506.1375
2806.63206	10469.7375
2809.17967	10441.9375
2811.72571	10439.6375
2814.27018	10428.0375
2816.81308	10402.2375
2819.35442	10398.9375
2821.89419	10390.2375
2824.43239	10361.8375
2826.96904	10339.7375
2829.50412	10377.2375
2832.03763	10344.5375
2834.56959	10357.5375
2837.1	10338.3375
2839.62884	10362.1375
2842.15613	10346.9375
2844.68186	10379.4375
2847.20604	10387.3375
2849.72867	10403.6375
2852.24974	10393.1375
2854.76927	10391.8375
2857.28724	10374.8375
2859.80367	10352.9375
2862.31855	10348.4375
2864.83189	10339.6375
2867.34368	10342.5375
2869.85393	10295.5375
2872.36264	10316.9375
2874.8698	10301.7375
2877.37543	10324.6375
2879.87952	10318.8375
2882.38207	10321.7375
2884.88308	10317.7375
2887.38256	10350.1375
2889.88051	10321.8375
2892.37692	10328.7375
2894.8718	10316.7375
2897.36515	10332.3375
2899.85698	10337.5375
2902.34727	10342.6375
2904.83604	10355.2375
2907.32328	10384.5375
2909.809	10387.0375
2912.29319	10383.3375
2914.77587	10359.5375
2917.25702	10360.3375
2919.73665	10342.1375
2922.21476	10361.8375
2924.69136	10360.5375
2927.16644	10372.2375
2929.64	10342.2375
2932.11205	10342.7375
2934.58258	10319.3375
2937.05161	10347.7375
2939.51912	10365.2375
2941.98513	10332.3375
2944.44962	10308.8375
2946.91261	10291.2375
2949.37409	10301.3375
2951.83407	10283.8375
2954.29254	10270.4375
2956.74951	10246.2375
2959.20498	10271.9375
2961.65895	10225.3375
2964.11142	10232.3375
2966.56239	10213.1375
2969.01186	10213.4375
2971.45984	10195.2375
2973.90632	10170.9375
2976.35131	10142.1375
2978.7948	10149.9375
2981.23681	10107.8375
2983.67732	10123.2375
2986.11635	10094.7375
2988.55388	10066.8375
2990.98993	10062.6375
2993.4245	10055.2375
2995.85758	10031.4375
2998.28917	10008.1375
3000.71928	10001.0375
3003.14791	9962.9375
3005.57506	9991.0375
3008.00073	9965.5375
3010.42493	9968.5375
3012.84764	9947.7375
3015.26888	9921.5375
3017.68865	9915.7375
3020.10694	9900.1375
3022.52376	9871.3375
3024.9391	9864.9375
3027.35298	9837.6375
3029.76539	9841.3375
3032.17632	9846.0375
3034.5858	9833.4375
3036.9938	9852.2375
3039.40034	9809.1375
3041.80542	9824.4375
3044.20903	9802.2375
3046.61118	9820.5375
3049.01187	9801.6375
3051.4111	9784.3375
3053.80888	9744.6375
3056.20519	9756.4375
3058.60005	9730.2375
3060.99345	9715.7375
3063.3854	9726.7375
3065.7759	9697.4375
3068.16494	9700.3375
3070.55254	9664.3375
3072.93868	9646.0375
3075.32338	9634.2375
3077.70662	9632.6375
3080.08842	9612.2375
3082.46878	9588.2375
3084.84769	9582.7375
3087.22515	9579.7375
3089.60118	9619.8375
3091.97576	9591.2375
3094.3489	9619.4375
3096.72061	9613.3375
3099.09087	9600.3375
3101.4597	9596.4375
3103.82709	9601.6375
3106.19305	9572.5375
3108.55757	9584.4375
3110.92066	9557.4375
3113.28232	9546.9375
3115.64255	9523.6375
3118.00134	9513.2375
3120.35871	9525.4375
3122.71466	9526.9375
3125.06917	9481.1375
3127.42226	9478.4375
3129.77393	9497.7375
3132.12417	9491.0375
3134.47299	9501.9375
3136.82039	9484.0375
3139.16636	9514.1375
3141.51092	9505.3375
3143.85406	9508.0375
3146.19579	9499.5375
3148.53609	9504.3375
3150.87499	9519.9375
3153.21246	9531.7375
3155.54853	9551.3375
3157.88318	9539.9375
3160.21642	9545.7375
3162.54826	9528.7375
3164.87868	9539.7375
3167.2077	9557.8375
3169.5353	9549.5375
3171.86151	9546.0375
3174.18631	9552.2375
3176.5097	9532.7375
3178.83169	9532.2375
3181.15228	9523.9375
3183.47147	9515.2375
3185.78926	9517.3375
3188.10565	9513.8375
3190.42065	9521.5375
3192.73424	9530.6375
3195.04645	9513.4375
3197.35725	9524.5375
3199.66667	9537.2375
3201.97469	9537.3375
3204.28132	9514.3375
3206.58656	9544.3375
3208.8904	9559.9375
3211.19287	9538.8375
3213.49394	9544.5375
3215.79363	9535.4375
3218.09193	9538.5375
3220.38884	9541.5375
3222.68438	9587.9375
3224.97853	9547.5375
3227.2713	9532.8375
3229.56269	9508.1375
3231.8527	9533.8375
3234.14133	9512.2375
3236.42858	9482.7375
3238.71446	9475.8375
3240.99896	9471.9375
3243.28209	9474.1375
3245.56384	9462.0375
3247.84423	9497.3375
3250.12324	9453.9375
3252.40088	9472.1375
3254.67715	9468.2375
3256.95205	9448.4375
3259.22558	9452.0375
3261.49775	9445.5375
3263.76855	9428.8375
3266.03799	9407.2375
3268.30606	9386.0375
3270.57277	9362.7375
3272.83812	9356.7375
3275.10211	9339.7375
3277.36474	9346.7375
3279.62601	9326.1375
3281.88593	9328.1375
3284.14448	9340.9375
3286.40168	9346.9375
3288.65753	9333.8375
3290.91202	9312.6375
3293.16516	9297.3375
3295.41695	9274.6375
3297.66738	9206.5375
3299.91647	9178.2375
3302.16421	9106.5375
3304.4106	9102.3375
3306.65564	9049.0375
3308.89933	8984.4375
3311.14169	8936.6375
3313.38269	8894.7375
3315.62236	8839.7375
3317.86068	8745.9375
3320.09766	8662.7375
3322.3333	8607.9375
3324.5676	8622.7375
3326.80056	8461.6375
3329.03219	8444.2375
3331.26248	2.7375
3333.49143	0.4375
3335.71905	-2.3625
