Data from AgNP_FTO_APTES_CRN_1uM_R6G_10uM_NaF_0.1M_Addition_RamanShift__5__13-51-20-784.txt Node

Date: Wed Dec 15 13:51:20 GMT 2021
User: TCL
Spectrometer: QEP01345
Trigger mode: 4
Integration Time (sec): 7.000000E0
Scans to average: 10
Electric dark correction enabled: true
Nonlinearity correction enabled: false
Boxcar width: 0
XAxis mode: Raman Shifts
Number of Pixels in Spectrum: 1044
>>>>>Begin Spectral Data<<<<<
46.04893	-0.3625
50.45542	-3.2625
54.85868	-0.3625
59.25871	-1.3625
63.6555	166.8375
68.04907	180.0375
72.43941	181.3375
76.82654	194.7375
81.21044	203.6375
85.59113	211.2375
89.96862	217.8375
94.34289	220.8375
98.71396	228.5375
103.08183	240.3375
107.4465	247.4375
111.80798	251.1375
116.16626	254.1375
120.52136	259.9375
124.87327	266.8375
129.222	278.6375
133.56755	294.2375
137.90993	312.6375
142.24913	339.3375
146.58517	377.9375
150.91804	436.5375
155.24774	513.2375
159.57429	627.1375
163.89768	798.6375
168.21792	1050.0375
172.53501	1401.2375
176.84895	1950.0375
181.15975	2711.7375
185.46741	3789.2375
189.77193	5219.9375
194.07331	6936.1375
198.37157	8938.4375
202.6667	11017.9375
206.9587	13085.2375
211.24758	15099.7375
215.53334	17166.8375
219.81599	19377.6375
224.09553	21772.7375
228.37195	24444.5375
232.64527	27276.9375
236.91549	30334.8375
241.18261	33307.2375
245.44663	36159.3375
249.70755	38600.1375
253.96539	40859.0375
258.22014	42687.9375
262.4718	44233.0375
266.72039	45270.3375
270.96589	45718.0375
275.20832	45737.7375
279.44768	45415.2375
283.68397	44931.8375
287.91719	44510.7375
292.14735	44271.6375
296.37445	44218.4375
300.59849	44242.9375
304.81948	44404.9375
309.03742	44572.0375
313.25231	44456.5375
317.46415	44093.1375
321.67296	43512.0375
325.87872	42998.2375
330.08145	42753.9375
334.28114	42789.2375
338.47781	43018.5375
342.67145	43535.6375
346.86207	44165.6375
351.04966	44986.6375
355.23424	45897.8375
359.4158	46681.4375
363.59435	47356.8375
367.76989	47858.3375
371.94243	48191.7375
376.11196	48449.5375
380.27849	48605.9375
384.44203	48921.1375
388.60257	49364.2375
392.76012	49836.8375
396.91468	50511.6375
401.06626	51326.6375
405.21485	51938.7375
409.36047	52188.4375
413.50311	52275.1375
417.64277	52587.9375
421.77947	53077.1375
425.9132	53479.2375
430.04396	53706.3375
434.17176	53980.8375
438.2966	54163.7375
442.41849	54965.9375
446.53742	56607.8375
450.6534	58421.5375
454.76644	59799.0375
458.87653	60050.5375
462.98368	59231.6375
467.08789	57983.7375
471.18916	56444.6375
475.2875	54846.1375
479.38291	53669.4375
483.4754	52956.5375
487.56496	52502.3375
491.6516	52164.6375
495.73531	51963.2375
499.81612	52153.0375
503.89401	52789.7375
507.96899	53187.9375
512.04106	53145.9375
516.11023	52759.6375
520.1765	52264.9375
524.23987	51943.5375
528.30034	51649.3375
532.35792	51109.5375
536.41261	50334.8375
540.46441	49582.8375
544.51333	49363.3375
548.55936	49773.3375
552.60252	50705.1375
556.64279	51750.2375
560.6802	52674.4375
564.71473	53206.4375
568.7464	53886.8375
572.7752	55325.9375
576.80114	57326.2375
580.82422	60086.9375
584.84444	63505.2375
588.86181	67274.4375
592.87633	69749.7375
596.888	68761.7375
600.89682	65109.0375
604.9028	63996.7375
608.90594	66867.9375
612.90624	69440.0375
616.90371	64961.6375
620.89834	56654.7375
624.89015	52926.3375
628.87913	52276.6375
632.86528	52000.2375
636.84862	51276.0375
640.82913	50078.9375
644.80683	48983.4375
648.78172	48550.0375
652.75379	48814.7375
656.72306	49515.8375
660.68952	50138.4375
664.65319	49751.0375
668.61405	49056.8375
672.57211	49064.0375
676.52738	49395.7375
680.47986	49272.3375
684.42955	48845.2375
688.37646	48766.6375
692.32058	49259.8375
696.26192	50255.1375
700.20048	51192.7375
704.13626	51636.5375
708.06928	51394.3375
711.99952	51150.6375
715.927	51404.7375
719.85171	51900.9375
723.77365	51762.4375
727.69284	50784.1375
731.60928	49872.4375
735.52295	49450.8375
739.43388	49463.1375
743.34206	49688.2375
747.24749	50050.2375
751.15017	50594.4375
755.05012	51389.0375
758.94733	52758.8375
762.8418	54834.7375
766.73354	57594.1375
770.62254	59888.7375
774.50882	59571.2375
778.39237	57040.7375
782.27321	53963.6375
786.15132	51621.6375
790.02671	50329.2375
793.89938	49757.7375
797.76935	49756.2375
801.6366	49832.2375
805.50115	49927.1375
809.36299	49630.7375
813.22213	49106.4375
817.07857	48652.8375
820.93231	48340.4375
824.78336	48113.1375
828.63172	47977.3375
832.47738	47977.3375
836.32036	48155.4375
840.16066	48509.8375
843.99827	48775.1375
847.8332	48656.0375
851.66546	48427.0375
855.49504	48324.6375
859.32195	48317.5375
863.1462	48123.5375
866.96777	47813.5375
870.78668	47745.8375
874.60293	47773.9375
878.41652	47875.5375
882.22745	48119.6375
886.03573	48259.6375
889.84136	48282.1375
893.64433	47940.3375
897.44466	47634.0375
901.24235	47582.5375
905.0374	47526.2375
908.8298	47486.1375
912.61957	47666.2375
916.40671	48222.4375
920.19121	48952.3375
923.97308	49873.6375
927.75233	50174.2375
931.52895	49745.9375
935.30295	48899.7375
939.07433	48054.6375
942.84309	47532.7375
946.60924	47558.9375
950.37278	47566.2375
954.13371	47513.3375
957.89203	47301.8375
961.64774	47174.3375
965.40086	47160.8375
969.15137	47086.6375
972.89929	46935.6375
976.64461	46919.8375
980.38733	47012.7375
984.12747	47311.9375
987.86502	47763.4375
991.59999	48444.7375
995.33237	49449.6375
999.06217	51113.0375
1002.78939	53269.0375
1006.51404	54994.4375
1010.23611	56205.2375
1013.95561	56593.4375
1017.67255	56343.1375
1021.38692	55300.5375
1025.09872	54416.7375
1028.80796	54922.6375
1032.51465	56851.3375
1036.21877	58731.6375
1039.92035	59132.5375
1043.61937	58243.9375
1047.31584	56631.9375
1051.00976	54793.2375
1054.70114	53609.5375
1058.38998	53349.9375
1062.07627	53562.8375
1065.76003	54063.0375
1069.44126	54977.5375
1073.11995	56456.8375
1076.79611	57648.3375
1080.46974	58061.3375
1084.14085	58057.2375
1087.80943	57926.2375
1091.47549	57720.2375
1095.13903	57330.4375
1098.80005	56246.8375
1102.45857	54962.2375
1106.11456	54077.5375
1109.76805	53691.3375
1113.41903	53645.8375
1117.06751	53766.5375
1120.71348	53967.8375
1124.35696	54222.1375
1127.99793	54641.4375
1131.63641	55161.4375
1135.2724	55376.4375
1138.90589	55525.3375
1142.5369	55875.0375
1146.16542	56261.6375
1149.79145	56663.1375
1153.415	57176.7375
1157.03607	58216.2375
1160.65467	60425.1375
1164.27079	63943.9375
1167.88443	67708.3375
1171.49561	71189.4375
1175.10432	75037.8375
1178.71056	80511.7375
1182.31434	86003.3375
1185.91565	88578.4375
1189.51451	87798.9375
1193.11091	84782.0375
1196.70485	81544.6375
1200.29634	78903.9375
1203.88538	77468.0375
1207.47197	77100.6375
1211.05612	76489.2375
1214.63782	75348.4375
1218.21708	73664.0375
1221.79391	71994.8375
1225.36829	70680.6375
1228.94024	69427.8375
1232.50976	67775.0375
1236.07685	66411.0375
1239.6415	65634.0375
1243.20374	65631.6375
1246.76355	66420.7375
1250.32093	67953.5375
1253.8759	69866.0375
1257.42845	72124.2375
1260.97859	74479.0375
1264.52631	76841.0375
1268.07163	79505.2375
1271.61453	82247.6375
1275.15503	85168.1375
1278.69312	88134.7375
1282.22882	90795.2375
1285.76211	93953.5375
1289.29301	97235.8375
1292.82151	101193.2375
1296.34761	106397.1375
1299.87133	113585.1375
1303.39266	121371.7375
1306.9116	128235.6375
1310.42815	132760.4375
1313.94233	134140.1375
1317.45412	132341.3375
1320.96354	128825.1375
1324.47058	126057.5375
1327.97525	124477.7375
1331.47754	123983.6375
1334.97747	123462.5375
1338.47502	121654.4375
1341.97022	118033.7375
1345.46305	113402.4375
1348.95352	110334.2375
1352.44163	110800.5375
1355.92738	115465.4375
1359.41078	122532.3375
1362.89183	127360.9375
1366.37053	126153.0375
1369.84688	117523.2375
1373.32088	104717.5375
1376.79254	95013.3375
1380.26186	91559.5375
1383.72883	91889.9375
1387.19347	92017.5375
1390.65578	90409.4375
1394.11575	89446.0375
1397.57339	90376.3375
1401.0287	92658.1375
1404.48168	95215.0375
1407.93234	96630.8375
1411.38068	96135.0375
1414.82669	93906.2375
1418.27039	90385.8375
1421.71177	86332.7375
1425.15083	82685.3375
1428.58758	81229.4375
1432.02203	82291.4375
1435.45416	85430.7375
1438.88399	88904.5375
1442.31151	91384.6375
1445.73673	92306.4375
1449.15965	92255.6375
1452.58027	91261.2375
1455.9986	89753.7375
1459.41463	89117.5375
1462.82837	90228.4375
1466.23982	92782.7375
1469.64898	95408.2375
1473.05586	97587.7375
1476.46045	98674.3375
1479.86276	98506.5375
1483.26279	97444.6375
1486.66054	96691.0375
1490.05602	96561.8375
1493.44922	96465.3375
1496.84016	95579.5375
1500.22882	94505.5375
1503.61521	94059.8375
1506.99934	94183.3375
1510.38121	94369.7375
1513.76081	93901.9375
1517.13816	92491.1375
1520.51324	91033.2375
1523.88607	90518.6375
1527.25665	91461.1375
1530.62498	92702.6375
1533.99105	93394.2375
1537.35488	92886.0375
1540.71647	91329.5375
1544.07581	89146.2375
1547.4329	86766.7375
1550.78776	84425.6375
1554.14038	82404.5375
1557.49077	80949.5375
1560.83892	79730.7375
1564.18484	78899.7375
1567.52853	78621.7375
1570.86999	79334.9375
1574.20922	81134.6375
1577.54624	83487.3375
1580.88103	85557.3375
1584.2136	88479.3375
1587.54395	93329.9375
1590.87208	100303.0375
1594.19801	108610.2375
1597.52172	115730.8375
1600.84321	117159.3375
1604.16251	110387.7375
1607.47959	98965.3375
1610.79447	87189.1375
1614.10715	77512.4375
1617.41763	70796.1375
1620.7259	66897.7375
1624.03199	65377.1375
1627.33587	65968.8375
1630.63757	68549.8375
1633.93707	73742.5375
1637.23439	81969.7375
1640.52951	93896.3375
1643.82246	107624.5375
1647.11321	117076.9375
1650.40179	115757.0375
1653.68819	103597.0375
1656.97241	87235.7375
1660.25446	73337.2375
1663.53433	64099.3375
1666.81203	58506.5375
1670.08756	55119.7375
1673.36092	52995.8375
1676.63211	51569.1375
1679.90115	50534.2375
1683.16801	49767.1375
1686.43272	49171.3375
1689.69527	48765.4375
1692.95567	48487.7375
1696.2139	48272.6375
1699.46999	48196.6375
1702.72392	47944.6375
1705.97571	47867.4375
1709.22535	47819.6375
1712.47284	47766.9375
1715.71819	47678.6375
1718.96139	47541.2375
1722.20246	47404.4375
1725.44139	47235.6375
1728.67818	47026.5375
1731.91284	46736.8375
1735.14537	46477.1375
1738.37576	46279.4375
1741.60403	46130.4375
1744.83017	45992.6375
1748.05418	45864.2375
1751.27607	45785.2375
1754.49584	45639.4375
1757.71349	45658.4375
1760.92903	45610.0375
1764.14244	45650.9375
1767.35375	45639.4375
1770.56294	45604.8375
1773.77002	45533.5375
1776.97499	45475.6375
1780.17785	45475.4375
1783.37861	45466.5375
1786.57727	45382.6375
1789.77382	45267.1375
1792.96828	45192.9375
1796.16064	45137.1375
1799.3509	45073.1375
1802.53907	45030.1375
1805.72514	44904.3375
1808.90913	44751.2375
1812.09102	44728.9375
1815.27083	44607.3375
1818.44856	44609.6375
1821.6242	44599.1375
1824.79776	44575.3375
1827.96924	44544.2375
1831.13864	44498.6375
1834.30597	44504.3375
1837.47122	44576.4375
1840.6344	44595.3375
1843.7955	44616.3375
1846.95454	44539.0375
1850.11151	44576.0375
1853.26642	44584.7375
1856.41926	44563.3375
1859.57004	44536.9375
1862.71876	44527.4375
1865.86542	44520.3375
1869.01003	44547.3375
1872.15258	44601.5375
1875.29308	44517.1375
1878.43152	44452.9375
1881.56792	44421.7375
1884.70227	44442.0375
1887.83457	44468.3375
1890.96482	44453.1375
1894.09304	44349.6375
1897.21921	44318.6375
1900.34335	44256.5375
1903.46544	44194.2375
1906.58551	44145.6375
1909.70353	44138.7375
1912.81953	44074.6375
1915.93349	44015.5375
1919.04543	43949.1375
1922.15534	43934.4375
1925.26322	43821.5375
1928.36908	43719.0375
1931.47292	43687.5375
1934.57473	43541.5375
1937.67453	43460.8375
1940.77232	43317.2375
1943.86808	43251.0375
1946.96184	43142.6375
1950.05358	43040.3375
1953.14331	42902.1375
1956.23103	42803.4375
1959.31675	42784.9375
1962.40046	42638.2375
1965.48217	42516.7375
1968.56188	42408.6375
1971.63959	42321.2375
1974.7153	42196.2375
1977.78901	42093.9375
1980.86073	41966.3375
1983.93046	41830.0375
1986.99819	41719.0375
1990.06394	41659.1375
1993.1277	41621.7375
1996.18947	41462.7375
1999.24925	41372.5375
2002.30706	41268.3375
2005.36288	41100.3375
2008.41672	41049.1375
2011.46859	40935.4375
2014.51848	40906.0375
2017.56639	40838.0375
2020.61233	40734.2375
2023.6563	40616.4375
2026.6983	40620.3375
2029.73833	40590.1375
2032.7764	40550.2375
2035.8125	40544.6375
2038.84664	40476.3375
2041.87881	40423.1375
2044.90903	40343.3375
2047.93729	40326.8375
2050.96359	40315.1375
2053.98794	40219.3375
2057.01034	40189.9375
2060.03078	40166.0375
2063.04927	40137.9375
2066.06582	40090.5375
2069.08042	40108.3375
2072.09307	40055.6375
2075.10378	40024.1375
2078.11255	39981.8375
2081.11938	39994.0375
2084.12426	39982.1375
2087.12722	39908.2375
2090.12824	39926.8375
2093.12732	39946.3375
2096.12447	40003.4375
2099.11969	39975.0375
2102.11299	40028.1375
2105.10435	40000.0375
2108.09379	40024.8375
2111.08131	40038.0375
2114.0669	40072.1375
2117.05057	40120.0375
2120.03233	40156.8375
2123.01216	40174.2375
2125.99008	40195.8375
2128.96609	40205.7375
2131.94018	40278.3375
2134.91236	40318.4375
2137.88263	40300.5375
2140.851	40359.6375
2143.81746	40402.3375
2146.78201	40461.8375
2149.74466	40442.7375
2152.7054	40467.2375
2155.66425	40533.2375
2158.6212	40565.9375
2161.57625	40535.2375
2164.52941	40499.4375
2167.48067	40516.5375
2170.43004	40494.1375
2173.37752	40439.1375
2176.32311	40448.9375
2179.26681	40508.2375
2182.20863	40469.2375
2185.14856	40545.4375
2188.08661	40545.2375
2191.02278	40614.0375
2193.95707	40540.8375
2196.88948	40529.9375
2199.82001	40645.5375
2202.74867	40562.0375
2205.67545	40537.6375
2208.60037	40475.2375
2211.52341	40513.1375
2214.44458	40477.3375
2217.36388	40382.3375
2220.28132	40390.9375
2223.1969	40322.3375
2226.11061	40271.4375
2229.02246	40227.0375
2231.93245	40229.0375
2234.84058	40134.8375
2237.74686	40060.4375
2240.65128	40084.7375
2243.55385	39993.2375
2246.45456	39992.5375
2249.35343	39885.3375
2252.25044	39822.2375
2255.14561	39670.1375
2258.03893	39720.4375
2260.93041	39642.6375
2263.82004	39495.8375
2266.70783	39463.9375
2269.59378	39343.0375
2272.4779	39297.1375
2275.36017	39212.2375
2278.24061	39113.3375
2281.11922	39058.7375
2283.996	39114.8375
2286.87094	39056.7375
2289.74405	38979.6375
2292.61534	38993.5375
2295.4848	39007.4375
2298.35243	39079.6375
2301.21824	39102.0375
2304.08223	39180.5375
2306.94439	39202.3375
2309.80474	39197.6375
2312.66327	39191.3375
2315.51999	39173.8375
2318.37489	39246.8375
2321.22797	39229.4375
2324.07925	39258.5375
2326.92871	39237.3375
2329.77637	39261.6375
2332.62222	39236.0375
2335.46626	39208.5375
2338.3085	39245.4375
2341.14893	39278.2375
2343.98756	39281.1375
2346.8244	39254.8375
2349.65943	39260.4375
2352.49267	39177.5375
2355.32411	39122.7375
2358.15376	39133.8375
2360.98161	39068.8375
2363.80768	39013.1375
2366.63195	38999.8375
2369.45444	38920.1375
2372.27514	38890.4375
2375.09405	38819.0375
2377.91118	38778.3375
2380.72652	38648.7375
2383.54009	38553.3375
2386.35187	38566.3375
2389.16188	38500.6375
2391.97011	38436.5375
2394.77657	38454.2375
2397.58125	38478.9375
2400.38416	38411.9375
2403.18529	38335.6375
2405.98466	38335.3375
2408.78226	38247.2375
2411.57809	38151.0375
2414.37216	38137.5375
2417.16446	38156.2375
2419.955	38066.9375
2422.74378	38016.3375
2425.5308	38004.7375
2428.31606	37993.3375
2431.09956	37940.8375
2433.88131	37912.8375
2436.6613	37899.2375
2439.43954	37935.4375
2442.21603	37885.8375
2444.99077	37889.7375
2447.76377	37909.5375
2450.53501	37887.5375
2453.30451	37976.6375
2456.07226	37906.7375
2458.83827	37952.1375
2461.60254	37954.0375
2464.36507	37925.7375
2467.12586	37920.7375
2469.88492	37952.1375
2472.64224	38031.8375
2475.39782	38012.6375
2478.15167	38082.8375
2480.90379	38092.0375
2483.65417	38155.0375
2486.40283	38134.0375
2489.14976	38115.1375
2491.89497	38063.6375
2494.63845	38148.7375
2497.3802	38154.9375
2500.12024	38161.2375
2502.85855	38170.7375
2505.59514	38230.4375
2508.33002	38166.0375
2511.06318	38070.9375
2513.79462	38058.6375
2516.52435	38108.3375
2519.25237	38129.9375
2521.97867	38087.4375
2524.70327	38116.3375
2527.42616	38071.4375
2530.14734	38030.4375
2532.86681	38033.5375
2535.58458	38040.9375
2538.30065	38016.7375
2541.01501	37995.9375
2543.72768	37961.0375
2546.43864	37926.0375
2549.14791	37926.2375
2551.85548	37928.8375
2554.56136	37938.6375
2557.26554	37897.3375
2559.96803	37914.0375
2562.66883	37914.6375
2565.36794	37895.8375
2568.06536	37904.4375
2570.7611	37916.8375
2573.45514	37873.5375
2576.14751	37894.8375
2578.83819	37911.1375
2581.52719	37931.3375
2584.21451	37887.1375
2586.90015	37927.3375
2589.58411	37823.8375
2592.2664	37861.6375
2594.94701	37821.4375
2597.62594	37804.7375
2600.30321	37823.3375
2602.9788	37832.4375
2605.65273	37726.7375
2608.32498	37791.6375
2610.99557	37821.3375
2613.66449	37859.9375
2616.33175	37821.5375
2618.99734	37882.6375
2621.66128	37815.2375
2624.32355	37864.5375
2626.98416	37851.5375
2629.64311	37798.4375
2632.30041	37751.4375
2634.95605	37747.7375
2637.61004	37681.0375
2640.26238	37681.9375
2642.91306	37674.8375
2645.56209	37618.3375
2648.20948	37629.2375
2650.85521	37623.9375
2653.4993	37662.2375
2656.14175	37665.1375
2658.78255	37666.1375
2661.42171	37683.7375
2664.05923	37708.5375
2666.6951	37738.9375
2669.32934	37817.6375
2671.96194	37830.6375
2674.59291	37866.9375
2677.22224	37861.4375
2679.84993	37840.5375
2682.476	37790.0375
2685.10043	37822.2375
2687.72324	37783.2375
2690.34441	37760.8375
2692.96396	37736.1375
2695.58188	37790.1375
2698.19818	37761.8375
2700.81285	37706.8375
2703.4259	37730.5375
2706.03733	37804.9375
2708.64714	37806.2375
2711.25533	37927.0375
2713.86191	37877.2375
2716.46687	37962.4375
2719.07021	37904.7375
2721.67194	37964.3375
2724.27206	37947.8375
2726.87057	37988.6375
2729.46747	38015.2375
2732.06276	38041.5375
2734.65644	38026.6375
2737.24852	38028.9375
2739.83899	38052.4375
2742.42786	38181.5375
2745.01513	38109.2375
2747.60079	38173.2375
2750.18486	38123.5375
2752.76733	38136.4375
2755.3482	38131.5375
2757.92747	38083.1375
2760.50515	38038.4375
2763.08123	38081.7375
2765.65573	38045.1375
2768.22863	38067.5375
2770.79994	38009.2375
2773.36967	38085.1375
2775.9378	38094.5375
2778.50435	38062.0375
2781.06932	38008.4375
2783.6327	38005.2375
2786.1945	38016.7375
2788.75471	38006.1375
2791.31335	37988.1375
2793.87041	37894.3375
2796.42589	37770.9375
2798.97979	37751.3375
2801.53212	37652.3375
2804.08288	37659.4375
2806.63206	37563.1375
2809.17967	37593.6375
2811.72571	37512.4375
2814.27018	37465.0375
2816.81308	37426.8375
2819.35442	37399.0375
2821.89419	37309.1375
2824.43239	37258.3375
2826.96904	37208.2375
2829.50412	37212.0375
2832.03763	37106.1375
2834.56959	37117.3375
2837.1	37056.0375
2839.62884	37099.7375
2842.15613	37039.5375
2844.68186	37065.5375
2847.20604	36991.6375
2849.72867	36933.7375
2852.24974	36957.8375
2854.76927	36914.3375
2857.28724	36872.8375
2859.80367	36916.7375
2862.31855	36878.4375
2864.83189	36865.7375
2867.34368	36779.7375
2869.85393	36788.9375
2872.36264	36850.9375
2874.8698	36806.3375
2877.37543	36804.8375
2879.87952	36832.0375
2882.38207	36805.0375
2884.88308	36851.8375
2887.38256	36865.3375
2889.88051	36917.1375
2892.37692	36952.6375
2894.8718	36989.2375
2897.36515	37045.8375
2899.85698	37075.8375
2902.34727	37103.9375
2904.83604	37102.7375
2907.32328	37147.6375
2909.809	37150.0375
2912.29319	37216.1375
2914.77587	37171.5375
2917.25702	37151.3375
2919.73665	37116.0375
2922.21476	37154.1375
2924.69136	37132.7375
2927.16644	37166.5375
2929.64	37039.1375
2932.11205	37081.2375
2934.58258	36976.1375
2937.05161	37008.8375
2939.51912	37005.5375
2941.98513	36978.9375
2944.44962	36900.8375
2946.91261	36793.9375
2949.37409	36946.0375
2951.83407	36894.7375
2954.29254	36855.5375
2956.74951	36834.3375
2959.20498	36879.6375
2961.65895	36820.6375
2964.11142	36744.8375
2966.56239	36699.7375
2969.01186	36707.2375
2971.45984	36578.0375
2973.90632	36545.3375
2976.35131	36408.0375
2978.7948	36378.3375
2981.23681	36348.8375
2983.67732	36222.3375
2986.11635	36181.3375
2988.55388	36031.1375
2990.98993	35970.6375
2993.4245	35882.8375
2995.85758	35856.3375
2998.28917	35783.3375
3000.71928	35732.6375
3003.14791	35669.1375
3005.57506	35682.2375
3008.00073	35557.7375
3010.42493	35575.5375
3012.84764	35512.1375
3015.26888	35455.1375
3017.68865	35413.0375
3020.10694	35316.3375
3022.52376	35219.7375
3024.9391	35205.0375
3027.35298	35166.8375
3029.76539	35145.3375
3032.17632	35081.8375
3034.5858	35083.1375
3036.9938	35058.4375
3039.40034	35004.0375
3041.80542	34952.0375
3044.20903	34914.8375
3046.61118	34876.0375
3049.01187	34807.8375
3051.4111	34768.4375
3053.80888	34753.7375
3056.20519	34701.4375
3058.60005	34585.3375
3060.99345	34547.7375
3063.3854	34505.2375
3065.7759	34462.6375
3068.16494	34378.8375
3070.55254	34233.5375
3072.93868	34183.2375
3075.32338	34046.5375
3077.70662	34010.7375
3080.08842	33924.3375
3082.46878	33913.9375
3084.84769	33856.3375
3087.22515	33876.5375
3089.60118	33853.6375
3091.97576	33873.3375
3094.3489	33843.0375
3096.72061	33778.7375
3099.09087	33768.4375
3101.4597	33771.3375
3103.82709	33747.2375
3106.19305	33688.6375
3108.55757	33699.3375
3110.92066	33554.6375
3113.28232	33481.3375
3115.64255	33388.0375
3118.00134	33326.9375
3120.35871	33260.8375
3122.71466	33216.6375
3125.06917	33193.8375
3127.42226	33128.6375
3129.77393	33163.9375
3132.12417	33069.6375
3134.47299	33060.9375
3136.82039	33083.7375
3139.16636	33078.4375
3141.51092	33096.0375
3143.85406	33067.9375
3146.19579	33011.4375
3148.53609	33035.8375
3150.87499	33017.1375
3153.21246	32943.1375
3155.54853	32944.1375
3157.88318	32919.7375
3160.21642	32902.3375
3162.54826	32900.7375
3164.87868	32878.5375
3167.2077	32844.7375
3169.5353	32839.1375
3171.86151	32809.7375
3174.18631	32774.4375
3176.5097	32776.6375
3178.83169	32773.8375
3181.15228	32717.7375
3183.47147	32647.9375
3185.78926	32688.9375
3188.10565	32622.1375
3190.42065	32600.7375
3192.73424	32630.6375
3195.04645	32629.3375
3197.35725	32625.6375
3199.66667	32547.1375
3201.97469	32545.5375
3204.28132	32501.4375
3206.58656	32534.8375
3208.8904	32456.3375
3211.19287	32457.9375
3213.49394	32435.0375
3215.79363	32443.3375
3218.09193	32435.7375
3220.38884	32439.1375
3222.68438	32469.2375
3224.97853	32367.8375
3227.2713	32381.7375
3229.56269	32367.2375
3231.8527	32380.6375
3234.14133	32319.4375
3236.42858	32278.8375
3238.71446	32284.5375
3240.99896	32217.0375
3243.28209	32215.0375
3245.56384	32142.9375
3247.84423	32143.3375
3250.12324	32119.9375
3252.40088	32099.5375
3254.67715	32083.4375
3256.95205	31958.5375
3259.22558	31974.0375
3261.49775	31904.1375
3263.76855	31915.6375
3266.03799	31834.1375
3268.30606	31852.9375
3270.57277	31792.2375
3272.83812	31711.1375
3275.10211	31653.8375
3277.36474	31634.0375
3279.62601	31663.8375
3281.88593	31609.8375
3284.14448	31650.2375
3286.40168	31652.0375
3288.65753	31640.7375
3290.91202	31544.6375
3293.16516	31469.5375
3295.41695	31432.0375
3297.66738	31216.6375
3299.91647	31101.1375
3302.16421	30951.0375
3304.4106	30836.1375
3306.65564	30625.4375
3308.89933	30457.1375
3311.14169	30274.9375
3313.38269	30040.0375
3315.62236	29887.8375
3317.86068	29663.0375
3320.09766	29374.4375
3322.3333	29120.7375
3324.5676	29109.2375
3326.80056	28615.4375
3329.03219	28468.1375
3331.26248	6.1375
3333.49143	0.1375
3335.71905	-0.1625
