Data from AgNP_FTO_APTES_CRN_5uM_R6G_10uM_NaF_0.1M_Addition_RamanShift__12__15-39-57-911.txt Node

Date: Wed Dec 15 15:39:57 GMT 2021
User: TCL
Spectrometer: QEP01345
Trigger mode: 4
Integration Time (sec): 7.000000E0
Scans to average: 10
Electric dark correction enabled: true
Nonlinearity correction enabled: false
Boxcar width: 0
XAxis mode: Raman Shifts
Number of Pixels in Spectrum: 1044
>>>>>Begin Spectral Data<<<<<
46.04893	-0.175
50.45542	-1.975
54.85868	-1.175
59.25871	-0.675
63.6555	119.225
68.04907	131.025
72.43941	133.125
76.82654	139.125
81.21044	141.925
85.59113	147.625
89.96862	157.225
94.34289	157.125
98.71396	163.525
103.08183	171.625
107.4465	176.325
111.80798	178.925
116.16626	182.125
120.52136	189.425
124.87327	198.225
129.222	208.725
133.56755	220.725
137.90993	238.025
142.24913	263.625
146.58517	292.825
150.91804	340.725
155.24774	404.025
159.57429	509.225
163.89768	647.925
168.21792	853.325
172.53501	1162.725
176.84895	1609.925
181.15975	2251.425
185.46741	3154.525
189.77193	4362.825
194.07331	5833.225
198.37157	7497.525
202.6667	9284.025
206.9587	11031.625
211.24758	12738.025
215.53334	14413.325
219.81599	16178.825
224.09553	18095.125
228.37195	20244.925
232.64527	22655.225
236.91549	25215.725
241.18261	27768.925
245.44663	30270.225
249.70755	32544.725
253.96539	34568.225
258.22014	36240.725
262.4718	37564.425
266.72039	38462.225
270.96589	38906.325
275.20832	39010.125
279.44768	38846.425
283.68397	38535.725
287.91719	38240.025
292.14735	37972.425
296.37445	37858.725
300.59849	37793.525
304.81948	37807.825
309.03742	37755.625
313.25231	37512.825
317.46415	37173.925
321.67296	36610.125
325.87872	36180.925
330.08145	35999.525
334.28114	36077.625
338.47781	36393.525
342.67145	36763.025
346.86207	37193.125
351.04966	37702.725
355.23424	38214.025
359.4158	38723.625
363.59435	39154.025
367.76989	39462.725
371.94243	39711.025
376.11196	39854.225
380.27849	39901.125
384.44203	40006.725
388.60257	40309.825
392.76012	40722.525
396.91468	41274.325
401.06626	41857.825
405.21485	42308.025
409.36047	42373.525
413.50311	42205.225
417.64277	42233.325
421.77947	42509.825
425.9132	42903.825
430.04396	43172.325
434.17176	43299.425
438.2966	43400.025
442.41849	43577.225
446.53742	44275.825
450.6534	45123.825
454.76644	45746.025
458.87653	46134.925
462.98368	46096.825
467.08789	45789.225
471.18916	45336.525
475.2875	44691.325
479.38291	44300.425
483.4754	44033.525
487.56496	43678.225
491.6516	43293.625
495.73531	42985.725
499.81612	42922.925
503.89401	43273.525
507.96899	43667.225
512.04106	43884.625
516.11023	43846.925
520.1765	43458.525
524.23987	43026.525
528.30034	42584.025
532.35792	42212.925
536.41261	41771.025
540.46441	41546.125
544.51333	41594.025
548.55936	41964.925
552.60252	42664.125
556.64279	43298.925
560.6802	43759.425
564.71473	44159.725
568.7464	44770.425
572.7752	45910.025
576.80114	47489.225
580.82422	49252.225
584.84444	51101.125
588.86181	53008.425
592.87633	54232.225
596.888	53530.525
600.89682	51452.225
604.9028	50832.525
608.90594	52184.525
612.90624	53283.825
616.90371	50361.025
620.89834	45529.425
624.89015	43505.325
628.87913	43588.425
632.86528	43858.225
636.84862	43805.525
640.82913	43207.925
644.80683	42361.425
648.78172	41943.725
652.75379	41900.325
656.72306	42292.225
660.68952	42639.525
664.65319	42470.925
668.61405	42081.825
672.57211	42107.625
676.52738	42229.025
680.47986	42187.025
684.42955	41970.325
688.37646	41852.725
692.32058	42110.225
696.26192	42589.725
700.20048	43039.825
704.13626	43328.625
708.06928	43587.725
711.99952	43548.225
715.927	43489.425
719.85171	43406.625
723.77365	43152.325
727.69284	42617.425
731.60928	42091.725
735.52295	41788.225
739.43388	41678.325
743.34206	41775.125
747.24749	42040.925
751.15017	42464.325
755.05012	43122.825
758.94733	44115.125
762.8418	45589.125
766.73354	47802.425
770.62254	49502.625
774.50882	49371.725
778.39237	47667.625
782.27321	45592.625
786.15132	43890.725
790.02671	42851.025
793.89938	42210.125
797.76935	41928.725
801.6366	41885.425
805.50115	41834.125
809.36299	41607.725
813.22213	41375.125
817.07857	41170.725
820.93231	41036.225
824.78336	40869.025
828.63172	40813.525
832.47738	40699.825
836.32036	40720.125
840.16066	40728.325
843.99827	40711.025
847.8332	40730.725
851.66546	40828.625
855.49504	40957.925
859.32195	40922.525
863.1462	40885.125
866.96777	40866.125
870.78668	40817.425
874.60293	40889.625
878.41652	40919.825
882.22745	41003.825
886.03573	41082.225
889.84136	41128.525
893.64433	41089.125
897.44466	41016.325
901.24235	40951.725
905.0374	40913.025
908.8298	40925.325
912.61957	40971.925
916.40671	41343.725
920.19121	41834.525
923.97308	42204.025
927.75233	42038.825
931.52895	41605.325
935.30295	41024.725
939.07433	40504.025
942.84309	40166.025
946.60924	39996.925
950.37278	39874.825
954.13371	39920.725
957.89203	39880.025
961.64774	39827.425
965.40086	39856.625
969.15137	39766.825
972.89929	39681.325
976.64461	39535.625
980.38733	39560.625
984.12747	39557.125
987.86502	39612.425
991.59999	39791.425
995.33237	40027.225
999.06217	40461.425
1002.78939	41129.125
1006.51404	41864.625
1010.23611	42637.325
1013.95561	43107.925
1017.67255	43084.725
1021.38692	42648.925
1025.09872	42124.525
1028.80796	41599.125
1032.51465	41393.325
1036.21877	41449.125
1039.92035	41588.925
1043.61937	41772.125
1047.31584	41913.325
1051.00976	42108.625
1054.70114	42368.925
1058.38998	42766.925
1062.07627	43531.825
1065.76003	44423.625
1069.44126	45382.825
1073.11995	46407.925
1076.79611	47090.425
1080.46974	47158.925
1084.14085	46985.525
1087.80943	46905.525
1091.47549	46898.525
1095.13903	46829.025
1098.80005	46269.525
1102.45857	45369.625
1106.11456	44623.225
1109.76805	44033.125
1113.41903	43803.725
1117.06751	43852.725
1120.71348	43990.025
1124.35696	44244.925
1127.99793	44588.325
1131.63641	44931.025
1135.2724	45053.225
1138.90589	45222.125
1142.5369	45405.125
1146.16542	45678.525
1149.79145	45899.125
1153.415	46258.025
1157.03607	46798.925
1160.65467	47904.025
1164.27079	49637.125
1167.88443	51714.125
1171.49561	53733.525
1175.10432	55917.225
1178.71056	58622.025
1182.31434	61367.825
1185.91565	63274.825
1189.51451	64053.925
1193.11091	63672.325
1196.70485	62455.125
1200.29634	60588.725
1203.88538	59182.225
1207.47197	58602.625
1211.05612	58360.525
1214.63782	57706.725
1218.21708	56327.825
1221.79391	54588.225
1225.36829	53212.325
1228.94024	52415.125
1232.50976	51999.025
1236.07685	51719.125
1239.6415	51602.025
1243.20374	51719.125
1246.76355	51950.925
1250.32093	52477.025
1253.8759	53431.125
1257.42845	54651.725
1260.97859	56077.425
1264.52631	57543.925
1268.07163	58873.525
1271.61453	60205.325
1275.15503	61593.325
1278.69312	62935.125
1282.22882	64378.625
1285.76211	65887.125
1289.29301	67609.725
1292.82151	69734.725
1296.34761	72252.925
1299.87133	75313.825
1303.39266	78412.025
1306.9116	80851.225
1310.42815	82633.525
1313.94233	83182.925
1317.45412	83028.525
1320.96354	82635.025
1324.47058	82866.025
1327.97525	83462.825
1331.47754	84328.825
1334.97747	84971.625
1338.47502	85607.425
1341.97022	86029.025
1345.46305	86147.925
1348.95352	85555.325
1352.44163	84419.925
1355.92738	83357.425
1359.41078	82980.125
1362.89183	82726.025
1366.37053	80996.825
1369.84688	76889.825
1373.32088	71654.325
1376.79254	67491.025
1380.26186	65601.725
1383.72883	65502.025
1387.19347	65640.825
1390.65578	65384.025
1394.11575	64984.525
1397.57339	65415.225
1401.0287	66287.425
1404.48168	67020.425
1407.93234	67012.625
1411.38068	65976.325
1414.82669	64082.425
1418.27039	61771.325
1421.71177	59693.625
1425.15083	58082.825
1428.58758	57553.025
1432.02203	58111.025
1435.45416	59438.425
1438.88399	61070.725
1442.31151	62319.725
1445.73673	62825.825
1449.15965	63127.225
1452.58027	63179.825
1455.9986	63239.925
1459.41463	63740.325
1462.82837	64710.025
1466.23982	65653.725
1469.64898	66463.625
1473.05586	66715.125
1476.46045	66616.725
1479.86276	66190.625
1483.26279	65654.125
1486.66054	65232.725
1490.05602	65231.325
1493.44922	65648.925
1496.84016	66178.325
1500.22882	67072.825
1503.61521	68238.825
1506.99934	69442.025
1510.38121	70207.725
1513.76081	70385.225
1517.13816	69871.325
1520.51324	69446.725
1523.88607	69367.925
1527.25665	69683.925
1530.62498	69924.025
1533.99105	69706.425
1537.35488	68773.425
1540.71647	67521.925
1544.07581	66031.925
1547.4329	64487.625
1550.78776	63143.725
1554.14038	62134.325
1557.49077	61492.325
1560.83892	60992.625
1564.18484	60717.225
1567.52853	60704.025
1570.86999	61187.525
1574.20922	62499.625
1577.54624	64017.025
1580.88103	65193.525
1584.2136	66354.325
1587.54395	67868.025
1590.87208	69706.825
1594.19801	72044.125
1597.52172	74179.125
1600.84321	74151.625
1604.16251	71330.925
1607.47959	67257.125
1610.79447	63076.625
1614.10715	58891.325
1617.41763	55111.625
1620.7259	52278.125
1624.03199	50630.825
1627.33587	50512.925
1630.63757	51538.225
1633.93707	54244.425
1637.23439	58941.525
1640.52951	65504.225
1643.82246	72664.225
1647.11321	77633.425
1650.40179	77611.725
1653.68819	72119.525
1656.97241	64003.425
1660.25446	56265.625
1663.53433	50466.525
1666.81203	46641.625
1670.08756	44122.325
1673.36092	42566.325
1676.63211	41484.025
1679.90115	40715.825
1683.16801	40127.925
1686.43272	39705.425
1689.69527	39372.025
1692.95567	39131.525
1696.2139	38996.925
1699.46999	38912.025
1702.72392	38705.525
1705.97571	38655.825
1709.22535	38524.525
1712.47284	38424.225
1715.71819	38384.625
1718.96139	38254.425
1722.20246	38138.225
1725.44139	38000.925
1728.67818	37847.225
1731.91284	37602.625
1735.14537	37443.125
1738.37576	37244.525
1741.60403	37150.925
1744.83017	37030.725
1748.05418	36965.725
1751.27607	36841.925
1754.49584	36800.325
1757.71349	36713.225
1760.92903	36733.525
1764.14244	36672.925
1767.35375	36678.425
1770.56294	36661.625
1773.77002	36574.225
1776.97499	36538.225
1780.17785	36508.125
1783.37861	36442.325
1786.57727	36346.325
1789.77382	36240.725
1792.96828	36185.525
1796.16064	36109.625
1799.3509	36050.225
1802.53907	36006.625
1805.72514	35914.225
1808.90913	35834.725
1812.09102	35759.725
1815.27083	35726.725
1818.44856	35678.725
1821.6242	35672.125
1824.79776	35648.825
1827.96924	35640.925
1831.13864	35618.125
1834.30597	35678.225
1837.47122	35673.825
1840.6344	35719.925
1843.7955	35628.325
1846.95454	35682.125
1850.11151	35680.725
1853.26642	35640.325
1856.41926	35638.125
1859.57004	35576.825
1862.71876	35481.625
1865.86542	35440.825
1869.01003	35424.125
1872.15258	35333.625
1875.29308	35299.225
1878.43152	35216.525
1881.56792	35168.325
1884.70227	35109.625
1887.83457	35093.225
1890.96482	35065.425
1894.09304	34990.425
1897.21921	34971.725
1900.34335	34905.925
1903.46544	34803.825
1906.58551	34754.125
1909.70353	34750.525
1912.81953	34639.025
1915.93349	34593.825
1919.04543	34526.125
1922.15534	34488.225
1925.26322	34397.925
1928.36908	34237.925
1931.47292	34223.625
1934.57473	34175.925
1937.67453	34053.925
1940.77232	34014.525
1943.86808	33871.825
1946.96184	33802.425
1950.05358	33753.725
1953.14331	33644.725
1956.23103	33618.625
1959.31675	33473.425
1962.40046	33366.025
1965.48217	33267.925
1968.56188	33137.325
1971.63959	33069.225
1974.7153	32942.225
1977.78901	32827.825
1980.86073	32786.125
1983.93046	32764.925
1986.99819	32610.125
1990.06394	32554.025
1993.1277	32474.025
1996.18947	32324.925
1999.24925	32242.625
2002.30706	32111.425
2005.36288	32028.925
2008.41672	31937.225
2011.46859	31834.225
2014.51848	31850.025
2017.56639	31756.425
2020.61233	31707.225
2023.6563	31600.025
2026.6983	31564.325
2029.73833	31461.825
2032.7764	31415.825
2035.8125	31281.025
2038.84664	31210.725
2041.87881	31154.825
2044.90903	31128.625
2047.93729	31002.625
2050.96359	31005.425
2053.98794	30965.025
2057.01034	30998.525
2060.03078	30927.525
2063.04927	30937.825
2066.06582	30865.125
2069.08042	30830.025
2072.09307	30820.825
2075.10378	30818.125
2078.11255	30784.225
2081.11938	30796.225
2084.12426	30712.425
2087.12722	30755.925
2090.12824	30728.125
2093.12732	30719.725
2096.12447	30793.625
2099.11969	30702.625
2102.11299	30719.225
2105.10435	30718.725
2108.09379	30810.925
2111.08131	30872.525
2114.0669	30831.725
2117.05057	30773.425
2120.03233	30817.025
2123.01216	30832.125
2125.99008	30915.525
2128.96609	30866.225
2131.94018	30862.925
2134.91236	30931.225
2137.88263	30887.625
2140.851	30922.125
2143.81746	30913.525
2146.78201	30914.025
2149.74466	30884.625
2152.7054	30926.325
2155.66425	30907.625
2158.6212	30943.425
2161.57625	30891.725
2164.52941	30928.425
2167.48067	30947.325
2170.43004	30899.825
2173.37752	30873.825
2176.32311	30883.425
2179.26681	30838.225
2182.20863	30883.625
2185.14856	30852.525
2188.08661	30843.825
2191.02278	30854.625
2193.95707	30787.525
2196.88948	30799.525
2199.82001	30776.225
2202.74867	30679.525
2205.67545	30683.925
2208.60037	30637.625
2211.52341	30567.925
2214.44458	30547.525
2217.36388	30508.525
2220.28132	30475.525
2223.1969	30378.725
2226.11061	30397.025
2229.02246	30296.025
2231.93245	30238.325
2234.84058	30203.025
2237.74686	30110.525
2240.65128	30144.625
2243.55385	30074.625
2246.45456	30022.625
2249.35343	29981.425
2252.25044	29935.325
2255.14561	29841.225
2258.03893	29785.525
2260.93041	29770.425
2263.82004	29720.125
2266.70783	29646.225
2269.59378	29543.825
2272.4779	29483.325
2275.36017	29413.825
2278.24061	29301.925
2281.11922	29272.425
2283.996	29197.025
2286.87094	29179.425
2289.74405	29163.825
2292.61534	29154.725
2295.4848	29039.225
2298.35243	29031.925
2301.21824	28977.625
2304.08223	28955.425
2306.94439	28979.925
2309.80474	28948.725
2312.66327	28925.725
2315.51999	28885.425
2318.37489	28825.425
2321.22797	28785.825
2324.07925	28789.925
2326.92871	28746.225
2329.77637	28659.925
2332.62222	28673.325
2335.46626	28678.625
2338.3085	28643.525
2341.14893	28590.125
2343.98756	28585.625
2346.8244	28567.025
2349.65943	28554.925
2352.49267	28507.525
2355.32411	28516.425
2358.15376	28452.325
2360.98161	28442.725
2363.80768	28483.025
2366.63195	28494.325
2369.45444	28416.225
2372.27514	28401.425
2375.09405	28361.525
2377.91118	28334.725
2380.72652	28246.025
2383.54009	28197.325
2386.35187	28199.725
2389.16188	28111.825
2391.97011	28077.925
2394.77657	28012.725
2397.58125	27988.925
2400.38416	27938.725
2403.18529	27875.725
2405.98466	27874.225
2408.78226	27830.725
2411.57809	27754.025
2414.37216	27722.225
2417.16446	27763.325
2419.955	27705.525
2422.74378	27727.225
2425.5308	27638.625
2428.31606	27623.325
2431.09956	27623.325
2433.88131	27598.925
2436.6613	27553.025
2439.43954	27520.925
2442.21603	27495.125
2444.99077	27472.425
2447.76377	27475.025
2450.53501	27453.825
2453.30451	27486.225
2456.07226	27418.925
2458.83827	27407.325
2461.60254	27347.825
2464.36507	27349.525
2467.12586	27358.125
2469.88492	27318.225
2472.64224	27283.425
2475.39782	27299.925
2478.15167	27291.125
2480.90379	27298.525
2483.65417	27273.825
2486.40283	27271.725
2489.14976	27233.025
2491.89497	27206.025
2494.63845	27217.825
2497.3802	27216.625
2500.12024	27218.625
2502.85855	27202.925
2505.59514	27210.125
2508.33002	27214.425
2511.06318	27137.325
2513.79462	27132.625
2516.52435	27113.625
2519.25237	27120.725
2521.97867	27047.125
2524.70327	27078.325
2527.42616	26990.625
2530.14734	27027.325
2532.86681	26956.925
2535.58458	26934.625
2538.30065	26900.525
2541.01501	26878.625
2543.72768	26884.525
2546.43864	26823.225
2549.14791	26786.625
2551.85548	26778.225
2554.56136	26711.225
2557.26554	26690.525
2559.96803	26676.125
2562.66883	26621.725
2565.36794	26607.025
2568.06536	26610.025
2570.7611	26545.725
2573.45514	26483.925
2576.14751	26472.225
2578.83819	26421.525
2581.52719	26439.825
2584.21451	26389.725
2586.90015	26372.425
2589.58411	26312.625
2592.2664	26271.325
2594.94701	26225.125
2597.62594	26251.425
2600.30321	26162.525
2602.9788	26150.725
2605.65273	26112.925
2608.32498	26119.525
2610.99557	26082.325
2613.66449	26093.325
2616.33175	26036.525
2618.99734	26012.325
2621.66128	25986.025
2624.32355	25984.625
2626.98416	25945.725
2629.64311	25920.125
2632.30041	25855.125
2634.95605	25867.125
2637.61004	25878.225
2640.26238	25831.325
2642.91306	25846.225
2645.56209	25826.925
2648.20948	25822.625
2650.85521	25802.025
2653.4993	25843.225
2656.14175	25841.525
2658.78255	25824.225
2661.42171	25833.325
2664.05923	25837.725
2666.6951	25826.825
2669.32934	25839.225
2671.96194	25793.325
2674.59291	25832.025
2677.22224	25826.725
2679.84993	25837.025
2682.476	25787.225
2685.10043	25776.625
2687.72324	25782.425
2690.34441	25835.825
2692.96396	25821.625
2695.58188	25829.325
2698.19818	25798.525
2700.81285	25815.825
2703.4259	25814.925
2706.03733	25833.125
2708.64714	25869.225
2711.25533	25882.625
2713.86191	25896.025
2716.46687	25906.925
2719.07021	25851.325
2721.67194	25860.125
2724.27206	25841.325
2726.87057	25886.225
2729.46747	25905.325
2732.06276	25926.525
2734.65644	25909.825
2737.24852	25927.725
2739.83899	25888.525
2742.42786	25888.625
2745.01513	25834.125
2747.60079	25804.025
2750.18486	25783.525
2752.76733	25791.625
2755.3482	25825.725
2757.92747	25801.425
2760.50515	25762.025
2763.08123	25710.025
2765.65573	25625.025
2768.22863	25670.025
2770.79994	25605.125
2773.36967	25593.725
2775.9378	25599.325
2778.50435	25535.625
2781.06932	25529.225
2783.6327	25560.225
2786.1945	25519.725
2788.75471	25412.925
2791.31335	25383.725
2793.87041	25335.325
2796.42589	25282.525
2798.97979	25235.625
2801.53212	25204.725
2804.08288	25196.025
2806.63206	25119.325
2809.17967	25071.125
2811.72571	25028.225
2814.27018	24977.925
2816.81308	24906.325
2819.35442	24894.725
2821.89419	24841.225
2824.43239	24817.325
2826.96904	24771.325
2829.50412	24735.325
2832.03763	24702.525
2834.56959	24698.825
2837.1	24609.225
2839.62884	24614.925
2842.15613	24578.525
2844.68186	24599.125
2847.20604	24521.825
2849.72867	24517.425
2852.24974	24479.825
2854.76927	24460.625
2857.28724	24418.825
2859.80367	24382.825
2862.31855	24343.725
2864.83189	24309.625
2867.34368	24266.325
2869.85393	24262.425
2872.36264	24249.525
2874.8698	24221.625
2877.37543	24260.925
2879.87952	24222.525
2882.38207	24227.425
2884.88308	24227.325
2887.38256	24220.825
2889.88051	24168.925
2892.37692	24151.225
2894.8718	24162.325
2897.36515	24173.425
2899.85698	24138.825
2902.34727	24221.425
2904.83604	24229.525
2907.32328	24254.825
2909.809	24241.425
2912.29319	24280.925
2914.77587	24243.525
2917.25702	24244.125
2919.73665	24259.425
2922.21476	24258.025
2924.69136	24251.825
2927.16644	24213.225
2929.64	24174.625
2932.11205	24123.325
2934.58258	24062.025
2937.05161	24119.425
2939.51912	24138.825
2941.98513	24135.725
2944.44962	24027.825
2946.91261	23919.825
2949.37409	24050.425
2951.83407	23984.425
2954.29254	23919.525
2956.74951	23909.925
2959.20498	23875.725
2961.65895	23833.725
2964.11142	23861.025
2966.56239	23819.725
2969.01186	23803.525
2971.45984	23738.225
2973.90632	23694.725
2976.35131	23687.325
2978.7948	23628.425
2981.23681	23581.625
2983.67732	23563.825
2986.11635	23493.625
2988.55388	23431.225
2990.98993	23403.025
2993.4245	23352.025
2995.85758	23265.225
2998.28917	23188.725
3000.71928	23187.525
3003.14791	23119.125
3005.57506	23073.925
3008.00073	23044.725
3010.42493	23002.825
3012.84764	22948.525
3015.26888	22951.325
3017.68865	22904.425
3020.10694	22858.225
3022.52376	22828.325
3024.9391	22787.525
3027.35298	22763.325
3029.76539	22738.825
3032.17632	22739.125
3034.5858	22668.825
3036.9938	22656.025
3039.40034	22643.725
3041.80542	22589.725
3044.20903	22503.425
3046.61118	22476.025
3049.01187	22413.225
3051.4111	22357.725
3053.80888	22330.625
3056.20519	22294.325
3058.60005	22252.925
3060.99345	22201.325
3063.3854	22145.425
3065.7759	22048.125
3068.16494	22032.425
3070.55254	21970.025
3072.93868	21889.225
3075.32338	21837.725
3077.70662	21759.225
3080.08842	21717.825
3082.46878	21736.525
3084.84769	21732.425
3087.22515	21640.425
3089.60118	21657.325
3091.97576	21613.025
3094.3489	21611.825
3096.72061	21538.325
3099.09087	21529.625
3101.4597	21516.125
3103.82709	21500.525
3106.19305	21411.225
3108.55757	21418.525
3110.92066	21331.025
3113.28232	21275.725
3115.64255	21243.925
3118.00134	21192.425
3120.35871	21171.825
3122.71466	21160.625
3125.06917	21108.425
3127.42226	21054.225
3129.77393	21087.825
3132.12417	20997.625
3134.47299	20997.725
3136.82039	20972.625
3139.16636	20976.925
3141.51092	20939.425
3143.85406	20939.625
3146.19579	20930.325
3148.53609	20952.325
3150.87499	20938.025
3153.21246	20940.625
3155.54853	20923.725
3157.88318	20886.225
3160.21642	20897.625
3162.54826	20850.025
3164.87868	20825.525
3167.2077	20766.725
3169.5353	20759.025
3171.86151	20758.825
3174.18631	20712.025
3176.5097	20681.725
3178.83169	20649.125
3181.15228	20631.825
3183.47147	20604.925
3185.78926	20582.625
3188.10565	20578.925
3190.42065	20527.325
3192.73424	20484.925
3195.04645	20474.525
3197.35725	20480.025
3199.66667	20463.025
3201.97469	20465.625
3204.28132	20409.025
3206.58656	20429.825
3208.8904	20396.825
3211.19287	20407.625
3213.49394	20379.125
3215.79363	20360.725
3218.09193	20385.125
3220.38884	20366.325
3222.68438	20388.725
3224.97853	20343.525
3227.2713	20328.025
3229.56269	20287.625
3231.8527	20243.525
3234.14133	20192.825
3236.42858	20157.125
3238.71446	20105.325
3240.99896	20057.425
3243.28209	20066.125
3245.56384	20052.325
3247.84423	20024.625
3250.12324	19992.325
3252.40088	19967.425
3254.67715	19921.825
3256.95205	19888.725
3259.22558	19837.725
3261.49775	19773.625
3263.76855	19794.825
3266.03799	19724.225
3268.30606	19691.825
3270.57277	19685.225
3272.83812	19631.325
3275.10211	19585.625
3277.36474	19571.725
3279.62601	19594.025
3281.88593	19572.425
3284.14448	19536.525
3286.40168	19529.625
3288.65753	19510.325
3290.91202	19461.025
3293.16516	19390.825
3295.41695	19361.525
3297.66738	19243.725
3299.91647	19151.825
3302.16421	19049.325
3304.4106	18929.825
3306.65564	18860.625
3308.89933	18689.825
3311.14169	18563.025
3313.38269	18397.825
3315.62236	18254.025
3317.86068	18117.525
3320.09766	17949.025
3322.3333	17778.225
3324.5676	17776.025
3326.80056	17470.725
3329.03219	17389.825
3331.26248	5.225
3333.49143	-0.975
3335.71905	0.425
