Data from AgNP_FTO_APTES_CRN_2uM_R6G_10uM_NaF_0.1M_Addition_RamanShift__14__14-51-19-341.txt Node

Date: Wed Dec 15 14:51:19 GMT 2021
User: TCL
Spectrometer: QEP01345
Trigger mode: 4
Integration Time (sec): 7.000000E0
Scans to average: 10
Electric dark correction enabled: true
Nonlinearity correction enabled: false
Boxcar width: 0
XAxis mode: Raman Shifts
Number of Pixels in Spectrum: 1044
>>>>>Begin Spectral Data<<<<<
46.04893	0.5125
50.45542	-1.8875
54.85868	-1.7875
59.25871	-0.7875
63.6555	140.2125
68.04907	148.4125
72.43941	153.7125
76.82654	162.6125
81.21044	163.7125
85.59113	168.9125
89.96862	178.5125
94.34289	184.6125
98.71396	193.1125
103.08183	198.2125
107.4465	204.0125
111.80798	207.9125
116.16626	212.9125
120.52136	219.4125
124.87327	227.0125
129.222	239.6125
133.56755	254.7125
137.90993	279.1125
142.24913	301.7125
146.58517	336.8125
150.91804	390.8125
155.24774	462.3125
159.57429	569.7125
163.89768	738.1125
168.21792	966.3125
172.53501	1310.9125
176.84895	1827.0125
181.15975	2576.2125
185.46741	3582.7125
189.77193	4951.8125
194.07331	6623.2125
198.37157	8532.4125
202.6667	10552.2125
206.9587	12532.4125
211.24758	14457.9125
215.53334	16397.6125
219.81599	18396.7125
224.09553	20608.9125
228.37195	23014.3125
232.64527	25781.9125
236.91549	28673.4125
241.18261	31629.1125
245.44663	34488.0125
249.70755	37059.1125
253.96539	39346.3125
258.22014	41279.4125
262.4718	42800.3125
266.72039	43793.4125
270.96589	44289.6125
275.20832	44381.9125
279.44768	44224.3125
283.68397	43903.2125
287.91719	43530.5125
292.14735	43203.2125
296.37445	43070.3125
300.59849	42999.3125
304.81948	43026.4125
309.03742	42950.8125
313.25231	42716.2125
317.46415	42253.8125
321.67296	41624.6125
325.87872	41067.2125
330.08145	40864.8125
334.28114	40921.5125
338.47781	41211.8125
342.67145	41673.4125
346.86207	42133.6125
351.04966	42670.8125
355.23424	43335.4125
359.4158	43908.2125
363.59435	44373.1125
367.76989	44816.9125
371.94243	45005.2125
376.11196	45138.0125
380.27849	45205.5125
384.44203	45327.7125
388.60257	45632.1125
392.76012	46109.6125
396.91468	46735.0125
401.06626	47494.0125
405.21485	47951.6125
409.36047	47980.8125
413.50311	47811.1125
417.64277	47762.0125
421.77947	48095.0125
425.9132	48497.4125
430.04396	48839.4125
434.17176	49021.9125
438.2966	49108.3125
442.41849	49349.6125
446.53742	50035.9125
450.6534	50930.0125
454.76644	51583.2125
458.87653	51934.4125
462.98368	51950.5125
467.08789	51673.7125
471.18916	51264.8125
475.2875	50714.7125
479.38291	50298.7125
483.4754	50043.1125
487.56496	49761.2125
491.6516	49349.0125
495.73531	48949.0125
499.81612	48888.9125
503.89401	49244.4125
507.96899	49562.6125
512.04106	49803.7125
516.11023	49820.3125
520.1765	49289.9125
524.23987	48780.2125
528.30034	48287.0125
532.35792	47864.3125
536.41261	47456.8125
540.46441	47194.4125
544.51333	47315.4125
548.55936	47714.0125
552.60252	48459.4125
556.64279	49237.2125
560.6802	49795.3125
564.71473	50205.1125
568.7464	50940.9125
572.7752	52264.3125
576.80114	54112.5125
580.82422	56095.2125
584.84444	57961.6125
588.86181	59910.2125
592.87633	61073.4125
596.888	60379.3125
600.89682	58225.7125
604.9028	57606.7125
608.90594	59270.0125
612.90624	60641.7125
616.90371	57438.2125
620.89834	51868.1125
624.89015	49592.1125
628.87913	49649.3125
632.86528	49997.3125
636.84862	50005.8125
640.82913	49226.2125
644.80683	48216.2125
648.78172	47586.0125
652.75379	47556.6125
656.72306	47959.3125
660.68952	48434.6125
664.65319	48282.8125
668.61405	47872.8125
672.57211	47844.7125
676.52738	47959.5125
680.47986	47842.6125
684.42955	47710.3125
688.37646	47548.0125
692.32058	47801.6125
696.26192	48315.3125
700.20048	48802.9125
704.13626	49204.1125
708.06928	49435.0125
711.99952	49439.1125
715.927	49379.6125
719.85171	49272.9125
723.77365	48960.7125
727.69284	48384.1125
731.60928	47754.9125
735.52295	47405.5125
739.43388	47257.6125
743.34206	47349.7125
747.24749	47649.9125
751.15017	48131.1125
755.05012	48881.8125
758.94733	49982.4125
762.8418	51733.0125
766.73354	54096.3125
770.62254	56122.1125
774.50882	56087.1125
778.39237	54122.7125
782.27321	51760.4125
786.15132	49929.8125
790.02671	48687.8125
793.89938	47953.2125
797.76935	47596.2125
801.6366	47465.1125
805.50115	47367.1125
809.36299	47218.4125
813.22213	46933.8125
817.07857	46758.2125
820.93231	46636.6125
824.78336	46449.4125
828.63172	46388.9125
832.47738	46307.2125
836.32036	46287.7125
840.16066	46241.0125
843.99827	46277.2125
847.8332	46310.5125
851.66546	46395.0125
855.49504	46495.9125
859.32195	46521.1125
863.1462	46423.4125
866.96777	46415.1125
870.78668	46451.1125
874.60293	46452.3125
878.41652	46492.8125
882.22745	46575.7125
886.03573	46776.4125
889.84136	46785.8125
893.64433	46674.2125
897.44466	46645.1125
901.24235	46643.0125
905.0374	46598.9125
908.8298	46624.0125
912.61957	46790.5125
916.40671	47093.9125
920.19121	47652.5125
923.97308	48086.5125
927.75233	47928.6125
931.52895	47364.7125
935.30295	46722.9125
939.07433	46123.1125
942.84309	45673.9125
946.60924	45433.1125
950.37278	45358.8125
954.13371	45316.7125
957.89203	45377.7125
961.64774	45323.6125
965.40086	45322.1125
969.15137	45194.2125
972.89929	45052.5125
976.64461	44952.2125
980.38733	44881.9125
984.12747	44882.5125
987.86502	44985.9125
991.59999	45176.0125
995.33237	45382.1125
999.06217	45862.0125
1002.78939	46545.6125
1006.51404	47370.6125
1010.23611	48254.4125
1013.95561	48778.7125
1017.67255	48738.1125
1021.38692	48272.4125
1025.09872	47608.0125
1028.80796	47033.7125
1032.51465	46823.2125
1036.21877	46873.1125
1039.92035	47037.6125
1043.61937	47244.1125
1047.31584	47481.1125
1051.00976	47695.2125
1054.70114	48030.6125
1058.38998	48487.5125
1062.07627	49301.2125
1065.76003	50246.3125
1069.44126	51328.0125
1073.11995	52466.9125
1076.79611	53250.9125
1080.46974	53352.0125
1084.14085	53166.1125
1087.80943	53076.6125
1091.47549	53187.8125
1095.13903	53217.1125
1098.80005	52648.4125
1102.45857	51553.6125
1106.11456	50536.2125
1109.76805	49933.8125
1113.41903	49603.1125
1117.06751	49585.6125
1120.71348	49779.5125
1124.35696	50030.0125
1127.99793	50444.6125
1131.63641	50760.8125
1135.2724	50931.3125
1138.90589	51080.5125
1142.5369	51383.8125
1146.16542	51613.0125
1149.79145	51862.7125
1153.415	52326.3125
1157.03607	52916.0125
1160.65467	54122.7125
1164.27079	55976.7125
1167.88443	58235.3125
1171.49561	60513.9125
1175.10432	62965.4125
1178.71056	65984.5125
1182.31434	69027.0125
1185.91565	71176.9125
1189.51451	72131.6125
1193.11091	71870.8125
1196.70485	70537.2125
1200.29634	68403.9125
1203.88538	66745.1125
1207.47197	65915.0125
1211.05612	65662.2125
1214.63782	65007.4125
1218.21708	63546.4125
1221.79391	61612.4125
1225.36829	60006.5125
1228.94024	59077.1125
1232.50976	58592.5125
1236.07685	58379.4125
1239.6415	58296.3125
1243.20374	58374.6125
1246.76355	58647.5125
1250.32093	59294.7125
1253.8759	60292.0125
1257.42845	61746.9125
1260.97859	63273.0125
1264.52631	64923.9125
1268.07163	66458.1125
1271.61453	67932.9125
1275.15503	69443.0125
1278.69312	71000.0125
1282.22882	72523.4125
1285.76211	74351.6125
1289.29301	76319.1125
1292.82151	78623.4125
1296.34761	81393.7125
1299.87133	84665.7125
1303.39266	87861.8125
1306.9116	90546.6125
1310.42815	92262.4125
1313.94233	92908.5125
1317.45412	92765.0125
1320.96354	92525.6125
1324.47058	92961.0125
1327.97525	93710.1125
1331.47754	94730.0125
1334.97747	95524.6125
1338.47502	96180.3125
1341.97022	96824.1125
1345.46305	97055.4125
1348.95352	96450.6125
1352.44163	95053.9125
1355.92738	93737.4125
1359.41078	93257.9125
1362.89183	92804.8125
1366.37053	90707.2125
1369.84688	86397.4125
1373.32088	80586.1125
1376.79254	76107.6125
1380.26186	74073.9125
1383.72883	73759.7125
1387.19347	73853.2125
1390.65578	73422.3125
1394.11575	73055.7125
1397.57339	73310.6125
1401.0287	74167.0125
1404.48168	74989.4125
1407.93234	74717.3125
1411.38068	73569.7125
1414.82669	71485.5125
1418.27039	68990.2125
1421.71177	66700.1125
1425.15083	65035.0125
1428.58758	64427.0125
1432.02203	65002.4125
1435.45416	66398.7125
1438.88399	68097.5125
1442.31151	69494.1125
1445.73673	70110.0125
1449.15965	70479.0125
1452.58027	70590.0125
1455.9986	70654.9125
1459.41463	71297.1125
1462.82837	72335.6125
1466.23982	73499.9125
1469.64898	74273.1125
1473.05586	74541.0125
1476.46045	74373.2125
1479.86276	73962.6125
1483.26279	73444.1125
1486.66054	73073.9125
1490.05602	73125.4125
1493.44922	73612.5125
1496.84016	74434.6125
1500.22882	75579.0125
1503.61521	76954.3125
1506.99934	78408.1125
1510.38121	79366.9125
1513.76081	79475.4125
1517.13816	79130.9125
1520.51324	78591.3125
1523.88607	78507.0125
1527.25665	78666.5125
1530.62498	78825.7125
1533.99105	78442.0125
1537.35488	77415.9125
1540.71647	75755.0125
1544.07581	73972.1125
1547.4329	72246.7125
1550.78776	70811.4125
1554.14038	69736.4125
1557.49077	69046.6125
1560.83892	68601.3125
1564.18484	68401.7125
1567.52853	68351.0125
1570.86999	68878.4125
1574.20922	70287.8125
1577.54624	71905.5125
1580.88103	73164.6125
1584.2136	74405.9125
1587.54395	76007.1125
1590.87208	78082.9125
1594.19801	80496.1125
1597.52172	82687.7125
1600.84321	82597.9125
1604.16251	79377.1125
1607.47959	74873.4125
1610.79447	70294.2125
1614.10715	65698.2125
1617.41763	61653.5125
1620.7259	58547.7125
1624.03199	56791.0125
1627.33587	56615.8125
1630.63757	57786.0125
1633.93707	60711.3125
1637.23439	65963.1125
1640.52951	73143.3125
1643.82246	81028.4125
1647.11321	86638.3125
1650.40179	86673.4125
1653.68819	80898.7125
1656.97241	72003.3125
1660.25446	63437.5125
1663.53433	56912.1125
1666.81203	52489.9125
1670.08756	49630.1125
1673.36092	47887.2125
1676.63211	46597.5125
1679.90115	45786.3125
1683.16801	45036.7125
1686.43272	44614.6125
1689.69527	44218.4125
1692.95567	43904.7125
1696.2139	43814.6125
1699.46999	43648.2125
1702.72392	43504.2125
1705.97571	43394.5125
1709.22535	43212.0125
1712.47284	43185.5125
1715.71819	43132.0125
1718.96139	42945.8125
1722.20246	42824.0125
1725.44139	42644.3125
1728.67818	42462.0125
1731.91284	42237.4125
1735.14537	42054.5125
1738.37576	41839.8125
1741.60403	41699.1125
1744.83017	41600.2125
1748.05418	41444.7125
1751.27607	41346.2125
1754.49584	41244.5125
1757.71349	41176.5125
1760.92903	41207.9125
1764.14244	41123.1125
1767.35375	41104.1125
1770.56294	41078.7125
1773.77002	41012.6125
1776.97499	41004.9125
1780.17785	40916.3125
1783.37861	40857.7125
1786.57727	40788.2125
1789.77382	40626.6125
1792.96828	40568.0125
1796.16064	40486.4125
1799.3509	40459.6125
1802.53907	40392.6125
1805.72514	40224.1125
1808.90913	40205.1125
1812.09102	40059.1125
1815.27083	40066.9125
1818.44856	40002.1125
1821.6242	39990.9125
1824.79776	39968.4125
1827.96924	39958.1125
1831.13864	39955.0125
1834.30597	39963.8125
1837.47122	40033.7125
1840.6344	40017.2125
1843.7955	39998.9125
1846.95454	39985.3125
1850.11151	40033.0125
1853.26642	39969.6125
1856.41926	39946.8125
1859.57004	39927.8125
1862.71876	39808.4125
1865.86542	39744.0125
1869.01003	39725.9125
1872.15258	39682.4125
1875.29308	39579.3125
1878.43152	39516.6125
1881.56792	39415.1125
1884.70227	39337.5125
1887.83457	39294.1125
1890.96482	39281.2125
1894.09304	39204.1125
1897.21921	39187.6125
1900.34335	39101.9125
1903.46544	38990.5125
1906.58551	38974.1125
1909.70353	38880.7125
1912.81953	38804.8125
1915.93349	38727.3125
1919.04543	38627.7125
1922.15534	38599.4125
1925.26322	38510.7125
1928.36908	38339.9125
1931.47292	38288.9125
1934.57473	38276.0125
1937.67453	38143.6125
1940.77232	38012.6125
1943.86808	37923.6125
1946.96184	37820.0125
1950.05358	37717.5125
1953.14331	37603.8125
1956.23103	37521.5125
1959.31675	37458.1125
1962.40046	37288.2125
1965.48217	37207.3125
1968.56188	37032.4125
1971.63959	36952.3125
1974.7153	36821.0125
1977.78901	36716.7125
1980.86073	36634.4125
1983.93046	36524.8125
1986.99819	36416.4125
1990.06394	36375.8125
1993.1277	36278.8125
1996.18947	36069.4125
1999.24925	36000.6125
2002.30706	35857.6125
2005.36288	35768.9125
2008.41672	35677.4125
2011.46859	35589.4125
2014.51848	35497.0125
2017.56639	35479.4125
2020.61233	35364.3125
2023.6563	35231.0125
2026.6983	35177.9125
2029.73833	35094.7125
2032.7764	35010.9125
2035.8125	34924.0125
2038.84664	34808.4125
2041.87881	34770.4125
2044.90903	34704.2125
2047.93729	34636.0125
2050.96359	34557.0125
2053.98794	34526.0125
2057.01034	34524.3125
2060.03078	34427.0125
2063.04927	34452.1125
2066.06582	34442.8125
2069.08042	34390.5125
2072.09307	34393.5125
2075.10378	34350.5125
2078.11255	34332.3125
2081.11938	34351.8125
2084.12426	34274.3125
2087.12722	34316.2125
2090.12824	34268.8125
2093.12732	34272.1125
2096.12447	34285.4125
2099.11969	34259.1125
2102.11299	34210.2125
2105.10435	34226.6125
2108.09379	34283.9125
2111.08131	34300.6125
2114.0669	34315.8125
2117.05057	34308.8125
2120.03233	34346.4125
2123.01216	34341.6125
2125.99008	34362.8125
2128.96609	34371.8125
2131.94018	34378.6125
2134.91236	34414.8125
2137.88263	34450.5125
2140.851	34378.7125
2143.81746	34446.7125
2146.78201	34425.5125
2149.74466	34444.4125
2152.7054	34463.6125
2155.66425	34394.7125
2158.6212	34440.7125
2161.57625	34405.7125
2164.52941	34379.3125
2167.48067	34428.1125
2170.43004	34436.1125
2173.37752	34375.2125
2176.32311	34408.0125
2179.26681	34294.1125
2182.20863	34289.8125
2185.14856	34302.5125
2188.08661	34304.0125
2191.02278	34315.7125
2193.95707	34255.2125
2196.88948	34253.2125
2199.82001	34188.9125
2202.74867	34164.8125
2205.67545	34132.9125
2208.60037	34120.6125
2211.52341	33996.7125
2214.44458	33944.5125
2217.36388	33870.2125
2220.28132	33844.3125
2223.1969	33802.2125
2226.11061	33812.9125
2229.02246	33702.6125
2231.93245	33669.6125
2234.84058	33518.3125
2237.74686	33539.2125
2240.65128	33518.2125
2243.55385	33397.5125
2246.45456	33317.8125
2249.35343	33298.8125
2252.25044	33220.4125
2255.14561	33111.9125
2258.03893	33103.9125
2260.93041	33061.5125
2263.82004	32948.2125
2266.70783	32858.5125
2269.59378	32824.7125
2272.4779	32746.4125
2275.36017	32662.1125
2278.24061	32565.4125
2281.11922	32500.2125
2283.996	32458.6125
2286.87094	32447.2125
2289.74405	32365.0125
2292.61534	32292.5125
2295.4848	32185.0125
2298.35243	32263.0125
2301.21824	32175.4125
2304.08223	32141.7125
2306.94439	32148.7125
2309.80474	32120.7125
2312.66327	32064.9125
2315.51999	32018.4125
2318.37489	32005.5125
2321.22797	31947.0125
2324.07925	31927.9125
2326.92871	31831.6125
2329.77637	31802.6125
2332.62222	31825.5125
2335.46626	31802.4125
2338.3085	31699.1125
2341.14893	31671.7125
2343.98756	31657.4125
2346.8244	31624.5125
2349.65943	31636.9125
2352.49267	31579.1125
2355.32411	31592.1125
2358.15376	31544.4125
2360.98161	31532.1125
2363.80768	31529.2125
2366.63195	31496.2125
2369.45444	31488.5125
2372.27514	31396.9125
2375.09405	31423.2125
2377.91118	31333.6125
2380.72652	31336.4125
2383.54009	31244.8125
2386.35187	31221.0125
2389.16188	31125.0125
2391.97011	31073.8125
2394.77657	31007.6125
2397.58125	30932.4125
2400.38416	30904.1125
2403.18529	30855.3125
2405.98466	30828.5125
2408.78226	30775.1125
2411.57809	30692.5125
2414.37216	30676.2125
2417.16446	30694.9125
2419.955	30635.3125
2422.74378	30619.5125
2425.5308	30562.6125
2428.31606	30552.3125
2431.09956	30513.9125
2433.88131	30529.8125
2436.6613	30506.6125
2439.43954	30456.0125
2442.21603	30402.7125
2444.99077	30339.8125
2447.76377	30405.8125
2450.53501	30350.1125
2453.30451	30358.5125
2456.07226	30325.9125
2458.83827	30295.0125
2461.60254	30244.9125
2464.36507	30206.3125
2467.12586	30219.7125
2469.88492	30183.0125
2472.64224	30165.9125
2475.39782	30115.2125
2478.15167	30143.3125
2480.90379	30126.8125
2483.65417	30136.0125
2486.40283	30085.9125
2489.14976	30077.5125
2491.89497	30010.4125
2494.63845	30079.4125
2497.3802	30039.2125
2500.12024	30038.4125
2502.85855	30041.2125
2505.59514	30000.1125
2508.33002	30001.4125
2511.06318	29921.7125
2513.79462	29967.7125
2516.52435	29932.6125
2519.25237	29913.0125
2521.97867	29854.0125
2524.70327	29883.7125
2527.42616	29793.6125
2530.14734	29797.6125
2532.86681	29752.1125
2535.58458	29714.1125
2538.30065	29631.9125
2541.01501	29660.6125
2543.72768	29629.6125
2546.43864	29614.3125
2549.14791	29506.9125
2551.85548	29558.8125
2554.56136	29472.4125
2557.26554	29407.2125
2559.96803	29392.0125
2562.66883	29386.1125
2565.36794	29323.5125
2568.06536	29281.0125
2570.7611	29226.6125
2573.45514	29171.3125
2576.14751	29169.6125
2578.83819	29140.1125
2581.52719	29137.2125
2584.21451	29014.7125
2586.90015	29036.5125
2589.58411	28982.5125
2592.2664	28912.3125
2594.94701	28925.0125
2597.62594	28893.0125
2600.30321	28787.1125
2602.9788	28792.2125
2605.65273	28802.6125
2608.32498	28706.8125
2610.99557	28689.6125
2613.66449	28691.3125
2616.33175	28618.3125
2618.99734	28652.4125
2621.66128	28589.6125
2624.32355	28594.9125
2626.98416	28593.1125
2629.64311	28519.8125
2632.30041	28476.0125
2634.95605	28443.4125
2637.61004	28427.3125
2640.26238	28437.1125
2642.91306	28419.3125
2645.56209	28386.6125
2648.20948	28418.5125
2650.85521	28371.8125
2653.4993	28383.4125
2656.14175	28352.3125
2658.78255	28413.6125
2661.42171	28397.0125
2664.05923	28385.6125
2666.6951	28438.4125
2669.32934	28423.7125
2671.96194	28365.6125
2674.59291	28364.0125
2677.22224	28376.1125
2679.84993	28370.1125
2682.476	28330.1125
2685.10043	28347.7125
2687.72324	28359.6125
2690.34441	28388.8125
2692.96396	28394.7125
2695.58188	28392.5125
2698.19818	28353.1125
2700.81285	28347.6125
2703.4259	28356.7125
2706.03733	28414.2125
2708.64714	28419.7125
2711.25533	28429.8125
2713.86191	28415.2125
2716.46687	28456.7125
2719.07021	28379.2125
2721.67194	28455.8125
2724.27206	28355.6125
2726.87057	28425.0125
2729.46747	28442.6125
2732.06276	28462.8125
2734.65644	28415.7125
2737.24852	28439.7125
2739.83899	28414.0125
2742.42786	28429.5125
2745.01513	28354.6125
2747.60079	28334.4125
2750.18486	28303.8125
2752.76733	28341.6125
2755.3482	28265.7125
2757.92747	28294.8125
2760.50515	28261.8125
2763.08123	28215.9125
2765.65573	28156.6125
2768.22863	28127.6125
2770.79994	28075.1125
2773.36967	28056.4125
2775.9378	27987.1125
2778.50435	27998.1125
2781.06932	27925.7125
2783.6327	27959.7125
2786.1945	27909.9125
2788.75471	27874.2125
2791.31335	27787.5125
2793.87041	27742.4125
2796.42589	27713.0125
2798.97979	27670.0125
2801.53212	27626.7125
2804.08288	27597.0125
2806.63206	27508.5125
2809.17967	27426.9125
2811.72571	27350.8125
2814.27018	27374.9125
2816.81308	27295.1125
2819.35442	27208.0125
2821.89419	27148.5125
2824.43239	27176.5125
2826.96904	27115.6125
2829.50412	27106.7125
2832.03763	27052.5125
2834.56959	27027.8125
2837.1	26943.7125
2839.62884	26897.5125
2842.15613	26892.7125
2844.68186	26838.4125
2847.20604	26815.4125
2849.72867	26780.5125
2852.24974	26797.1125
2854.76927	26720.5125
2857.28724	26689.2125
2859.80367	26684.4125
2862.31855	26613.2125
2864.83189	26621.6125
2867.34368	26541.0125
2869.85393	26553.1125
2872.36264	26477.9125
2874.8698	26488.2125
2877.37543	26472.1125
2879.87952	26487.7125
2882.38207	26466.9125
2884.88308	26452.9125
2887.38256	26448.9125
2889.88051	26417.5125
2892.37692	26433.3125
2894.8718	26422.3125
2897.36515	26398.5125
2899.85698	26369.3125
2902.34727	26483.1125
2904.83604	26443.8125
2907.32328	26463.9125
2909.809	26455.2125
2912.29319	26488.0125
2914.77587	26448.5125
2917.25702	26440.1125
2919.73665	26398.8125
2922.21476	26476.3125
2924.69136	26345.9125
2927.16644	26391.1125
2929.64	26381.2125
2932.11205	26309.1125
2934.58258	26211.3125
2937.05161	26304.5125
2939.51912	26349.8125
2941.98513	26325.9125
2944.44962	26208.1125
2946.91261	26113.5125
2949.37409	26173.3125
2951.83407	26166.8125
2954.29254	26100.8125
2956.74951	26061.8125
2959.20498	26022.7125
2961.65895	26008.0125
2964.11142	26034.7125
2966.56239	25946.7125
2969.01186	25921.8125
2971.45984	25875.7125
2973.90632	25853.7125
2976.35131	25788.1125
2978.7948	25748.4125
2981.23681	25720.9125
2983.67732	25670.4125
2986.11635	25582.4125
2988.55388	25520.1125
2990.98993	25456.8125
2993.4245	25415.2125
2995.85758	25305.7125
2998.28917	25277.5125
3000.71928	25221.1125
3003.14791	25152.5125
3005.57506	25104.9125
3008.00073	25021.9125
3010.42493	25020.9125
3012.84764	24992.5125
3015.26888	24998.4125
3017.68865	24916.0125
3020.10694	24865.0125
3022.52376	24814.8125
3024.9391	24800.5125
3027.35298	24749.9125
3029.76539	24741.1125
3032.17632	24708.8125
3034.5858	24669.0125
3036.9938	24630.5125
3039.40034	24580.2125
3041.80542	24539.2125
3044.20903	24483.9125
3046.61118	24432.3125
3049.01187	24379.4125
3051.4111	24336.9125
3053.80888	24268.0125
3056.20519	24218.3125
3058.60005	24114.4125
3060.99345	24119.9125
3063.3854	24071.3125
3065.7759	23943.3125
3068.16494	23925.1125
3070.55254	23834.7125
3072.93868	23793.6125
3075.32338	23708.0125
3077.70662	23676.8125
3080.08842	23558.9125
3082.46878	23583.9125
3084.84769	23511.4125
3087.22515	23492.1125
3089.60118	23480.1125
3091.97576	23435.5125
3094.3489	23420.9125
3096.72061	23396.2125
3099.09087	23385.5125
3101.4597	23361.3125
3103.82709	23300.8125
3106.19305	23201.0125
3108.55757	23216.1125
3110.92066	23083.6125
3113.28232	23087.5125
3115.64255	22990.8125
3118.00134	22969.6125
3120.35871	22946.2125
3122.71466	22931.9125
3125.06917	22840.8125
3127.42226	22851.0125
3129.77393	22800.5125
3132.12417	22742.6125
3134.47299	22761.3125
3136.82039	22717.1125
3139.16636	22700.3125
3141.51092	22651.2125
3143.85406	22667.1125
3146.19579	22658.1125
3148.53609	22634.0125
3150.87499	22656.6125
3153.21246	22597.5125
3155.54853	22622.7125
3157.88318	22588.2125
3160.21642	22615.8125
3162.54826	22548.0125
3164.87868	22531.2125
3167.2077	22474.2125
3169.5353	22451.4125
3171.86151	22455.1125
3174.18631	22375.8125
3176.5097	22344.1125
3178.83169	22253.8125
3181.15228	22284.5125
3183.47147	22243.0125
3185.78926	22228.7125
3188.10565	22198.6125
3190.42065	22123.0125
3192.73424	22122.7125
3195.04645	22096.3125
3197.35725	22089.7125
3199.66667	22065.9125
3201.97469	22100.7125
3204.28132	22029.4125
3206.58656	22058.1125
3208.8904	22032.5125
3211.19287	22020.5125
3213.49394	21984.2125
3215.79363	21964.8125
3218.09193	21949.7125
3220.38884	21977.6125
3222.68438	21958.2125
3224.97853	21919.9125
3227.2713	21926.6125
3229.56269	21826.7125
3231.8527	21808.6125
3234.14133	21726.1125
3236.42858	21757.8125
3238.71446	21693.8125
3240.99896	21643.9125
3243.28209	21612.4125
3245.56384	21582.3125
3247.84423	21611.6125
3250.12324	21530.9125
3252.40088	21502.5125
3254.67715	21461.4125
3256.95205	21402.2125
3259.22558	21387.8125
3261.49775	21337.6125
3263.76855	21283.5125
3266.03799	21252.4125
3268.30606	21239.6125
3270.57277	21199.4125
3272.83812	21136.2125
3275.10211	21056.7125
3277.36474	21076.2125
3279.62601	21100.9125
3281.88593	21074.3125
3284.14448	21052.4125
3286.40168	21004.7125
3288.65753	20948.4125
3290.91202	20945.0125
3293.16516	20870.1125
3295.41695	20801.4125
3297.66738	20688.2125
3299.91647	20569.4125
3302.16421	20445.5125
3304.4106	20357.9125
3306.65564	20251.9125
3308.89933	20098.5125
3311.14169	19950.8125
3313.38269	19772.8125
3315.62236	19664.4125
3317.86068	19477.9125
3320.09766	19312.6125
3322.3333	19132.5125
3324.5676	19124.8125
3326.80056	18789.7125
3329.03219	18710.6125
3331.26248	5.7125
3333.49143	-0.2875
3335.71905	0.4125
