Data from AgNP_FTO_APTES_CRN_100uM_R6G_10uM_NaF_0.1M_Addition_RamanShift__6__18-38-28-113.txt Node

Date: Wed Dec 15 18:38:28 GMT 2021
User: TCL
Spectrometer: QEP01345
Trigger mode: 4
Integration Time (sec): 7.000000E0
Scans to average: 10
Electric dark correction enabled: true
Nonlinearity correction enabled: false
Boxcar width: 0
XAxis mode: Raman Shifts
Number of Pixels in Spectrum: 1044
>>>>>Begin Spectral Data<<<<<
46.04893	1.9375
50.45542	-1.3625
54.85868	-1.0625
59.25871	-1.0625
63.6555	56.7375
68.04907	65.2375
72.43941	66.6375
76.82654	70.2375
81.21044	72.8375
85.59113	74.5375
89.96862	78.1375
94.34289	77.6375
98.71396	84.6375
103.08183	87.1375
107.4465	89.0375
111.80798	87.2375
116.16626	92.6375
120.52136	96.4375
124.87327	93.3375
129.222	98.7375
133.56755	104.4375
137.90993	111.1375
142.24913	121.1375
146.58517	131.1375
150.91804	152.0375
155.24774	178.1375
159.57429	219.6375
163.89768	278.4375
168.21792	361.9375
172.53501	493.2375
176.84895	688.5375
181.15975	956.2375
185.46741	1346.9375
189.77193	1838.4375
194.07331	2470.3375
198.37157	3174.0375
202.6667	3920.8375
206.9587	4658.1375
211.24758	5380.0375
215.53334	6093.5375
219.81599	6848.1375
224.09553	7716.9375
228.37195	8608.3375
232.64527	9613.3375
236.91549	10695.8375
241.18261	11801.6375
245.44663	12835.8375
249.70755	13823.0375
253.96539	14652.7375
258.22014	15372.9375
262.4718	15956.1375
266.72039	16332.9375
270.96589	16479.1375
275.20832	16510.1375
279.44768	16439.9375
283.68397	16262.3375
287.91719	16126.1375
292.14735	16036.2375
296.37445	15963.3375
300.59849	15951.1375
304.81948	15951.7375
309.03742	15858.8375
313.25231	15750.9375
317.46415	15562.4375
321.67296	15271.0375
325.87872	15025.4375
330.08145	14924.8375
334.28114	14900.9375
338.47781	14991.2375
342.67145	15159.2375
346.86207	15369.3375
351.04966	15609.7375
355.23424	15787.7375
359.4158	15986.1375
363.59435	16088.0375
367.76989	16197.8375
371.94243	16249.8375
376.11196	16293.0375
380.27849	16378.9375
384.44203	16471.6375
388.60257	16624.7375
392.76012	16809.1375
396.91468	16996.0375
401.06626	17230.2375
405.21485	17399.3375
409.36047	17407.8375
413.50311	17325.2375
417.64277	17225.8375
421.77947	17256.2375
425.9132	17336.9375
430.04396	17440.5375
434.17176	17519.5375
438.2966	17612.6375
442.41849	17787.8375
446.53742	18146.6375
450.6534	18491.6375
454.76644	18778.2375
458.87653	18897.1375
462.98368	18867.5375
467.08789	18725.7375
471.18916	18585.3375
475.2875	18474.7375
479.38291	18410.3375
483.4754	18341.3375
487.56496	18113.2375
491.6516	17869.1375
495.73531	17664.7375
499.81612	17602.1375
503.89401	17686.8375
507.96899	17796.5375
512.04106	17811.4375
516.11023	17739.7375
520.1765	17623.7375
524.23987	17539.1375
528.30034	17430.6375
532.35792	17302.0375
536.41261	17139.5375
540.46441	16982.8375
544.51333	16990.7375
548.55936	17171.6375
552.60252	17462.6375
556.64279	17786.1375
560.6802	18026.9375
564.71473	18148.8375
568.7464	18317.8375
572.7752	18683.5375
576.80114	19137.4375
580.82422	19620.8375
584.84444	20266.2375
588.86181	20920.1375
592.87633	21350.6375
596.888	21214.1375
600.89682	20523.3375
604.9028	20261.2375
608.90594	20890.7375
612.90624	21618.2375
616.90371	20540.5375
620.89834	18285.0375
624.89015	17321.5375
628.87913	17233.4375
632.86528	17289.2375
636.84862	17327.5375
640.82913	17154.4375
644.80683	16893.4375
648.78172	16734.6375
652.75379	16694.5375
656.72306	16788.7375
660.68952	16917.1375
664.65319	16858.7375
668.61405	16685.3375
672.57211	16684.7375
676.52738	16737.7375
680.47986	16777.9375
684.42955	16688.7375
688.37646	16677.4375
692.32058	16736.5375
696.26192	16874.8375
700.20048	17083.0375
704.13626	17189.9375
708.06928	17303.5375
711.99952	17294.4375
715.927	17283.9375
719.85171	17279.6375
723.77365	17181.5375
727.69284	17000.0375
731.60928	16851.5375
735.52295	16784.8375
739.43388	16789.0375
743.34206	16798.4375
747.24749	16884.5375
751.15017	16995.0375
755.05012	17232.0375
758.94733	17602.7375
762.8418	18261.2375
766.73354	19133.4375
770.62254	19977.6375
774.50882	20069.3375
778.39237	19329.6375
782.27321	18335.9375
786.15132	17566.9375
790.02671	17056.4375
793.89938	16774.5375
797.76935	16750.1375
801.6366	16701.0375
805.50115	16665.7375
809.36299	16639.4375
813.22213	16561.9375
817.07857	16511.6375
820.93231	16478.6375
824.78336	16412.1375
828.63172	16396.8375
832.47738	16380.1375
836.32036	16441.1375
840.16066	16427.5375
843.99827	16442.4375
847.8332	16389.9375
851.66546	16350.6375
855.49504	16340.6375
859.32195	16330.3375
863.1462	16330.9375
866.96777	16299.2375
870.78668	16270.4375
874.60293	16280.8375
878.41652	16297.2375
882.22745	16324.4375
886.03573	16383.0375
889.84136	16401.4375
893.64433	16348.3375
897.44466	16304.9375
901.24235	16256.0375
905.0374	16217.0375
908.8298	16224.6375
912.61957	16238.9375
916.40671	16406.3375
920.19121	16539.4375
923.97308	16631.2375
927.75233	16636.4375
931.52895	16523.1375
935.30295	16347.2375
939.07433	16110.2375
942.84309	15952.1375
946.60924	15843.6375
950.37278	15806.9375
954.13371	15816.2375
957.89203	15793.1375
961.64774	15785.4375
965.40086	15750.7375
969.15137	15724.2375
972.89929	15664.3375
976.64461	15606.2375
980.38733	15563.8375
984.12747	15631.8375
987.86502	15675.7375
991.59999	15743.7375
995.33237	15875.8375
999.06217	16057.0375
1002.78939	16309.5375
1006.51404	16513.3375
1010.23611	16760.1375
1013.95561	16899.6375
1017.67255	16925.0375
1021.38692	16786.3375
1025.09872	16559.5375
1028.80796	16478.9375
1032.51465	16498.1375
1036.21877	16668.0375
1039.92035	16693.7375
1043.61937	16769.2375
1047.31584	16774.7375
1051.00976	16797.9375
1054.70114	16866.0375
1058.38998	17048.1375
1062.07627	17328.1375
1065.76003	17752.2375
1069.44126	18207.3375
1073.11995	18605.1375
1076.79611	18812.5375
1080.46974	18664.2375
1084.14085	18329.4375
1087.80943	18076.4375
1091.47549	17968.7375
1095.13903	17915.0375
1098.80005	17651.7375
1102.45857	17341.4375
1106.11456	16990.3375
1109.76805	16870.5375
1113.41903	16847.5375
1117.06751	16930.9375
1120.71348	17038.7375
1124.35696	17222.8375
1127.99793	17398.1375
1131.63641	17560.2375
1135.2724	17497.9375
1138.90589	17422.2375
1142.5369	17413.5375
1146.16542	17487.4375
1149.79145	17595.4375
1153.415	17732.6375
1157.03607	17912.0375
1160.65467	18305.0375
1164.27079	18944.7375
1167.88443	19772.5375
1171.49561	20671.8375
1175.10432	21830.3375
1178.71056	23202.3375
1182.31434	24476.0375
1185.91565	24949.1375
1189.51451	24640.6375
1193.11091	23980.8375
1196.70485	23241.8375
1200.29634	22496.0375
1203.88538	22005.8375
1207.47197	21802.3375
1211.05612	21625.8375
1214.63782	21281.3375
1218.21708	20872.7375
1221.79391	20303.6375
1225.36829	19981.5375
1228.94024	19739.9375
1232.50976	19544.1375
1236.07685	19334.6375
1239.6415	19212.5375
1243.20374	19239.5375
1246.76355	19337.7375
1250.32093	19565.4375
1253.8759	19853.4375
1257.42845	20280.9375
1260.97859	20737.7375
1264.52631	21209.4375
1268.07163	21594.5375
1271.61453	22016.1375
1275.15503	22562.2375
1278.69312	23148.5375
1282.22882	23718.1375
1285.76211	24433.4375
1289.29301	25310.0375
1292.82151	26326.7375
1296.34761	27576.5375
1299.87133	28903.9375
1303.39266	30203.6375
1306.9116	31382.8375
1310.42815	32335.9375
1313.94233	32884.9375
1317.45412	32778.5375
1320.96354	32360.0375
1324.47058	31881.3375
1327.97525	31591.6375
1331.47754	31359.3375
1334.97747	31194.3375
1338.47502	30987.7375
1341.97022	30665.7375
1345.46305	30341.4375
1348.95352	29993.1375
1352.44163	30051.7375
1355.92738	30583.6375
1359.41078	31592.2375
1362.89183	32377.4375
1366.37053	31964.9375
1369.84688	30071.1375
1373.32088	27468.0375
1376.79254	25576.5375
1380.26186	24803.7375
1383.72883	24688.6375
1387.19347	24600.8375
1390.65578	24394.3375
1394.11575	24306.5375
1397.57339	24490.9375
1401.0287	24863.5375
1404.48168	25062.9375
1407.93234	24981.3375
1411.38068	24519.8375
1414.82669	23803.3375
1418.27039	22918.5375
1421.71177	22027.3375
1425.15083	21284.3375
1428.58758	20911.0375
1432.02203	21043.8375
1435.45416	21421.8375
1438.88399	21947.4375
1442.31151	22346.2375
1445.73673	22640.7375
1449.15965	22843.8375
1452.58027	22941.5375
1455.9986	22994.1375
1459.41463	23102.5375
1462.82837	23438.5375
1466.23982	23853.5375
1469.64898	24219.0375
1473.05586	24518.9375
1476.46045	24613.9375
1479.86276	24545.2375
1483.26279	24409.2375
1486.66054	24367.9375
1490.05602	24498.3375
1493.44922	24761.0375
1496.84016	25026.5375
1500.22882	25355.3375
1503.61521	25876.2375
1506.99934	26542.8375
1510.38121	26961.9375
1513.76081	26912.7375
1517.13816	26470.5375
1520.51324	25822.5375
1523.88607	25336.8375
1527.25665	25102.8375
1530.62498	25061.9375
1533.99105	25037.5375
1537.35488	24752.3375
1540.71647	24284.4375
1544.07581	23732.3375
1547.4329	23187.9375
1550.78776	22679.8375
1554.14038	22381.8375
1557.49077	22177.8375
1560.83892	22092.2375
1564.18484	22192.6375
1567.52853	22435.7375
1570.86999	22872.8375
1574.20922	23593.4375
1577.54624	24350.3375
1580.88103	24788.8375
1584.2136	24912.2375
1587.54395	24949.3375
1590.87208	25319.6375
1594.19801	26049.3375
1597.52172	27005.0375
1600.84321	27271.5375
1604.16251	26378.0375
1607.47959	24671.6375
1610.79447	22829.6375
1614.10715	21188.0375
1617.41763	19811.5375
1620.7259	18958.4375
1624.03199	18474.6375
1627.33587	18432.7375
1630.63757	18821.1375
1633.93707	19739.1375
1637.23439	21311.7375
1640.52951	23603.4375
1643.82246	26451.2375
1647.11321	28758.2375
1650.40179	29278.9375
1653.68819	27588.4375
1656.97241	24517.5375
1660.25446	21504.3375
1663.53433	19269.9375
1666.81203	17738.3375
1670.08756	16755.8375
1673.36092	16093.0375
1676.63211	15716.8375
1679.90115	15406.9375
1683.16801	15237.9375
1686.43272	15045.7375
1689.69527	14951.6375
1692.95567	14867.4375
1696.2139	14822.9375
1699.46999	14765.4375
1702.72392	14741.6375
1705.97571	14699.7375
1709.22535	14669.4375
1712.47284	14601.8375
1715.71819	14590.4375
1718.96139	14577.3375
1722.20246	14519.5375
1725.44139	14500.4375
1728.67818	14431.1375
1731.91284	14333.0375
1735.14537	14290.2375
1738.37576	14234.2375
1741.60403	14200.1375
1744.83017	14194.9375
1748.05418	14136.3375
1751.27607	14130.4375
1754.49584	14094.2375
1757.71349	14096.6375
1760.92903	14095.5375
1764.14244	14112.8375
1767.35375	14107.1375
1770.56294	14075.4375
1773.77002	14047.6375
1776.97499	14038.0375
1780.17785	13977.3375
1783.37861	13973.5375
1786.57727	13933.7375
1789.77382	13871.2375
1792.96828	13884.4375
1796.16064	13835.2375
1799.3509	13812.8375
1802.53907	13794.6375
1805.72514	13772.5375
1808.90913	13706.4375
1812.09102	13706.6375
1815.27083	13685.1375
1818.44856	13692.9375
1821.6242	13676.5375
1824.79776	13632.6375
1827.96924	13633.2375
1831.13864	13639.3375
1834.30597	13646.9375
1837.47122	13660.3375
1840.6344	13614.3375
1843.7955	13614.7375
1846.95454	13599.0375
1850.11151	13609.6375
1853.26642	13582.6375
1856.41926	13570.1375
1859.57004	13584.7375
1862.71876	13553.1375
1865.86542	13531.9375
1869.01003	13533.2375
1872.15258	13505.3375
1875.29308	13522.6375
1878.43152	13465.9375
1881.56792	13436.5375
1884.70227	13423.4375
1887.83457	13410.1375
1890.96482	13400.3375
1894.09304	13397.3375
1897.21921	13399.8375
1900.34335	13397.2375
1903.46544	13337.8375
1906.58551	13342.5375
1909.70353	13329.6375
1912.81953	13313.7375
1915.93349	13302.6375
1919.04543	13242.9375
1922.15534	13224.3375
1925.26322	13205.5375
1928.36908	13165.3375
1931.47292	13147.9375
1934.57473	13127.3375
1937.67453	13112.1375
1940.77232	13067.4375
1943.86808	13043.9375
1946.96184	13018.2375
1950.05358	12983.4375
1953.14331	12951.3375
1956.23103	12929.4375
1959.31675	12904.8375
1962.40046	12843.5375
1965.48217	12824.6375
1968.56188	12794.0375
1971.63959	12738.9375
1974.7153	12734.6375
1977.78901	12653.6375
1980.86073	12607.7375
1983.93046	12590.3375
1986.99819	12574.6375
1990.06394	12543.3375
1993.1277	12508.6375
1996.18947	12449.2375
1999.24925	12394.6375
2002.30706	12393.2375
2005.36288	12382.4375
2008.41672	12328.9375
2011.46859	12290.0375
2014.51848	12271.4375
2017.56639	12233.0375
2020.61233	12216.0375
2023.6563	12177.7375
2026.6983	12170.8375
2029.73833	12134.5375
2032.7764	12101.7375
2035.8125	12097.5375
2038.84664	12052.3375
2041.87881	12027.9375
2044.90903	12028.1375
2047.93729	11994.1375
2050.96359	11990.4375
2053.98794	11955.8375
2057.01034	11963.2375
2060.03078	11966.7375
2063.04927	11932.0375
2066.06582	11938.8375
2069.08042	11927.4375
2072.09307	11930.5375
2075.10378	11935.2375
2078.11255	11901.3375
2081.11938	11916.8375
2084.12426	11902.4375
2087.12722	11910.7375
2090.12824	11887.9375
2093.12732	11894.3375
2096.12447	11897.7375
2099.11969	11900.9375
2102.11299	11910.3375
2105.10435	11916.0375
2108.09379	11939.1375
2111.08131	11940.0375
2114.0669	11941.8375
2117.05057	11955.2375
2120.03233	11942.1375
2123.01216	11955.0375
2125.99008	11951.3375
2128.96609	11985.0375
2131.94018	11993.6375
2134.91236	11979.1375
2137.88263	12006.6375
2140.851	11998.5375
2143.81746	12011.2375
2146.78201	12016.8375
2149.74466	12019.5375
2152.7054	12030.2375
2155.66425	12015.8375
2158.6212	12043.3375
2161.57625	12027.8375
2164.52941	12012.0375
2167.48067	12022.1375
2170.43004	12000.0375
2173.37752	12005.4375
2176.32311	11988.9375
2179.26681	12000.3375
2182.20863	12005.3375
2185.14856	11985.0375
2188.08661	11987.3375
2191.02278	11992.7375
2193.95707	12001.3375
2196.88948	11974.9375
2199.82001	11938.2375
2202.74867	11937.4375
2205.67545	11964.5375
2208.60037	11947.7375
2211.52341	11918.1375
2214.44458	11893.7375
2217.36388	11877.4375
2220.28132	11866.3375
2223.1969	11852.1375
2226.11061	11835.1375
2229.02246	11844.5375
2231.93245	11787.1375
2234.84058	11792.5375
2237.74686	11773.1375
2240.65128	11772.6375
2243.55385	11744.7375
2246.45456	11703.2375
2249.35343	11676.4375
2252.25044	11687.3375
2255.14561	11647.6375
2258.03893	11621.0375
2260.93041	11659.3375
2263.82004	11585.5375
2266.70783	11597.8375
2269.59378	11556.6375
2272.4779	11514.9375
2275.36017	11498.9375
2278.24061	11456.9375
2281.11922	11452.9375
2283.996	11442.5375
2286.87094	11434.6375
2289.74405	11423.5375
2292.61534	11391.1375
2295.4848	11380.9375
2298.35243	11395.5375
2301.21824	11376.2375
2304.08223	11375.4375
2306.94439	11342.1375
2309.80474	11344.1375
2312.66327	11332.6375
2315.51999	11341.1375
2318.37489	11333.9375
2321.22797	11301.6375
2324.07925	11291.6375
2326.92871	11258.0375
2329.77637	11281.7375
2332.62222	11257.4375
2335.46626	11263.0375
2338.3085	11221.5375
2341.14893	11251.7375
2343.98756	11215.0375
2346.8244	11212.3375
2349.65943	11185.6375
2352.49267	11216.5375
2355.32411	11208.1375
2358.15376	11192.5375
2360.98161	11176.4375
2363.80768	11169.5375
2366.63195	11180.0375
2369.45444	11149.6375
2372.27514	11143.3375
2375.09405	11113.2375
2377.91118	11121.9375
2380.72652	11104.2375
2383.54009	11065.8375
2386.35187	11049.0375
2389.16188	11026.9375
2391.97011	11007.5375
2394.77657	10996.3375
2397.58125	10966.4375
2400.38416	10947.2375
2403.18529	10942.0375
2405.98466	10933.2375
2408.78226	10889.2375
2411.57809	10931.9375
2414.37216	10901.1375
2417.16446	10897.6375
2419.955	10875.0375
2422.74378	10861.7375
2425.5308	10850.4375
2428.31606	10836.3375
2431.09956	10826.0375
2433.88131	10839.1375
2436.6613	10817.0375
2439.43954	10824.3375
2442.21603	10801.7375
2444.99077	10768.6375
2447.76377	10774.5375
2450.53501	10783.7375
2453.30451	10759.5375
2456.07226	10754.7375
2458.83827	10729.4375
2461.60254	10746.9375
2464.36507	10745.3375
2467.12586	10711.9375
2469.88492	10731.0375
2472.64224	10730.6375
2475.39782	10728.9375
2478.15167	10744.7375
2480.90379	10702.9375
2483.65417	10711.0375
2486.40283	10704.8375
2489.14976	10721.9375
2491.89497	10721.4375
2494.63845	10718.7375
2497.3802	10708.4375
2500.12024	10684.4375
2502.85855	10681.1375
2505.59514	10698.0375
2508.33002	10674.7375
2511.06318	10629.6375
2513.79462	10653.1375
2516.52435	10630.6375
2519.25237	10634.9375
2521.97867	10632.4375
2524.70327	10610.9375
2527.42616	10590.1375
2530.14734	10587.3375
2532.86681	10553.8375
2535.58458	10554.8375
2538.30065	10556.3375
2541.01501	10544.6375
2543.72768	10560.2375
2546.43864	10531.8375
2549.14791	10509.5375
2551.85548	10482.5375
2554.56136	10459.4375
2557.26554	10465.0375
2559.96803	10466.6375
2562.66883	10441.1375
2565.36794	10439.1375
2568.06536	10426.6375
2570.7611	10423.5375
2573.45514	10425.6375
2576.14751	10398.7375
2578.83819	10375.4375
2581.52719	10374.3375
2584.21451	10376.0375
2586.90015	10366.3375
2589.58411	10316.5375
2592.2664	10320.6375
2594.94701	10308.5375
2597.62594	10276.2375
2600.30321	10254.7375
2602.9788	10265.4375
2605.65273	10245.2375
2608.32498	10257.2375
2610.99557	10230.7375
2613.66449	10220.4375
2616.33175	10226.3375
2618.99734	10212.6375
2621.66128	10185.9375
2624.32355	10187.3375
2626.98416	10186.0375
2629.64311	10207.8375
2632.30041	10167.2375
2634.95605	10161.5375
2637.61004	10170.7375
2640.26238	10141.8375
2642.91306	10147.6375
2645.56209	10138.1375
2648.20948	10142.4375
2650.85521	10105.9375
2653.4993	10111.9375
2656.14175	10135.1375
2658.78255	10128.0375
2661.42171	10108.7375
2664.05923	10120.5375
2666.6951	10116.0375
2669.32934	10147.4375
2671.96194	10103.6375
2674.59291	10119.0375
2677.22224	10112.2375
2679.84993	10128.3375
2682.476	10093.3375
2685.10043	10138.1375
2687.72324	10118.3375
2690.34441	10120.7375
2692.96396	10128.2375
2695.58188	10120.5375
2698.19818	10120.4375
2700.81285	10113.0375
2703.4259	10129.0375
2706.03733	10169.8375
2708.64714	10158.8375
2711.25533	10171.9375
2713.86191	10140.1375
2716.46687	10176.9375
2719.07021	10158.6375
2721.67194	10144.0375
2724.27206	10130.7375
2726.87057	10147.5375
2729.46747	10127.9375
2732.06276	10125.1375
2734.65644	10142.5375
2737.24852	10157.0375
2739.83899	10149.4375
2742.42786	10145.0375
2745.01513	10117.7375
2747.60079	10114.2375
2750.18486	10103.5375
2752.76733	10116.7375
2755.3482	10108.2375
2757.92747	10107.1375
2760.50515	10103.5375
2763.08123	10099.6375
2765.65573	10073.4375
2768.22863	10043.3375
2770.79994	10066.7375
2773.36967	10043.8375
2775.9378	10038.1375
2778.50435	10033.5375
2781.06932	10019.1375
2783.6327	10023.9375
2786.1945	9985.4375
2788.75471	9987.3375
2791.31335	9963.1375
2793.87041	9957.5375
2796.42589	9934.0375
2798.97979	9938.1375
2801.53212	9898.0375
2804.08288	9913.5375
2806.63206	9842.2375
2809.17967	9843.7375
2811.72571	9823.5375
2814.27018	9830.0375
2816.81308	9788.9375
2819.35442	9804.1375
2821.89419	9784.0375
2824.43239	9784.6375
2826.96904	9772.4375
2829.50412	9760.1375
2832.03763	9741.5375
2834.56959	9732.1375
2837.1	9730.8375
2839.62884	9726.5375
2842.15613	9732.3375
2844.68186	9784.2375
2847.20604	9770.7375
2849.72867	9775.3375
2852.24974	9759.5375
2854.76927	9766.7375
2857.28724	9737.9375
2859.80367	9741.6375
2862.31855	9722.9375
2864.83189	9703.5375
2867.34368	9696.0375
2869.85393	9685.3375
2872.36264	9677.4375
2874.8698	9693.3375
2877.37543	9676.2375
2879.87952	9687.9375
2882.38207	9675.7375
2884.88308	9693.0375
2887.38256	9696.8375
2889.88051	9684.2375
2892.37692	9669.3375
2894.8718	9669.4375
2897.36515	9686.1375
2899.85698	9689.6375
2902.34727	9686.7375
2904.83604	9711.3375
2907.32328	9690.7375
2909.809	9699.7375
2912.29319	9710.1375
2914.77587	9709.4375
2917.25702	9702.6375
2919.73665	9683.0375
2922.21476	9717.2375
2924.69136	9675.7375
2927.16644	9689.9375
2929.64	9680.1375
2932.11205	9669.7375
2934.58258	9643.1375
2937.05161	9681.3375
2939.51912	9674.7375
2941.98513	9666.3375
2944.44962	9618.6375
2946.91261	9602.6375
2949.37409	9612.6375
2951.83407	9628.5375
2954.29254	9604.9375
2956.74951	9579.9375
2959.20498	9577.1375
2961.65895	9587.0375
2964.11142	9556.7375
2966.56239	9548.1375
2969.01186	9553.0375
2971.45984	9511.8375
2973.90632	9486.7375
2976.35131	9468.1375
2978.7948	9440.0375
2981.23681	9427.3375
2983.67732	9442.2375
2986.11635	9409.6375
2988.55388	9387.4375
2990.98993	9372.4375
2993.4245	9353.7375
2995.85758	9334.1375
2998.28917	9321.1375
3000.71928	9315.4375
3003.14791	9298.2375
3005.57506	9277.7375
3008.00073	9293.4375
3010.42493	9271.3375
3012.84764	9258.9375
3015.26888	9221.8375
3017.68865	9201.0375
3020.10694	9182.4375
3022.52376	9167.1375
3024.9391	9162.4375
3027.35298	9167.7375
3029.76539	9163.8375
3032.17632	9180.8375
3034.5858	9129.6375
3036.9938	9143.2375
3039.40034	9135.7375
3041.80542	9110.0375
3044.20903	9101.6375
3046.61118	9098.2375
3049.01187	9062.8375
3051.4111	9053.7375
3053.80888	9053.9375
3056.20519	9056.4375
3058.60005	9029.6375
3060.99345	9010.0375
3063.3854	9006.1375
3065.7759	8966.6375
3068.16494	8967.8375
3070.55254	8950.2375
3072.93868	8920.0375
3075.32338	8929.1375
3077.70662	8897.5375
3080.08842	8866.4375
3082.46878	8869.2375
3084.84769	8871.6375
3087.22515	8876.2375
3089.60118	8848.3375
3091.97576	8858.5375
3094.3489	8866.7375
3096.72061	8848.1375
3099.09087	8873.6375
3101.4597	8839.8375
3103.82709	8833.0375
3106.19305	8829.9375
3108.55757	8836.1375
3110.92066	8795.8375
3113.28232	8789.4375
3115.64255	8759.6375
3118.00134	8753.3375
3120.35871	8753.3375
3122.71466	8726.5375
3125.06917	8718.0375
3127.42226	8704.7375
3129.77393	8707.2375
3132.12417	8721.4375
3134.47299	8719.1375
3136.82039	8716.0375
3139.16636	8730.8375
3141.51092	8727.0375
3143.85406	8719.9375
3146.19579	8738.5375
3148.53609	8734.4375
3150.87499	8753.0375
3153.21246	8743.1375
3155.54853	8771.2375
3157.88318	8719.9375
3160.21642	8738.4375
3162.54826	8731.0375
3164.87868	8747.4375
3167.2077	8739.2375
3169.5353	8756.6375
3171.86151	8749.1375
3174.18631	8734.7375
3176.5097	8720.2375
3178.83169	8739.6375
3181.15228	8721.6375
3183.47147	8703.6375
3185.78926	8737.0375
3188.10565	8702.2375
3190.42065	8715.5375
3192.73424	8694.1375
3195.04645	8678.4375
3197.35725	8712.9375
3199.66667	8700.8375
3201.97469	8729.0375
3204.28132	8685.7375
3206.58656	8719.1375
3208.8904	8713.4375
3211.19287	8699.0375
3213.49394	8707.9375
3215.79363	8731.6375
3218.09193	8723.7375
3220.38884	8714.6375
3222.68438	8730.9375
3224.97853	8704.2375
3227.2713	8696.9375
3229.56269	8696.3375
3231.8527	8674.1375
3234.14133	8645.4375
3236.42858	8619.5375
3238.71446	8646.6375
3240.99896	8624.7375
3243.28209	8622.4375
3245.56384	8599.4375
3247.84423	8616.1375
3250.12324	8608.8375
3252.40088	8615.5375
3254.67715	8606.5375
3256.95205	8617.4375
3259.22558	8586.4375
3261.49775	8582.7375
3263.76855	8577.3375
3266.03799	8536.5375
3268.30606	8518.9375
3270.57277	8522.3375
3272.83812	8522.6375
3275.10211	8468.8375
3277.36474	8465.0375
3279.62601	8470.1375
3281.88593	8469.9375
3284.14448	8481.6375
3286.40168	8486.6375
3288.65753	8474.1375
3290.91202	8461.7375
3293.16516	8408.9375
3295.41695	8417.8375
3297.66738	8338.2375
3299.91647	8313.9375
3302.16421	8262.4375
3304.4106	8222.5375
3306.65564	8187.4375
3308.89933	8139.1375
3311.14169	8085.4375
3313.38269	8037.7375
3315.62236	7971.3375
3317.86068	7923.7375
3320.09766	7827.2375
3322.3333	7767.5375
3324.5676	7768.5375
3326.80056	7660.2375
3329.03219	7624.2375
3331.26248	2.5375
3333.49143	0.1375
3335.71905	-1.3625
