Data from AgNP_FTO_APTES_CRN_50uM_R6G_10uM_NaF_0.1M_Addition_RamanShift__13__18-01-08-071.txt Node

Date: Wed Dec 15 18:01:08 GMT 2021
User: TCL
Spectrometer: QEP01345
Trigger mode: 4
Integration Time (sec): 7.000000E0
Scans to average: 10
Electric dark correction enabled: true
Nonlinearity correction enabled: false
Boxcar width: 0
XAxis mode: Raman Shifts
Number of Pixels in Spectrum: 1044
>>>>>Begin Spectral Data<<<<<
46.04893	0.7
50.45542	-1
54.85868	-1.4
59.25871	-1
63.6555	53.6
68.04907	59.8
72.43941	60.2
76.82654	66.2
81.21044	68.9
85.59113	69.4
89.96862	71.9
94.34289	69.8
98.71396	75
103.08183	82
107.4465	86.9
111.80798	86
116.16626	80.7
120.52136	86.8
124.87327	87.5
129.222	94.7
133.56755	95
137.90993	101.7
142.24913	114.7
146.58517	121
150.91804	140.9
155.24774	159.3
159.57429	201
163.89768	252
168.21792	323.5
172.53501	441.1
176.84895	604.8
181.15975	851.3
185.46741	1188.4
189.77193	1645.8
194.07331	2207
198.37157	2843.4
202.6667	3523.8
206.9587	4194
211.24758	4859.5
215.53334	5522.5
219.81599	6202.8
224.09553	6942.2
228.37195	7752.2
232.64527	8678.3
236.91549	9659.5
241.18261	10655.1
245.44663	11636.3
249.70755	12511.5
253.96539	13286
258.22014	13946.9
262.4718	14443.7
266.72039	14823
270.96589	14984.8
275.20832	15049.3
279.44768	14978.5
283.68397	14894.6
287.91719	14788.9
292.14735	14702.4
296.37445	14645.8
300.59849	14626
304.81948	14595.5
309.03742	14497.8
313.25231	14381
317.46415	14189.1
321.67296	13946
325.87872	13731.6
330.08145	13610
334.28114	13620.6
338.47781	13718.6
342.67145	13860.3
346.86207	14029.4
351.04966	14177.4
355.23424	14346.7
359.4158	14471.6
363.59435	14597
367.76989	14703.9
371.94243	14770.4
376.11196	14839.1
380.27849	14888.9
384.44203	14948.3
388.60257	15049.1
392.76012	15183.8
396.91468	15399.5
401.06626	15613.5
405.21485	15788.3
409.36047	15850.2
413.50311	15734.6
417.64277	15666.9
421.77947	15655.1
425.9132	15681.2
430.04396	15745.5
434.17176	15858.3
438.2966	15926.8
442.41849	16009.3
446.53742	16229.6
450.6534	16410.6
454.76644	16578.8
458.87653	16704.3
462.98368	16731.1
467.08789	16720.5
471.18916	16665.3
475.2875	16603.9
479.38291	16511.3
483.4754	16464.8
487.56496	16347.6
491.6516	16272.3
495.73531	16190.3
499.81612	16156.7
503.89401	16242.3
507.96899	16298.9
512.04106	16330.9
516.11023	16322.5
520.1765	16253.6
524.23987	16175.7
528.30034	16087.4
532.35792	16030.3
536.41261	15967.8
540.46441	15856.5
544.51333	15877.9
548.55936	16046.6
552.60252	16254.1
556.64279	16485.1
560.6802	16587.5
564.71473	16634.1
568.7464	16756
572.7752	17006
576.80114	17283.3
580.82422	17650.8
584.84444	17956.5
588.86181	18074.7
592.87633	18064.2
596.888	17950.3
600.89682	17880.3
604.9028	18051.7
608.90594	18718.3
612.90624	19399.4
616.90371	18655.5
620.89834	16991.7
624.89015	16261.6
628.87913	16198.1
632.86528	16319.8
636.84862	16415.6
640.82913	16341.4
644.80683	16129.6
648.78172	15982.6
652.75379	15927.4
656.72306	15993.3
660.68952	16119.3
664.65319	16149.7
668.61405	16070.5
672.57211	16031
676.52738	16056
680.47986	16052.1
684.42955	16022.3
688.37646	16035.3
692.32058	16067.7
696.26192	16163.2
700.20048	16276.4
704.13626	16400.8
708.06928	16474.9
711.99952	16465.1
715.927	16404.6
719.85171	16368.3
723.77365	16288.6
727.69284	16179.7
731.60928	16056.7
735.52295	15999.9
739.43388	15970.6
743.34206	15951.7
747.24749	16028.4
751.15017	16128.8
755.05012	16260.5
758.94733	16552.7
762.8418	17038.7
766.73354	17857
770.62254	18539.8
774.50882	18655.1
778.39237	18076.6
782.27321	17337.4
786.15132	16684.5
790.02671	16251.6
793.89938	16037.7
797.76935	15943.3
801.6366	15884.1
805.50115	15862.8
809.36299	15797
813.22213	15764.5
817.07857	15762.5
820.93231	15760.9
824.78336	15737.3
828.63172	15746.2
832.47738	15746.9
836.32036	15749.5
840.16066	15763.1
843.99827	15715
847.8332	15687.7
851.66546	15709.3
855.49504	15702
859.32195	15727.6
863.1462	15699.2
866.96777	15701.6
870.78668	15702.8
874.60293	15709.4
878.41652	15726.7
882.22745	15741.5
886.03573	15799.4
889.84136	15832.3
893.64433	15809.2
897.44466	15768.5
901.24235	15736.7
905.0374	15749.1
908.8298	15737.6
912.61957	15777.2
916.40671	15855.3
920.19121	15974.6
923.97308	15999.5
927.75233	15944.1
931.52895	15878.5
935.30295	15761.6
939.07433	15620.4
942.84309	15494
946.60924	15398.6
950.37278	15317.1
954.13371	15301
957.89203	15277.1
961.64774	15254.8
965.40086	15228.7
969.15137	15241.7
972.89929	15177.6
976.64461	15113
980.38733	15113.5
984.12747	15139.4
987.86502	15172.2
991.59999	15195.2
995.33237	15241.9
999.06217	15382.3
1002.78939	15463.1
1006.51404	15622
1010.23611	15758.3
1013.95561	15849.8
1017.67255	15852.4
1021.38692	15789.6
1025.09872	15657.7
1028.80796	15619.7
1032.51465	15539.7
1036.21877	15538.7
1039.92035	15624.7
1043.61937	15680.9
1047.31584	15724.8
1051.00976	15881.4
1054.70114	15942.3
1058.38998	16118.4
1062.07627	16335
1065.76003	16555.8
1069.44126	16840.1
1073.11995	17070.7
1076.79611	17218.5
1080.46974	17222.1
1084.14085	17073.8
1087.80943	16981
1091.47549	16922.5
1095.13903	16953.5
1098.80005	16862.3
1102.45857	16609.8
1106.11456	16337.6
1109.76805	16176.9
1113.41903	16079.9
1117.06751	16076
1120.71348	16177.2
1124.35696	16316.6
1127.99793	16435.5
1131.63641	16513.2
1135.2724	16444.4
1138.90589	16400.6
1142.5369	16373.9
1146.16542	16395.1
1149.79145	16449.9
1153.415	16490
1157.03607	16589.1
1160.65467	16744.9
1164.27079	17079.5
1167.88443	17521.2
1171.49561	18029.2
1175.10432	18706.8
1178.71056	19526.4
1182.31434	20306.8
1185.91565	20846.1
1189.51451	21016.8
1193.11091	20927.6
1196.70485	20578.6
1200.29634	19947.3
1203.88538	19478.2
1207.47197	19087
1211.05612	18738.2
1214.63782	18456.7
1218.21708	18190.9
1221.79391	17903.8
1225.36829	17654.3
1228.94024	17529
1232.50976	17511.5
1236.07685	17499.6
1239.6415	17538.8
1243.20374	17540.9
1246.76355	17619.3
1250.32093	17730.2
1253.8759	17952.9
1257.42845	18241.1
1260.97859	18528
1264.52631	18848.7
1268.07163	19096.8
1271.61453	19294.1
1275.15503	19550.7
1278.69312	19793.3
1282.22882	19979.9
1285.76211	20285.2
1289.29301	20578.1
1292.82151	20951.4
1296.34761	21431.1
1299.87133	21951.4
1303.39266	22509.8
1306.9116	23064.2
1310.42815	23527.1
1313.94233	23857.9
1317.45412	23945.9
1320.96354	23937.8
1324.47058	23900
1327.97525	23938.4
1331.47754	24012.2
1334.97747	24139.5
1338.47502	24354.9
1341.97022	24751.2
1345.46305	25057.8
1348.95352	25226.8
1352.44163	25172.6
1355.92738	25124.2
1359.41078	25166
1362.89183	25215.2
1366.37053	24775.6
1369.84688	23618.4
1373.32088	22208.9
1376.79254	21103.2
1380.26186	20523.4
1383.72883	20242.3
1387.19347	20029.6
1390.65578	19802.1
1394.11575	19629.7
1397.57339	19475.3
1401.0287	19442.1
1404.48168	19396.5
1407.93234	19330.8
1411.38068	19155.8
1414.82669	18819.7
1418.27039	18421.6
1421.71177	17998.3
1425.15083	17658.7
1428.58758	17459.6
1432.02203	17441.4
1435.45416	17579.6
1438.88399	17745.1
1442.31151	17937.4
1445.73673	18043.8
1449.15965	18227.8
1452.58027	18361.6
1455.9986	18471.8
1459.41463	18668.9
1462.82837	18939.8
1466.23982	19209.5
1469.64898	19514.1
1473.05586	19753.5
1476.46045	19895.6
1479.86276	19977.2
1483.26279	20031.3
1486.66054	20068.6
1490.05602	20270.6
1493.44922	20527.4
1496.84016	20978.5
1500.22882	21552.2
1503.61521	22282.8
1506.99934	22980.7
1510.38121	23396.3
1513.76081	23356.6
1517.13816	22946
1520.51324	22389.1
1523.88607	21893.9
1527.25665	21470.6
1530.62498	21277.7
1533.99105	21043
1537.35488	20792.3
1540.71647	20454.5
1544.07581	20090.7
1547.4329	19743.8
1550.78776	19469.5
1554.14038	19269.4
1557.49077	19234.9
1560.83892	19232.3
1564.18484	19336.7
1567.52853	19479.4
1570.86999	19690.3
1574.20922	19914.2
1577.54624	20145.1
1580.88103	20161.2
1584.2136	20034.6
1587.54395	19934.5
1590.87208	19899.1
1594.19801	20089.9
1597.52172	20489.4
1600.84321	20620.5
1604.16251	20263.9
1607.47959	19613.5
1610.79447	18967
1614.10715	18192.2
1617.41763	17476.6
1620.7259	16841.7
1624.03199	16451.3
1627.33587	16345.4
1630.63757	16391.3
1633.93707	16778.5
1637.23439	17428.4
1640.52951	18473.3
1643.82246	19785.7
1647.11321	21067.6
1650.40179	21697.8
1653.68819	21377.3
1656.97241	20138.8
1660.25446	18602.4
1663.53433	17210.1
1666.81203	16144.5
1670.08756	15431.6
1673.36092	14939.1
1676.63211	14615.3
1679.90115	14407.2
1683.16801	14204.7
1686.43272	14103.3
1689.69527	13989.6
1692.95567	13943.4
1696.2139	13918.8
1699.46999	13897.4
1702.72392	13828.4
1705.97571	13825.1
1709.22535	13773.7
1712.47284	13749.4
1715.71819	13724.2
1718.96139	13673.1
1722.20246	13654.2
1725.44139	13643.5
1728.67818	13560.6
1731.91284	13537.6
1735.14537	13454.1
1738.37576	13427.9
1741.60403	13378.2
1744.83017	13368.1
1748.05418	13357.7
1751.27607	13313.8
1754.49584	13262.7
1757.71349	13310.4
1760.92903	13304
1764.14244	13285.5
1767.35375	13288.1
1770.56294	13260
1773.77002	13232.5
1776.97499	13212.5
1780.17785	13201.9
1783.37861	13158.3
1786.57727	13137.7
1789.77382	13082.6
1792.96828	13094.3
1796.16064	13068.9
1799.3509	13013.9
1802.53907	13008.3
1805.72514	12962.2
1808.90913	12934.8
1812.09102	12907.2
1815.27083	12890.3
1818.44856	12849.8
1821.6242	12807.2
1824.79776	12841.9
1827.96924	12812.5
1831.13864	12821
1834.30597	12838.8
1837.47122	12804.7
1840.6344	12789.1
1843.7955	12768.7
1846.95454	12762.2
1850.11151	12747.6
1853.26642	12745.7
1856.41926	12735.8
1859.57004	12732.1
1862.71876	12721.2
1865.86542	12695.1
1869.01003	12665
1872.15258	12663.8
1875.29308	12643.8
1878.43152	12598.3
1881.56792	12586.4
1884.70227	12585.3
1887.83457	12517.2
1890.96482	12540.7
1894.09304	12514.5
1897.21921	12501.1
1900.34335	12504
1903.46544	12470.5
1906.58551	12454.2
1909.70353	12431.5
1912.81953	12402.1
1915.93349	12396.3
1919.04543	12360.7
1922.15534	12333.3
1925.26322	12309.9
1928.36908	12279.8
1931.47292	12269.4
1934.57473	12248.5
1937.67453	12205.8
1940.77232	12182
1943.86808	12182.6
1946.96184	12138.4
1950.05358	12127.9
1953.14331	12059.2
1956.23103	12057.9
1959.31675	12033.8
1962.40046	11968.9
1965.48217	11931.9
1968.56188	11885.6
1971.63959	11857.1
1974.7153	11806.8
1977.78901	11786.2
1980.86073	11734
1983.93046	11713.7
1986.99819	11662
1990.06394	11641.6
1993.1277	11592
1996.18947	11547.7
1999.24925	11530.4
2002.30706	11483.2
2005.36288	11432.3
2008.41672	11442.5
2011.46859	11405.2
2014.51848	11370.6
2017.56639	11359.8
2020.61233	11299.8
2023.6563	11249.8
2026.6983	11238.9
2029.73833	11221.5
2032.7764	11179.7
2035.8125	11182
2038.84664	11126.7
2041.87881	11119.3
2044.90903	11081.3
2047.93729	11088.6
2050.96359	11055.3
2053.98794	11033.4
2057.01034	11006.2
2060.03078	11012.8
2063.04927	11003.8
2066.06582	10971.2
2069.08042	10987.9
2072.09307	10973.8
2075.10378	10960.7
2078.11255	10936.3
2081.11938	10955.5
2084.12426	10942.2
2087.12722	10950.6
2090.12824	10931.4
2093.12732	10949.1
2096.12447	10952.3
2099.11969	10923
2102.11299	10938.2
2105.10435	10937.2
2108.09379	10960.9
2111.08131	10969.8
2114.0669	10950
2117.05057	10970.6
2120.03233	10969
2123.01216	10957.4
2125.99008	10958.8
2128.96609	10989.6
2131.94018	10989
2134.91236	10999.6
2137.88263	10991.7
2140.851	10995.7
2143.81746	11039
2146.78201	11014.5
2149.74466	11006.8
2152.7054	10991.6
2155.66425	11023.9
2158.6212	11032.3
2161.57625	11016.3
2164.52941	11010.4
2167.48067	11005
2170.43004	11000.2
2173.37752	10977.2
2176.32311	10960.1
2179.26681	10970.7
2182.20863	10936.3
2185.14856	10965
2188.08661	10943
2191.02278	10943.2
2193.95707	10935.5
2196.88948	10894.3
2199.82001	10895.6
2202.74867	10874.7
2205.67545	10879.1
2208.60037	10871.2
2211.52341	10873.5
2214.44458	10849.8
2217.36388	10786
2220.28132	10793.1
2223.1969	10774.7
2226.11061	10776.2
2229.02246	10748.9
2231.93245	10710.1
2234.84058	10696.3
2237.74686	10672
2240.65128	10661.8
2243.55385	10644.9
2246.45456	10616
2249.35343	10606.7
2252.25044	10601.5
2255.14561	10540.7
2258.03893	10571.1
2260.93041	10540.3
2263.82004	10514
2266.70783	10497.8
2269.59378	10459
2272.4779	10463.5
2275.36017	10395.6
2278.24061	10369
2281.11922	10334.9
2283.996	10352.3
2286.87094	10316
2289.74405	10307.4
2292.61534	10312.4
2295.4848	10263.7
2298.35243	10268.4
2301.21824	10252.5
2304.08223	10250.9
2306.94439	10206.9
2309.80474	10215.5
2312.66327	10209.9
2315.51999	10183.8
2318.37489	10192.5
2321.22797	10170.1
2324.07925	10136.4
2326.92871	10161
2329.77637	10158.8
2332.62222	10103.5
2335.46626	10088
2338.3085	10082.3
2341.14893	10079.9
2343.98756	10041
2346.8244	10031.2
2349.65943	10016.9
2352.49267	10023.5
2355.32411	9998.3
2358.15376	10023.9
2360.98161	9999.6
2363.80768	10001
2366.63195	9994.6
2369.45444	9975.8
2372.27514	9951.7
2375.09405	9944.3
2377.91118	9929.2
2380.72652	9899.9
2383.54009	9898.1
2386.35187	9872.5
2389.16188	9841.2
2391.97011	9827
2394.77657	9818.6
2397.58125	9777.9
2400.38416	9766.2
2403.18529	9758.5
2405.98466	9762
2408.78226	9728
2411.57809	9725
2414.37216	9710.5
2417.16446	9702.4
2419.955	9670.9
2422.74378	9671.6
2425.5308	9660
2428.31606	9628
2431.09956	9610.9
2433.88131	9601.5
2436.6613	9612.3
2439.43954	9595.1
2442.21603	9582.1
2444.99077	9542
2447.76377	9557.5
2450.53501	9577.2
2453.30451	9529.6
2456.07226	9514.6
2458.83827	9520.1
2461.60254	9505.1
2464.36507	9472.5
2467.12586	9497.1
2469.88492	9486.1
2472.64224	9471.4
2475.39782	9472.1
2478.15167	9444.6
2480.90379	9460.5
2483.65417	9450.4
2486.40283	9459.3
2489.14976	9445.7
2491.89497	9427.5
2494.63845	9439.7
2497.3802	9405
2500.12024	9391.3
2502.85855	9409.3
2505.59514	9378
2508.33002	9354.8
2511.06318	9366.2
2513.79462	9330.1
2516.52435	9334.2
2519.25237	9306.7
2521.97867	9310.4
2524.70327	9296.8
2527.42616	9283.6
2530.14734	9251.9
2532.86681	9213.6
2535.58458	9224.9
2538.30065	9224.8
2541.01501	9227.3
2543.72768	9196.4
2546.43864	9174.8
2549.14791	9161.6
2551.85548	9157.1
2554.56136	9119.2
2557.26554	9096.2
2559.96803	9102.5
2562.66883	9078.9
2565.36794	9079.5
2568.06536	9076.2
2570.7611	9040
2573.45514	9044.5
2576.14751	8999
2578.83819	8993.7
2581.52719	8981.3
2584.21451	8965.3
2586.90015	8954.8
2589.58411	8938.5
2592.2664	8893.8
2594.94701	8878.4
2597.62594	8872.8
2600.30321	8853.1
2602.9788	8851.5
2605.65273	8830.7
2608.32498	8826.2
2610.99557	8800.5
2613.66449	8801.2
2616.33175	8770.4
2618.99734	8767.5
2621.66128	8747.9
2624.32355	8748.1
2626.98416	8711.2
2629.64311	8709.6
2632.30041	8720.5
2634.95605	8670.5
2637.61004	8702.2
2640.26238	8676.4
2642.91306	8682.9
2645.56209	8683
2648.20948	8655.7
2650.85521	8646.9
2653.4993	8620.4
2656.14175	8641.9
2658.78255	8627
2661.42171	8617.4
2664.05923	8633.2
2666.6951	8605.5
2669.32934	8631.8
2671.96194	8618.5
2674.59291	8599.3
2677.22224	8610.7
2679.84993	8617.2
2682.476	8626.8
2685.10043	8592.5
2687.72324	8608.2
2690.34441	8591.1
2692.96396	8618
2695.58188	8589
2698.19818	8583.4
2700.81285	8578.8
2703.4259	8581.5
2706.03733	8641
2708.64714	8630.7
2711.25533	8622.9
2713.86191	8609
2716.46687	8615.4
2719.07021	8604.4
2721.67194	8597.9
2724.27206	8561.1
2726.87057	8574.6
2729.46747	8588.5
2732.06276	8592.2
2734.65644	8583.8
2737.24852	8554.4
2739.83899	8545.3
2742.42786	8548.3
2745.01513	8502.7
2747.60079	8501
2750.18486	8501.6
2752.76733	8484.8
2755.3482	8473.7
2757.92747	8494
2760.50515	8474
2763.08123	8437.8
2765.65573	8425.5
2768.22863	8438.5
2770.79994	8406.6
2773.36967	8403.7
2775.9378	8384.3
2778.50435	8384.7
2781.06932	8334
2783.6327	8354.8
2786.1945	8319.8
2788.75471	8348.1
2791.31335	8312.7
2793.87041	8282.1
2796.42589	8261.8
2798.97979	8259.5
2801.53212	8282
2804.08288	8226.7
2806.63206	8230.3
2809.17967	8195.4
2811.72571	8186.8
2814.27018	8177
2816.81308	8137
2819.35442	8126.1
2821.89419	8123.8
2824.43239	8107.8
2826.96904	8105
2829.50412	8106.8
2832.03763	8068.6
2834.56959	8078.6
2837.1	8049.5
2839.62884	8071.6
2842.15613	8058
2844.68186	8052.9
2847.20604	8044.2
2849.72867	8060.8
2852.24974	8040.5
2854.76927	8030
2857.28724	8028.8
2859.80367	8039.3
2862.31855	7993.2
2864.83189	7981.2
2867.34368	7968.1
2869.85393	7983.6
2872.36264	7977.1
2874.8698	7957
2877.37543	7951.8
2879.87952	7944.7
2882.38207	7936.5
2884.88308	7938
2887.38256	7945.3
2889.88051	7922.9
2892.37692	7923.9
2894.8718	7925.3
2897.36515	7921.5
2899.85698	7918.4
2902.34727	7927.7
2904.83604	7920.6
2907.32328	7939.5
2909.809	7919.7
2912.29319	7922.3
2914.77587	7902
2917.25702	7907.3
2919.73665	7890.6
2922.21476	7890.8
2924.69136	7912.2
2927.16644	7894.1
2929.64	7891.1
2932.11205	7871.1
2934.58258	7843.3
2937.05161	7877.5
2939.51912	7852.3
2941.98513	7857.1
2944.44962	7840.1
2946.91261	7813.7
2949.37409	7837.6
2951.83407	7819.7
2954.29254	7802
2956.74951	7804.8
2959.20498	7799.4
2961.65895	7778
2964.11142	7779.8
2966.56239	7794.8
2969.01186	7774.8
2971.45984	7709.5
2973.90632	7716.6
2976.35131	7692
2978.7948	7679.9
2981.23681	7683.9
2983.67732	7677.9
2986.11635	7675.2
2988.55388	7642.8
2990.98993	7620.5
2993.4245	7590.2
2995.85758	7600.4
2998.28917	7580.6
3000.71928	7566.6
3003.14791	7554.7
3005.57506	7518.1
3008.00073	7529.9
3010.42493	7515.4
3012.84764	7484.8
3015.26888	7481.6
3017.68865	7470.2
3020.10694	7458.8
3022.52376	7449.2
3024.9391	7440.3
3027.35298	7437.2
3029.76539	7452.8
3032.17632	7423
3034.5858	7411.9
3036.9938	7424.3
3039.40034	7398.6
3041.80542	7373.4
3044.20903	7371.2
3046.61118	7350
3049.01187	7350
3051.4111	7325.2
3053.80888	7339.7
3056.20519	7321.5
3058.60005	7306.4
3060.99345	7289.6
3063.3854	7266.9
3065.7759	7256.6
3068.16494	7259.7
3070.55254	7199.9
3072.93868	7224.5
3075.32338	7197.5
3077.70662	7157.4
3080.08842	7160.4
3082.46878	7167.6
3084.84769	7146.2
3087.22515	7153.6
3089.60118	7152.6
3091.97576	7143.6
3094.3489	7141.8
3096.72061	7135
3099.09087	7140.1
3101.4597	7135.6
3103.82709	7131.7
3106.19305	7100.9
3108.55757	7099.3
3110.92066	7089.7
3113.28232	7084.2
3115.64255	7057.5
3118.00134	7034.9
3120.35871	7043.9
3122.71466	7033.7
3125.06917	7043.3
3127.42226	7011.4
3129.77393	7051.5
3132.12417	7032.1
3134.47299	7042.5
3136.82039	7032.2
3139.16636	7017
3141.51092	7026.2
3143.85406	7021.8
3146.19579	7024.6
3148.53609	7036.6
3150.87499	7030.2
3153.21246	7034.8
3155.54853	7039.7
3157.88318	7018.2
3160.21642	7051.8
3162.54826	7032
3164.87868	7038.3
3167.2077	7048.1
3169.5353	7013.4
3171.86151	7038.4
3174.18631	7023.2
3176.5097	7040
3178.83169	7012
3181.15228	7002.8
3183.47147	7006.3
3185.78926	6998.9
3188.10565	6998.9
3190.42065	6981.8
3192.73424	6992.2
3195.04645	6957.6
3197.35725	7000.5
3199.66667	6979.2
3201.97469	6991.4
3204.28132	6982.3
3206.58656	6984.5
3208.8904	6979.3
3211.19287	7007.2
3213.49394	6979.4
3215.79363	6989.8
3218.09193	6975.8
3220.38884	6985.2
3222.68438	6993.2
3224.97853	6986.6
3227.2713	6972
3229.56269	6961.1
3231.8527	6946
3234.14133	6940.8
3236.42858	6904.4
3238.71446	6918
3240.99896	6896.6
3243.28209	6880.3
3245.56384	6878.3
3247.84423	6880.5
3250.12324	6891.9
3252.40088	6862.7
3254.67715	6879.4
3256.95205	6879.5
3259.22558	6852.2
3261.49775	6858.2
3263.76855	6847.7
3266.03799	6832.8
3268.30606	6806.4
3270.57277	6790.7
3272.83812	6771.7
3275.10211	6758.7
3277.36474	6765.6
3279.62601	6772.8
3281.88593	6756.9
3284.14448	6757.2
3286.40168	6755.3
3288.65753	6759.3
3290.91202	6729.3
3293.16516	6704
3295.41695	6693.1
3297.66738	6643.4
3299.91647	6621.6
3302.16421	6574.5
3304.4106	6546.5
3306.65564	6531.2
3308.89933	6485.1
3311.14169	6445.9
3313.38269	6389.9
3315.62236	6360.4
3317.86068	6287.1
3320.09766	6245.5
3322.3333	6198.5
3324.5676	6193.9
3326.80056	6092.4
3329.03219	6061.9
3331.26248	2.9
3333.49143	-0.7
3335.71905	0.9
