Data from AgNP_FTO_APTES_CRN_50uM_R6G_10uM_NaF_0.1M_Addition_RamanShift__6__17-52-58-056.txt Node

Date: Wed Dec 15 17:52:58 GMT 2021
User: TCL
Spectrometer: QEP01345
Trigger mode: 4
Integration Time (sec): 7.000000E0
Scans to average: 10
Electric dark correction enabled: true
Nonlinearity correction enabled: false
Boxcar width: 0
XAxis mode: Raman Shifts
Number of Pixels in Spectrum: 1044
>>>>>Begin Spectral Data<<<<<
46.04893	0.8
50.45542	-2.2
54.85868	-1.5
59.25871	-0.5
63.6555	58.9
68.04907	66.4
72.43941	69.3
76.82654	72.6
81.21044	74.7
85.59113	77.8
89.96862	84.4
94.34289	82.2
98.71396	87.9
103.08183	92.1
107.4465	94.1
111.80798	95.2
116.16626	96.3
120.52136	100.8
124.87327	101.3
129.222	105.1
133.56755	108.3
137.90993	120.4
142.24913	130.4
146.58517	144.4
150.91804	163.8
155.24774	192
159.57429	242
163.89768	307.3
168.21792	400.2
172.53501	538.9
176.84895	745.1
181.15975	1050.6
185.46741	1470.9
189.77193	2026
194.07331	2709
198.37157	3485.4
202.6667	4292.6
206.9587	5105.8
211.24758	5896.2
215.53334	6692.5
219.81599	7527.4
224.09553	8476.9
228.37195	9479.7
232.64527	10580.6
236.91549	11780.2
241.18261	12987.6
245.44663	14120.4
249.70755	15153
253.96539	16075.7
258.22014	16848.6
262.4718	17429.7
266.72039	17892.7
270.96589	18092.6
275.20832	18132.7
279.44768	17986.9
283.68397	17838.6
287.91719	17713.2
292.14735	17602.7
296.37445	17586.9
300.59849	17584.6
304.81948	17626.5
309.03742	17579.1
313.25231	17483.1
317.46415	17239
321.67296	16935.7
325.87872	16645.7
330.08145	16465.4
334.28114	16443.8
338.47781	16542.1
342.67145	16718.2
346.86207	16939.6
351.04966	17251.6
355.23424	17484.1
359.4158	17719.5
363.59435	17874.1
367.76989	17998.1
371.94243	18060.7
376.11196	18123.7
380.27849	18204
384.44203	18309.8
388.60257	18452.8
392.76012	18662.6
396.91468	18887.9
401.06626	19143.6
405.21485	19339
409.36047	19321.8
413.50311	19194.2
417.64277	19104
421.77947	19127.7
425.9132	19193.9
430.04396	19341.2
434.17176	19410.7
438.2966	19510.5
442.41849	19726.4
446.53742	20195.1
450.6534	20662.7
454.76644	21002.3
458.87653	21137.6
462.98368	21032.9
467.08789	20831.4
471.18916	20586.1
475.2875	20347.8
479.38291	20180.5
483.4754	20020.9
487.56496	19839.3
491.6516	19565.6
495.73531	19365.6
499.81612	19324.5
503.89401	19453.6
507.96899	19581.3
512.04106	19578.1
516.11023	19464.2
520.1765	19331.5
524.23987	19212.2
528.30034	19083
532.35792	18946.3
536.41261	18700.6
540.46441	18527.6
544.51333	18525.1
548.55936	18697.8
552.60252	19070
556.64279	19488.2
560.6802	19746.9
564.71473	19886.3
568.7464	20056.8
572.7752	20456.3
576.80114	20952.7
580.82422	21523.1
584.84444	22243.3
588.86181	23003.1
592.87633	23560.5
596.888	23379.9
600.89682	22614.8
604.9028	22389.1
608.90594	23317.5
612.90624	24368.6
616.90371	23086.7
620.89834	20264.3
624.89015	19001.5
628.87913	18887.4
632.86528	18941.6
636.84862	18925.9
640.82913	18704.6
644.80683	18362
648.78172	18154.5
652.75379	18153.4
656.72306	18277.2
660.68952	18405.3
664.65319	18359.5
668.61405	18138.1
672.57211	18121.3
676.52738	18164.8
680.47986	18167.3
684.42955	18087.7
688.37646	18042.4
692.32058	18152
696.26192	18334.6
700.20048	18579.6
704.13626	18699
708.06928	18735.5
711.99952	18709.5
715.927	18699.6
719.85171	18734.5
723.77365	18675.6
727.69284	18446.5
731.60928	18214.5
735.52295	18151.9
739.43388	18139
743.34206	18228
747.24749	18297.1
751.15017	18451
755.05012	18716.1
758.94733	19133
762.8418	19917.5
766.73354	21005.7
770.62254	22020.1
774.50882	22140.6
778.39237	21260.5
782.27321	20033.9
786.15132	19090.5
790.02671	18495.1
793.89938	18206.8
797.76935	18070.2
801.6366	18076.3
805.50115	18065.6
809.36299	17981.4
813.22213	17856.3
817.07857	17787.6
820.93231	17729
824.78336	17686.4
828.63172	17652.7
832.47738	17654.3
836.32036	17682
840.16066	17710.2
843.99827	17778.9
847.8332	17711.4
851.66546	17673.4
855.49504	17635.1
859.32195	17610.2
863.1462	17573.2
866.96777	17521.2
870.78668	17514.7
874.60293	17496.9
878.41652	17509.6
882.22745	17574.6
886.03573	17641.9
889.84136	17639.2
893.64433	17574.3
897.44466	17493.2
901.24235	17468.3
905.0374	17397.9
908.8298	17415.1
912.61957	17421.9
916.40671	17604.5
920.19121	17808.9
923.97308	17921.2
927.75233	17916.7
931.52895	17773.4
935.30295	17573.9
939.07433	17290.9
942.84309	17121.7
946.60924	17042.1
950.37278	17009.8
954.13371	16995
957.89203	16911
961.64774	16939.2
965.40086	16916.2
969.15137	16873.2
972.89929	16802.5
976.64461	16751.5
980.38733	16753.2
984.12747	16798.1
987.86502	16889.6
991.59999	17000.1
995.33237	17201
999.06217	17481.6
1002.78939	17821.9
1006.51404	18100.6
1010.23611	18316.8
1013.95561	18525.3
1017.67255	18539.2
1021.38692	18369.4
1025.09872	18097.4
1028.80796	18031.2
1032.51465	18198.1
1036.21877	18439.8
1039.92035	18562.9
1043.61937	18530.7
1047.31584	18405.9
1051.00976	18285.1
1054.70114	18270
1058.38998	18353.2
1062.07627	18651.3
1065.76003	18974.8
1069.44126	19363.8
1073.11995	19816.1
1076.79611	20042.7
1080.46974	20016.7
1084.14085	19831.6
1087.80943	19653.4
1091.47549	19567.8
1095.13903	19478.7
1098.80005	19236.7
1102.45857	18840.1
1106.11456	18536.2
1109.76805	18372.8
1113.41903	18378.3
1117.06751	18410.8
1120.71348	18550
1124.35696	18717.3
1127.99793	18901.6
1131.63641	19045.4
1135.2724	18991.8
1138.90589	18878.2
1142.5369	18925.9
1146.16542	19012.2
1149.79145	19136.2
1153.415	19263.2
1157.03607	19482.3
1160.65467	19972.5
1164.27079	20791.8
1167.88443	21822.9
1171.49561	22925.9
1175.10432	24270.7
1178.71056	25966.3
1182.31434	27481.8
1185.91565	28122
1189.51451	27813.3
1193.11091	27023.7
1196.70485	26068.8
1200.29634	25167
1203.88538	24565.2
1207.47197	24267.4
1211.05612	23984.4
1214.63782	23629.8
1218.21708	23120.4
1221.79391	22551.5
1225.36829	22203.2
1228.94024	21935.3
1232.50976	21649.6
1236.07685	21363.3
1239.6415	21216.1
1243.20374	21180.1
1246.76355	21333.2
1250.32093	21658.4
1253.8759	22060.8
1257.42845	22588
1260.97859	23113.2
1264.52631	23673.9
1268.07163	24232.4
1271.61453	24832.1
1275.15503	25465.8
1278.69312	26069.7
1282.22882	26738.2
1285.76211	27509.3
1289.29301	28447.4
1292.82151	29567.5
1296.34761	31035.2
1299.87133	32730.3
1303.39266	34554.4
1306.9116	36159.9
1310.42815	37451.4
1313.94233	38110.4
1317.45412	37963.3
1320.96354	37361.8
1324.47058	36737.7
1327.97525	36232.4
1331.47754	35918.7
1334.97747	35663.8
1338.47502	35431.7
1341.97022	34953.2
1345.46305	34481.5
1348.95352	34113.2
1352.44163	34160.5
1355.92738	34935.6
1359.41078	36210.4
1362.89183	37152.3
1366.37053	36589.6
1369.84688	34142.9
1373.32088	31019.4
1376.79254	28683.5
1380.26186	27765.9
1383.72883	27755
1387.19347	27638.5
1390.65578	27381
1394.11575	27235.7
1397.57339	27463.6
1401.0287	27939.9
1404.48168	28228
1407.93234	28239.9
1411.38068	27773.5
1414.82669	26998.3
1418.27039	25911.4
1421.71177	24856.4
1425.15083	24000.1
1428.58758	23581.6
1432.02203	23722.7
1435.45416	24229.4
1438.88399	24958.8
1442.31151	25475.8
1445.73673	25819.9
1449.15965	26018.2
1452.58027	26093
1455.9986	26044.6
1459.41463	26149.5
1462.82837	26451.4
1466.23982	26955.1
1469.64898	27436
1473.05586	27779.8
1476.46045	27915.5
1479.86276	27834.8
1483.26279	27630.4
1486.66054	27526.4
1490.05602	27612.6
1493.44922	27833.2
1496.84016	28119.1
1500.22882	28488.2
1503.61521	29031.1
1506.99934	29813.6
1510.38121	30315.3
1513.76081	30368.3
1517.13816	29799.4
1520.51324	28945
1523.88607	28349.8
1527.25665	28137.1
1530.62498	28116
1533.99105	28090.8
1537.35488	27854.1
1540.71647	27339.2
1544.07581	26710
1547.4329	26034.1
1550.78776	25417
1554.14038	24953.6
1557.49077	24713.4
1560.83892	24609
1564.18484	24620.6
1567.52853	24865.5
1570.86999	25300.1
1574.20922	26039.8
1577.54624	26752.5
1580.88103	27270.2
1584.2136	27520.7
1587.54395	27868.5
1590.87208	28582.8
1594.19801	29806
1597.52172	31084
1600.84321	31437.8
1604.16251	30214.9
1607.47959	28065.8
1610.79447	25733.8
1614.10715	23673.4
1617.41763	22005.1
1620.7259	20909.9
1624.03199	20390.5
1627.33587	20406.2
1630.63757	20890.9
1633.93707	22049.8
1637.23439	23975.9
1640.52951	26846.5
1643.82246	30178.7
1647.11321	32824.8
1650.40179	33257.3
1653.68819	31011.5
1656.97241	27267.5
1660.25446	23701.4
1663.53433	21010.8
1666.81203	19258
1670.08756	18097.2
1673.36092	17395.5
1676.63211	16926.6
1679.90115	16607.4
1683.16801	16331.9
1686.43272	16189
1689.69527	16061.4
1692.95567	15925
1696.2139	15917.7
1699.46999	15818.6
1702.72392	15824.1
1705.97571	15742.4
1709.22535	15717.1
1712.47284	15676.1
1715.71819	15617.4
1718.96139	15603.4
1722.20246	15548.9
1725.44139	15513.2
1728.67818	15454.8
1731.91284	15338.5
1735.14537	15285.3
1738.37576	15205.8
1741.60403	15183.1
1744.83017	15140.5
1748.05418	15080
1751.27607	15088.6
1754.49584	15054.4
1757.71349	15030.9
1760.92903	15059.2
1764.14244	15035.4
1767.35375	15062.7
1770.56294	15027.2
1773.77002	15002
1776.97499	14972.2
1780.17785	14928.7
1783.37861	14903.8
1786.57727	14846.8
1789.77382	14835.5
1792.96828	14814.3
1796.16064	14773.7
1799.3509	14716.3
1802.53907	14717.6
1805.72514	14660.5
1808.90913	14663.4
1812.09102	14634.6
1815.27083	14596
1818.44856	14563
1821.6242	14578.4
1824.79776	14557.9
1827.96924	14530
1831.13864	14536.5
1834.30597	14539.2
1837.47122	14534.2
1840.6344	14538.2
1843.7955	14502.7
1846.95454	14520.2
1850.11151	14511.5
1853.26642	14504.7
1856.41926	14471.1
1859.57004	14456.2
1862.71876	14463
1865.86542	14420.2
1869.01003	14415.4
1872.15258	14410.1
1875.29308	14414.4
1878.43152	14371.2
1881.56792	14372.7
1884.70227	14346.3
1887.83457	14310.2
1890.96482	14324.7
1894.09304	14299.9
1897.21921	14308.5
1900.34335	14293.1
1903.46544	14274
1906.58551	14255
1909.70353	14214.9
1912.81953	14223.4
1915.93349	14174
1919.04543	14139.1
1922.15534	14107.5
1925.26322	14096
1928.36908	14093.8
1931.47292	14035.7
1934.57473	13990.6
1937.67453	13986.1
1940.77232	13928.9
1943.86808	13917.7
1946.96184	13887.7
1950.05358	13863.7
1953.14331	13833.7
1956.23103	13806.9
1959.31675	13761.8
1962.40046	13700.8
1965.48217	13677.7
1968.56188	13627.9
1971.63959	13581.5
1974.7153	13521.8
1977.78901	13486.1
1980.86073	13442.3
1983.93046	13428.1
1986.99819	13393.8
1990.06394	13351.7
1993.1277	13300.8
1996.18947	13252.6
1999.24925	13212.5
2002.30706	13203.9
2005.36288	13164.1
2008.41672	13155.5
2011.46859	13098.2
2014.51848	13068.2
2017.56639	13048.3
2020.61233	13014.7
2023.6563	12968.9
2026.6983	12962.5
2029.73833	12954.2
2032.7764	12944.9
2035.8125	12899.7
2038.84664	12840.8
2041.87881	12855.5
2044.90903	12819.2
2047.93729	12795.3
2050.96359	12791.4
2053.98794	12773.9
2057.01034	12768
2060.03078	12744.8
2063.04927	12736.2
2066.06582	12733.7
2069.08042	12708.5
2072.09307	12690.4
2075.10378	12702.5
2078.11255	12699.9
2081.11938	12695.9
2084.12426	12671.1
2087.12722	12706.1
2090.12824	12701.3
2093.12732	12701.4
2096.12447	12702.5
2099.11969	12690.5
2102.11299	12707.1
2105.10435	12705.3
2108.09379	12725.1
2111.08131	12738.9
2114.0669	12736.9
2117.05057	12738.6
2120.03233	12736.9
2123.01216	12749.3
2125.99008	12746
2128.96609	12748.5
2131.94018	12814.1
2134.91236	12783.4
2137.88263	12778.7
2140.851	12809.1
2143.81746	12809.1
2146.78201	12808.3
2149.74466	12814.3
2152.7054	12812
2155.66425	12821.6
2158.6212	12826.5
2161.57625	12838.3
2164.52941	12819
2167.48067	12818.7
2170.43004	12792
2173.37752	12805.5
2176.32311	12808.2
2179.26681	12810.7
2182.20863	12808.3
2185.14856	12814.5
2188.08661	12789.3
2191.02278	12790.9
2193.95707	12777.3
2196.88948	12756.8
2199.82001	12765.9
2202.74867	12743
2205.67545	12734.3
2208.60037	12765.3
2211.52341	12742.4
2214.44458	12721.6
2217.36388	12680.4
2220.28132	12666
2223.1969	12650.7
2226.11061	12639.7
2229.02246	12613.4
2231.93245	12594.5
2234.84058	12574.4
2237.74686	12559.2
2240.65128	12557.8
2243.55385	12525
2246.45456	12506.7
2249.35343	12491.3
2252.25044	12465.4
2255.14561	12451.4
2258.03893	12427.9
2260.93041	12418.3
2263.82004	12395.4
2266.70783	12371.5
2269.59378	12331.2
2272.4779	12314
2275.36017	12292.5
2278.24061	12264.2
2281.11922	12228.8
2283.996	12216.1
2286.87094	12209
2289.74405	12175.4
2292.61534	12183.6
2295.4848	12155.5
2298.35243	12164.2
2301.21824	12169
2304.08223	12170.7
2306.94439	12140.5
2309.80474	12127.7
2312.66327	12149.1
2315.51999	12123.5
2318.37489	12139.8
2321.22797	12103.2
2324.07925	12106.2
2326.92871	12105.2
2329.77637	12103.4
2332.62222	12050.3
2335.46626	12045.7
2338.3085	12062.8
2341.14893	12041.5
2343.98756	12066.5
2346.8244	12030.5
2349.65943	12032.2
2352.49267	12035.9
2355.32411	12015.2
2358.15376	11988.5
2360.98161	12003.8
2363.80768	11999.2
2366.63195	11995.3
2369.45444	11949.7
2372.27514	11936.7
2375.09405	11939.5
2377.91118	11913.3
2380.72652	11915.7
2383.54009	11893
2386.35187	11876.3
2389.16188	11854.8
2391.97011	11839.3
2394.77657	11797
2397.58125	11789.2
2400.38416	11785.7
2403.18529	11752.8
2405.98466	11761.6
2408.78226	11748.6
2411.57809	11742
2414.37216	11697.7
2417.16446	11684.7
2419.955	11656.2
2422.74378	11673.4
2425.5308	11641.7
2428.31606	11623.5
2431.09956	11624.9
2433.88131	11599.3
2436.6613	11619.1
2439.43954	11624.4
2442.21603	11585.7
2444.99077	11569.9
2447.76377	11596.2
2450.53501	11593.5
2453.30451	11556.3
2456.07226	11579.9
2458.83827	11559.3
2461.60254	11548.5
2464.36507	11543.8
2467.12586	11560.5
2469.88492	11532.5
2472.64224	11542
2475.39782	11552.6
2478.15167	11544.2
2480.90379	11554
2483.65417	11567.3
2486.40283	11552.6
2489.14976	11559.8
2491.89497	11584.3
2494.63845	11580.1
2497.3802	11531.3
2500.12024	11561.1
2502.85855	11516.4
2505.59514	11547.3
2508.33002	11533.8
2511.06318	11505.6
2513.79462	11494.5
2516.52435	11490.9
2519.25237	11484.5
2521.97867	11472.6
2524.70327	11475.9
2527.42616	11438.6
2530.14734	11471.3
2532.86681	11427.8
2535.58458	11450.3
2538.30065	11429.2
2541.01501	11409.5
2543.72768	11401.7
2546.43864	11398.8
2549.14791	11384.4
2551.85548	11353.8
2554.56136	11344.8
2557.26554	11344.5
2559.96803	11323.7
2562.66883	11330.1
2565.36794	11312.1
2568.06536	11322.7
2570.7611	11286.8
2573.45514	11299.7
2576.14751	11263.5
2578.83819	11247.5
2581.52719	11269.1
2584.21451	11247.1
2586.90015	11255
2589.58411	11222.9
2592.2664	11224.8
2594.94701	11174.4
2597.62594	11180.4
2600.30321	11176.3
2602.9788	11158.4
2605.65273	11147.4
2608.32498	11146.1
2610.99557	11143.8
2613.66449	11149.9
2616.33175	11106.8
2618.99734	11114.8
2621.66128	11113.4
2624.32355	11082.1
2626.98416	11105.2
2629.64311	11106.9
2632.30041	11095.2
2634.95605	11078.4
2637.61004	11062.9
2640.26238	11063.2
2642.91306	11089.3
2645.56209	11069.1
2648.20948	11062.4
2650.85521	11056.4
2653.4993	11016.3
2656.14175	11050
2658.78255	11070.2
2661.42171	11050.7
2664.05923	11065.7
2666.6951	11064.1
2669.32934	11059.3
2671.96194	11078
2674.59291	11041.2
2677.22224	11030.5
2679.84993	11075
2682.476	11064.8
2685.10043	11055.4
2687.72324	11048.6
2690.34441	11043.6
2692.96396	11073.4
2695.58188	11052.8
2698.19818	11051.6
2700.81285	11054.4
2703.4259	11069.6
2706.03733	11118.3
2708.64714	11098.6
2711.25533	11122
2713.86191	11086.8
2716.46687	11102.9
2719.07021	11083.3
2721.67194	11093.7
2724.27206	11082.3
2726.87057	11102
2729.46747	11104.9
2732.06276	11109.3
2734.65644	11098.2
2737.24852	11104.7
2739.83899	11096.6
2742.42786	11099.2
2745.01513	11069.9
2747.60079	11075.6
2750.18486	11068.1
2752.76733	11068.7
2755.3482	11078.5
2757.92747	11081.2
2760.50515	11050
2763.08123	11037.9
2765.65573	11043
2768.22863	11042.6
2770.79994	11035.7
2773.36967	11028.8
2775.9378	11022.9
2778.50435	10970.3
2781.06932	10995.4
2783.6327	10978.5
2786.1945	10982.2
2788.75471	10966.4
2791.31335	10930.2
2793.87041	10907.3
2796.42589	10923.4
2798.97979	10909
2801.53212	10891
2804.08288	10879.5
2806.63206	10859.7
2809.17967	10823.3
2811.72571	10819.9
2814.27018	10798.1
2816.81308	10805.8
2819.35442	10757.6
2821.89419	10759.8
2824.43239	10750.5
2826.96904	10726.7
2829.50412	10734.5
2832.03763	10699.2
2834.56959	10705.3
2837.1	10714.1
2839.62884	10698.3
2842.15613	10712.1
2844.68186	10716.4
2847.20604	10735.3
2849.72867	10724.2
2852.24974	10715.1
2854.76927	10705.2
2857.28724	10695.4
2859.80367	10692
2862.31855	10689.4
2864.83189	10669.4
2867.34368	10653.4
2869.85393	10656.3
2872.36264	10639.1
2874.8698	10649.6
2877.37543	10651.6
2879.87952	10670.8
2882.38207	10673.5
2884.88308	10658.1
2887.38256	10663.5
2889.88051	10652.3
2892.37692	10654.8
2894.8718	10646.4
2897.36515	10642.1
2899.85698	10653.6
2902.34727	10665.7
2904.83604	10665.1
2907.32328	10673.7
2909.809	10690.7
2912.29319	10706
2914.77587	10699.2
2917.25702	10671.4
2919.73665	10656.3
2922.21476	10696
2924.69136	10677.7
2927.16644	10680.1
2929.64	10660.8
2932.11205	10663.4
2934.58258	10625.5
2937.05161	10662.1
2939.51912	10648.7
2941.98513	10652
2944.44962	10621.9
2946.91261	10582.6
2949.37409	10597.5
2951.83407	10627.1
2954.29254	10581.7
2956.74951	10561.7
2959.20498	10579.5
2961.65895	10578.3
2964.11142	10583.1
2966.56239	10543.7
2969.01186	10550.6
2971.45984	10496
2973.90632	10473.6
2976.35131	10452.6
2978.7948	10440
2981.23681	10412.7
2983.67732	10430.6
2986.11635	10416.9
2988.55388	10381.2
2990.98993	10349.8
2993.4245	10353.5
2995.85758	10333.8
2998.28917	10299.6
3000.71928	10284.6
3003.14791	10265.5
3005.57506	10276.6
3008.00073	10261
3010.42493	10246.8
3012.84764	10207.3
3015.26888	10213.8
3017.68865	10184.8
3020.10694	10174.7
3022.52376	10141.6
3024.9391	10156.3
3027.35298	10150
3029.76539	10162.6
3032.17632	10146.4
3034.5858	10097.8
3036.9938	10108
3039.40034	10103.4
3041.80542	10120.3
3044.20903	10058.2
3046.61118	10094.5
3049.01187	10045
3051.4111	10047.2
3053.80888	10042.7
3056.20519	10025.9
3058.60005	9981.4
3060.99345	9985.7
3063.3854	9949.9
3065.7759	9930.9
3068.16494	9924.8
3070.55254	9883.8
3072.93868	9908.8
3075.32338	9856.5
3077.70662	9837.6
3080.08842	9805.9
3082.46878	9831
3084.84769	9790.8
3087.22515	9805.8
3089.60118	9787.9
3091.97576	9807.5
3094.3489	9798
3096.72061	9779.3
3099.09087	9795.6
3101.4597	9771.8
3103.82709	9776.5
3106.19305	9760.8
3108.55757	9740
3110.92066	9729.7
3113.28232	9720.2
3115.64255	9690.1
3118.00134	9691.3
3120.35871	9677.6
3122.71466	9677.4
3125.06917	9654.2
3127.42226	9630.3
3129.77393	9643
3132.12417	9653.5
3134.47299	9662.5
3136.82039	9626.4
3139.16636	9653.8
3141.51092	9657.9
3143.85406	9666.8
3146.19579	9631.6
3148.53609	9675.6
3150.87499	9669.8
3153.21246	9637.2
3155.54853	9701.9
3157.88318	9652.3
3160.21642	9659.1
3162.54826	9637.4
3164.87868	9649
3167.2077	9669.2
3169.5353	9673.8
3171.86151	9683.4
3174.18631	9675.6
3176.5097	9675.9
3178.83169	9613.9
3181.15228	9625.5
3183.47147	9621.3
3185.78926	9645.1
3188.10565	9606.4
3190.42065	9612.2
3192.73424	9642.1
3195.04645	9638.6
3197.35725	9625.1
3199.66667	9600.1
3201.97469	9638.3
3204.28132	9624.1
3206.58656	9624.2
3208.8904	9625.1
3211.19287	9629.2
3213.49394	9624.6
3215.79363	9623.9
3218.09193	9635.8
3220.38884	9623.2
3222.68438	9624.2
3224.97853	9630.3
3227.2713	9601.9
3229.56269	9579.5
3231.8527	9619.8
3234.14133	9563.5
3236.42858	9555.9
3238.71446	9556.8
3240.99896	9512
3243.28209	9520.2
3245.56384	9532.6
3247.84423	9540.9
3250.12324	9523.9
3252.40088	9524.1
3254.67715	9499.9
3256.95205	9492.7
3259.22558	9488.7
3261.49775	9474.3
3263.76855	9462.5
3266.03799	9456.8
3268.30606	9430.3
3270.57277	9424.9
3272.83812	9404.4
3275.10211	9378.6
3277.36474	9360.1
3279.62601	9364.7
3281.88593	9357.9
3284.14448	9382.6
3286.40168	9375.7
3288.65753	9389.7
3290.91202	9361.8
3293.16516	9336.5
3295.41695	9312.9
3297.66738	9257.1
3299.91647	9207
3302.16421	9155.5
3304.4106	9114.4
3306.65564	9093.4
3308.89933	9023.4
3311.14169	8970.4
3313.38269	8897.8
3315.62236	8856.3
3317.86068	8753.8
3320.09766	8706.2
3322.3333	8621.8
3324.5676	8651.9
3326.80056	8498
3329.03219	8433.2
3331.26248	3.1
3333.49143	-0.4
3335.71905	0.2
