Data from AgNP_FTO_APTES_CRN_20uM_R6G_10uM_NaF_0.1M_Addition_RamanShift__17__17-20-18-025.txt Node

Date: Wed Dec 15 17:20:18 GMT 2021
User: TCL
Spectrometer: QEP01345
Trigger mode: 4
Integration Time (sec): 7.000000E0
Scans to average: 10
Electric dark correction enabled: true
Nonlinearity correction enabled: false
Boxcar width: 0
XAxis mode: Raman Shifts
Number of Pixels in Spectrum: 1044
>>>>>Begin Spectral Data<<<<<
46.04893	0.7875
50.45542	-2.3125
54.85868	-1.1125
59.25871	-0.5125
63.6555	67.2875
68.04907	72.8875
72.43941	74.5875
76.82654	81.7875
81.21044	84.9875
85.59113	87.7875
89.96862	91.2875
94.34289	91.1875
98.71396	97.0875
103.08183	99.7875
107.4465	104.1875
111.80798	100.2875
116.16626	106.9875
120.52136	110.1875
124.87327	108.2875
129.222	114.7875
133.56755	118.5875
137.90993	129.2875
142.24913	136.8875
146.58517	152.0875
150.91804	174.4875
155.24774	199.4875
159.57429	250.0875
163.89768	313.8875
168.21792	403.0875
172.53501	549.3875
176.84895	763.3875
181.15975	1063.9875
185.46741	1490.1875
189.77193	2050.0875
194.07331	2752.5875
198.37157	3542.1875
202.6667	4398.3875
206.9587	5223.7875
211.24758	6049.9875
215.53334	6870.8875
219.81599	7724.0875
224.09553	8650.4875
228.37195	9714.6875
232.64527	10857.2875
236.91549	12085.5875
241.18261	13352.2875
245.44663	14544.5875
249.70755	15608.1875
253.96539	16608.4875
258.22014	17438.5875
262.4718	18125.5875
266.72039	18574.2875
270.96589	18829.5875
275.20832	18887.9875
279.44768	18745.7875
283.68397	18552.6875
287.91719	18436.3875
292.14735	18290.6875
296.37445	18224.6875
300.59849	18182.2875
304.81948	18213.3875
309.03742	18162.5875
313.25231	17987.8875
317.46415	17662.8875
321.67296	17294.0875
325.87872	17014.8875
330.08145	16878.3875
334.28114	16910.9875
338.47781	17032.1875
342.67145	17232.2875
346.86207	17496.8875
351.04966	17812.2875
355.23424	18144.7875
359.4158	18446.5875
363.59435	18658.4875
367.76989	18814.5875
371.94243	18924.7875
376.11196	19024.3875
380.27849	19115.2875
384.44203	19167.7875
388.60257	19287.0875
392.76012	19465.5875
396.91468	19663.9875
401.06626	19959.7875
405.21485	20175.9875
409.36047	20222.0875
413.50311	20011.2875
417.64277	19813.6875
421.77947	19758.3875
425.9132	19770.3875
430.04396	19863.7875
434.17176	19950.9875
438.2966	20119.0875
442.41849	20367.2875
446.53742	20734.0875
450.6534	21179.1875
454.76644	21510.7875
458.87653	21633.5875
462.98368	21658.0875
467.08789	21491.9875
471.18916	21299.7875
475.2875	21146.1875
479.38291	21038.0875
483.4754	20942.8875
487.56496	20749.2875
491.6516	20592.0875
495.73531	20387.7875
499.81612	20334.4875
503.89401	20446.1875
507.96899	20493.8875
512.04106	20528.6875
516.11023	20525.3875
520.1765	20466.5875
524.23987	20412.7875
528.30034	20286.4875
532.35792	20161.9875
536.41261	19999.6875
540.46441	19833.0875
544.51333	19846.2875
548.55936	19960.1875
552.60252	20262.2875
556.64279	20575.5875
560.6802	20765.7875
564.71473	20869.2875
568.7464	21012.9875
572.7752	21270.7875
576.80114	21517.4875
580.82422	21765.7875
584.84444	22054.5875
588.86181	22365.9875
592.87633	22554.4875
596.888	22674.8875
600.89682	22752.6875
604.9028	23232.9875
608.90594	24536.8875
612.90624	25951.5875
616.90371	24878.0875
620.89834	21956.7875
624.89015	20648.1875
628.87913	20499.7875
632.86528	20580.4875
636.84862	20641.4875
640.82913	20483.8875
644.80683	20132.3875
648.78172	19842.9875
652.75379	19814.7875
656.72306	19975.2875
660.68952	20207.2875
664.65319	20125.7875
668.61405	19921.6875
672.57211	19876.9875
676.52738	19858.8875
680.47986	19873.1875
684.42955	19824.5875
688.37646	19815.2875
692.32058	19886.8875
696.26192	19992.3875
700.20048	20223.4875
704.13626	20331.6875
708.06928	20364.0875
711.99952	20273.6875
715.927	20235.5875
719.85171	20261.9875
723.77365	20209.5875
727.69284	20095.0875
731.60928	19962.9875
735.52295	19868.0875
739.43388	19874.5875
743.34206	19936.6875
747.24749	20001.8875
751.15017	20066.1875
755.05012	20314.3875
758.94733	20695.0875
762.8418	21408.8875
766.73354	22500.9875
770.62254	23647.9875
774.50882	23963.2875
778.39237	23159.8875
782.27321	21946.4875
786.15132	20909.7875
790.02671	20273.2875
793.89938	19974.1875
797.76935	19861.3875
801.6366	19816.2875
805.50115	19774.4875
809.36299	19735.7875
813.22213	19636.7875
817.07857	19636.8875
820.93231	19617.4875
824.78336	19618.5875
828.63172	19623.3875
832.47738	19623.0875
836.32036	19668.1875
840.16066	19697.1875
843.99827	19720.6875
847.8332	19686.2875
851.66546	19628.9875
855.49504	19627.6875
859.32195	19660.6875
863.1462	19626.0875
866.96777	19607.7875
870.78668	19538.1875
874.60293	19551.2875
878.41652	19575.6875
882.22745	19614.3875
886.03573	19615.2875
889.84136	19623.2875
893.64433	19594.0875
897.44466	19510.8875
901.24235	19476.9875
905.0374	19438.5875
908.8298	19449.8875
912.61957	19452.3875
916.40671	19587.2875
920.19121	19745.5875
923.97308	19818.3875
927.75233	19918.5875
931.52895	19807.8875
935.30295	19672.7875
939.07433	19445.8875
942.84309	19261.1875
946.60924	19181.7875
950.37278	19152.5875
954.13371	19075.4875
957.89203	19083.2875
961.64774	19024.9875
965.40086	19018.5875
969.15137	18925.4875
972.89929	18883.2875
976.64461	18889.4875
980.38733	18857.5875
984.12747	18948.5875
987.86502	19071.4875
991.59999	19186.0875
995.33237	19403.5875
999.06217	19720.8875
1002.78939	19999.2875
1006.51404	20251.4875
1010.23611	20418.9875
1013.95561	20523.7875
1017.67255	20574.1875
1021.38692	20402.7875
1025.09872	20190.1875
1028.80796	20146.5875
1032.51465	20355.3875
1036.21877	20593.3875
1039.92035	20672.1875
1043.61937	20602.9875
1047.31584	20465.5875
1051.00976	20321.2875
1054.70114	20313.4875
1058.38998	20422.9875
1062.07627	20648.5875
1065.76003	20909.1875
1069.44126	21233.7875
1073.11995	21648.0875
1076.79611	21918.1875
1080.46974	21907.8875
1084.14085	21804.3875
1087.80943	21716.8875
1091.47549	21659.8875
1095.13903	21560.8875
1098.80005	21333.7875
1102.45857	21014.3875
1106.11456	20750.2875
1109.76805	20634.7875
1113.41903	20631.8875
1117.06751	20715.6875
1120.71348	20827.5875
1124.35696	20960.2875
1127.99793	21170.7875
1131.63641	21254.3875
1135.2724	21144.4875
1138.90589	20970.6875
1142.5369	20922.2875
1146.16542	20857.0875
1149.79145	20903.3875
1153.415	20980.0875
1157.03607	21114.8875
1160.65467	21409.5875
1164.27079	21937.5875
1167.88443	22651.3875
1171.49561	23622.0875
1175.10432	24814.5875
1178.71056	26344.8875
1182.31434	27733.3875
1185.91565	28405.8875
1189.51451	28234.8875
1193.11091	27554.3875
1196.70485	26650.0875
1200.29634	25758.2875
1203.88538	25164.1875
1207.47197	24697.6875
1211.05612	24334.9875
1214.63782	24043.3875
1218.21708	23768.2875
1221.79391	23572.0875
1225.36829	23407.7875
1228.94024	23294.6875
1232.50976	23110.3875
1236.07685	22929.8875
1239.6415	22877.3875
1243.20374	22877.6875
1246.76355	23015.0875
1250.32093	23233.1875
1253.8759	23610.6875
1257.42845	23985.9875
1260.97859	24419.2875
1264.52631	24828.2875
1268.07163	25216.3875
1271.61453	25661.3875
1275.15503	26193.2875
1278.69312	26650.9875
1282.22882	27134.3875
1285.76211	27530.0875
1289.29301	28109.1875
1292.82151	28814.6875
1296.34761	29616.8875
1299.87133	30693.7875
1303.39266	31911.2875
1306.9116	33293.6875
1310.42815	34688.3875
1313.94233	35595.2875
1317.45412	35756.6875
1320.96354	35325.3875
1324.47058	34805.5875
1327.97525	34327.4875
1331.47754	33937.8875
1334.97747	33807.1875
1338.47502	33788.7875
1341.97022	33768.1875
1345.46305	33648.0875
1348.95352	33445.2875
1352.44163	33352.6875
1355.92738	33779.2875
1359.41078	34835.8875
1362.89183	35863.6875
1366.37053	35407.6875
1369.84688	33219.1875
1373.32088	30579.8875
1376.79254	28656.7875
1380.26186	27744.2875
1383.72883	27424.8875
1387.19347	27232.8875
1390.65578	26968.7875
1394.11575	26792.0875
1397.57339	26835.6875
1401.0287	27107.5875
1404.48168	27409.9875
1407.93234	27516.0875
1411.38068	27347.1875
1414.82669	26874.1875
1418.27039	26080.1875
1421.71177	25317.6875
1425.15083	24626.3875
1428.58758	24229.5875
1432.02203	24262.9875
1435.45416	24556.4875
1438.88399	24962.4875
1442.31151	25390.4875
1445.73673	25743.2875
1449.15965	25999.9875
1452.58027	26201.7875
1455.9986	26267.6875
1459.41463	26432.7875
1462.82837	26786.7875
1466.23982	27290.6875
1469.64898	27761.7875
1473.05586	28080.2875
1476.46045	28137.2875
1479.86276	28128.9875
1483.26279	28008.9875
1486.66054	27922.2875
1490.05602	27959.1875
1493.44922	28149.3875
1496.84016	28397.7875
1500.22882	28938.5875
1503.61521	29767.4875
1506.99934	30688.7875
1510.38121	31474.0875
1513.76081	31614.4875
1517.13816	30991.2875
1520.51324	29903.7875
1523.88607	28894.0875
1527.25665	28168.9875
1530.62498	27852.5875
1533.99105	27675.7875
1537.35488	27559.4875
1540.71647	27290.7875
1544.07581	26992.3875
1547.4329	26637.8875
1550.78776	26282.3875
1554.14038	26096.1875
1557.49077	26042.4875
1560.83892	26012.2875
1564.18484	26122.9875
1567.52853	26350.2875
1570.86999	26592.5875
1574.20922	27064.2875
1577.54624	27529.8875
1580.88103	27645.1875
1584.2136	27673.1875
1587.54395	27703.7875
1590.87208	28032.1875
1594.19801	28824.9875
1597.52172	29869.6875
1600.84321	30302.5875
1604.16251	29533.4875
1607.47959	28094.4875
1610.79447	26391.4875
1614.10715	24867.4875
1617.41763	23541.9875
1620.7259	22639.9875
1624.03199	22096.1875
1627.33587	22072.9875
1630.63757	22493.0875
1633.93707	23143.6875
1637.23439	24425.3875
1640.52951	26380.3875
1643.82246	28592.7875
1647.11321	30509.7875
1650.40179	31031.8875
1653.68819	29803.3875
1656.97241	27195.7875
1660.25446	24514.0875
1663.53433	22415.7875
1666.81203	20976.6875
1670.08756	20053.9875
1673.36092	19448.6875
1676.63211	19064.4875
1679.90115	18766.7875
1683.16801	18594.1875
1686.43272	18445.7875
1689.69527	18337.7875
1692.95567	18228.0875
1696.2139	18210.9875
1699.46999	18206.3875
1702.72392	18151.4875
1705.97571	18091.1875
1709.22535	18095.8875
1712.47284	18047.7875
1715.71819	18027.0875
1718.96139	17994.5875
1722.20246	17933.5875
1725.44139	17897.4875
1728.67818	17855.5875
1731.91284	17755.2875
1735.14537	17689.4875
1738.37576	17601.6875
1741.60403	17584.7875
1744.83017	17523.2875
1748.05418	17506.8875
1751.27607	17477.3875
1754.49584	17452.4875
1757.71349	17474.1875
1760.92903	17459.4875
1764.14244	17464.0875
1767.35375	17427.6875
1770.56294	17425.3875
1773.77002	17458.7875
1776.97499	17394.2875
1780.17785	17382.1875
1783.37861	17333.1875
1786.57727	17286.5875
1789.77382	17250.2875
1792.96828	17227.2875
1796.16064	17202.1875
1799.3509	17177.9875
1802.53907	17188.5875
1805.72514	17119.9875
1808.90913	17080.5875
1812.09102	17050.5875
1815.27083	16986.0875
1818.44856	16973.6875
1821.6242	16953.6875
1824.79776	16934.3875
1827.96924	16943.2875
1831.13864	16942.9875
1834.30597	16959.2875
1837.47122	16954.3875
1840.6344	16929.7875
1843.7955	16884.6875
1846.95454	16878.8875
1850.11151	16896.6875
1853.26642	16874.1875
1856.41926	16877.8875
1859.57004	16862.2875
1862.71876	16857.9875
1865.86542	16822.0875
1869.01003	16846.2875
1872.15258	16822.0875
1875.29308	16814.2875
1878.43152	16742.0875
1881.56792	16770.7875
1884.70227	16721.4875
1887.83457	16743.6875
1890.96482	16704.8875
1894.09304	16718.3875
1897.21921	16682.2875
1900.34335	16685.3875
1903.46544	16675.5875
1906.58551	16658.6875
1909.70353	16617.2875
1912.81953	16612.0875
1915.93349	16549.7875
1919.04543	16542.2875
1922.15534	16543.7875
1925.26322	16488.0875
1928.36908	16493.3875
1931.47292	16447.8875
1934.57473	16395.6875
1937.67453	16356.1875
1940.77232	16331.7875
1943.86808	16283.4875
1946.96184	16282.5875
1950.05358	16227.6875
1953.14331	16192.9875
1956.23103	16138.7875
1959.31675	16117.9875
1962.40046	16053.9875
1965.48217	16020.1875
1968.56188	15962.0875
1971.63959	15912.0875
1974.7153	15868.1875
1977.78901	15812.7875
1980.86073	15743.8875
1983.93046	15711.3875
1986.99819	15673.5875
1990.06394	15652.0875
1993.1277	15601.0875
1996.18947	15546.7875
1999.24925	15518.0875
2002.30706	15449.1875
2005.36288	15420.5875
2008.41672	15393.2875
2011.46859	15342.4875
2014.51848	15310.3875
2017.56639	15222.1875
2020.61233	15235.0875
2023.6563	15163.2875
2026.6983	15143.5875
2029.73833	15154.3875
2032.7764	15111.2875
2035.8125	15078.5875
2038.84664	15015.3875
2041.87881	15008.8875
2044.90903	14972.2875
2047.93729	14945.3875
2050.96359	14959.9875
2053.98794	14947.0875
2057.01034	14909.8875
2060.03078	14877.4875
2063.04927	14900.7875
2066.06582	14884.1875
2069.08042	14882.0875
2072.09307	14870.6875
2075.10378	14818.3875
2078.11255	14814.8875
2081.11938	14830.5875
2084.12426	14836.3875
2087.12722	14817.3875
2090.12824	14820.9875
2093.12732	14840.7875
2096.12447	14849.1875
2099.11969	14840.1875
2102.11299	14830.8875
2105.10435	14851.6875
2108.09379	14861.5875
2111.08131	14916.5875
2114.0669	14867.2875
2117.05057	14870.9875
2120.03233	14906.0875
2123.01216	14891.8875
2125.99008	14853.9875
2128.96609	14929.0875
2131.94018	14904.5875
2134.91236	14948.3875
2137.88263	14984.9875
2140.851	14961.0875
2143.81746	14994.8875
2146.78201	14972.2875
2149.74466	14993.3875
2152.7054	15013.8875
2155.66425	15009.0875
2158.6212	15033.2875
2161.57625	15018.8875
2164.52941	14982.4875
2167.48067	15003.1875
2170.43004	14976.2875
2173.37752	14986.6875
2176.32311	14958.7875
2179.26681	14969.7875
2182.20863	14957.0875
2185.14856	14972.3875
2188.08661	14917.5875
2191.02278	14965.9875
2193.95707	14948.6875
2196.88948	14945.6875
2199.82001	14924.5875
2202.74867	14921.6875
2205.67545	14899.3875
2208.60037	14890.4875
2211.52341	14889.7875
2214.44458	14873.1875
2217.36388	14837.5875
2220.28132	14815.9875
2223.1969	14775.0875
2226.11061	14783.6875
2229.02246	14778.7875
2231.93245	14696.2875
2234.84058	14675.2875
2237.74686	14668.4875
2240.65128	14667.5875
2243.55385	14618.0875
2246.45456	14598.9875
2249.35343	14603.2875
2252.25044	14568.2875
2255.14561	14537.5875
2258.03893	14549.5875
2260.93041	14539.4875
2263.82004	14472.2875
2266.70783	14430.6875
2269.59378	14428.2875
2272.4779	14386.4875
2275.36017	14338.9875
2278.24061	14297.9875
2281.11922	14275.9875
2283.996	14238.1875
2286.87094	14250.6875
2289.74405	14207.3875
2292.61534	14188.4875
2295.4848	14176.2875
2298.35243	14185.6875
2301.21824	14159.2875
2304.08223	14190.2875
2306.94439	14160.2875
2309.80474	14148.6875
2312.66327	14164.2875
2315.51999	14151.8875
2318.37489	14138.3875
2321.22797	14093.2875
2324.07925	14082.5875
2326.92871	14086.0875
2329.77637	14080.2875
2332.62222	14052.8875
2335.46626	14037.4875
2338.3085	14045.1875
2341.14893	14030.0875
2343.98756	14022.3875
2346.8244	13994.0875
2349.65943	14004.5875
2352.49267	13985.9875
2355.32411	13983.6875
2358.15376	13963.1875
2360.98161	13966.5875
2363.80768	13937.3875
2366.63195	13907.4875
2369.45444	13892.2875
2372.27514	13890.5875
2375.09405	13878.4875
2377.91118	13852.3875
2380.72652	13832.2875
2383.54009	13778.9875
2386.35187	13780.9875
2389.16188	13737.8875
2391.97011	13727.2875
2394.77657	13716.1875
2397.58125	13694.4875
2400.38416	13672.4875
2403.18529	13644.2875
2405.98466	13639.6875
2408.78226	13628.9875
2411.57809	13603.1875
2414.37216	13570.8875
2417.16446	13563.9875
2419.955	13533.0875
2422.74378	13531.3875
2425.5308	13502.8875
2428.31606	13473.5875
2431.09956	13465.2875
2433.88131	13437.7875
2436.6613	13464.9875
2439.43954	13444.7875
2442.21603	13404.6875
2444.99077	13405.7875
2447.76377	13393.1875
2450.53501	13413.6875
2453.30451	13398.5875
2456.07226	13357.4875
2458.83827	13359.7875
2461.60254	13337.4875
2464.36507	13338.7875
2467.12586	13335.4875
2469.88492	13339.0875
2472.64224	13309.5875
2475.39782	13311.4875
2478.15167	13329.0875
2480.90379	13302.9875
2483.65417	13350.6875
2486.40283	13348.7875
2489.14976	13324.3875
2491.89497	13301.6875
2494.63845	13313.9875
2497.3802	13327.6875
2500.12024	13327.0875
2502.85855	13284.0875
2505.59514	13280.7875
2508.33002	13238.0875
2511.06318	13222.1875
2513.79462	13212.0875
2516.52435	13223.1875
2519.25237	13205.1875
2521.97867	13190.3875
2524.70327	13187.6875
2527.42616	13145.7875
2530.14734	13157.5875
2532.86681	13117.6875
2535.58458	13128.7875
2538.30065	13113.0875
2541.01501	13086.7875
2543.72768	13070.6875
2546.43864	13045.2875
2549.14791	13047.7875
2551.85548	13011.1875
2554.56136	12984.6875
2557.26554	12986.5875
2559.96803	12962.8875
2562.66883	12961.0875
2565.36794	12952.9875
2568.06536	12979.0875
2570.7611	12920.0875
2573.45514	12910.1875
2576.14751	12879.1875
2578.83819	12870.0875
2581.52719	12853.1875
2584.21451	12846.8875
2586.90015	12829.8875
2589.58411	12821.3875
2592.2664	12803.6875
2594.94701	12776.2875
2597.62594	12735.8875
2600.30321	12729.1875
2602.9788	12745.1875
2605.65273	12690.5875
2608.32498	12678.0875
2610.99557	12687.8875
2613.66449	12665.4875
2616.33175	12657.4875
2618.99734	12633.3875
2621.66128	12658.3875
2624.32355	12647.5875
2626.98416	12628.9875
2629.64311	12606.6875
2632.30041	12621.6875
2634.95605	12620.7875
2637.61004	12576.7875
2640.26238	12552.8875
2642.91306	12553.9875
2645.56209	12554.2875
2648.20948	12558.2875
2650.85521	12543.8875
2653.4993	12524.3875
2656.14175	12519.4875
2658.78255	12543.9875
2661.42171	12537.2875
2664.05923	12529.7875
2666.6951	12549.2875
2669.32934	12517.3875
2671.96194	12525.7875
2674.59291	12524.0875
2677.22224	12506.9875
2679.84993	12519.1875
2682.476	12502.8875
2685.10043	12490.2875
2687.72324	12495.8875
2690.34441	12499.7875
2692.96396	12490.1875
2695.58188	12502.9875
2698.19818	12487.0875
2700.81285	12510.1875
2703.4259	12527.8875
2706.03733	12576.1875
2708.64714	12538.2875
2711.25533	12538.5875
2713.86191	12536.4875
2716.46687	12519.9875
2719.07021	12539.2875
2721.67194	12505.5875
2724.27206	12503.2875
2726.87057	12495.4875
2729.46747	12490.8875
2732.06276	12506.1875
2734.65644	12484.2875
2737.24852	12509.7875
2739.83899	12481.7875
2742.42786	12484.6875
2745.01513	12448.7875
2747.60079	12444.5875
2750.18486	12417.0875
2752.76733	12460.7875
2755.3482	12452.4875
2757.92747	12449.4875
2760.50515	12437.4875
2763.08123	12405.4875
2765.65573	12393.1875
2768.22863	12373.3875
2770.79994	12362.8875
2773.36967	12371.8875
2775.9378	12341.9875
2778.50435	12324.6875
2781.06932	12305.5875
2783.6327	12322.3875
2786.1945	12281.0875
2788.75471	12267.6875
2791.31335	12248.2875
2793.87041	12209.9875
2796.42589	12178.4875
2798.97979	12197.9875
2801.53212	12194.9875
2804.08288	12200.5875
2806.63206	12126.6875
2809.17967	12090.8875
2811.72571	12048.1875
2814.27018	12068.8875
2816.81308	12060.2875
2819.35442	12033.2875
2821.89419	12001.0875
2824.43239	12031.6875
2826.96904	11979.6875
2829.50412	11964.7875
2832.03763	11942.0875
2834.56959	11961.1875
2837.1	11915.5875
2839.62884	11919.1875
2842.15613	11906.8875
2844.68186	11909.4875
2847.20604	11886.6875
2849.72867	11888.4875
2852.24974	11895.3875
2854.76927	11876.0875
2857.28724	11882.1875
2859.80367	11853.2875
2862.31855	11823.5875
2864.83189	11806.3875
2867.34368	11796.7875
2869.85393	11796.2875
2872.36264	11806.2875
2874.8698	11788.8875
2877.37543	11794.0875
2879.87952	11793.2875
2882.38207	11770.4875
2884.88308	11797.4875
2887.38256	11780.0875
2889.88051	11780.2875
2892.37692	11795.7875
2894.8718	11786.7875
2897.36515	11771.3875
2899.85698	11788.3875
2902.34727	11784.6875
2904.83604	11797.1875
2907.32328	11808.5875
2909.809	11799.2875
2912.29319	11822.8875
2914.77587	11792.0875
2917.25702	11780.9875
2919.73665	11762.7875
2922.21476	11788.6875
2924.69136	11791.1875
2927.16644	11779.3875
2929.64	11760.4875
2932.11205	11723.6875
2934.58258	11747.5875
2937.05161	11726.3875
2939.51912	11758.0875
2941.98513	11725.3875
2944.44962	11699.7875
2946.91261	11678.9875
2949.37409	11718.1875
2951.83407	11696.1875
2954.29254	11674.7875
2956.74951	11650.9875
2959.20498	11654.0875
2961.65895	11660.0875
2964.11142	11660.2875
2966.56239	11636.5875
2969.01186	11624.4875
2971.45984	11568.8875
2973.90632	11568.7875
2976.35131	11537.9875
2978.7948	11510.4875
2981.23681	11510.0875
2983.67732	11509.3875
2986.11635	11470.4875
2988.55388	11436.6875
2990.98993	11411.7875
2993.4245	11401.0875
2995.85758	11404.9875
2998.28917	11366.0875
3000.71928	11352.8875
3003.14791	11315.0875
3005.57506	11290.3875
3008.00073	11287.5875
3010.42493	11298.7875
3012.84764	11241.5875
3015.26888	11248.0875
3017.68865	11223.9875
3020.10694	11220.2875
3022.52376	11192.3875
3024.9391	11189.2875
3027.35298	11189.4875
3029.76539	11179.6875
3032.17632	11147.9875
3034.5858	11159.4875
3036.9938	11134.8875
3039.40034	11116.7875
3041.80542	11107.2875
3044.20903	11134.4875
3046.61118	11120.1875
3049.01187	11065.3875
3051.4111	11082.6875
3053.80888	11033.8875
3056.20519	11045.1875
3058.60005	11000.9875
3060.99345	10964.2875
3063.3854	10927.7875
3065.7759	10930.5875
3068.16494	10904.4875
3070.55254	10875.6875
3072.93868	10889.3875
3075.32338	10830.5875
3077.70662	10814.8875
3080.08842	10780.9875
3082.46878	10783.4875
3084.84769	10760.0875
3087.22515	10757.6875
3089.60118	10765.1875
3091.97576	10773.2875
3094.3489	10776.2875
3096.72061	10741.9875
3099.09087	10775.4875
3101.4597	10738.1875
3103.82709	10727.3875
3106.19305	10726.6875
3108.55757	10709.5875
3110.92066	10697.6875
3113.28232	10660.9875
3115.64255	10639.4875
3118.00134	10626.0875
3120.35871	10616.1875
3122.71466	10617.3875
3125.06917	10573.6875
3127.42226	10575.7875
3129.77393	10579.0875
3132.12417	10584.2875
3134.47299	10574.8875
3136.82039	10576.0875
3139.16636	10570.5875
3141.51092	10554.7875
3143.85406	10589.3875
3146.19579	10558.8875
3148.53609	10592.8875
3150.87499	10607.6875
3153.21246	10587.5875
3155.54853	10602.5875
3157.88318	10585.5875
3160.21642	10597.5875
3162.54826	10566.8875
3164.87868	10589.0875
3167.2077	10578.2875
3169.5353	10557.6875
3171.86151	10569.8875
3174.18631	10542.0875
3176.5097	10554.7875
3178.83169	10531.3875
3181.15228	10529.9875
3183.47147	10519.4875
3185.78926	10518.2875
3188.10565	10498.8875
3190.42065	10488.4875
3192.73424	10514.0875
3195.04645	10499.6875
3197.35725	10499.5875
3199.66667	10500.0875
3201.97469	10513.1875
3204.28132	10516.2875
3206.58656	10492.3875
3208.8904	10497.3875
3211.19287	10540.5875
3213.49394	10513.1875
3215.79363	10494.8875
3218.09193	10511.5875
3220.38884	10519.2875
3222.68438	10529.2875
3224.97853	10481.4875
3227.2713	10481.6875
3229.56269	10463.7875
3231.8527	10434.7875
3234.14133	10440.2875
3236.42858	10411.9875
3238.71446	10405.3875
3240.99896	10407.6875
3243.28209	10389.7875
3245.56384	10397.4875
3247.84423	10393.4875
3250.12324	10375.0875
3252.40088	10387.7875
3254.67715	10371.4875
3256.95205	10354.9875
3259.22558	10361.2875
3261.49775	10334.0875
3263.76855	10329.9875
3266.03799	10308.2875
3268.30606	10314.8875
3270.57277	10263.4875
3272.83812	10248.5875
3275.10211	10229.7875
3277.36474	10215.7875
3279.62601	10233.5875
3281.88593	10216.7875
3284.14448	10217.7875
3286.40168	10218.2875
3288.65753	10200.3875
3290.91202	10157.4875
3293.16516	10150.0875
3295.41695	10111.5875
3297.66738	10052.8875
3299.91647	10012.6875
3302.16421	9957.9875
3304.4106	9923.4875
3306.65564	9883.2875
3308.89933	9827.2875
3311.14169	9776.9875
3313.38269	9687.7875
3315.62236	9659.8875
3317.86068	9561.0875
3320.09766	9477.6875
3322.3333	9401.7875
3324.5676	9402.9875
3326.80056	9275.7875
3329.03219	9214.9875
3331.26248	3.8875
3333.49143	-0.8125
3335.71905	-0.6125
