Data from AgNP_FTO_APTES_CRN_5uM_R6G_10uM_NaF_0.1M_Addition_RamanShift__18__15-46-57-919.txt Node

Date: Wed Dec 15 15:46:57 GMT 2021
User: TCL
Spectrometer: QEP01345
Trigger mode: 4
Integration Time (sec): 7.000000E0
Scans to average: 10
Electric dark correction enabled: true
Nonlinearity correction enabled: false
Boxcar width: 0
XAxis mode: Raman Shifts
Number of Pixels in Spectrum: 1044
>>>>>Begin Spectral Data<<<<<
46.04893	0.425
50.45542	-3.175
54.85868	-1.475
59.25871	0.725
63.6555	110.525
68.04907	118.725
72.43941	121.325
76.82654	128.325
81.21044	132.725
85.59113	137.525
89.96862	142.125
94.34289	146.525
98.71396	150.425
103.08183	157.225
107.4465	163.625
111.80798	165.525
116.16626	170.625
120.52136	178.825
124.87327	183.625
129.222	190.425
133.56755	200.025
137.90993	218.325
142.24913	238.625
146.58517	262.525
150.91804	305.125
155.24774	358.725
159.57429	450.825
163.89768	564.525
168.21792	744.325
172.53501	1019.625
176.84895	1410.525
181.15975	1987.125
185.46741	2783.025
189.77193	3818.025
194.07331	5096.025
198.37157	6544.525
202.6667	8072.325
206.9587	9606.425
211.24758	11073.525
215.53334	12565.125
219.81599	14140.925
224.09553	15906.625
228.37195	17878.325
232.64527	20043.825
236.91549	22274.225
241.18261	24546.425
245.44663	26692.125
249.70755	28482.625
253.96539	30127.125
258.22014	31502.725
262.4718	32662.925
266.72039	33458.425
270.96589	33944.725
275.20832	34038.725
279.44768	33862.425
283.68397	33475.125
287.91719	33256.825
292.14735	33020.925
296.37445	33084.525
300.59849	33276.225
304.81948	33433.225
309.03742	33507.325
313.25231	33189.525
317.46415	32419.525
321.67296	31492.325
325.87872	30754.125
330.08145	30367.625
334.28114	30450.625
338.47781	30708.125
342.67145	31174.225
346.86207	31759.025
351.04966	32456.325
355.23424	33308.225
359.4158	34032.725
363.59435	34527.825
367.76989	34821.225
371.94243	35006.925
376.11196	35098.225
380.27849	35157.125
384.44203	35257.925
388.60257	35422.125
392.76012	35670.125
396.91468	36121.325
401.06626	36711.025
405.21485	37054.925
409.36047	36943.825
413.50311	36319.925
417.64277	35761.225
421.77947	35582.625
425.9132	35618.125
430.04396	35842.025
434.17176	36062.725
438.2966	36419.425
442.41849	36891.625
446.53742	37803.125
450.6534	38875.625
454.76644	39655.725
458.87653	39988.925
462.98368	39910.325
467.08789	39416.825
471.18916	38837.825
475.2875	38216.425
479.38291	37799.025
483.4754	37452.625
487.56496	37057.625
491.6516	36589.825
495.73531	36281.125
499.81612	36251.625
503.89401	36562.925
507.96899	36735.025
512.04106	36816.225
516.11023	36811.525
520.1765	36643.425
524.23987	36438.125
528.30034	36164.525
532.35792	35801.325
536.41261	35284.525
540.46441	34796.225
544.51333	34753.825
548.55936	35082.925
552.60252	35790.125
556.64279	36480.925
560.6802	36832.225
564.71473	37089.225
568.7464	37547.425
572.7752	38308.125
576.80114	38869.125
580.82422	39498.325
584.84444	40056.125
588.86181	40608.525
592.87633	41253.325
596.888	41852.325
600.89682	42528.625
604.9028	44313.225
608.90594	48272.525
612.90624	51880.925
616.90371	48386.525
620.89834	40631.025
624.89015	37415.625
628.87913	37212.925
632.86528	37267.925
636.84862	37060.725
640.82913	36438.825
644.80683	35406.725
648.78172	34658.025
652.75379	34549.025
656.72306	35030.125
660.68952	35683.525
664.65319	35460.925
668.61405	34816.825
672.57211	34597.825
676.52738	34553.625
680.47986	34469.025
684.42955	34331.025
688.37646	34283.725
692.32058	34440.525
696.26192	34785.025
700.20048	35201.025
704.13626	35459.525
708.06928	35426.425
711.99952	35198.925
715.927	35138.725
719.85171	35221.625
723.77365	35111.025
727.69284	34664.825
731.60928	34320.825
735.52295	34196.825
739.43388	34161.525
743.34206	34289.425
747.24749	34489.525
751.15017	34820.225
755.05012	35427.525
758.94733	36456.525
762.8418	38423.025
766.73354	41380.925
770.62254	44203.525
774.50882	44841.625
778.39237	42702.925
782.27321	39489.525
786.15132	36874.925
790.02671	35368.425
793.89938	34720.425
797.76935	34459.525
801.6366	34425.825
805.50115	34308.725
809.36299	34065.325
813.22213	33799.025
817.07857	33674.625
820.93231	33541.425
824.78336	33490.325
828.63172	33493.525
832.47738	33539.425
836.32036	33648.725
840.16066	33834.525
843.99827	34003.525
847.8332	33921.825
851.66546	33719.425
855.49504	33676.225
859.32195	33639.725
863.1462	33539.225
866.96777	33369.425
870.78668	33240.325
874.60293	33241.525
878.41652	33299.425
882.22745	33382.125
886.03573	33495.525
889.84136	33457.025
893.64433	33309.825
897.44466	33136.825
901.24235	33092.825
905.0374	33027.125
908.8298	32979.325
912.61957	33033.125
916.40671	33365.825
920.19121	33855.925
923.97308	34320.925
927.75233	34480.225
931.52895	34362.725
935.30295	33961.425
939.07433	33356.125
942.84309	32869.925
946.60924	32780.325
950.37278	32667.925
954.13371	32526.225
957.89203	32368.425
961.64774	32248.625
965.40086	32201.625
969.15137	32075.825
972.89929	31996.425
976.64461	32014.125
980.38733	32065.125
984.12747	32314.725
987.86502	32648.525
991.59999	33160.425
995.33237	33914.725
999.06217	35015.025
1002.78939	36196.625
1006.51404	36899.825
1010.23611	37261.525
1013.95561	37583.925
1017.67255	37425.625
1021.38692	36905.425
1025.09872	36580.625
1028.80796	36961.325
1032.51465	38292.325
1036.21877	39418.325
1039.92035	39588.925
1043.61937	38975.825
1047.31584	37927.525
1051.00976	36849.325
1054.70114	36352.425
1058.38998	36337.625
1062.07627	36699.225
1065.76003	37191.025
1069.44126	37746.125
1073.11995	38621.225
1076.79611	39441.625
1080.46974	39714.325
1084.14085	39770.525
1087.80943	39853.925
1091.47549	39659.225
1095.13903	39316.125
1098.80005	38579.325
1102.45857	37800.525
1106.11456	37247.525
1109.76805	37118.225
1113.41903	37195.325
1117.06751	37459.625
1120.71348	37755.925
1124.35696	38102.825
1127.99793	38503.325
1131.63641	38731.125
1135.2724	38521.725
1138.90589	38283.325
1142.5369	38096.025
1146.16542	37941.325
1149.79145	37993.825
1153.415	38256.925
1157.03607	38794.425
1160.65467	39712.925
1164.27079	41196.225
1167.88443	43342.125
1171.49561	46004.525
1175.10432	49590.025
1178.71056	54053.425
1182.31434	58096.325
1185.91565	60187.225
1189.51451	59832.825
1193.11091	57493.225
1196.70485	54521.225
1200.29634	51993.025
1203.88538	50061.025
1207.47197	48889.025
1211.05612	47956.325
1214.63782	47292.125
1218.21708	46822.325
1221.79391	46543.025
1225.36829	46419.825
1228.94024	46117.425
1232.50976	45323.425
1236.07685	44707.425
1239.6415	44364.225
1243.20374	44301.825
1246.76355	44530.325
1250.32093	45248.825
1253.8759	46315.925
1257.42845	47662.925
1260.97859	48991.425
1264.52631	50241.725
1268.07163	51559.625
1271.61453	53130.125
1275.15503	54826.325
1278.69312	56573.825
1282.22882	57934.125
1285.76211	59029.725
1289.29301	60158.825
1292.82151	61723.225
1296.34761	63882.325
1299.87133	67034.625
1303.39266	71080.925
1306.9116	75983.725
1310.42815	80678.925
1313.94233	83552.525
1317.45412	83699.225
1320.96354	81955.925
1324.47058	79725.325
1327.97525	77828.325
1331.47754	76473.725
1334.97747	75893.625
1338.47502	75742.525
1341.97022	75568.925
1345.46305	74918.425
1348.95352	73942.625
1352.44163	73534.925
1355.92738	74822.025
1359.41078	78273.525
1362.89183	81622.125
1366.37053	80204.525
1369.84688	73640.425
1373.32088	65955.025
1376.79254	60722.425
1380.26186	58387.725
1383.72883	57840.525
1387.19347	57469.225
1390.65578	56731.225
1394.11575	56200.625
1397.57339	56494.925
1401.0287	57506.425
1404.48168	58582.325
1407.93234	59100.625
1411.38068	58709.425
1414.82669	57393.625
1418.27039	55480.725
1421.71177	53358.025
1425.15083	51583.725
1428.58758	50546.725
1432.02203	50702.825
1435.45416	51651.025
1438.88399	52988.225
1442.31151	54265.725
1445.73673	55189.725
1449.15965	55912.025
1452.58027	56378.225
1455.9986	56511.525
1459.41463	56926.825
1462.82837	57862.325
1466.23982	59147.225
1469.64898	60435.425
1473.05586	61155.225
1476.46045	61338.225
1479.86276	61028.825
1483.26279	60411.725
1486.66054	59844.625
1490.05602	59791.925
1493.44922	59933.225
1496.84016	60364.825
1500.22882	61454.925
1503.61521	63304.125
1506.99934	65695.125
1510.38121	67893.225
1513.76081	68636.825
1517.13816	67260.225
1520.51324	64407.325
1523.88607	61641.525
1527.25665	59883.225
1530.62498	58997.625
1533.99105	58516.225
1537.35488	58060.125
1540.71647	57563.025
1544.07581	56942.725
1547.4329	56029.925
1550.78776	55250.725
1554.14038	54749.325
1557.49077	54364.325
1560.83892	54182.025
1564.18484	54241.025
1567.52853	54500.525
1570.86999	55062.225
1574.20922	56292.625
1577.54624	57415.825
1580.88103	57967.925
1584.2136	58317.625
1587.54395	59203.825
1590.87208	61030.625
1594.19801	64080.925
1597.52172	67530.325
1600.84321	68578.225
1604.16251	65844.825
1607.47959	61010.425
1610.79447	55949.025
1614.10715	51403.825
1617.41763	47646.225
1620.7259	45025.725
1624.03199	43725.325
1627.33587	43718.225
1630.63757	44927.625
1633.93707	47535.125
1637.23439	51734.725
1640.52951	57402.525
1643.82246	63548.525
1647.11321	68067.925
1650.40179	68707.125
1653.68819	64256.525
1656.97241	56494.725
1660.25446	48894.925
1663.53433	43229.725
1666.81203	39467.225
1670.08756	37150.625
1673.36092	35672.725
1676.63211	34683.725
1679.90115	34001.725
1683.16801	33421.925
1686.43272	33072.525
1689.69527	32809.625
1692.95567	32547.625
1696.2139	32459.725
1699.46999	32414.725
1702.72392	32249.425
1705.97571	32171.125
1709.22535	32071.925
1712.47284	32057.225
1715.71819	32006.825
1718.96139	31941.425
1722.20246	31836.525
1725.44139	31678.425
1728.67818	31514.325
1731.91284	31345.325
1735.14537	31165.425
1738.37576	31051.025
1741.60403	30899.125
1744.83017	30847.825
1748.05418	30796.625
1751.27607	30678.325
1754.49584	30653.825
1757.71349	30604.025
1760.92903	30616.225
1764.14244	30628.925
1767.35375	30562.425
1770.56294	30583.425
1773.77002	30489.525
1776.97499	30520.325
1780.17785	30421.125
1783.37861	30407.925
1786.57727	30313.225
1789.77382	30228.925
1792.96828	30167.025
1796.16064	30166.125
1799.3509	30113.025
1802.53907	30053.725
1805.72514	29988.725
1808.90913	29944.225
1812.09102	29852.325
1815.27083	29794.925
1818.44856	29773.025
1821.6242	29745.925
1824.79776	29698.825
1827.96924	29682.525
1831.13864	29670.525
1834.30597	29695.525
1837.47122	29682.625
1840.6344	29651.125
1843.7955	29696.525
1846.95454	29715.425
1850.11151	29699.225
1853.26642	29687.925
1856.41926	29737.825
1859.57004	29698.425
1862.71876	29683.525
1865.86542	29650.825
1869.01003	29639.125
1872.15258	29636.425
1875.29308	29659.725
1878.43152	29652.225
1881.56792	29618.625
1884.70227	29592.525
1887.83457	29595.225
1890.96482	29603.525
1894.09304	29569.825
1897.21921	29601.925
1900.34335	29557.225
1903.46544	29521.025
1906.58551	29526.225
1909.70353	29506.225
1912.81953	29452.825
1915.93349	29409.825
1919.04543	29341.325
1922.15534	29315.525
1925.26322	29268.225
1928.36908	29173.525
1931.47292	29116.925
1934.57473	29012.925
1937.67453	28970.425
1940.77232	28909.025
1943.86808	28798.625
1946.96184	28710.525
1950.05358	28628.625
1953.14331	28515.125
1956.23103	28473.925
1959.31675	28386.125
1962.40046	28285.325
1965.48217	28225.425
1968.56188	28171.825
1971.63959	28121.925
1974.7153	27973.725
1977.78901	27928.925
1980.86073	27820.225
1983.93046	27767.425
1986.99819	27690.425
1990.06394	27640.725
1993.1277	27547.225
1996.18947	27429.425
1999.24925	27401.225
2002.30706	27297.025
2005.36288	27212.625
2008.41672	27211.425
2011.46859	27125.825
2014.51848	27053.625
2017.56639	27003.725
2020.61233	26942.725
2023.6563	26896.225
2026.6983	26870.225
2029.73833	26838.625
2032.7764	26812.425
2035.8125	26722.325
2038.84664	26673.925
2041.87881	26684.325
2044.90903	26649.025
2047.93729	26626.825
2050.96359	26590.025
2053.98794	26586.525
2057.01034	26566.225
2060.03078	26527.425
2063.04927	26521.825
2066.06582	26511.325
2069.08042	26485.025
2072.09307	26472.125
2075.10378	26431.025
2078.11255	26395.825
2081.11938	26384.025
2084.12426	26408.725
2087.12722	26350.925
2090.12824	26357.925
2093.12732	26367.225
2096.12447	26394.325
2099.11969	26344.425
2102.11299	26335.525
2105.10435	26362.225
2108.09379	26407.025
2111.08131	26442.525
2114.0669	26462.225
2117.05057	26466.525
2120.03233	26442.125
2123.01216	26473.125
2125.99008	26533.225
2128.96609	26488.125
2131.94018	26561.525
2134.91236	26539.025
2137.88263	26614.325
2140.851	26574.825
2143.81746	26614.825
2146.78201	26667.825
2149.74466	26671.225
2152.7054	26667.125
2155.66425	26664.325
2158.6212	26700.125
2161.57625	26663.125
2164.52941	26632.525
2167.48067	26695.025
2170.43004	26683.925
2173.37752	26639.825
2176.32311	26669.525
2179.26681	26647.225
2182.20863	26689.925
2185.14856	26688.425
2188.08661	26687.325
2191.02278	26676.025
2193.95707	26694.425
2196.88948	26652.825
2199.82001	26694.525
2202.74867	26663.725
2205.67545	26698.325
2208.60037	26660.125
2211.52341	26672.625
2214.44458	26631.725
2217.36388	26594.225
2220.28132	26603.025
2223.1969	26577.225
2226.11061	26528.325
2229.02246	26445.225
2231.93245	26425.425
2234.84058	26294.125
2237.74686	26251.725
2240.65128	26285.625
2243.55385	26232.425
2246.45456	26172.825
2249.35343	26162.525
2252.25044	26141.525
2255.14561	26052.225
2258.03893	26061.825
2260.93041	26056.025
2263.82004	25971.125
2266.70783	25928.625
2269.59378	25858.425
2272.4779	25814.925
2275.36017	25747.725
2278.24061	25666.525
2281.11922	25630.825
2283.996	25606.825
2286.87094	25647.025
2289.74405	25578.425
2292.61534	25565.325
2295.4848	25533.225
2298.35243	25582.125
2301.21824	25530.325
2304.08223	25570.225
2306.94439	25558.525
2309.80474	25602.425
2312.66327	25623.525
2315.51999	25636.925
2318.37489	25627.325
2321.22797	25578.825
2324.07925	25619.425
2326.92871	25579.825
2329.77637	25549.125
2332.62222	25507.225
2335.46626	25577.025
2338.3085	25544.525
2341.14893	25570.225
2343.98756	25589.525
2346.8244	25593.025
2349.65943	25605.525
2352.49267	25520.325
2355.32411	25559.025
2358.15376	25528.825
2360.98161	25511.225
2363.80768	25521.925
2366.63195	25472.825
2369.45444	25461.325
2372.27514	25389.225
2375.09405	25332.325
2377.91118	25276.625
2380.72652	25248.925
2383.54009	25201.225
2386.35187	25168.625
2389.16188	25107.525
2391.97011	25089.025
2394.77657	25028.425
2397.58125	25014.725
2400.38416	25031.825
2403.18529	24970.425
2405.98466	24928.125
2408.78226	24841.725
2411.57809	24768.225
2414.37216	24791.425
2417.16446	24735.125
2419.955	24747.325
2422.74378	24717.525
2425.5308	24699.325
2428.31606	24644.825
2431.09956	24683.225
2433.88131	24651.525
2436.6613	24661.925
2439.43954	24592.525
2442.21603	24576.625
2444.99077	24599.325
2447.76377	24616.325
2450.53501	24608.825
2453.30451	24612.925
2456.07226	24605.525
2458.83827	24581.425
2461.60254	24603.825
2464.36507	24584.125
2467.12586	24574.225
2469.88492	24618.125
2472.64224	24578.025
2475.39782	24591.525
2478.15167	24644.825
2480.90379	24616.525
2483.65417	24653.725
2486.40283	24669.225
2489.14976	24665.425
2491.89497	24670.725
2494.63845	24712.725
2497.3802	24688.425
2500.12024	24695.325
2502.85855	24707.525
2505.59514	24709.725
2508.33002	24700.125
2511.06318	24628.825
2513.79462	24625.625
2516.52435	24600.625
2519.25237	24594.525
2521.97867	24546.025
2524.70327	24570.725
2527.42616	24555.325
2530.14734	24534.325
2532.86681	24517.525
2535.58458	24475.525
2538.30065	24461.925
2541.01501	24506.525
2543.72768	24501.325
2546.43864	24489.625
2549.14791	24403.625
2551.85548	24425.625
2554.56136	24409.025
2557.26554	24367.525
2559.96803	24339.825
2562.66883	24337.525
2565.36794	24357.025
2568.06536	24309.625
2570.7611	24296.425
2573.45514	24287.025
2576.14751	24296.225
2578.83819	24270.925
2581.52719	24304.525
2584.21451	24290.525
2586.90015	24288.525
2589.58411	24237.125
2592.2664	24249.725
2594.94701	24216.425
2597.62594	24223.125
2600.30321	24162.625
2602.9788	24179.025
2605.65273	24178.525
2608.32498	24139.425
2610.99557	24115.925
2613.66449	24179.825
2616.33175	24141.425
2618.99734	24165.625
2621.66128	24167.625
2624.32355	24176.325
2626.98416	24163.025
2629.64311	24151.625
2632.30041	24153.525
2634.95605	24173.025
2637.61004	24125.825
2640.26238	24130.025
2642.91306	24098.125
2645.56209	24096.625
2648.20948	24053.225
2650.85521	24019.525
2653.4993	24011.625
2656.14175	24008.525
2658.78255	24085.725
2661.42171	24038.225
2664.05923	24088.925
2666.6951	24077.125
2669.32934	24092.825
2671.96194	24153.225
2674.59291	24124.125
2677.22224	24081.325
2679.84993	24120.025
2682.476	24035.825
2685.10043	24035.325
2687.72324	24027.125
2690.34441	24037.025
2692.96396	24023.325
2695.58188	24010.325
2698.19818	23990.125
2700.81285	23999.625
2703.4259	23980.425
2706.03733	24078.425
2708.64714	24010.325
2711.25533	24072.525
2713.86191	24041.125
2716.46687	24108.325
2719.07021	24082.325
2721.67194	24090.925
2724.27206	24078.225
2726.87057	24075.225
2729.46747	24105.725
2732.06276	24132.825
2734.65644	24117.025
2737.24852	24124.625
2739.83899	24124.325
2742.42786	24093.525
2745.01513	24069.625
2747.60079	24062.125
2750.18486	24061.625
2752.76733	24068.725
2755.3482	24063.925
2757.92747	24074.825
2760.50515	24056.625
2763.08123	24025.825
2765.65573	24027.825
2768.22863	23943.025
2770.79994	23950.325
2773.36967	23959.125
2775.9378	23960.425
2778.50435	23939.725
2781.06932	23950.025
2783.6327	23987.625
2786.1945	23951.225
2788.75471	23917.625
2791.31335	23851.725
2793.87041	23836.225
2796.42589	23754.925
2798.97979	23754.125
2801.53212	23738.425
2804.08288	23700.025
2806.63206	23683.525
2809.17967	23614.225
2811.72571	23568.925
2814.27018	23574.225
2816.81308	23503.025
2819.35442	23499.625
2821.89419	23488.625
2824.43239	23457.825
2826.96904	23444.625
2829.50412	23411.725
2832.03763	23378.325
2834.56959	23404.325
2837.1	23340.325
2839.62884	23280.425
2842.15613	23270.625
2844.68186	23292.025
2847.20604	23227.425
2849.72867	23231.425
2852.24974	23209.925
2854.76927	23186.925
2857.28724	23191.325
2859.80367	23163.125
2862.31855	23150.525
2864.83189	23123.925
2867.34368	23126.225
2869.85393	23130.025
2872.36264	23087.125
2874.8698	23105.625
2877.37543	23123.325
2879.87952	23138.125
2882.38207	23102.725
2884.88308	23116.625
2887.38256	23127.925
2889.88051	23136.925
2892.37692	23098.825
2894.8718	23137.825
2897.36515	23140.125
2899.85698	23190.725
2902.34727	23210.625
2904.83604	23262.425
2907.32328	23302.025
2909.809	23334.725
2912.29319	23359.025
2914.77587	23344.225
2917.25702	23353.425
2919.73665	23319.025
2922.21476	23356.225
2924.69136	23284.425
2927.16644	23279.425
2929.64	23222.625
2932.11205	23157.425
2934.58258	23096.225
2937.05161	23182.725
2939.51912	23189.825
2941.98513	23173.825
2944.44962	23101.925
2946.91261	23000.725
2949.37409	23093.625
2951.83407	23072.025
2954.29254	23049.225
2956.74951	22998.525
2959.20498	23036.425
2961.65895	22938.825
2964.11142	22986.025
2966.56239	22901.025
2969.01186	22909.725
2971.45984	22843.625
2973.90632	22806.125
2976.35131	22741.225
2978.7948	22740.125
2981.23681	22695.525
2983.67732	22643.625
2986.11635	22587.325
2988.55388	22569.025
2990.98993	22517.325
2993.4245	22464.525
2995.85758	22386.925
2998.28917	22345.025
3000.71928	22340.925
3003.14791	22274.225
3005.57506	22280.625
3008.00073	22235.725
3010.42493	22197.525
3012.84764	22164.825
3015.26888	22184.525
3017.68865	22133.125
3020.10694	22085.725
3022.52376	22055.325
3024.9391	22038.725
3027.35298	22041.325
3029.76539	22000.525
3032.17632	21973.725
3034.5858	21966.125
3036.9938	21942.025
3039.40034	21914.025
3041.80542	21870.625
3044.20903	21800.325
3046.61118	21862.025
3049.01187	21753.325
3051.4111	21717.925
3053.80888	21690.025
3056.20519	21683.725
3058.60005	21602.625
3060.99345	21558.825
3063.3854	21558.125
3065.7759	21495.125
3068.16494	21468.825
3070.55254	21414.525
3072.93868	21387.125
3075.32338	21329.225
3077.70662	21276.025
3080.08842	21204.825
3082.46878	21218.425
3084.84769	21193.125
3087.22515	21166.825
3089.60118	21180.725
3091.97576	21121.525
3094.3489	21166.625
3096.72061	21150.125
3099.09087	21125.025
3101.4597	21104.325
3103.82709	21076.325
3106.19305	21017.025
3108.55757	21058.725
3110.92066	20922.225
3113.28232	20918.425
3115.64255	20890.825
3118.00134	20875.625
3120.35871	20861.625
3122.71466	20815.425
3125.06917	20785.425
3127.42226	20753.625
3129.77393	20765.325
3132.12417	20691.725
3134.47299	20718.625
3136.82039	20704.525
3139.16636	20676.525
3141.51092	20682.725
3143.85406	20715.325
3146.19579	20706.325
3148.53609	20688.525
3150.87499	20708.625
3153.21246	20703.625
3155.54853	20744.325
3157.88318	20669.325
3160.21642	20688.425
3162.54826	20680.525
3164.87868	20654.025
3167.2077	20606.525
3169.5353	20590.525
3171.86151	20587.325
3174.18631	20571.025
3176.5097	20580.825
3178.83169	20533.125
3181.15228	20566.225
3183.47147	20516.125
3185.78926	20525.225
3188.10565	20497.625
3190.42065	20488.425
3192.73424	20477.025
3195.04645	20446.525
3197.35725	20484.525
3199.66667	20493.425
3201.97469	20510.225
3204.28132	20480.325
3206.58656	20447.125
3208.8904	20469.825
3211.19287	20487.225
3213.49394	20463.825
3215.79363	20478.925
3218.09193	20483.325
3220.38884	20495.925
3222.68438	20529.225
3224.97853	20478.125
3227.2713	20474.525
3229.56269	20453.925
3231.8527	20421.225
3234.14133	20378.925
3236.42858	20359.025
3238.71446	20357.825
3240.99896	20305.125
3243.28209	20279.125
3245.56384	20292.725
3247.84423	20272.525
3250.12324	20253.325
3252.40088	20209.225
3254.67715	20173.725
3256.95205	20171.325
3259.22558	20144.025
3261.49775	20106.425
3263.76855	20124.725
3266.03799	20075.725
3268.30606	20064.825
3270.57277	20033.625
3272.83812	20007.125
3275.10211	19941.125
3277.36474	19973.825
3279.62601	19974.425
3281.88593	19982.425
3284.14448	19966.525
3286.40168	19965.825
3288.65753	19907.225
3290.91202	19878.925
3293.16516	19853.425
3295.41695	19803.825
3297.66738	19695.025
3299.91647	19620.325
3302.16421	19473.025
3304.4106	19456.425
3306.65564	19370.825
3308.89933	19257.425
3311.14169	19039.425
3313.38269	18917.525
3315.62236	18847.025
3317.86068	18661.625
3320.09766	18484.025
3322.3333	18337.325
3324.5676	18374.425
3326.80056	18080.025
3329.03219	18007.625
3331.26248	4.825
3333.49143	-0.275
3335.71905	-0.575
