Data from AgNP_FTO_APTES_CRN_0uM_R6G_10uM_NaF_0.1M_Addition_RamanShift__75__12-57-12-992.txt Node

Date: Wed Dec 15 12:57:12 GMT 2021
User: TCL
Spectrometer: QEP01345
Trigger mode: 4
Integration Time (sec): 7.000000E0
Scans to average: 10
Electric dark correction enabled: true
Nonlinearity correction enabled: false
Boxcar width: 0
XAxis mode: Raman Shifts
Number of Pixels in Spectrum: 1044
>>>>>Begin Spectral Data<<<<<
46.04893	1.3875
50.45542	-1.9125
54.85868	-1.0125
59.25871	0.6875
63.6555	83.4875
68.04907	92.6875
72.43941	97.4875
76.82654	103.5875
81.21044	113.1875
85.59113	115.5875
89.96862	124.4875
94.34289	122.6875
98.71396	128.7875
103.08183	135.8875
107.4465	136.7875
111.80798	138.8875
116.16626	141.2875
120.52136	141.6875
124.87327	138.0875
129.222	144.0875
133.56755	144.9875
137.90993	151.7875
142.24913	160.2875
146.58517	170.1875
150.91804	188.2875
155.24774	208.2875
159.57429	250.7875
163.89768	297.4875
168.21792	373.1875
172.53501	486.9875
176.84895	659.2875
181.15975	896.0875
185.46741	1232.6875
189.77193	1678.5875
194.07331	2229.2875
198.37157	2851.0875
202.6667	3517.9875
206.9587	4154.1875
211.24758	4824.5875
215.53334	5492.6875
219.81599	6265.9875
224.09553	7132.7875
228.37195	8094.2875
232.64527	9103.9875
236.91549	10131.4875
241.18261	11047.5875
245.44663	11772.0875
249.70755	12354.6875
253.96539	12840.7875
258.22014	13261.9875
262.4718	13746.9875
266.72039	14089.5875
270.96589	14293.9875
275.20832	14339.5875
279.44768	14187.4875
283.68397	14005.9875
287.91719	13883.6875
292.14735	13899.4875
296.37445	14190.4875
300.59849	14721.1875
304.81948	15361.2875
309.03742	15894.1875
313.25231	15860.9875
317.46415	15133.7875
321.67296	13975.8875
325.87872	12977.4875
330.08145	12517.5875
334.28114	12487.0875
338.47781	12718.6875
342.67145	13099.4875
346.86207	13705.2875
351.04966	14548.6875
355.23424	15556.6875
359.4158	16346.9875
363.59435	16726.0875
367.76989	16758.3875
371.94243	16724.4875
376.11196	16589.0875
380.27849	16492.7875
384.44203	16318.5875
388.60257	16118.5875
392.76012	15978.7875
396.91468	16183.0875
401.06626	16624.7875
405.21485	17019.2875
409.36047	16787.7875
413.50311	15938.2875
417.64277	15151.6875
421.77947	14701.2875
425.9132	14533.4875
430.04396	14507.5875
434.17176	14636.7875
438.2966	14868.5875
442.41849	15297.2875
446.53742	15851.2875
450.6534	16369.9875
454.76644	16774.8875
458.87653	16815.0875
462.98368	16660.3875
467.08789	16235.7875
471.18916	15740.1875
475.2875	15242.8875
479.38291	14844.0875
483.4754	14544.0875
487.56496	14310.9875
491.6516	14174.7875
495.73531	14066.6875
499.81612	14108.7875
503.89401	14267.8875
507.96899	14448.4875
512.04106	14709.5875
516.11023	14958.4875
520.1765	15196.9875
524.23987	15166.4875
528.30034	14872.4875
532.35792	14509.6875
536.41261	14132.3875
540.46441	13767.6875
544.51333	13570.6875
548.55936	13632.0875
552.60252	13926.4875
556.64279	14244.2875
560.6802	14444.7875
564.71473	14662.7875
568.7464	15290.6875
572.7752	15723.5875
576.80114	15418.4875
580.82422	15008.2875
584.84444	14885.2875
588.86181	14901.7875
592.87633	15034.8875
596.888	15391.3875
600.89682	16082.9875
604.9028	18003.7875
608.90594	22863.6875
612.90624	28981.7875
616.90371	27609.2875
620.89834	19256.1875
624.89015	15259.7875
628.87913	14449.3875
632.86528	14491.0875
636.84862	14638.8875
640.82913	14399.3875
644.80683	13762.5875
648.78172	13346.5875
652.75379	13452.5875
656.72306	14153.6875
660.68952	14929.4875
664.65319	14748.4875
668.61405	13964.5875
672.57211	13564.7875
676.52738	13511.0875
680.47986	13493.8875
684.42955	13363.0875
688.37646	13284.8875
692.32058	13336.8875
696.26192	13494.1875
700.20048	13730.3875
704.13626	13900.2875
708.06928	13871.5875
711.99952	13709.1875
715.927	13635.8875
719.85171	13635.8875
723.77365	13568.5875
727.69284	13385.6875
731.60928	13211.7875
735.52295	13260.5875
739.43388	13344.3875
743.34206	13462.2875
747.24749	13595.1875
751.15017	13770.1875
755.05012	14108.9875
758.94733	14843.8875
762.8418	16477.5875
766.73354	19195.5875
770.62254	22046.7875
774.50882	23497.1875
778.39237	22520.3875
782.27321	19539.2875
786.15132	16564.1875
790.02671	14780.4875
793.89938	14026.7875
797.76935	13697.5875
801.6366	13534.4875
805.50115	13435.7875
809.36299	13349.3875
813.22213	13282.8875
817.07857	13283.1875
820.93231	13271.6875
824.78336	13300.5875
828.63172	13411.3875
832.47738	13473.6875
836.32036	13445.1875
840.16066	13402.3875
843.99827	13323.2875
847.8332	13263.0875
851.66546	13215.4875
855.49504	13185.2875
859.32195	13159.9875
863.1462	13053.2875
866.96777	12987.2875
870.78668	12961.3875
874.60293	12985.6875
878.41652	13044.3875
882.22745	13117.7875
886.03573	13169.7875
889.84136	13169.6875
893.64433	13082.1875
897.44466	13051.9875
901.24235	13083.3875
905.0374	13033.5875
908.8298	13008.2875
912.61957	13001.1875
916.40671	13116.2875
920.19121	13257.8875
923.97308	13435.9875
927.75233	13617.4875
931.52895	13717.5875
935.30295	13556.2875
939.07433	13169.7875
942.84309	12834.7875
946.60924	12648.5875
950.37278	12540.4875
954.13371	12435.7875
957.89203	12369.6875
961.64774	12292.8875
965.40086	12269.2875
969.15137	12230.2875
972.89929	12200.0875
976.64461	12204.5875
980.38733	12207.4875
984.12747	12234.6875
987.86502	12288.6875
991.59999	12407.6875
995.33237	12625.0875
999.06217	12955.2875
1002.78939	13465.7875
1006.51404	13911.7875
1010.23611	14341.5875
1013.95561	14595.5875
1017.67255	14542.6875
1021.38692	14250.3875
1025.09872	13976.9875
1028.80796	13890.4875
1032.51465	14095.5875
1036.21877	14364.2875
1039.92035	14574.6875
1043.61937	14513.5875
1047.31584	14296.5875
1051.00976	13982.1875
1054.70114	13815.6875
1058.38998	13750.5875
1062.07627	13766.2875
1065.76003	13923.6875
1069.44126	14099.3875
1073.11995	14418.0875
1076.79611	14693.1875
1080.46974	14942.3875
1084.14085	15189.9875
1087.80943	15478.4875
1091.47549	15493.8875
1095.13903	15129.1875
1098.80005	14533.9875
1102.45857	14035.0875
1106.11456	13821.4875
1109.76805	13831.4875
1113.41903	14118.4875
1117.06751	14549.9875
1120.71348	15110.2875
1124.35696	15743.7875
1127.99793	16358.3875
1131.63641	16348.0875
1135.2724	15647.5875
1138.90589	14977.4875
1142.5369	14531.6875
1146.16542	14213.8875
1149.79145	14093.3875
1153.415	14081.5875
1157.03607	14291.9875
1160.65467	14628.6875
1164.27079	15155.0875
1167.88443	16017.2875
1171.49561	17401.3875
1175.10432	19719.0875
1178.71056	22767.1875
1182.31434	25044.3875
1185.91565	25826.5875
1189.51451	25322.4875
1193.11091	23726.8875
1196.70485	21698.3875
1200.29634	20113.7875
1203.88538	18922.8875
1207.47197	17730.2875
1211.05612	16755.3875
1214.63782	16274.7875
1218.21708	16109.3875
1221.79391	16203.9875
1225.36829	16389.6875
1228.94024	16546.9875
1232.50976	16656.9875
1236.07685	16749.0875
1239.6415	16764.2875
1243.20374	16821.0875
1246.76355	16840.1875
1250.32093	17036.3875
1253.8759	17432.2875
1257.42845	18010.4875
1260.97859	18647.1875
1264.52631	19207.4875
1268.07163	19734.6875
1271.61453	20326.1875
1275.15503	20726.7875
1278.69312	21018.1875
1282.22882	21247.5875
1285.76211	21798.7875
1289.29301	22549.4875
1292.82151	23279.4875
1296.34761	23993.9875
1299.87133	25009.2875
1303.39266	26792.3875
1306.9116	29506.2875
1310.42815	32787.3875
1313.94233	34897.0875
1317.45412	34654.2875
1320.96354	32720.0875
1324.47058	30438.6875
1327.97525	28484.0875
1331.47754	27452.3875
1334.97747	27265.7875
1338.47502	27473.4875
1341.97022	27855.3875
1345.46305	28491.0875
1348.95352	29572.0875
1352.44163	31344.1875
1355.92738	33952.4875
1359.41078	38162.4875
1362.89183	42377.8875
1366.37053	41693.9875
1369.84688	36041.8875
1373.32088	29926.5875
1376.79254	25884.5875
1380.26186	23779.8875
1383.72883	22747.3875
1387.19347	21946.4875
1390.65578	21057.3875
1394.11575	20355.0875
1397.57339	20083.4875
1401.0287	20241.5875
1404.48168	20699.7875
1407.93234	21279.5875
1411.38068	21772.0875
1414.82669	21817.1875
1418.27039	21394.4875
1421.71177	20704.9875
1425.15083	20157.7875
1428.58758	19867.2875
1432.02203	19890.6875
1435.45416	20099.4875
1438.88399	20215.2875
1442.31151	20245.2875
1445.73673	20312.7875
1449.15965	20418.2875
1452.58027	20333.1875
1455.9986	20038.5875
1459.41463	19895.1875
1462.82837	20067.2875
1466.23982	20439.0875
1469.64898	20922.2875
1473.05586	21260.0875
1476.46045	21495.5875
1479.86276	21929.6875
1483.26279	22417.1875
1486.66054	23028.2875
1490.05602	23777.7875
1493.44922	24837.7875
1496.84016	26209.2875
1500.22882	28281.9875
1503.61521	31057.1875
1506.99934	34175.8875
1510.38121	37264.4875
1513.76081	38718.4875
1517.13816	37278.7875
1520.51324	33292.7875
1523.88607	29045.6875
1527.25665	26171.1875
1530.62498	24488.4875
1533.99105	23464.7875
1537.35488	22822.9875
1540.71647	22440.7875
1544.07581	22227.0875
1547.4329	21992.5875
1550.78776	21680.3875
1554.14038	21387.2875
1557.49077	21390.7875
1560.83892	21603.6875
1564.18484	22073.3875
1567.52853	22616.2875
1570.86999	23205.2875
1574.20922	23726.7875
1577.54624	23832.0875
1580.88103	23061.3875
1584.2136	21784.9875
1587.54395	21206.6875
1590.87208	21620.4875
1594.19801	23052.7875
1597.52172	24934.9875
1600.84321	25915.1875
1604.16251	25114.1875
1607.47959	23215.9875
1610.79447	20998.3875
1614.10715	19015.7875
1617.41763	17478.1875
1620.7259	16565.4875
1624.03199	16143.4875
1627.33587	16194.7875
1630.63757	16623.4875
1633.93707	17528.5875
1637.23439	18974.9875
1640.52951	20829.1875
1643.82246	23144.2875
1647.11321	25576.5875
1650.40179	27203.7875
1653.68819	26364.7875
1656.97241	22965.1875
1660.25446	19117.2875
1663.53433	16327.4875
1666.81203	14663.7875
1670.08756	13708.1875
1673.36092	13154.2875
1676.63211	12737.9875
1679.90115	12507.3875
1683.16801	12306.6875
1686.43272	12172.8875
1689.69527	12081.7875
1692.95567	12039.7875
1696.2139	11961.5875
1699.46999	11929.3875
1702.72392	11904.3875
1705.97571	11875.0875
1709.22535	11871.8875
1712.47284	11873.3875
1715.71819	11886.8875
1718.96139	11884.8875
1722.20246	11837.2875
1725.44139	11790.0875
1728.67818	11701.8875
1731.91284	11611.5875
1735.14537	11532.3875
1738.37576	11450.8875
1741.60403	11386.0875
1744.83017	11359.0875
1748.05418	11297.1875
1751.27607	11281.4875
1754.49584	11239.2875
1757.71349	11224.5875
1760.92903	11219.3875
1764.14244	11204.6875
1767.35375	11213.0875
1770.56294	11162.8875
1773.77002	11153.2875
1776.97499	11102.1875
1780.17785	11125.2875
1783.37861	11100.9875
1786.57727	11052.7875
1789.77382	11039.5875
1792.96828	11037.5875
1796.16064	11001.7875
1799.3509	10996.6875
1802.53907	11015.6875
1805.72514	10955.4875
1808.90913	10932.3875
1812.09102	10897.7875
1815.27083	10873.8875
1818.44856	10838.5875
1821.6242	10833.4875
1824.79776	10825.0875
1827.96924	10825.1875
1831.13864	10785.9875
1834.30597	10794.1875
1837.47122	10793.4875
1840.6344	10792.9875
1843.7955	10794.4875
1846.95454	10789.5875
1850.11151	10772.9875
1853.26642	10749.9875
1856.41926	10774.1875
1859.57004	10773.4875
1862.71876	10785.4875
1865.86542	10765.6875
1869.01003	10805.6875
1872.15258	10809.4875
1875.29308	10827.6875
1878.43152	10780.5875
1881.56792	10816.7875
1884.70227	10820.6875
1887.83457	10861.4875
1890.96482	10841.7875
1894.09304	10840.2875
1897.21921	10817.1875
1900.34335	10833.4875
1903.46544	10844.8875
1906.58551	10839.5875
1909.70353	10826.0875
1912.81953	10847.5875
1915.93349	10800.2875
1919.04543	10776.8875
1922.15534	10756.1875
1925.26322	10749.1875
1928.36908	10705.8875
1931.47292	10650.1875
1934.57473	10625.0875
1937.67453	10585.5875
1940.77232	10524.9875
1943.86808	10474.4875
1946.96184	10452.0875
1950.05358	10382.3875
1953.14331	10347.0875
1956.23103	10295.9875
1959.31675	10262.1875
1962.40046	10245.7875
1965.48217	10230.4875
1968.56188	10203.0875
1971.63959	10162.0875
1974.7153	10142.5875
1977.78901	10098.9875
1980.86073	10064.3875
1983.93046	10030.9875
1986.99819	9987.6875
1990.06394	9978.6875
1993.1277	9929.3875
1996.18947	9893.1875
1999.24925	9873.4875
2002.30706	9817.3875
2005.36288	9791.4875
2008.41672	9805.7875
2011.46859	9742.0875
2014.51848	9736.2875
2017.56639	9693.9875
2020.61233	9657.5875
2023.6563	9612.5875
2026.6983	9599.9875
2029.73833	9564.7875
2032.7764	9573.0875
2035.8125	9555.3875
2038.84664	9524.9875
2041.87881	9526.5875
2044.90903	9482.1875
2047.93729	9455.3875
2050.96359	9455.3875
2053.98794	9453.1875
2057.01034	9425.4875
2060.03078	9410.7875
2063.04927	9406.9875
2066.06582	9392.2875
2069.08042	9401.1875
2072.09307	9387.2875
2075.10378	9371.1875
2078.11255	9352.0875
2081.11938	9336.0875
2084.12426	9335.6875
2087.12722	9327.4875
2090.12824	9318.4875
2093.12732	9314.8875
2096.12447	9318.7875
2099.11969	9320.5875
2102.11299	9283.0875
2105.10435	9312.2875
2108.09379	9308.6875
2111.08131	9308.3875
2114.0669	9313.0875
2117.05057	9316.6875
2120.03233	9319.1875
2123.01216	9323.0875
2125.99008	9335.3875
2128.96609	9341.8875
2131.94018	9311.6875
2134.91236	9315.7875
2137.88263	9310.6875
2140.851	9317.9875
2143.81746	9324.2875
2146.78201	9337.0875
2149.74466	9323.2875
2152.7054	9332.9875
2155.66425	9309.8875
2158.6212	9295.9875
2161.57625	9295.2875
2164.52941	9282.8875
2167.48067	9287.7875
2170.43004	9277.0875
2173.37752	9273.0875
2176.32311	9248.6875
2179.26681	9263.2875
2182.20863	9287.7875
2185.14856	9282.1875
2188.08661	9283.6875
2191.02278	9276.9875
2193.95707	9268.1875
2196.88948	9250.0875
2199.82001	9267.3875
2202.74867	9246.2875
2205.67545	9216.2875
2208.60037	9201.5875
2211.52341	9180.5875
2214.44458	9200.1875
2217.36388	9180.8875
2220.28132	9168.5875
2223.1969	9117.8875
2226.11061	9105.6875
2229.02246	9087.1875
2231.93245	9053.6875
2234.84058	9030.8875
2237.74686	9023.2875
2240.65128	9043.9875
2243.55385	9010.0875
2246.45456	9018.6875
2249.35343	9003.9875
2252.25044	8979.3875
2255.14561	8971.3875
2258.03893	8974.7875
2260.93041	8967.9875
2263.82004	8943.7875
2266.70783	8916.2875
2269.59378	8896.3875
2272.4779	8869.6875
2275.36017	8835.2875
2278.24061	8814.9875
2281.11922	8780.9875
2283.996	8794.0875
2286.87094	8775.4875
2289.74405	8743.1875
2292.61534	8725.7875
2295.4848	8709.9875
2298.35243	8699.7875
2301.21824	8681.0875
2304.08223	8684.1875
2306.94439	8683.5875
2309.80474	8676.4875
2312.66327	8694.1875
2315.51999	8671.8875
2318.37489	8670.3875
2321.22797	8659.0875
2324.07925	8671.4875
2326.92871	8650.0875
2329.77637	8653.6875
2332.62222	8646.8875
2335.46626	8634.1875
2338.3085	8615.6875
2341.14893	8629.3875
2343.98756	8625.3875
2346.8244	8626.7875
2349.65943	8609.3875
2352.49267	8618.6875
2355.32411	8636.4875
2358.15376	8649.1875
2360.98161	8635.4875
2363.80768	8635.6875
2366.63195	8635.7875
2369.45444	8638.6875
2372.27514	8636.0875
2375.09405	8630.9875
2377.91118	8569.2875
2380.72652	8566.1875
2383.54009	8512.1875
2386.35187	8501.7875
2389.16188	8460.8875
2391.97011	8429.1875
2394.77657	8405.4875
2397.58125	8393.2875
2400.38416	8387.1875
2403.18529	8351.8875
2405.98466	8335.9875
2408.78226	8308.0875
2411.57809	8307.5875
2414.37216	8267.6875
2417.16446	8277.2875
2419.955	8267.2875
2422.74378	8237.8875
2425.5308	8213.3875
2428.31606	8235.6875
2431.09956	8232.1875
2433.88131	8197.7875
2436.6613	8218.0875
2439.43954	8200.2875
2442.21603	8189.4875
2444.99077	8193.8875
2447.76377	8179.9875
2450.53501	8179.1875
2453.30451	8182.1875
2456.07226	8177.9875
2458.83827	8161.5875
2461.60254	8179.3875
2464.36507	8160.1875
2467.12586	8152.2875
2469.88492	8154.4875
2472.64224	8157.9875
2475.39782	8176.9875
2478.15167	8182.0875
2480.90379	8172.7875
2483.65417	8194.0875
2486.40283	8229.9875
2489.14976	8222.9875
2491.89497	8218.1875
2494.63845	8219.6875
2497.3802	8232.3875
2500.12024	8224.3875
2502.85855	8196.3875
2505.59514	8195.2875
2508.33002	8170.7875
2511.06318	8156.2875
2513.79462	8106.1875
2516.52435	8080.6875
2519.25237	8100.4875
2521.97867	8065.4875
2524.70327	8050.1875
2527.42616	8000.2875
2530.14734	8043.1875
2532.86681	8032.6875
2535.58458	8032.7875
2538.30065	7990.3875
2541.01501	8020.5875
2543.72768	7993.6875
2546.43864	7985.6875
2549.14791	7997.0875
2551.85548	7994.9875
2554.56136	7961.7875
2557.26554	7979.8875
2559.96803	7945.7875
2562.66883	7978.4875
2565.36794	7931.9875
2568.06536	7936.4875
2570.7611	7921.6875
2573.45514	7891.2875
2576.14751	7911.6875
2578.83819	7893.3875
2581.52719	7886.2875
2584.21451	7855.9875
2586.90015	7848.4875
2589.58411	7870.2875
2592.2664	7851.9875
2594.94701	7839.9875
2597.62594	7831.1875
2600.30321	7819.8875
2602.9788	7838.5875
2605.65273	7828.7875
2608.32498	7834.7875
2610.99557	7831.8875
2613.66449	7805.7875
2616.33175	7829.1875
2618.99734	7803.6875
2621.66128	7810.6875
2624.32355	7824.1875
2626.98416	7814.4875
2629.64311	7799.2875
2632.30041	7802.0875
2634.95605	7794.7875
2637.61004	7764.5875
2640.26238	7776.4875
2642.91306	7779.0875
2645.56209	7724.3875
2648.20948	7734.9875
2650.85521	7718.1875
2653.4993	7709.0875
2656.14175	7726.1875
2658.78255	7724.3875
2661.42171	7736.2875
2664.05923	7736.0875
2666.6951	7740.6875
2669.32934	7786.2875
2671.96194	7788.2875
2674.59291	7773.9875
2677.22224	7787.0875
2679.84993	7792.8875
2682.476	7791.2875
2685.10043	7791.1875
2687.72324	7780.8875
2690.34441	7808.2875
2692.96396	7789.8875
2695.58188	7798.9875
2698.19818	7790.9875
2700.81285	7785.7875
2703.4259	7794.6875
2706.03733	7806.1875
2708.64714	7782.0875
2711.25533	7799.6875
2713.86191	7805.1875
2716.46687	7819.1875
2719.07021	7814.5875
2721.67194	7818.9875
2724.27206	7772.1875
2726.87057	7837.9875
2729.46747	7821.4875
2732.06276	7843.7875
2734.65644	7823.4875
2737.24852	7832.7875
2739.83899	7812.8875
2742.42786	7828.9875
2745.01513	7794.6875
2747.60079	7793.0875
2750.18486	7803.2875
2752.76733	7786.0875
2755.3482	7793.1875
2757.92747	7804.1875
2760.50515	7786.8875
2763.08123	7769.7875
2765.65573	7764.2875
2768.22863	7764.0875
2770.79994	7761.8875
2773.36967	7755.7875
2775.9378	7765.7875
2778.50435	7759.4875
2781.06932	7745.6875
2783.6327	7775.6875
2786.1945	7799.3875
2788.75471	7786.6875
2791.31335	7771.5875
2793.87041	7781.6875
2796.42589	7776.0875
2798.97979	7769.4875
2801.53212	7761.5875
2804.08288	7758.0875
2806.63206	7767.8875
2809.17967	7750.8875
2811.72571	7747.1875
2814.27018	7783.6875
2816.81308	7781.4875
2819.35442	7813.2875
2821.89419	7803.5875
2824.43239	7838.9875
2826.96904	7825.7875
2829.50412	7848.8875
2832.03763	7826.8875
2834.56959	7879.0875
2837.1	7866.1875
2839.62884	7866.3875
2842.15613	7875.9875
2844.68186	7920.4875
2847.20604	7978.7875
2849.72867	8001.7875
2852.24974	8016.2875
2854.76927	8018.1875
2857.28724	8004.7875
2859.80367	7982.7875
2862.31855	7952.0875
2864.83189	7944.2875
2867.34368	7939.4875
2869.85393	7923.5875
2872.36264	7893.8875
2874.8698	7897.7875
2877.37543	7871.1875
2879.87952	7881.3875
2882.38207	7878.2875
2884.88308	7862.9875
2887.38256	7859.9875
2889.88051	7832.2875
2892.37692	7839.8875
2894.8718	7842.9875
2897.36515	7823.4875
2899.85698	7838.3875
2902.34727	7849.7875
2904.83604	7844.5875
2907.32328	7834.5875
2909.809	7842.0875
2912.29319	7833.9875
2914.77587	7816.7875
2917.25702	7792.3875
2919.73665	7778.7875
2922.21476	7800.4875
2924.69136	7779.5875
2927.16644	7773.6875
2929.64	7735.7875
2932.11205	7750.3875
2934.58258	7699.1875
2937.05161	7660.3875
2939.51912	7676.4875
2941.98513	7629.7875
2944.44962	7561.6875
2946.91261	7512.4875
2949.37409	7476.4875
2951.83407	7448.5875
2954.29254	7430.4875
2956.74951	7398.4875
2959.20498	7375.5875
2961.65895	7341.4875
2964.11142	7327.2875
2966.56239	7298.0875
2969.01186	7291.7875
2971.45984	7251.9875
2973.90632	7222.6875
2976.35131	7188.1875
2978.7948	7179.2875
2981.23681	7161.5875
2983.67732	7116.6875
2986.11635	7099.7875
2988.55388	7070.4875
2990.98993	7052.8875
2993.4245	7038.2875
2995.85758	6992.3875
2998.28917	6982.6875
3000.71928	6962.2875
3003.14791	6966.2875
3005.57506	6922.2875
3008.00073	6912.4875
3010.42493	6901.4875
3012.84764	6896.8875
3015.26888	6879.3875
3017.68865	6874.6875
3020.10694	6843.7875
3022.52376	6825.5875
3024.9391	6811.1875
3027.35298	6818.0875
3029.76539	6776.0875
3032.17632	6771.5875
3034.5858	6767.2875
3036.9938	6762.7875
3039.40034	6746.1875
3041.80542	6723.9875
3044.20903	6736.6875
3046.61118	6728.8875
3049.01187	6692.7875
3051.4111	6692.9875
3053.80888	6668.5875
3056.20519	6650.7875
3058.60005	6635.5875
3060.99345	6620.9875
3063.3854	6600.1875
3065.7759	6575.1875
3068.16494	6541.3875
3070.55254	6565.2875
3072.93868	6531.3875
3075.32338	6490.0875
3077.70662	6473.8875
3080.08842	6448.9875
3082.46878	6420.9875
3084.84769	6418.6875
3087.22515	6396.2875
3089.60118	6403.7875
3091.97576	6398.7875
3094.3489	6359.3875
3096.72061	6358.5875
3099.09087	6354.8875
3101.4597	6329.0875
3103.82709	6316.5875
3106.19305	6312.1875
3108.55757	6298.1875
3110.92066	6284.0875
3113.28232	6263.6875
3115.64255	6265.7875
3118.00134	6231.6875
3120.35871	6229.2875
3122.71466	6216.6875
3125.06917	6212.8875
3127.42226	6205.6875
3129.77393	6199.3875
3132.12417	6215.7875
3134.47299	6199.1875
3136.82039	6185.0875
3139.16636	6207.0875
3141.51092	6174.7875
3143.85406	6196.9875
3146.19579	6205.7875
3148.53609	6182.9875
3150.87499	6202.0875
3153.21246	6182.7875
3155.54853	6215.2875
3157.88318	6197.9875
3160.21642	6181.9875
3162.54826	6167.1875
3164.87868	6172.1875
3167.2077	6152.3875
3169.5353	6161.7875
3171.86151	6166.2875
3174.18631	6135.0875
3176.5097	6147.0875
3178.83169	6163.3875
3181.15228	6134.5875
3183.47147	6134.3875
3185.78926	6127.3875
3188.10565	6129.6875
3190.42065	6143.7875
3192.73424	6125.2875
3195.04645	6113.5875
3197.35725	6117.3875
3199.66667	6128.9875
3201.97469	6126.0875
3204.28132	6119.7875
3206.58656	6134.3875
3208.8904	6122.5875
3211.19287	6143.5875
3213.49394	6135.9875
3215.79363	6132.7875
3218.09193	6137.4875
3220.38884	6113.4875
3222.68438	6133.7875
3224.97853	6107.4875
3227.2713	6111.9875
3229.56269	6088.2875
3231.8527	6091.4875
3234.14133	6073.4875
3236.42858	6059.7875
3238.71446	6052.3875
3240.99896	6032.1875
3243.28209	6030.7875
3245.56384	6032.6875
3247.84423	6058.3875
3250.12324	6030.2875
3252.40088	6020.1875
3254.67715	6011.4875
3256.95205	6006.1875
3259.22558	5999.2875
3261.49775	5979.1875
3263.76855	5968.5875
3266.03799	5938.8875
3268.30606	5945.4875
3270.57277	5937.1875
3272.83812	5928.8875
3275.10211	5923.8875
3277.36474	5918.9875
3279.62601	5926.9875
3281.88593	5910.8875
3284.14448	5892.0875
3286.40168	5900.5875
3288.65753	5910.3875
3290.91202	5880.7875
3293.16516	5866.2875
3295.41695	5857.1875
3297.66738	5821.1875
3299.91647	5789.6875
3302.16421	5742.9875
3304.4106	5730.2875
3306.65564	5697.9875
3308.89933	5682.7875
3311.14169	5617.6875
3313.38269	5563.1875
3315.62236	5535.5875
3317.86068	5489.7875
3320.09766	5419.2875
3322.3333	5398.3875
3324.5676	5386.2875
3326.80056	5305.4875
3329.03219	5265.3875
3331.26248	2.6875
3333.49143	-0.7125
3335.71905	-0.8125
