Data from AgNP_FTO_APTES_CRN_200uM_R6G_10uM_NaF_0.1M_Addition_RamanShift__6__19-23-58-165.txt Node

Date: Wed Dec 15 19:23:58 GMT 2021
User: TCL
Spectrometer: QEP01345
Trigger mode: 4
Integration Time (sec): 7.000000E0
Scans to average: 10
Electric dark correction enabled: true
Nonlinearity correction enabled: false
Boxcar width: 0
XAxis mode: Raman Shifts
Number of Pixels in Spectrum: 1044
>>>>>Begin Spectral Data<<<<<
46.04893	1.4
50.45542	-0.8
54.85868	-0.6
59.25871	-1
63.6555	58.2
68.04907	63.7
72.43941	66.5
76.82654	69.9
81.21044	72.5
85.59113	73.4
89.96862	81.4
94.34289	78.8
98.71396	85.7
103.08183	88.3
107.4465	91.2
111.80798	87
116.16626	92.6
120.52136	96
124.87327	97.7
129.222	101.1
133.56755	104.7
137.90993	110.3
142.24913	121.7
146.58517	135.1
150.91804	153.2
155.24774	180.9
159.57429	219.6
163.89768	276.6
168.21792	356.5
172.53501	489.1
176.84895	676
181.15975	935.5
185.46741	1306.1
189.77193	1811.4
194.07331	2414.2
198.37157	3112.2
202.6667	3836.8
206.9587	4564.7
211.24758	5279.9
215.53334	5971.3
219.81599	6726.2
224.09553	7521.5
228.37195	8417.9
232.64527	9386.7
236.91549	10458.1
241.18261	11494.9
245.44663	12545.9
249.70755	13531.2
253.96539	14365.2
258.22014	15056
262.4718	15638
266.72039	16002.2
270.96589	16188.1
275.20832	16221.9
279.44768	16148.8
283.68397	15973.6
287.91719	15842.9
292.14735	15757.2
296.37445	15662.8
300.59849	15609
304.81948	15602.5
309.03742	15533
313.25231	15411.7
317.46415	15232.6
321.67296	14961.1
325.87872	14710.6
330.08145	14666.5
334.28114	14610.4
338.47781	14716.4
342.67145	14877.8
346.86207	15055.6
351.04966	15253.2
355.23424	15450.3
359.4158	15598.3
363.59435	15753.2
367.76989	15817.3
371.94243	15870.5
376.11196	15973.8
380.27849	16015.4
384.44203	16112.3
388.60257	16240.8
392.76012	16448.2
396.91468	16635.6
401.06626	16875.9
405.21485	17029.3
409.36047	17045.1
413.50311	16944
417.64277	16873.1
421.77947	16931.3
425.9132	17024.7
430.04396	17130.9
434.17176	17202
438.2966	17301.3
442.41849	17486.7
446.53742	17783
450.6534	18120.5
454.76644	18367.7
458.87653	18481
462.98368	18481.1
467.08789	18381.9
471.18916	18323.4
475.2875	18262.1
479.38291	18264.3
483.4754	18144.5
487.56496	17946.1
491.6516	17674.5
495.73531	17474.2
499.81612	17386.1
503.89401	17487.5
507.96899	17591.1
512.04106	17582.8
516.11023	17539.3
520.1765	17436
524.23987	17305.1
528.30034	17218.4
532.35792	17084.4
536.41261	16977.3
540.46441	16836
544.51333	16876.6
548.55936	17035.7
552.60252	17329.3
556.64279	17659.2
560.6802	17895.1
564.71473	17987.1
568.7464	18166.1
572.7752	18479.5
576.80114	18912.3
580.82422	19404.3
584.84444	19922.8
588.86181	20467.5
592.87633	20860.5
596.888	20731.2
600.89682	20100.9
604.9028	19818.9
608.90594	20318.9
612.90624	20895.8
616.90371	19920.7
620.89834	17958.3
624.89015	17109.6
628.87913	17019.3
632.86528	17133.1
636.84862	17139.4
640.82913	17034.4
644.80683	16836.5
648.78172	16681
652.75379	16632.3
656.72306	16702.8
660.68952	16839.1
664.65319	16771.4
668.61405	16664.7
672.57211	16662.5
676.52738	16711.8
680.47986	16799.2
684.42955	16707.4
688.37646	16653.8
692.32058	16714.5
696.26192	16852.9
700.20048	17005.5
704.13626	17131.2
708.06928	17170.5
711.99952	17188.4
715.927	17187.3
719.85171	17185.2
723.77365	17093.4
727.69284	16927.1
731.60928	16766.5
735.52295	16721.4
739.43388	16722.4
743.34206	16754.2
747.24749	16806.5
751.15017	16934
755.05012	17151.6
758.94733	17482.2
762.8418	18034.6
766.73354	18804.8
770.62254	19522.4
774.50882	19589.5
778.39237	18945.6
782.27321	18078.1
786.15132	17370.6
790.02671	16923.3
793.89938	16726.6
797.76935	16609.2
801.6366	16613.1
805.50115	16605
809.36299	16585.8
813.22213	16496.8
817.07857	16476.3
820.93231	16464.1
824.78336	16388.8
828.63172	16355
832.47738	16361.3
836.32036	16368.9
840.16066	16364.6
843.99827	16373.5
847.8332	16325.6
851.66546	16285.1
855.49504	16300.8
859.32195	16298
863.1462	16271.6
866.96777	16268.6
870.78668	16263.1
874.60293	16247.9
878.41652	16296.8
882.22745	16336.6
886.03573	16356.8
889.84136	16344.5
893.64433	16354.7
897.44466	16319.7
901.24235	16265.5
905.0374	16216.9
908.8298	16242.2
912.61957	16264.7
916.40671	16378
920.19121	16519.5
923.97308	16586.1
927.75233	16614.5
931.52895	16435.5
935.30295	16294.7
939.07433	16085.7
942.84309	15921.4
946.60924	15822.2
950.37278	15776.4
954.13371	15770.1
957.89203	15768.3
961.64774	15789.7
965.40086	15793.9
969.15137	15705.4
972.89929	15640
976.64461	15602.6
980.38733	15530.4
984.12747	15580.7
987.86502	15614.5
991.59999	15660.8
995.33237	15742.4
999.06217	15881.4
1002.78939	16093.1
1006.51404	16257
1010.23611	16503.3
1013.95561	16658.1
1017.67255	16676.5
1021.38692	16579.1
1025.09872	16411.9
1028.80796	16238.6
1032.51465	16233.7
1036.21877	16277.6
1039.92035	16387.9
1043.61937	16414
1047.31584	16493.1
1051.00976	16558.9
1054.70114	16678.3
1058.38998	16873.9
1062.07627	17148.4
1065.76003	17535.2
1069.44126	17951.8
1073.11995	18315.6
1076.79611	18458.9
1080.46974	18287.8
1084.14085	17993
1087.80943	17759.4
1091.47549	17671.2
1095.13903	17625.5
1098.80005	17476.6
1102.45857	17136.4
1106.11456	16872.8
1109.76805	16709.5
1113.41903	16683.4
1117.06751	16720.3
1120.71348	16853.3
1124.35696	17019.2
1127.99793	17199.2
1131.63641	17343.5
1135.2724	17297.5
1138.90589	17235.9
1142.5369	17267.9
1146.16542	17327.2
1149.79145	17437.3
1153.415	17569.8
1157.03607	17765.6
1160.65467	18080.5
1164.27079	18667.4
1167.88443	19413.5
1171.49561	20271.5
1175.10432	21228.8
1178.71056	22454.7
1182.31434	23497.1
1185.91565	23964.1
1189.51451	23766.3
1193.11091	23274.8
1196.70485	22647
1200.29634	21983.4
1203.88538	21537.2
1207.47197	21343.7
1211.05612	21214.5
1214.63782	20923.1
1218.21708	20491.2
1221.79391	19967.8
1225.36829	19561.2
1228.94024	19411.4
1232.50976	19242.8
1236.07685	19059.5
1239.6415	19002.1
1243.20374	18962.2
1246.76355	19076.6
1250.32093	19262.4
1253.8759	19551
1257.42845	19932.2
1260.97859	20311.7
1264.52631	20666.2
1268.07163	21088.5
1271.61453	21478.9
1275.15503	21918.3
1278.69312	22380.3
1282.22882	22946.5
1285.76211	23632.7
1289.29301	24430.5
1292.82151	25402.5
1296.34761	26523.7
1299.87133	27700
1303.39266	28831.1
1306.9116	29712.8
1310.42815	30538.5
1313.94233	30962.8
1317.45412	30934
1320.96354	30598.1
1324.47058	30351.8
1327.97525	30217.7
1331.47754	30064.8
1334.97747	29976.2
1338.47502	29744.3
1341.97022	29505.3
1345.46305	29187.8
1348.95352	28979.4
1352.44163	28914.8
1355.92738	29223.4
1359.41078	29920
1362.89183	30464.8
1366.37053	30109.9
1369.84688	28475.9
1373.32088	26195.5
1376.79254	24554.3
1380.26186	23901.8
1383.72883	23858.7
1387.19347	23794.8
1390.65578	23660.2
1394.11575	23612.3
1397.57339	23814.9
1401.0287	24102.7
1404.48168	24302.6
1407.93234	24139.5
1411.38068	23700.9
1414.82669	22982
1418.27039	22168.2
1421.71177	21341.4
1425.15083	20664
1428.58758	20318.5
1432.02203	20421.5
1435.45416	20773.2
1438.88399	21227.1
1442.31151	21578.4
1445.73673	21828.1
1449.15965	22043.5
1452.58027	22205.7
1455.9986	22298.1
1459.41463	22451.1
1462.82837	22727.7
1466.23982	23095.8
1469.64898	23436.5
1473.05586	23621.2
1476.46045	23701.1
1479.86276	23643.9
1483.26279	23421.9
1486.66054	23360.1
1490.05602	23481.4
1493.44922	23694.6
1496.84016	23914.4
1500.22882	24246.5
1503.61521	24746.5
1506.99934	25243.2
1510.38121	25570.8
1513.76081	25594.1
1517.13816	25229
1520.51324	24745.1
1523.88607	24401.7
1527.25665	24277.8
1530.62498	24246.5
1533.99105	24176.4
1537.35488	23911.6
1540.71647	23542.8
1544.07581	23063.1
1547.4329	22515.7
1550.78776	22065.9
1554.14038	21703.6
1557.49077	21556
1560.83892	21498.7
1564.18484	21569.4
1567.52853	21783.7
1570.86999	22195.3
1574.20922	22830.6
1577.54624	23536.6
1580.88103	23910.1
1584.2136	24043.5
1587.54395	24110.6
1590.87208	24418.1
1594.19801	25061.7
1597.52172	25827.1
1600.84321	26014.1
1604.16251	25229.3
1607.47959	23756.7
1610.79447	22161.4
1614.10715	20691.7
1617.41763	19455
1620.7259	18618.2
1624.03199	18177.1
1627.33587	18068.3
1630.63757	18395.8
1633.93707	19224.9
1637.23439	20662.9
1640.52951	22757
1643.82246	25287.9
1647.11321	27338.6
1650.40179	27834
1653.68819	26336.1
1656.97241	23605.9
1660.25446	20926.6
1663.53433	18855.9
1666.81203	17474.9
1670.08756	16537
1673.36092	15944.5
1676.63211	15581
1679.90115	15346.1
1683.16801	15120.2
1686.43272	14968.1
1689.69527	14849.9
1692.95567	14809.9
1696.2139	14743.1
1699.46999	14739
1702.72392	14656.4
1705.97571	14615.4
1709.22535	14617.9
1712.47284	14535.2
1715.71819	14550.5
1718.96139	14510.7
1722.20246	14469.5
1725.44139	14429.3
1728.67818	14354.2
1731.91284	14294.1
1735.14537	14226
1738.37576	14201
1741.60403	14168.7
1744.83017	14111.2
1748.05418	14122.3
1751.27607	14082.3
1754.49584	14113.3
1757.71349	14076.4
1760.92903	14089.2
1764.14244	14086.4
1767.35375	14083.9
1770.56294	14062.6
1773.77002	14032.5
1776.97499	14006.1
1780.17785	13958.5
1783.37861	13948.5
1786.57727	13895.7
1789.77382	13878.2
1792.96828	13863.5
1796.16064	13836.9
1799.3509	13783
1802.53907	13768.3
1805.72514	13721.2
1808.90913	13685
1812.09102	13671
1815.27083	13670.9
1818.44856	13640.4
1821.6242	13631.9
1824.79776	13635.9
1827.96924	13605.3
1831.13864	13584.3
1834.30597	13624.4
1837.47122	13597.6
1840.6344	13568.4
1843.7955	13570.4
1846.95454	13546
1850.11151	13562.2
1853.26642	13561.7
1856.41926	13574.9
1859.57004	13535.5
1862.71876	13498.2
1865.86542	13501
1869.01003	13524.5
1872.15258	13473.2
1875.29308	13476.7
1878.43152	13453.2
1881.56792	13419.6
1884.70227	13422.1
1887.83457	13395
1890.96482	13383.5
1894.09304	13359.9
1897.21921	13341.3
1900.34335	13343.9
1903.46544	13316.1
1906.58551	13325.8
1909.70353	13280.9
1912.81953	13281.7
1915.93349	13240.4
1919.04543	13194.4
1922.15534	13192
1925.26322	13159.8
1928.36908	13164.2
1931.47292	13147.1
1934.57473	13134.4
1937.67453	13102.8
1940.77232	13072.9
1943.86808	13011.7
1946.96184	12985.9
1950.05358	12939.5
1953.14331	12910.4
1956.23103	12919
1959.31675	12852.2
1962.40046	12813.3
1965.48217	12775.7
1968.56188	12732.2
1971.63959	12703
1974.7153	12664.7
1977.78901	12623.5
1980.86073	12587.2
1983.93046	12521
1986.99819	12543.6
1990.06394	12497.7
1993.1277	12467.6
1996.18947	12417.5
1999.24925	12408.6
2002.30706	12341.8
2005.36288	12326.6
2008.41672	12256.8
2011.46859	12264.2
2014.51848	12238.1
2017.56639	12197
2020.61233	12159.8
2023.6563	12133.7
2026.6983	12115.4
2029.73833	12097.6
2032.7764	12057.2
2035.8125	12051.5
2038.84664	12015.3
2041.87881	11985.4
2044.90903	11974.7
2047.93729	11945.8
2050.96359	11960
2053.98794	11947.6
2057.01034	11897
2060.03078	11902.8
2063.04927	11908.5
2066.06582	11886.6
2069.08042	11884.6
2072.09307	11875.7
2075.10378	11869.7
2078.11255	11853.6
2081.11938	11865.8
2084.12426	11845
2087.12722	11838.2
2090.12824	11850.5
2093.12732	11848
2096.12447	11846.4
2099.11969	11840.3
2102.11299	11870.4
2105.10435	11858.1
2108.09379	11838.6
2111.08131	11871.1
2114.0669	11854.7
2117.05057	11853.9
2120.03233	11878.7
2123.01216	11914.6
2125.99008	11918.4
2128.96609	11920.9
2131.94018	11951
2134.91236	11932.1
2137.88263	11940.1
2140.851	11935.7
2143.81746	11967.1
2146.78201	11957.9
2149.74466	11940.1
2152.7054	11956.8
2155.66425	11959.5
2158.6212	11971.3
2161.57625	11969.4
2164.52941	11936.5
2167.48067	11946.3
2170.43004	11959.2
2173.37752	11959.2
2176.32311	11959.8
2179.26681	11932.8
2182.20863	11942.1
2185.14856	11922
2188.08661	11918.9
2191.02278	11918.3
2193.95707	11918.2
2196.88948	11907.5
2199.82001	11903.6
2202.74867	11873.8
2205.67545	11880.1
2208.60037	11861.3
2211.52341	11857.8
2214.44458	11832.1
2217.36388	11778.5
2220.28132	11779.4
2223.1969	11750.6
2226.11061	11728.8
2229.02246	11711.9
2231.93245	11685.3
2234.84058	11681.1
2237.74686	11674.2
2240.65128	11670.6
2243.55385	11672.5
2246.45456	11636.5
2249.35343	11623.2
2252.25044	11591.2
2255.14561	11567.8
2258.03893	11565.6
2260.93041	11525.1
2263.82004	11486.5
2266.70783	11501
2269.59378	11445.6
2272.4779	11434.7
2275.36017	11390.6
2278.24061	11388.6
2281.11922	11345.4
2283.996	11318.5
2286.87094	11329.7
2289.74405	11309.6
2292.61534	11288.5
2295.4848	11272.4
2298.35243	11275.9
2301.21824	11252.9
2304.08223	11244.5
2306.94439	11235
2309.80474	11238.8
2312.66327	11240.4
2315.51999	11226.7
2318.37489	11217.7
2321.22797	11216.5
2324.07925	11218.1
2326.92871	11167
2329.77637	11175.1
2332.62222	11116.8
2335.46626	11125.5
2338.3085	11106.4
2341.14893	11119.7
2343.98756	11089.7
2346.8244	11090.2
2349.65943	11072.8
2352.49267	11057
2355.32411	11049.8
2358.15376	11049
2360.98161	11050.6
2363.80768	11037.6
2366.63195	11036.8
2369.45444	11026
2372.27514	11036.2
2375.09405	11014.3
2377.91118	10990.9
2380.72652	10962
2383.54009	10950.5
2386.35187	10918.5
2389.16188	10895.6
2391.97011	10870.7
2394.77657	10877.4
2397.58125	10833.3
2400.38416	10825.5
2403.18529	10819.4
2405.98466	10807.4
2408.78226	10784.2
2411.57809	10754.6
2414.37216	10761.1
2417.16446	10750.3
2419.955	10724.2
2422.74378	10715.8
2425.5308	10699.8
2428.31606	10694.3
2431.09956	10690.9
2433.88131	10692.9
2436.6613	10676.8
2439.43954	10674.5
2442.21603	10657.4
2444.99077	10635.1
2447.76377	10670.8
2450.53501	10645.7
2453.30451	10606
2456.07226	10613.5
2458.83827	10582.4
2461.60254	10603.8
2464.36507	10585.8
2467.12586	10571.4
2469.88492	10575.4
2472.64224	10573.4
2475.39782	10555.7
2478.15167	10578.1
2480.90379	10554.4
2483.65417	10568.8
2486.40283	10566.6
2489.14976	10557.5
2491.89497	10544.2
2494.63845	10553.8
2497.3802	10540
2500.12024	10511.9
2502.85855	10492
2505.59514	10487.9
2508.33002	10470.2
2511.06318	10492.6
2513.79462	10471.9
2516.52435	10439.8
2519.25237	10430.8
2521.97867	10444.5
2524.70327	10422.7
2527.42616	10411.5
2530.14734	10387.7
2532.86681	10382.2
2535.58458	10345.7
2538.30065	10389.8
2541.01501	10378.7
2543.72768	10359
2546.43864	10331.8
2549.14791	10305.8
2551.85548	10296.2
2554.56136	10269.8
2557.26554	10232
2559.96803	10227.1
2562.66883	10238.5
2565.36794	10245.2
2568.06536	10226.8
2570.7611	10234.4
2573.45514	10206.3
2576.14751	10197.8
2578.83819	10166.8
2581.52719	10173.5
2584.21451	10140
2586.90015	10141.8
2589.58411	10109.4
2592.2664	10113.4
2594.94701	10077.1
2597.62594	10094.1
2600.30321	10066
2602.9788	10029.9
2605.65273	10007.5
2608.32498	10045.2
2610.99557	9996.7
2613.66449	10014.7
2616.33175	9968.1
2618.99734	9988.5
2621.66128	9968.8
2624.32355	9982.9
2626.98416	9938.9
2629.64311	9926.9
2632.30041	9925.2
2634.95605	9917
2637.61004	9914.1
2640.26238	9885.4
2642.91306	9870.3
2645.56209	9861.9
2648.20948	9889.2
2650.85521	9871.6
2653.4993	9876.3
2656.14175	9868.6
2658.78255	9875.5
2661.42171	9881.3
2664.05923	9893
2666.6951	9875.5
2669.32934	9875.2
2671.96194	9853.5
2674.59291	9857.7
2677.22224	9903.7
2679.84993	9892.4
2682.476	9857.1
2685.10043	9864.5
2687.72324	9834.6
2690.34441	9867.7
2692.96396	9874.7
2695.58188	9881.8
2698.19818	9879.5
2700.81285	9879.1
2703.4259	9892.6
2706.03733	9951.3
2708.64714	9912.7
2711.25533	9900.4
2713.86191	9918.9
2716.46687	9922.7
2719.07021	9900.4
2721.67194	9890.1
2724.27206	9887.2
2726.87057	9866.8
2729.46747	9906.3
2732.06276	9907.7
2734.65644	9888.1
2737.24852	9890.1
2739.83899	9853.3
2742.42786	9856.7
2745.01513	9856.5
2747.60079	9852.4
2750.18486	9833.8
2752.76733	9809.3
2755.3482	9813.3
2757.92747	9794.9
2760.50515	9809.6
2763.08123	9790.6
2765.65573	9775.3
2768.22863	9766.7
2770.79994	9784.9
2773.36967	9747.6
2775.9378	9738.7
2778.50435	9727.9
2781.06932	9707.7
2783.6327	9716.8
2786.1945	9721.2
2788.75471	9702.1
2791.31335	9662.8
2793.87041	9664.6
2796.42589	9622.2
2798.97979	9645.9
2801.53212	9616.7
2804.08288	9614.4
2806.63206	9580.7
2809.17967	9551
2811.72571	9533.8
2814.27018	9542.2
2816.81308	9515.8
2819.35442	9499.9
2821.89419	9477
2824.43239	9464
2826.96904	9471.7
2829.50412	9472.7
2832.03763	9443.6
2834.56959	9456.2
2837.1	9460.4
2839.62884	9453.9
2842.15613	9440
2844.68186	9489.3
2847.20604	9462.6
2849.72867	9471.2
2852.24974	9482.8
2854.76927	9455.4
2857.28724	9479.2
2859.80367	9437.4
2862.31855	9423.3
2864.83189	9383.7
2867.34368	9381.2
2869.85393	9379.9
2872.36264	9378.9
2874.8698	9383.6
2877.37543	9365.4
2879.87952	9378.9
2882.38207	9401.2
2884.88308	9377.8
2887.38256	9399.8
2889.88051	9373.1
2892.37692	9366.8
2894.8718	9367.6
2897.36515	9368.4
2899.85698	9372.8
2902.34727	9387.7
2904.83604	9381.3
2907.32328	9417.8
2909.809	9382.5
2912.29319	9393.7
2914.77587	9408.7
2917.25702	9363.7
2919.73665	9391.3
2922.21476	9403.3
2924.69136	9389.2
2927.16644	9378.2
2929.64	9379.4
2932.11205	9368.3
2934.58258	9332.2
2937.05161	9363.9
2939.51912	9377.7
2941.98513	9356.5
2944.44962	9343
2946.91261	9287.4
2949.37409	9298.7
2951.83407	9294.2
2954.29254	9271.7
2956.74951	9253.2
2959.20498	9261.7
2961.65895	9262.6
2964.11142	9245.8
2966.56239	9224.5
2969.01186	9179
2971.45984	9176.4
2973.90632	9180.7
2976.35131	9151.8
2978.7948	9123.5
2981.23681	9128
2983.67732	9099.8
2986.11635	9070.2
2988.55388	9037
2990.98993	9038.2
2993.4245	9021.9
2995.85758	8987.1
2998.28917	8999.4
3000.71928	8979
3003.14791	8945
3005.57506	8972
3008.00073	8958.4
3010.42493	8931.5
3012.84764	8904.7
3015.26888	8901.4
3017.68865	8883.6
3020.10694	8886.8
3022.52376	8841.5
3024.9391	8824.7
3027.35298	8830.1
3029.76539	8843.4
3032.17632	8822.6
3034.5858	8816.9
3036.9938	8783.8
3039.40034	8772.5
3041.80542	8795.2
3044.20903	8775.7
3046.61118	8775.7
3049.01187	8739.5
3051.4111	8745.6
3053.80888	8711.9
3056.20519	8704
3058.60005	8702.6
3060.99345	8683
3063.3854	8672.7
3065.7759	8669
3068.16494	8621.4
3070.55254	8620.4
3072.93868	8613.5
3075.32338	8594
3077.70662	8576.5
3080.08842	8536.7
3082.46878	8556.8
3084.84769	8535.2
3087.22515	8547.2
3089.60118	8549.4
3091.97576	8547.3
3094.3489	8552
3096.72061	8544.4
3099.09087	8553.1
3101.4597	8528.4
3103.82709	8524.5
3106.19305	8482.3
3108.55757	8512.2
3110.92066	8482.9
3113.28232	8467.9
3115.64255	8456.1
3118.00134	8458.4
3120.35871	8435.9
3122.71466	8434.2
3125.06917	8429.1
3127.42226	8426.7
3129.77393	8403.3
3132.12417	8409
3134.47299	8404.8
3136.82039	8410.1
3139.16636	8447.8
3141.51092	8437.1
3143.85406	8428.2
3146.19579	8432.1
3148.53609	8434.4
3150.87499	8419.5
3153.21246	8433.7
3155.54853	8442.5
3157.88318	8415.2
3160.21642	8454.3
3162.54826	8425.9
3164.87868	8437.7
3167.2077	8422.4
3169.5353	8437.3
3171.86151	8443.7
3174.18631	8436.5
3176.5097	8424.7
3178.83169	8429.2
3181.15228	8421.3
3183.47147	8395
3185.78926	8410.1
3188.10565	8398.5
3190.42065	8407.6
3192.73424	8396.8
3195.04645	8396.1
3197.35725	8402.4
3199.66667	8381.2
3201.97469	8401.8
3204.28132	8386.1
3206.58656	8408.2
3208.8904	8389.7
3211.19287	8400.1
3213.49394	8401
3215.79363	8405.1
3218.09193	8394.8
3220.38884	8385.5
3222.68438	8419.9
3224.97853	8414.2
3227.2713	8388.2
3229.56269	8372.2
3231.8527	8390.7
3234.14133	8371.2
3236.42858	8351.3
3238.71446	8346.9
3240.99896	8334.6
3243.28209	8327.5
3245.56384	8322.4
3247.84423	8341.9
3250.12324	8331.8
3252.40088	8310.8
3254.67715	8325.1
3256.95205	8282.9
3259.22558	8297.7
3261.49775	8266.8
3263.76855	8278.8
3266.03799	8262.5
3268.30606	8232.2
3270.57277	8222
3272.83812	8193.4
3275.10211	8193.6
3277.36474	8176.5
3279.62601	8167.1
3281.88593	8161.5
3284.14448	8179.7
3286.40168	8184.9
3288.65753	8153
3290.91202	8149.2
3293.16516	8115.2
3295.41695	8093.7
3297.66738	8059.7
3299.91647	8024.2
3302.16421	7959.7
3304.4106	7931
3306.65564	7903.1
3308.89933	7862.5
3311.14169	7799
3313.38269	7747.5
3315.62236	7679.5
3317.86068	7640
3320.09766	7566.9
3322.3333	7484.6
3324.5676	7512.9
3326.80056	7404.6
3329.03219	7336.5
3331.26248	2.8
3333.49143	-0.8
3335.71905	-0.7
