Data from AgNP_FTO_APTES_CRN_1000uM_R6G_10uM_NaF_0.1M_Addition_RamanShift__0__20-50-18-263.txt Node

Date: Wed Dec 15 20:50:18 GMT 2021
User: TCL
Spectrometer: QEP01345
Trigger mode: 4
Integration Time (sec): 7.000000E0
Scans to average: 10
Electric dark correction enabled: true
Nonlinearity correction enabled: false
Boxcar width: 0
XAxis mode: Raman Shifts
Number of Pixels in Spectrum: 1044
>>>>>Begin Spectral Data<<<<<
46.04893	1.3375
50.45542	-1.5625
54.85868	-1.9625
59.25871	-0.9625
63.6555	77.8375
68.04907	80.9375
72.43941	85.9375
76.82654	83.6375
81.21044	89.8375
85.59113	92.0375
89.96862	100.7375
94.34289	96.7375
98.71396	101.7375
103.08183	108.6375
107.4465	107.7375
111.80798	112.1375
116.16626	118.9375
120.52136	119.3375
124.87327	120.5375
129.222	131.5375
133.56755	134.7375
137.90993	150.6375
142.24913	160.2375
146.58517	181.1375
150.91804	209.7375
155.24774	251.3375
159.57429	306.9375
163.89768	393.0375
168.21792	511.3375
172.53501	705.3375
176.84895	975.1375
181.15975	1372.5375
185.46741	1915.5375
189.77193	2664.2375
194.07331	3565.7375
198.37157	4603.4375
202.6667	5684.6375
206.9587	6767.6375
211.24758	7839.6375
215.53334	8897.2375
219.81599	10043.7375
224.09553	11238.2375
228.37195	12579.1375
232.64527	14063.5375
236.91549	15605.9375
241.18261	17186.4375
245.44663	18658.5375
249.70755	20033.1375
253.96539	21205.2375
258.22014	22243.0375
262.4718	23024.5375
266.72039	23569.4375
270.96589	23866.1375
275.20832	23881.0375
279.44768	23707.8375
283.68397	23445.6375
287.91719	23224.6375
292.14735	23001.3375
296.37445	22936.8375
300.59849	22991.2375
304.81948	23034.3375
309.03742	23049.3375
313.25231	22982.8375
317.46415	22743.6375
321.67296	22300.6375
325.87872	21922.3375
330.08145	21773.4375
334.28114	21820.5375
338.47781	21955.1375
342.67145	22204.8375
346.86207	22546.3375
351.04966	23008.2375
355.23424	23425.2375
359.4158	23750.7375
363.59435	24018.6375
367.76989	24224.8375
371.94243	24275.8375
376.11196	24366.3375
380.27849	24506.5375
384.44203	24665.5375
388.60257	24854.6375
392.76012	25036.8375
396.91468	25356.2375
401.06626	25687.4375
405.21485	25992.6375
409.36047	25952.3375
413.50311	25705.7375
417.64277	25446.4375
421.77947	25354.4375
425.9132	25383.7375
430.04396	25495.3375
434.17176	25623.6375
438.2966	25888.7375
442.41849	26260.5375
446.53742	26722.0375
450.6534	27274.8375
454.76644	27575.2375
458.87653	27750.0375
462.98368	27683.7375
467.08789	27546.4375
471.18916	27374.8375
475.2875	27245.8375
479.38291	27084.0375
483.4754	26958.9375
487.56496	26688.6375
491.6516	26426.1375
495.73531	26261.1375
499.81612	26156.0375
503.89401	26247.4375
507.96899	26318.5375
512.04106	26381.6375
516.11023	26403.6375
520.1765	26439.5375
524.23987	26438.4375
528.30034	26368.5375
532.35792	26303.5375
536.41261	26050.0375
540.46441	25839.5375
544.51333	25868.1375
548.55936	26013.7375
552.60252	26332.7375
556.64279	26769.0375
560.6802	27047.8375
564.71473	27202.9375
568.7464	27457.4375
572.7752	27879.6375
576.80114	28134.4375
580.82422	28354.8375
584.84444	28791.5375
588.86181	29401.6375
592.87633	29834.3375
596.888	29923.0375
600.89682	29662.5375
604.9028	30026.5375
608.90594	31871.2375
612.90624	33908.7375
616.90371	32542.2375
620.89834	28614.6375
624.89015	26851.1375
628.87913	26563.0375
632.86528	26712.8375
636.84862	26813.3375
640.82913	26602.1375
644.80683	26213.4375
648.78172	25942.6375
652.75379	25944.4375
656.72306	26159.9375
660.68952	26429.8375
664.65319	26410.0375
668.61405	26130.8375
672.57211	26063.3375
676.52738	26194.2375
680.47986	26233.4375
684.42955	26113.6375
688.37646	26005.4375
692.32058	26096.0375
696.26192	26306.1375
700.20048	26523.0375
704.13626	26661.7375
708.06928	26692.8375
711.99952	26608.3375
715.927	26609.2375
719.85171	26645.0375
723.77365	26556.1375
727.69284	26321.9375
731.60928	26144.7375
735.52295	26106.8375
739.43388	26102.8375
743.34206	26172.5375
747.24749	26229.5375
751.15017	26366.2375
755.05012	26621.1375
758.94733	27027.8375
762.8418	27957.7375
766.73354	29392.0375
770.62254	30841.7375
774.50882	31223.0375
778.39237	30419.7375
782.27321	28942.9375
786.15132	27537.5375
790.02671	26672.9375
793.89938	26261.2375
797.76935	26093.0375
801.6366	26081.7375
805.50115	26038.4375
809.36299	25941.8375
813.22213	25862.0375
817.07857	25851.2375
820.93231	25828.2375
824.78336	25813.5375
828.63172	25816.0375
832.47738	25856.6375
836.32036	25919.0375
840.16066	25946.8375
843.99827	25955.5375
847.8332	25862.6375
851.66546	25878.6375
855.49504	25888.2375
859.32195	25884.7375
863.1462	25859.6375
866.96777	25818.4375
870.78668	25834.9375
874.60293	25823.7375
878.41652	25836.5375
882.22745	25970.5375
886.03573	25984.2375
889.84136	25984.0375
893.64433	25940.1375
897.44466	25834.7375
901.24235	25830.1375
905.0374	25770.0375
908.8298	25729.8375
912.61957	25735.0375
916.40671	25908.0375
920.19121	26038.9375
923.97308	26176.4375
927.75233	26268.5375
931.52895	26274.2375
935.30295	26049.8375
939.07433	25740.4375
942.84309	25496.1375
946.60924	25384.6375
950.37278	25284.7375
954.13371	25272.3375
957.89203	25233.6375
961.64774	25180.6375
965.40086	25169.4375
969.15137	25114.5375
972.89929	25026.5375
976.64461	25054.8375
980.38733	25072.7375
984.12747	25170.9375
987.86502	25312.9375
991.59999	25448.2375
995.33237	25653.9375
999.06217	25997.5375
1002.78939	26332.4375
1006.51404	26643.7375
1010.23611	26924.6375
1013.95561	27088.8375
1017.67255	27050.0375
1021.38692	26866.9375
1025.09872	26694.8375
1028.80796	26598.1375
1032.51465	26780.3375
1036.21877	27049.5375
1039.92035	27155.7375
1043.61937	27211.3375
1047.31584	27084.0375
1051.00976	26974.4375
1054.70114	26899.9375
1058.38998	27007.6375
1062.07627	27244.9375
1065.76003	27622.0375
1069.44126	28108.4375
1073.11995	28575.9375
1076.79611	28922.3375
1080.46974	28797.1375
1084.14085	28543.5375
1087.80943	28461.8375
1091.47549	28381.5375
1095.13903	28269.2375
1098.80005	27995.3375
1102.45857	27613.3375
1106.11456	27283.7375
1109.76805	27130.2375
1113.41903	27174.9375
1117.06751	27292.8375
1120.71348	27471.6375
1124.35696	27734.5375
1127.99793	28070.8375
1131.63641	28205.9375
1135.2724	27991.3375
1138.90589	27747.1375
1142.5369	27661.8375
1146.16542	27629.5375
1149.79145	27611.2375
1153.415	27732.3375
1157.03607	27872.3375
1160.65467	28191.4375
1164.27079	28863.1375
1167.88443	29723.2375
1171.49561	30870.6375
1175.10432	32436.5375
1178.71056	34390.4375
1182.31434	36076.3375
1185.91565	36844.9375
1189.51451	36709.4375
1193.11091	36021.2375
1196.70485	34931.3375
1200.29634	33903.2375
1203.88538	33134.1375
1207.47197	32506.6375
1211.05612	31982.1375
1214.63782	31517.4375
1218.21708	31132.3375
1221.79391	30789.3375
1225.36829	30575.9375
1228.94024	30484.2375
1232.50976	30232.0375
1236.07685	30010.3375
1239.6415	29837.1375
1243.20374	29859.6375
1246.76355	30004.5375
1250.32093	30290.6375
1253.8759	30701.0375
1257.42845	31286.7375
1260.97859	31831.3375
1264.52631	32399.0375
1268.07163	32959.9375
1271.61453	33553.4375
1275.15503	34099.0375
1278.69312	34656.1375
1282.22882	35110.2375
1285.76211	35753.6375
1289.29301	36643.2375
1292.82151	37620.9375
1296.34761	38799.9375
1299.87133	40325.4375
1303.39266	41848.7375
1306.9116	43601.0375
1310.42815	45283.4375
1313.94233	46202.9375
1317.45412	46005.1375
1320.96354	45135.5375
1324.47058	44079.8375
1327.97525	43076.3375
1331.47754	42275.8375
1334.97747	41799.1375
1338.47502	41568.0375
1341.97022	41447.2375
1345.46305	41427.0375
1348.95352	41662.4375
1352.44163	42314.0375
1355.92738	43533.3375
1359.41078	45422.0375
1362.89183	47036.9375
1366.37053	46377.8375
1369.84688	43266.2375
1373.32088	39483.4375
1376.79254	36935.4375
1380.26186	35798.5375
1383.72883	35363.7375
1387.19347	35015.6375
1390.65578	34617.8375
1394.11575	34344.9375
1397.57339	34303.5375
1401.0287	34437.0375
1404.48168	34521.8375
1407.93234	34405.8375
1411.38068	34020.0375
1414.82669	33437.7375
1418.27039	32709.7375
1421.71177	32002.8375
1425.15083	31337.8375
1428.58758	31097.0375
1432.02203	31170.8375
1435.45416	31622.1375
1438.88399	31981.1375
1442.31151	32330.3375
1445.73673	32535.6375
1449.15965	32760.6375
1452.58027	32849.6375
1455.9986	32870.7375
1459.41463	33014.7375
1462.82837	33349.9375
1466.23982	33900.7375
1469.64898	34323.2375
1473.05586	34651.3375
1476.46045	34816.5375
1479.86276	34783.8375
1483.26279	34797.3375
1486.66054	34929.0375
1490.05602	35229.6375
1493.44922	35757.9375
1496.84016	36441.0375
1500.22882	37461.5375
1503.61521	38871.7375
1506.99934	40307.5375
1510.38121	41337.4375
1513.76081	41477.0375
1517.13816	40357.6375
1520.51324	38661.3375
1523.88607	37158.1375
1527.25665	36219.0375
1530.62498	35829.9375
1533.99105	35590.3375
1537.35488	35336.9375
1540.71647	34873.8375
1544.07581	34410.6375
1547.4329	33950.7375
1550.78776	33501.3375
1554.14038	33164.8375
1557.49077	33029.0375
1560.83892	32980.7375
1564.18484	33138.7375
1567.52853	33522.9375
1570.86999	34104.9375
1574.20922	34868.6375
1577.54624	35368.6375
1580.88103	35493.4375
1584.2136	35238.3375
1587.54395	35118.7375
1590.87208	35483.6375
1594.19801	36454.1375
1597.52172	37653.0375
1600.84321	38038.5375
1604.16251	37145.1375
1607.47959	35322.9375
1610.79447	33329.8375
1614.10715	31496.6375
1617.41763	30003.8375
1620.7259	29006.4375
1624.03199	28465.2375
1627.33587	28424.2375
1630.63757	28808.8375
1633.93707	29762.0375
1637.23439	31405.8375
1640.52951	33835.3375
1643.82246	36741.9375
1647.11321	39341.3375
1650.40179	40212.1375
1653.68819	38560.6375
1656.97241	35193.8375
1660.25446	31727.5375
1663.53433	29142.5375
1666.81203	27416.4375
1670.08756	26374.1375
1673.36092	25658.4375
1676.63211	25231.1375
1679.90115	24885.1375
1683.16801	24602.0375
1686.43272	24451.3375
1689.69527	24261.3375
1692.95567	24211.9375
1696.2139	24166.0375
1699.46999	24134.9375
1702.72392	24110.4375
1705.97571	24027.7375
1709.22535	24022.1375
1712.47284	24023.6375
1715.71819	23999.8375
1718.96139	23978.5375
1722.20246	23922.1375
1725.44139	23828.2375
1728.67818	23761.1375
1731.91284	23684.3375
1735.14537	23581.4375
1738.37576	23548.7375
1741.60403	23452.6375
1744.83017	23461.5375
1748.05418	23409.7375
1751.27607	23389.7375
1754.49584	23330.8375
1757.71349	23348.4375
1760.92903	23316.0375
1764.14244	23323.0375
1767.35375	23310.1375
1770.56294	23304.0375
1773.77002	23249.4375
1776.97499	23274.3375
1780.17785	23207.3375
1783.37861	23184.9375
1786.57727	23189.9375
1789.77382	23100.5375
1792.96828	23051.7375
1796.16064	23019.2375
1799.3509	22987.6375
1802.53907	22963.1375
1805.72514	22875.4375
1808.90913	22796.8375
1812.09102	22788.2375
1815.27083	22788.1375
1818.44856	22746.4375
1821.6242	22721.1375
1824.79776	22667.5375
1827.96924	22681.0375
1831.13864	22652.1375
1834.30597	22694.2375
1837.47122	22685.4375
1840.6344	22642.6375
1843.7955	22613.3375
1846.95454	22577.8375
1850.11151	22571.9375
1853.26642	22578.0375
1856.41926	22549.6375
1859.57004	22582.1375
1862.71876	22526.3375
1865.86542	22522.1375
1869.01003	22540.5375
1872.15258	22519.5375
1875.29308	22492.2375
1878.43152	22442.6375
1881.56792	22491.2375
1884.70227	22401.9375
1887.83457	22424.0375
1890.96482	22426.2375
1894.09304	22366.0375
1897.21921	22400.7375
1900.34335	22357.2375
1903.46544	22332.9375
1906.58551	22326.2375
1909.70353	22285.0375
1912.81953	22261.0375
1915.93349	22201.0375
1919.04543	22179.2375
1922.15534	22136.5375
1925.26322	22123.8375
1928.36908	22102.7375
1931.47292	22106.3375
1934.57473	22039.8375
1937.67453	21983.6375
1940.77232	21905.7375
1943.86808	21889.5375
1946.96184	21881.0375
1950.05358	21792.6375
1953.14331	21760.2375
1956.23103	21704.7375
1959.31675	21646.4375
1962.40046	21611.8375
1965.48217	21578.5375
1968.56188	21507.2375
1971.63959	21414.8375
1974.7153	21365.3375
1977.78901	21297.8375
1980.86073	21241.5375
1983.93046	21215.1375
1986.99819	21126.0375
1990.06394	21083.5375
1993.1277	21036.9375
1996.18947	20951.3375
1999.24925	20923.0375
2002.30706	20857.6375
2005.36288	20800.7375
2008.41672	20751.9375
2011.46859	20691.0375
2014.51848	20662.5375
2017.56639	20644.2375
2020.61233	20590.8375
2023.6563	20571.7375
2026.6983	20508.3375
2029.73833	20480.7375
2032.7764	20396.8375
2035.8125	20389.6375
2038.84664	20339.8375
2041.87881	20313.3375
2044.90903	20290.4375
2047.93729	20228.3375
2050.96359	20250.9375
2053.98794	20193.9375
2057.01034	20181.1375
2060.03078	20180.5375
2063.04927	20122.0375
2066.06582	20161.1375
2069.08042	20147.4375
2072.09307	20175.6375
2075.10378	20136.5375
2078.11255	20131.0375
2081.11938	20136.8375
2084.12426	20144.9375
2087.12722	20115.5375
2090.12824	20079.6375
2093.12732	20110.6375
2096.12447	20106.8375
2099.11969	20118.7375
2102.11299	20122.0375
2105.10435	20130.3375
2108.09379	20164.2375
2111.08131	20186.8375
2114.0669	20130.1375
2117.05057	20157.4375
2120.03233	20212.2375
2123.01216	20247.6375
2125.99008	20281.2375
2128.96609	20268.8375
2131.94018	20303.8375
2134.91236	20285.7375
2137.88263	20319.1375
2140.851	20333.7375
2143.81746	20349.5375
2146.78201	20358.9375
2149.74466	20377.0375
2152.7054	20392.0375
2155.66425	20395.2375
2158.6212	20455.3375
2161.57625	20430.1375
2164.52941	20381.1375
2167.48067	20395.1375
2170.43004	20370.6375
2173.37752	20392.1375
2176.32311	20382.9375
2179.26681	20395.0375
2182.20863	20419.2375
2185.14856	20423.2375
2188.08661	20337.9375
2191.02278	20356.1375
2193.95707	20313.5375
2196.88948	20333.6375
2199.82001	20320.0375
2202.74867	20334.5375
2205.67545	20332.3375
2208.60037	20331.4375
2211.52341	20340.5375
2214.44458	20236.1375
2217.36388	20201.9375
2220.28132	20183.8375
2223.1969	20157.5375
2226.11061	20106.4375
2229.02246	20111.3375
2231.93245	20078.5375
2234.84058	20041.3375
2237.74686	20030.6375
2240.65128	19973.6375
2243.55385	19944.3375
2246.45456	19948.8375
2249.35343	19897.1375
2252.25044	19909.1375
2255.14561	19845.8375
2258.03893	19848.1375
2260.93041	19831.5375
2263.82004	19799.1375
2266.70783	19786.6375
2269.59378	19725.7375
2272.4779	19689.5375
2275.36017	19627.4375
2278.24061	19602.3375
2281.11922	19549.0375
2283.996	19530.0375
2286.87094	19504.7375
2289.74405	19473.3375
2292.61534	19456.8375
2295.4848	19432.6375
2298.35243	19475.9375
2301.21824	19437.0375
2304.08223	19351.6375
2306.94439	19378.3375
2309.80474	19370.7375
2312.66327	19392.8375
2315.51999	19388.1375
2318.37489	19369.1375
2321.22797	19347.7375
2324.07925	19362.8375
2326.92871	19341.6375
2329.77637	19331.4375
2332.62222	19277.2375
2335.46626	19236.4375
2338.3085	19216.6375
2341.14893	19215.2375
2343.98756	19198.4375
2346.8244	19178.5375
2349.65943	19179.2375
2352.49267	19163.8375
2355.32411	19140.3375
2358.15376	19127.1375
2360.98161	19130.7375
2363.80768	19124.5375
2366.63195	19090.3375
2369.45444	19099.9375
2372.27514	19041.8375
2375.09405	19062.8375
2377.91118	19043.0375
2380.72652	18967.2375
2383.54009	18943.8375
2386.35187	18953.6375
2389.16188	18879.1375
2391.97011	18876.5375
2394.77657	18842.0375
2397.58125	18815.9375
2400.38416	18791.3375
2403.18529	18731.6375
2405.98466	18745.3375
2408.78226	18708.4375
2411.57809	18707.8375
2414.37216	18695.2375
2417.16446	18637.1375
2419.955	18616.2375
2422.74378	18585.2375
2425.5308	18585.5375
2428.31606	18557.7375
2431.09956	18581.5375
2433.88131	18554.3375
2436.6613	18558.7375
2439.43954	18521.5375
2442.21603	18478.9375
2444.99077	18500.1375
2447.76377	18515.4375
2450.53501	18466.2375
2453.30451	18441.9375
2456.07226	18433.1375
2458.83827	18411.4375
2461.60254	18403.8375
2464.36507	18429.0375
2467.12586	18403.3375
2469.88492	18370.5375
2472.64224	18347.0375
2475.39782	18351.5375
2478.15167	18340.1375
2480.90379	18364.7375
2483.65417	18359.6375
2486.40283	18347.7375
2489.14976	18370.2375
2491.89497	18371.6375
2494.63845	18360.9375
2497.3802	18319.2375
2500.12024	18273.1375
2502.85855	18288.4375
2505.59514	18306.0375
2508.33002	18274.8375
2511.06318	18250.8375
2513.79462	18216.6375
2516.52435	18227.7375
2519.25237	18180.8375
2521.97867	18188.8375
2524.70327	18182.8375
2527.42616	18090.4375
2530.14734	18087.6375
2532.86681	18081.5375
2535.58458	18108.9375
2538.30065	18076.7375
2541.01501	18047.8375
2543.72768	18013.3375
2546.43864	17993.9375
2549.14791	17989.6375
2551.85548	17958.5375
2554.56136	17905.5375
2557.26554	17885.6375
2559.96803	17903.5375
2562.66883	17868.4375
2565.36794	17819.3375
2568.06536	17858.3375
2570.7611	17826.6375
2573.45514	17828.6375
2576.14751	17788.3375
2578.83819	17734.6375
2581.52719	17733.1375
2584.21451	17693.7375
2586.90015	17717.8375
2589.58411	17672.2375
2592.2664	17648.1375
2594.94701	17577.3375
2597.62594	17592.2375
2600.30321	17523.0375
2602.9788	17542.4375
2605.65273	17486.6375
2608.32498	17463.4375
2610.99557	17466.3375
2613.66449	17446.7375
2616.33175	17375.5375
2618.99734	17427.9375
2621.66128	17378.7375
2624.32355	17399.8375
2626.98416	17363.9375
2629.64311	17365.0375
2632.30041	17352.7375
2634.95605	17348.9375
2637.61004	17313.9375
2640.26238	17273.5375
2642.91306	17306.4375
2645.56209	17246.7375
2648.20948	17213.9375
2650.85521	17224.2375
2653.4993	17247.2375
2656.14175	17267.8375
2658.78255	17251.1375
2661.42171	17227.2375
2664.05923	17237.0375
2666.6951	17206.6375
2669.32934	17253.8375
2671.96194	17238.1375
2674.59291	17237.7375
2677.22224	17239.9375
2679.84993	17236.4375
2682.476	17233.4375
2685.10043	17214.9375
2687.72324	17177.6375
2690.34441	17206.4375
2692.96396	17180.3375
2695.58188	17211.7375
2698.19818	17212.4375
2700.81285	17193.8375
2703.4259	17213.7375
2706.03733	17309.2375
2708.64714	17246.5375
2711.25533	17283.8375
2713.86191	17260.6375
2716.46687	17284.6375
2719.07021	17263.8375
2721.67194	17245.3375
2724.27206	17248.7375
2726.87057	17260.5375
2729.46747	17255.2375
2732.06276	17214.9375
2734.65644	17213.8375
2737.24852	17197.5375
2739.83899	17152.2375
2742.42786	17197.0375
2745.01513	17152.8375
2747.60079	17138.0375
2750.18486	17143.6375
2752.76733	17123.9375
2755.3482	17117.7375
2757.92747	17129.2375
2760.50515	17088.8375
2763.08123	17059.4375
2765.65573	17073.6375
2768.22863	17056.1375
2770.79994	17035.5375
2773.36967	17060.1375
2775.9378	17011.5375
2778.50435	16998.4375
2781.06932	16956.8375
2783.6327	16952.5375
2786.1945	16913.2375
2788.75471	16898.3375
2791.31335	16874.8375
2793.87041	16847.4375
2796.42589	16790.7375
2798.97979	16790.8375
2801.53212	16730.6375
2804.08288	16700.4375
2806.63206	16638.0375
2809.17967	16655.1375
2811.72571	16580.1375
2814.27018	16602.1375
2816.81308	16559.7375
2819.35442	16533.3375
2821.89419	16518.2375
2824.43239	16509.8375
2826.96904	16478.0375
2829.50412	16497.2375
2832.03763	16465.8375
2834.56959	16494.4375
2837.1	16434.0375
2839.62884	16436.1375
2842.15613	16436.2375
2844.68186	16476.5375
2847.20604	16459.5375
2849.72867	16463.4375
2852.24974	16451.3375
2854.76927	16418.0375
2857.28724	16400.1375
2859.80367	16418.6375
2862.31855	16372.4375
2864.83189	16353.6375
2867.34368	16341.9375
2869.85393	16332.9375
2872.36264	16313.8375
2874.8698	16306.5375
2877.37543	16326.6375
2879.87952	16299.7375
2882.38207	16339.0375
2884.88308	16326.0375
2887.38256	16318.2375
2889.88051	16313.3375
2892.37692	16296.1375
2894.8718	16282.5375
2897.36515	16303.1375
2899.85698	16301.5375
2902.34727	16313.9375
2904.83604	16338.9375
2907.32328	16380.2375
2909.809	16348.0375
2912.29319	16354.0375
2914.77587	16366.5375
2917.25702	16314.5375
2919.73665	16342.1375
2922.21476	16352.4375
2924.69136	16334.2375
2927.16644	16330.6375
2929.64	16290.3375
2932.11205	16281.0375
2934.58258	16254.2375
2937.05161	16304.4375
2939.51912	16322.6375
2941.98513	16289.6375
2944.44962	16262.9375
2946.91261	16188.8375
2949.37409	16186.0375
2951.83407	16177.9375
2954.29254	16174.8375
2956.74951	16111.3375
2959.20498	16108.3375
2961.65895	16096.0375
2964.11142	16114.0375
2966.56239	16056.9375
2969.01186	16069.5375
2971.45984	16012.1375
2973.90632	16003.3375
2976.35131	15956.7375
2978.7948	15941.1375
2981.23681	15929.2375
2983.67732	15891.3375
2986.11635	15875.8375
2988.55388	15845.9375
2990.98993	15792.9375
2993.4245	15789.6375
2995.85758	15744.3375
2998.28917	15672.9375
3000.71928	15689.2375
3003.14791	15673.6375
3005.57506	15662.1375
3008.00073	15615.7375
3010.42493	15611.0375
3012.84764	15577.8375
3015.26888	15541.7375
3017.68865	15552.8375
3020.10694	15563.5375
3022.52376	15494.7375
3024.9391	15498.3375
3027.35298	15475.1375
3029.76539	15480.8375
3032.17632	15467.6375
3034.5858	15442.3375
3036.9938	15426.8375
3039.40034	15411.8375
3041.80542	15384.9375
3044.20903	15337.1375
3046.61118	15368.5375
3049.01187	15298.2375
3051.4111	15308.2375
3053.80888	15265.0375
3056.20519	15238.9375
3058.60005	15219.6375
3060.99345	15186.0375
3063.3854	15182.9375
3065.7759	15157.2375
3068.16494	15153.0375
3070.55254	15110.8375
3072.93868	15100.3375
3075.32338	15054.5375
3077.70662	15033.4375
3080.08842	14977.3375
3082.46878	14992.7375
3084.84769	14979.7375
3087.22515	14956.2375
3089.60118	14978.7375
3091.97576	14999.7375
3094.3489	14997.5375
3096.72061	14969.7375
3099.09087	14987.7375
3101.4597	14969.4375
3103.82709	14943.4375
3106.19305	14916.3375
3108.55757	14924.5375
3110.92066	14874.3375
3113.28232	14846.3375
3115.64255	14816.0375
3118.00134	14814.1375
3120.35871	14811.2375
3122.71466	14804.6375
3125.06917	14747.6375
3127.42226	14735.8375
3129.77393	14759.4375
3132.12417	14710.7375
3134.47299	14726.4375
3136.82039	14765.3375
3139.16636	14747.3375
3141.51092	14739.4375
3143.85406	14750.4375
3146.19579	14751.5375
3148.53609	14734.8375
3150.87499	14744.4375
3153.21246	14759.0375
3155.54853	14797.8375
3157.88318	14755.7375
3160.21642	14764.8375
3162.54826	14738.2375
3164.87868	14741.4375
3167.2077	14734.0375
3169.5353	14746.0375
3171.86151	14720.4375
3174.18631	14739.0375
3176.5097	14746.6375
3178.83169	14697.1375
3181.15228	14689.6375
3183.47147	14671.1375
3185.78926	14709.3375
3188.10565	14631.7375
3190.42065	14661.2375
3192.73424	14656.3375
3195.04645	14652.4375
3197.35725	14648.4375
3199.66667	14645.5375
3201.97469	14650.9375
3204.28132	14662.0375
3206.58656	14668.1375
3208.8904	14648.4375
3211.19287	14662.2375
3213.49394	14638.1375
3215.79363	14622.5375
3218.09193	14656.3375
3220.38884	14625.8375
3222.68438	14685.2375
3224.97853	14639.1375
3227.2713	14634.7375
3229.56269	14582.2375
3231.8527	14577.5375
3234.14133	14553.5375
3236.42858	14543.3375
3238.71446	14526.8375
3240.99896	14498.2375
3243.28209	14521.2375
3245.56384	14507.1375
3247.84423	14512.0375
3250.12324	14476.6375
3252.40088	14475.3375
3254.67715	14457.7375
3256.95205	14439.2375
3259.22558	14443.2375
3261.49775	14437.4375
3263.76855	14445.4375
3266.03799	14421.1375
3268.30606	14375.4375
3270.57277	14346.6375
3272.83812	14312.4375
3275.10211	14276.4375
3277.36474	14239.4375
3279.62601	14273.0375
3281.88593	14268.7375
3284.14448	14281.9375
3286.40168	14249.5375
3288.65753	14234.4375
3290.91202	14210.3375
3293.16516	14165.3375
3295.41695	14121.6375
3297.66738	14082.3375
3299.91647	14019.0375
3302.16421	13948.5375
3304.4106	13883.8375
3306.65564	13819.4375
3308.89933	13738.0375
3311.14169	13667.8375
3313.38269	13553.8375
3315.62236	13474.5375
3317.86068	13350.5375
3320.09766	13231.2375
3322.3333	13133.7375
3324.5676	13134.1375
3326.80056	12917.2375
3329.03219	12851.5375
3331.26248	3.8375
3333.49143	0.0375
3335.71905	-1.0625
