Data from AgNP_FTO_APTES_CRN_20uM_R6G_10uM_NaF_0.1M_Addition_RamanShift__20__17-23-48-029.txt Node

Date: Wed Dec 15 17:23:48 GMT 2021
User: TCL
Spectrometer: QEP01345
Trigger mode: 4
Integration Time (sec): 7.000000E0
Scans to average: 10
Electric dark correction enabled: true
Nonlinearity correction enabled: false
Boxcar width: 0
XAxis mode: Raman Shifts
Number of Pixels in Spectrum: 1044
>>>>>Begin Spectral Data<<<<<
46.04893	1.8
50.45542	-2.4
54.85868	-0.7
59.25871	-1.2
63.6555	59.4
68.04907	61.2
72.43941	67
76.82654	73.6
81.21044	72.9
85.59113	80.3
89.96862	79.3
94.34289	80.7
98.71396	85.8
103.08183	91.1
107.4465	93.5
111.80798	93.6
116.16626	96.2
120.52136	99.9
124.87327	97.7
129.222	101.9
133.56755	106.1
137.90993	113.5
142.24913	123.9
146.58517	133.2
150.91804	153.9
155.24774	175.5
159.57429	215.5
163.89768	265.1
168.21792	349.9
172.53501	475.2
176.84895	655.8
181.15975	906.4
185.46741	1263.8
189.77193	1749.9
194.07331	2337.5
198.37157	2994.3
202.6667	3717.3
206.9587	4408.9
211.24758	5099.9
215.53334	5773
219.81599	6506.9
224.09553	7308.3
228.37195	8171.8
232.64527	9156.5
236.91549	10192.6
241.18261	11252.2
245.44663	12234
249.70755	13123.9
253.96539	13923.7
258.22014	14573.6
262.4718	15149.6
266.72039	15532.4
270.96589	15746.6
275.20832	15759.2
279.44768	15659.5
283.68397	15542.9
287.91719	15411
292.14735	15300.3
296.37445	15305.2
300.59849	15294.9
304.81948	15327.5
309.03742	15294.7
313.25231	15123.1
317.46415	14845.2
321.67296	14479.1
325.87872	14194.5
330.08145	14010.8
334.28114	14051.1
338.47781	14153.8
342.67145	14337.4
346.86207	14523.9
351.04966	14813
355.23424	15105.9
359.4158	15363.7
363.59435	15546.1
367.76989	15645.1
371.94243	15756.4
376.11196	15817.9
380.27849	15892.1
384.44203	15936.2
388.60257	16021.7
392.76012	16226.4
396.91468	16368.3
401.06626	16615
405.21485	16774.1
409.36047	16788.5
413.50311	16557.9
417.64277	16331.8
421.77947	16287.1
425.9132	16313
430.04396	16403.3
434.17176	16485.9
438.2966	16625.6
442.41849	16865.8
446.53742	17214.4
450.6534	17663.7
454.76644	18037.5
458.87653	18229.8
462.98368	18173.2
467.08789	17985.4
471.18916	17764
475.2875	17588.9
479.38291	17482.5
483.4754	17390.5
487.56496	17155.6
491.6516	16931.9
495.73531	16732.2
499.81612	16664.6
503.89401	16749.9
507.96899	16800.9
512.04106	16812.2
516.11023	16782.6
520.1765	16702.9
524.23987	16614.1
528.30034	16575.5
532.35792	16445.6
536.41261	16233.6
540.46441	16075.2
544.51333	16025.6
548.55936	16157.3
552.60252	16432.9
556.64279	16745.9
560.6802	16922.3
564.71473	17016.4
568.7464	17146.3
572.7752	17425.1
576.80114	17658.1
580.82422	17926.1
584.84444	18191.7
588.86181	18480.1
592.87633	18801
596.888	19068.3
600.89682	19196.7
604.9028	19673.1
608.90594	20863.3
612.90624	22030.3
616.90371	20856.7
620.89834	17999.1
624.89015	16785.9
628.87913	16734.9
632.86528	16765.3
636.84862	16732.9
640.82913	16535.5
644.80683	16131.9
648.78172	15851.2
652.75379	15780.3
656.72306	15880.8
660.68952	16086.6
664.65319	16058.1
668.61405	15799.7
672.57211	15717.8
676.52738	15737.5
680.47986	15729.5
684.42955	15649.3
688.37646	15620
692.32058	15694.5
696.26192	15796.4
700.20048	16006.2
704.13626	16112.5
708.06928	16129.8
711.99952	16011.4
715.927	15990.9
719.85171	16020.5
723.77365	15996.2
727.69284	15811.6
731.60928	15712.4
735.52295	15666.2
739.43388	15629.2
743.34206	15670.6
747.24749	15733.6
751.15017	15827.5
755.05012	16064.2
758.94733	16440
762.8418	17149.1
766.73354	18257.6
770.62254	19305.6
774.50882	19549.4
778.39237	18768.2
782.27321	17519.1
786.15132	16572.3
790.02671	15930.2
793.89938	15701.9
797.76935	15613.1
801.6366	15565.5
805.50115	15558.3
809.36299	15494.6
813.22213	15391.4
817.07857	15347.8
820.93231	15289.2
824.78336	15274.9
828.63172	15269.8
832.47738	15284.1
836.32036	15351.5
840.16066	15394.2
843.99827	15460.3
847.8332	15386.9
851.66546	15298.5
855.49504	15278.4
859.32195	15221.6
863.1462	15236.7
866.96777	15182.7
870.78668	15135.6
874.60293	15111.4
878.41652	15126.2
882.22745	15183
886.03573	15163.1
889.84136	15170.1
893.64433	15129.8
897.44466	15047.9
901.24235	14983.2
905.0374	14956.1
908.8298	14982
912.61957	15031.9
916.40671	15129.7
920.19121	15305.1
923.97308	15458
927.75233	15509.9
931.52895	15480.6
935.30295	15292
939.07433	15090.1
942.84309	14845.5
946.60924	14796.1
950.37278	14750.6
954.13371	14697.6
957.89203	14642.1
961.64774	14614.8
965.40086	14576.7
969.15137	14525.9
972.89929	14476.3
976.64461	14415.8
980.38733	14453.3
984.12747	14522.8
987.86502	14673.6
991.59999	14831.4
995.33237	15068.5
999.06217	15456.2
1002.78939	15874.4
1006.51404	16139.7
1010.23611	16294.5
1013.95561	16407
1017.67255	16373.9
1021.38692	16180.6
1025.09872	16035
1028.80796	16147.5
1032.51465	16571.9
1036.21877	16990.4
1039.92035	17043
1043.61937	16848.4
1047.31584	16529.8
1051.00976	16199.8
1054.70114	16083.7
1058.38998	16145.3
1062.07627	16314.6
1065.76003	16559
1069.44126	16866.5
1073.11995	17264.5
1076.79611	17527.4
1080.46974	17613
1084.14085	17475.5
1087.80943	17320.7
1091.47549	17181.7
1095.13903	17050.9
1098.80005	16794.6
1102.45857	16459.9
1106.11456	16209.1
1109.76805	16132
1113.41903	16180.8
1117.06751	16238.1
1120.71348	16358.3
1124.35696	16517.5
1127.99793	16674.4
1131.63641	16787.2
1135.2724	16716.3
1138.90589	16587.9
1142.5369	16540
1146.16542	16509.2
1149.79145	16518.7
1153.415	16629.3
1157.03607	16865.3
1160.65467	17177.3
1164.27079	17765
1167.88443	18582.3
1171.49561	19631.8
1175.10432	20992.3
1178.71056	22615
1182.31434	24128.8
1185.91565	24785
1189.51451	24538.5
1193.11091	23687.7
1196.70485	22654.7
1200.29634	21706.1
1203.88538	21109.5
1207.47197	20678.2
1211.05612	20374.4
1214.63782	20104.6
1218.21708	19895.7
1221.79391	19717.5
1225.36829	19545.7
1228.94024	19405.8
1232.50976	19107.5
1236.07685	18830.6
1239.6415	18715.6
1243.20374	18755.9
1246.76355	18821.1
1250.32093	19137.3
1253.8759	19464.9
1257.42845	19934.2
1260.97859	20422.9
1264.52631	20781.8
1268.07163	21288.1
1271.61453	21845.4
1275.15503	22471.2
1278.69312	23131.3
1282.22882	23657.8
1285.76211	24195.6
1289.29301	24708.6
1292.82151	25437.7
1296.34761	26430.2
1299.87133	27717.4
1303.39266	29268.3
1306.9116	30957.4
1310.42815	32543.3
1313.94233	33578.9
1317.45412	33631.8
1320.96354	33094.6
1324.47058	32453.2
1327.97525	31732.7
1331.47754	31202.4
1334.97747	30885.6
1338.47502	30676.2
1341.97022	30577.6
1345.46305	30204.7
1348.95352	29737.4
1352.44163	29605.3
1355.92738	30079.9
1359.41078	31335.8
1362.89183	32586.6
1366.37053	32154.6
1369.84688	29922.2
1373.32088	27071.4
1376.79254	25114.7
1380.26186	24268.8
1383.72883	24030
1387.19347	23931.2
1390.65578	23700.4
1394.11575	23574.1
1397.57339	23773.8
1401.0287	24231.1
1404.48168	24636.8
1407.93234	24726.9
1411.38068	24435.8
1414.82669	23778.2
1418.27039	22858.9
1421.71177	21954.4
1425.15083	21232.8
1428.58758	20787
1432.02203	20775.8
1435.45416	21160
1438.88399	21687.7
1442.31151	22192.3
1445.73673	22588.7
1449.15965	22886.6
1452.58027	23138.5
1455.9986	23215.3
1459.41463	23421.8
1462.82837	23875.9
1466.23982	24379.9
1469.64898	24882.1
1473.05586	25152.4
1476.46045	25171.7
1479.86276	25099.3
1483.26279	24771.1
1486.66054	24533
1490.05602	24420.2
1493.44922	24483.3
1496.84016	24619.8
1500.22882	24947.9
1503.61521	25583.5
1506.99934	26380.4
1510.38121	27051
1513.76081	27276.4
1517.13816	26747.9
1520.51324	25768.3
1523.88607	24902.9
1527.25665	24364.3
1530.62498	24094.8
1533.99105	24006
1537.35488	23893.3
1540.71647	23659.4
1544.07581	23331.7
1547.4329	22973.1
1550.78776	22627.4
1554.14038	22411.4
1557.49077	22288.4
1560.83892	22191
1564.18484	22260.8
1567.52853	22421.9
1570.86999	22784
1574.20922	23297.3
1577.54624	23854.8
1580.88103	24244.6
1584.2136	24402.9
1587.54395	24603.2
1590.87208	25076.9
1594.19801	26048.2
1597.52172	27217.3
1600.84321	27666
1604.16251	26657.2
1607.47959	24812.2
1610.79447	22878.3
1614.10715	21124
1617.41763	19692.6
1620.7259	18742.9
1624.03199	18237.5
1627.33587	18237.6
1630.63757	18663.9
1633.93707	19546.8
1637.23439	21088.6
1640.52951	23271.5
1643.82246	25742.7
1647.11321	27708.3
1650.40179	28073.4
1653.68819	26482.2
1656.97241	23543.9
1660.25446	20606.2
1663.53433	18357.3
1666.81203	16910.1
1670.08756	15966.4
1673.36092	15360.8
1676.63211	14979
1679.90115	14657.8
1683.16801	14450.4
1686.43272	14331.5
1689.69527	14203.7
1692.95567	14097.7
1696.2139	14094
1699.46999	14067.6
1702.72392	14018.1
1705.97571	13982
1709.22535	13933.8
1712.47284	13913.7
1715.71819	13886.3
1718.96139	13824.7
1722.20246	13803.7
1725.44139	13754.9
1728.67818	13707.2
1731.91284	13600.2
1735.14537	13557.5
1738.37576	13489.5
1741.60403	13459.8
1744.83017	13433.5
1748.05418	13402.6
1751.27607	13407.4
1754.49584	13380.6
1757.71349	13374.1
1760.92903	13359.7
1764.14244	13349.6
1767.35375	13341.6
1770.56294	13334.7
1773.77002	13310.4
1776.97499	13308.4
1780.17785	13266.6
1783.37861	13252.3
1786.57727	13191.2
1789.77382	13174
1792.96828	13172.8
1796.16064	13142.9
1799.3509	13105.9
1802.53907	13087.4
1805.72514	13076.9
1808.90913	13022.5
1812.09102	12988.4
1815.27083	12964.6
1818.44856	12968.3
1821.6242	12947.1
1824.79776	12926.6
1827.96924	12911.2
1831.13864	12924
1834.30597	12939.7
1837.47122	12917.2
1840.6344	12903
1843.7955	12909.6
1846.95454	12893
1850.11151	12887.8
1853.26642	12892.4
1856.41926	12891.2
1859.57004	12881.3
1862.71876	12854.7
1865.86542	12855.7
1869.01003	12853.1
1872.15258	12833.7
1875.29308	12844.2
1878.43152	12797.2
1881.56792	12809.4
1884.70227	12787.4
1887.83457	12791.3
1890.96482	12777.1
1894.09304	12750.6
1897.21921	12745
1900.34335	12752.3
1903.46544	12763.2
1906.58551	12741.9
1909.70353	12707.9
1912.81953	12712.7
1915.93349	12694.3
1919.04543	12658.8
1922.15534	12653.3
1925.26322	12641.3
1928.36908	12611.1
1931.47292	12598.6
1934.57473	12575.2
1937.67453	12529.8
1940.77232	12483.4
1943.86808	12449.7
1946.96184	12429.8
1950.05358	12387.4
1953.14331	12354.6
1956.23103	12360.3
1959.31675	12312.3
1962.40046	12283.6
1965.48217	12261.8
1968.56188	12219.4
1971.63959	12173.7
1974.7153	12123.1
1977.78901	12072.8
1980.86073	12062.8
1983.93046	12029
1986.99819	11997.9
1990.06394	11976.8
1993.1277	11921.7
1996.18947	11897.7
1999.24925	11848.3
2002.30706	11812.5
2005.36288	11780.7
2008.41672	11810.1
2011.46859	11744.7
2014.51848	11699.8
2017.56639	11687.9
2020.61233	11647.7
2023.6563	11630.4
2026.6983	11617
2029.73833	11600.3
2032.7764	11573.7
2035.8125	11566
2038.84664	11531.4
2041.87881	11538.4
2044.90903	11520.1
2047.93729	11495.9
2050.96359	11466.3
2053.98794	11491.9
2057.01034	11490.7
2060.03078	11458.7
2063.04927	11441.3
2066.06582	11429
2069.08042	11423.8
2072.09307	11407.4
2075.10378	11397.4
2078.11255	11390
2081.11938	11382.2
2084.12426	11417.5
2087.12722	11394.2
2090.12824	11408
2093.12732	11406.4
2096.12447	11375.4
2099.11969	11414.3
2102.11299	11399.9
2105.10435	11409
2108.09379	11434.8
2111.08131	11443
2114.0669	11448
2117.05057	11425.7
2120.03233	11437.7
2123.01216	11460.2
2125.99008	11433.8
2128.96609	11474.7
2131.94018	11490.9
2134.91236	11498.2
2137.88263	11526.4
2140.851	11518.2
2143.81746	11506
2146.78201	11526.5
2149.74466	11546.8
2152.7054	11539.7
2155.66425	11558.8
2158.6212	11552.6
2161.57625	11545.2
2164.52941	11538.9
2167.48067	11542
2170.43004	11502
2173.37752	11518.4
2176.32311	11519.2
2179.26681	11537.3
2182.20863	11518.7
2185.14856	11520.7
2188.08661	11528.8
2191.02278	11528.5
2193.95707	11526.5
2196.88948	11520.9
2199.82001	11505.6
2202.74867	11495.1
2205.67545	11503
2208.60037	11507.9
2211.52341	11493.9
2214.44458	11503.2
2217.36388	11474.3
2220.28132	11485.6
2223.1969	11445.4
2226.11061	11444.5
2229.02246	11445.7
2231.93245	11410.1
2234.84058	11371.8
2237.74686	11349.6
2240.65128	11363.6
2243.55385	11329.6
2246.45456	11278.8
2249.35343	11261.7
2252.25044	11259
2255.14561	11262.9
2258.03893	11230.6
2260.93041	11244.7
2263.82004	11215.8
2266.70783	11193.1
2269.59378	11160.9
2272.4779	11151.7
2275.36017	11103.4
2278.24061	11063
2281.11922	11043.6
2283.996	11056.3
2286.87094	11063.2
2289.74405	11024.3
2292.61534	11004.2
2295.4848	11016.6
2298.35243	11017.1
2301.21824	11025.5
2304.08223	10992.3
2306.94439	11005
2309.80474	11007.4
2312.66327	11024.3
2315.51999	11018.7
2318.37489	11004.1
2321.22797	11021
2324.07925	10980.1
2326.92871	10989.8
2329.77637	10986.3
2332.62222	10994
2335.46626	10957.2
2338.3085	10956.9
2341.14893	10974.3
2343.98756	10964.7
2346.8244	10949.4
2349.65943	10992.9
2352.49267	10966.3
2355.32411	10970.7
2358.15376	10949.3
2360.98161	10924.1
2363.80768	10933.8
2366.63195	10923.7
2369.45444	10902
2372.27514	10867.3
2375.09405	10884.2
2377.91118	10833.7
2380.72652	10817
2383.54009	10794.5
2386.35187	10795.1
2389.16188	10780.9
2391.97011	10760.9
2394.77657	10741.9
2397.58125	10728.8
2400.38416	10739.8
2403.18529	10715.7
2405.98466	10683.9
2408.78226	10680.2
2411.57809	10662.8
2414.37216	10629.8
2417.16446	10638.8
2419.955	10619.8
2422.74378	10606.9
2425.5308	10559.9
2428.31606	10578.3
2431.09956	10589
2433.88131	10561.8
2436.6613	10556.3
2439.43954	10543
2442.21603	10557.8
2444.99077	10539.3
2447.76377	10557.1
2450.53501	10556.6
2453.30451	10546.6
2456.07226	10516.6
2458.83827	10508
2461.60254	10506.2
2464.36507	10509.7
2467.12586	10520.6
2469.88492	10528
2472.64224	10515.6
2475.39782	10531.9
2478.15167	10557.7
2480.90379	10551.4
2483.65417	10524.3
2486.40283	10570.9
2489.14976	10535.9
2491.89497	10552.3
2494.63845	10581.5
2497.3802	10570
2500.12024	10552.2
2502.85855	10550.1
2505.59514	10552.9
2508.33002	10524.1
2511.06318	10489.1
2513.79462	10491.8
2516.52435	10525.7
2519.25237	10486.8
2521.97867	10479
2524.70327	10495
2527.42616	10475.6
2530.14734	10471.9
2532.86681	10442.8
2535.58458	10459.5
2538.30065	10444.4
2541.01501	10435.9
2543.72768	10433.7
2546.43864	10440.5
2549.14791	10410.2
2551.85548	10403
2554.56136	10397.1
2557.26554	10379.8
2559.96803	10377.6
2562.66883	10369.9
2565.36794	10348.3
2568.06536	10376.4
2570.7611	10342.2
2573.45514	10353.7
2576.14751	10333.1
2578.83819	10342.3
2581.52719	10329.3
2584.21451	10346.3
2586.90015	10331.6
2589.58411	10296.7
2592.2664	10302.9
2594.94701	10277
2597.62594	10269.6
2600.30321	10282.5
2602.9788	10259.5
2605.65273	10250.1
2608.32498	10253.6
2610.99557	10215.1
2613.66449	10234.1
2616.33175	10213.3
2618.99734	10246
2621.66128	10230.7
2624.32355	10218.5
2626.98416	10217.5
2629.64311	10223.9
2632.30041	10235.7
2634.95605	10238.4
2637.61004	10191.6
2640.26238	10210
2642.91306	10217.2
2645.56209	10199
2648.20948	10206.2
2650.85521	10189.5
2653.4993	10174.8
2656.14175	10175.4
2658.78255	10190.6
2661.42171	10182.4
2664.05923	10199.3
2666.6951	10188.1
2669.32934	10203.6
2671.96194	10208.3
2674.59291	10191.6
2677.22224	10178.6
2679.84993	10183.3
2682.476	10183.1
2685.10043	10156.5
2687.72324	10180
2690.34441	10191.4
2692.96396	10180.2
2695.58188	10190.8
2698.19818	10171.3
2700.81285	10180
2703.4259	10162.1
2706.03733	10243.6
2708.64714	10200.5
2711.25533	10231.7
2713.86191	10209.6
2716.46687	10219.2
2719.07021	10212.4
2721.67194	10206.4
2724.27206	10213.6
2726.87057	10227
2729.46747	10202.6
2732.06276	10227.5
2734.65644	10206.6
2737.24852	10231.2
2739.83899	10221.3
2742.42786	10215.4
2745.01513	10185.1
2747.60079	10181.6
2750.18486	10168.9
2752.76733	10188.4
2755.3482	10181.5
2757.92747	10181.6
2760.50515	10174.2
2763.08123	10189.7
2765.65573	10149.3
2768.22863	10175.8
2770.79994	10166.3
2773.36967	10181
2775.9378	10170.1
2778.50435	10153.8
2781.06932	10128.1
2783.6327	10122.7
2786.1945	10142.4
2788.75471	10127.9
2791.31335	10114.1
2793.87041	10073.1
2796.42589	10093.5
2798.97979	10097.9
2801.53212	10063.5
2804.08288	10090.6
2806.63206	10030.9
2809.17967	10012.7
2811.72571	9942
2814.27018	9962.5
2816.81308	9979.9
2819.35442	9954.4
2821.89419	9928
2824.43239	9945.3
2826.96904	9932.5
2829.50412	9925.5
2832.03763	9889.2
2834.56959	9894.7
2837.1	9885
2839.62884	9894.1
2842.15613	9872.2
2844.68186	9888.4
2847.20604	9882.5
2849.72867	9888.3
2852.24974	9855.5
2854.76927	9880.7
2857.28724	9874
2859.80367	9854.4
2862.31855	9861.8
2864.83189	9840.4
2867.34368	9792.8
2869.85393	9820.2
2872.36264	9834.7
2874.8698	9835.3
2877.37543	9829.6
2879.87952	9832.1
2882.38207	9849.6
2884.88308	9827.7
2887.38256	9827.8
2889.88051	9866.3
2892.37692	9871.3
2894.8718	9853.6
2897.36515	9879.7
2899.85698	9866.5
2902.34727	9870.6
2904.83604	9868.8
2907.32328	9909.9
2909.809	9899
2912.29319	9910.8
2914.77587	9897
2917.25702	9894.9
2919.73665	9900.9
2922.21476	9883.3
2924.69136	9905.5
2927.16644	9870.6
2929.64	9869
2932.11205	9876.1
2934.58258	9830.4
2937.05161	9871.5
2939.51912	9866.3
2941.98513	9843.5
2944.44962	9854.7
2946.91261	9822.2
2949.37409	9819.8
2951.83407	9823.1
2954.29254	9828.1
2956.74951	9796.7
2959.20498	9773.1
2961.65895	9773.9
2964.11142	9794.6
2966.56239	9766.3
2969.01186	9748.4
2971.45984	9733.4
2973.90632	9717.2
2976.35131	9672.9
2978.7948	9671.5
2981.23681	9649.5
2983.67732	9646.8
2986.11635	9653.7
2988.55388	9609.7
2990.98993	9576.7
2993.4245	9582.5
2995.85758	9556.9
2998.28917	9549.6
3000.71928	9547
3003.14791	9497.1
3005.57506	9498.7
3008.00073	9500.2
3010.42493	9498.5
3012.84764	9473.6
3015.26888	9438.1
3017.68865	9435.5
3020.10694	9420.8
3022.52376	9413.4
3024.9391	9419.4
3027.35298	9419
3029.76539	9409.6
3032.17632	9402.4
3034.5858	9408.7
3036.9938	9399.2
3039.40034	9375.3
3041.80542	9383.3
3044.20903	9351
3046.61118	9351.8
3049.01187	9361.6
3051.4111	9359.8
3053.80888	9310
3056.20519	9314.1
3058.60005	9303.4
3060.99345	9277
3063.3854	9260.3
3065.7759	9249.6
3068.16494	9232.3
3070.55254	9224.5
3072.93868	9221.5
3075.32338	9168.7
3077.70662	9147.7
3080.08842	9125.8
3082.46878	9144.8
3084.84769	9136.5
3087.22515	9121.1
3089.60118	9117.3
3091.97576	9137
3094.3489	9133.9
3096.72061	9114.1
3099.09087	9125.2
3101.4597	9124.3
3103.82709	9109.1
3106.19305	9104.2
3108.55757	9097
3110.92066	9097.1
3113.28232	9059
3115.64255	9062.6
3118.00134	9030.3
3120.35871	9037.4
3122.71466	9019.1
3125.06917	9007.4
3127.42226	8989.4
3129.77393	9017.2
3132.12417	9028.4
3134.47299	9010
3136.82039	9004.2
3139.16636	9015.3
3141.51092	9006.7
3143.85406	9016.2
3146.19579	9025.5
3148.53609	9049.8
3150.87499	9029.7
3153.21246	9036.2
3155.54853	9043.5
3157.88318	9038.6
3160.21642	9028.3
3162.54826	9021.5
3164.87868	9032.6
3167.2077	9016
3169.5353	9045.9
3171.86151	9025.9
3174.18631	9033.4
3176.5097	9015.4
3178.83169	9014.6
3181.15228	9027.4
3183.47147	9026.2
3185.78926	9039.3
3188.10565	9034.6
3190.42065	9033.9
3192.73424	9007
3195.04645	8997.6
3197.35725	9042
3199.66667	9034.3
3201.97469	9041.4
3204.28132	9047.6
3206.58656	9039.3
3208.8904	9045.8
3211.19287	9058
3213.49394	9051.3
3215.79363	9035.7
3218.09193	9063.2
3220.38884	9081.9
3222.68438	9055
3224.97853	9062.5
3227.2713	9048.3
3229.56269	9012.3
3231.8527	9042.4
3234.14133	9027
3236.42858	8995.8
3238.71446	9003.8
3240.99896	8973.2
3243.28209	8995.9
3245.56384	8994
3247.84423	8977.5
3250.12324	8961.5
3252.40088	8980
3254.67715	8976.2
3256.95205	8956.9
3259.22558	8977.6
3261.49775	8949
3263.76855	8955.2
3266.03799	8924.9
3268.30606	8916.4
3270.57277	8903.8
3272.83812	8887
3275.10211	8859.5
3277.36474	8864.8
3279.62601	8879.4
3281.88593	8836.5
3284.14448	8865.3
3286.40168	8886.7
3288.65753	8860.2
3290.91202	8841.5
3293.16516	8828.3
3295.41695	8802.9
3297.66738	8758.3
3299.91647	8721.6
3302.16421	8666.1
3304.4106	8644.5
3306.65564	8608.2
3308.89933	8562.9
3311.14169	8510.9
3313.38269	8452.7
3315.62236	8377.7
3317.86068	8325.1
3320.09766	8255.9
3322.3333	8207.7
3324.5676	8177.8
3326.80056	8074.6
3329.03219	8034
3331.26248	4.6
3333.49143	-0.9
3335.71905	-0.5
