Data from AgNP_FTO_APTES_CRN_50uM_R6G_10uM_NaF_0.1M_Addition_RamanShift__16__18-04-38-075.txt Node

Date: Wed Dec 15 18:04:38 GMT 2021
User: TCL
Spectrometer: QEP01345
Trigger mode: 4
Integration Time (sec): 7.000000E0
Scans to average: 10
Electric dark correction enabled: true
Nonlinearity correction enabled: false
Boxcar width: 0
XAxis mode: Raman Shifts
Number of Pixels in Spectrum: 1044
>>>>>Begin Spectral Data<<<<<
46.04893	0.8
50.45542	-1.5
54.85868	-1.5
59.25871	-0.1
63.6555	51.5
68.04907	58.1
72.43941	57.6
76.82654	67.7
81.21044	65.2
85.59113	70.5
89.96862	74.3
94.34289	72.1
98.71396	79.1
103.08183	80.3
107.4465	81.9
111.80798	83.7
116.16626	84.5
120.52136	89.2
124.87327	88
129.222	90.7
133.56755	94.5
137.90993	100.1
142.24913	106.2
146.58517	116
150.91804	134.2
155.24774	151.7
159.57429	185.8
163.89768	231.7
168.21792	305.7
172.53501	409.2
176.84895	562.1
181.15975	795
185.46741	1106
189.77193	1526.8
194.07331	2040.3
198.37157	2653.6
202.6667	3307.1
206.9587	3913.6
211.24758	4541.7
215.53334	5146.4
219.81599	5792.6
224.09553	6495.9
228.37195	7251.2
232.64527	8111
236.91549	9030.2
241.18261	10015.8
245.44663	10939.7
249.70755	11795.4
253.96539	12512
258.22014	13095.7
262.4718	13581.1
266.72039	13865.1
270.96589	14046.5
275.20832	14069.5
279.44768	14003.7
283.68397	13918.5
287.91719	13815.9
292.14735	13724.4
296.37445	13664.5
300.59849	13627.9
304.81948	13554.9
309.03742	13458.5
313.25231	13293.5
317.46415	13163.2
321.67296	12952.7
325.87872	12765.5
330.08145	12689.7
334.28114	12710.9
338.47781	12837.6
342.67145	12943.2
346.86207	13088.4
351.04966	13239.2
355.23424	13390.7
359.4158	13507.4
363.59435	13627.4
367.76989	13730.7
371.94243	13817.3
376.11196	13919.1
380.27849	13979.2
384.44203	14062.4
388.60257	14188.6
392.76012	14293.3
396.91468	14449.3
401.06626	14645.4
405.21485	14772.1
409.36047	14861.1
413.50311	14790.8
417.64277	14690.3
421.77947	14677.6
425.9132	14718.6
430.04396	14773.4
434.17176	14857.1
438.2966	14934.4
442.41849	15031.1
446.53742	15204.2
450.6534	15322.2
454.76644	15525.7
458.87653	15621.8
462.98368	15658.7
467.08789	15646.6
471.18916	15628
475.2875	15591.1
479.38291	15532.9
483.4754	15496.5
487.56496	15423.1
491.6516	15372.2
495.73531	15360.6
499.81612	15311.6
503.89401	15415.5
507.96899	15458.2
512.04106	15462.7
516.11023	15490.5
520.1765	15430.5
524.23987	15396
528.30034	15350.8
532.35792	15285.8
536.41261	15244.4
540.46441	15194.6
544.51333	15221.1
548.55936	15365.2
552.60252	15549.3
556.64279	15726.8
560.6802	15797.6
564.71473	15844.5
568.7464	15906.7
572.7752	16046
576.80114	16206.4
580.82422	16462.5
584.84444	16624.4
588.86181	16678.4
592.87633	16570.6
596.888	16432.4
600.89682	16521.7
604.9028	16821.6
608.90594	17489.4
612.90624	18153.6
616.90371	17586.8
620.89834	16224.4
624.89015	15621.4
628.87913	15543.2
632.86528	15652.7
636.84862	15747.3
640.82913	15693.8
644.80683	15556.1
648.78172	15397.2
652.75379	15415.7
656.72306	15491.7
660.68952	15591.2
664.65319	15618.2
668.61405	15563.3
672.57211	15566.7
676.52738	15560.4
680.47986	15600.4
684.42955	15589.1
688.37646	15560.2
692.32058	15586.5
696.26192	15669.4
700.20048	15770.4
704.13626	15862
708.06928	15904.3
711.99952	15902.4
715.927	15846.6
719.85171	15822.7
723.77365	15760.1
727.69284	15726.5
731.60928	15603.1
735.52295	15588.2
739.43388	15535.2
743.34206	15564.2
747.24749	15598.4
751.15017	15661
755.05012	15785.3
758.94733	16005.1
762.8418	16434.9
766.73354	17031.6
770.62254	17673.9
774.50882	17777
778.39237	17316.3
782.27321	16709.8
786.15132	16185.8
790.02671	15823.1
793.89938	15627.6
797.76935	15566.1
801.6366	15506.3
805.50115	15480.9
809.36299	15440.8
813.22213	15410.7
817.07857	15410.5
820.93231	15426.9
824.78336	15452.5
828.63172	15473
832.47738	15463.5
836.32036	15474.1
840.16066	15452.2
843.99827	15457.9
847.8332	15435.5
851.66546	15418.2
855.49504	15465.7
859.32195	15454.3
863.1462	15463.1
866.96777	15457
870.78668	15466.5
874.60293	15494.6
878.41652	15476
882.22745	15537.7
886.03573	15565.9
889.84136	15607.9
893.64433	15578.6
897.44466	15541.3
901.24235	15534.2
905.0374	15504.5
908.8298	15534.6
912.61957	15536.6
916.40671	15661.3
920.19121	15697.3
923.97308	15697
927.75233	15661.9
931.52895	15661.3
935.30295	15557.6
939.07433	15449.6
942.84309	15342
946.60924	15246.2
950.37278	15192.9
954.13371	15161.7
957.89203	15123.7
961.64774	15138.1
965.40086	15071.4
969.15137	15087.2
972.89929	15051.9
976.64461	15021.2
980.38733	15007.4
984.12747	15005.3
987.86502	15030.1
991.59999	15093.3
995.33237	15105.1
999.06217	15203.9
1002.78939	15271.7
1006.51404	15396.2
1010.23611	15509.9
1013.95561	15538.2
1017.67255	15566.6
1021.38692	15496.7
1025.09872	15461.4
1028.80796	15382.6
1032.51465	15349.1
1036.21877	15360.9
1039.92035	15387.6
1043.61937	15483.7
1047.31584	15560.6
1051.00976	15605.2
1054.70114	15688.6
1058.38998	15785.7
1062.07627	15931.7
1065.76003	16104.8
1069.44126	16260.7
1073.11995	16470.1
1076.79611	16601.7
1080.46974	16541.6
1084.14085	16512.4
1087.80943	16450
1091.47549	16439.4
1095.13903	16438.9
1098.80005	16411.1
1102.45857	16268.9
1106.11456	16074.8
1109.76805	15880.4
1113.41903	15795.2
1117.06751	15823.1
1120.71348	15875.7
1124.35696	15977.3
1127.99793	16088
1131.63641	16149.5
1135.2724	16071.2
1138.90589	15995.2
1142.5369	15994.9
1146.16542	15963.2
1149.79145	15950.1
1153.415	16019
1157.03607	16048.9
1160.65467	16201.4
1164.27079	16409.1
1167.88443	16696
1171.49561	17068.2
1175.10432	17565
1178.71056	18219.9
1182.31434	18788
1185.91565	19212.5
1189.51451	19423.2
1193.11091	19359.6
1196.70485	19099.8
1200.29634	18654.3
1203.88538	18214.2
1207.47197	17851.6
1211.05612	17527.9
1214.63782	17252.2
1218.21708	17083.6
1221.79391	16886.9
1225.36829	16773.9
1228.94024	16695.1
1232.50976	16687.5
1236.07685	16731.6
1239.6415	16780.2
1243.20374	16823
1246.76355	16838.5
1250.32093	16947.5
1253.8759	17085.9
1257.42845	17312.3
1260.97859	17549.1
1264.52631	17752.9
1268.07163	17927.4
1271.61453	18056.3
1275.15503	18214.8
1278.69312	18345.2
1282.22882	18462.3
1285.76211	18612.6
1289.29301	18781.6
1292.82151	19016.9
1296.34761	19257.5
1299.87133	19609.4
1303.39266	19927.1
1306.9116	20374.3
1310.42815	20776
1313.94233	21020.4
1317.45412	21119.4
1320.96354	21088
1324.47058	21119.1
1327.97525	21093.2
1331.47754	21148.2
1334.97747	21267.1
1338.47502	21508.8
1341.97022	21855.8
1345.46305	22265.5
1348.95352	22415.4
1352.44163	22496.4
1355.92738	22439.3
1359.41078	22425.7
1362.89183	22432
1366.37053	22062.8
1369.84688	21096.6
1373.32088	20061
1376.79254	19201.4
1380.26186	18706
1383.72883	18423
1387.19347	18225.5
1390.65578	18047.8
1394.11575	17854.5
1397.57339	17667.8
1401.0287	17572.5
1404.48168	17530.7
1407.93234	17484.5
1411.38068	17380.8
1414.82669	17211.6
1418.27039	16912.1
1421.71177	16646
1425.15083	16412.9
1428.58758	16274
1432.02203	16218.2
1435.45416	16254.3
1438.88399	16312
1442.31151	16409.6
1445.73673	16484.8
1449.15965	16613
1452.58027	16738.9
1455.9986	16843.9
1459.41463	16978.7
1462.82837	17198.6
1466.23982	17441.1
1469.64898	17679.2
1473.05586	17910.6
1476.46045	18065.1
1479.86276	18135.7
1483.26279	18205.8
1486.66054	18281.4
1490.05602	18446.1
1493.44922	18692.1
1496.84016	19082.1
1500.22882	19658
1503.61521	20384.4
1506.99934	21032.1
1510.38121	21432.7
1513.76081	21384.6
1517.13816	21009.5
1520.51324	20428.5
1523.88607	19936.4
1527.25665	19559.1
1530.62498	19277.6
1533.99105	19104.6
1537.35488	18865.7
1540.71647	18602.1
1544.07581	18390.8
1547.4329	18143.1
1550.78776	17933.6
1554.14038	17836.9
1557.49077	17861.4
1560.83892	17877.5
1564.18484	18010.5
1567.52853	18122.2
1570.86999	18215
1574.20922	18317.2
1577.54624	18369.6
1580.88103	18252
1584.2136	18065
1587.54395	17931.6
1590.87208	17878.8
1594.19801	18015.1
1597.52172	18312.8
1600.84321	18400.2
1604.16251	18192.9
1607.47959	17858.9
1610.79447	17453
1614.10715	16933.9
1617.41763	16435.9
1620.7259	16013.1
1624.03199	15738.4
1627.33587	15597.6
1630.63757	15586.3
1633.93707	15795.5
1637.23439	16164.8
1640.52951	16793.4
1643.82246	17643.2
1647.11321	18501.4
1650.40179	19114.5
1653.68819	19077.7
1656.97241	18354.7
1660.25446	17341.4
1663.53433	16351.8
1666.81203	15548.6
1670.08756	14999.6
1673.36092	14605.9
1676.63211	14354.6
1679.90115	14149.7
1683.16801	14007.1
1686.43272	13933.1
1689.69527	13876.5
1692.95567	13802
1696.2139	13802.5
1699.46999	13785.9
1702.72392	13743.9
1705.97571	13678.7
1709.22535	13691.4
1712.47284	13649.2
1715.71819	13634.9
1718.96139	13612.3
1722.20246	13566.6
1725.44139	13586.7
1728.67818	13503.8
1731.91284	13462
1735.14537	13405.9
1738.37576	13373.6
1741.60403	13356.8
1744.83017	13337.8
1748.05418	13339
1751.27607	13263.7
1754.49584	13307.7
1757.71349	13275.2
1760.92903	13269.7
1764.14244	13282.3
1767.35375	13264.4
1770.56294	13260.6
1773.77002	13235.6
1776.97499	13190.1
1780.17785	13158.6
1783.37861	13142.2
1786.57727	13106.2
1789.77382	13087.2
1792.96828	13056.9
1796.16064	13026.3
1799.3509	13000.1
1802.53907	12996.2
1805.72514	12933.7
1808.90913	12942.8
1812.09102	12890.6
1815.27083	12866.5
1818.44856	12872.6
1821.6242	12830.5
1824.79776	12843.4
1827.96924	12812.9
1831.13864	12805
1834.30597	12809.4
1837.47122	12820
1840.6344	12787.4
1843.7955	12756.9
1846.95454	12735.2
1850.11151	12707.4
1853.26642	12730.9
1856.41926	12739
1859.57004	12722.6
1862.71876	12711.6
1865.86542	12676.5
1869.01003	12709
1872.15258	12659.7
1875.29308	12649.8
1878.43152	12630.3
1881.56792	12599.7
1884.70227	12583.7
1887.83457	12583.7
1890.96482	12521.7
1894.09304	12509
1897.21921	12524.1
1900.34335	12493.6
1903.46544	12470.8
1906.58551	12469.5
1909.70353	12434.3
1912.81953	12428.7
1915.93349	12414.4
1919.04543	12370.2
1922.15534	12326.1
1925.26322	12346.8
1928.36908	12323.4
1931.47292	12250.7
1934.57473	12261.6
1937.67453	12230.7
1940.77232	12208.8
1943.86808	12181.4
1946.96184	12165.4
1950.05358	12142.5
1953.14331	12071.8
1956.23103	12041.4
1959.31675	12038.3
1962.40046	11985.7
1965.48217	11949.4
1968.56188	11893.6
1971.63959	11860.4
1974.7153	11858.8
1977.78901	11812.7
1980.86073	11760.3
1983.93046	11735.6
1986.99819	11718.7
1990.06394	11660.1
1993.1277	11651.5
1996.18947	11571.6
1999.24925	11567.3
2002.30706	11540.6
2005.36288	11475.9
2008.41672	11464.9
2011.46859	11407.2
2014.51848	11379.8
2017.56639	11365.1
2020.61233	11323.8
2023.6563	11298.8
2026.6983	11280.8
2029.73833	11250.1
2032.7764	11212.1
2035.8125	11208.6
2038.84664	11169.7
2041.87881	11139.9
2044.90903	11124.8
2047.93729	11087.7
2050.96359	11091.1
2053.98794	11057.8
2057.01034	11032.3
2060.03078	11028.6
2063.04927	11020.7
2066.06582	11010.3
2069.08042	11022.6
2072.09307	10996.9
2075.10378	10978.6
2078.11255	10954.1
2081.11938	11002.7
2084.12426	10985.2
2087.12722	10955.7
2090.12824	10954.5
2093.12732	10980.9
2096.12447	10968.9
2099.11969	10941.8
2102.11299	10932.7
2105.10435	10955.4
2108.09379	10968.6
2111.08131	10988.7
2114.0669	11012.4
2117.05057	10984
2120.03233	11003.2
2123.01216	10970.9
2125.99008	11005.8
2128.96609	11009.3
2131.94018	11018.3
2134.91236	11033.7
2137.88263	11017.6
2140.851	11048.2
2143.81746	11037
2146.78201	11053.9
2149.74466	11053.2
2152.7054	11070.7
2155.66425	11055.4
2158.6212	11075.8
2161.57625	11051.6
2164.52941	11043.7
2167.48067	11030.3
2170.43004	11016.5
2173.37752	11023.2
2176.32311	10997.2
2179.26681	11007.1
2182.20863	11005
2185.14856	10998.8
2188.08661	10972.5
2191.02278	10974.7
2193.95707	10963.2
2196.88948	10946.2
2199.82001	10956.9
2202.74867	10932.3
2205.67545	10901.6
2208.60037	10926.8
2211.52341	10896.2
2214.44458	10883.6
2217.36388	10845
2220.28132	10822.9
2223.1969	10799.8
2226.11061	10795.1
2229.02246	10786.8
2231.93245	10755
2234.84058	10731.7
2237.74686	10691.8
2240.65128	10700.1
2243.55385	10673.1
2246.45456	10645
2249.35343	10635.8
2252.25044	10635.8
2255.14561	10581
2258.03893	10605.1
2260.93041	10596
2263.82004	10547.8
2266.70783	10535.3
2269.59378	10486.9
2272.4779	10487
2275.36017	10444.5
2278.24061	10402.2
2281.11922	10395.4
2283.996	10373.9
2286.87094	10347.5
2289.74405	10333.9
2292.61534	10340
2295.4848	10294.7
2298.35243	10310
2301.21824	10297.7
2304.08223	10270.7
2306.94439	10262.2
2309.80474	10214.6
2312.66327	10236.3
2315.51999	10215.9
2318.37489	10196.8
2321.22797	10220.3
2324.07925	10204.4
2326.92871	10167
2329.77637	10182.9
2332.62222	10149.2
2335.46626	10147.4
2338.3085	10118.5
2341.14893	10100
2343.98756	10057.1
2346.8244	10044.3
2349.65943	10052.2
2352.49267	10058.4
2355.32411	10039.2
2358.15376	10023.3
2360.98161	10032
2363.80768	10014.8
2366.63195	10023
2369.45444	9981.9
2372.27514	9975.2
2375.09405	9968.3
2377.91118	9975.9
2380.72652	9936.7
2383.54009	9925.7
2386.35187	9903
2389.16188	9870.1
2391.97011	9857.4
2394.77657	9828.3
2397.58125	9815.4
2400.38416	9828.2
2403.18529	9780.9
2405.98466	9758.1
2408.78226	9756.1
2411.57809	9741.9
2414.37216	9719.9
2417.16446	9699.4
2419.955	9681.8
2422.74378	9695.9
2425.5308	9669.2
2428.31606	9643
2431.09956	9642
2433.88131	9639.7
2436.6613	9624.9
2439.43954	9605.7
2442.21603	9593.1
2444.99077	9557.1
2447.76377	9578.1
2450.53501	9539.4
2453.30451	9540.7
2456.07226	9535.2
2458.83827	9504.1
2461.60254	9505.9
2464.36507	9497.6
2467.12586	9490
2469.88492	9469.2
2472.64224	9471.9
2475.39782	9458.4
2478.15167	9450.4
2480.90379	9433.9
2483.65417	9439.8
2486.40283	9408.2
2489.14976	9437.8
2491.89497	9402.4
2494.63845	9432.6
2497.3802	9409.6
2500.12024	9379.1
2502.85855	9360.3
2505.59514	9360.7
2508.33002	9346.1
2511.06318	9346.4
2513.79462	9332.9
2516.52435	9308.7
2519.25237	9313
2521.97867	9297.4
2524.70327	9295.9
2527.42616	9271.2
2530.14734	9250.6
2532.86681	9224.2
2535.58458	9218.4
2538.30065	9186.6
2541.01501	9182.7
2543.72768	9166
2546.43864	9168.7
2549.14791	9141.3
2551.85548	9113.3
2554.56136	9091.7
2557.26554	9080.2
2559.96803	9063.2
2562.66883	9060.3
2565.36794	9038.3
2568.06536	9033.2
2570.7611	9016.4
2573.45514	9017.5
2576.14751	8973.4
2578.83819	8942.4
2581.52719	8940.6
2584.21451	8911.7
2586.90015	8906.2
2589.58411	8886.2
2592.2664	8837.8
2594.94701	8826.7
2597.62594	8822.9
2600.30321	8793.1
2602.9788	8779
2605.65273	8790.6
2608.32498	8778.8
2610.99557	8744.4
2613.66449	8737.8
2616.33175	8729
2618.99734	8718.4
2621.66128	8691.3
2624.32355	8677.7
2626.98416	8649.6
2629.64311	8662.3
2632.30041	8646.5
2634.95605	8645.5
2637.61004	8639.7
2640.26238	8594.9
2642.91306	8605.3
2645.56209	8589.1
2648.20948	8607.2
2650.85521	8571.7
2653.4993	8544.3
2656.14175	8557.4
2658.78255	8584.3
2661.42171	8548.3
2664.05923	8552.2
2666.6951	8541.8
2669.32934	8536.7
2671.96194	8529.4
2674.59291	8513.7
2677.22224	8516.7
2679.84993	8552.4
2682.476	8510.7
2685.10043	8521.6
2687.72324	8524.9
2690.34441	8515.7
2692.96396	8519.2
2695.58188	8498.4
2698.19818	8502.1
2700.81285	8506
2703.4259	8538.3
2706.03733	8552.7
2708.64714	8519.7
2711.25533	8544.5
2713.86191	8524.4
2716.46687	8513.4
2719.07021	8505.6
2721.67194	8480.4
2724.27206	8480.8
2726.87057	8462.4
2729.46747	8465.8
2732.06276	8482.5
2734.65644	8454
2737.24852	8453.3
2739.83899	8453.5
2742.42786	8438
2745.01513	8407.4
2747.60079	8405.2
2750.18486	8387.1
2752.76733	8395.2
2755.3482	8380.2
2757.92747	8367.3
2760.50515	8379.1
2763.08123	8349.7
2765.65573	8314.1
2768.22863	8304.4
2770.79994	8311.3
2773.36967	8291.1
2775.9378	8279.6
2778.50435	8273.4
2781.06932	8229.7
2783.6327	8245.9
2786.1945	8228
2788.75471	8212.9
2791.31335	8183.4
2793.87041	8178.5
2796.42589	8155.2
2798.97979	8148.5
2801.53212	8106.8
2804.08288	8105.2
2806.63206	8077.5
2809.17967	8066.3
2811.72571	8018.3
2814.27018	8028.5
2816.81308	8031.5
2819.35442	8009.5
2821.89419	7996
2824.43239	7997.6
2826.96904	7981.1
2829.50412	7989.4
2832.03763	7930.6
2834.56959	7920.7
2837.1	7924.9
2839.62884	7935.5
2842.15613	7932.3
2844.68186	7927.6
2847.20604	7912.8
2849.72867	7901.4
2852.24974	7909.6
2854.76927	7892.1
2857.28724	7895.7
2859.80367	7876.9
2862.31855	7856.6
2864.83189	7838.3
2867.34368	7815.4
2869.85393	7817.6
2872.36264	7812.3
2874.8698	7784.3
2877.37543	7812
2879.87952	7801.8
2882.38207	7785.1
2884.88308	7802.8
2887.38256	7784.7
2889.88051	7778.5
2892.37692	7782.8
2894.8718	7760.1
2897.36515	7749.7
2899.85698	7753.8
2902.34727	7767.5
2904.83604	7742.6
2907.32328	7768.5
2909.809	7766.9
2912.29319	7771.9
2914.77587	7766.5
2917.25702	7749.5
2919.73665	7732.4
2922.21476	7735.5
2924.69136	7743.2
2927.16644	7731.2
2929.64	7734
2932.11205	7710.1
2934.58258	7691.4
2937.05161	7693.1
2939.51912	7711.2
2941.98513	7716.7
2944.44962	7674.2
2946.91261	7650.5
2949.37409	7659.2
2951.83407	7664.1
2954.29254	7642.1
2956.74951	7640.6
2959.20498	7617
2961.65895	7637.9
2964.11142	7646.6
2966.56239	7615.9
2969.01186	7619.6
2971.45984	7589.8
2973.90632	7569.6
2976.35131	7551.7
2978.7948	7519.6
2981.23681	7539.2
2983.67732	7532.3
2986.11635	7519.4
2988.55388	7513.1
2990.98993	7467.6
2993.4245	7478
2995.85758	7472.1
2998.28917	7451.9
3000.71928	7439.3
3003.14791	7435.8
3005.57506	7417.5
3008.00073	7401.7
3010.42493	7409.5
3012.84764	7378.6
3015.26888	7353
3017.68865	7336.9
3020.10694	7344
3022.52376	7306.3
3024.9391	7307.3
3027.35298	7311.3
3029.76539	7300
3032.17632	7298.4
3034.5858	7281.1
3036.9938	7280.9
3039.40034	7274.4
3041.80542	7258.7
3044.20903	7232.3
3046.61118	7243
3049.01187	7219.8
3051.4111	7211.1
3053.80888	7206.5
3056.20519	7196.1
3058.60005	7167
3060.99345	7159.4
3063.3854	7148.6
3065.7759	7115.7
3068.16494	7119.7
3070.55254	7105.5
3072.93868	7093.7
3075.32338	7090.7
3077.70662	7056.2
3080.08842	7038.3
3082.46878	7054
3084.84769	7034.1
3087.22515	7025.5
3089.60118	7046.7
3091.97576	7045.7
3094.3489	7026
3096.72061	7034.2
3099.09087	7021.9
3101.4597	7029.8
3103.82709	7034.3
3106.19305	7014.1
3108.55757	6997
3110.92066	6991.4
3113.28232	6976.2
3115.64255	6961.2
3118.00134	6961.8
3120.35871	6944.1
3122.71466	6938.9
3125.06917	6937
3127.42226	6918.9
3129.77393	6943.8
3132.12417	6933.8
3134.47299	6939.1
3136.82039	6918.9
3139.16636	6929.4
3141.51092	6931.1
3143.85406	6948.6
3146.19579	6942.3
3148.53609	6943.8
3150.87499	6939.3
3153.21246	6941
3155.54853	6954.9
3157.88318	6936.4
3160.21642	6956.7
3162.54826	6958.5
3164.87868	6926.8
3167.2077	6928.7
3169.5353	6931.6
3171.86151	6931.5
3174.18631	6933.7
3176.5097	6958.9
3178.83169	6921.4
3181.15228	6911.5
3183.47147	6905.6
3185.78926	6925.4
3188.10565	6901.7
3190.42065	6900.6
3192.73424	6895.4
3195.04645	6897.5
3197.35725	6898.7
3199.66667	6917.4
3201.97469	6919
3204.28132	6908.6
3206.58656	6908.7
3208.8904	6906
3211.19287	6904
3213.49394	6924.1
3215.79363	6923.2
3218.09193	6912.2
3220.38884	6914.3
3222.68438	6914
3224.97853	6897.3
3227.2713	6880.4
3229.56269	6859.8
3231.8527	6882.4
3234.14133	6850.4
3236.42858	6827.8
3238.71446	6830.8
3240.99896	6810
3243.28209	6807.7
3245.56384	6804.8
3247.84423	6816.1
3250.12324	6803
3252.40088	6818.1
3254.67715	6805.2
3256.95205	6766.8
3259.22558	6797.3
3261.49775	6772.3
3263.76855	6793.3
3266.03799	6746.8
3268.30606	6755.4
3270.57277	6719.4
3272.83812	6724.3
3275.10211	6681.3
3277.36474	6688.3
3279.62601	6696.8
3281.88593	6690.9
3284.14448	6687.4
3286.40168	6680
3288.65753	6666.4
3290.91202	6659.1
3293.16516	6613
3295.41695	6619.4
3297.66738	6565.8
3299.91647	6539.8
3302.16421	6515.8
3304.4106	6483.5
3306.65564	6474.5
3308.89933	6409.5
3311.14169	6386.1
3313.38269	6340.8
3315.62236	6292.5
3317.86068	6235.8
3320.09766	6173.4
3322.3333	6127.2
3324.5676	6134.8
3326.80056	6045.9
3329.03219	5997.8
3331.26248	3.2
3333.49143	-0.3
3335.71905	-0.3
