Data from AgNP_FTO_APTES_CRN_20uM_R6G_10uM_NaF_0.1M_Addition_RamanShift__36__17-42-28-050.txt Node

Date: Wed Dec 15 17:42:28 GMT 2021
User: TCL
Spectrometer: QEP01345
Trigger mode: 4
Integration Time (sec): 7.000000E0
Scans to average: 10
Electric dark correction enabled: true
Nonlinearity correction enabled: false
Boxcar width: 0
XAxis mode: Raman Shifts
Number of Pixels in Spectrum: 1044
>>>>>Begin Spectral Data<<<<<
46.04893	0.9875
50.45542	-0.8125
54.85868	-1.2125
59.25871	0.5875
63.6555	38.5875
68.04907	44.1875
72.43941	50.7875
76.82654	54.6875
81.21044	51.6875
85.59113	54.9875
89.96862	57.1875
94.34289	58.6875
98.71396	64.0875
103.08183	64.0875
107.4465	69.3875
111.80798	64.3875
116.16626	68.9875
120.52136	70.6875
124.87327	65.8875
129.222	68.4875
133.56755	68.0875
137.90993	76.0875
142.24913	77.8875
146.58517	83.4875
150.91804	92.1875
155.24774	103.0875
159.57429	126.3875
163.89768	147.0875
168.21792	191.9875
172.53501	253.9875
176.84895	347.7875
181.15975	479.1875
185.46741	652.8875
189.77193	898.5875
194.07331	1198.5875
198.37157	1544.1875
202.6667	1906.8875
206.9587	2273.5875
211.24758	2627.4875
215.53334	3000.4875
219.81599	3431.7875
224.09553	3912.4875
228.37195	4430.1875
232.64527	5016.7875
236.91549	5574.3875
241.18261	6102.7875
245.44663	6499.7875
249.70755	6819.0875
253.96539	7106.0875
258.22014	7364.5875
262.4718	7625.7875
266.72039	7795.7875
270.96589	7925.5875
275.20832	7936.1875
279.44768	7855.5875
283.68397	7768.7875
287.91719	7693.1875
292.14735	7739.2875
296.37445	7882.5875
300.59849	8196.4875
304.81948	8567.3875
309.03742	8831.7875
313.25231	8812.4875
317.46415	8430.1875
321.67296	7785.6875
325.87872	7237.2875
330.08145	6925.3875
334.28114	6915.2875
338.47781	7016.0875
342.67145	7239.4875
346.86207	7560.6875
351.04966	8035.9875
355.23424	8551.5875
359.4158	8940.7875
363.59435	9136.5875
367.76989	9195.6875
371.94243	9160.2875
376.11196	9057.1875
380.27849	8997.6875
384.44203	8910.5875
388.60257	8770.7875
392.76012	8718.7875
396.91468	8794.0875
401.06626	9005.9875
405.21485	9211.6875
409.36047	9075.2875
413.50311	8571.5875
417.64277	8139.2875
421.77947	7883.2875
425.9132	7771.9875
430.04396	7756.0875
434.17176	7782.5875
438.2966	7876.0875
442.41849	8079.6875
446.53742	8291.8875
450.6534	8516.0875
454.76644	8648.2875
458.87653	8723.4875
462.98368	8649.0875
467.08789	8487.9875
471.18916	8304.1875
475.2875	8086.0875
479.38291	7930.1875
483.4754	7806.0875
487.56496	7683.9875
491.6516	7645.6875
495.73531	7594.6875
499.81612	7604.8875
503.89401	7705.3875
507.96899	7795.2875
512.04106	7960.4875
516.11023	8108.2875
520.1765	8236.7875
524.23987	8231.7875
528.30034	8097.7875
532.35792	7884.4875
536.41261	7716.0875
540.46441	7525.6875
544.51333	7423.0875
548.55936	7451.0875
552.60252	7601.3875
556.64279	7814.6875
560.6802	7906.5875
564.71473	8045.5875
568.7464	8324.6875
572.7752	8546.7875
576.80114	8335.4875
580.82422	8031.7875
584.84444	7894.2875
588.86181	7896.6875
592.87633	7909.5875
596.888	8024.0875
600.89682	8281.4875
604.9028	9238.6875
608.90594	11776.1875
612.90624	15202.2875
616.90371	14817.7875
620.89834	10347.4875
624.89015	8139.2875
628.87913	7719.6875
632.86528	7758.9875
636.84862	7884.0875
640.82913	7800.3875
644.80683	7484.9875
648.78172	7306.3875
652.75379	7332.9875
656.72306	7649.5875
660.68952	8031.4875
664.65319	7963.7875
668.61405	7589.2875
672.57211	7369.4875
676.52738	7357.5875
680.47986	7360.0875
684.42955	7294.7875
688.37646	7279.7875
692.32058	7319.6875
696.26192	7382.5875
700.20048	7476.7875
704.13626	7555.7875
708.06928	7551.5875
711.99952	7485.0875
715.927	7449.6875
719.85171	7451.4875
723.77365	7448.0875
727.69284	7386.7875
731.60928	7328.0875
735.52295	7283.1875
739.43388	7317.4875
743.34206	7346.7875
747.24749	7402.6875
751.15017	7422.6875
755.05012	7581.8875
758.94733	7927.3875
762.8418	8775.6875
766.73354	10186.5875
770.62254	11784.9875
774.50882	12584.1875
778.39237	12079.8875
782.27321	10504.3875
786.15132	8928.1875
790.02671	7989.3875
793.89938	7588.4875
797.76935	7433.6875
801.6366	7350.2875
805.50115	7281.8875
809.36299	7253.0875
813.22213	7218.6875
817.07857	7245.4875
820.93231	7232.1875
824.78336	7261.6875
828.63172	7303.8875
832.47738	7335.1875
836.32036	7333.3875
840.16066	7254.9875
843.99827	7234.9875
847.8332	7191.9875
851.66546	7167.5875
855.49504	7177.8875
859.32195	7152.9875
863.1462	7128.2875
866.96777	7098.0875
870.78668	7082.6875
874.60293	7100.2875
878.41652	7120.6875
882.22745	7151.5875
886.03573	7202.1875
889.84136	7169.2875
893.64433	7132.3875
897.44466	7096.6875
901.24235	7115.1875
905.0374	7085.4875
908.8298	7098.2875
912.61957	7070.2875
916.40671	7102.2875
920.19121	7144.7875
923.97308	7215.3875
927.75233	7270.2875
931.52895	7353.8875
935.30295	7288.0875
939.07433	7089.5875
942.84309	6917.3875
946.60924	6829.0875
950.37278	6756.4875
954.13371	6709.7875
957.89203	6680.1875
961.64774	6664.8875
965.40086	6645.4875
969.15137	6655.2875
972.89929	6596.4875
976.64461	6598.4875
980.38733	6595.4875
984.12747	6622.9875
987.86502	6623.8875
991.59999	6653.2875
995.33237	6734.9875
999.06217	6836.7875
1002.78939	6974.7875
1006.51404	7112.1875
1010.23611	7280.1875
1013.95561	7391.9875
1017.67255	7373.7875
1021.38692	7260.3875
1025.09872	7155.2875
1028.80796	7106.8875
1032.51465	7103.4875
1036.21877	7192.9875
1039.92035	7271.4875
1043.61937	7334.9875
1047.31584	7304.0875
1051.00976	7280.5875
1054.70114	7273.0875
1058.38998	7279.1875
1062.07627	7325.0875
1065.76003	7404.6875
1069.44126	7517.7875
1073.11995	7674.0875
1076.79611	7835.4875
1080.46974	7948.9875
1084.14085	8080.5875
1087.80943	8200.5875
1091.47549	8181.3875
1095.13903	7985.7875
1098.80005	7672.5875
1102.45857	7448.3875
1106.11456	7328.9875
1109.76805	7364.1875
1113.41903	7488.8875
1117.06751	7716.8875
1120.71348	8012.2875
1124.35696	8372.5875
1127.99793	8684.7875
1131.63641	8640.0875
1135.2724	8281.7875
1138.90589	7891.8875
1142.5369	7663.5875
1146.16542	7479.3875
1149.79145	7413.8875
1153.415	7401.9875
1157.03607	7467.6875
1160.65467	7601.4875
1164.27079	7864.3875
1167.88443	8256.5875
1171.49561	8917.1875
1175.10432	10029.0875
1178.71056	11470.4875
1182.31434	12447.1875
1185.91565	12587.3875
1189.51451	12128.6875
1193.11091	11332.0875
1196.70485	10436.4875
1200.29634	9765.6875
1203.88538	9316.7875
1207.47197	8780.1875
1211.05612	8323.5875
1214.63782	8100.7875
1218.21708	8015.3875
1221.79391	8015.5875
1225.36829	8036.1875
1228.94024	8083.5875
1232.50976	8135.8875
1236.07685	8132.5875
1239.6415	8215.2875
1243.20374	8241.4875
1246.76355	8328.4875
1250.32093	8441.8875
1253.8759	8593.7875
1257.42845	8830.2875
1260.97859	9061.6875
1264.52631	9341.7875
1268.07163	9551.7875
1271.61453	9805.7875
1275.15503	9971.0875
1278.69312	9991.0875
1282.22882	10007.8875
1285.76211	10181.7875
1289.29301	10465.3875
1292.82151	10750.7875
1296.34761	11067.9875
1299.87133	11501.9875
1303.39266	12360.3875
1306.9116	13685.0875
1310.42815	15295.5875
1313.94233	16344.7875
1317.45412	16072.9875
1320.96354	15000.8875
1324.47058	13725.8875
1327.97525	12698.8875
1331.47754	12063.0875
1334.97747	11849.5875
1338.47502	11956.4875
1341.97022	12265.8875
1345.46305	12698.3875
1348.95352	13406.8875
1352.44163	14411.8875
1355.92738	15893.1875
1359.41078	18145.0875
1362.89183	20517.0875
1366.37053	20261.8875
1369.84688	17236.4875
1373.32088	14078.8875
1376.79254	12085.9875
1380.26186	11104.8875
1383.72883	10581.9875
1387.19347	10214.9875
1390.65578	9774.0875
1394.11575	9442.4875
1397.57339	9212.4875
1401.0287	9196.5875
1404.48168	9251.9875
1407.93234	9401.2875
1411.38068	9513.3875
1414.82669	9548.0875
1418.27039	9438.4875
1421.71177	9261.5875
1425.15083	9094.4875
1428.58758	8983.3875
1432.02203	9016.2875
1435.45416	9106.8875
1438.88399	9161.6875
1442.31151	9165.6875
1445.73673	9212.3875
1449.15965	9236.2875
1452.58027	9188.9875
1455.9986	9092.9875
1459.41463	9056.3875
1462.82837	9112.0875
1466.23982	9282.3875
1469.64898	9492.6875
1473.05586	9666.3875
1476.46045	9811.5875
1479.86276	10025.8875
1483.26279	10261.4875
1486.66054	10543.6875
1490.05602	10909.7875
1493.44922	11388.0875
1496.84016	12115.9875
1500.22882	13231.5875
1503.61521	14723.4875
1506.99934	16502.6875
1510.38121	18234.2875
1513.76081	19190.6875
1517.13816	18466.1875
1520.51324	16322.8875
1523.88607	14017.6875
1527.25665	12373.4875
1530.62498	11418.4875
1533.99105	10858.2875
1537.35488	10550.6875
1540.71647	10315.1875
1544.07581	10217.5875
1547.4329	10146.6875
1550.78776	10107.6875
1554.14038	10058.7875
1557.49077	10129.0875
1560.83892	10365.0875
1564.18484	10649.5875
1567.52853	11023.9875
1570.86999	11366.0875
1574.20922	11628.1875
1577.54624	11697.2875
1580.88103	11287.2875
1584.2136	10544.4875
1587.54395	10031.1875
1590.87208	9919.8875
1594.19801	10262.2875
1597.52172	10898.3875
1600.84321	11231.5875
1604.16251	10915.2875
1607.47959	10271.8875
1610.79447	9581.0875
1614.10715	8883.2875
1617.41763	8347.9875
1620.7259	7994.8875
1624.03199	7834.5875
1627.33587	7825.2875
1630.63757	7970.9875
1633.93707	8268.1875
1637.23439	8777.2875
1640.52951	9513.2875
1643.82246	10594.5875
1647.11321	11920.4875
1650.40179	13044.3875
1653.68819	12971.2875
1656.97241	11501.1875
1660.25446	9689.8875
1663.53433	8346.1875
1666.81203	7563.1875
1670.08756	7086.4875
1673.36092	6819.5875
1676.63211	6643.5875
1679.90115	6522.8875
1683.16801	6422.3875
1686.43272	6372.6875
1689.69527	6327.0875
1692.95567	6318.1875
1696.2139	6285.1875
1699.46999	6282.4875
1702.72392	6273.1875
1705.97571	6264.1875
1709.22535	6213.0875
1712.47284	6216.0875
1715.71819	6237.0875
1718.96139	6219.9875
1722.20246	6208.1875
1725.44139	6194.2875
1728.67818	6149.5875
1731.91284	6104.4875
1735.14537	6054.7875
1738.37576	6022.2875
1741.60403	5995.3875
1744.83017	5976.2875
1748.05418	5975.0875
1751.27607	5961.7875
1754.49584	5967.1875
1757.71349	5949.4875
1760.92903	5951.9875
1764.14244	5944.1875
1767.35375	5928.9875
1770.56294	5936.1875
1773.77002	5907.2875
1776.97499	5880.9875
1780.17785	5845.2875
1783.37861	5833.4875
1786.57727	5813.0875
1789.77382	5799.5875
1792.96828	5808.9875
1796.16064	5778.7875
1799.3509	5767.4875
1802.53907	5757.7875
1805.72514	5751.9875
1808.90913	5728.5875
1812.09102	5718.9875
1815.27083	5709.8875
1818.44856	5687.2875
1821.6242	5676.6875
1824.79776	5684.5875
1827.96924	5658.4875
1831.13864	5669.6875
1834.30597	5643.9875
1837.47122	5661.2875
1840.6344	5639.2875
1843.7955	5617.0875
1846.95454	5651.4875
1850.11151	5639.6875
1853.26642	5628.8875
1856.41926	5615.7875
1859.57004	5626.1875
1862.71876	5617.7875
1865.86542	5609.4875
1869.01003	5622.6875
1872.15258	5617.3875
1875.29308	5611.7875
1878.43152	5606.0875
1881.56792	5613.3875
1884.70227	5622.6875
1887.83457	5590.8875
1890.96482	5584.8875
1894.09304	5597.2875
1897.21921	5579.2875
1900.34335	5578.2875
1903.46544	5581.3875
1906.58551	5575.8875
1909.70353	5580.7875
1912.81953	5559.2875
1915.93349	5560.8875
1919.04543	5543.4875
1922.15534	5526.1875
1925.26322	5526.3875
1928.36908	5510.9875
1931.47292	5491.0875
1934.57473	5478.8875
1937.67453	5462.5875
1940.77232	5436.5875
1943.86808	5432.8875
1946.96184	5413.0875
1950.05358	5388.7875
1953.14331	5367.7875
1956.23103	5369.1875
1959.31675	5359.0875
1962.40046	5343.3875
1965.48217	5294.1875
1968.56188	5290.3875
1971.63959	5296.0875
1974.7153	5260.8875
1977.78901	5255.4875
1980.86073	5237.9875
1983.93046	5207.7875
1986.99819	5196.8875
1990.06394	5182.4875
1993.1277	5157.4875
1996.18947	5130.9875
1999.24925	5115.4875
2002.30706	5109.7875
2005.36288	5102.1875
2008.41672	5086.5875
2011.46859	5066.8875
2014.51848	5057.4875
2017.56639	5027.3875
2020.61233	5008.4875
2023.6563	5008.2875
2026.6983	4989.1875
2029.73833	4994.5875
2032.7764	4961.7875
2035.8125	4960.3875
2038.84664	4952.7875
2041.87881	4938.8875
2044.90903	4922.1875
2047.93729	4903.4875
2050.96359	4918.5875
2053.98794	4893.5875
2057.01034	4907.9875
2060.03078	4874.2875
2063.04927	4885.2875
2066.06582	4883.9875
2069.08042	4881.7875
2072.09307	4859.1875
2075.10378	4868.1875
2078.11255	4862.6875
2081.11938	4852.6875
2084.12426	4859.5875
2087.12722	4849.1875
2090.12824	4831.8875
2093.12732	4844.9875
2096.12447	4844.4875
2099.11969	4855.0875
2102.11299	4845.5875
2105.10435	4834.8875
2108.09379	4827.8875
2111.08131	4837.5875
2114.0669	4855.5875
2117.05057	4843.3875
2120.03233	4839.8875
2123.01216	4849.8875
2125.99008	4861.6875
2128.96609	4856.4875
2131.94018	4846.4875
2134.91236	4861.9875
2137.88263	4874.8875
2140.851	4870.2875
2143.81746	4861.2875
2146.78201	4858.5875
2149.74466	4867.2875
2152.7054	4852.2875
2155.66425	4857.3875
2158.6212	4859.0875
2161.57625	4847.4875
2164.52941	4858.2875
2167.48067	4855.1875
2170.43004	4824.4875
2173.37752	4845.8875
2176.32311	4838.6875
2179.26681	4838.8875
2182.20863	4848.7875
2185.14856	4829.8875
2188.08661	4823.1875
2191.02278	4829.2875
2193.95707	4806.8875
2196.88948	4807.5875
2199.82001	4810.6875
2202.74867	4809.7875
2205.67545	4788.2875
2208.60037	4790.7875
2211.52341	4781.5875
2214.44458	4772.5875
2217.36388	4769.7875
2220.28132	4759.9875
2223.1969	4724.5875
2226.11061	4733.7875
2229.02246	4728.9875
2231.93245	4712.5875
2234.84058	4713.1875
2237.74686	4682.8875
2240.65128	4695.7875
2243.55385	4674.9875
2246.45456	4675.3875
2249.35343	4682.4875
2252.25044	4684.7875
2255.14561	4659.2875
2258.03893	4683.7875
2260.93041	4678.5875
2263.82004	4655.6875
2266.70783	4636.3875
2269.59378	4628.3875
2272.4779	4628.8875
2275.36017	4592.6875
2278.24061	4594.8875
2281.11922	4576.1875
2283.996	4550.4875
2286.87094	4572.8875
2289.74405	4544.8875
2292.61534	4534.6875
2295.4848	4521.6875
2298.35243	4533.8875
2301.21824	4522.9875
2304.08223	4522.1875
2306.94439	4506.9875
2309.80474	4499.3875
2312.66327	4493.2875
2315.51999	4504.7875
2318.37489	4498.7875
2321.22797	4483.6875
2324.07925	4485.5875
2326.92871	4477.6875
2329.77637	4470.2875
2332.62222	4475.4875
2335.46626	4446.9875
2338.3085	4456.8875
2341.14893	4459.5875
2343.98756	4447.6875
2346.8244	4443.3875
2349.65943	4453.7875
2352.49267	4460.0875
2355.32411	4447.8875
2358.15376	4453.3875
2360.98161	4445.6875
2363.80768	4467.3875
2366.63195	4473.0875
2369.45444	4470.7875
2372.27514	4464.6875
2375.09405	4461.9875
2377.91118	4445.9875
2380.72652	4413.0875
2383.54009	4395.9875
2386.35187	4398.1875
2389.16188	4363.0875
2391.97011	4365.6875
2394.77657	4349.4875
2397.58125	4335.4875
2400.38416	4328.3875
2403.18529	4316.5875
2405.98466	4303.5875
2408.78226	4277.7875
2411.57809	4299.0875
2414.37216	4266.1875
2417.16446	4273.8875
2419.955	4257.6875
2422.74378	4267.9875
2425.5308	4255.4875
2428.31606	4261.3875
2431.09956	4255.6875
2433.88131	4256.7875
2436.6613	4251.4875
2439.43954	4247.1875
2442.21603	4241.1875
2444.99077	4241.9875
2447.76377	4237.0875
2450.53501	4236.6875
2453.30451	4229.6875
2456.07226	4237.0875
2458.83827	4220.6875
2461.60254	4208.1875
2464.36507	4216.6875
2467.12586	4214.5875
2469.88492	4208.3875
2472.64224	4213.2875
2475.39782	4204.4875
2478.15167	4210.2875
2480.90379	4218.3875
2483.65417	4221.8875
2486.40283	4231.2875
2489.14976	4235.7875
2491.89497	4235.1875
2494.63845	4248.1875
2497.3802	4227.2875
2500.12024	4228.0875
2502.85855	4229.6875
2505.59514	4216.1875
2508.33002	4213.9875
2511.06318	4178.1875
2513.79462	4167.5875
2516.52435	4156.1875
2519.25237	4135.7875
2521.97867	4123.1875
2524.70327	4119.7875
2527.42616	4098.5875
2530.14734	4104.8875
2532.86681	4104.3875
2535.58458	4088.6875
2538.30065	4089.4875
2541.01501	4085.6875
2543.72768	4093.3875
2546.43864	4086.4875
2549.14791	4077.5875
2551.85548	4077.5875
2554.56136	4072.1875
2557.26554	4060.5875
2559.96803	4062.0875
2562.66883	4055.0875
2565.36794	4032.5875
2568.06536	4052.5875
2570.7611	4025.7875
2573.45514	4032.5875
2576.14751	4020.8875
2578.83819	3999.2875
2581.52719	4008.7875
2584.21451	4001.1875
2586.90015	3982.1875
2589.58411	3977.8875
2592.2664	3969.4875
2594.94701	3960.1875
2597.62594	3959.5875
2600.30321	3957.7875
2602.9788	3958.2875
2605.65273	3955.8875
2608.32498	3952.0875
2610.99557	3933.2875
2613.66449	3953.7875
2616.33175	3925.4875
2618.99734	3933.3875
2621.66128	3935.3875
2624.32355	3916.5875
2626.98416	3924.0875
2629.64311	3916.6875
2632.30041	3909.1875
2634.95605	3903.1875
2637.61004	3884.7875
2640.26238	3894.9875
2642.91306	3890.7875
2645.56209	3886.3875
2648.20948	3870.1875
2650.85521	3857.9875
2653.4993	3866.7875
2656.14175	3855.6875
2658.78255	3865.5875
2661.42171	3871.1875
2664.05923	3861.5875
2666.6951	3873.7875
2669.32934	3884.3875
2671.96194	3862.3875
2674.59291	3867.1875
2677.22224	3880.9875
2679.84993	3881.2875
2682.476	3888.6875
2685.10043	3883.7875
2687.72324	3880.6875
2690.34441	3886.2875
2692.96396	3878.3875
2695.58188	3921.3875
2698.19818	3883.4875
2700.81285	3898.4875
2703.4259	3961.9875
2706.03733	3941.3875
2708.64714	3911.2875
2711.25533	3903.2875
2713.86191	3898.6875
2716.46687	3891.7875
2719.07021	3882.6875
2721.67194	3885.5875
2724.27206	3877.1875
2726.87057	3886.0875
2729.46747	3883.4875
2732.06276	3884.2875
2734.65644	3869.6875
2737.24852	3876.2875
2739.83899	3849.6875
2742.42786	3851.0875
2745.01513	3847.3875
2747.60079	3838.6875
2750.18486	3839.8875
2752.76733	3829.0875
2755.3482	3847.6875
2757.92747	3823.6875
2760.50515	3826.5875
2763.08123	3811.7875
2765.65573	3802.7875
2768.22863	3803.9875
2770.79994	3816.8875
2773.36967	3795.4875
2775.9378	3778.2875
2778.50435	3782.4875
2781.06932	3776.2875
2783.6327	3779.5875
2786.1945	3772.8875
2788.75471	3764.2875
2791.31335	3765.0875
2793.87041	3760.1875
2796.42589	3748.2875
2798.97979	3750.6875
2801.53212	3753.7875
2804.08288	3749.9875
2806.63206	3742.0875
2809.17967	3723.2875
2811.72571	3727.5875
2814.27018	3729.5875
2816.81308	3739.7875
2819.35442	3741.0875
2821.89419	3731.6875
2824.43239	3730.8875
2826.96904	3729.1875
2829.50412	3742.0875
2832.03763	3735.8875
2834.56959	3732.7875
2837.1	3738.7875
2839.62884	3760.8875
2842.15613	3767.6875
2844.68186	3788.3875
2847.20604	3807.8875
2849.72867	3836.4875
2852.24974	3838.8875
2854.76927	3863.0875
2857.28724	3853.3875
2859.80367	3838.3875
2862.31855	3825.7875
2864.83189	3817.1875
2867.34368	3820.4875
2869.85393	3801.8875
2872.36264	3788.6875
2874.8698	3815.9875
2877.37543	3789.1875
2879.87952	3797.7875
2882.38207	3801.3875
2884.88308	3783.2875
2887.38256	3791.6875
2889.88051	3777.0875
2892.37692	3780.1875
2894.8718	3785.0875
2897.36515	3782.2875
2899.85698	3778.3875
2902.34727	3803.4875
2904.83604	3785.1875
2907.32328	3784.3875
2909.809	3778.4875
2912.29319	3774.2875
2914.77587	3774.7875
2917.25702	3775.0875
2919.73665	3768.8875
2922.21476	3754.6875
2924.69136	3772.4875
2927.16644	3759.9875
2929.64	3754.8875
2932.11205	3730.9875
2934.58258	3734.9875
2937.05161	3740.9875
2939.51912	3727.3875
2941.98513	3698.3875
2944.44962	3690.3875
2946.91261	3652.0875
2949.37409	3640.7875
2951.83407	3630.1875
2954.29254	3626.4875
2956.74951	3608.4875
2959.20498	3610.8875
2961.65895	3598.5875
2964.11142	3596.9875
2966.56239	3576.2875
2969.01186	3567.5875
2971.45984	3559.8875
2973.90632	3558.7875
2976.35131	3544.4875
2978.7948	3525.9875
2981.23681	3513.4875
2983.67732	3517.3875
2986.11635	3506.0875
2988.55388	3518.0875
2990.98993	3479.3875
2993.4245	3486.0875
2995.85758	3479.1875
2998.28917	3464.9875
3000.71928	3460.8875
3003.14791	3470.6875
3005.57506	3452.9875
3008.00073	3459.6875
3010.42493	3449.3875
3012.84764	3439.4875
3015.26888	3442.9875
3017.68865	3435.9875
3020.10694	3428.3875
3022.52376	3427.8875
3024.9391	3429.2875
3027.35298	3417.6875
3029.76539	3408.6875
3032.17632	3418.9875
3034.5858	3404.2875
3036.9938	3414.4875
3039.40034	3394.1875
3041.80542	3403.4875
3044.20903	3385.3875
3046.61118	3381.8875
3049.01187	3372.4875
3051.4111	3362.6875
3053.80888	3364.3875
3056.20519	3355.4875
3058.60005	3356.4875
3060.99345	3344.4875
3063.3854	3349.8875
3065.7759	3334.1875
3068.16494	3354.1875
3070.55254	3328.4875
3072.93868	3328.2875
3075.32338	3311.3875
3077.70662	3307.7875
3080.08842	3294.6875
3082.46878	3298.8875
3084.84769	3287.6875
3087.22515	3273.1875
3089.60118	3278.5875
3091.97576	3274.3875
3094.3489	3285.9875
3096.72061	3276.1875
3099.09087	3288.4875
3101.4597	3270.3875
3103.82709	3282.4875
3106.19305	3283.9875
3108.55757	3260.7875
3110.92066	3271.7875
3113.28232	3253.3875
3115.64255	3245.3875
3118.00134	3252.9875
3120.35871	3259.4875
3122.71466	3235.6875
3125.06917	3244.0875
3127.42226	3234.6875
3129.77393	3243.2875
3132.12417	3262.3875
3134.47299	3246.6875
3136.82039	3266.8875
3139.16636	3261.6875
3141.51092	3272.3875
3143.85406	3265.7875
3146.19579	3263.9875
3148.53609	3272.3875
3150.87499	3265.9875
3153.21246	3281.0875
3155.54853	3299.3875
3157.88318	3286.0875
3160.21642	3296.5875
3162.54826	3297.1875
3164.87868	3284.6875
3167.2077	3291.3875
3169.5353	3299.4875
3171.86151	3292.1875
3174.18631	3305.8875
3176.5097	3298.4875
3178.83169	3296.8875
3181.15228	3298.7875
3183.47147	3287.1875
3185.78926	3324.2875
3188.10565	3300.3875
3190.42065	3303.0875
3192.73424	3302.2875
3195.04645	3312.4875
3197.35725	3321.5875
3199.66667	3319.1875
3201.97469	3335.6875
3204.28132	3331.3875
3206.58656	3329.4875
3208.8904	3322.0875
3211.19287	3333.5875
3213.49394	3334.4875
3215.79363	3327.3875
3218.09193	3341.8875
3220.38884	3333.1875
3222.68438	3350.9875
3224.97853	3352.3875
3227.2713	3341.4875
3229.56269	3330.8875
3231.8527	3334.9875
3234.14133	3322.2875
3236.42858	3311.0875
3238.71446	3321.8875
3240.99896	3314.1875
3243.28209	3309.0875
3245.56384	3295.9875
3247.84423	3297.4875
3250.12324	3305.3875
3252.40088	3311.9875
3254.67715	3308.5875
3256.95205	3286.8875
3259.22558	3304.9875
3261.49775	3283.7875
3263.76855	3301.5875
3266.03799	3297.2875
3268.30606	3268.5875
3270.57277	3266.4875
3272.83812	3264.1875
3275.10211	3265.0875
3277.36474	3255.1875
3279.62601	3249.9875
3281.88593	3243.4875
3284.14448	3251.6875
3286.40168	3251.6875
3288.65753	3242.1875
3290.91202	3235.3875
3293.16516	3222.4875
3295.41695	3217.8875
3297.66738	3203.8875
3299.91647	3192.5875
3302.16421	3166.1875
3304.4106	3176.4875
3306.65564	3147.7875
3308.89933	3123.7875
3311.14169	3110.0875
3313.38269	3089.7875
3315.62236	3070.6875
3317.86068	3041.7875
3320.09766	3023.6875
3322.3333	2994.6875
3324.5676	2996.1875
3326.80056	2947.0875
3329.03219	2924.6875
3331.26248	0.8875
3333.49143	-0.5125
3335.71905	0.3875
