Data from AgNP_FTO_APTES_CRN_50uM_R6G_10uM_NaF_0.1M_Addition_RamanShift__19__18-08-08-079.txt Node

Date: Wed Dec 15 18:08:08 GMT 2021
User: TCL
Spectrometer: QEP01345
Trigger mode: 4
Integration Time (sec): 7.000000E0
Scans to average: 10
Electric dark correction enabled: true
Nonlinearity correction enabled: false
Boxcar width: 0
XAxis mode: Raman Shifts
Number of Pixels in Spectrum: 1044
>>>>>Begin Spectral Data<<<<<
46.04893	0.3375
50.45542	-2.1625
54.85868	-1.3625
59.25871	-1.5625
63.6555	54.5375
68.04907	58.8375
72.43941	63.0375
76.82654	68.0375
81.21044	70.4375
85.59113	73.3375
89.96862	77.8375
94.34289	74.5375
98.71396	81.8375
103.08183	85.3375
107.4465	87.1375
111.80798	86.1375
116.16626	88.3375
120.52136	95.6375
124.87327	88.7375
129.222	95.0375
133.56755	96.5375
137.90993	106.2375
142.24913	115.1375
146.58517	125.1375
150.91804	141.6375
155.24774	162.3375
159.57429	204.5375
163.89768	258.3375
168.21792	333.2375
172.53501	444.9375
176.84895	614.5375
181.15975	858.5375
185.46741	1199.3375
189.77193	1659.3375
194.07331	2223.4375
198.37157	2871.1375
202.6667	3524.4375
206.9587	4206.3375
211.24758	4851.2375
215.53334	5504.3375
219.81599	6212.4375
224.09553	6958.4375
228.37195	7769.7375
232.64527	8707.2375
236.91549	9664.6375
241.18261	10650.0375
245.44663	11644.5375
249.70755	12499.7375
253.96539	13255.7375
258.22014	13879.3375
262.4718	14433.3375
266.72039	14809.5375
270.96589	14990.9375
275.20832	15026.0375
279.44768	14959.6375
283.68397	14828.6375
287.91719	14670.2375
292.14735	14596.0375
296.37445	14535.3375
300.59849	14529.9375
304.81948	14544.8375
309.03742	14485.5375
313.25231	14337.5375
317.46415	14066.7375
321.67296	13795.3375
325.87872	13558.9375
330.08145	13438.5375
334.28114	13436.1375
338.47781	13559.4375
342.67145	13725.5375
346.86207	13880.3375
351.04966	14130.9375
355.23424	14379.3375
359.4158	14564.4375
363.59435	14738.6375
367.76989	14844.8375
371.94243	14967.7375
376.11196	15077.3375
380.27849	15151.1375
384.44203	15262.7375
388.60257	15381.6375
392.76012	15501.4375
396.91468	15657.5375
401.06626	15902.4375
405.21485	16084.5375
409.36047	16026.1375
413.50311	15880.4375
417.64277	15729.7375
421.77947	15683.0375
425.9132	15699.8375
430.04396	15772.4375
434.17176	15882.5375
438.2966	15999.4375
442.41849	16253.8375
446.53742	16617.4375
450.6534	16975.8375
454.76644	17310.3375
458.87653	17432.5375
462.98368	17381.6375
467.08789	17207.0375
471.18916	17115.2375
475.2875	17014.1375
479.38291	16972.6375
483.4754	16877.0375
487.56496	16709.2375
491.6516	16473.3375
495.73531	16286.8375
499.81612	16182.6375
503.89401	16242.7375
507.96899	16300.9375
512.04106	16300.8375
516.11023	16236.0375
520.1765	16174.1375
524.23987	16155.0375
528.30034	16060.7375
532.35792	15998.5375
536.41261	15855.0375
540.46441	15731.3375
544.51333	15741.7375
548.55936	15868.7375
552.60252	16125.3375
556.64279	16420.2375
560.6802	16630.0375
564.71473	16666.0375
568.7464	16812.0375
572.7752	17026.5375
576.80114	17198.0375
580.82422	17374.3375
584.84444	17588.6375
588.86181	17867.1375
592.87633	18153.5375
596.888	18377.1375
600.89682	18436.2375
604.9028	18744.0375
608.90594	19706.2375
612.90624	20705.8375
616.90371	19709.8375
620.89834	17336.3375
624.89015	16362.0375
628.87913	16259.7375
632.86528	16367.4375
636.84862	16373.5375
640.82913	16216.8375
644.80683	15899.6375
648.78172	15674.4375
652.75379	15642.2375
656.72306	15732.0375
660.68952	15900.0375
664.65319	15868.0375
668.61405	15685.1375
672.57211	15603.3375
676.52738	15612.1375
680.47986	15626.8375
684.42955	15611.6375
688.37646	15598.4375
692.32058	15633.3375
696.26192	15743.3375
700.20048	15862.3375
704.13626	15945.6375
708.06928	15988.7375
711.99952	15934.1375
715.927	15896.7375
719.85171	15905.3375
723.77365	15857.2375
727.69284	15790.6375
731.60928	15645.2375
735.52295	15631.1375
739.43388	15644.5375
743.34206	15685.7375
747.24749	15696.8375
751.15017	15807.0375
755.05012	15996.5375
758.94733	16296.9375
762.8418	16863.4375
766.73354	17780.0375
770.62254	18690.3375
774.50882	18944.0375
778.39237	18250.6375
782.27321	17188.7375
786.15132	16380.4375
790.02671	15856.6375
793.89938	15618.4375
797.76935	15555.3375
801.6366	15526.0375
805.50115	15495.7375
809.36299	15461.7375
813.22213	15395.0375
817.07857	15395.0375
820.93231	15371.6375
824.78336	15330.2375
828.63172	15319.3375
832.47738	15321.2375
836.32036	15358.7375
840.16066	15415.8375
843.99827	15425.8375
847.8332	15375.4375
851.66546	15359.0375
855.49504	15299.0375
859.32195	15315.8375
863.1462	15314.4375
866.96777	15301.3375
870.78668	15243.4375
874.60293	15254.9375
878.41652	15254.6375
882.22745	15300.3375
886.03573	15298.6375
889.84136	15318.0375
893.64433	15252.6375
897.44466	15180.2375
901.24235	15164.3375
905.0374	15134.1375
908.8298	15108.2375
912.61957	15160.4375
916.40671	15284.3375
920.19121	15394.6375
923.97308	15484.3375
927.75233	15500.2375
931.52895	15459.6375
935.30295	15306.7375
939.07433	15161.0375
942.84309	14973.1375
946.60924	14923.5375
950.37278	14872.1375
954.13371	14843.0375
957.89203	14783.6375
961.64774	14772.8375
965.40086	14770.1375
969.15137	14713.6375
972.89929	14633.6375
976.64461	14629.8375
980.38733	14635.2375
984.12747	14714.3375
987.86502	14790.8375
991.59999	14922.5375
995.33237	15081.2375
999.06217	15384.7375
1002.78939	15694.6375
1006.51404	15873.3375
1010.23611	15960.3375
1013.95561	16046.1375
1017.67255	16053.9375
1021.38692	15912.2375
1025.09872	15781.9375
1028.80796	15790.3375
1032.51465	16009.7375
1036.21877	16268.3375
1039.92035	16305.8375
1043.61937	16227.3375
1047.31584	16069.9375
1051.00976	15849.9375
1054.70114	15815.3375
1058.38998	15907.2375
1062.07627	16086.4375
1065.76003	16245.4375
1069.44126	16470.8375
1073.11995	16748.7375
1076.79611	16923.8375
1080.46974	16958.7375
1084.14085	16851.6375
1087.80943	16800.8375
1091.47549	16774.0375
1095.13903	16698.0375
1098.80005	16529.3375
1102.45857	16298.0375
1106.11456	16080.1375
1109.76805	16002.1375
1113.41903	16055.7375
1117.06751	16138.1375
1120.71348	16229.1375
1124.35696	16350.8375
1127.99793	16505.8375
1131.63641	16615.5375
1135.2724	16525.1375
1138.90589	16391.9375
1142.5369	16362.9375
1146.16542	16324.6375
1149.79145	16385.1375
1153.415	16513.5375
1157.03607	16657.2375
1160.65467	16957.2375
1164.27079	17441.8375
1167.88443	18080.7375
1171.49561	18926.4375
1175.10432	20027.7375
1178.71056	21374.4375
1182.31434	22584.3375
1185.91565	23070.4375
1189.51451	22796.2375
1193.11091	22126.2375
1196.70485	21327.2375
1200.29634	20584.5375
1203.88538	20123.6375
1207.47197	19801.0375
1211.05612	19548.9375
1214.63782	19295.9375
1218.21708	19069.9375
1221.79391	18923.3375
1225.36829	18787.2375
1228.94024	18634.7375
1232.50976	18388.5375
1236.07685	18210.9375
1239.6415	18155.6375
1243.20374	18164.0375
1246.76355	18285.8375
1250.32093	18497.1375
1253.8759	18797.3375
1257.42845	19159.5375
1260.97859	19498.0375
1264.52631	19817.4375
1268.07163	20159.8375
1271.61453	20572.4375
1275.15503	21023.2375
1278.69312	21514.4375
1282.22882	21941.6375
1285.76211	22385.4375
1289.29301	22969.2375
1292.82151	23697.7375
1296.34761	24551.4375
1299.87133	25632.8375
1303.39266	26801.5375
1306.9116	28105.4375
1310.42815	29388.2375
1313.94233	30216.1375
1317.45412	30411.0375
1320.96354	30048.4375
1324.47058	29502.6375
1327.97525	28972.5375
1331.47754	28489.9375
1334.97747	28222.3375
1338.47502	28074.6375
1341.97022	27879.7375
1345.46305	27515.4375
1348.95352	27105.5375
1352.44163	27045.2375
1355.92738	27496.2375
1359.41078	28534.9375
1362.89183	29518.4375
1366.37053	29189.8375
1369.84688	27303.4375
1373.32088	25008.2375
1376.79254	23314.4375
1380.26186	22642.8375
1383.72883	22530.4375
1387.19347	22464.0375
1390.65578	22319.3375
1394.11575	22293.8375
1397.57339	22463.0375
1401.0287	22864.3375
1404.48168	23199.4375
1407.93234	23213.9375
1411.38068	22875.4375
1414.82669	22282.9375
1418.27039	21485.1375
1421.71177	20702.5375
1425.15083	20062.6375
1428.58758	19682.6375
1432.02203	19694.9375
1435.45416	20004.7375
1438.88399	20426.4375
1442.31151	20826.0375
1445.73673	21152.3375
1449.15965	21443.1375
1452.58027	21644.2375
1455.9986	21731.0375
1459.41463	21888.7375
1462.82837	22204.7375
1466.23982	22574.6375
1469.64898	22915.3375
1473.05586	23140.1375
1476.46045	23180.2375
1479.86276	23086.6375
1483.26279	22906.0375
1486.66054	22727.8375
1490.05602	22704.6375
1493.44922	22784.3375
1496.84016	22849.2375
1500.22882	23159.0375
1503.61521	23744.5375
1506.99934	24478.8375
1510.38121	25059.7375
1513.76081	25243.7375
1517.13816	24801.8375
1520.51324	23976.0375
1523.88607	23242.2375
1527.25665	22745.1375
1530.62498	22554.2375
1533.99105	22467.8375
1537.35488	22364.0375
1540.71647	22118.6375
1544.07581	21840.6375
1547.4329	21541.3375
1550.78776	21212.9375
1554.14038	21009.6375
1557.49077	20900.4375
1560.83892	20885.1375
1564.18484	20927.2375
1567.52853	21126.8375
1570.86999	21371.3375
1574.20922	21793.7375
1577.54624	22236.5375
1580.88103	22396.2375
1584.2136	22449.2375
1587.54395	22575.8375
1590.87208	23048.6375
1594.19801	23908.8375
1597.52172	24911.5375
1600.84321	25255.4375
1604.16251	24475.5375
1607.47959	22987.1375
1610.79447	21385.8375
1614.10715	19926.9375
1617.41763	18781.4375
1620.7259	18006.5375
1624.03199	17602.8375
1627.33587	17590.2375
1630.63757	17948.9375
1633.93707	18703.9375
1637.23439	19991.5375
1640.52951	21809.1375
1643.82246	23860.0375
1647.11321	25561.2375
1650.40179	25958.4375
1653.68819	24656.6375
1656.97241	22192.3375
1660.25446	19747.3375
1663.53433	17838.2375
1666.81203	16573.6375
1670.08756	15773.2375
1673.36092	15248.3375
1676.63211	14907.7375
1679.90115	14662.0375
1683.16801	14483.7375
1686.43272	14364.7375
1689.69527	14267.5375
1692.95567	14196.2375
1696.2139	14199.9375
1699.46999	14156.9375
1702.72392	14116.4375
1705.97571	14086.7375
1709.22535	14035.8375
1712.47284	14016.5375
1715.71819	13983.4375
1718.96139	13949.6375
1722.20246	13908.3375
1725.44139	13888.0375
1728.67818	13839.8375
1731.91284	13773.5375
1735.14537	13720.5375
1738.37576	13650.0375
1741.60403	13634.8375
1744.83017	13611.4375
1748.05418	13583.8375
1751.27607	13562.7375
1754.49584	13552.1375
1757.71349	13530.8375
1760.92903	13546.9375
1764.14244	13551.4375
1767.35375	13532.3375
1770.56294	13495.7375
1773.77002	13500.4375
1776.97499	13470.1375
1780.17785	13459.7375
1783.37861	13421.3375
1786.57727	13395.1375
1789.77382	13371.3375
1792.96828	13346.2375
1796.16064	13344.1375
1799.3509	13307.4375
1802.53907	13281.4375
1805.72514	13246.7375
1808.90913	13246.9375
1812.09102	13193.8375
1815.27083	13149.1375
1818.44856	13156.3375
1821.6242	13143.6375
1824.79776	13115.5375
1827.96924	13115.2375
1831.13864	13091.5375
1834.30597	13102.7375
1837.47122	13099.6375
1840.6344	13110.8375
1843.7955	13074.5375
1846.95454	13080.2375
1850.11151	13067.0375
1853.26642	13075.4375
1856.41926	13074.1375
1859.57004	13050.2375
1862.71876	13032.3375
1865.86542	13025.4375
1869.01003	13029.1375
1872.15258	13034.6375
1875.29308	13039.1375
1878.43152	12999.6375
1881.56792	12977.0375
1884.70227	12957.9375
1887.83457	12978.7375
1890.96482	12921.3375
1894.09304	12916.3375
1897.21921	12929.7375
1900.34335	12914.3375
1903.46544	12931.1375
1906.58551	12916.6375
1909.70353	12878.1375
1912.81953	12867.2375
1915.93349	12855.4375
1919.04543	12828.0375
1922.15534	12808.4375
1925.26322	12791.9375
1928.36908	12783.5375
1931.47292	12753.9375
1934.57473	12732.6375
1937.67453	12688.0375
1940.77232	12646.2375
1943.86808	12634.5375
1946.96184	12621.0375
1950.05358	12593.4375
1953.14331	12577.5375
1956.23103	12545.2375
1959.31675	12497.3375
1962.40046	12451.8375
1965.48217	12419.7375
1968.56188	12406.8375
1971.63959	12380.7375
1974.7153	12296.4375
1977.78901	12282.4375
1980.86073	12246.8375
1983.93046	12217.7375
1986.99819	12205.5375
1990.06394	12200.4375
1993.1277	12089.0375
1996.18947	12062.7375
1999.24925	12023.5375
2002.30706	11993.7375
2005.36288	11970.0375
2008.41672	11957.0375
2011.46859	11965.1375
2014.51848	11895.5375
2017.56639	11879.4375
2020.61233	11848.3375
2023.6563	11797.6375
2026.6983	11795.8375
2029.73833	11783.7375
2032.7764	11762.7375
2035.8125	11736.0375
2038.84664	11706.3375
2041.87881	11674.2375
2044.90903	11658.9375
2047.93729	11626.9375
2050.96359	11649.9375
2053.98794	11629.1375
2057.01034	11649.6375
2060.03078	11616.2375
2063.04927	11597.2375
2066.06582	11606.5375
2069.08042	11614.2375
2072.09307	11571.2375
2075.10378	11579.2375
2078.11255	11570.1375
2081.11938	11566.3375
2084.12426	11574.6375
2087.12722	11576.1375
2090.12824	11552.4375
2093.12732	11576.3375
2096.12447	11580.4375
2099.11969	11563.6375
2102.11299	11583.9375
2105.10435	11577.7375
2108.09379	11594.6375
2111.08131	11601.5375
2114.0669	11598.6375
2117.05057	11627.3375
2120.03233	11621.6375
2123.01216	11634.7375
2125.99008	11618.7375
2128.96609	11657.0375
2131.94018	11659.0375
2134.91236	11685.4375
2137.88263	11669.1375
2140.851	11691.3375
2143.81746	11705.9375
2146.78201	11710.5375
2149.74466	11703.2375
2152.7054	11713.1375
2155.66425	11727.0375
2158.6212	11740.4375
2161.57625	11713.4375
2164.52941	11722.0375
2167.48067	11691.9375
2170.43004	11715.3375
2173.37752	11704.9375
2176.32311	11681.4375
2179.26681	11707.0375
2182.20863	11690.4375
2185.14856	11698.5375
2188.08661	11696.5375
2191.02278	11674.1375
2193.95707	11695.8375
2196.88948	11682.6375
2199.82001	11692.8375
2202.74867	11661.4375
2205.67545	11680.1375
2208.60037	11665.9375
2211.52341	11661.9375
2214.44458	11651.8375
2217.36388	11637.4375
2220.28132	11616.0375
2223.1969	11572.8375
2226.11061	11576.0375
2229.02246	11579.6375
2231.93245	11549.4375
2234.84058	11523.8375
2237.74686	11490.8375
2240.65128	11498.3375
2243.55385	11444.0375
2246.45456	11448.3375
2249.35343	11448.0375
2252.25044	11441.6375
2255.14561	11400.2375
2258.03893	11423.9375
2260.93041	11382.2375
2263.82004	11368.9375
2266.70783	11335.3375
2269.59378	11313.2375
2272.4779	11294.5375
2275.36017	11267.3375
2278.24061	11230.4375
2281.11922	11199.0375
2283.996	11191.9375
2286.87094	11200.7375
2289.74405	11157.5375
2292.61534	11178.4375
2295.4848	11148.8375
2298.35243	11158.3375
2301.21824	11138.5375
2304.08223	11167.6375
2306.94439	11136.5375
2309.80474	11134.5375
2312.66327	11136.2375
2315.51999	11123.6375
2318.37489	11128.5375
2321.22797	11129.5375
2324.07925	11104.1375
2326.92871	11096.2375
2329.77637	11087.2375
2332.62222	11090.2375
2335.46626	11065.6375
2338.3085	11060.3375
2341.14893	11036.4375
2343.98756	11064.5375
2346.8244	11030.2375
2349.65943	11051.7375
2352.49267	11045.3375
2355.32411	11029.9375
2358.15376	11020.3375
2360.98161	11017.8375
2363.80768	11013.0375
2366.63195	10990.1375
2369.45444	10965.4375
2372.27514	10973.5375
2375.09405	10976.6375
2377.91118	10937.8375
2380.72652	10911.3375
2383.54009	10880.6375
2386.35187	10884.8375
2389.16188	10857.1375
2391.97011	10853.9375
2394.77657	10842.4375
2397.58125	10820.6375
2400.38416	10809.4375
2403.18529	10783.2375
2405.98466	10795.2375
2408.78226	10724.1375
2411.57809	10737.9375
2414.37216	10722.3375
2417.16446	10709.6375
2419.955	10716.8375
2422.74378	10708.4375
2425.5308	10688.6375
2428.31606	10649.2375
2431.09956	10661.1375
2433.88131	10633.7375
2436.6613	10641.4375
2439.43954	10662.7375
2442.21603	10631.0375
2444.99077	10615.5375
2447.76377	10643.5375
2450.53501	10598.4375
2453.30451	10584.1375
2456.07226	10583.6375
2458.83827	10626.5375
2461.60254	10580.5375
2464.36507	10583.1375
2467.12586	10601.4375
2469.88492	10566.4375
2472.64224	10592.8375
2475.39782	10606.8375
2478.15167	10584.9375
2480.90379	10600.5375
2483.65417	10592.5375
2486.40283	10594.2375
2489.14976	10593.5375
2491.89497	10607.3375
2494.63845	10616.9375
2497.3802	10579.0375
2500.12024	10586.0375
2502.85855	10571.2375
2505.59514	10577.2375
2508.33002	10568.1375
2511.06318	10550.7375
2513.79462	10547.3375
2516.52435	10548.1375
2519.25237	10547.9375
2521.97867	10528.5375
2524.70327	10513.4375
2527.42616	10491.6375
2530.14734	10487.1375
2532.86681	10464.7375
2535.58458	10469.2375
2538.30065	10455.8375
2541.01501	10437.0375
2543.72768	10463.0375
2546.43864	10408.5375
2549.14791	10414.3375
2551.85548	10404.9375
2554.56136	10393.9375
2557.26554	10366.9375
2559.96803	10360.6375
2562.66883	10348.5375
2565.36794	10366.6375
2568.06536	10355.8375
2570.7611	10349.7375
2573.45514	10350.5375
2576.14751	10315.2375
2578.83819	10313.6375
2581.52719	10307.3375
2584.21451	10288.9375
2586.90015	10281.7375
2589.58411	10261.0375
2592.2664	10264.2375
2594.94701	10245.5375
2597.62594	10225.1375
2600.30321	10200.6375
2602.9788	10205.8375
2605.65273	10204.1375
2608.32498	10181.9375
2610.99557	10183.4375
2613.66449	10184.3375
2616.33175	10189.2375
2618.99734	10178.2375
2621.66128	10178.7375
2624.32355	10167.8375
2626.98416	10163.9375
2629.64311	10164.4375
2632.30041	10152.8375
2634.95605	10153.9375
2637.61004	10161.1375
2640.26238	10138.7375
2642.91306	10123.0375
2645.56209	10111.6375
2648.20948	10123.3375
2650.85521	10115.2375
2653.4993	10104.0375
2656.14175	10090.4375
2658.78255	10119.5375
2661.42171	10091.2375
2664.05923	10103.1375
2666.6951	10115.6375
2669.32934	10093.0375
2671.96194	10121.5375
2674.59291	10095.3375
2677.22224	10109.3375
2679.84993	10112.7375
2682.476	10114.7375
2685.10043	10099.5375
2687.72324	10103.7375
2690.34441	10111.1375
2692.96396	10100.4375
2695.58188	10109.0375
2698.19818	10079.5375
2700.81285	10108.8375
2703.4259	10103.3375
2706.03733	10178.6375
2708.64714	10149.2375
2711.25533	10129.2375
2713.86191	10141.5375
2716.46687	10126.3375
2719.07021	10128.2375
2721.67194	10113.6375
2724.27206	10093.4375
2726.87057	10147.2375
2729.46747	10118.0375
2732.06276	10114.7375
2734.65644	10114.9375
2737.24852	10116.8375
2739.83899	10118.8375
2742.42786	10127.3375
2745.01513	10113.2375
2747.60079	10112.6375
2750.18486	10116.6375
2752.76733	10098.2375
2755.3482	10092.3375
2757.92747	10097.5375
2760.50515	10066.1375
2763.08123	10065.0375
2765.65573	10056.8375
2768.22863	10052.6375
2770.79994	10071.8375
2773.36967	10049.0375
2775.9378	10040.3375
2778.50435	10030.3375
2781.06932	10004.2375
2783.6327	9994.7375
2786.1945	10004.2375
2788.75471	9993.7375
2791.31335	9958.4375
2793.87041	9962.2375
2796.42589	9938.3375
2798.97979	9938.5375
2801.53212	9929.5375
2804.08288	9890.2375
2806.63206	9897.3375
2809.17967	9867.0375
2811.72571	9823.0375
2814.27018	9840.1375
2816.81308	9851.8375
2819.35442	9802.1375
2821.89419	9770.7375
2824.43239	9808.8375
2826.96904	9775.5375
2829.50412	9779.7375
2832.03763	9728.9375
2834.56959	9770.2375
2837.1	9750.1375
2839.62884	9720.8375
2842.15613	9723.1375
2844.68186	9723.6375
2847.20604	9723.0375
2849.72867	9742.9375
2852.24974	9700.9375
2854.76927	9745.1375
2857.28724	9738.3375
2859.80367	9712.9375
2862.31855	9718.3375
2864.83189	9670.8375
2867.34368	9659.5375
2869.85393	9687.6375
2872.36264	9653.6375
2874.8698	9678.2375
2877.37543	9667.2375
2879.87952	9677.9375
2882.38207	9672.9375
2884.88308	9661.3375
2887.38256	9689.8375
2889.88051	9680.9375
2892.37692	9673.5375
2894.8718	9660.3375
2897.36515	9675.2375
2899.85698	9690.4375
2902.34727	9697.8375
2904.83604	9698.0375
2907.32328	9688.9375
2909.809	9716.5375
2912.29319	9739.6375
2914.77587	9710.4375
2917.25702	9721.4375
2919.73665	9696.3375
2922.21476	9721.7375
2924.69136	9731.3375
2927.16644	9706.8375
2929.64	9725.8375
2932.11205	9688.5375
2934.58258	9656.4375
2937.05161	9702.7375
2939.51912	9715.7375
2941.98513	9667.3375
2944.44962	9651.5375
2946.91261	9605.7375
2949.37409	9640.3375
2951.83407	9643.7375
2954.29254	9639.7375
2956.74951	9605.1375
2959.20498	9609.7375
2961.65895	9624.2375
2964.11142	9603.8375
2966.56239	9594.0375
2969.01186	9590.3375
2971.45984	9562.5375
2973.90632	9545.4375
2976.35131	9511.0375
2978.7948	9485.8375
2981.23681	9496.5375
2983.67732	9470.3375
2986.11635	9491.0375
2988.55388	9440.9375
2990.98993	9426.3375
2993.4245	9405.2375
2995.85758	9416.6375
2998.28917	9388.5375
3000.71928	9357.5375
3003.14791	9361.7375
3005.57506	9368.0375
3008.00073	9341.8375
3010.42493	9322.4375
3012.84764	9311.7375
3015.26888	9283.6375
3017.68865	9261.1375
3020.10694	9275.3375
3022.52376	9246.1375
3024.9391	9254.3375
3027.35298	9237.2375
3029.76539	9241.7375
3032.17632	9251.2375
3034.5858	9210.3375
3036.9938	9223.8375
3039.40034	9210.3375
3041.80542	9222.3375
3044.20903	9182.8375
3046.61118	9191.3375
3049.01187	9165.1375
3051.4111	9156.8375
3053.80888	9160.6375
3056.20519	9144.0375
3058.60005	9114.8375
3060.99345	9111.3375
3063.3854	9086.5375
3065.7759	9058.4375
3068.16494	9045.7375
3070.55254	9023.6375
3072.93868	9043.7375
3075.32338	9011.7375
3077.70662	8989.7375
3080.08842	8974.3375
3082.46878	8968.9375
3084.84769	8981.1375
3087.22515	8955.4375
3089.60118	8939.9375
3091.97576	8961.0375
3094.3489	8976.7375
3096.72061	8953.4375
3099.09087	8949.4375
3101.4597	8968.0375
3103.82709	8950.8375
3106.19305	8923.6375
3108.55757	8927.7375
3110.92066	8881.0375
3113.28232	8898.0375
3115.64255	8881.0375
3118.00134	8842.3375
3120.35871	8862.6375
3122.71466	8858.3375
3125.06917	8849.7375
3127.42226	8822.1375
3129.77393	8852.1375
3132.12417	8833.9375
3134.47299	8860.7375
3136.82039	8844.2375
3139.16636	8838.6375
3141.51092	8835.6375
3143.85406	8874.1375
3146.19579	8854.6375
3148.53609	8863.2375
3150.87499	8870.7375
3153.21246	8857.0375
3155.54853	8869.9375
3157.88318	8897.1375
3160.21642	8888.7375
3162.54826	8898.2375
3164.87868	8871.3375
3167.2077	8855.4375
3169.5353	8873.3375
3171.86151	8894.2375
3174.18631	8860.4375
3176.5097	8870.8375
3178.83169	8853.2375
3181.15228	8849.8375
3183.47147	8872.2375
3185.78926	8876.0375
3188.10565	8844.8375
3190.42065	8840.7375
3192.73424	8850.5375
3195.04645	8834.4375
3197.35725	8856.8375
3199.66667	8848.7375
3201.97469	8847.4375
3204.28132	8886.5375
3206.58656	8864.6375
3208.8904	8873.4375
3211.19287	8886.4375
3213.49394	8896.3375
3215.79363	8864.7375
3218.09193	8877.6375
3220.38884	8878.5375
3222.68438	8894.9375
3224.97853	8862.2375
3227.2713	8841.4375
3229.56269	8827.9375
3231.8527	8859.7375
3234.14133	8848.5375
3236.42858	8812.8375
3238.71446	8792.9375
3240.99896	8782.6375
3243.28209	8801.1375
3245.56384	8777.2375
3247.84423	8787.8375
3250.12324	8791.5375
3252.40088	8791.1375
3254.67715	8775.2375
3256.95205	8752.6375
3259.22558	8776.5375
3261.49775	8776.0375
3263.76855	8744.2375
3266.03799	8719.3375
3268.30606	8732.5375
3270.57277	8697.4375
3272.83812	8688.1375
3275.10211	8675.8375
3277.36474	8685.8375
3279.62601	8673.7375
3281.88593	8656.8375
3284.14448	8677.0375
3286.40168	8686.1375
3288.65753	8674.9375
3290.91202	8633.2375
3293.16516	8643.4375
3295.41695	8589.0375
3297.66738	8565.8375
3299.91647	8512.1375
3302.16421	8482.8375
3304.4106	8429.6375
3306.65564	8386.0375
3308.89933	8349.1375
3311.14169	8307.5375
3313.38269	8242.2375
3315.62236	8207.4375
3317.86068	8131.4375
3320.09766	8056.3375
3322.3333	7992.7375
3324.5676	8012.0375
3326.80056	7871.5375
3329.03219	7820.7375
3331.26248	4.2375
3333.49143	-0.4625
3335.71905	-0.8625
