Data from AgNP_FTO_APTES_CRN_1uM_R6G_10uM_NaF_0.1M_Addition_RamanShift__24__14-13-30-809.txt Node

Date: Wed Dec 15 14:13:30 GMT 2021
User: TCL
Spectrometer: QEP01345
Trigger mode: 4
Integration Time (sec): 7.000000E0
Scans to average: 10
Electric dark correction enabled: true
Nonlinearity correction enabled: false
Boxcar width: 0
XAxis mode: Raman Shifts
Number of Pixels in Spectrum: 1044
>>>>>Begin Spectral Data<<<<<
46.04893	0.625
50.45542	-1.975
54.85868	-0.675
59.25871	-2.875
63.6555	146.125
68.04907	163.525
72.43941	168.725
76.82654	175.425
81.21044	184.625
85.59113	194.825
89.96862	197.125
94.34289	205.425
98.71396	208.125
103.08183	221.325
107.4465	230.125
111.80798	234.825
116.16626	237.325
120.52136	239.825
124.87327	245.925
129.222	256.425
133.56755	272.925
137.90993	294.525
142.24913	317.125
146.58517	350.625
150.91804	405.425
155.24774	474.725
159.57429	582.525
163.89768	743.225
168.21792	968.625
172.53501	1309.525
176.84895	1819.825
181.15975	2532.325
185.46741	3550.525
189.77193	4866.225
194.07331	6509.025
198.37157	8379.125
202.6667	10338.025
206.9587	12252.825
211.24758	14137.025
215.53334	16082.925
219.81599	18158.825
224.09553	20435.225
228.37195	23018.725
232.64527	25826.925
236.91549	28774.325
241.18261	31650.625
245.44663	34252.825
249.70755	36550.825
253.96539	38491.925
258.22014	40258.825
262.4718	41729.025
266.72039	42788.525
270.96589	43457.025
275.20832	43620.425
279.44768	43379.725
283.68397	42942.225
287.91719	42640.925
292.14735	42448.525
296.37445	42614.925
300.59849	42906.525
304.81948	43443.025
309.03742	43699.625
313.25231	43406.825
317.46415	42287.725
321.67296	40706.425
325.87872	39449.525
330.08145	38838.325
334.28114	38773.125
338.47781	39236.925
342.67145	39846.125
346.86207	40732.225
351.04966	41961.325
355.23424	43259.025
359.4158	44363.925
363.59435	45072.725
367.76989	45515.525
371.94243	45651.625
376.11196	45744.525
380.27849	45798.325
384.44203	45900.325
388.60257	46001.225
392.76012	46231.225
396.91468	46890.525
401.06626	47773.725
405.21485	48528.225
409.36047	48386.525
413.50311	47454.725
417.64277	46582.425
421.77947	46261.825
425.9132	46343.225
430.04396	46557.425
434.17176	46884.225
438.2966	47318.825
442.41849	48121.425
446.53742	49324.425
450.6534	50761.925
454.76644	52009.025
458.87653	52463.025
462.98368	52321.925
467.08789	51576.725
471.18916	50568.125
475.2875	49454.425
479.38291	48678.825
483.4754	48004.925
487.56496	47505.525
491.6516	46984.725
495.73531	46532.625
499.81612	46437.825
503.89401	46756.425
507.96899	47005.825
512.04106	47119.025
516.11023	47218.125
520.1765	47171.325
524.23987	47033.125
528.30034	46575.825
532.35792	45934.025
536.41261	45210.325
540.46441	44503.425
544.51333	44371.725
548.55936	44859.825
552.60252	45704.425
556.64279	46524.925
560.6802	47011.625
564.71473	47323.425
568.7464	48195.225
572.7752	49221.525
576.80114	49730.225
580.82422	50127.225
584.84444	50687.525
588.86181	51266.925
592.87633	52076.425
596.888	53027.325
600.89682	54068.825
604.9028	57247.025
608.90594	64262.925
612.90624	71362.025
616.90371	66939.025
620.89834	54413.325
624.89015	48947.525
628.87913	48242.925
632.86528	48095.925
636.84862	47608.125
640.82913	46624.825
644.80683	45072.825
648.78172	44029.725
652.75379	43986.125
656.72306	44824.125
660.68952	45919.325
664.65319	45875.225
668.61405	44832.625
672.57211	44313.325
676.52738	44293.025
680.47986	44207.525
684.42955	44050.525
688.37646	44088.525
692.32058	44249.925
696.26192	44704.325
700.20048	45226.825
704.13626	45615.925
708.06928	45417.025
711.99952	44998.625
715.927	44907.125
719.85171	45005.125
723.77365	44765.225
727.69284	44181.325
731.60928	43747.125
735.52295	43669.625
739.43388	43737.225
743.34206	43961.825
747.24749	44303.725
751.15017	44737.625
755.05012	45550.925
758.94733	47125.125
762.8418	49996.425
766.73354	54609.725
770.62254	59130.225
774.50882	60331.225
778.39237	57192.225
782.27321	52182.125
786.15132	48044.725
790.02671	45681.025
793.89938	44628.125
797.76935	44229.825
801.6366	44141.225
805.50115	43936.825
809.36299	43584.225
813.22213	43372.825
817.07857	43244.925
820.93231	43261.425
824.78336	43252.725
828.63172	43265.825
832.47738	43393.225
836.32036	43580.425
840.16066	43832.325
843.99827	44078.225
847.8332	43960.925
851.66546	43646.125
855.49504	43445.325
859.32195	43343.025
863.1462	43106.525
866.96777	42752.625
870.78668	42597.525
874.60293	42528.525
878.41652	42589.925
882.22745	42727.825
886.03573	42908.625
889.84136	42817.925
893.64433	42564.625
897.44466	42425.925
901.24235	42321.825
905.0374	42284.525
908.8298	42256.925
912.61957	42382.925
916.40671	42757.925
920.19121	43521.525
923.97308	44257.225
927.75233	44770.825
931.52895	44720.125
935.30295	44099.725
939.07433	43132.825
942.84309	42405.525
946.60924	42181.825
950.37278	42051.125
954.13371	41731.625
957.89203	41361.225
961.64774	41126.125
965.40086	41036.325
969.15137	40903.225
972.89929	40750.825
976.64461	40751.725
980.38733	40873.425
984.12747	41159.525
987.86502	41668.425
991.59999	42483.925
995.33237	43654.425
999.06217	45469.025
1002.78939	47582.525
1006.51404	48887.925
1010.23611	49534.025
1013.95561	49808.325
1017.67255	49566.325
1021.38692	48922.825
1025.09872	48656.425
1028.80796	49815.225
1032.51465	52342.525
1036.21877	54453.025
1039.92035	54761.625
1043.61937	53405.325
1047.31584	51168.725
1051.00976	48775.725
1054.70114	47340.825
1058.38998	46994.925
1062.07627	47114.825
1065.76003	47366.425
1069.44126	48009.625
1073.11995	49027.125
1076.79611	50000.425
1080.46974	50451.025
1084.14085	50641.425
1087.80943	50797.325
1091.47549	50582.625
1095.13903	49899.825
1098.80005	48786.725
1102.45857	47732.225
1106.11456	47062.125
1109.76805	47012.125
1113.41903	47405.825
1117.06751	47927.525
1120.71348	48554.125
1124.35696	49106.025
1127.99793	49835.925
1131.63641	50055.125
1135.2724	49562.625
1138.90589	48886.625
1142.5369	48410.725
1146.16542	48087.625
1149.79145	48033.325
1153.415	48342.125
1157.03607	48948.625
1160.65467	50065.125
1164.27079	51917.725
1167.88443	54623.225
1171.49561	58438.525
1175.10432	63676.125
1178.71056	70300.725
1182.31434	76335.925
1185.91565	79304.025
1189.51451	78922.325
1193.11091	75439.425
1196.70485	70915.125
1200.29634	67091.625
1203.88538	64291.125
1207.47197	62007.025
1211.05612	60257.725
1214.63782	59320.225
1218.21708	59066.425
1221.79391	59354.625
1225.36829	59562.025
1228.94024	59102.525
1232.50976	58261.825
1236.07685	57547.325
1239.6415	57202.225
1243.20374	57146.425
1246.76355	57505.725
1250.32093	58480.125
1253.8759	60065.525
1257.42845	62082.525
1260.97859	63849.025
1264.52631	65367.725
1268.07163	67087.625
1271.61453	69144.025
1275.15503	71454.925
1278.69312	73854.225
1282.22882	75780.625
1285.76211	77314.725
1289.29301	78905.325
1292.82151	80853.025
1296.34761	83557.825
1299.87133	87717.725
1303.39266	93333.825
1306.9116	100307.625
1310.42815	107554.725
1313.94233	112190.325
1317.45412	112138.725
1320.96354	108703.225
1324.47058	104473.125
1327.97525	100681.425
1331.47754	98205.925
1334.97747	97364.925
1338.47502	97628.925
1341.97022	97794.125
1345.46305	97225.225
1348.95352	96278.825
1352.44163	96424.625
1355.92738	99331.225
1359.41078	105825.525
1362.89183	112234.925
1366.37053	110610.325
1369.84688	100328.925
1373.32088	88490.625
1376.79254	80202.625
1380.26186	76360.825
1383.72883	75026.725
1387.19347	73873.625
1390.65578	72580.625
1394.11575	71946.325
1397.57339	72307.425
1401.0287	73570.025
1404.48168	75156.125
1407.93234	76521.025
1411.38068	77147.925
1414.82669	76350.825
1418.27039	74200.725
1421.71177	71277.025
1425.15083	68679.725
1428.58758	67042.025
1432.02203	66928.425
1435.45416	67875.425
1438.88399	69110.525
1442.31151	70186.125
1445.73673	71072.325
1449.15965	71819.825
1452.58027	72139.225
1455.9986	71964.425
1459.41463	72089.625
1462.82837	72872.425
1466.23982	74383.225
1469.64898	76026.825
1473.05586	77248.425
1476.46045	77777.725
1479.86276	78152.625
1483.26279	78407.725
1486.66054	78545.125
1490.05602	79267.825
1493.44922	80137.825
1496.84016	81048.125
1500.22882	82662.925
1503.61521	85199.825
1506.99934	88925.125
1510.38121	92789.925
1513.76081	94775.125
1517.13816	93019.725
1520.51324	88196.025
1523.88607	83110.625
1527.25665	79625.225
1530.62498	77440.125
1533.99105	76345.625
1537.35488	75481.125
1540.71647	74796.425
1544.07581	73918.025
1547.4329	72947.225
1550.78776	71824.125
1554.14038	71093.125
1557.49077	70807.125
1560.83892	70804.725
1564.18484	70941.225
1567.52853	70988.925
1570.86999	71491.925
1574.20922	72496.325
1577.54624	73678.925
1580.88103	74019.025
1584.2136	74188.625
1587.54395	75415.525
1590.87208	78387.525
1594.19801	83307.725
1597.52172	88835.925
1600.84321	90649.325
1604.16251	86862.725
1607.47959	79878.325
1610.79447	72587.625
1614.10715	65966.625
1617.41763	60947.425
1620.7259	57629.525
1624.03199	56125.125
1627.33587	56294.025
1630.63757	58031.725
1633.93707	61604.325
1637.23439	66522.925
1640.52951	72959.325
1643.82246	79807.225
1647.11321	85240.725
1650.40179	86274.525
1653.68819	81255.825
1656.97241	71580.825
1660.25446	61573.125
1663.53433	54278.725
1666.81203	49573.625
1670.08756	46709.625
1673.36092	44932.825
1676.63211	43657.125
1679.90115	42797.725
1683.16801	42113.025
1686.43272	41632.225
1689.69527	41286.225
1692.95567	41064.525
1696.2139	40951.925
1699.46999	40828.825
1702.72392	40701.925
1705.97571	40591.825
1709.22535	40566.025
1712.47284	40530.625
1715.71819	40511.725
1718.96139	40402.025
1722.20246	40270.025
1725.44139	40065.425
1728.67818	39886.625
1731.91284	39679.425
1735.14537	39480.125
1738.37576	39357.125
1741.60403	39145.325
1744.83017	39046.625
1748.05418	38922.725
1751.27607	38882.725
1754.49584	38791.425
1757.71349	38758.025
1760.92903	38733.725
1764.14244	38765.325
1767.35375	38738.925
1770.56294	38683.225
1773.77002	38602.925
1776.97499	38600.425
1780.17785	38536.825
1783.37861	38476.125
1786.57727	38502.025
1789.77382	38416.825
1792.96828	38355.625
1796.16064	38338.025
1799.3509	38246.725
1802.53907	38219.625
1805.72514	38153.725
1808.90913	37976.425
1812.09102	37945.125
1815.27083	37899.425
1818.44856	37845.325
1821.6242	37773.125
1824.79776	37776.225
1827.96924	37742.025
1831.13864	37718.925
1834.30597	37723.125
1837.47122	37762.025
1840.6344	37748.125
1843.7955	37749.125
1846.95454	37717.325
1850.11151	37709.125
1853.26642	37724.425
1856.41926	37683.825
1859.57004	37734.325
1862.71876	37753.225
1865.86542	37721.225
1869.01003	37772.325
1872.15258	37786.225
1875.29308	37822.725
1878.43152	37738.025
1881.56792	37782.425
1884.70227	37807.925
1887.83457	37826.325
1890.96482	37878.625
1894.09304	37780.925
1897.21921	37815.725
1900.34335	37778.025
1903.46544	37755.825
1906.58551	37775.825
1909.70353	37811.425
1912.81953	37804.025
1915.93349	37751.825
1919.04543	37642.925
1922.15534	37645.825
1925.26322	37516.525
1928.36908	37497.625
1931.47292	37386.625
1934.57473	37277.925
1937.67453	37142.125
1940.77232	37000.225
1943.86808	36846.825
1946.96184	36701.025
1950.05358	36589.525
1953.14331	36446.225
1956.23103	36346.425
1959.31675	36243.125
1962.40046	36158.425
1965.48217	36074.825
1968.56188	35972.525
1971.63959	35880.025
1974.7153	35716.725
1977.78901	35630.825
1980.86073	35545.825
1983.93046	35424.425
1986.99819	35303.525
1990.06394	35224.225
1993.1277	35095.825
1996.18947	35047.825
1999.24925	34933.025
2002.30706	34785.425
2005.36288	34707.425
2008.41672	34631.525
2011.46859	34495.425
2014.51848	34437.725
2017.56639	34424.525
2020.61233	34253.725
2023.6563	34216.825
2026.6983	34169.625
2029.73833	34137.125
2032.7764	34143.825
2035.8125	34094.825
2038.84664	34052.025
2041.87881	34050.225
2044.90903	33955.325
2047.93729	33921.525
2050.96359	33915.025
2053.98794	33800.025
2057.01034	33755.925
2060.03078	33749.625
2063.04927	33719.925
2066.06582	33740.425
2069.08042	33654.125
2072.09307	33632.425
2075.10378	33594.525
2078.11255	33541.125
2081.11938	33549.525
2084.12426	33485.425
2087.12722	33492.025
2090.12824	33393.625
2093.12732	33426.425
2096.12447	33422.425
2099.11969	33404.625
2102.11299	33448.825
2105.10435	33405.925
2108.09379	33509.025
2111.08131	33489.425
2114.0669	33450.625
2117.05057	33532.525
2120.03233	33543.225
2123.01216	33582.225
2125.99008	33599.825
2128.96609	33642.725
2131.94018	33685.925
2134.91236	33636.725
2137.88263	33653.725
2140.851	33706.125
2143.81746	33736.325
2146.78201	33728.225
2149.74466	33764.525
2152.7054	33784.125
2155.66425	33776.425
2158.6212	33801.425
2161.57625	33759.825
2164.52941	33755.325
2167.48067	33718.825
2170.43004	33736.825
2173.37752	33700.025
2176.32311	33694.925
2179.26681	33744.825
2182.20863	33734.625
2185.14856	33773.725
2188.08661	33804.225
2191.02278	33813.925
2193.95707	33773.525
2196.88948	33790.725
2199.82001	33829.825
2202.74867	33788.525
2205.67545	33777.425
2208.60037	33801.725
2211.52341	33828.225
2214.44458	33835.825
2217.36388	33735.025
2220.28132	33736.925
2223.1969	33671.725
2226.11061	33605.525
2229.02246	33554.425
2231.93245	33517.125
2234.84058	33388.025
2237.74686	33337.325
2240.65128	33291.325
2243.55385	33294.725
2246.45456	33200.525
2249.35343	33172.425
2252.25044	33114.525
2255.14561	33067.925
2258.03893	33063.325
2260.93041	32986.925
2263.82004	32899.425
2266.70783	32873.625
2269.59378	32764.125
2272.4779	32700.925
2275.36017	32575.225
2278.24061	32523.425
2281.11922	32521.925
2283.996	32465.625
2286.87094	32410.125
2289.74405	32348.425
2292.61534	32387.525
2295.4848	32370.425
2298.35243	32440.425
2301.21824	32431.525
2304.08223	32480.225
2306.94439	32511.825
2309.80474	32546.225
2312.66327	32573.825
2315.51999	32577.625
2318.37489	32638.925
2321.22797	32660.525
2324.07925	32614.325
2326.92871	32622.125
2329.77637	32623.825
2332.62222	32585.425
2335.46626	32611.625
2338.3085	32590.525
2341.14893	32692.525
2343.98756	32719.725
2346.8244	32677.225
2349.65943	32688.425
2352.49267	32677.025
2355.32411	32688.125
2358.15376	32662.425
2360.98161	32630.925
2363.80768	32537.925
2366.63195	32524.525
2369.45444	32465.825
2372.27514	32407.525
2375.09405	32348.525
2377.91118	32210.125
2380.72652	32082.125
2383.54009	31943.825
2386.35187	31955.725
2389.16188	31877.825
2391.97011	31827.425
2394.77657	31837.625
2397.58125	31797.825
2400.38416	31781.225
2403.18529	31707.825
2405.98466	31619.425
2408.78226	31538.525
2411.57809	31451.725
2414.37216	31404.825
2417.16446	31395.225
2419.955	31284.925
2422.74378	31248.525
2425.5308	31184.525
2428.31606	31235.525
2431.09956	31237.025
2433.88131	31180.525
2436.6613	31216.725
2439.43954	31166.825
2442.21603	31189.225
2444.99077	31169.925
2447.76377	31126.725
2450.53501	31090.725
2453.30451	31122.725
2456.07226	31138.125
2458.83827	31132.525
2461.60254	31107.425
2464.36507	31140.825
2467.12586	31128.725
2469.88492	31114.125
2472.64224	31142.125
2475.39782	31132.625
2478.15167	31220.925
2480.90379	31265.725
2483.65417	31303.125
2486.40283	31274.625
2489.14976	31308.125
2491.89497	31304.125
2494.63845	31368.625
2497.3802	31393.325
2500.12024	31353.325
2502.85855	31405.925
2505.59514	31362.025
2508.33002	31319.025
2511.06318	31252.525
2513.79462	31211.525
2516.52435	31183.725
2519.25237	31152.525
2521.97867	31159.725
2524.70327	31108.525
2527.42616	31076.525
2530.14734	31078.825
2532.86681	31059.325
2535.58458	31059.425
2538.30065	31042.225
2541.01501	31024.425
2543.72768	30970.225
2546.43864	30999.625
2549.14791	30982.725
2551.85548	30932.425
2554.56136	30944.425
2557.26554	30894.325
2559.96803	30914.125
2562.66883	30892.225
2565.36794	30849.425
2568.06536	30848.625
2570.7611	30847.125
2573.45514	30825.925
2576.14751	30847.125
2578.83819	30803.325
2581.52719	30847.125
2584.21451	30824.225
2586.90015	30828.425
2589.58411	30827.725
2592.2664	30828.725
2594.94701	30767.025
2597.62594	30773.325
2600.30321	30760.125
2602.9788	30807.525
2605.65273	30743.325
2608.32498	30716.225
2610.99557	30755.625
2613.66449	30785.925
2616.33175	30760.525
2618.99734	30834.725
2621.66128	30829.025
2624.32355	30877.225
2626.98416	30864.325
2629.64311	30858.925
2632.30041	30863.525
2634.95605	30852.225
2637.61004	30824.925
2640.26238	30763.025
2642.91306	30694.225
2645.56209	30651.925
2648.20948	30593.825
2650.85521	30617.025
2653.4993	30548.025
2656.14175	30543.625
2658.78255	30548.725
2661.42171	30537.825
2664.05923	30606.025
2666.6951	30643.225
2669.32934	30678.925
2671.96194	30722.925
2674.59291	30711.225
2677.22224	30703.925
2679.84993	30695.525
2682.476	30666.525
2685.10043	30684.725
2687.72324	30575.925
2690.34441	30597.725
2692.96396	30554.825
2695.58188	30545.525
2698.19818	30499.325
2700.81285	30521.425
2703.4259	30477.425
2706.03733	30471.625
2708.64714	30515.725
2711.25533	30492.425
2713.86191	30502.725
2716.46687	30553.725
2719.07021	30503.625
2721.67194	30558.325
2724.27206	30516.025
2726.87057	30547.625
2729.46747	30520.825
2732.06276	30545.025
2734.65644	30521.025
2737.24852	30551.825
2739.83899	30541.925
2742.42786	30562.925
2745.01513	30581.525
2747.60079	30549.425
2750.18486	30548.525
2752.76733	30583.025
2755.3482	30539.025
2757.92747	30511.825
2760.50515	30434.225
2763.08123	30449.025
2765.65573	30414.125
2768.22863	30473.225
2770.79994	30419.225
2773.36967	30448.625
2775.9378	30445.925
2778.50435	30385.925
2781.06932	30338.325
2783.6327	30403.625
2786.1945	30347.825
2788.75471	30354.925
2791.31335	30310.625
2793.87041	30290.925
2796.42589	30152.725
2798.97979	30141.825
2801.53212	30074.425
2804.08288	30097.825
2806.63206	29985.925
2809.17967	29950.825
2811.72571	29915.825
2814.27018	29938.725
2816.81308	29911.725
2819.35442	29885.225
2821.89419	29843.325
2824.43239	29811.625
2826.96904	29814.325
2829.50412	29841.025
2832.03763	29719.325
2834.56959	29731.625
2837.1	29698.325
2839.62884	29667.325
2842.15613	29674.925
2844.68186	29658.125
2847.20604	29588.525
2849.72867	29590.225
2852.24974	29543.625
2854.76927	29537.925
2857.28724	29531.425
2859.80367	29485.725
2862.31855	29475.225
2864.83189	29468.225
2867.34368	29390.325
2869.85393	29456.225
2872.36264	29428.625
2874.8698	29392.625
2877.37543	29434.525
2879.87952	29430.625
2882.38207	29472.325
2884.88308	29437.425
2887.38256	29447.025
2889.88051	29455.425
2892.37692	29445.925
2894.8718	29451.725
2897.36515	29538.925
2899.85698	29493.925
2902.34727	29561.325
2904.83604	29517.425
2907.32328	29598.025
2909.809	29598.425
2912.29319	29682.725
2914.77587	29649.725
2917.25702	29633.825
2919.73665	29578.625
2922.21476	29621.125
2924.69136	29544.325
2927.16644	29586.425
2929.64	29505.625
2932.11205	29444.425
2934.58258	29378.925
2937.05161	29389.025
2939.51912	29370.625
2941.98513	29321.625
2944.44962	29324.325
2946.91261	29192.325
2949.37409	29286.225
2951.83407	29215.725
2954.29254	29276.525
2956.74951	29190.125
2959.20498	29211.225
2961.65895	29119.125
2964.11142	29088.425
2966.56239	29071.125
2969.01186	29000.525
2971.45984	28914.625
2973.90632	28843.925
2976.35131	28758.525
2978.7948	28705.525
2981.23681	28670.025
2983.67732	28616.925
2986.11635	28531.925
2988.55388	28407.325
2990.98993	28370.925
2993.4245	28312.325
2995.85758	28287.825
2998.28917	28221.025
3000.71928	28185.425
3003.14791	28138.925
3005.57506	28107.725
3008.00073	28022.125
3010.42493	28024.125
3012.84764	27981.425
3015.26888	27971.625
3017.68865	27861.425
3020.10694	27839.725
3022.52376	27709.825
3024.9391	27702.825
3027.35298	27663.425
3029.76539	27640.525
3032.17632	27562.225
3034.5858	27550.425
3036.9938	27492.625
3039.40034	27512.625
3041.80542	27443.925
3044.20903	27417.425
3046.61118	27334.625
3049.01187	27270.925
3051.4111	27294.025
3053.80888	27218.925
3056.20519	27173.825
3058.60005	27104.725
3060.99345	27048.925
3063.3854	27004.525
3065.7759	26907.725
3068.16494	26869.025
3070.55254	26731.425
3072.93868	26746.625
3075.32338	26633.225
3077.70662	26537.125
3080.08842	26496.425
3082.46878	26473.125
3084.84769	26408.425
3087.22515	26427.025
3089.60118	26341.625
3091.97576	26365.725
3094.3489	26390.225
3096.72061	26335.325
3099.09087	26370.225
3101.4597	26297.325
3103.82709	26280.925
3106.19305	26240.725
3108.55757	26247.925
3110.92066	26140.225
3113.28232	26098.425
3115.64255	25998.425
3118.00134	25966.925
3120.35871	25895.125
3122.71466	25854.625
3125.06917	25804.025
3127.42226	25782.425
3129.77393	25795.925
3132.12417	25765.025
3134.47299	25724.825
3136.82039	25727.525
3139.16636	25746.225
3141.51092	25680.425
3143.85406	25696.525
3146.19579	25702.125
3148.53609	25672.825
3150.87499	25646.025
3153.21246	25659.525
3155.54853	25663.025
3157.88318	25618.125
3160.21642	25617.425
3162.54826	25574.225
3164.87868	25575.225
3167.2077	25552.125
3169.5353	25553.725
3171.86151	25541.725
3174.18631	25487.225
3176.5097	25484.425
3178.83169	25453.725
3181.15228	25444.125
3183.47147	25347.725
3185.78926	25415.025
3188.10565	25325.625
3190.42065	25319.225
3192.73424	25361.825
3195.04645	25336.725
3197.35725	25351.925
3199.66667	25335.325
3201.97469	25357.325
3204.28132	25308.625
3206.58656	25328.025
3208.8904	25327.325
3211.19287	25299.825
3213.49394	25288.425
3215.79363	25309.925
3218.09193	25288.025
3220.38884	25276.725
3222.68438	25282.125
3224.97853	25249.125
3227.2713	25221.025
3229.56269	25222.825
3231.8527	25218.025
3234.14133	25137.925
3236.42858	25121.825
3238.71446	25115.925
3240.99896	25050.325
3243.28209	25053.625
3245.56384	24977.625
3247.84423	25032.825
3250.12324	24989.325
3252.40088	24961.425
3254.67715	24941.625
3256.95205	24877.625
3259.22558	24856.825
3261.49775	24840.725
3263.76855	24814.525
3266.03799	24793.925
3268.30606	24756.225
3270.57277	24745.825
3272.83812	24671.525
3275.10211	24671.325
3277.36474	24632.825
3279.62601	24661.625
3281.88593	24609.025
3284.14448	24659.725
3286.40168	24612.725
3288.65753	24596.025
3290.91202	24563.825
3293.16516	24483.025
3295.41695	24440.425
3297.66738	24276.525
3299.91647	24210.325
3302.16421	24031.425
3304.4106	23981.425
3306.65564	23894.225
3308.89933	23709.325
3311.14169	23567.225
3313.38269	23396.825
3315.62236	23261.025
3317.86068	23063.625
3320.09766	22860.625
3322.3333	22690.125
3324.5676	22656.925
3326.80056	22280.125
3329.03219	22199.525
3331.26248	6.625
3333.49143	-0.075
3335.71905	-0.275
