Data from AgNP_FTO_APTES_CRN_10uM_R6G_10uM_NaF_0.1M_Addition_RamanShift__5__16-20-47-957.txt Node

Date: Wed Dec 15 16:20:47 GMT 2021
User: TCL
Spectrometer: QEP01345
Trigger mode: 4
Integration Time (sec): 7.000000E0
Scans to average: 10
Electric dark correction enabled: true
Nonlinearity correction enabled: false
Boxcar width: 0
XAxis mode: Raman Shifts
Number of Pixels in Spectrum: 1044
>>>>>Begin Spectral Data<<<<<
46.04893	0.5375
50.45542	-1.7625
54.85868	-1.4625
59.25871	-0.1625
63.6555	75.1375
68.04907	84.6375
72.43941	88.6375
76.82654	93.0375
81.21044	96.4375
85.59113	100.0375
89.96862	103.8375
94.34289	100.8375
98.71396	113.3375
103.08183	113.1375
107.4465	120.0375
111.80798	118.9375
116.16626	126.2375
120.52136	124.3375
124.87327	129.8375
129.222	136.0375
133.56755	144.1375
137.90993	153.2375
142.24913	173.8375
146.58517	191.9375
150.91804	220.3375
155.24774	254.5375
159.57429	317.6375
163.89768	410.9375
168.21792	539.8375
172.53501	740.1375
176.84895	1022.9375
181.15975	1420.0375
185.46741	1983.3375
189.77193	2738.9375
194.07331	3661.1375
198.37157	4709.9375
202.6667	5815.7375
206.9587	6912.0375
211.24758	8011.3375
215.53334	9112.1375
219.81599	10253.8375
224.09553	11555.3375
228.37195	12950.4375
232.64527	14498.8375
236.91549	16082.7375
241.18261	17735.2375
245.44663	19216.2375
249.70755	20596.0375
253.96539	21814.4375
258.22014	22796.9375
262.4718	23563.1375
266.72039	24110.9375
270.96589	24406.3375
275.20832	24384.4375
279.44768	24185.8375
283.68397	23937.4375
287.91719	23796.1375
292.14735	23695.1375
296.37445	23753.6375
300.59849	23768.0375
304.81948	23875.4375
309.03742	23938.4375
313.25231	23763.4375
317.46415	23313.8375
321.67296	22728.9375
325.87872	22197.7375
330.08145	21878.4375
334.28114	21847.7375
338.47781	21963.9375
342.67145	22224.2375
346.86207	22623.0375
351.04966	23074.9375
355.23424	23539.9375
359.4158	23872.8375
363.59435	24096.8375
367.76989	24176.1375
371.94243	24214.9375
376.11196	24193.6375
380.27849	24184.8375
384.44203	24270.7375
388.60257	24433.2375
392.76012	24687.9375
396.91468	24946.6375
401.06626	25330.9375
405.21485	25581.5375
409.36047	25531.8375
413.50311	25261.2375
417.64277	25078.1375
421.77947	25210.2375
425.9132	25366.1375
430.04396	25472.4375
434.17176	25547.9375
438.2966	25602.5375
442.41849	25869.6375
446.53742	26448.6375
450.6534	27194.3375
454.76644	27636.0375
458.87653	27811.4375
462.98368	27662.8375
467.08789	27353.2375
471.18916	27017.6375
475.2875	26643.4375
479.38291	26470.2375
483.4754	26212.2375
487.56496	25839.0375
491.6516	25512.6375
495.73531	25181.0375
499.81612	25110.9375
503.89401	25379.1375
507.96899	25538.4375
512.04106	25560.6375
516.11023	25535.4375
520.1765	25439.3375
524.23987	25293.5375
528.30034	25115.0375
532.35792	24817.7375
536.41261	24402.2375
540.46441	23992.6375
544.51333	23893.5375
548.55936	24178.5375
552.60252	24748.5375
556.64279	25373.4375
560.6802	25783.0375
564.71473	25962.6375
568.7464	26235.6375
572.7752	26955.5375
576.80114	27748.4375
580.82422	28611.4375
584.84444	29799.5375
588.86181	30946.0375
592.87633	31581.9375
596.888	31208.5375
600.89682	30038.8375
604.9028	29942.3375
608.90594	31621.2375
612.90624	33467.5375
616.90371	31394.6375
620.89834	26630.7375
624.89015	24519.8375
628.87913	24231.0375
632.86528	24343.1375
636.84862	24294.0375
640.82913	23930.3375
644.80683	23379.0375
648.78172	23001.5375
652.75379	22957.2375
656.72306	23170.9375
660.68952	23411.5375
664.65319	23276.5375
668.61405	22904.9375
672.57211	22840.7375
676.52738	22910.3375
680.47986	22878.9375
684.42955	22733.8375
688.37646	22655.3375
692.32058	22796.6375
696.26192	23105.0375
700.20048	23479.2375
704.13626	23733.9375
708.06928	23785.4375
711.99952	23798.1375
715.927	23754.7375
719.85171	23901.3375
723.77365	23667.0375
727.69284	23348.3375
731.60928	22973.2375
735.52295	22872.9375
739.43388	22833.1375
743.34206	22893.3375
747.24749	23070.2375
751.15017	23292.6375
755.05012	23741.4375
758.94733	24447.2375
762.8418	25758.4375
766.73354	27654.8375
770.62254	29353.5375
774.50882	29470.2375
778.39237	28006.2375
782.27321	26125.4375
786.15132	24562.6375
790.02671	23595.5375
793.89938	23181.2375
797.76935	22984.8375
801.6366	22958.9375
805.50115	22907.1375
809.36299	22741.7375
813.22213	22507.7375
817.07857	22395.6375
820.93231	22296.0375
824.78336	22182.3375
828.63172	22143.9375
832.47738	22148.2375
836.32036	22274.4375
840.16066	22406.7375
843.99827	22464.5375
847.8332	22334.5375
851.66546	22193.9375
855.49504	22132.2375
859.32195	22096.6375
863.1462	22022.8375
866.96777	21965.7375
870.78668	21905.5375
874.60293	21857.4375
878.41652	21918.7375
882.22745	22000.1375
886.03573	22088.7375
889.84136	22133.5375
893.64433	22069.0375
897.44466	21994.0375
901.24235	21918.0375
905.0374	21869.1375
908.8298	21829.4375
912.61957	21856.4375
916.40671	22093.8375
920.19121	22427.4375
923.97308	22683.2375
927.75233	22809.3375
931.52895	22655.5375
935.30295	22301.8375
939.07433	21846.0375
942.84309	21466.6375
946.60924	21344.0375
950.37278	21207.6375
954.13371	21190.2375
957.89203	21127.5375
961.64774	21112.3375
965.40086	21126.3375
969.15137	21042.6375
972.89929	20951.5375
976.64461	20922.9375
980.38733	20892.8375
984.12747	20967.8375
987.86502	21115.5375
991.59999	21349.7375
995.33237	21741.5375
999.06217	22312.5375
1002.78939	22979.6375
1006.51404	23472.1375
1010.23611	23903.2375
1013.95561	24222.3375
1017.67255	24163.9375
1021.38692	23809.3375
1025.09872	23382.3375
1028.80796	23355.9375
1032.51465	23902.3375
1036.21877	24503.0375
1039.92035	24722.0375
1043.61937	24597.0375
1047.31584	24263.0375
1051.00976	23903.5375
1054.70114	23817.6375
1058.38998	24033.9375
1062.07627	24531.5375
1065.76003	25300.6375
1069.44126	26295.5375
1073.11995	27353.1375
1076.79611	28052.5375
1080.46974	27917.0375
1084.14085	27261.9375
1087.80943	26673.2375
1091.47549	26240.0375
1095.13903	25843.4375
1098.80005	25255.5375
1102.45857	24520.0375
1106.11456	23926.9375
1109.76805	23654.6375
1113.41903	23601.0375
1117.06751	23698.8375
1120.71348	23912.1375
1124.35696	24174.1375
1127.99793	24529.8375
1131.63641	24817.9375
1135.2724	24790.4375
1138.90589	24720.5375
1142.5369	24696.9375
1146.16542	24763.5375
1149.79145	24891.6375
1153.415	25069.0375
1157.03607	25422.9375
1160.65467	26224.0375
1164.27079	27616.8375
1167.88443	29351.2375
1171.49561	31361.6375
1175.10432	33794.2375
1178.71056	36902.3375
1182.31434	39703.9375
1185.91565	41010.3375
1189.51451	40517.6375
1193.11091	39054.4375
1196.70485	37256.7375
1200.29634	35472.8375
1203.88538	34221.9375
1207.47197	33630.7375
1211.05612	33115.0375
1214.63782	32436.4375
1218.21708	31671.3375
1221.79391	30863.5375
1225.36829	30294.6375
1228.94024	29817.0375
1232.50976	29331.1375
1236.07685	28828.4375
1239.6415	28549.5375
1243.20374	28517.7375
1246.76355	28733.0375
1250.32093	29234.2375
1253.8759	29941.2375
1257.42845	30888.6375
1260.97859	31968.4375
1264.52631	32995.4375
1268.07163	34053.2375
1271.61453	35178.0375
1275.15503	36265.4375
1278.69312	37428.6375
1282.22882	38479.3375
1285.76211	39622.1375
1289.29301	40976.7375
1292.82151	42787.3375
1296.34761	45071.9375
1299.87133	47989.5375
1303.39266	51198.3375
1306.9116	54096.8375
1310.42815	56533.9375
1313.94233	57560.7375
1317.45412	57141.5375
1320.96354	55957.9375
1324.47058	54872.8375
1327.97525	54311.3375
1331.47754	53790.6375
1334.97747	53339.8375
1338.47502	52834.3375
1341.97022	52139.5375
1345.46305	51323.4375
1348.95352	50725.6375
1352.44163	50757.8375
1355.92738	51786.4375
1359.41078	53956.9375
1362.89183	55713.8375
1366.37053	54819.6375
1369.84688	50793.1375
1373.32088	45449.2375
1376.79254	41605.1375
1380.26186	40027.5375
1383.72883	39675.3375
1387.19347	39399.7375
1390.65578	38922.8375
1394.11575	38747.3375
1397.57339	39107.0375
1401.0287	39806.3375
1404.48168	40262.0375
1407.93234	40248.3375
1411.38068	39476.2375
1414.82669	38179.2375
1418.27039	36447.3375
1421.71177	34836.1375
1425.15083	33515.8375
1428.58758	32912.0375
1432.02203	33188.6375
1435.45416	34193.7375
1438.88399	35231.8375
1442.31151	36086.0375
1445.73673	36575.4375
1449.15965	36923.5375
1452.58027	37078.1375
1455.9986	37069.5375
1459.41463	37261.0375
1462.82837	37898.9375
1466.23982	38744.7375
1469.64898	39454.2375
1473.05586	39872.7375
1476.46045	39947.2375
1479.86276	39713.0375
1483.26279	39350.9375
1486.66054	39114.0375
1490.05602	39283.4375
1493.44922	39754.7375
1496.84016	40283.5375
1500.22882	41183.8375
1503.61521	42403.8375
1506.99934	43911.7375
1510.38121	44924.9375
1513.76081	44938.3375
1517.13816	43843.1375
1520.51324	42202.1375
1523.88607	40968.8375
1527.25665	40368.4375
1530.62498	40217.1375
1533.99105	40123.9375
1537.35488	39695.3375
1540.71647	38899.3375
1544.07581	37936.0375
1547.4329	36864.1375
1550.78776	35931.6375
1554.14038	35364.5375
1557.49077	34998.1375
1560.83892	34783.5375
1564.18484	34839.8375
1567.52853	35323.3375
1570.86999	36172.6375
1574.20922	37646.7375
1577.54624	39351.5375
1580.88103	40646.2375
1584.2136	41440.2375
1587.54395	41834.1375
1590.87208	42433.6375
1594.19801	43882.8375
1597.52172	45651.7375
1600.84321	46039.4375
1604.16251	43855.7375
1607.47959	40155.7375
1610.79447	36302.7375
1614.10715	32853.9375
1617.41763	30098.3375
1620.7259	28248.7375
1624.03199	27332.1375
1627.33587	27381.3375
1630.63757	28306.9375
1633.93707	30244.2375
1637.23439	33497.8375
1640.52951	38239.7375
1643.82246	43673.2375
1647.11321	47782.4375
1650.40179	48288.8375
1653.68819	44597.5375
1656.97241	38464.5375
1660.25446	32535.6375
1663.53433	28158.8375
1666.81203	25363.8375
1670.08756	23577.1375
1673.36092	22394.8375
1676.63211	21644.8375
1679.90115	21150.1375
1683.16801	20786.5375
1686.43272	20534.7375
1689.69527	20329.0375
1692.95567	20195.5375
1696.2139	20104.1375
1699.46999	20042.4375
1702.72392	19951.5375
1705.97571	19899.2375
1709.22535	19830.4375
1712.47284	19768.4375
1715.71819	19706.5375
1718.96139	19659.2375
1722.20246	19558.2375
1725.44139	19486.6375
1728.67818	19364.9375
1731.91284	19257.2375
1735.14537	19147.5375
1738.37576	19054.4375
1741.60403	18976.8375
1744.83017	18964.5375
1748.05418	18895.7375
1751.27607	18879.0375
1754.49584	18871.2375
1757.71349	18860.2375
1760.92903	18860.1375
1764.14244	18835.8375
1767.35375	18829.0375
1770.56294	18737.5375
1773.77002	18707.6375
1776.97499	18687.3375
1780.17785	18645.3375
1783.37861	18592.7375
1786.57727	18547.2375
1789.77382	18480.7375
1792.96828	18485.7375
1796.16064	18445.6375
1799.3509	18421.7375
1802.53907	18371.0375
1805.72514	18324.1375
1808.90913	18254.9375
1812.09102	18219.8375
1815.27083	18179.4375
1818.44856	18176.4375
1821.6242	18167.1375
1824.79776	18162.0375
1827.96924	18170.8375
1831.13864	18205.2375
1834.30597	18209.3375
1837.47122	18219.5375
1840.6344	18229.3375
1843.7955	18228.5375
1846.95454	18232.7375
1850.11151	18243.6375
1853.26642	18219.6375
1856.41926	18213.4375
1859.57004	18197.6375
1862.71876	18156.7375
1865.86542	18159.3375
1869.01003	18150.5375
1872.15258	18119.9375
1875.29308	18067.5375
1878.43152	18032.0375
1881.56792	18004.9375
1884.70227	17989.9375
1887.83457	17967.5375
1890.96482	17955.9375
1894.09304	17906.2375
1897.21921	17921.6375
1900.34335	17853.1375
1903.46544	17831.1375
1906.58551	17767.6375
1909.70353	17762.4375
1912.81953	17723.8375
1915.93349	17712.2375
1919.04543	17658.1375
1922.15534	17615.9375
1925.26322	17585.1375
1928.36908	17513.4375
1931.47292	17481.7375
1934.57473	17439.8375
1937.67453	17399.0375
1940.77232	17384.7375
1943.86808	17320.7375
1946.96184	17250.0375
1950.05358	17206.2375
1953.14331	17167.7375
1956.23103	17144.2375
1959.31675	17108.1375
1962.40046	17012.7375
1965.48217	16994.1375
1968.56188	16972.2375
1971.63959	16892.3375
1974.7153	16856.3375
1977.78901	16773.6375
1980.86073	16732.4375
1983.93046	16690.3375
1986.99819	16649.2375
1990.06394	16638.9375
1993.1277	16592.7375
1996.18947	16484.9375
1999.24925	16461.1375
2002.30706	16405.0375
2005.36288	16343.3375
2008.41672	16341.1375
2011.46859	16273.1375
2014.51848	16230.2375
2017.56639	16253.8375
2020.61233	16200.3375
2023.6563	16124.2375
2026.6983	16092.7375
2029.73833	16109.2375
2032.7764	16085.1375
2035.8125	16017.2375
2038.84664	15994.2375
2041.87881	15977.5375
2044.90903	15949.0375
2047.93729	15944.4375
2050.96359	15891.3375
2053.98794	15901.5375
2057.01034	15901.2375
2060.03078	15890.3375
2063.04927	15873.2375
2066.06582	15859.8375
2069.08042	15859.6375
2072.09307	15823.5375
2075.10378	15804.6375
2078.11255	15769.6375
2081.11938	15814.6375
2084.12426	15803.8375
2087.12722	15803.8375
2090.12824	15769.8375
2093.12732	15798.8375
2096.12447	15820.0375
2099.11969	15800.3375
2102.11299	15813.7375
2105.10435	15809.0375
2108.09379	15849.5375
2111.08131	15852.0375
2114.0669	15860.0375
2117.05057	15869.9375
2120.03233	15874.9375
2123.01216	15911.7375
2125.99008	15887.9375
2128.96609	15902.2375
2131.94018	15945.1375
2134.91236	15898.6375
2137.88263	15933.0375
2140.851	15946.8375
2143.81746	15957.4375
2146.78201	15944.3375
2149.74466	15955.1375
2152.7054	15962.0375
2155.66425	15967.6375
2158.6212	15952.0375
2161.57625	15953.0375
2164.52941	15938.1375
2167.48067	15954.1375
2170.43004	15964.0375
2173.37752	15916.0375
2176.32311	15947.0375
2179.26681	15940.7375
2182.20863	15943.2375
2185.14856	15954.8375
2188.08661	15960.8375
2191.02278	15953.2375
2193.95707	15953.4375
2196.88948	15919.5375
2199.82001	15904.9375
2202.74867	15908.6375
2205.67545	15899.0375
2208.60037	15893.4375
2211.52341	15876.1375
2214.44458	15864.4375
2217.36388	15841.9375
2220.28132	15835.8375
2223.1969	15829.7375
2226.11061	15783.5375
2229.02246	15787.9375
2231.93245	15721.9375
2234.84058	15741.3375
2237.74686	15725.2375
2240.65128	15684.7375
2243.55385	15653.8375
2246.45456	15595.2375
2249.35343	15568.9375
2252.25044	15585.9375
2255.14561	15534.2375
2258.03893	15568.3375
2260.93041	15513.6375
2263.82004	15488.8375
2266.70783	15457.8375
2269.59378	15405.7375
2272.4779	15375.1375
2275.36017	15307.7375
2278.24061	15279.7375
2281.11922	15278.9375
2283.996	15273.3375
2286.87094	15281.1375
2289.74405	15229.9375
2292.61534	15208.6375
2295.4848	15215.2375
2298.35243	15241.9375
2301.21824	15209.0375
2304.08223	15227.0375
2306.94439	15229.3375
2309.80474	15220.0375
2312.66327	15227.0375
2315.51999	15232.2375
2318.37489	15225.1375
2321.22797	15187.2375
2324.07925	15189.8375
2326.92871	15177.0375
2329.77637	15154.2375
2332.62222	15154.2375
2335.46626	15128.1375
2338.3085	15172.8375
2341.14893	15154.2375
2343.98756	15127.1375
2346.8244	15128.8375
2349.65943	15172.8375
2352.49267	15141.2375
2355.32411	15150.2375
2358.15376	15132.1375
2360.98161	15100.2375
2363.80768	15120.6375
2366.63195	15093.2375
2369.45444	15054.2375
2372.27514	15047.7375
2375.09405	14991.6375
2377.91118	15025.8375
2380.72652	14967.8375
2383.54009	14960.3375
2386.35187	14911.2375
2389.16188	14875.1375
2391.97011	14879.8375
2394.77657	14875.6375
2397.58125	14837.9375
2400.38416	14826.2375
2403.18529	14782.1375
2405.98466	14763.1375
2408.78226	14741.9375
2411.57809	14745.2375
2414.37216	14716.3375
2417.16446	14705.5375
2419.955	14712.1375
2422.74378	14713.3375
2425.5308	14677.8375
2428.31606	14628.1375
2431.09956	14657.6375
2433.88131	14632.8375
2436.6613	14654.2375
2439.43954	14628.3375
2442.21603	14627.3375
2444.99077	14611.3375
2447.76377	14632.5375
2450.53501	14638.0375
2453.30451	14621.2375
2456.07226	14612.7375
2458.83827	14616.9375
2461.60254	14612.3375
2464.36507	14583.2375
2467.12586	14610.0375
2469.88492	14604.4375
2472.64224	14619.8375
2475.39782	14607.2375
2478.15167	14643.6375
2480.90379	14617.8375
2483.65417	14642.3375
2486.40283	14655.9375
2489.14976	14665.4375
2491.89497	14644.1375
2494.63845	14667.0375
2497.3802	14668.5375
2500.12024	14665.4375
2502.85855	14640.7375
2505.59514	14652.7375
2508.33002	14640.3375
2511.06318	14590.5375
2513.79462	14583.9375
2516.52435	14593.8375
2519.25237	14582.5375
2521.97867	14584.1375
2524.70327	14579.3375
2527.42616	14550.9375
2530.14734	14548.1375
2532.86681	14517.3375
2535.58458	14542.8375
2538.30065	14500.7375
2541.01501	14504.4375
2543.72768	14538.0375
2546.43864	14532.9375
2549.14791	14471.3375
2551.85548	14472.9375
2554.56136	14448.5375
2557.26554	14465.2375
2559.96803	14445.7375
2562.66883	14469.0375
2565.36794	14440.9375
2568.06536	14472.9375
2570.7611	14440.3375
2573.45514	14424.5375
2576.14751	14428.7375
2578.83819	14401.9375
2581.52719	14406.2375
2584.21451	14384.0375
2586.90015	14384.3375
2589.58411	14360.7375
2592.2664	14389.4375
2594.94701	14330.5375
2597.62594	14324.5375
2600.30321	14303.9375
2602.9788	14326.5375
2605.65273	14298.8375
2608.32498	14305.0375
2610.99557	14287.2375
2613.66449	14277.7375
2616.33175	14281.0375
2618.99734	14283.2375
2621.66128	14283.2375
2624.32355	14247.2375
2626.98416	14262.4375
2629.64311	14276.9375
2632.30041	14275.4375
2634.95605	14224.6375
2637.61004	14255.5375
2640.26238	14189.2375
2642.91306	14211.7375
2645.56209	14214.4375
2648.20948	14223.8375
2650.85521	14203.1375
2653.4993	14215.5375
2656.14175	14217.9375
2658.78255	14210.0375
2661.42171	14209.3375
2664.05923	14240.1375
2666.6951	14215.8375
2669.32934	14256.4375
2671.96194	14235.6375
2674.59291	14228.9375
2677.22224	14227.6375
2679.84993	14231.4375
2682.476	14183.0375
2685.10043	14185.9375
2687.72324	14197.6375
2690.34441	14231.7375
2692.96396	14210.6375
2695.58188	14225.0375
2698.19818	14221.0375
2700.81285	14240.6375
2703.4259	14248.4375
2706.03733	14352.4375
2708.64714	14285.3375
2711.25533	14293.6375
2713.86191	14290.4375
2716.46687	14323.9375
2719.07021	14303.0375
2721.67194	14295.3375
2724.27206	14283.9375
2726.87057	14317.4375
2729.46747	14310.5375
2732.06276	14361.8375
2734.65644	14335.3375
2737.24852	14349.4375
2739.83899	14316.1375
2742.42786	14319.8375
2745.01513	14308.7375
2747.60079	14304.2375
2750.18486	14285.4375
2752.76733	14324.4375
2755.3482	14326.6375
2757.92747	14294.0375
2760.50515	14292.3375
2763.08123	14296.2375
2765.65573	14284.3375
2768.22863	14262.9375
2770.79994	14248.2375
2773.36967	14214.2375
2775.9378	14224.5375
2778.50435	14237.4375
2781.06932	14250.7375
2783.6327	14228.1375
2786.1945	14218.8375
2788.75471	14219.5375
2791.31335	14183.1375
2793.87041	14166.6375
2796.42589	14134.7375
2798.97979	14131.8375
2801.53212	14131.3375
2804.08288	14126.2375
2806.63206	14113.2375
2809.17967	14057.9375
2811.72571	14038.3375
2814.27018	14028.4375
2816.81308	14017.2375
2819.35442	14012.2375
2821.89419	13985.2375
2824.43239	13963.8375
2826.96904	13993.2375
2829.50412	13948.8375
2832.03763	13918.1375
2834.56959	13933.8375
2837.1	13931.0375
2839.62884	13927.1375
2842.15613	13920.7375
2844.68186	13949.7375
2847.20604	13974.1375
2849.72867	14005.8375
2852.24974	13969.8375
2854.76927	13975.3375
2857.28724	13989.0375
2859.80367	13986.6375
2862.31855	13956.0375
2864.83189	13953.5375
2867.34368	13957.0375
2869.85393	13909.5375
2872.36264	13947.9375
2874.8698	13927.6375
2877.37543	13923.8375
2879.87952	13936.5375
2882.38207	13949.4375
2884.88308	13953.2375
2887.38256	13978.0375
2889.88051	13972.7375
2892.37692	13987.8375
2894.8718	13990.4375
2897.36515	14009.6375
2899.85698	14000.3375
2902.34727	14048.0375
2904.83604	14022.0375
2907.32328	14060.1375
2909.809	14034.2375
2912.29319	14054.1375
2914.77587	14043.2375
2917.25702	14041.4375
2919.73665	14023.2375
2922.21476	14053.9375
2924.69136	14063.1375
2927.16644	14054.1375
2929.64	14059.5375
2932.11205	14015.1375
2934.58258	13993.8375
2937.05161	14026.3375
2939.51912	14023.0375
2941.98513	13994.1375
2944.44962	13952.8375
2946.91261	13874.6375
2949.37409	13931.5375
2951.83407	13927.6375
2954.29254	13909.5375
2956.74951	13867.8375
2959.20498	13867.6375
2961.65895	13877.3375
2964.11142	13877.9375
2966.56239	13836.0375
2969.01186	13800.2375
2971.45984	13756.5375
2973.90632	13732.9375
2976.35131	13683.6375
2978.7948	13634.7375
2981.23681	13649.1375
2983.67732	13636.1375
2986.11635	13610.9375
2988.55388	13574.0375
2990.98993	13536.8375
2993.4245	13518.0375
2995.85758	13495.1375
2998.28917	13468.5375
3000.71928	13456.3375
3003.14791	13446.3375
3005.57506	13427.0375
3008.00073	13394.6375
3010.42493	13402.0375
3012.84764	13338.1375
3015.26888	13315.8375
3017.68865	13307.1375
3020.10694	13286.7375
3022.52376	13268.8375
3024.9391	13297.2375
3027.35298	13281.6375
3029.76539	13274.9375
3032.17632	13253.2375
3034.5858	13221.0375
3036.9938	13208.6375
3039.40034	13221.2375
3041.80542	13208.3375
3044.20903	13191.3375
3046.61118	13175.2375
3049.01187	13161.7375
3051.4111	13167.3375
3053.80888	13157.8375
3056.20519	13126.6375
3058.60005	13101.2375
3060.99345	13086.7375
3063.3854	13039.9375
3065.7759	13009.0375
3068.16494	12987.0375
3070.55254	12937.0375
3072.93868	12936.3375
3075.32338	12936.7375
3077.70662	12880.5375
3080.08842	12819.7375
3082.46878	12843.5375
3084.84769	12844.8375
3087.22515	12790.2375
3089.60118	12833.6375
3091.97576	12819.5375
3094.3489	12810.0375
3096.72061	12801.4375
3099.09087	12809.4375
3101.4597	12801.3375
3103.82709	12774.3375
3106.19305	12769.3375
3108.55757	12758.6375
3110.92066	12728.1375
3113.28232	12716.0375
3115.64255	12644.7375
3118.00134	12678.4375
3120.35871	12684.4375
3122.71466	12642.2375
3125.06917	12619.8375
3127.42226	12606.9375
3129.77393	12629.1375
3132.12417	12615.4375
3134.47299	12616.2375
3136.82039	12625.3375
3139.16636	12610.9375
3141.51092	12622.3375
3143.85406	12617.1375
3146.19579	12626.0375
3148.53609	12634.9375
3150.87499	12682.6375
3153.21246	12654.3375
3155.54853	12685.4375
3157.88318	12656.6375
3160.21642	12663.7375
3162.54826	12660.5375
3164.87868	12639.4375
3167.2077	12667.5375
3169.5353	12663.9375
3171.86151	12639.1375
3174.18631	12645.7375
3176.5097	12644.1375
3178.83169	12613.0375
3181.15228	12641.3375
3183.47147	12628.6375
3185.78926	12619.8375
3188.10565	12587.0375
3190.42065	12603.3375
3192.73424	12610.0375
3195.04645	12592.4375
3197.35725	12588.2375
3199.66667	12593.2375
3201.97469	12610.8375
3204.28132	12592.2375
3206.58656	12604.2375
3208.8904	12617.4375
3211.19287	12620.4375
3213.49394	12569.1375
3215.79363	12578.4375
3218.09193	12610.5375
3220.38884	12612.9375
3222.68438	12627.2375
3224.97853	12590.6375
3227.2713	12598.7375
3229.56269	12569.9375
3231.8527	12560.6375
3234.14133	12540.8375
3236.42858	12536.2375
3238.71446	12540.1375
3240.99896	12540.3375
3243.28209	12499.0375
3245.56384	12496.6375
3247.84423	12482.4375
3250.12324	12487.6375
3252.40088	12461.0375
3254.67715	12491.5375
3256.95205	12476.8375
3259.22558	12470.5375
3261.49775	12469.7375
3263.76855	12445.7375
3266.03799	12417.0375
3268.30606	12367.0375
3270.57277	12358.5375
3272.83812	12349.7375
3275.10211	12327.6375
3277.36474	12326.3375
3279.62601	12326.9375
3281.88593	12319.9375
3284.14448	12324.8375
3286.40168	12319.8375
3288.65753	12306.4375
3290.91202	12284.7375
3293.16516	12255.9375
3295.41695	12227.6375
3297.66738	12152.1375
3299.91647	12093.5375
3302.16421	12015.8375
3304.4106	11996.1375
3306.65564	11895.2375
3308.89933	11865.1375
3311.14169	11753.1375
3313.38269	11672.6375
3315.62236	11623.7375
3317.86068	11518.5375
3320.09766	11406.6375
3322.3333	11348.7375
3324.5676	11307.3375
3326.80056	11161.0375
3329.03219	11088.2375
3331.26248	3.1375
3333.49143	-0.6625
3335.71905	0.4375
