Data from AgNP_FTO_APTES_CRN_100uM_R6G_10uM_NaF_0.1M_Addition_RamanShift__11__18-44-18-120.txt Node

Date: Wed Dec 15 18:44:18 GMT 2021
User: TCL
Spectrometer: QEP01345
Trigger mode: 4
Integration Time (sec): 7.000000E0
Scans to average: 10
Electric dark correction enabled: true
Nonlinearity correction enabled: false
Boxcar width: 0
XAxis mode: Raman Shifts
Number of Pixels in Spectrum: 1044
>>>>>Begin Spectral Data<<<<<
46.04893	0.5625
50.45542	-2.2375
54.85868	-1.0375
59.25871	-0.3375
63.6555	51.2625
68.04907	56.3625
72.43941	59.0625
76.82654	60.5625
81.21044	65.2625
85.59113	67.2625
89.96862	73.1625
94.34289	68.9625
98.71396	73.9625
103.08183	81.1625
107.4465	81.8625
111.80798	80.6625
116.16626	83.1625
120.52136	86.6625
124.87327	87.9625
129.222	88.1625
133.56755	92.1625
137.90993	99.9625
142.24913	106.5625
146.58517	120.6625
150.91804	136.1625
155.24774	154.8625
159.57429	195.5625
163.89768	244.9625
168.21792	320.6625
172.53501	429.2625
176.84895	591.4625
181.15975	832.8625
185.46741	1161.7625
189.77193	1601.7625
194.07331	2134.8625
198.37157	2767.7625
202.6667	3419.4625
206.9587	4056.7625
211.24758	4699.0625
215.53334	5341.1625
219.81599	5992.9625
224.09553	6734.0625
228.37195	7518.7625
232.64527	8419.8625
236.91549	9350.5625
241.18261	10326.8625
245.44663	11244.5625
249.70755	12093.0625
253.96539	12820.5625
258.22014	13442.4625
262.4718	13938.9625
266.72039	14225.9625
270.96589	14432.2625
275.20832	14472.5625
279.44768	14419.6625
283.68397	14329.7625
287.91719	14237.8625
292.14735	14189.4625
296.37445	14133.6625
300.59849	14121.5625
304.81948	14102.5625
309.03742	14038.2625
313.25231	13874.8625
317.46415	13647.1625
321.67296	13366.9625
325.87872	13126.4625
330.08145	12996.4625
334.28114	12979.4625
338.47781	13077.4625
342.67145	13229.6625
346.86207	13374.1625
351.04966	13568.4625
355.23424	13755.8625
359.4158	13905.4625
363.59435	13998.8625
367.76989	14078.1625
371.94243	14112.3625
376.11196	14162.3625
380.27849	14136.0625
384.44203	14196.4625
388.60257	14311.8625
392.76012	14477.2625
396.91468	14612.2625
401.06626	14857.2625
405.21485	14996.3625
409.36047	15017.5625
413.50311	14910.6625
417.64277	14798.3625
421.77947	14808.9625
425.9132	14832.1625
430.04396	14918.5625
434.17176	14962.8625
438.2966	15039.4625
442.41849	15127.9625
446.53742	15323.4625
450.6534	15534.1625
454.76644	15738.2625
458.87653	15834.8625
462.98368	15878.4625
467.08789	15854.3625
471.18916	15830.7625
475.2875	15764.4625
479.38291	15726.0625
483.4754	15666.7625
487.56496	15514.3625
491.6516	15362.4625
495.73531	15262.8625
499.81612	15148.4625
503.89401	15266.3625
507.96899	15359.1625
512.04106	15394.8625
516.11023	15390.2625
520.1765	15344.8625
524.23987	15237.6625
528.30034	15129.6625
532.35792	15011.9625
536.41261	14887.3625
540.46441	14798.8625
544.51333	14839.2625
548.55936	14973.7625
552.60252	15251.6625
556.64279	15453.1625
560.6802	15589.1625
564.71473	15660.4625
568.7464	15851.1625
572.7752	16170.8625
576.80114	16505.1625
580.82422	16896.4625
584.84444	17232.2625
588.86181	17461.5625
592.87633	17446.5625
596.888	17250.7625
600.89682	17023.9625
604.9028	17107.1625
608.90594	17768.3625
612.90624	18498.6625
616.90371	17631.1625
620.89834	15791.0625
624.89015	14980.2625
628.87913	14903.7625
632.86528	15037.6625
636.84862	15136.6625
640.82913	15053.6625
644.80683	14794.5625
648.78172	14646.4625
652.75379	14603.0625
656.72306	14670.0625
660.68952	14784.0625
664.65319	14796.2625
668.61405	14701.1625
672.57211	14714.8625
676.52738	14713.7625
680.47986	14709.3625
684.42955	14709.0625
688.37646	14664.9625
692.32058	14712.0625
696.26192	14755.4625
700.20048	14905.7625
704.13626	15022.5625
708.06928	15136.7625
711.99952	15154.8625
715.927	15113.6625
719.85171	15071.7625
723.77365	14935.0625
727.69284	14821.3625
731.60928	14641.4625
735.52295	14622.6625
739.43388	14556.3625
743.34206	14582.7625
747.24749	14637.9625
751.15017	14737.1625
755.05012	14966.9625
758.94733	15247.8625
762.8418	15782.5625
766.73354	16627.3625
770.62254	17420.9625
774.50882	17478.7625
778.39237	16869.6625
782.27321	16024.4625
786.15132	15306.1625
790.02671	14855.7625
793.89938	14625.1625
797.76935	14527.9625
801.6366	14506.1625
805.50115	14475.5625
809.36299	14420.6625
813.22213	14376.3625
817.07857	14401.5625
820.93231	14355.3625
824.78336	14328.3625
828.63172	14317.3625
832.47738	14333.8625
836.32036	14346.8625
840.16066	14321.1625
843.99827	14298.0625
847.8332	14277.6625
851.66546	14235.8625
855.49504	14247.6625
859.32195	14204.8625
863.1462	14231.9625
866.96777	14205.0625
870.78668	14200.7625
874.60293	14236.5625
878.41652	14234.1625
882.22745	14227.4625
886.03573	14298.2625
889.84136	14326.5625
893.64433	14317.8625
897.44466	14266.0625
901.24235	14241.7625
905.0374	14212.4625
908.8298	14227.2625
912.61957	14249.7625
916.40671	14365.2625
920.19121	14458.7625
923.97308	14523.4625
927.75233	14498.6625
931.52895	14412.4625
935.30295	14251.8625
939.07433	14098.0625
942.84309	13923.9625
946.60924	13850.6625
950.37278	13781.4625
954.13371	13756.0625
957.89203	13741.4625
961.64774	13710.9625
965.40086	13724.3625
969.15137	13660.6625
972.89929	13616.5625
976.64461	13631.4625
980.38733	13546.9625
984.12747	13576.7625
987.86502	13588.2625
991.59999	13605.9625
995.33237	13669.9625
999.06217	13781.0625
1002.78939	13921.4625
1006.51404	14065.3625
1010.23611	14276.6625
1013.95561	14398.5625
1017.67255	14394.2625
1021.38692	14294.5625
1025.09872	14156.9625
1028.80796	14062.0625
1032.51465	14025.4625
1036.21877	14045.9625
1039.92035	14146.6625
1043.61937	14217.0625
1047.31584	14323.7625
1051.00976	14426.5625
1054.70114	14591.5625
1058.38998	14787.4625
1062.07627	15102.8625
1065.76003	15545.4625
1069.44126	15945.8625
1073.11995	16299.9625
1076.79611	16424.9625
1080.46974	16252.0625
1084.14085	15925.0625
1087.80943	15684.4625
1091.47549	15532.3625
1095.13903	15487.4625
1098.80005	15338.3625
1102.45857	15024.1625
1106.11456	14714.6625
1109.76805	14543.7625
1113.41903	14476.2625
1117.06751	14520.0625
1120.71348	14648.6625
1124.35696	14779.1625
1127.99793	14979.4625
1131.63641	15122.2625
1135.2724	15023.6625
1138.90589	14931.2625
1142.5369	14901.5625
1146.16542	14936.3625
1149.79145	14987.3625
1153.415	15074.8625
1157.03607	15193.2625
1160.65467	15393.8625
1164.27079	15834.5625
1167.88443	16373.8625
1171.49561	17017.6625
1175.10432	17855.9625
1178.71056	18894.0625
1182.31434	19850.3625
1185.91565	20337.8625
1189.51451	20387.4625
1193.11091	20073.1625
1196.70485	19538.1625
1200.29634	18854.6625
1203.88538	18335.7625
1207.47197	17978.9625
1211.05612	17717.1625
1214.63782	17413.0625
1218.21708	17056.5625
1221.79391	16651.8625
1225.36829	16388.2625
1228.94024	16274.4625
1232.50976	16196.4625
1236.07685	16163.3625
1239.6415	16140.1625
1243.20374	16162.1625
1246.76355	16224.2625
1250.32093	16389.6625
1253.8759	16592.6625
1257.42845	16934.5625
1260.97859	17260.7625
1264.52631	17579.5625
1268.07163	17864.2625
1271.61453	18157.3625
1275.15503	18430.6625
1278.69312	18765.3625
1282.22882	19090.7625
1285.76211	19509.3625
1289.29301	20040.1625
1292.82151	20601.9625
1296.34761	21283.9625
1299.87133	22051.6625
1303.39266	22767.6625
1306.9116	23465.1625
1310.42815	24049.9625
1313.94233	24376.0625
1317.45412	24382.9625
1320.96354	24259.1625
1324.47058	24206.7625
1327.97525	24181.4625
1331.47754	24223.3625
1334.97747	24239.6625
1338.47502	24353.1625
1341.97022	24510.7625
1345.46305	24659.2625
1348.95352	24655.8625
1352.44163	24646.7625
1355.92738	24693.5625
1359.41078	25053.4625
1362.89183	25359.4625
1366.37053	24998.2625
1369.84688	23660.3625
1373.32088	21959.4625
1376.79254	20640.0625
1380.26186	20000.0625
1383.72883	19728.1625
1387.19347	19535.4625
1390.65578	19344.3625
1394.11575	19164.3625
1397.57339	19077.8625
1401.0287	19075.7625
1404.48168	19067.2625
1407.93234	18904.2625
1411.38068	18612.4625
1414.82669	18151.3625
1418.27039	17585.5625
1421.71177	17095.9625
1425.15083	16685.9625
1428.58758	16453.7625
1432.02203	16483.8625
1435.45416	16681.0625
1438.88399	16929.6625
1442.31151	17089.9625
1445.73673	17261.4625
1449.15965	17446.3625
1452.58027	17602.6625
1455.9986	17726.4625
1459.41463	17913.5625
1462.82837	18168.1625
1466.23982	18486.2625
1469.64898	18754.7625
1473.05586	18957.8625
1476.46045	19076.6625
1479.86276	19083.2625
1483.26279	19098.4625
1486.66054	19158.8625
1490.05602	19335.4625
1493.44922	19653.0625
1496.84016	20087.0625
1500.22882	20695.1625
1503.61521	21493.4625
1506.99934	22290.8625
1510.38121	22806.2625
1513.76081	22795.8625
1517.13816	22353.5625
1520.51324	21704.2625
1523.88607	21132.7625
1527.25665	20792.3625
1530.62498	20577.0625
1533.99105	20430.6625
1537.35488	20157.4625
1540.71647	19740.2625
1544.07581	19300.3625
1547.4329	18902.3625
1550.78776	18553.6625
1554.14038	18289.3625
1557.49077	18189.1625
1560.83892	18195.8625
1564.18484	18322.7625
1567.52853	18569.5625
1570.86999	18920.6625
1574.20922	19466.2625
1577.54624	20023.1625
1580.88103	20237.6625
1584.2136	20159.8625
1587.54395	19905.3625
1590.87208	19663.7625
1594.19801	19815.6625
1597.52172	20208.0625
1600.84321	20309.5625
1604.16251	19769.4625
1607.47959	18908.2625
1610.79447	17995.1625
1614.10715	17039.8625
1617.41763	16165.7625
1620.7259	15540.3625
1624.03199	15106.5625
1627.33587	15010.5625
1630.63757	15133.5625
1633.93707	15655.0625
1637.23439	16529.5625
1640.52951	17886.1625
1643.82246	19534.3625
1647.11321	21074.6625
1650.40179	21718.0625
1653.68819	21107.3625
1656.97241	19444.3625
1660.25446	17527.6625
1663.53433	15893.1625
1666.81203	14718.3625
1670.08756	13931.3625
1673.36092	13409.4625
1676.63211	13075.9625
1679.90115	12840.3625
1683.16801	12675.6625
1686.43272	12524.6625
1689.69527	12464.5625
1692.95567	12352.6625
1696.2139	12338.2625
1699.46999	12317.2625
1702.72392	12291.8625
1705.97571	12239.3625
1709.22535	12205.6625
1712.47284	12171.9625
1715.71819	12158.0625
1718.96139	12115.9625
1722.20246	12075.7625
1725.44139	12061.3625
1728.67818	11992.5625
1731.91284	11951.6625
1735.14537	11920.0625
1738.37576	11869.4625
1741.60403	11815.1625
1744.83017	11771.5625
1748.05418	11772.5625
1751.27607	11742.7625
1754.49584	11726.8625
1757.71349	11745.2625
1760.92903	11733.5625
1764.14244	11734.3625
1767.35375	11705.7625
1770.56294	11671.7625
1773.77002	11664.5625
1776.97499	11633.3625
1780.17785	11607.6625
1783.37861	11592.7625
1786.57727	11557.6625
1789.77382	11527.8625
1792.96828	11500.9625
1796.16064	11464.2625
1799.3509	11429.4625
1802.53907	11430.9625
1805.72514	11361.2625
1808.90913	11373.8625
1812.09102	11347.2625
1815.27083	11315.0625
1818.44856	11312.4625
1821.6242	11301.7625
1824.79776	11284.2625
1827.96924	11275.9625
1831.13864	11267.0625
1834.30597	11271.6625
1837.47122	11262.8625
1840.6344	11269.4625
1843.7955	11231.1625
1846.95454	11216.2625
1850.11151	11213.0625
1853.26642	11212.1625
1856.41926	11198.2625
1859.57004	11197.1625
1862.71876	11190.8625
1865.86542	11168.3625
1869.01003	11136.9625
1872.15258	11134.0625
1875.29308	11116.7625
1878.43152	11073.3625
1881.56792	11049.0625
1884.70227	11056.0625
1887.83457	11003.9625
1890.96482	11011.3625
1894.09304	11007.3625
1897.21921	10995.3625
1900.34335	10990.3625
1903.46544	10921.1625
1906.58551	10932.5625
1909.70353	10927.8625
1912.81953	10897.4625
1915.93349	10884.3625
1919.04543	10855.4625
1922.15534	10833.5625
1925.26322	10819.4625
1928.36908	10793.7625
1931.47292	10780.7625
1934.57473	10743.1625
1937.67453	10724.8625
1940.77232	10681.6625
1943.86808	10661.5625
1946.96184	10637.9625
1950.05358	10614.6625
1953.14331	10583.2625
1956.23103	10561.7625
1959.31675	10519.0625
1962.40046	10489.2625
1965.48217	10455.2625
1968.56188	10393.5625
1971.63959	10407.3625
1974.7153	10341.4625
1977.78901	10325.6625
1980.86073	10300.0625
1983.93046	10258.6625
1986.99819	10245.4625
1990.06394	10206.4625
1993.1277	10163.2625
1996.18947	10149.5625
1999.24925	10094.9625
2002.30706	10067.1625
2005.36288	10051.4625
2008.41672	9995.9625
2011.46859	9994.7625
2014.51848	9941.4625
2017.56639	9917.7625
2020.61233	9912.2625
2023.6563	9900.0625
2026.6983	9862.4625
2029.73833	9853.0625
2032.7764	9821.0625
2035.8125	9796.4625
2038.84664	9742.9625
2041.87881	9744.9625
2044.90903	9726.2625
2047.93729	9714.7625
2050.96359	9687.1625
2053.98794	9690.9625
2057.01034	9674.0625
2060.03078	9666.3625
2063.04927	9625.9625
2066.06582	9634.8625
2069.08042	9630.8625
2072.09307	9634.5625
2075.10378	9596.7625
2078.11255	9595.0625
2081.11938	9614.1625
2084.12426	9600.9625
2087.12722	9599.0625
2090.12824	9594.0625
2093.12732	9606.2625
2096.12447	9586.3625
2099.11969	9585.4625
2102.11299	9600.0625
2105.10435	9594.0625
2108.09379	9613.1625
2111.08131	9604.9625
2114.0669	9620.1625
2117.05057	9590.8625
2120.03233	9597.6625
2123.01216	9630.3625
2125.99008	9599.3625
2128.96609	9626.7625
2131.94018	9629.6625
2134.91236	9638.9625
2137.88263	9629.9625
2140.851	9660.4625
2143.81746	9657.2625
2146.78201	9626.4625
2149.74466	9649.1625
2152.7054	9644.4625
2155.66425	9662.6625
2158.6212	9664.0625
2161.57625	9639.1625
2164.52941	9655.3625
2167.48067	9627.1625
2170.43004	9634.5625
2173.37752	9613.2625
2176.32311	9612.9625
2179.26681	9619.2625
2182.20863	9600.3625
2185.14856	9609.2625
2188.08661	9580.7625
2191.02278	9596.7625
2193.95707	9564.8625
2196.88948	9557.3625
2199.82001	9519.3625
2202.74867	9536.2625
2205.67545	9516.9625
2208.60037	9523.8625
2211.52341	9506.5625
2214.44458	9477.0625
2217.36388	9460.9625
2220.28132	9448.7625
2223.1969	9430.5625
2226.11061	9398.3625
2229.02246	9396.6625
2231.93245	9380.1625
2234.84058	9346.6625
2237.74686	9348.8625
2240.65128	9330.6625
2243.55385	9344.7625
2246.45456	9299.5625
2249.35343	9301.1625
2252.25044	9253.3625
2255.14561	9243.4625
2258.03893	9245.5625
2260.93041	9222.2625
2263.82004	9194.7625
2266.70783	9184.8625
2269.59378	9167.5625
2272.4779	9132.6625
2275.36017	9103.1625
2278.24061	9097.2625
2281.11922	9058.0625
2283.996	9049.8625
2286.87094	9021.1625
2289.74405	8998.7625
2292.61534	9001.0625
2295.4848	9012.1625
2298.35243	8976.5625
2301.21824	8965.8625
2304.08223	8976.4625
2306.94439	8954.6625
2309.80474	8926.4625
2312.66327	8941.4625
2315.51999	8927.1625
2318.37489	8905.9625
2321.22797	8876.1625
2324.07925	8883.0625
2326.92871	8870.5625
2329.77637	8896.5625
2332.62222	8878.7625
2335.46626	8822.3625
2338.3085	8836.8625
2341.14893	8809.4625
2343.98756	8819.6625
2346.8244	8783.3625
2349.65943	8777.5625
2352.49267	8775.4625
2355.32411	8793.8625
2358.15376	8782.6625
2360.98161	8762.6625
2363.80768	8773.1625
2366.63195	8761.1625
2369.45444	8750.6625
2372.27514	8768.7625
2375.09405	8738.2625
2377.91118	8726.3625
2380.72652	8707.5625
2383.54009	8673.8625
2386.35187	8673.7625
2389.16188	8630.6625
2391.97011	8632.9625
2394.77657	8605.0625
2397.58125	8585.3625
2400.38416	8576.8625
2403.18529	8539.8625
2405.98466	8546.3625
2408.78226	8553.5625
2411.57809	8533.1625
2414.37216	8485.2625
2417.16446	8506.3625
2419.955	8499.5625
2422.74378	8471.1625
2425.5308	8440.5625
2428.31606	8473.0625
2431.09956	8445.3625
2433.88131	8435.3625
2436.6613	8447.1625
2439.43954	8418.6625
2442.21603	8422.3625
2444.99077	8385.7625
2447.76377	8410.5625
2450.53501	8395.4625
2453.30451	8350.9625
2456.07226	8373.7625
2458.83827	8350.4625
2461.60254	8368.0625
2464.36507	8336.8625
2467.12586	8346.1625
2469.88492	8343.0625
2472.64224	8325.4625
2475.39782	8322.9625
2478.15167	8314.3625
2480.90379	8310.5625
2483.65417	8311.2625
2486.40283	8282.0625
2489.14976	8298.4625
2491.89497	8281.5625
2494.63845	8314.3625
2497.3802	8280.4625
2500.12024	8285.9625
2502.85855	8252.5625
2505.59514	8252.2625
2508.33002	8264.8625
2511.06318	8227.2625
2513.79462	8226.6625
2516.52435	8210.1625
2519.25237	8215.4625
2521.97867	8212.1625
2524.70327	8185.6625
2527.42616	8167.0625
2530.14734	8134.5625
2532.86681	8140.5625
2535.58458	8123.0625
2538.30065	8127.6625
2541.01501	8127.0625
2543.72768	8107.6625
2546.43864	8096.1625
2549.14791	8083.6625
2551.85548	8038.8625
2554.56136	8039.5625
2557.26554	8029.5625
2559.96803	8013.9625
2562.66883	8024.8625
2565.36794	8011.8625
2568.06536	8005.1625
2570.7611	7980.3625
2573.45514	7981.7625
2576.14751	7951.6625
2578.83819	7920.8625
2581.52719	7919.6625
2584.21451	7889.9625
2586.90015	7891.1625
2589.58411	7854.1625
2592.2664	7866.7625
2594.94701	7833.2625
2597.62594	7827.7625
2600.30321	7802.3625
2602.9788	7813.0625
2605.65273	7782.3625
2608.32498	7786.5625
2610.99557	7773.3625
2613.66449	7753.5625
2616.33175	7750.5625
2618.99734	7732.0625
2621.66128	7731.8625
2624.32355	7726.3625
2626.98416	7715.9625
2629.64311	7712.9625
2632.30041	7684.7625
2634.95605	7685.3625
2637.61004	7695.7625
2640.26238	7696.5625
2642.91306	7669.2625
2645.56209	7664.7625
2648.20948	7659.4625
2650.85521	7649.5625
2653.4993	7653.1625
2656.14175	7654.1625
2658.78255	7638.8625
2661.42171	7635.6625
2664.05923	7641.9625
2666.6951	7639.4625
2669.32934	7662.9625
2671.96194	7616.2625
2674.59291	7623.2625
2677.22224	7622.5625
2679.84993	7611.1625
2682.476	7614.7625
2685.10043	7598.5625
2687.72324	7620.8625
2690.34441	7617.2625
2692.96396	7622.4625
2695.58188	7619.5625
2698.19818	7591.1625
2700.81285	7616.6625
2703.4259	7628.8625
2706.03733	7643.8625
2708.64714	7651.9625
2711.25533	7625.6625
2713.86191	7617.6625
2716.46687	7636.5625
2719.07021	7624.4625
2721.67194	7614.0625
2724.27206	7588.7625
2726.87057	7612.2625
2729.46747	7622.1625
2732.06276	7600.8625
2734.65644	7596.0625
2737.24852	7592.0625
2739.83899	7593.6625
2742.42786	7584.2625
2745.01513	7577.9625
2747.60079	7547.7625
2750.18486	7560.3625
2752.76733	7538.1625
2755.3482	7562.0625
2757.92747	7541.6625
2760.50515	7528.0625
2763.08123	7536.7625
2765.65573	7493.6625
2768.22863	7488.0625
2770.79994	7486.3625
2773.36967	7467.7625
2775.9378	7481.7625
2778.50435	7449.9625
2781.06932	7426.6625
2783.6327	7444.1625
2786.1945	7431.0625
2788.75471	7403.4625
2791.31335	7385.5625
2793.87041	7380.6625
2796.42589	7362.2625
2798.97979	7354.3625
2801.53212	7356.5625
2804.08288	7342.1625
2806.63206	7301.7625
2809.17967	7292.0625
2811.72571	7289.4625
2814.27018	7270.3625
2816.81308	7270.0625
2819.35442	7262.3625
2821.89419	7243.8625
2824.43239	7237.3625
2826.96904	7213.6625
2829.50412	7239.6625
2832.03763	7207.3625
2834.56959	7206.0625
2837.1	7189.6625
2839.62884	7213.0625
2842.15613	7216.4625
2844.68186	7229.5625
2847.20604	7227.3625
2849.72867	7241.4625
2852.24974	7239.2625
2854.76927	7231.3625
2857.28724	7221.6625
2859.80367	7218.4625
2862.31855	7208.3625
2864.83189	7181.1625
2867.34368	7168.3625
2869.85393	7165.2625
2872.36264	7146.2625
2874.8698	7153.7625
2877.37543	7166.0625
2879.87952	7150.1625
2882.38207	7149.7625
2884.88308	7138.6625
2887.38256	7140.0625
2889.88051	7138.2625
2892.37692	7145.4625
2894.8718	7122.3625
2897.36515	7140.2625
2899.85698	7137.8625
2902.34727	7150.4625
2904.83604	7144.3625
2907.32328	7136.2625
2909.809	7156.5625
2912.29319	7151.0625
2914.77587	7157.6625
2917.25702	7129.0625
2919.73665	7122.6625
2922.21476	7155.5625
2924.69136	7129.8625
2927.16644	7117.0625
2929.64	7121.6625
2932.11205	7117.4625
2934.58258	7116.4625
2937.05161	7122.6625
2939.51912	7107.4625
2941.98513	7091.8625
2944.44962	7076.3625
2946.91261	7019.7625
2949.37409	7036.9625
2951.83407	7048.1625
2954.29254	7027.3625
2956.74951	7005.9625
2959.20498	6990.9625
2961.65895	6993.4625
2964.11142	6999.5625
2966.56239	6985.9625
2969.01186	6964.4625
2971.45984	6936.7625
2973.90632	6932.7625
2976.35131	6912.2625
2978.7948	6900.1625
2981.23681	6863.9625
2983.67732	6871.3625
2986.11635	6861.0625
2988.55388	6864.9625
2990.98993	6845.3625
2993.4245	6825.8625
2995.85758	6809.6625
2998.28917	6782.4625
3000.71928	6793.6625
3003.14791	6767.3625
3005.57506	6738.9625
3008.00073	6747.3625
3010.42493	6760.0625
3012.84764	6732.2625
3015.26888	6735.2625
3017.68865	6703.8625
3020.10694	6691.3625
3022.52376	6681.8625
3024.9391	6675.4625
3027.35298	6699.5625
3029.76539	6676.2625
3032.17632	6664.7625
3034.5858	6630.6625
3036.9938	6635.5625
3039.40034	6639.4625
3041.80542	6630.1625
3044.20903	6603.1625
3046.61118	6604.7625
3049.01187	6580.3625
3051.4111	6576.5625
3053.80888	6581.3625
3056.20519	6579.8625
3058.60005	6569.5625
3060.99345	6540.2625
3063.3854	6519.7625
3065.7759	6525.5625
3068.16494	6514.5625
3070.55254	6491.6625
3072.93868	6502.0625
3075.32338	6482.0625
3077.70662	6455.3625
3080.08842	6436.0625
3082.46878	6446.3625
3084.84769	6426.8625
3087.22515	6441.8625
3089.60118	6437.2625
3091.97576	6430.4625
3094.3489	6444.6625
3096.72061	6441.1625
3099.09087	6428.1625
3101.4597	6426.3625
3103.82709	6419.8625
3106.19305	6394.2625
3108.55757	6394.8625
3110.92066	6392.5625
3113.28232	6368.7625
3115.64255	6347.6625
3118.00134	6378.9625
3120.35871	6335.1625
3122.71466	6360.4625
3125.06917	6336.0625
3127.42226	6327.2625
3129.77393	6351.4625
3132.12417	6321.2625
3134.47299	6343.9625
3136.82039	6337.1625
3139.16636	6357.9625
3141.51092	6361.6625
3143.85406	6360.6625
3146.19579	6358.4625
3148.53609	6363.5625
3150.87499	6361.5625
3153.21246	6371.6625
3155.54853	6363.4625
3157.88318	6370.2625
3160.21642	6361.7625
3162.54826	6373.3625
3164.87868	6374.2625
3167.2077	6370.9625
3169.5353	6381.0625
3171.86151	6371.9625
3174.18631	6368.9625
3176.5097	6374.2625
3178.83169	6351.4625
3181.15228	6348.8625
3183.47147	6340.3625
3185.78926	6343.7625
3188.10565	6340.6625
3190.42065	6333.0625
3192.73424	6331.3625
3195.04645	6336.1625
3197.35725	6343.1625
3199.66667	6334.9625
3201.97469	6348.6625
3204.28132	6343.9625
3206.58656	6356.0625
3208.8904	6369.7625
3211.19287	6350.1625
3213.49394	6365.4625
3215.79363	6356.1625
3218.09193	6349.6625
3220.38884	6379.1625
3222.68438	6371.9625
3224.97853	6356.1625
3227.2713	6358.9625
3229.56269	6344.0625
3231.8527	6328.4625
3234.14133	6319.9625
3236.42858	6302.4625
3238.71446	6319.0625
3240.99896	6290.2625
3243.28209	6278.1625
3245.56384	6273.1625
3247.84423	6281.2625
3250.12324	6279.2625
3252.40088	6267.9625
3254.67715	6267.2625
3256.95205	6245.6625
3259.22558	6255.5625
3261.49775	6256.8625
3263.76855	6246.3625
3266.03799	6211.6625
3268.30606	6218.4625
3270.57277	6213.4625
3272.83812	6188.5625
3275.10211	6168.7625
3277.36474	6170.7625
3279.62601	6168.8625
3281.88593	6140.4625
3284.14448	6155.1625
3286.40168	6167.5625
3288.65753	6154.4625
3290.91202	6142.1625
3293.16516	6117.6625
3295.41695	6095.6625
3297.66738	6063.2625
3299.91647	6019.5625
3302.16421	6000.9625
3304.4106	5974.4625
3306.65564	5944.3625
3308.89933	5901.1625
3311.14169	5861.2625
3313.38269	5836.7625
3315.62236	5796.1625
3317.86068	5746.1625
3320.09766	5684.7625
3322.3333	5620.9625
3324.5676	5631.0625
3326.80056	5560.8625
3329.03219	5527.2625
3331.26248	4.1625
3333.49143	-0.3375
3335.71905	0.2625
