Data from AgNP_FTO_APTES_CRN_20uM_R6G_10uM_NaF_0.1M_Addition_RamanShift__10__17-12-08-016.txt Node

Date: Wed Dec 15 17:12:08 GMT 2021
User: TCL
Spectrometer: QEP01345
Trigger mode: 4
Integration Time (sec): 7.000000E0
Scans to average: 10
Electric dark correction enabled: true
Nonlinearity correction enabled: false
Boxcar width: 0
XAxis mode: Raman Shifts
Number of Pixels in Spectrum: 1044
>>>>>Begin Spectral Data<<<<<
46.04893	0.1
50.45542	-1.9
54.85868	-1.2
59.25871	-1.4
63.6555	62.9
68.04907	64.3
72.43941	68
76.82654	73.8
81.21044	78
85.59113	77.2
89.96862	83.5
94.34289	80.5
98.71396	88.3
103.08183	91.9
107.4465	96.3
111.80798	94.9
116.16626	98.1
120.52136	102.4
124.87327	104.4
129.222	110.6
133.56755	109.6
137.90993	116.5
142.24913	126.7
146.58517	138.3
150.91804	161.2
155.24774	191.3
159.57429	235.1
163.89768	297.6
168.21792	382
172.53501	521.9
176.84895	717.7
181.15975	1015.9
185.46741	1414.2
189.77193	1950.4
194.07331	2600.1
198.37157	3362.7
202.6667	4174.1
206.9587	4957
211.24758	5737.8
215.53334	6506.1
219.81599	7328.7
224.09553	8194.9
228.37195	9182.7
232.64527	10267.1
236.91549	11441.5
241.18261	12653.2
245.44663	13730.6
249.70755	14737.9
253.96539	15594.4
258.22014	16345.5
262.4718	16927.8
266.72039	17325.4
270.96589	17507.2
275.20832	17581
279.44768	17443.8
283.68397	17364.8
287.91719	17241.1
292.14735	17204.5
296.37445	17170.1
300.59849	17179.2
304.81948	17215.5
309.03742	17238.8
313.25231	17149.3
317.46415	16881.9
321.67296	16530.5
325.87872	16215.9
330.08145	16028.7
334.28114	16043.2
338.47781	16127.4
342.67145	16329.9
346.86207	16553.8
351.04966	16798.1
355.23424	17065.7
359.4158	17259.2
363.59435	17391.6
367.76989	17501.7
371.94243	17544.6
376.11196	17586.7
380.27849	17590.8
384.44203	17627.9
388.60257	17730
392.76012	17916.9
396.91468	18208.1
401.06626	18482.1
405.21485	18672.3
409.36047	18674.7
413.50311	18506.8
417.64277	18396.6
421.77947	18447.7
425.9132	18575.3
430.04396	18690.6
434.17176	18760.3
438.2966	18811
442.41849	18917.6
446.53742	19215.1
450.6534	19544
454.76644	19807.7
458.87653	19902.9
462.98368	19902.1
467.08789	19777.6
471.18916	19620.2
475.2875	19414.8
479.38291	19240.1
483.4754	19070.8
487.56496	18905.5
491.6516	18708.3
495.73531	18596.3
499.81612	18570.4
503.89401	18722.1
507.96899	18868.4
512.04106	18912.2
516.11023	18856.3
520.1765	18763.1
524.23987	18613
528.30034	18454
532.35792	18306.5
536.41261	18127.4
540.46441	17984.7
544.51333	17987.6
548.55936	18152.2
552.60252	18489.5
556.64279	18793.8
560.6802	19010.8
564.71473	19087.3
568.7464	19249.3
572.7752	19678.4
576.80114	20192.1
580.82422	20863.3
584.84444	21499.3
588.86181	21991.4
592.87633	22275.7
596.888	22022
600.89682	21490.5
604.9028	21426
608.90594	22354.1
612.90624	23386.5
616.90371	22259.3
620.89834	19619.4
624.89015	18371.6
628.87913	18242.8
632.86528	18373.3
636.84862	18433.4
640.82913	18292.5
644.80683	17952.1
648.78172	17731.1
652.75379	17694.8
656.72306	17808.8
660.68952	17968.8
664.65319	17938.1
668.61405	17789.2
672.57211	17735.3
676.52738	17810.1
680.47986	17770
684.42955	17666.1
688.37646	17640.5
692.32058	17696.7
696.26192	17861.2
700.20048	18084.9
704.13626	18241.2
708.06928	18336.4
711.99952	18273.3
715.927	18227
719.85171	18205.6
723.77365	18088.4
727.69284	17865.7
731.60928	17643.6
735.52295	17551.8
739.43388	17519.1
743.34206	17593.9
747.24749	17690.5
751.15017	17799.4
755.05012	18040.6
758.94733	18491.6
762.8418	19253
766.73354	20391.9
770.62254	21448.7
774.50882	21556.2
778.39237	20669.6
782.27321	19559.3
786.15132	18631.2
790.02671	18048.1
793.89938	17727.2
797.76935	17591.1
801.6366	17539.7
805.50115	17472.4
809.36299	17392.5
813.22213	17284.2
817.07857	17246.3
820.93231	17198.7
824.78336	17142.3
828.63172	17139.8
832.47738	17098.1
836.32036	17140.6
840.16066	17124.5
843.99827	17141.8
847.8332	17088.3
851.66546	17057
855.49504	17069.9
859.32195	17073.7
863.1462	17049.9
866.96777	17013.9
870.78668	16990.4
874.60293	17017.3
878.41652	17032.8
882.22745	17073.2
886.03573	17106.3
889.84136	17115
893.64433	17116.3
897.44466	17062.8
901.24235	16998.3
905.0374	16972.2
908.8298	16948
912.61957	16991.2
916.40671	17127.9
920.19121	17292.7
923.97308	17428.4
927.75233	17396.4
931.52895	17244.1
935.30295	17052.4
939.07433	16837.6
942.84309	16643.8
946.60924	16532.4
950.37278	16511.2
954.13371	16499.1
957.89203	16448.2
961.64774	16452.4
965.40086	16474.5
969.15137	16404.9
972.89929	16336.4
976.64461	16317.1
980.38733	16298.4
984.12747	16299.8
987.86502	16379.3
991.59999	16428.7
995.33237	16520.7
999.06217	16735.5
1002.78939	16987.2
1006.51404	17236.1
1010.23611	17511
1013.95561	17742.2
1017.67255	17733.5
1021.38692	17587
1025.09872	17364.1
1028.80796	17226.4
1032.51465	17177.7
1036.21877	17232.3
1039.92035	17329.6
1043.61937	17378.8
1047.31584	17432.7
1051.00976	17477.1
1054.70114	17621.6
1058.38998	17815.8
1062.07627	18185.3
1065.76003	18568.8
1069.44126	19018.8
1073.11995	19494.1
1076.79611	19710.3
1080.46974	19658.8
1084.14085	19424.9
1087.80943	19252.1
1091.47549	19183.3
1095.13903	19048
1098.80005	18828.2
1102.45857	18430
1106.11456	18061.8
1109.76805	17836.6
1113.41903	17775.5
1117.06751	17832.7
1120.71348	17939.6
1124.35696	18121.4
1127.99793	18304.8
1131.63641	18454
1135.2724	18420.8
1138.90589	18316.1
1142.5369	18346.8
1146.16542	18379.1
1149.79145	18465.4
1153.415	18562.5
1157.03607	18759.2
1160.65467	19072.2
1164.27079	19753.2
1167.88443	20578.5
1171.49561	21555.2
1175.10432	22706.1
1178.71056	24099.4
1182.31434	25444.3
1185.91565	26228.9
1189.51451	26393.9
1193.11091	26054.7
1196.70485	25311.2
1200.29634	24383.4
1203.88538	23639.1
1207.47197	23174.8
1211.05612	22793.2
1214.63782	22379.7
1218.21708	21852.5
1221.79391	21305.8
1225.36829	20928.3
1228.94024	20724.1
1232.50976	20605.8
1236.07685	20532.5
1239.6415	20432.7
1243.20374	20426.2
1246.76355	20533.1
1250.32093	20785.7
1253.8759	21152.8
1257.42845	21638.4
1260.97859	22179.2
1264.52631	22694.9
1268.07163	23175.2
1271.61453	23608.8
1275.15503	24081.7
1278.69312	24557.1
1282.22882	25034.7
1285.76211	25565.6
1289.29301	26270.2
1292.82151	27144.5
1296.34761	28131.1
1299.87133	29317.6
1303.39266	30551.2
1306.9116	31701.3
1310.42815	32658.8
1313.94233	33187.5
1317.45412	33106.4
1320.96354	32758.6
1324.47058	32557.5
1327.97525	32514.6
1331.47754	32590.4
1334.97747	32714.1
1338.47502	32855.5
1341.97022	32974.4
1345.46305	33070.2
1348.95352	33023.7
1352.44163	32985.5
1355.92738	33155.9
1359.41078	33727.7
1362.89183	34156.2
1366.37053	33529.7
1369.84688	31460
1373.32088	28888
1376.79254	26837.4
1380.26186	25946.7
1383.72883	25714.7
1387.19347	25566
1390.65578	25263.6
1394.11575	25027.1
1397.57339	24999
1401.0287	25189.1
1404.48168	25268.7
1407.93234	25219.8
1411.38068	24862.3
1414.82669	24277.4
1418.27039	23512.1
1421.71177	22682.1
1425.15083	22105.2
1428.58758	21820.8
1432.02203	22005.4
1435.45416	22424.2
1438.88399	22953.4
1442.31151	23336.8
1445.73673	23541.3
1449.15965	23706.7
1452.58027	23797.6
1455.9986	23841.5
1459.41463	24011
1462.82837	24391.1
1466.23982	24814.2
1469.64898	25185.5
1473.05586	25470.3
1476.46045	25532.6
1479.86276	25449.6
1483.26279	25348.2
1486.66054	25358.1
1490.05602	25572.7
1493.44922	25925.3
1496.84016	26366
1500.22882	27068.6
1503.61521	27968.8
1506.99934	28891.9
1510.38121	29488.9
1513.76081	29489.9
1517.13816	28889.5
1520.51324	27982.7
1523.88607	27359.6
1527.25665	27043.2
1530.62498	26903.2
1533.99105	26783.9
1537.35488	26501.8
1540.71647	26032
1544.07581	25417.8
1547.4329	24814.6
1550.78776	24240.3
1554.14038	23857.1
1557.49077	23619.9
1560.83892	23564.7
1564.18484	23647.4
1567.52853	23881.9
1570.86999	24246.5
1574.20922	24759
1577.54624	25421.5
1580.88103	25736.3
1584.2136	25781.6
1587.54395	25778.8
1590.87208	26020.4
1594.19801	26732.8
1597.52172	27604.7
1600.84321	27917.6
1604.16251	27029.1
1607.47959	25583.5
1610.79447	24000.4
1614.10715	22388
1617.41763	20974.3
1620.7259	19949.3
1624.03199	19375.6
1627.33587	19230.5
1630.63757	19562.8
1633.93707	20392.3
1637.23439	21897.2
1640.52951	24140.6
1643.82246	26833.5
1647.11321	29054.4
1650.40179	29565.1
1653.68819	28035.2
1656.97241	25186.2
1660.25446	22242
1663.53433	19940.6
1666.81203	18364.3
1670.08756	17290.1
1673.36092	16642.9
1676.63211	16214.5
1679.90115	15883.7
1683.16801	15658.7
1686.43272	15475.9
1689.69527	15382.9
1692.95567	15302.7
1696.2139	15252.2
1699.46999	15205.9
1702.72392	15156.9
1705.97571	15125.6
1709.22535	15047.3
1712.47284	15025.8
1715.71819	15000.5
1718.96139	14974.5
1722.20246	14922.7
1725.44139	14854.6
1728.67818	14789.1
1731.91284	14731.1
1735.14537	14643.7
1738.37576	14563
1741.60403	14539.4
1744.83017	14495.4
1748.05418	14459.4
1751.27607	14438.3
1754.49584	14405.6
1757.71349	14420.7
1760.92903	14393.8
1764.14244	14401.5
1767.35375	14370.5
1770.56294	14355.9
1773.77002	14335.9
1776.97499	14320.1
1780.17785	14281.4
1783.37861	14284.4
1786.57727	14224.1
1789.77382	14160.7
1792.96828	14157.9
1796.16064	14116.8
1799.3509	14112
1802.53907	14061.1
1805.72514	14009.1
1808.90913	13989.5
1812.09102	13968
1815.27083	13948
1818.44856	13946.4
1821.6242	13932.6
1824.79776	13903.9
1827.96924	13887.6
1831.13864	13913.8
1834.30597	13919
1837.47122	13890.3
1840.6344	13882.7
1843.7955	13921.1
1846.95454	13908.1
1850.11151	13873.1
1853.26642	13843.3
1856.41926	13847.2
1859.57004	13830.6
1862.71876	13812.9
1865.86542	13804.4
1869.01003	13796.8
1872.15258	13760.4
1875.29308	13730.7
1878.43152	13722.1
1881.56792	13687.8
1884.70227	13653.5
1887.83457	13667.8
1890.96482	13607.5
1894.09304	13604.7
1897.21921	13618
1900.34335	13585.9
1903.46544	13565.2
1906.58551	13564.9
1909.70353	13518.9
1912.81953	13500.7
1915.93349	13485.3
1919.04543	13431.8
1922.15534	13426.8
1925.26322	13388.6
1928.36908	13385
1931.47292	13320.4
1934.57473	13307.5
1937.67453	13262.3
1940.77232	13254.2
1943.86808	13211.5
1946.96184	13188.6
1950.05358	13157.9
1953.14331	13126
1956.23103	13081.9
1959.31675	13078
1962.40046	13001.9
1965.48217	12989
1968.56188	12940.4
1971.63959	12912.4
1974.7153	12834
1977.78901	12810.6
1980.86073	12788.6
1983.93046	12754.7
1986.99819	12735.3
1990.06394	12678.7
1993.1277	12664.6
1996.18947	12570.8
1999.24925	12544.3
2002.30706	12513.9
2005.36288	12478.2
2008.41672	12480.1
2011.46859	12411.6
2014.51848	12380.2
2017.56639	12364.5
2020.61233	12333.3
2023.6563	12288
2026.6983	12267
2029.73833	12208.9
2032.7764	12210.6
2035.8125	12185
2038.84664	12157.6
2041.87881	12137.5
2044.90903	12124.7
2047.93729	12080.4
2050.96359	12081.9
2053.98794	12070.1
2057.01034	12040.8
2060.03078	12038.3
2063.04927	12020.9
2066.06582	12024.3
2069.08042	12002.5
2072.09307	12017.7
2075.10378	11988.8
2078.11255	11958.9
2081.11938	11996.5
2084.12426	11962.9
2087.12722	11979.1
2090.12824	11961.7
2093.12732	11967.3
2096.12447	11990.8
2099.11969	11960.5
2102.11299	12002.7
2105.10435	11986.8
2108.09379	11999.1
2111.08131	12004.5
2114.0669	12036.1
2117.05057	12016.3
2120.03233	12032.8
2123.01216	12030.1
2125.99008	12012.4
2128.96609	12049
2131.94018	12060.5
2134.91236	12073.9
2137.88263	12071.4
2140.851	12086.5
2143.81746	12085.5
2146.78201	12106.3
2149.74466	12103.3
2152.7054	12101.5
2155.66425	12099.4
2158.6212	12107.9
2161.57625	12094.8
2164.52941	12081.3
2167.48067	12090.8
2170.43004	12080.2
2173.37752	12079
2176.32311	12069.4
2179.26681	12059.2
2182.20863	12045.4
2185.14856	12062.7
2188.08661	12021.8
2191.02278	12049.6
2193.95707	12030.5
2196.88948	12016.7
2199.82001	12010.6
2202.74867	11988.5
2205.67545	11981.4
2208.60037	11989.3
2211.52341	11958.3
2214.44458	11944.5
2217.36388	11899.9
2220.28132	11896.6
2223.1969	11882.2
2226.11061	11866.7
2229.02246	11872.1
2231.93245	11839.3
2234.84058	11800.9
2237.74686	11787.6
2240.65128	11795.2
2243.55385	11751.8
2246.45456	11717.7
2249.35343	11711.6
2252.25044	11714.1
2255.14561	11687.2
2258.03893	11679.3
2260.93041	11652.6
2263.82004	11617.7
2266.70783	11605.1
2269.59378	11583.2
2272.4779	11530.2
2275.36017	11508.5
2278.24061	11479.6
2281.11922	11478.6
2283.996	11451
2286.87094	11418.7
2289.74405	11411.1
2292.61534	11381.9
2295.4848	11375.6
2298.35243	11392.7
2301.21824	11376.5
2304.08223	11369.5
2306.94439	11355.2
2309.80474	11353.6
2312.66327	11335.8
2315.51999	11333
2318.37489	11331.6
2321.22797	11287.4
2324.07925	11287.1
2326.92871	11279.3
2329.77637	11248.4
2332.62222	11242.1
2335.46626	11237.6
2338.3085	11236.8
2341.14893	11224.1
2343.98756	11190.5
2346.8244	11188.1
2349.65943	11198.4
2352.49267	11206.6
2355.32411	11190.7
2358.15376	11168.4
2360.98161	11169.4
2363.80768	11181.6
2366.63195	11153.2
2369.45444	11150.1
2372.27514	11164.1
2375.09405	11131
2377.91118	11118.5
2380.72652	11080.8
2383.54009	11055.2
2386.35187	11059.9
2389.16188	11028.4
2391.97011	11010.4
2394.77657	10976.1
2397.58125	10971.3
2400.38416	10969
2403.18529	10918.9
2405.98466	10934.5
2408.78226	10902.5
2411.57809	10899.3
2414.37216	10903.2
2417.16446	10882.3
2419.955	10866.3
2422.74378	10849.5
2425.5308	10864.5
2428.31606	10826.6
2431.09956	10789.2
2433.88131	10805.3
2436.6613	10796
2439.43954	10791
2442.21603	10795.6
2444.99077	10753
2447.76377	10763
2450.53501	10755.2
2453.30451	10758.9
2456.07226	10728.5
2458.83827	10742.4
2461.60254	10710.7
2464.36507	10722.1
2467.12586	10710.8
2469.88492	10697.6
2472.64224	10708.7
2475.39782	10690.9
2478.15167	10689.6
2480.90379	10690.5
2483.65417	10686.1
2486.40283	10686
2489.14976	10692.3
2491.89497	10698.1
2494.63845	10692.2
2497.3802	10683.6
2500.12024	10647
2502.85855	10671.5
2505.59514	10654.2
2508.33002	10634.2
2511.06318	10633
2513.79462	10626.8
2516.52435	10609.3
2519.25237	10638.7
2521.97867	10615.6
2524.70327	10593.4
2527.42616	10547.6
2530.14734	10576.1
2532.86681	10552.4
2535.58458	10533.9
2538.30065	10543.2
2541.01501	10508.2
2543.72768	10485.9
2546.43864	10486
2549.14791	10480.4
2551.85548	10441.6
2554.56136	10432.4
2557.26554	10433.6
2559.96803	10453.4
2562.66883	10402.6
2565.36794	10389.6
2568.06536	10416.5
2570.7611	10404.6
2573.45514	10380.1
2576.14751	10365
2578.83819	10333.7
2581.52719	10336.9
2584.21451	10307.6
2586.90015	10315
2589.58411	10294.9
2592.2664	10268.6
2594.94701	10234.8
2597.62594	10241.6
2600.30321	10221.7
2602.9788	10200.9
2605.65273	10195.4
2608.32498	10180.7
2610.99557	10167.6
2613.66449	10204.1
2616.33175	10166.7
2618.99734	10157.8
2621.66128	10155.4
2624.32355	10129.7
2626.98416	10124.6
2629.64311	10111.4
2632.30041	10122.5
2634.95605	10109.3
2637.61004	10066.1
2640.26238	10051.7
2642.91306	10060
2645.56209	10084.5
2648.20948	10083
2650.85521	10055.8
2653.4993	10075.6
2656.14175	10066.3
2658.78255	10081.5
2661.42171	10082.7
2664.05923	10085.8
2666.6951	10066.3
2669.32934	10061.9
2671.96194	10057.2
2674.59291	10048.5
2677.22224	10071.3
2679.84993	10080.6
2682.476	10066.4
2685.10043	10074.6
2687.72324	10070.6
2690.34441	10054.8
2692.96396	10057
2695.58188	10074.3
2698.19818	10048.6
2700.81285	10074
2703.4259	10080.1
2706.03733	10122.9
2708.64714	10089.5
2711.25533	10105.5
2713.86191	10114.1
2716.46687	10110.6
2719.07021	10092.2
2721.67194	10070.6
2724.27206	10071.7
2726.87057	10073.7
2729.46747	10057.4
2732.06276	10076.1
2734.65644	10068.3
2737.24852	10095.7
2739.83899	10053.2
2742.42786	10064.8
2745.01513	10041.8
2747.60079	10008.8
2750.18486	10009.3
2752.76733	10035.9
2755.3482	10036.9
2757.92747	10031
2760.50515	9984
2763.08123	9981.3
2765.65573	9977.1
2768.22863	9981.3
2770.79994	9978.5
2773.36967	9985.3
2775.9378	9954.6
2778.50435	9941.4
2781.06932	9915.4
2783.6327	9908.4
2786.1945	9902.4
2788.75471	9883.2
2791.31335	9860.1
2793.87041	9861.1
2796.42589	9817.7
2798.97979	9840.5
2801.53212	9830.8
2804.08288	9828.8
2806.63206	9785.9
2809.17967	9730.3
2811.72571	9719.9
2814.27018	9705.7
2816.81308	9713.7
2819.35442	9679.7
2821.89419	9656.4
2824.43239	9669.9
2826.96904	9651
2829.50412	9652.4
2832.03763	9613.7
2834.56959	9610.7
2837.1	9587.6
2839.62884	9621.3
2842.15613	9612.9
2844.68186	9626.5
2847.20604	9610.1
2849.72867	9620.4
2852.24974	9605.3
2854.76927	9584.3
2857.28724	9609.7
2859.80367	9569.2
2862.31855	9602.3
2864.83189	9551
2867.34368	9540.4
2869.85393	9539.6
2872.36264	9536.1
2874.8698	9524.5
2877.37543	9519.5
2879.87952	9521.5
2882.38207	9521.8
2884.88308	9495.1
2887.38256	9518.7
2889.88051	9520.7
2892.37692	9490.7
2894.8718	9518.7
2897.36515	9507.4
2899.85698	9506.9
2902.34727	9516
2904.83604	9513.9
2907.32328	9556.9
2909.809	9507.2
2912.29319	9565.9
2914.77587	9538
2917.25702	9522.6
2919.73665	9489.2
2922.21476	9534.5
2924.69136	9525.5
2927.16644	9530.4
2929.64	9506.4
2932.11205	9497.7
2934.58258	9469.9
2937.05161	9491.1
2939.51912	9508.8
2941.98513	9486.3
2944.44962	9444
2946.91261	9417.7
2949.37409	9424
2951.83407	9440.5
2954.29254	9409.4
2956.74951	9404.2
2959.20498	9392.5
2961.65895	9388.2
2964.11142	9394.5
2966.56239	9357.2
2969.01186	9355.5
2971.45984	9315.4
2973.90632	9327.4
2976.35131	9279.8
2978.7948	9261.9
2981.23681	9251.9
2983.67732	9257.5
2986.11635	9251.4
2988.55388	9213.4
2990.98993	9200.7
2993.4245	9173.4
2995.85758	9158.7
2998.28917	9132.4
3000.71928	9136.3
3003.14791	9092.3
3005.57506	9099.8
3008.00073	9080.7
3010.42493	9079.2
3012.84764	9039.2
3015.26888	9017.6
3017.68865	9009.2
3020.10694	9011.6
3022.52376	8976.3
3024.9391	8987
3027.35298	8981.9
3029.76539	8985.6
3032.17632	8959.6
3034.5858	8953.9
3036.9938	8951.1
3039.40034	8938.1
3041.80542	8950
3044.20903	8917.7
3046.61118	8900.7
3049.01187	8878.6
3051.4111	8891.5
3053.80888	8849.6
3056.20519	8865.3
3058.60005	8827.4
3060.99345	8815.2
3063.3854	8780.9
3065.7759	8762.9
3068.16494	8763.9
3070.55254	8727.3
3072.93868	8731
3075.32338	8702.4
3077.70662	8668.8
3080.08842	8650
3082.46878	8664.8
3084.84769	8617.4
3087.22515	8638.2
3089.60118	8645.3
3091.97576	8623
3094.3489	8638.3
3096.72061	8628.7
3099.09087	8610.2
3101.4597	8602.2
3103.82709	8582.6
3106.19305	8586.4
3108.55757	8572.3
3110.92066	8548
3113.28232	8552.8
3115.64255	8529.5
3118.00134	8514.5
3120.35871	8509.5
3122.71466	8493.6
3125.06917	8479.5
3127.42226	8465.5
3129.77393	8468.7
3132.12417	8472.8
3134.47299	8470.2
3136.82039	8459.1
3139.16636	8481.3
3141.51092	8468.8
3143.85406	8470.1
3146.19579	8498.9
3148.53609	8488
3150.87499	8493.1
3153.21246	8475
3155.54853	8500.2
3157.88318	8468.6
3160.21642	8475.2
3162.54826	8468.7
3164.87868	8478.1
3167.2077	8476.4
3169.5353	8473.4
3171.86151	8460.8
3174.18631	8448.8
3176.5097	8445.2
3178.83169	8431.6
3181.15228	8456.5
3183.47147	8434.4
3185.78926	8455.7
3188.10565	8427
3190.42065	8436.5
3192.73424	8410.6
3195.04645	8395.8
3197.35725	8415
3199.66667	8401.9
3201.97469	8436.2
3204.28132	8417
3206.58656	8430.7
3208.8904	8426
3211.19287	8421.9
3213.49394	8406.9
3215.79363	8409
3218.09193	8429.5
3220.38884	8403.4
3222.68438	8441.3
3224.97853	8394.4
3227.2713	8407.7
3229.56269	8377.9
3231.8527	8382.2
3234.14133	8342.5
3236.42858	8355.3
3238.71446	8322.9
3240.99896	8331.3
3243.28209	8311.7
3245.56384	8296.7
3247.84423	8313.2
3250.12324	8311.8
3252.40088	8290.5
3254.67715	8308.6
3256.95205	8281.5
3259.22558	8281
3261.49775	8261.7
3263.76855	8263.1
3266.03799	8230.4
3268.30606	8208
3270.57277	8199.3
3272.83812	8181.7
3275.10211	8140.6
3277.36474	8154.3
3279.62601	8155.8
3281.88593	8146.6
3284.14448	8174.7
3286.40168	8147.3
3288.65753	8146.9
3290.91202	8111.8
3293.16516	8114.4
3295.41695	8077.9
3297.66738	8021.1
3299.91647	7984.8
3302.16421	7939.2
3304.4106	7919.1
3306.65564	7891.5
3308.89933	7824.6
3311.14169	7784.8
3313.38269	7734.9
3315.62236	7680.7
3317.86068	7611.2
3320.09766	7544.1
3322.3333	7486.2
3324.5676	7489.2
3326.80056	7368.2
3329.03219	7324.5
3331.26248	2.8
3333.49143	0.2
3335.71905	0.8
