Data from AgNP_FTO_APTES_CRN_5uM_R6G_10uM_NaF_0.1M_Addition_RamanShift__13__15-41-07-912.txt Node

Date: Wed Dec 15 15:41:07 GMT 2021
User: TCL
Spectrometer: QEP01345
Trigger mode: 4
Integration Time (sec): 7.000000E0
Scans to average: 10
Electric dark correction enabled: true
Nonlinearity correction enabled: false
Boxcar width: 0
XAxis mode: Raman Shifts
Number of Pixels in Spectrum: 1044
>>>>>Begin Spectral Data<<<<<
46.04893	0.8875
50.45542	-2.4125
54.85868	-1.8125
59.25871	-0.9125
63.6555	116.7875
68.04907	128.4875
72.43941	129.2875
76.82654	134.4875
81.21044	141.8875
85.59113	148.8875
89.96862	153.8875
94.34289	153.0875
98.71396	162.6875
103.08183	167.2875
107.4465	172.5875
111.80798	177.3875
116.16626	184.1875
120.52136	188.9875
124.87327	197.0875
129.222	204.1875
133.56755	218.4875
137.90993	238.2875
142.24913	258.9875
146.58517	289.4875
150.91804	341.5875
155.24774	406.2875
159.57429	504.2875
163.89768	641.6875
168.21792	850.0875
172.53501	1168.3875
176.84895	1618.0875
181.15975	2275.1875
185.46741	3181.0875
189.77193	4370.4875
194.07331	5855.8875
198.37157	7558.7875
202.6667	9350.8875
206.9587	11106.9875
211.24758	12837.9875
215.53334	14519.0875
219.81599	16297.9875
224.09553	18250.1875
228.37195	20358.5875
232.64527	22799.7875
236.91549	25355.2875
241.18261	27992.1875
245.44663	30494.0875
249.70755	32834.1875
253.96539	34857.5875
258.22014	36562.5875
262.4718	37885.6875
266.72039	38781.4875
270.96589	39267.3875
275.20832	39370.9875
279.44768	39220.2875
283.68397	38952.1875
287.91719	38609.7875
292.14735	38349.3875
296.37445	38199.8875
300.59849	38072.7875
304.81948	38102.9875
309.03742	37994.8875
313.25231	37796.4875
317.46415	37331.1875
321.67296	36822.9875
325.87872	36395.7875
330.08145	36226.4875
334.28114	36295.9875
338.47781	36610.9875
342.67145	37007.0875
346.86207	37473.8875
351.04966	37974.5875
355.23424	38490.2875
359.4158	38990.7875
363.59435	39431.0875
367.76989	39761.3875
371.94243	40015.5875
376.11196	40065.4875
380.27849	40149.1875
384.44203	40291.1875
388.60257	40553.9875
392.76012	40945.6875
396.91468	41498.2875
401.06626	42117.4875
405.21485	42582.9875
409.36047	42575.5875
413.50311	42382.4875
417.64277	42353.6875
421.77947	42617.1875
425.9132	42988.4875
430.04396	43271.9875
434.17176	43457.5875
438.2966	43478.1875
442.41849	43753.7875
446.53742	44374.7875
450.6534	45159.1875
454.76644	45760.7875
458.87653	46078.2875
462.98368	46064.0875
467.08789	45865.4875
471.18916	45435.9875
475.2875	44947.7875
479.38291	44595.0875
483.4754	44302.6875
487.56496	44030.8875
491.6516	43679.2875
495.73531	43365.6875
499.81612	43282.3875
503.89401	43638.8875
507.96899	43940.2875
512.04106	44187.2875
516.11023	44114.4875
520.1765	43744.5875
524.23987	43331.3875
528.30034	42930.2875
532.35792	42610.3875
536.41261	42228.3875
540.46441	41979.3875
544.51333	42058.0875
548.55936	42459.7875
552.60252	43118.9875
556.64279	43731.8875
560.6802	44173.9875
564.71473	44509.6875
568.7464	45095.0875
572.7752	46203.7875
576.80114	47620.0875
580.82422	49212.2875
584.84444	50865.2875
588.86181	52441.3875
592.87633	53449.6875
596.888	52791.0875
600.89682	51134.3875
604.9028	50751.1875
608.90594	52249.9875
612.90624	53474.9875
616.90371	50679.6875
620.89834	45906.5875
624.89015	43945.5875
628.87913	43938.9875
632.86528	44219.2875
636.84862	44197.7875
640.82913	43641.9875
644.80683	42849.8875
648.78172	42290.1875
652.75379	42320.1875
656.72306	42653.7875
660.68952	43061.5875
664.65319	42906.8875
668.61405	42576.4875
672.57211	42577.6875
676.52738	42650.8875
680.47986	42648.5875
684.42955	42459.1875
688.37646	42342.1875
692.32058	42557.2875
696.26192	42951.5875
700.20048	43442.2875
704.13626	43701.9875
708.06928	43942.9875
711.99952	43913.4875
715.927	43795.8875
719.85171	43743.0875
723.77365	43542.1875
727.69284	42999.1875
731.60928	42511.5875
735.52295	42216.3875
739.43388	42105.2875
743.34206	42173.5875
747.24749	42483.7875
751.15017	42843.9875
755.05012	43464.0875
758.94733	44397.2875
762.8418	45848.9875
766.73354	48015.6875
770.62254	49741.9875
774.50882	49699.8875
778.39237	48070.3875
782.27321	46044.4875
786.15132	44378.7875
790.02671	43322.8875
793.89938	42672.1875
797.76935	42419.0875
801.6366	42259.7875
805.50115	42187.5875
809.36299	42044.2875
813.22213	41795.7875
817.07857	41653.2875
820.93231	41478.1875
824.78336	41398.9875
828.63172	41309.7875
832.47738	41251.1875
836.32036	41225.6875
840.16066	41258.2875
843.99827	41260.6875
847.8332	41269.1875
851.66546	41333.0875
855.49504	41418.9875
859.32195	41456.8875
863.1462	41372.1875
866.96777	41309.1875
870.78668	41317.5875
874.60293	41380.3875
878.41652	41430.0875
882.22745	41473.0875
886.03573	41631.5875
889.84136	41657.6875
893.64433	41573.9875
897.44466	41495.0875
901.24235	41490.2875
905.0374	41531.4875
908.8298	41421.4875
912.61957	41561.6875
916.40671	41836.7875
920.19121	42328.6875
923.97308	42563.1875
927.75233	42455.2875
931.52895	41989.5875
935.30295	41496.9875
939.07433	41041.8875
942.84309	40627.6875
946.60924	40471.7875
950.37278	40414.6875
954.13371	40369.3875
957.89203	40352.1875
961.64774	40374.1875
965.40086	40293.7875
969.15137	40265.4875
972.89929	40125.5875
976.64461	40022.7875
980.38733	39980.6875
984.12747	40038.8875
987.86502	40069.4875
991.59999	40226.2875
995.33237	40437.0875
999.06217	40874.6875
1002.78939	41506.0875
1006.51404	42130.3875
1010.23611	42896.3875
1013.95561	43353.6875
1017.67255	43382.0875
1021.38692	42966.1875
1025.09872	42435.7875
1028.80796	41941.4875
1032.51465	41724.9875
1036.21877	41795.3875
1039.92035	41956.7875
1043.61937	42126.3875
1047.31584	42331.7875
1051.00976	42536.0875
1054.70114	42786.2875
1058.38998	43171.3875
1062.07627	43898.6875
1065.76003	44768.1875
1069.44126	45713.0875
1073.11995	46687.4875
1076.79611	47355.5875
1080.46974	47434.5875
1084.14085	47183.9875
1087.80943	47073.0875
1091.47549	47068.9875
1095.13903	47051.6875
1098.80005	46531.5875
1102.45857	45622.9875
1106.11456	44823.2875
1109.76805	44351.2875
1113.41903	44180.3875
1117.06751	44159.1875
1120.71348	44305.1875
1124.35696	44552.3875
1127.99793	44948.6875
1131.63641	45202.2875
1135.2724	45322.8875
1138.90589	45416.0875
1142.5369	45626.7875
1146.16542	45805.5875
1149.79145	46034.1875
1153.415	46331.1875
1157.03607	46867.8875
1160.65467	47823.1875
1164.27079	49473.9875
1167.88443	51394.6875
1171.49561	53272.2875
1175.10432	55476.4875
1178.71056	58079.8875
1182.31434	60780.5875
1185.91565	62711.8875
1189.51451	63484.1875
1193.11091	63307.1875
1196.70485	62075.0875
1200.29634	60237.8875
1203.88538	58814.6875
1207.47197	58010.3875
1211.05612	57707.7875
1214.63782	57002.7875
1218.21708	55769.4875
1221.79391	54114.7875
1225.36829	52875.7875
1228.94024	52154.0875
1232.50976	51804.3875
1236.07685	51603.4875
1239.6415	51494.3875
1243.20374	51570.0875
1246.76355	51786.8875
1250.32093	52360.0875
1253.8759	53221.8875
1257.42845	54408.6875
1260.97859	55690.4875
1264.52631	57046.5875
1268.07163	58283.2875
1271.61453	59545.4875
1275.15503	60719.0875
1278.69312	62072.4875
1282.22882	63403.1875
1285.76211	64746.5875
1289.29301	66360.7875
1292.82151	68163.9875
1296.34761	70479.6875
1299.87133	73219.6875
1303.39266	75864.3875
1306.9116	78247.3875
1310.42815	79920.3875
1313.94233	80606.5875
1317.45412	80479.5875
1320.96354	80189.4875
1324.47058	80500.0875
1327.97525	81118.2875
1331.47754	81926.4875
1334.97747	82654.6875
1338.47502	83348.2875
1341.97022	84134.7875
1345.46305	84485.4875
1348.95352	84095.7875
1352.44163	83034.3875
1355.92738	82016.5875
1359.41078	81407.0875
1362.89183	80911.0875
1366.37053	79159.5875
1369.84688	75218.9875
1373.32088	70270.8875
1376.79254	66456.1875
1380.26186	64655.2875
1383.72883	64350.0875
1387.19347	64401.5875
1390.65578	64031.9875
1394.11575	63772.3875
1397.57339	63970.4875
1401.0287	64636.5875
1404.48168	65348.7875
1407.93234	65146.5875
1411.38068	64198.7875
1414.82669	62528.1875
1418.27039	60485.7875
1421.71177	58488.7875
1425.15083	57129.0875
1428.58758	56562.9875
1432.02203	57057.5875
1435.45416	58216.4875
1438.88399	59659.5875
1442.31151	60768.9875
1445.73673	61318.6875
1449.15965	61603.0875
1452.58027	61806.8875
1455.9986	61874.0875
1459.41463	62413.6875
1462.82837	63250.8875
1466.23982	64310.0875
1469.64898	64976.6875
1473.05586	65224.2875
1476.46045	65142.9875
1479.86276	64817.2875
1483.26279	64344.9875
1486.66054	64011.3875
1490.05602	64091.4875
1493.44922	64507.6875
1496.84016	65137.6875
1500.22882	66174.7875
1503.61521	67446.5875
1506.99934	68668.5875
1510.38121	69550.6875
1513.76081	69708.2875
1517.13816	69200.8875
1520.51324	68659.6875
1523.88607	68319.7875
1527.25665	68459.1875
1530.62498	68589.0875
1533.99105	68333.3875
1537.35488	67524.9875
1540.71647	66201.7875
1544.07581	64866.7875
1547.4329	63481.0875
1550.78776	62235.0875
1554.14038	61269.1875
1557.49077	60724.1875
1560.83892	60282.5875
1564.18484	60143.9875
1567.52853	60165.2875
1570.86999	60645.3875
1574.20922	61822.9875
1577.54624	63271.3875
1580.88103	64391.8875
1584.2136	65284.1875
1587.54395	66546.6875
1590.87208	68132.8875
1594.19801	70033.7875
1597.52172	71878.8875
1600.84321	71795.5875
1604.16251	69398.7875
1607.47959	65715.6875
1610.79447	61910.2875
1614.10715	58015.8875
1617.41763	54462.6875
1620.7259	51840.4875
1624.03199	50290.4875
1627.33587	50076.7875
1630.63757	51003.0875
1633.93707	53467.0875
1637.23439	57781.9875
1640.52951	63749.7875
1643.82246	70247.6875
1647.11321	74875.0875
1650.40179	74927.1875
1653.68819	70233.6875
1656.97241	62798.1875
1660.25446	55586.5875
1663.53433	50112.1875
1666.81203	46376.7875
1670.08756	44022.3875
1673.36092	42504.8875
1676.63211	41486.4875
1679.90115	40758.0875
1683.16801	40193.6875
1686.43272	39757.2875
1689.69527	39466.4875
1692.95567	39213.6875
1696.2139	39044.0875
1699.46999	38949.9875
1702.72392	38808.9875
1705.97571	38734.9875
1709.22535	38631.8875
1712.47284	38520.3875
1715.71819	38465.2875
1718.96139	38362.6875
1722.20246	38244.3875
1725.44139	38107.3875
1728.67818	37913.4875
1731.91284	37712.3875
1735.14537	37556.9875
1738.37576	37374.4875
1741.60403	37301.4875
1744.83017	37190.7875
1748.05418	37095.0875
1751.27607	36992.5875
1754.49584	36920.0875
1757.71349	36914.2875
1760.92903	36839.9875
1764.14244	36870.5875
1767.35375	36823.0875
1770.56294	36779.4875
1773.77002	36700.2875
1776.97499	36686.4875
1780.17785	36616.7875
1783.37861	36574.1875
1786.57727	36441.3875
1789.77382	36368.0875
1792.96828	36329.1875
1796.16064	36227.6875
1799.3509	36216.7875
1802.53907	36143.8875
1805.72514	36037.2875
1808.90913	35948.7875
1812.09102	35879.0875
1815.27083	35826.6875
1818.44856	35785.1875
1821.6242	35816.4875
1824.79776	35810.6875
1827.96924	35725.6875
1831.13864	35720.8875
1834.30597	35767.6875
1837.47122	35825.2875
1840.6344	35802.0875
1843.7955	35814.9875
1846.95454	35768.6875
1850.11151	35819.8875
1853.26642	35704.9875
1856.41926	35750.1875
1859.57004	35734.6875
1862.71876	35604.7875
1865.86542	35607.4875
1869.01003	35535.5875
1872.15258	35462.4875
1875.29308	35419.3875
1878.43152	35339.7875
1881.56792	35254.9875
1884.70227	35173.5875
1887.83457	35158.9875
1890.96482	35128.4875
1894.09304	35034.6875
1897.21921	35060.1875
1900.34335	34966.9875
1903.46544	34860.8875
1906.58551	34873.2875
1909.70353	34793.0875
1912.81953	34757.0875
1915.93349	34636.3875
1919.04543	34569.3875
1922.15534	34586.7875
1925.26322	34452.6875
1928.36908	34368.5875
1931.47292	34344.3875
1934.57473	34209.4875
1937.67453	34106.8875
1940.77232	34067.5875
1943.86808	33966.5875
1946.96184	33881.4875
1950.05358	33774.1875
1953.14331	33695.2875
1956.23103	33645.6875
1959.31675	33553.7875
1962.40046	33422.9875
1965.48217	33373.2875
1968.56188	33199.8875
1971.63959	33072.2875
1974.7153	32995.0875
1977.78901	32923.2875
1980.86073	32823.2875
1983.93046	32699.6875
1986.99819	32656.2875
1990.06394	32598.6875
1993.1277	32481.5875
1996.18947	32362.8875
1999.24925	32300.4875
2002.30706	32115.1875
2005.36288	32066.6875
2008.41672	31991.7875
2011.46859	31910.1875
2014.51848	31815.9875
2017.56639	31759.5875
2020.61233	31700.4875
2023.6563	31658.9875
2026.6983	31582.8875
2029.73833	31488.7875
2032.7764	31360.9875
2035.8125	31313.1875
2038.84664	31236.3875
2041.87881	31151.4875
2044.90903	31071.2875
2047.93729	31064.2875
2050.96359	30991.6875
2053.98794	31007.1875
2057.01034	30950.5875
2060.03078	30903.3875
2063.04927	30907.4875
2066.06582	30864.1875
2069.08042	30819.5875
2072.09307	30868.4875
2075.10378	30827.7875
2078.11255	30782.5875
2081.11938	30775.7875
2084.12426	30752.1875
2087.12722	30761.0875
2090.12824	30745.6875
2093.12732	30760.2875
2096.12447	30768.3875
2099.11969	30722.9875
2102.11299	30724.7875
2105.10435	30724.1875
2108.09379	30798.9875
2111.08131	30816.6875
2114.0669	30780.3875
2117.05057	30812.7875
2120.03233	30789.8875
2123.01216	30868.7875
2125.99008	30838.2875
2128.96609	30840.5875
2131.94018	30839.9875
2134.91236	30875.4875
2137.88263	30894.3875
2140.851	30876.4875
2143.81746	30885.1875
2146.78201	30904.2875
2149.74466	30889.1875
2152.7054	30956.1875
2155.66425	30907.9875
2158.6212	30902.4875
2161.57625	30896.6875
2164.52941	30892.2875
2167.48067	30895.9875
2170.43004	30868.5875
2173.37752	30868.0875
2176.32311	30851.1875
2179.26681	30847.5875
2182.20863	30804.8875
2185.14856	30795.7875
2188.08661	30800.2875
2191.02278	30771.9875
2193.95707	30752.5875
2196.88948	30730.9875
2199.82001	30731.4875
2202.74867	30646.9875
2205.67545	30652.3875
2208.60037	30549.1875
2211.52341	30561.5875
2214.44458	30540.8875
2217.36388	30429.0875
2220.28132	30398.5875
2223.1969	30358.9875
2226.11061	30344.9875
2229.02246	30247.7875
2231.93245	30202.6875
2234.84058	30121.0875
2237.74686	30093.2875
2240.65128	30100.8875
2243.55385	30015.5875
2246.45456	29971.3875
2249.35343	29899.7875
2252.25044	29852.5875
2255.14561	29776.8875
2258.03893	29751.1875
2260.93041	29705.2875
2263.82004	29645.5875
2266.70783	29523.0875
2269.59378	29482.4875
2272.4779	29439.5875
2275.36017	29326.2875
2278.24061	29258.0875
2281.11922	29200.8875
2283.996	29178.2875
2286.87094	29143.3875
2289.74405	29087.6875
2292.61534	29048.9875
2295.4848	29006.0875
2298.35243	28951.0875
2301.21824	28901.3875
2304.08223	28888.1875
2306.94439	28875.8875
2309.80474	28863.4875
2312.66327	28892.0875
2315.51999	28839.3875
2318.37489	28761.3875
2321.22797	28725.0875
2324.07925	28713.5875
2326.92871	28647.4875
2329.77637	28607.2875
2332.62222	28627.0875
2335.46626	28574.9875
2338.3085	28471.8875
2341.14893	28490.9875
2343.98756	28488.3875
2346.8244	28461.8875
2349.65943	28444.3875
2352.49267	28417.9875
2355.32411	28390.1875
2358.15376	28345.8875
2360.98161	28351.0875
2363.80768	28392.3875
2366.63195	28369.5875
2369.45444	28338.5875
2372.27514	28293.4875
2375.09405	28242.7875
2377.91118	28192.2875
2380.72652	28189.4875
2383.54009	28140.6875
2386.35187	28067.8875
2389.16188	27973.1875
2391.97011	27960.2875
2394.77657	27905.1875
2397.58125	27845.1875
2400.38416	27810.5875
2403.18529	27777.6875
2405.98466	27760.4875
2408.78226	27673.7875
2411.57809	27651.4875
2414.37216	27586.7875
2417.16446	27613.3875
2419.955	27558.3875
2422.74378	27609.3875
2425.5308	27496.6875
2428.31606	27485.8875
2431.09956	27468.6875
2433.88131	27443.2875
2436.6613	27437.4875
2439.43954	27403.0875
2442.21603	27329.6875
2444.99077	27312.6875
2447.76377	27349.8875
2450.53501	27333.5875
2453.30451	27319.0875
2456.07226	27277.7875
2458.83827	27259.7875
2461.60254	27208.9875
2464.36507	27216.2875
2467.12586	27140.2875
2469.88492	27125.7875
2472.64224	27151.6875
2475.39782	27115.1875
2478.15167	27167.1875
2480.90379	27112.1875
2483.65417	27128.1875
2486.40283	27070.8875
2489.14976	27062.3875
2491.89497	27038.7875
2494.63845	27039.5875
2497.3802	27016.9875
2500.12024	27063.4875
2502.85855	27048.0875
2505.59514	27023.2875
2508.33002	27014.3875
2511.06318	26985.8875
2513.79462	26972.4875
2516.52435	26926.3875
2519.25237	26893.9875
2521.97867	26868.1875
2524.70327	26892.1875
2527.42616	26810.6875
2530.14734	26786.6875
2532.86681	26750.7875
2535.58458	26761.0875
2538.30065	26717.9875
2541.01501	26688.7875
2543.72768	26676.9875
2546.43864	26657.7875
2549.14791	26587.5875
2551.85548	26570.9875
2554.56136	26530.2875
2557.26554	26502.0875
2559.96803	26449.2875
2562.66883	26406.3875
2565.36794	26430.3875
2568.06536	26397.2875
2570.7611	26334.2875
2573.45514	26279.8875
2576.14751	26284.2875
2578.83819	26217.8875
2581.52719	26204.6875
2584.21451	26149.7875
2586.90015	26108.6875
2589.58411	26062.3875
2592.2664	26070.2875
2594.94701	25996.1875
2597.62594	25977.2875
2600.30321	25909.9875
2602.9788	25930.9875
2605.65273	25877.4875
2608.32498	25842.8875
2610.99557	25812.3875
2613.66449	25811.0875
2616.33175	25791.1875
2618.99734	25749.1875
2621.66128	25741.3875
2624.32355	25751.9875
2626.98416	25667.0875
2629.64311	25616.6875
2632.30041	25615.8875
2634.95605	25594.8875
2637.61004	25599.8875
2640.26238	25573.1875
2642.91306	25560.3875
2645.56209	25544.7875
2648.20948	25567.4875
2650.85521	25549.0875
2653.4993	25563.1875
2656.14175	25557.1875
2658.78255	25536.6875
2661.42171	25536.4875
2664.05923	25554.8875
2666.6951	25560.6875
2669.32934	25520.5875
2671.96194	25528.5875
2674.59291	25554.9875
2677.22224	25553.4875
2679.84993	25526.1875
2682.476	25476.3875
2685.10043	25559.7875
2687.72324	25484.7875
2690.34441	25512.9875
2692.96396	25539.3875
2695.58188	25564.9875
2698.19818	25508.0875
2700.81285	25527.4875
2703.4259	25499.5875
2706.03733	25624.1875
2708.64714	25573.6875
2711.25533	25567.4875
2713.86191	25567.1875
2716.46687	25631.2875
2719.07021	25561.6875
2721.67194	25588.4875
2724.27206	25522.9875
2726.87057	25554.8875
2729.46747	25589.1875
2732.06276	25606.6875
2734.65644	25603.3875
2737.24852	25613.8875
2739.83899	25575.0875
2742.42786	25553.2875
2745.01513	25488.1875
2747.60079	25496.2875
2750.18486	25497.4875
2752.76733	25474.3875
2755.3482	25489.8875
2757.92747	25468.7875
2760.50515	25421.3875
2763.08123	25340.7875
2765.65573	25336.9875
2768.22863	25328.8875
2770.79994	25236.6875
2773.36967	25254.8875
2775.9378	25215.1875
2778.50435	25193.6875
2781.06932	25159.8875
2783.6327	25149.7875
2786.1945	25164.4875
2788.75471	25060.5875
2791.31335	25028.7875
2793.87041	25038.7875
2796.42589	24926.1875
2798.97979	24932.7875
2801.53212	24874.5875
2804.08288	24851.3875
2806.63206	24755.5875
2809.17967	24757.3875
2811.72571	24633.2875
2814.27018	24585.7875
2816.81308	24583.4875
2819.35442	24523.1875
2821.89419	24493.5875
2824.43239	24445.9875
2826.96904	24428.9875
2829.50412	24412.2875
2832.03763	24335.5875
2834.56959	24345.0875
2837.1	24287.9875
2839.62884	24282.3875
2842.15613	24201.3875
2844.68186	24212.4875
2847.20604	24167.3875
2849.72867	24171.7875
2852.24974	24132.5875
2854.76927	24113.2875
2857.28724	24082.4875
2859.80367	24027.0875
2862.31855	24015.6875
2864.83189	23955.4875
2867.34368	23928.1875
2869.85393	23901.9875
2872.36264	23885.4875
2874.8698	23878.6875
2877.37543	23873.2875
2879.87952	23829.3875
2882.38207	23849.5875
2884.88308	23868.2875
2887.38256	23849.0875
2889.88051	23824.9875
2892.37692	23794.4875
2894.8718	23819.1875
2897.36515	23812.9875
2899.85698	23815.4875
2902.34727	23847.1875
2904.83604	23850.0875
2907.32328	23889.4875
2909.809	23848.8875
2912.29319	23898.6875
2914.77587	23892.3875
2917.25702	23866.9875
2919.73665	23868.4875
2922.21476	23837.3875
2924.69136	23843.3875
2927.16644	23843.4875
2929.64	23771.5875
2932.11205	23772.9875
2934.58258	23652.0875
2937.05161	23715.1875
2939.51912	23735.2875
2941.98513	23786.5875
2944.44962	23663.3875
2946.91261	23557.0875
2949.37409	23582.6875
2951.83407	23558.9875
2954.29254	23580.9875
2956.74951	23504.6875
2959.20498	23502.3875
2961.65895	23454.4875
2964.11142	23454.1875
2966.56239	23393.1875
2969.01186	23404.8875
2971.45984	23374.0875
2973.90632	23313.7875
2976.35131	23253.7875
2978.7948	23272.1875
2981.23681	23212.6875
2983.67732	23199.4875
2986.11635	23140.7875
2988.55388	23054.3875
2990.98993	22993.7875
2993.4245	22927.4875
2995.85758	22885.0875
2998.28917	22803.6875
3000.71928	22801.2875
3003.14791	22776.2875
3005.57506	22706.8875
3008.00073	22674.7875
3010.42493	22649.8875
3012.84764	22639.0875
3015.26888	22605.2875
3017.68865	22565.6875
3020.10694	22497.5875
3022.52376	22442.5875
3024.9391	22402.2875
3027.35298	22373.3875
3029.76539	22363.7875
3032.17632	22344.2875
3034.5858	22277.4875
3036.9938	22312.4875
3039.40034	22264.0875
3041.80542	22198.7875
3044.20903	22141.0875
3046.61118	22140.4875
3049.01187	22081.4875
3051.4111	22025.9875
3053.80888	21969.4875
3056.20519	21893.3875
3058.60005	21865.1875
3060.99345	21803.5875
3063.3854	21770.7875
3065.7759	21709.0875
3068.16494	21675.8875
3070.55254	21612.8875
3072.93868	21577.1875
3075.32338	21503.1875
3077.70662	21462.3875
3080.08842	21344.4875
3082.46878	21357.3875
3084.84769	21333.0875
3087.22515	21292.0875
3089.60118	21268.4875
3091.97576	21269.3875
3094.3489	21216.4875
3096.72061	21224.5875
3099.09087	21200.5875
3101.4597	21167.3875
3103.82709	21125.5875
3106.19305	21080.5875
3108.55757	21060.4875
3110.92066	20978.7875
3113.28232	20931.4875
3115.64255	20868.6875
3118.00134	20852.4875
3120.35871	20820.4875
3122.71466	20806.0875
3125.06917	20756.2875
3127.42226	20727.5875
3129.77393	20740.7875
3132.12417	20629.9875
3134.47299	20637.6875
3136.82039	20642.4875
3139.16636	20646.4875
3141.51092	20605.7875
3143.85406	20579.8875
3146.19579	20616.1875
3148.53609	20602.4875
3150.87499	20596.4875
3153.21246	20561.8875
3155.54853	20620.8875
3157.88318	20546.4875
3160.21642	20535.4875
3162.54826	20538.7875
3164.87868	20452.1875
3167.2077	20458.6875
3169.5353	20409.4875
3171.86151	20412.5875
3174.18631	20386.5875
3176.5097	20313.5875
3178.83169	20278.3875
3181.15228	20306.4875
3183.47147	20253.4875
3185.78926	20291.2875
3188.10565	20222.2875
3190.42065	20195.1875
3192.73424	20146.5875
3195.04645	20151.8875
3197.35725	20148.3875
3199.66667	20119.4875
3201.97469	20141.2875
3204.28132	20083.4875
3206.58656	20082.9875
3208.8904	20089.0875
3211.19287	20057.9875
3213.49394	20034.4875
3215.79363	20014.3875
3218.09193	20082.5875
3220.38884	20069.9875
3222.68438	20029.1875
3224.97853	20011.3875
3227.2713	19986.7875
3229.56269	19935.1875
3231.8527	19908.4875
3234.14133	19852.8875
3236.42858	19846.6875
3238.71446	19794.1875
3240.99896	19728.9875
3243.28209	19693.3875
3245.56384	19708.2875
3247.84423	19719.0875
3250.12324	19653.7875
3252.40088	19598.2875
3254.67715	19601.1875
3256.95205	19543.2875
3259.22558	19520.7875
3261.49775	19467.5875
3263.76855	19446.2875
3266.03799	19399.0875
3268.30606	19382.2875
3270.57277	19318.5875
3272.83812	19288.7875
3275.10211	19297.3875
3277.36474	19256.6875
3279.62601	19272.3875
3281.88593	19255.4875
3284.14448	19212.8875
3286.40168	19193.2875
3288.65753	19205.9875
3290.91202	19144.8875
3293.16516	19077.8875
3295.41695	18983.7875
3297.66738	18889.0875
3299.91647	18830.7875
3302.16421	18706.6875
3304.4106	18635.4875
3306.65564	18513.8875
3308.89933	18388.8875
3311.14169	18236.0875
3313.38269	18071.4875
3315.62236	17971.6875
3317.86068	17824.0875
3320.09766	17627.7875
3322.3333	17490.5875
3324.5676	17482.7875
3326.80056	17188.6875
3329.03219	17055.6875
3331.26248	5.5875
3333.49143	-0.0125
3335.71905	-1.0125
