Data from AgNP_FTO_APTES_CRN_20uM_R6G_10uM_NaF_0.1M_Addition_RamanShift__21__17-24-58-030.txt Node

Date: Wed Dec 15 17:24:58 GMT 2021
User: TCL
Spectrometer: QEP01345
Trigger mode: 4
Integration Time (sec): 7.000000E0
Scans to average: 10
Electric dark correction enabled: true
Nonlinearity correction enabled: false
Boxcar width: 0
XAxis mode: Raman Shifts
Number of Pixels in Spectrum: 1044
>>>>>Begin Spectral Data<<<<<
46.04893	0.5375
50.45542	-1.5625
54.85868	-0.8625
59.25871	-0.7625
63.6555	56.1375
68.04907	67.5375
72.43941	66.9375
76.82654	68.9375
81.21044	73.5375
85.59113	73.3375
89.96862	81.6375
94.34289	78.0375
98.71396	84.8375
103.08183	90.5375
107.4465	91.2375
111.80798	90.9375
116.16626	91.7375
120.52136	96.2375
124.87327	96.6375
129.222	101.5375
133.56755	103.3375
137.90993	109.6375
142.24913	116.1375
146.58517	131.0375
150.91804	149.9375
155.24774	170.1375
159.57429	212.6375
163.89768	262.5375
168.21792	343.8375
172.53501	462.1375
176.84895	636.0375
181.15975	891.0375
185.46741	1246.4375
189.77193	1706.2375
194.07331	2283.1375
198.37157	2928.6375
202.6667	3630.5375
206.9587	4306.3375
211.24758	4991.8375
215.53334	5657.4375
219.81599	6373.2375
224.09553	7155.2375
228.37195	8003.2375
232.64527	8957.4375
236.91549	9975.9375
241.18261	11003.4375
245.44663	11984.3375
249.70755	12869.7375
253.96539	13627.6375
258.22014	14277.6375
262.4718	14821.1375
266.72039	15212.4375
270.96589	15406.4375
275.20832	15437.7375
279.44768	15370.0375
283.68397	15210.5375
287.91719	15075.9375
292.14735	15033.4375
296.37445	14972.5375
300.59849	15002.4375
304.81948	15042.1375
309.03742	14978.9375
313.25231	14821.0375
317.46415	14542.1375
321.67296	14181.3375
325.87872	13907.1375
330.08145	13745.2375
334.28114	13733.6375
338.47781	13861.1375
342.67145	14035.4375
346.86207	14242.1375
351.04966	14510.2375
355.23424	14789.5375
359.4158	15042.0375
363.59435	15206.8375
367.76989	15305.5375
371.94243	15385.9375
376.11196	15438.3375
380.27849	15523.8375
384.44203	15596.4375
388.60257	15707.7375
392.76012	15792.6375
396.91468	15999.7375
401.06626	16253.0375
405.21485	16411.7375
409.36047	16403.7375
413.50311	16154.2375
417.64277	15969.9375
421.77947	15924.2375
425.9132	15969.0375
430.04396	16073.2375
434.17176	16160.7375
438.2966	16295.1375
442.41849	16540.4375
446.53742	16890.3375
450.6534	17335.9375
454.76644	17690.6375
458.87653	17848.6375
462.98368	17780.5375
467.08789	17657.0375
471.18916	17438.6375
475.2875	17252.5375
479.38291	17178.0375
483.4754	17034.1375
487.56496	16810.5375
491.6516	16620.1375
495.73531	16375.3375
499.81612	16323.0375
503.89401	16414.3375
507.96899	16464.3375
512.04106	16475.6375
516.11023	16419.7375
520.1765	16364.0375
524.23987	16284.5375
528.30034	16214.8375
532.35792	16065.9375
536.41261	15871.4375
540.46441	15696.3375
544.51333	15699.1375
548.55936	15841.2375
552.60252	16080.2375
556.64279	16420.5375
560.6802	16627.5375
564.71473	16680.2375
568.7464	16797.5375
572.7752	17054.3375
576.80114	17289.7375
580.82422	17562.2375
584.84444	17830.9375
588.86181	18147.2375
592.87633	18419.6375
596.888	18736.5375
600.89682	18853.9375
604.9028	19297.7375
608.90594	20432.7375
612.90624	21566.0375
616.90371	20378.6375
620.89834	17633.0375
624.89015	16455.0375
628.87913	16393.2375
632.86528	16466.2375
636.84862	16414.2375
640.82913	16178.7375
644.80683	15787.9375
648.78172	15483.4375
652.75379	15447.9375
656.72306	15528.0375
660.68952	15730.6375
664.65319	15658.0375
668.61405	15503.9375
672.57211	15404.3375
676.52738	15395.7375
680.47986	15431.2375
684.42955	15324.1375
688.37646	15318.5375
692.32058	15389.4375
696.26192	15491.6375
700.20048	15625.5375
704.13626	15740.6375
708.06928	15781.6375
711.99952	15701.8375
715.927	15618.0375
719.85171	15647.2375
723.77365	15612.5375
727.69284	15490.8375
731.60928	15326.8375
735.52295	15296.7375
739.43388	15312.9375
743.34206	15319.7375
747.24749	15363.0375
751.15017	15490.1375
755.05012	15715.1375
758.94733	16107.0375
762.8418	16787.3375
766.73354	17822.7375
770.62254	18872.1375
774.50882	19111.9375
778.39237	18315.2375
782.27321	17119.1375
786.15132	16149.4375
790.02671	15585.5375
793.89938	15308.6375
797.76935	15272.7375
801.6366	15250.5375
805.50115	15231.5375
809.36299	15095.6375
813.22213	15036.3375
817.07857	15013.9375
820.93231	14981.1375
824.78336	14940.0375
828.63172	14910.8375
832.47738	14962.0375
836.32036	14982.2375
840.16066	15048.1375
843.99827	15107.6375
847.8332	15045.7375
851.66546	14952.6375
855.49504	14897.3375
859.32195	14909.6375
863.1462	14891.4375
866.96777	14823.8375
870.78668	14777.6375
874.60293	14780.6375
878.41652	14763.5375
882.22745	14824.2375
886.03573	14858.1375
889.84136	14823.5375
893.64433	14747.9375
897.44466	14709.8375
901.24235	14661.7375
905.0374	14608.8375
908.8298	14641.0375
912.61957	14646.0375
916.40671	14811.5375
920.19121	14953.7375
923.97308	15137.4375
927.75233	15178.4375
931.52895	15121.7375
935.30295	14963.3375
939.07433	14749.0375
942.84309	14541.7375
946.60924	14434.0375
950.37278	14416.8375
954.13371	14354.0375
957.89203	14302.5375
961.64774	14282.7375
965.40086	14232.7375
969.15137	14202.9375
972.89929	14143.4375
976.64461	14118.0375
980.38733	14123.1375
984.12747	14184.7375
987.86502	14302.5375
991.59999	14443.6375
995.33237	14724.9375
999.06217	15122.7375
1002.78939	15544.3375
1006.51404	15785.4375
1010.23611	15949.3375
1013.95561	16065.5375
1017.67255	16010.9375
1021.38692	15849.9375
1025.09872	15685.0375
1028.80796	15829.4375
1032.51465	16227.8375
1036.21877	16643.9375
1039.92035	16718.9375
1043.61937	16542.9375
1047.31584	16192.6375
1051.00976	15855.7375
1054.70114	15764.4375
1058.38998	15780.0375
1062.07627	15959.0375
1065.76003	16213.2375
1069.44126	16553.4375
1073.11995	16904.6375
1076.79611	17179.4375
1080.46974	17206.3375
1084.14085	17086.3375
1087.80943	16920.8375
1091.47549	16798.3375
1095.13903	16665.3375
1098.80005	16408.5375
1102.45857	16087.5375
1106.11456	15830.6375
1109.76805	15755.7375
1113.41903	15795.9375
1117.06751	15875.2375
1120.71348	15975.7375
1124.35696	16108.9375
1127.99793	16308.7375
1131.63641	16402.8375
1135.2724	16332.6375
1138.90589	16223.8375
1142.5369	16151.4375
1146.16542	16135.8375
1149.79145	16174.8375
1153.415	16290.8375
1157.03607	16479.4375
1160.65467	16826.1375
1164.27079	17411.4375
1167.88443	18209.9375
1171.49561	19228.2375
1175.10432	20600.2375
1178.71056	22214.3375
1182.31434	23624.5375
1185.91565	24346.1375
1189.51451	24135.5375
1193.11091	23300.8375
1196.70485	22303.7375
1200.29634	21313.5375
1203.88538	20723.0375
1207.47197	20355.7375
1211.05612	20032.4375
1214.63782	19745.9375
1218.21708	19497.8375
1221.79391	19345.4375
1225.36829	19223.6375
1228.94024	19029.5375
1232.50976	18737.3375
1236.07685	18460.4375
1239.6415	18361.7375
1243.20374	18332.4375
1246.76355	18472.2375
1250.32093	18736.2375
1253.8759	19097.2375
1257.42845	19540.9375
1260.97859	20006.5375
1264.52631	20447.6375
1268.07163	20922.2375
1271.61453	21508.9375
1275.15503	22088.1375
1278.69312	22748.8375
1282.22882	23295.2375
1285.76211	23813.3375
1289.29301	24322.1375
1292.82151	25066.8375
1296.34761	26052.8375
1299.87133	27340.8375
1303.39266	28851.0375
1306.9116	30528.4375
1310.42815	32088.7375
1313.94233	33089.8375
1317.45412	33157.2375
1320.96354	32669.3375
1324.47058	32031.9375
1327.97525	31341.2375
1331.47754	30825.2375
1334.97747	30459.1375
1338.47502	30315.3375
1341.97022	30150.1375
1345.46305	29785.5375
1348.95352	29337.2375
1352.44163	29173.8375
1355.92738	29669.2375
1359.41078	30883.8375
1362.89183	32018.5375
1366.37053	31610.7375
1369.84688	29404.1375
1373.32088	26681.7375
1376.79254	24692.3375
1380.26186	23832.1375
1383.72883	23673.6375
1387.19347	23578.4375
1390.65578	23349.4375
1394.11575	23246.3375
1397.57339	23446.4375
1401.0287	23907.2375
1404.48168	24300.1375
1407.93234	24416.2375
1411.38068	24086.8375
1414.82669	23449.4375
1418.27039	22514.6375
1421.71177	21604.6375
1425.15083	20849.8375
1428.58758	20468.0375
1432.02203	20466.4375
1435.45416	20813.2375
1438.88399	21326.9375
1442.31151	21849.0375
1445.73673	22233.7375
1449.15965	22550.9375
1452.58027	22755.9375
1455.9986	22915.1375
1459.41463	23080.6375
1462.82837	23491.3375
1466.23982	24025.2375
1469.64898	24494.4375
1473.05586	24775.8375
1476.46045	24816.7375
1479.86276	24691.5375
1483.26279	24395.3375
1486.66054	24116.9375
1490.05602	24038.7375
1493.44922	24065.6375
1496.84016	24156.2375
1500.22882	24486.9375
1503.61521	25072.2375
1506.99934	25869.0375
1510.38121	26505.0375
1513.76081	26688.0375
1517.13816	26196.4375
1520.51324	25321.3375
1523.88607	24464.2375
1527.25665	23952.1375
1530.62498	23737.4375
1533.99105	23630.3375
1537.35488	23555.3375
1540.71647	23295.3375
1544.07581	22963.5375
1547.4329	22639.8375
1550.78776	22279.1375
1554.14038	22006.2375
1557.49077	21914.5375
1560.83892	21829.4375
1564.18484	21857.6375
1567.52853	22048.4375
1570.86999	22369.4375
1574.20922	22879.1375
1577.54624	23452.9375
1580.88103	23847.7375
1584.2136	24039.7375
1587.54395	24241.8375
1590.87208	24708.1375
1594.19801	25652.2375
1597.52172	26878.5375
1600.84321	27298.3375
1604.16251	26265.7375
1607.47959	24425.9375
1610.79447	22507.7375
1614.10715	20765.6375
1617.41763	19367.5375
1620.7259	18392.9375
1624.03199	17908.6375
1627.33587	17875.6375
1630.63757	18309.2375
1633.93707	19247.6375
1637.23439	20810.8375
1640.52951	22995.0375
1643.82246	25337.9375
1647.11321	27300.7375
1650.40179	27654.0375
1653.68819	26024.4375
1656.97241	23152.2375
1660.25446	20241.8375
1663.53433	18021.9375
1666.81203	16570.3375
1670.08756	15626.3375
1673.36092	14998.4375
1676.63211	14613.6375
1679.90115	14341.3375
1683.16801	14136.7375
1686.43272	13996.8375
1689.69527	13894.0375
1692.95567	13775.3375
1696.2139	13734.7375
1699.46999	13724.6375
1702.72392	13673.5375
1705.97571	13642.6375
1709.22535	13608.1375
1712.47284	13543.6375
1715.71819	13511.2375
1718.96139	13509.4375
1722.20246	13464.5375
1725.44139	13411.4375
1728.67818	13351.6375
1731.91284	13286.6375
1735.14537	13224.5375
1738.37576	13166.8375
1741.60403	13102.5375
1744.83017	13110.8375
1748.05418	13062.8375
1751.27607	13045.7375
1754.49584	13015.8375
1757.71349	13046.4375
1760.92903	13020.8375
1764.14244	13022.3375
1767.35375	13000.0375
1770.56294	12980.8375
1773.77002	12976.4375
1776.97499	12964.8375
1780.17785	12949.5375
1783.37861	12904.2375
1786.57727	12870.2375
1789.77382	12835.4375
1792.96828	12820.7375
1796.16064	12823.4375
1799.3509	12781.9375
1802.53907	12764.3375
1805.72514	12690.1375
1808.90913	12677.8375
1812.09102	12659.6375
1815.27083	12643.1375
1818.44856	12621.8375
1821.6242	12585.4375
1824.79776	12575.1375
1827.96924	12600.6375
1831.13864	12592.4375
1834.30597	12617.1375
1837.47122	12595.5375
1840.6344	12589.6375
1843.7955	12578.7375
1846.95454	12582.3375
1850.11151	12539.4375
1853.26642	12548.9375
1856.41926	12547.9375
1859.57004	12567.9375
1862.71876	12551.6375
1865.86542	12534.8375
1869.01003	12517.9375
1872.15258	12494.2375
1875.29308	12516.9375
1878.43152	12498.8375
1881.56792	12477.2375
1884.70227	12463.9375
1887.83457	12462.2375
1890.96482	12447.0375
1894.09304	12436.0375
1897.21921	12442.2375
1900.34335	12419.5375
1903.46544	12415.9375
1906.58551	12402.6375
1909.70353	12393.9375
1912.81953	12380.1375
1915.93349	12365.5375
1919.04543	12371.0375
1922.15534	12341.5375
1925.26322	12318.1375
1928.36908	12275.1375
1931.47292	12271.9375
1934.57473	12221.8375
1937.67453	12222.5375
1940.77232	12148.8375
1943.86808	12173.8375
1946.96184	12105.8375
1950.05358	12075.7375
1953.14331	12054.9375
1956.23103	12039.6375
1959.31675	12005.9375
1962.40046	11933.7375
1965.48217	11924.8375
1968.56188	11892.6375
1971.63959	11846.3375
1974.7153	11832.7375
1977.78901	11788.6375
1980.86073	11697.0375
1983.93046	11714.8375
1986.99819	11688.6375
1990.06394	11634.6375
1993.1277	11634.9375
1996.18947	11545.1375
1999.24925	11548.0375
2002.30706	11518.3375
2005.36288	11473.8375
2008.41672	11462.6375
2011.46859	11405.4375
2014.51848	11403.4375
2017.56639	11383.3375
2020.61233	11342.4375
2023.6563	11338.4375
2026.6983	11327.1375
2029.73833	11301.7375
2032.7764	11273.0375
2035.8125	11241.3375
2038.84664	11227.3375
2041.87881	11251.3375
2044.90903	11202.2375
2047.93729	11205.3375
2050.96359	11186.4375
2053.98794	11194.9375
2057.01034	11175.3375
2060.03078	11148.6375
2063.04927	11139.7375
2066.06582	11157.3375
2069.08042	11122.4375
2072.09307	11118.1375
2075.10378	11101.8375
2078.11255	11097.5375
2081.11938	11097.5375
2084.12426	11100.6375
2087.12722	11074.7375
2090.12824	11090.4375
2093.12732	11110.4375
2096.12447	11115.7375
2099.11969	11101.2375
2102.11299	11097.1375
2105.10435	11101.6375
2108.09379	11113.5375
2111.08131	11139.6375
2114.0669	11127.6375
2117.05057	11124.4375
2120.03233	11153.0375
2123.01216	11168.2375
2125.99008	11125.9375
2128.96609	11171.7375
2131.94018	11166.1375
2134.91236	11182.0375
2137.88263	11200.1375
2140.851	11216.8375
2143.81746	11204.4375
2146.78201	11223.2375
2149.74466	11237.0375
2152.7054	11238.9375
2155.66425	11244.6375
2158.6212	11236.5375
2161.57625	11240.4375
2164.52941	11244.1375
2167.48067	11235.4375
2170.43004	11220.5375
2173.37752	11215.5375
2176.32311	11216.3375
2179.26681	11222.0375
2182.20863	11234.2375
2185.14856	11204.1375
2188.08661	11199.5375
2191.02278	11222.6375
2193.95707	11219.2375
2196.88948	11208.5375
2199.82001	11200.8375
2202.74867	11179.3375
2205.67545	11193.5375
2208.60037	11185.0375
2211.52341	11194.6375
2214.44458	11180.4375
2217.36388	11173.5375
2220.28132	11141.5375
2223.1969	11129.5375
2226.11061	11147.0375
2229.02246	11103.2375
2231.93245	11108.7375
2234.84058	11066.1375
2237.74686	11048.5375
2240.65128	11053.7375
2243.55385	11020.3375
2246.45456	10976.3375
2249.35343	10971.8375
2252.25044	10977.7375
2255.14561	10938.6375
2258.03893	10954.5375
2260.93041	10917.6375
2263.82004	10904.0375
2266.70783	10881.8375
2269.59378	10863.4375
2272.4779	10843.1375
2275.36017	10807.3375
2278.24061	10794.2375
2281.11922	10754.3375
2283.996	10741.2375
2286.87094	10762.1375
2289.74405	10737.4375
2292.61534	10722.0375
2295.4848	10729.8375
2298.35243	10727.9375
2301.21824	10715.7375
2304.08223	10711.5375
2306.94439	10737.0375
2309.80474	10736.4375
2312.66327	10725.9375
2315.51999	10747.7375
2318.37489	10711.3375
2321.22797	10721.9375
2324.07925	10712.1375
2326.92871	10695.0375
2329.77637	10704.1375
2332.62222	10685.8375
2335.46626	10671.2375
2338.3085	10674.5375
2341.14893	10683.7375
2343.98756	10701.0375
2346.8244	10679.1375
2349.65943	10684.9375
2352.49267	10661.2375
2355.32411	10691.5375
2358.15376	10650.2375
2360.98161	10656.2375
2363.80768	10642.6375
2366.63195	10622.5375
2369.45444	10617.5375
2372.27514	10591.9375
2375.09405	10588.0375
2377.91118	10563.5375
2380.72652	10541.3375
2383.54009	10517.3375
2386.35187	10519.8375
2389.16188	10483.7375
2391.97011	10491.1375
2394.77657	10483.4375
2397.58125	10457.1375
2400.38416	10460.0375
2403.18529	10409.2375
2405.98466	10423.0375
2408.78226	10378.5375
2411.57809	10382.8375
2414.37216	10367.3375
2417.16446	10343.2375
2419.955	10338.9375
2422.74378	10345.9375
2425.5308	10308.0375
2428.31606	10306.8375
2431.09956	10284.0375
2433.88131	10293.2375
2436.6613	10280.5375
2439.43954	10299.0375
2442.21603	10296.1375
2444.99077	10266.7375
2447.76377	10282.1375
2450.53501	10260.6375
2453.30451	10256.5375
2456.07226	10241.4375
2458.83827	10249.5375
2461.60254	10256.8375
2464.36507	10239.6375
2467.12586	10232.9375
2469.88492	10247.4375
2472.64224	10261.9375
2475.39782	10269.3375
2478.15167	10264.8375
2480.90379	10283.6375
2483.65417	10273.5375
2486.40283	10279.2375
2489.14976	10282.4375
2491.89497	10301.2375
2494.63845	10296.6375
2497.3802	10291.5375
2500.12024	10266.4375
2502.85855	10288.7375
2505.59514	10296.7375
2508.33002	10262.0375
2511.06318	10240.2375
2513.79462	10242.6375
2516.52435	10233.2375
2519.25237	10241.4375
2521.97867	10220.2375
2524.70327	10232.4375
2527.42616	10201.4375
2530.14734	10223.0375
2532.86681	10214.6375
2535.58458	10194.5375
2538.30065	10180.9375
2541.01501	10152.7375
2543.72768	10191.6375
2546.43864	10159.1375
2549.14791	10128.9375
2551.85548	10147.2375
2554.56136	10109.8375
2557.26554	10145.8375
2559.96803	10121.2375
2562.66883	10116.7375
2565.36794	10117.0375
2568.06536	10101.8375
2570.7611	10116.3375
2573.45514	10091.5375
2576.14751	10088.4375
2578.83819	10058.6375
2581.52719	10062.6375
2584.21451	10040.2375
2586.90015	10075.7375
2589.58411	10065.2375
2592.2664	10068.9375
2594.94701	10037.5375
2597.62594	10011.3375
2600.30321	10004.9375
2602.9788	10017.8375
2605.65273	9996.5375
2608.32498	9999.1375
2610.99557	10003.8375
2613.66449	10004.8375
2616.33175	9997.7375
2618.99734	9992.8375
2621.66128	9992.2375
2624.32355	9997.5375
2626.98416	9996.7375
2629.64311	9986.7375
2632.30041	10000.8375
2634.95605	10007.4375
2637.61004	9982.3375
2640.26238	9964.1375
2642.91306	9961.3375
2645.56209	9959.1375
2648.20948	9967.5375
2650.85521	9941.3375
2653.4993	9921.2375
2656.14175	9944.9375
2658.78255	9929.1375
2661.42171	9939.9375
2664.05923	9945.6375
2666.6951	9976.2375
2669.32934	9936.3375
2671.96194	9945.5375
2674.59291	9947.5375
2677.22224	9932.6375
2679.84993	9940.0375
2682.476	9951.0375
2685.10043	9955.9375
2687.72324	9926.2375
2690.34441	9932.3375
2692.96396	9933.0375
2695.58188	9926.1375
2698.19818	9917.6375
2700.81285	9947.1375
2703.4259	9954.3375
2706.03733	9985.1375
2708.64714	9957.6375
2711.25533	9976.0375
2713.86191	9953.6375
2716.46687	9972.7375
2719.07021	9989.5375
2721.67194	9980.3375
2724.27206	9968.7375
2726.87057	9990.2375
2729.46747	9976.0375
2732.06276	9994.2375
2734.65644	9973.8375
2737.24852	9992.1375
2739.83899	9964.6375
2742.42786	9999.1375
2745.01513	9958.7375
2747.60079	9961.7375
2750.18486	9920.1375
2752.76733	9969.4375
2755.3482	9977.9375
2757.92747	9958.5375
2760.50515	9941.5375
2763.08123	9966.9375
2765.65573	9926.9375
2768.22863	9928.4375
2770.79994	9931.7375
2773.36967	9966.4375
2775.9378	9934.5375
2778.50435	9935.8375
2781.06932	9908.0375
2783.6327	9911.0375
2786.1945	9905.0375
2788.75471	9887.2375
2791.31335	9877.8375
2793.87041	9860.1375
2796.42589	9844.0375
2798.97979	9863.5375
2801.53212	9834.4375
2804.08288	9833.1375
2806.63206	9794.9375
2809.17967	9788.4375
2811.72571	9760.6375
2814.27018	9750.7375
2816.81308	9741.2375
2819.35442	9707.5375
2821.89419	9707.4375
2824.43239	9712.1375
2826.96904	9705.0375
2829.50412	9710.3375
2832.03763	9683.5375
2834.56959	9700.1375
2837.1	9648.4375
2839.62884	9662.8375
2842.15613	9649.2375
2844.68186	9664.2375
2847.20604	9650.9375
2849.72867	9674.9375
2852.24974	9643.0375
2854.76927	9642.1375
2857.28724	9651.1375
2859.80367	9634.2375
2862.31855	9633.6375
2864.83189	9627.6375
2867.34368	9610.2375
2869.85393	9617.6375
2872.36264	9612.8375
2874.8698	9618.2375
2877.37543	9620.3375
2879.87952	9609.2375
2882.38207	9612.4375
2884.88308	9630.3375
2887.38256	9625.6375
2889.88051	9617.4375
2892.37692	9627.2375
2894.8718	9629.8375
2897.36515	9621.6375
2899.85698	9640.9375
2902.34727	9660.2375
2904.83604	9651.9375
2907.32328	9681.9375
2909.809	9681.5375
2912.29319	9684.4375
2914.77587	9698.6375
2917.25702	9673.0375
2919.73665	9675.7375
2922.21476	9674.5375
2924.69136	9670.6375
2927.16644	9670.4375
2929.64	9675.2375
2932.11205	9655.5375
2934.58258	9637.1375
2937.05161	9660.4375
2939.51912	9664.2375
2941.98513	9650.4375
2944.44962	9634.9375
2946.91261	9582.6375
2949.37409	9612.5375
2951.83407	9615.3375
2954.29254	9625.2375
2956.74951	9580.9375
2959.20498	9604.7375
2961.65895	9576.1375
2964.11142	9585.1375
2966.56239	9551.9375
2969.01186	9546.1375
2971.45984	9492.4375
2973.90632	9486.8375
2976.35131	9489.0375
2978.7948	9450.9375
2981.23681	9446.6375
2983.67732	9451.0375
2986.11635	9437.7375
2988.55388	9399.3375
2990.98993	9384.9375
2993.4245	9385.6375
2995.85758	9349.2375
2998.28917	9344.6375
3000.71928	9336.2375
3003.14791	9321.2375
3005.57506	9317.2375
3008.00073	9287.9375
3010.42493	9292.5375
3012.84764	9275.5375
3015.26888	9262.5375
3017.68865	9218.1375
3020.10694	9243.9375
3022.52376	9235.2375
3024.9391	9226.7375
3027.35298	9226.7375
3029.76539	9205.5375
3032.17632	9205.1375
3034.5858	9201.9375
3036.9938	9183.3375
3039.40034	9178.9375
3041.80542	9203.5375
3044.20903	9148.9375
3046.61118	9167.4375
3049.01187	9160.3375
3051.4111	9153.3375
3053.80888	9131.9375
3056.20519	9132.2375
3058.60005	9093.8375
3060.99345	9079.3375
3063.3854	9065.8375
3065.7759	9039.4375
3068.16494	9031.0375
3070.55254	9005.3375
3072.93868	8998.1375
3075.32338	8973.0375
3077.70662	8967.5375
3080.08842	8945.2375
3082.46878	8950.0375
3084.84769	8913.3375
3087.22515	8917.2375
3089.60118	8945.9375
3091.97576	8932.8375
3094.3489	8941.9375
3096.72061	8917.6375
3099.09087	8920.5375
3101.4597	8922.4375
3103.82709	8935.2375
3106.19305	8904.9375
3108.55757	8908.9375
3110.92066	8889.8375
3113.28232	8877.4375
3115.64255	8866.4375
3118.00134	8847.7375
3120.35871	8853.2375
3122.71466	8836.9375
3125.06917	8796.6375
3127.42226	8799.7375
3129.77393	8828.3375
3132.12417	8818.7375
3134.47299	8827.3375
3136.82039	8818.7375
3139.16636	8821.0375
3141.51092	8833.7375
3143.85406	8822.5375
3146.19579	8838.5375
3148.53609	8822.2375
3150.87499	8834.3375
3153.21246	8856.3375
3155.54853	8851.6375
3157.88318	8843.3375
3160.21642	8862.1375
3162.54826	8847.3375
3164.87868	8869.0375
3167.2077	8826.9375
3169.5353	8853.3375
3171.86151	8859.9375
3174.18631	8836.8375
3176.5097	8861.5375
3178.83169	8826.2375
3181.15228	8833.8375
3183.47147	8830.6375
3185.78926	8855.7375
3188.10565	8821.2375
3190.42065	8823.4375
3192.73424	8825.3375
3195.04645	8838.8375
3197.35725	8868.0375
3199.66667	8840.3375
3201.97469	8867.5375
3204.28132	8880.1375
3206.58656	8867.5375
3208.8904	8880.9375
3211.19287	8866.5375
3213.49394	8894.1375
3215.79363	8865.5375
3218.09193	8880.0375
3220.38884	8893.2375
3222.68438	8905.1375
3224.97853	8868.2375
3227.2713	8876.3375
3229.56269	8852.5375
3231.8527	8862.8375
3234.14133	8819.6375
3236.42858	8829.4375
3238.71446	8833.0375
3240.99896	8818.0375
3243.28209	8805.4375
3245.56384	8823.0375
3247.84423	8800.9375
3250.12324	8808.4375
3252.40088	8812.0375
3254.67715	8786.3375
3256.95205	8787.4375
3259.22558	8788.1375
3261.49775	8789.9375
3263.76855	8775.1375
3266.03799	8753.5375
3268.30606	8735.3375
3270.57277	8734.5375
3272.83812	8692.5375
3275.10211	8661.0375
3277.36474	8677.0375
3279.62601	8691.6375
3281.88593	8664.3375
3284.14448	8715.2375
3286.40168	8725.9375
3288.65753	8687.1375
3290.91202	8676.1375
3293.16516	8647.1375
3295.41695	8659.1375
3297.66738	8590.9375
3299.91647	8533.0375
3302.16421	8494.6375
3304.4106	8467.2375
3306.65564	8445.4375
3308.89933	8372.3375
3311.14169	8345.2375
3313.38269	8294.9375
3315.62236	8229.9375
3317.86068	8162.6375
3320.09766	8077.1375
3322.3333	8031.3375
3324.5676	8059.1375
3326.80056	7917.7375
3329.03219	7867.7375
3331.26248	3.1375
3333.49143	-0.4625
3335.71905	0.4375
