Data from AgNP_FTO_APTES_CRN_50uM_R6G_10uM_NaF_0.1M_Addition_RamanShift__33__18-24-28-085.txt Node

Date: Wed Dec 15 18:24:28 GMT 2021
User: TCL
Spectrometer: QEP01345
Trigger mode: 4
Integration Time (sec): 7.000000E0
Scans to average: 10
Electric dark correction enabled: true
Nonlinearity correction enabled: false
Boxcar width: 0
XAxis mode: Raman Shifts
Number of Pixels in Spectrum: 1044
>>>>>Begin Spectral Data<<<<<
46.04893	0.9
50.45542	-2.2
54.85868	-0.1
59.25871	-0.7
63.6555	50.6
68.04907	59.1
72.43941	58.2
76.82654	61.7
81.21044	67.4
85.59113	65.4
89.96862	70.1
94.34289	65.8
98.71396	76.1
103.08183	83.6
107.4465	83.9
111.80798	81.7
116.16626	81
120.52136	87.1
124.87327	85.7
129.222	86.5
133.56755	88.1
137.90993	95
142.24913	102.2
146.58517	110
150.91804	122
155.24774	140.3
159.57429	176.1
163.89768	216
168.21792	279.7
172.53501	375.5
176.84895	523.6
181.15975	726
185.46741	1008.3
189.77193	1397.5
194.07331	1852.5
198.37157	2390.4
202.6667	2943.9
206.9587	3505
211.24758	4070.9
215.53334	4623.4
219.81599	5242.1
224.09553	5925.4
228.37195	6695.5
232.64527	7514.2
236.91549	8378.7
241.18261	9197.1
245.44663	9911.5
249.70755	10547.9
253.96539	11095.6
258.22014	11556.2
262.4718	11982.9
266.72039	12266.8
270.96589	12464.3
275.20832	12500.7
279.44768	12414.4
283.68397	12274.9
287.91719	12207.8
292.14735	12232.1
296.37445	12329.8
300.59849	12566.7
304.81948	12865.1
309.03742	13059.5
313.25231	12978.3
317.46415	12572.4
321.67296	11931.8
325.87872	11387.7
330.08145	11147.3
334.28114	11143.4
338.47781	11293.7
342.67145	11551.7
346.86207	11927.8
351.04966	12431.7
355.23424	12988.8
359.4158	13411.2
363.59435	13669.2
367.76989	13756.4
371.94243	13756.7
376.11196	13774
380.27849	13753
384.44203	13706.7
388.60257	13623.3
392.76012	13613.4
396.91468	13759.2
401.06626	14050
405.21485	14288.4
409.36047	14161.9
413.50311	13730.6
417.64277	13298.4
421.77947	13084.1
425.9132	13005.2
430.04396	13033.7
434.17176	13140.2
438.2966	13270.4
442.41849	13541.2
446.53742	13898.4
450.6534	14251.9
454.76644	14492.6
458.87653	14600.4
462.98368	14558.8
467.08789	14357.9
471.18916	14119.5
475.2875	13856.8
479.38291	13630.4
483.4754	13467.2
487.56496	13331.8
491.6516	13190.7
495.73531	13138.8
499.81612	13104.2
503.89401	13272.9
507.96899	13368.4
512.04106	13512.6
516.11023	13689.6
520.1765	13815.5
524.23987	13817.6
528.30034	13680.1
532.35792	13526.7
536.41261	13294.5
540.46441	13090.9
544.51333	13012
548.55936	13059.1
552.60252	13274.9
556.64279	13531.5
560.6802	13624.6
564.71473	13720.1
568.7464	14067.1
572.7752	14313.2
576.80114	14109.5
580.82422	13867
584.84444	13804.8
588.86181	13855.9
592.87633	13967.2
596.888	14131.7
600.89682	14462.6
604.9028	15467.4
608.90594	18177.8
612.90624	21664
616.90371	20928.1
620.89834	16254.2
624.89015	14083.2
628.87913	13650.2
632.86528	13656.1
636.84862	13750.2
640.82913	13609.4
644.80683	13263.6
648.78172	13054.9
652.75379	13085.3
656.72306	13439.6
660.68952	13889.8
664.65319	13822.9
668.61405	13426.6
672.57211	13209.8
676.52738	13246.8
680.47986	13224.7
684.42955	13204.6
688.37646	13209.8
692.32058	13259.6
696.26192	13331.6
700.20048	13477.9
704.13626	13573.9
708.06928	13548.5
711.99952	13482.8
715.927	13423.1
719.85171	13429.9
723.77365	13398.7
727.69284	13320.1
731.60928	13213.2
735.52295	13205.3
739.43388	13276.9
743.34206	13297.8
747.24749	13356.9
751.15017	13446
755.05012	13654.2
758.94733	14098.9
762.8418	15014.4
766.73354	16561.4
770.62254	18251.6
774.50882	19021.2
778.39237	18361.9
782.27321	16612.8
786.15132	14929.6
790.02671	13958.4
793.89938	13547.2
797.76935	13335
801.6366	13270.1
805.50115	13241.9
809.36299	13175.6
813.22213	13151.3
817.07857	13156.1
820.93231	13154.3
824.78336	13207.6
828.63172	13276
832.47738	13296.9
836.32036	13307.1
840.16066	13297.5
843.99827	13256.5
847.8332	13215.9
851.66546	13187.2
855.49504	13206.4
859.32195	13152
863.1462	13138.2
866.96777	13114.8
870.78668	13076.6
874.60293	13107.4
878.41652	13147
882.22745	13171
886.03573	13214.3
889.84136	13189.7
893.64433	13166.5
897.44466	13124.9
901.24235	13092.7
905.0374	13112.2
908.8298	13134.7
912.61957	13095.8
916.40671	13139.1
920.19121	13235.8
923.97308	13294.4
927.75233	13351.9
931.52895	13466.2
935.30295	13359.7
939.07433	13108.2
942.84309	12917.6
946.60924	12778.7
950.37278	12725.1
954.13371	12669.4
957.89203	12630.8
961.64774	12575.8
965.40086	12560.7
969.15137	12536.8
972.89929	12507.2
976.64461	12502.3
980.38733	12498.2
984.12747	12547.2
987.86502	12582.4
991.59999	12620.1
995.33237	12787.5
999.06217	12993.2
1002.78939	13267.3
1006.51404	13444.7
1010.23611	13643.8
1013.95561	13794.7
1017.67255	13751.9
1021.38692	13676.9
1025.09872	13530.7
1028.80796	13509.2
1032.51465	13645.9
1036.21877	13824.6
1039.92035	13905.2
1043.61937	13848.1
1047.31584	13763.2
1051.00976	13648.7
1054.70114	13583.8
1058.38998	13608.8
1062.07627	13707.4
1065.76003	13834.8
1069.44126	14003.9
1073.11995	14206.4
1076.79611	14432
1080.46974	14586
1084.14085	14670.5
1087.80943	14758
1091.47549	14661.7
1095.13903	14420.6
1098.80005	14038
1102.45857	13762.4
1106.11456	13603.1
1109.76805	13662.3
1113.41903	13790
1117.06751	14050.6
1120.71348	14384.4
1124.35696	14750.2
1127.99793	15051.9
1131.63641	15014.1
1135.2724	14622.6
1138.90589	14203.5
1142.5369	13992
1146.16542	13803.4
1149.79145	13741.3
1153.415	13739.4
1157.03607	13808.9
1160.65467	13989.8
1164.27079	14321.1
1167.88443	14822.9
1171.49561	15618.3
1175.10432	16985.9
1178.71056	18604.6
1182.31434	19810.8
1185.91565	20064.3
1189.51451	19677.7
1193.11091	18801
1196.70485	17793.1
1200.29634	16997.6
1203.88538	16399.8
1207.47197	15793.1
1211.05612	15233.8
1214.63782	14965.2
1218.21708	14910.5
1221.79391	14953.2
1225.36829	14947.2
1228.94024	14990.8
1232.50976	14998.4
1236.07685	15001.7
1239.6415	15072.6
1243.20374	15147.8
1246.76355	15284.4
1250.32093	15464.6
1253.8759	15735.9
1257.42845	16092.1
1260.97859	16403.8
1264.52631	16681.6
1268.07163	16916.9
1271.61453	17206.4
1275.15503	17462.9
1278.69312	17560.8
1282.22882	17693.9
1285.76211	17952.4
1289.29301	18363.5
1292.82151	18746
1296.34761	19165.8
1299.87133	19817.1
1303.39266	20867.4
1306.9116	22404.1
1310.42815	24218.4
1313.94233	25376.7
1317.45412	25094.9
1320.96354	23963.2
1324.47058	22597.9
1327.97525	21474.4
1331.47754	20830.3
1334.97747	20732.8
1338.47502	21050.1
1341.97022	21496.6
1345.46305	21907.1
1348.95352	22485.7
1352.44163	23356
1355.92738	24787.1
1359.41078	27194.9
1362.89183	29535
1366.37053	28979.8
1369.84688	25649.3
1373.32088	22273.1
1376.79254	20054.3
1380.26186	18919.5
1383.72883	18373.4
1387.19347	17934.3
1390.65578	17499.6
1394.11575	17099.2
1397.57339	16945
1401.0287	16976.9
1404.48168	17194.2
1407.93234	17409.9
1411.38068	17612.9
1414.82669	17625.1
1418.27039	17340.6
1421.71177	17015.1
1425.15083	16703.7
1428.58758	16560.1
1432.02203	16594
1435.45416	16709.8
1438.88399	16760.2
1442.31151	16784
1445.73673	16797.3
1449.15965	16904.3
1452.58027	16859
1455.9986	16733.1
1459.41463	16665.1
1462.82837	16747.9
1466.23982	17042.7
1469.64898	17323.8
1473.05586	17542.8
1476.46045	17763.6
1479.86276	18034
1483.26279	18352.8
1486.66054	18707
1490.05602	19165.4
1493.44922	19685.8
1496.84016	20440.6
1500.22882	21465.2
1503.61521	22858.8
1506.99934	24537.9
1510.38121	26188.3
1513.76081	27058.3
1517.13816	26291.2
1520.51324	24113.5
1523.88607	21839.6
1527.25665	20216
1530.62498	19283.4
1533.99105	18755.8
1537.35488	18428.1
1540.71647	18269.6
1544.07581	18150.5
1547.4329	18101.8
1550.78776	17999.7
1554.14038	17905.3
1557.49077	17943
1560.83892	18077.4
1564.18484	18374.1
1567.52853	18733.9
1570.86999	19016.8
1574.20922	19302.8
1577.54624	19433
1580.88103	19067.1
1584.2136	18425.6
1587.54395	17968.4
1590.87208	17966.2
1594.19801	18593
1597.52172	19534.1
1600.84321	20062.2
1604.16251	19637.6
1607.47959	18681.3
1610.79447	17513.1
1614.10715	16424.9
1617.41763	15614.6
1620.7259	15081.3
1624.03199	14819.8
1627.33587	14806.7
1630.63757	15061.2
1633.93707	15511.5
1637.23439	16248.7
1640.52951	17243.1
1643.82246	18543.1
1647.11321	20001.3
1650.40179	21033.3
1653.68819	20629.6
1656.97241	18780.5
1660.25446	16630.1
1663.53433	15043.5
1666.81203	14111.6
1670.08756	13502.9
1673.36092	13153.3
1676.63211	12942.5
1679.90115	12759.7
1683.16801	12617.3
1686.43272	12528.5
1689.69527	12485.1
1692.95567	12425.2
1696.2139	12430.9
1699.46999	12397.9
1702.72392	12407
1705.97571	12353.5
1709.22535	12362.2
1712.47284	12345.7
1715.71819	12325.6
1718.96139	12338
1722.20246	12317.8
1725.44139	12289.6
1728.67818	12242.1
1731.91284	12169.8
1735.14537	12123.3
1738.37576	12081.6
1741.60403	12073.3
1744.83017	12008.9
1748.05418	12013.6
1751.27607	11981.6
1754.49584	11973.4
1757.71349	11970.1
1760.92903	11984
1764.14244	11972.4
1767.35375	11964.3
1770.56294	11949.8
1773.77002	11921.9
1776.97499	11911.2
1780.17785	11885.9
1783.37861	11828
1786.57727	11833.1
1789.77382	11819.6
1792.96828	11808.1
1796.16064	11798.4
1799.3509	11776.1
1802.53907	11767.4
1805.72514	11744.4
1808.90913	11725.9
1812.09102	11689.2
1815.27083	11682.4
1818.44856	11643.4
1821.6242	11628.4
1824.79776	11635.6
1827.96924	11594.1
1831.13864	11615.5
1834.30597	11620.6
1837.47122	11597
1840.6344	11591
1843.7955	11569.4
1846.95454	11570.2
1850.11151	11549.6
1853.26642	11552.5
1856.41926	11599.7
1859.57004	11548.8
1862.71876	11570
1865.86542	11550.1
1869.01003	11549.1
1872.15258	11550.2
1875.29308	11547.3
1878.43152	11538.5
1881.56792	11518.4
1884.70227	11506.2
1887.83457	11524
1890.96482	11500.1
1894.09304	11495.7
1897.21921	11514.8
1900.34335	11502.7
1903.46544	11482.7
1906.58551	11479.9
1909.70353	11471.9
1912.81953	11446.7
1915.93349	11430.4
1919.04543	11417.3
1922.15534	11406.8
1925.26322	11403.9
1928.36908	11388.4
1931.47292	11350.3
1934.57473	11327.1
1937.67453	11292
1940.77232	11277.6
1943.86808	11237.9
1946.96184	11195.4
1950.05358	11201.1
1953.14331	11154.5
1956.23103	11154.2
1959.31675	11120.6
1962.40046	11082.8
1965.48217	11061.2
1968.56188	11009.6
1971.63959	11000.2
1974.7153	10940.3
1977.78901	10944.7
1980.86073	10875.8
1983.93046	10837.4
1986.99819	10848.2
1990.06394	10781.9
1993.1277	10768.3
1996.18947	10689.2
1999.24925	10674
2002.30706	10676
2005.36288	10634.7
2008.41672	10606
2011.46859	10569.6
2014.51848	10553.5
2017.56639	10545.1
2020.61233	10488.5
2023.6563	10483.8
2026.6983	10449.8
2029.73833	10431.4
2032.7764	10399
2035.8125	10400.2
2038.84664	10378.8
2041.87881	10361.8
2044.90903	10349.4
2047.93729	10331.5
2050.96359	10298.3
2053.98794	10300.7
2057.01034	10276.5
2060.03078	10275
2063.04927	10275.7
2066.06582	10272.7
2069.08042	10247.5
2072.09307	10234.4
2075.10378	10195.5
2078.11255	10198.3
2081.11938	10220.6
2084.12426	10227.9
2087.12722	10212.3
2090.12824	10216.3
2093.12732	10222.4
2096.12447	10236.5
2099.11969	10194.4
2102.11299	10222.2
2105.10435	10217.1
2108.09379	10231
2111.08131	10252
2114.0669	10234.9
2117.05057	10257.4
2120.03233	10243.8
2123.01216	10268.5
2125.99008	10265.5
2128.96609	10265.6
2131.94018	10296.2
2134.91236	10289.6
2137.88263	10290.3
2140.851	10286.1
2143.81746	10311.8
2146.78201	10313.7
2149.74466	10308.7
2152.7054	10313.7
2155.66425	10299.7
2158.6212	10303.5
2161.57625	10316.8
2164.52941	10304.8
2167.48067	10275.3
2170.43004	10274.1
2173.37752	10296.5
2176.32311	10290.7
2179.26681	10274.1
2182.20863	10263.8
2185.14856	10276.1
2188.08661	10287
2191.02278	10256.8
2193.95707	10247.5
2196.88948	10249.5
2199.82001	10231.5
2202.74867	10251.9
2205.67545	10238.7
2208.60037	10236.6
2211.52341	10221.6
2214.44458	10183.3
2217.36388	10165.9
2220.28132	10168
2223.1969	10132.3
2226.11061	10128.8
2229.02246	10104.8
2231.93245	10096.7
2234.84058	10060.2
2237.74686	10053.4
2240.65128	10052.2
2243.55385	9998.9
2246.45456	10016.3
2249.35343	10013.5
2252.25044	9988.6
2255.14561	9981.6
2258.03893	9966
2260.93041	9983.5
2263.82004	9967.3
2266.70783	9947.3
2269.59378	9893.4
2272.4779	9867.4
2275.36017	9850.4
2278.24061	9838.6
2281.11922	9794.8
2283.996	9797.9
2286.87094	9786.8
2289.74405	9759.3
2292.61534	9755.3
2295.4848	9726.2
2298.35243	9746.1
2301.21824	9710.4
2304.08223	9707.4
2306.94439	9715.1
2309.80474	9685.9
2312.66327	9691.2
2315.51999	9687.7
2318.37489	9683.7
2321.22797	9672.9
2324.07925	9646.5
2326.92871	9647.8
2329.77637	9646.6
2332.62222	9635.2
2335.46626	9612.2
2338.3085	9615.6
2341.14893	9615.2
2343.98756	9600
2346.8244	9562.5
2349.65943	9595.4
2352.49267	9567.8
2355.32411	9588.8
2358.15376	9595
2360.98161	9599.4
2363.80768	9598.5
2366.63195	9591.6
2369.45444	9543.6
2372.27514	9559.4
2375.09405	9540.3
2377.91118	9522.2
2380.72652	9489.2
2383.54009	9474.9
2386.35187	9449.5
2389.16188	9400
2391.97011	9397.7
2394.77657	9385.4
2397.58125	9353.2
2400.38416	9349.8
2403.18529	9315.6
2405.98466	9311.5
2408.78226	9294.9
2411.57809	9266.9
2414.37216	9252.2
2417.16446	9254.2
2419.955	9224.8
2422.74378	9237.3
2425.5308	9191.6
2428.31606	9178.9
2431.09956	9194.6
2433.88131	9196.6
2436.6613	9196.2
2439.43954	9178.4
2442.21603	9186.5
2444.99077	9147.4
2447.76377	9151.8
2450.53501	9141.8
2453.30451	9157.7
2456.07226	9109.5
2458.83827	9115.3
2461.60254	9093.8
2464.36507	9105.4
2467.12586	9114.2
2469.88492	9107.3
2472.64224	9089
2475.39782	9055.4
2478.15167	9104.4
2480.90379	9096.6
2483.65417	9094.7
2486.40283	9100.7
2489.14976	9121.4
2491.89497	9106.8
2494.63845	9106.4
2497.3802	9108.8
2500.12024	9104.4
2502.85855	9072.1
2505.59514	9060.6
2508.33002	9019.7
2511.06318	9020.5
2513.79462	9016.9
2516.52435	8977.2
2519.25237	8976.2
2521.97867	8969.5
2524.70327	8968.4
2527.42616	8926
2530.14734	8930.7
2532.86681	8898.4
2535.58458	8898.9
2538.30065	8907.9
2541.01501	8884.5
2543.72768	8879.6
2546.43864	8858.3
2549.14791	8864.6
2551.85548	8850.9
2554.56136	8816.6
2557.26554	8821.4
2559.96803	8794.6
2562.66883	8791.2
2565.36794	8789.5
2568.06536	8764
2570.7611	8770.8
2573.45514	8751.5
2576.14751	8746.4
2578.83819	8702.7
2581.52719	8699.9
2584.21451	8686.4
2586.90015	8691
2589.58411	8687.8
2592.2664	8668.6
2594.94701	8638.8
2597.62594	8633.8
2600.30321	8606.4
2602.9788	8618.1
2605.65273	8597
2608.32498	8597.3
2610.99557	8577.4
2613.66449	8584.3
2616.33175	8561.4
2618.99734	8573.2
2621.66128	8558.1
2624.32355	8562.1
2626.98416	8530.1
2629.64311	8542.9
2632.30041	8542.8
2634.95605	8540.4
2637.61004	8499.3
2640.26238	8489.7
2642.91306	8504.3
2645.56209	8469
2648.20948	8472.4
2650.85521	8440.5
2653.4993	8440
2656.14175	8444.1
2658.78255	8447.9
2661.42171	8456.7
2664.05923	8474.5
2666.6951	8472.6
2669.32934	8461.3
2671.96194	8473.6
2674.59291	8444.9
2677.22224	8441.6
2679.84993	8470
2682.476	8465.3
2685.10043	8478.2
2687.72324	8470.1
2690.34441	8475.1
2692.96396	8457.4
2695.58188	8471.4
2698.19818	8430.1
2700.81285	8460.3
2703.4259	8483.8
2706.03733	8499.3
2708.64714	8478.4
2711.25533	8475.4
2713.86191	8458.8
2716.46687	8475.2
2719.07021	8458.7
2721.67194	8461.4
2724.27206	8454.5
2726.87057	8460.1
2729.46747	8453.8
2732.06276	8451.4
2734.65644	8437.1
2737.24852	8440.5
2739.83899	8420
2742.42786	8423.4
2745.01513	8412.9
2747.60079	8416.8
2750.18486	8398.9
2752.76733	8395.3
2755.3482	8383.3
2757.92747	8398.7
2760.50515	8371.2
2763.08123	8350.3
2765.65573	8331
2768.22863	8352.3
2770.79994	8318.7
2773.36967	8322.8
2775.9378	8311.8
2778.50435	8305.5
2781.06932	8282.1
2783.6327	8281.1
2786.1945	8271.5
2788.75471	8257.7
2791.31335	8248.8
2793.87041	8231.2
2796.42589	8215.8
2798.97979	8211.4
2801.53212	8201.8
2804.08288	8178.5
2806.63206	8172.1
2809.17967	8163
2811.72571	8136.4
2814.27018	8115.1
2816.81308	8121.2
2819.35442	8126.5
2821.89419	8107.5
2824.43239	8131.7
2826.96904	8110.2
2829.50412	8136
2832.03763	8105.1
2834.56959	8106.3
2837.1	8091.9
2839.62884	8107.7
2842.15613	8105.7
2844.68186	8145.5
2847.20604	8162.2
2849.72867	8168.5
2852.24974	8175.8
2854.76927	8184.4
2857.28724	8170.1
2859.80367	8172.1
2862.31855	8130.9
2864.83189	8107.5
2867.34368	8108.6
2869.85393	8115.8
2872.36264	8080.2
2874.8698	8082.4
2877.37543	8094
2879.87952	8086
2882.38207	8100.5
2884.88308	8078.2
2887.38256	8072.6
2889.88051	8063.1
2892.37692	8079.1
2894.8718	8053.6
2897.36515	8079.9
2899.85698	8068.6
2902.34727	8090.6
2904.83604	8064.3
2907.32328	8091.3
2909.809	8072.2
2912.29319	8094.8
2914.77587	8087.9
2917.25702	8048.1
2919.73665	8042.9
2922.21476	8041.5
2924.69136	8051.2
2927.16644	8057.6
2929.64	8024.4
2932.11205	8033.6
2934.58258	8005.4
2937.05161	8002.9
2939.51912	8010.1
2941.98513	7989
2944.44962	7947.9
2946.91261	7909.4
2949.37409	7901.1
2951.83407	7886
2954.29254	7892.1
2956.74951	7859
2959.20498	7856.4
2961.65895	7867.3
2964.11142	7843.6
2966.56239	7837.5
2969.01186	7821.8
2971.45984	7806.9
2973.90632	7808.4
2976.35131	7759.8
2978.7948	7740.6
2981.23681	7735
2983.67732	7731.4
2986.11635	7727.6
2988.55388	7693.2
2990.98993	7673.7
2993.4245	7653.9
2995.85758	7658.9
2998.28917	7615.8
3000.71928	7614
3003.14791	7595.6
3005.57506	7615
3008.00073	7582.7
3010.42493	7585.9
3012.84764	7561.9
3015.26888	7550.1
3017.68865	7555.8
3020.10694	7544.1
3022.52376	7499
3024.9391	7509.3
3027.35298	7524.6
3029.76539	7491
3032.17632	7490
3034.5858	7460.9
3036.9938	7469.8
3039.40034	7448.9
3041.80542	7455.6
3044.20903	7422.1
3046.61118	7440.5
3049.01187	7412.1
3051.4111	7403.8
3053.80888	7382.8
3056.20519	7371.2
3058.60005	7372
3060.99345	7366.5
3063.3854	7343.4
3065.7759	7307.2
3068.16494	7310.8
3070.55254	7291.8
3072.93868	7264.9
3075.32338	7233.9
3077.70662	7249.6
3080.08842	7194.9
3082.46878	7209.9
3084.84769	7214.3
3087.22515	7202.4
3089.60118	7191.2
3091.97576	7200.2
3094.3489	7158.3
3096.72061	7177.3
3099.09087	7178.6
3101.4597	7168
3103.82709	7174.5
3106.19305	7154.6
3108.55757	7140.2
3110.92066	7141.7
3113.28232	7131.2
3115.64255	7090.5
3118.00134	7093.5
3120.35871	7093.7
3122.71466	7065.7
3125.06917	7068.9
3127.42226	7078.3
3129.77393	7085.1
3132.12417	7066.4
3134.47299	7079.7
3136.82039	7057.9
3139.16636	7064.9
3141.51092	7078.9
3143.85406	7083.7
3146.19579	7076.7
3148.53609	7100.5
3150.87499	7107.8
3153.21246	7096.8
3155.54853	7116.8
3157.88318	7097.1
3160.21642	7086.1
3162.54826	7086
3164.87868	7107.8
3167.2077	7090.9
3169.5353	7078.1
3171.86151	7083.9
3174.18631	7084.6
3176.5097	7086.9
3178.83169	7072.8
3181.15228	7073.2
3183.47147	7060
3185.78926	7070.2
3188.10565	7063.8
3190.42065	7046.4
3192.73424	7033
3195.04645	7077.6
3197.35725	7062.6
3199.66667	7057.8
3201.97469	7073.2
3204.28132	7078.7
3206.58656	7092.2
3208.8904	7083.9
3211.19287	7079.5
3213.49394	7078.7
3215.79363	7090.6
3218.09193	7082.6
3220.38884	7091.3
3222.68438	7094.4
3224.97853	7076.2
3227.2713	7060.1
3229.56269	7051.6
3231.8527	7023.7
3234.14133	7019.6
3236.42858	7014.5
3238.71446	7017.6
3240.99896	7011.6
3243.28209	6996.4
3245.56384	6999.5
3247.84423	6989.9
3250.12324	6980.3
3252.40088	6970.3
3254.67715	6965.1
3256.95205	6964.8
3259.22558	6964.1
3261.49775	6956.6
3263.76855	6955
3266.03799	6922.2
3268.30606	6926.8
3270.57277	6911.9
3272.83812	6913.1
3275.10211	6894.3
3277.36474	6879.3
3279.62601	6869.7
3281.88593	6864.6
3284.14448	6872.9
3286.40168	6862.6
3288.65753	6863.7
3290.91202	6847.1
3293.16516	6825.8
3295.41695	6806.9
3297.66738	6777
3299.91647	6759.6
3302.16421	6706.5
3304.4106	6687.6
3306.65564	6657.2
3308.89933	6595
3311.14169	6565.6
3313.38269	6521
3315.62236	6475.5
3317.86068	6437.3
3320.09766	6383.2
3322.3333	6319.1
3324.5676	6337.5
3326.80056	6229.1
3329.03219	6200.5
3331.26248	2.5
3333.49143	-1.1
3335.71905	0.9
