Data from AgNP_FTO_APTES_CRN_50uM_R6G_10uM_NaF_0.1M_Addition_RamanShift__3__17-49-28-058.txt Node

Date: Wed Dec 15 17:49:28 GMT 2021
User: TCL
Spectrometer: QEP01345
Trigger mode: 4
Integration Time (sec): 7.000000E0
Scans to average: 10
Electric dark correction enabled: true
Nonlinearity correction enabled: false
Boxcar width: 0
XAxis mode: Raman Shifts
Number of Pixels in Spectrum: 1044
>>>>>Begin Spectral Data<<<<<
46.04893	0.7875
50.45542	-0.9125
54.85868	-1.0125
59.25871	-1.0125
63.6555	62.3875
68.04907	66.8875
72.43941	72.1875
76.82654	77.0875
81.21044	77.1875
85.59113	79.5875
89.96862	85.0875
94.34289	84.2875
98.71396	86.4875
103.08183	91.4875
107.4465	93.3875
111.80798	93.2875
116.16626	98.3875
120.52136	103.2875
124.87327	103.6875
129.222	109.5875
133.56755	111.5875
137.90993	119.4875
142.24913	133.5875
146.58517	147.0875
150.91804	168.4875
155.24774	196.5875
159.57429	243.8875
163.89768	310.9875
168.21792	401.0875
172.53501	547.4875
176.84895	754.0875
181.15975	1062.2875
185.46741	1487.5875
189.77193	2057.5875
194.07331	2741.3875
198.37157	3540.2875
202.6667	4356.3875
206.9587	5164.7875
211.24758	5996.0875
215.53334	6793.0875
219.81599	7652.6875
224.09553	8610.9875
228.37195	9639.1875
232.64527	10776.1875
236.91549	11988.5875
241.18261	13227.1875
245.44663	14370.2875
249.70755	15415.1875
253.96539	16314.8875
258.22014	17037.2875
262.4718	17693.3875
266.72039	18111.8875
270.96589	18329.1875
275.20832	18358.9875
279.44768	18198.0875
283.68397	18014.9875
287.91719	17850.5875
292.14735	17747.5875
296.37445	17735.3875
300.59849	17737.6875
304.81948	17799.8875
309.03742	17818.2875
313.25231	17735.3875
317.46415	17498.9875
321.67296	17126.2875
325.87872	16840.2875
330.08145	16631.0875
334.28114	16623.5875
338.47781	16744.2875
342.67145	16939.4875
346.86207	17199.7875
351.04966	17523.0875
355.23424	17833.3875
359.4158	18042.3875
363.59435	18236.9875
367.76989	18348.5875
371.94243	18417.6875
376.11196	18472.2875
380.27849	18559.7875
384.44203	18649.3875
388.60257	18829.6875
392.76012	19017.1875
396.91468	19237.7875
401.06626	19523.1875
405.21485	19745.9875
409.36047	19699.5875
413.50311	19510.6875
417.64277	19352.0875
421.77947	19337.8875
425.9132	19385.8875
430.04396	19504.3875
434.17176	19566.0875
438.2966	19649.2875
442.41849	19928.0875
446.53742	20429.5875
450.6534	20958.1875
454.76644	21280.6875
458.87653	21365.2875
462.98368	21238.6875
467.08789	21016.0875
471.18916	20734.8875
475.2875	20498.8875
479.38291	20337.8875
483.4754	20179.4875
487.56496	19921.1875
491.6516	19713.0875
495.73531	19539.1875
499.81612	19464.5875
503.89401	19585.4875
507.96899	19668.3875
512.04106	19721.6875
516.11023	19642.7875
520.1765	19558.8875
524.23987	19474.3875
528.30034	19371.4875
532.35792	19223.1875
536.41261	19030.0875
540.46441	18807.0875
544.51333	18763.3875
548.55936	18947.2875
552.60252	19280.6875
556.64279	19710.2875
560.6802	19997.1875
564.71473	20083.0875
568.7464	20237.6875
572.7752	20610.9875
576.80114	21046.0875
580.82422	21529.3875
584.84444	22233.0875
588.86181	23024.4875
592.87633	23611.8875
596.888	23513.3875
600.89682	22785.8875
604.9028	22706.5875
608.90594	23926.3875
612.90624	25316.5875
616.90371	24004.9875
620.89834	20843.7875
624.89015	19413.9875
628.87913	19253.0875
632.86528	19287.8875
636.84862	19287.3875
640.82913	19030.8875
644.80683	18675.4875
648.78172	18436.6875
652.75379	18465.9875
656.72306	18610.7875
660.68952	18805.2875
664.65319	18751.3875
668.61405	18490.6875
672.57211	18445.9875
676.52738	18490.5875
680.47986	18488.2875
684.42955	18407.1875
688.37646	18357.1875
692.32058	18452.8875
696.26192	18643.9875
700.20048	18889.3875
704.13626	19062.2875
708.06928	19060.5875
711.99952	19009.5875
715.927	19016.0875
719.85171	19061.5875
723.77365	18975.2875
727.69284	18749.4875
731.60928	18512.6875
735.52295	18526.0875
739.43388	18480.6875
743.34206	18544.4875
747.24749	18644.5875
751.15017	18770.7875
755.05012	19025.4875
758.94733	19496.3875
762.8418	20244.3875
766.73354	21484.5875
770.62254	22646.8875
774.50882	22888.3875
778.39237	21981.4875
782.27321	20730.0875
786.15132	19654.9875
790.02671	18994.5875
793.89938	18678.1875
797.76935	18531.7875
801.6366	18489.1875
805.50115	18470.0875
809.36299	18352.4875
813.22213	18281.8875
817.07857	18228.5875
820.93231	18143.9875
824.78336	18089.4875
828.63172	18085.8875
832.47738	18078.0875
836.32036	18166.9875
840.16066	18196.9875
843.99827	18203.7875
847.8332	18173.6875
851.66546	18085.5875
855.49504	18042.3875
859.32195	18084.7875
863.1462	18069.0875
866.96777	17993.2875
870.78668	17973.0875
874.60293	17988.2875
878.41652	18012.5875
882.22745	18055.1875
886.03573	18151.9875
889.84136	18125.2875
893.64433	18031.4875
897.44466	17974.6875
901.24235	17943.3875
905.0374	17912.3875
908.8298	17833.1875
912.61957	17925.5875
916.40671	18031.2875
920.19121	18216.4875
923.97308	18346.1875
927.75233	18401.1875
931.52895	18357.1875
935.30295	18127.7875
939.07433	17901.8875
942.84309	17671.8875
946.60924	17564.4875
950.37278	17514.9875
954.13371	17490.0875
957.89203	17434.0875
961.64774	17445.0875
965.40086	17415.1875
969.15137	17380.7875
972.89929	17298.6875
976.64461	17307.6875
980.38733	17300.5875
984.12747	17380.7875
987.86502	17466.7875
991.59999	17592.4875
995.33237	17800.9875
999.06217	18167.5875
1002.78939	18496.5875
1006.51404	18815.3875
1010.23611	19062.4875
1013.95561	19234.6875
1017.67255	19223.0875
1021.38692	19034.4875
1025.09872	18830.7875
1028.80796	18777.5875
1032.51465	18976.8875
1036.21877	19319.7875
1039.92035	19455.3875
1043.61937	19395.6875
1047.31584	19174.2875
1051.00976	18987.0875
1054.70114	18951.9875
1058.38998	19019.2875
1062.07627	19252.1875
1065.76003	19586.2875
1069.44126	20006.9875
1073.11995	20434.1875
1076.79611	20671.5875
1080.46974	20658.0875
1084.14085	20496.9875
1087.80943	20362.1875
1091.47549	20292.3875
1095.13903	20179.6875
1098.80005	19874.1875
1102.45857	19509.8875
1106.11456	19205.8875
1109.76805	19062.6875
1113.41903	19073.5875
1117.06751	19145.6875
1120.71348	19277.3875
1124.35696	19479.8875
1127.99793	19678.4875
1131.63641	19775.5875
1135.2724	19684.0875
1138.90589	19554.8875
1142.5369	19559.4875
1146.16542	19591.2875
1149.79145	19691.9875
1153.415	19799.0875
1157.03607	20025.7875
1160.65467	20476.9875
1164.27079	21209.0875
1167.88443	22194.3875
1171.49561	23300.9875
1175.10432	24799.2875
1178.71056	26641.1875
1182.31434	28274.9875
1185.91565	28990.5875
1189.51451	28585.4875
1193.11091	27671.0875
1196.70485	26640.0875
1200.29634	25632.5875
1203.88538	24985.1875
1207.47197	24588.9875
1211.05612	24228.2875
1214.63782	23851.6875
1218.21708	23366.3875
1221.79391	22936.7875
1225.36829	22684.1875
1228.94024	22452.3875
1232.50976	22181.9875
1236.07685	21880.4875
1239.6415	21755.6875
1243.20374	21739.3875
1246.76355	21871.4875
1250.32093	22159.5875
1253.8759	22568.9875
1257.42845	23101.8875
1260.97859	23658.8875
1264.52631	24284.2875
1268.07163	24851.3875
1271.61453	25454.5875
1275.15503	26100.4875
1278.69312	26694.7875
1282.22882	27275.4875
1285.76211	28006.7875
1289.29301	28817.8875
1292.82151	29912.9875
1296.34761	31268.6875
1299.87133	32913.5875
1303.39266	34685.3875
1306.9116	36520.2875
1310.42815	38022.3875
1313.94233	38855.0875
1317.45412	38648.7875
1320.96354	37778.8875
1324.47058	36936.7875
1327.97525	36250.1875
1331.47754	35682.9875
1334.97747	35339.6875
1338.47502	35038.9875
1341.97022	34680.3875
1345.46305	34292.3875
1348.95352	34065.3875
1352.44163	34374.5875
1355.92738	35380.9875
1359.41078	37101.8875
1362.89183	38345.0875
1366.37053	37723.6875
1369.84688	35044.9875
1373.32088	31562.1875
1376.79254	29132.0875
1380.26186	28148.2875
1383.72883	27984.6875
1387.19347	27816.5875
1390.65578	27424.4875
1394.11575	27278.7875
1397.57339	27452.1875
1401.0287	27826.1875
1404.48168	28076.4875
1407.93234	28048.1875
1411.38068	27641.2875
1414.82669	27010.4875
1418.27039	26107.0875
1421.71177	25164.7875
1425.15083	24385.6875
1428.58758	23989.3875
1432.02203	24179.4875
1435.45416	24692.2875
1438.88399	25315.0875
1442.31151	25734.9875
1445.73673	26046.7875
1449.15965	26187.5875
1452.58027	26219.9875
1455.9986	26140.1875
1459.41463	26229.7875
1462.82837	26576.9875
1466.23982	27110.2875
1469.64898	27583.5875
1473.05586	27963.9875
1476.46045	28168.7875
1479.86276	28125.6875
1483.26279	27931.0875
1486.66054	27924.1875
1490.05602	28067.7875
1493.44922	28398.1875
1496.84016	28780.6875
1500.22882	29309.5875
1503.61521	30111.9875
1506.99934	31109.2875
1510.38121	31839.9875
1513.76081	31836.8875
1517.13816	31118.8875
1520.51324	29981.8875
1523.88607	28987.7875
1527.25665	28497.0875
1530.62498	28287.4875
1533.99105	28224.3875
1537.35488	27993.8875
1540.71647	27475.8875
1544.07581	26927.2875
1547.4329	26310.6875
1550.78776	25811.1875
1554.14038	25401.0875
1557.49077	25192.9875
1560.83892	25161.3875
1564.18484	25229.5875
1567.52853	25482.7875
1570.86999	25971.7875
1574.20922	26639.9875
1577.54624	27316.4875
1580.88103	27662.2875
1584.2136	27763.1875
1587.54395	28033.3875
1590.87208	28661.0875
1594.19801	29870.9875
1597.52172	31219.8875
1600.84321	31638.6875
1604.16251	30553.7875
1607.47959	28448.0875
1610.79447	26167.2875
1614.10715	24048.9875
1617.41763	22461.4875
1620.7259	21421.6875
1624.03199	20939.3875
1627.33587	20973.1875
1630.63757	21455.5875
1633.93707	22558.6875
1637.23439	24379.4875
1640.52951	27124.6875
1643.82246	30330.7875
1647.11321	33006.3875
1650.40179	33595.8875
1653.68819	31455.9875
1656.97241	27789.0875
1660.25446	24233.0875
1663.53433	21620.0875
1666.81203	19921.3875
1670.08756	18823.0875
1673.36092	18116.6875
1676.63211	17683.5875
1679.90115	17354.4875
1683.16801	17126.6875
1686.43272	16951.1875
1689.69527	16816.3875
1692.95567	16733.2875
1696.2139	16667.1875
1699.46999	16633.9875
1702.72392	16585.7875
1705.97571	16617.0875
1709.22535	16552.0875
1712.47284	16517.8875
1715.71819	16460.2875
1718.96139	16440.4875
1722.20246	16384.9875
1725.44139	16353.2875
1728.67818	16272.6875
1731.91284	16190.7875
1735.14537	16142.3875
1738.37576	16064.7875
1741.60403	16055.5875
1744.83017	16011.6875
1748.05418	15922.5875
1751.27607	15925.6875
1754.49584	15895.6875
1757.71349	15899.1875
1760.92903	15905.6875
1764.14244	15912.6875
1767.35375	15896.3875
1770.56294	15876.3875
1773.77002	15855.3875
1776.97499	15827.7875
1780.17785	15791.7875
1783.37861	15752.2875
1786.57727	15711.5875
1789.77382	15696.1875
1792.96828	15662.6875
1796.16064	15655.5875
1799.3509	15616.4875
1802.53907	15566.3875
1805.72514	15523.6875
1808.90913	15512.2875
1812.09102	15493.0875
1815.27083	15447.6875
1818.44856	15430.9875
1821.6242	15420.6875
1824.79776	15412.5875
1827.96924	15376.1875
1831.13864	15422.9875
1834.30597	15414.4875
1837.47122	15414.1875
1840.6344	15380.6875
1843.7955	15373.6875
1846.95454	15377.3875
1850.11151	15355.4875
1853.26642	15357.8875
1856.41926	15379.5875
1859.57004	15339.2875
1862.71876	15313.4875
1865.86542	15317.0875
1869.01003	15294.6875
1872.15258	15269.8875
1875.29308	15258.2875
1878.43152	15250.3875
1881.56792	15230.7875
1884.70227	15218.0875
1887.83457	15208.6875
1890.96482	15213.6875
1894.09304	15185.9875
1897.21921	15186.6875
1900.34335	15171.3875
1903.46544	15122.8875
1906.58551	15125.8875
1909.70353	15088.7875
1912.81953	15070.1875
1915.93349	15069.0875
1919.04543	15016.6875
1922.15534	15006.9875
1925.26322	14955.2875
1928.36908	14943.7875
1931.47292	14929.2875
1934.57473	14893.6875
1937.67453	14841.5875
1940.77232	14827.2875
1943.86808	14784.1875
1946.96184	14763.7875
1950.05358	14738.2875
1953.14331	14687.2875
1956.23103	14650.1875
1959.31675	14612.6875
1962.40046	14585.1875
1965.48217	14523.5875
1968.56188	14518.0875
1971.63959	14456.0875
1974.7153	14405.3875
1977.78901	14394.8875
1980.86073	14315.5875
1983.93046	14276.3875
1986.99819	14272.3875
1990.06394	14227.0875
1993.1277	14197.6875
1996.18947	14123.0875
1999.24925	14110.7875
2002.30706	14042.1875
2005.36288	14012.4875
2008.41672	13980.0875
2011.46859	13946.3875
2014.51848	13950.7875
2017.56639	13904.3875
2020.61233	13871.1875
2023.6563	13828.7875
2026.6983	13800.3875
2029.73833	13794.6875
2032.7764	13747.5875
2035.8125	13749.3875
2038.84664	13705.8875
2041.87881	13699.6875
2044.90903	13669.4875
2047.93729	13624.9875
2050.96359	13623.6875
2053.98794	13632.4875
2057.01034	13619.8875
2060.03078	13620.5875
2063.04927	13568.3875
2066.06582	13601.3875
2069.08042	13570.9875
2072.09307	13558.8875
2075.10378	13523.4875
2078.11255	13541.9875
2081.11938	13533.9875
2084.12426	13550.0875
2087.12722	13528.4875
2090.12824	13546.2875
2093.12732	13560.4875
2096.12447	13570.5875
2099.11969	13531.1875
2102.11299	13562.0875
2105.10435	13584.3875
2108.09379	13591.0875
2111.08131	13612.1875
2114.0669	13596.5875
2117.05057	13601.5875
2120.03233	13625.8875
2123.01216	13606.5875
2125.99008	13637.3875
2128.96609	13633.7875
2131.94018	13660.1875
2134.91236	13657.1875
2137.88263	13674.9875
2140.851	13669.8875
2143.81746	13694.5875
2146.78201	13712.4875
2149.74466	13712.5875
2152.7054	13724.4875
2155.66425	13743.1875
2158.6212	13734.5875
2161.57625	13744.7875
2164.52941	13699.0875
2167.48067	13714.6875
2170.43004	13712.2875
2173.37752	13737.6875
2176.32311	13704.2875
2179.26681	13718.1875
2182.20863	13709.3875
2185.14856	13702.2875
2188.08661	13727.1875
2191.02278	13719.7875
2193.95707	13710.3875
2196.88948	13691.1875
2199.82001	13681.0875
2202.74867	13676.0875
2205.67545	13680.1875
2208.60037	13664.7875
2211.52341	13669.3875
2214.44458	13651.4875
2217.36388	13606.8875
2220.28132	13570.5875
2223.1969	13549.4875
2226.11061	13573.2875
2229.02246	13550.1875
2231.93245	13512.1875
2234.84058	13505.3875
2237.74686	13458.8875
2240.65128	13462.9875
2243.55385	13444.9875
2246.45456	13404.2875
2249.35343	13406.5875
2252.25044	13359.1875
2255.14561	13344.5875
2258.03893	13345.2875
2260.93041	13316.6875
2263.82004	13305.1875
2266.70783	13287.8875
2269.59378	13265.0875
2272.4779	13228.4875
2275.36017	13194.6875
2278.24061	13160.8875
2281.11922	13158.2875
2283.996	13136.9875
2286.87094	13101.9875
2289.74405	13086.4875
2292.61534	13074.7875
2295.4848	13069.3875
2298.35243	13104.8875
2301.21824	13088.4875
2304.08223	13069.6875
2306.94439	13082.0875
2309.80474	13075.5875
2312.66327	13044.0875
2315.51999	13058.2875
2318.37489	13031.2875
2321.22797	13036.5875
2324.07925	13022.0875
2326.92871	13018.1875
2329.77637	13031.8875
2332.62222	13023.9875
2335.46626	12970.8875
2338.3085	12981.3875
2341.14893	12968.8875
2343.98756	12949.5875
2346.8244	12951.0875
2349.65943	12949.4875
2352.49267	12935.8875
2355.32411	12941.1875
2358.15376	12924.0875
2360.98161	12905.1875
2363.80768	12911.1875
2366.63195	12927.6875
2369.45444	12874.3875
2372.27514	12856.4875
2375.09405	12859.9875
2377.91118	12826.3875
2380.72652	12820.9875
2383.54009	12800.7875
2386.35187	12777.0875
2389.16188	12749.1875
2391.97011	12750.0875
2394.77657	12726.0875
2397.58125	12666.2875
2400.38416	12667.5875
2403.18529	12665.1875
2405.98466	12661.0875
2408.78226	12652.1875
2411.57809	12634.0875
2414.37216	12600.5875
2417.16446	12616.8875
2419.955	12594.5875
2422.74378	12566.5875
2425.5308	12527.4875
2428.31606	12536.0875
2431.09956	12517.0875
2433.88131	12517.9875
2436.6613	12511.1875
2439.43954	12520.3875
2442.21603	12489.7875
2444.99077	12476.6875
2447.76377	12491.7875
2450.53501	12483.3875
2453.30451	12496.5875
2456.07226	12449.1875
2458.83827	12456.6875
2461.60254	12473.8875
2464.36507	12432.3875
2467.12586	12447.6875
2469.88492	12467.8875
2472.64224	12458.8875
2475.39782	12451.7875
2478.15167	12467.3875
2480.90379	12483.2875
2483.65417	12452.8875
2486.40283	12464.8875
2489.14976	12490.7875
2491.89497	12464.6875
2494.63845	12463.8875
2497.3802	12474.1875
2500.12024	12452.3875
2502.85855	12434.5875
2505.59514	12445.9875
2508.33002	12435.0875
2511.06318	12418.0875
2513.79462	12432.3875
2516.52435	12387.9875
2519.25237	12373.3875
2521.97867	12354.8875
2524.70327	12373.3875
2527.42616	12345.4875
2530.14734	12357.8875
2532.86681	12312.2875
2535.58458	12302.8875
2538.30065	12297.2875
2541.01501	12288.9875
2543.72768	12306.3875
2546.43864	12308.4875
2549.14791	12280.6875
2551.85548	12259.8875
2554.56136	12228.6875
2557.26554	12224.4875
2559.96803	12216.7875
2562.66883	12202.8875
2565.36794	12201.2875
2568.06536	12222.5875
2570.7611	12210.7875
2573.45514	12216.8875
2576.14751	12181.0875
2578.83819	12145.5875
2581.52719	12135.7875
2584.21451	12105.9875
2586.90015	12122.8875
2589.58411	12098.7875
2592.2664	12084.6875
2594.94701	12056.2875
2597.62594	12044.1875
2600.30321	12034.9875
2602.9788	12041.6875
2605.65273	12033.7875
2608.32498	12016.3875
2610.99557	12002.4875
2613.66449	12011.3875
2616.33175	11991.3875
2618.99734	11999.2875
2621.66128	11989.5875
2624.32355	11968.4875
2626.98416	11983.0875
2629.64311	11972.6875
2632.30041	11966.8875
2634.95605	11960.3875
2637.61004	11935.8875
2640.26238	11917.7875
2642.91306	11911.6875
2645.56209	11936.4875
2648.20948	11930.6875
2650.85521	11903.4875
2653.4993	11904.1875
2656.14175	11902.8875
2658.78255	11921.8875
2661.42171	11908.8875
2664.05923	11948.3875
2666.6951	11937.8875
2669.32934	11929.4875
2671.96194	11896.1875
2674.59291	11908.2875
2677.22224	11910.1875
2679.84993	11967.4875
2682.476	11924.4875
2685.10043	11937.2875
2687.72324	11901.5875
2690.34441	11924.5875
2692.96396	11936.8875
2695.58188	11914.3875
2698.19818	11920.7875
2700.81285	11920.9875
2703.4259	11946.0875
2706.03733	12004.8875
2708.64714	11968.4875
2711.25533	11973.6875
2713.86191	11980.8875
2716.46687	11986.8875
2719.07021	11957.5875
2721.67194	11978.2875
2724.27206	11942.6875
2726.87057	11972.4875
2729.46747	11966.4875
2732.06276	11971.1875
2734.65644	11960.0875
2737.24852	11998.2875
2739.83899	11973.9875
2742.42786	11961.3875
2745.01513	11939.5875
2747.60079	11945.5875
2750.18486	11933.7875
2752.76733	11928.8875
2755.3482	11943.0875
2757.92747	11938.6875
2760.50515	11933.3875
2763.08123	11899.6875
2765.65573	11905.1875
2768.22863	11887.9875
2770.79994	11901.7875
2773.36967	11902.3875
2775.9378	11872.9875
2778.50435	11858.0875
2781.06932	11846.1875
2783.6327	11846.5875
2786.1945	11821.6875
2788.75471	11800.3875
2791.31335	11801.1875
2793.87041	11809.8875
2796.42589	11762.9875
2798.97979	11765.9875
2801.53212	11751.9875
2804.08288	11718.8875
2806.63206	11695.3875
2809.17967	11687.6875
2811.72571	11664.3875
2814.27018	11667.6875
2816.81308	11652.0875
2819.35442	11637.2875
2821.89419	11607.1875
2824.43239	11621.1875
2826.96904	11596.6875
2829.50412	11595.4875
2832.03763	11540.2875
2834.56959	11564.0875
2837.1	11539.5875
2839.62884	11561.5875
2842.15613	11550.1875
2844.68186	11586.4875
2847.20604	11550.9875
2849.72867	11563.8875
2852.24974	11562.9875
2854.76927	11547.1875
2857.28724	11535.3875
2859.80367	11541.2875
2862.31855	11521.7875
2864.83189	11489.3875
2867.34368	11485.5875
2869.85393	11501.0875
2872.36264	11468.1875
2874.8698	11490.1875
2877.37543	11503.2875
2879.87952	11494.6875
2882.38207	11474.8875
2884.88308	11490.4875
2887.38256	11527.4875
2889.88051	11493.8875
2892.37692	11481.6875
2894.8718	11494.9875
2897.36515	11494.7875
2899.85698	11499.8875
2902.34727	11518.9875
2904.83604	11531.2875
2907.32328	11549.5875
2909.809	11551.6875
2912.29319	11559.8875
2914.77587	11576.2875
2917.25702	11520.3875
2919.73665	11503.6875
2922.21476	11533.4875
2924.69136	11541.3875
2927.16644	11527.6875
2929.64	11508.2875
2932.11205	11505.4875
2934.58258	11493.2875
2937.05161	11512.1875
2939.51912	11481.0875
2941.98513	11496.8875
2944.44962	11448.6875
2946.91261	11431.6875
2949.37409	11460.5875
2951.83407	11474.1875
2954.29254	11462.4875
2956.74951	11419.1875
2959.20498	11432.5875
2961.65895	11430.9875
2964.11142	11436.6875
2966.56239	11412.4875
2969.01186	11421.7875
2971.45984	11343.9875
2973.90632	11326.0875
2976.35131	11314.1875
2978.7948	11292.1875
2981.23681	11292.8875
2983.67732	11282.1875
2986.11635	11270.0875
2988.55388	11228.7875
2990.98993	11213.4875
2993.4245	11218.5875
2995.85758	11161.5875
2998.28917	11143.1875
3000.71928	11115.9875
3003.14791	11146.7875
3005.57506	11116.1875
3008.00073	11121.3875
3010.42493	11093.1875
3012.84764	11055.3875
3015.26888	11071.1875
3017.68865	11026.2875
3020.10694	11028.7875
3022.52376	11030.6875
3024.9391	11008.8875
3027.35298	11000.9875
3029.76539	10999.2875
3032.17632	10994.1875
3034.5858	10983.0875
3036.9938	10930.1875
3039.40034	10974.1875
3041.80542	10937.4875
3044.20903	10917.3875
3046.61118	10945.4875
3049.01187	10897.7875
3051.4111	10913.0875
3053.80888	10885.6875
3056.20519	10885.0875
3058.60005	10850.9875
3060.99345	10834.2875
3063.3854	10808.0875
3065.7759	10770.0875
3068.16494	10783.3875
3070.55254	10759.7875
3072.93868	10724.4875
3075.32338	10701.5875
3077.70662	10686.3875
3080.08842	10646.5875
3082.46878	10656.6875
3084.84769	10644.5875
3087.22515	10635.0875
3089.60118	10635.3875
3091.97576	10641.2875
3094.3489	10664.6875
3096.72061	10639.6875
3099.09087	10625.7875
3101.4597	10632.2875
3103.82709	10631.2875
3106.19305	10620.5875
3108.55757	10612.3875
3110.92066	10575.9875
3113.28232	10562.0875
3115.64255	10544.2875
3118.00134	10535.3875
3120.35871	10528.4875
3122.71466	10510.4875
3125.06917	10493.2875
3127.42226	10462.4875
3129.77393	10512.9875
3132.12417	10490.0875
3134.47299	10505.0875
3136.82039	10474.8875
3139.16636	10496.9875
3141.51092	10503.2875
3143.85406	10525.3875
3146.19579	10520.7875
3148.53609	10525.5875
3150.87499	10547.0875
3153.21246	10521.3875
3155.54853	10530.4875
3157.88318	10513.4875
3160.21642	10517.9875
3162.54826	10508.7875
3164.87868	10503.3875
3167.2077	10503.5875
3169.5353	10508.8875
3171.86151	10508.5875
3174.18631	10504.8875
3176.5097	10507.2875
3178.83169	10460.1875
3181.15228	10517.7875
3183.47147	10483.4875
3185.78926	10488.1875
3188.10565	10474.8875
3190.42065	10439.9875
3192.73424	10472.1875
3195.04645	10430.2875
3197.35725	10466.4875
3199.66667	10460.7875
3201.97469	10456.4875
3204.28132	10460.6875
3206.58656	10475.3875
3208.8904	10481.1875
3211.19287	10499.5875
3213.49394	10464.3875
3215.79363	10459.9875
3218.09193	10476.3875
3220.38884	10471.9875
3222.68438	10494.6875
3224.97853	10492.9875
3227.2713	10452.4875
3229.56269	10441.0875
3231.8527	10449.2875
3234.14133	10426.8875
3236.42858	10397.3875
3238.71446	10394.1875
3240.99896	10369.5875
3243.28209	10350.1875
3245.56384	10373.6875
3247.84423	10367.0875
3250.12324	10366.0875
3252.40088	10396.9875
3254.67715	10358.6875
3256.95205	10347.2875
3259.22558	10338.3875
3261.49775	10347.1875
3263.76855	10329.4875
3266.03799	10293.4875
3268.30606	10287.3875
3270.57277	10284.0875
3272.83812	10231.0875
3275.10211	10254.8875
3277.36474	10234.9875
3279.62601	10230.8875
3281.88593	10210.1875
3284.14448	10242.2875
3286.40168	10213.0875
3288.65753	10219.0875
3290.91202	10183.3875
3293.16516	10152.6875
3295.41695	10142.1875
3297.66738	10106.5875
3299.91647	10034.4875
3302.16421	9945.6875
3304.4106	9955.6875
3306.65564	9901.3875
3308.89933	9842.6875
3311.14169	9799.7875
3313.38269	9717.3875
3315.62236	9668.2875
3317.86068	9582.5875
3320.09766	9497.4875
3322.3333	9424.3875
3324.5676	9411.6875
3326.80056	9270.3875
3329.03219	9231.8875
3331.26248	3.9875
3333.49143	-1.2125
3335.71905	0.1875
