Data from AgNP_FTO_APTES_CRN_500uM_R6G_10uM_NaF_0.1M_Addition_RamanShift__3__20-07-08-216.txt Node

Date: Wed Dec 15 20:07:08 GMT 2021
User: TCL
Spectrometer: QEP01345
Trigger mode: 4
Integration Time (sec): 7.000000E0
Scans to average: 10
Electric dark correction enabled: true
Nonlinearity correction enabled: false
Boxcar width: 0
XAxis mode: Raman Shifts
Number of Pixels in Spectrum: 1044
>>>>>Begin Spectral Data<<<<<
46.04893	1.5875
50.45542	-1.6125
54.85868	-1.7125
59.25871	-1.3125
63.6555	65.5875
68.04907	70.5875
72.43941	76.5875
76.82654	79.1875
81.21044	80.0875
85.59113	82.9875
89.96862	86.2875
94.34289	85.6875
98.71396	95.9875
103.08183	97.8875
107.4465	100.8875
111.80798	100.1875
116.16626	103.1875
120.52136	107.1875
124.87327	109.5875
129.222	111.6875
133.56755	119.7875
137.90993	133.7875
142.24913	141.6875
146.58517	154.7875
150.91804	176.2875
155.24774	210.8875
159.57429	265.4875
163.89768	335.7875
168.21792	433.4875
172.53501	594.9875
176.84895	821.2875
181.15975	1149.7875
185.46741	1623.3875
189.77193	2236.5875
194.07331	3000.8875
198.37157	3868.1875
202.6667	4778.0875
206.9587	5665.8875
211.24758	6579.3875
215.53334	7439.1875
219.81599	8381.1875
224.09553	9364.1875
228.37195	10455.4875
232.64527	11702.0875
236.91549	13002.7875
241.18261	14333.6875
245.44663	15591.0875
249.70755	16773.3875
253.96539	17781.6875
258.22014	18645.9875
262.4718	19334.2875
266.72039	19841.5875
270.96589	20052.7875
275.20832	20100.6875
279.44768	19972.3875
283.68397	19745.2875
287.91719	19610.3875
292.14735	19432.5875
296.37445	19392.2875
300.59849	19346.2875
304.81948	19382.7875
309.03742	19375.8875
313.25231	19274.9875
317.46415	19039.3875
321.67296	18704.0875
325.87872	18423.0875
330.08145	18337.3875
334.28114	18362.0875
338.47781	18464.9875
342.67145	18631.8875
346.86207	18939.7875
351.04966	19246.0875
355.23424	19558.9875
359.4158	19766.2875
363.59435	20001.2875
367.76989	20165.4875
371.94243	20245.0875
376.11196	20336.1875
380.27849	20443.2875
384.44203	20570.5875
388.60257	20749.7875
392.76012	20957.6875
396.91468	21118.7875
401.06626	21349.6875
405.21485	21561.3875
409.36047	21541.5875
413.50311	21391.3875
417.64277	21266.9875
421.77947	21270.2875
425.9132	21311.3875
430.04396	21461.9875
434.17176	21616.3875
438.2966	21754.1875
442.41849	22074.0875
446.53742	22515.0875
450.6534	22940.1875
454.76644	23272.2875
458.87653	23381.5875
462.98368	23331.1875
467.08789	23163.2875
471.18916	23040.1875
475.2875	22856.2875
479.38291	22738.3875
483.4754	22638.5875
487.56496	22421.0875
491.6516	22147.2875
495.73531	21948.9875
499.81612	21866.1875
503.89401	21961.9875
507.96899	22035.0875
512.04106	22097.7875
516.11023	22062.4875
520.1765	22003.7875
524.23987	21968.7875
528.30034	21865.4875
532.35792	21747.4875
536.41261	21582.8875
540.46441	21461.7875
544.51333	21394.9875
548.55936	21571.1875
552.60252	21932.2875
556.64279	22280.8875
560.6802	22543.9875
564.71473	22616.3875
568.7464	22815.3875
572.7752	23175.0875
576.80114	23516.8875
580.82422	23913.3875
584.84444	24358.2875
588.86181	25020.0875
592.87633	25520.2875
596.888	25513.4875
600.89682	25049.6875
604.9028	24998.7875
608.90594	26012.9875
612.90624	27219.5875
616.90371	26031.8875
620.89834	23273.6875
624.89015	21937.8875
628.87913	21772.8875
632.86528	21847.6875
636.84862	21953.1875
640.82913	21761.3875
644.80683	21426.8875
648.78172	21251.6875
652.75379	21249.3875
656.72306	21387.9875
660.68952	21543.9875
664.65319	21523.7875
668.61405	21253.8875
672.57211	21272.5875
676.52738	21328.4875
680.47986	21395.6875
684.42955	21296.4875
688.37646	21234.2875
692.32058	21289.4875
696.26192	21442.4875
700.20048	21656.1875
704.13626	21736.2875
708.06928	21753.7875
711.99952	21772.9875
715.927	21757.1875
719.85171	21783.6875
723.77365	21707.9875
727.69284	21528.1875
731.60928	21282.9875
735.52295	21249.2875
739.43388	21263.7875
743.34206	21310.1875
747.24749	21394.3875
751.15017	21465.1875
755.05012	21709.7875
758.94733	22049.1875
762.8418	22783.9875
766.73354	23888.7875
770.62254	24916.7875
774.50882	25175.7875
778.39237	24430.2875
782.27321	23250.7875
786.15132	22198.2875
790.02671	21595.8875
793.89938	21307.0875
797.76935	21178.1875
801.6366	21145.7875
805.50115	21090.9875
809.36299	21037.3875
813.22213	20966.6875
817.07857	20921.6875
820.93231	20898.8875
824.78336	20894.1875
828.63172	20819.7875
832.47738	20824.7875
836.32036	20848.9875
840.16066	20865.2875
843.99827	20867.6875
847.8332	20817.0875
851.66546	20830.1875
855.49504	20832.9875
859.32195	20824.3875
863.1462	20806.0875
866.96777	20736.8875
870.78668	20762.0875
874.60293	20736.5875
878.41652	20777.4875
882.22745	20800.4875
886.03573	20871.2875
889.84136	20874.5875
893.64433	20841.0875
897.44466	20777.5875
901.24235	20733.5875
905.0374	20655.6875
908.8298	20652.2875
912.61957	20647.3875
916.40671	20765.2875
920.19121	20940.9875
923.97308	21028.7875
927.75233	21040.1875
931.52895	20960.8875
935.30295	20758.6875
939.07433	20499.2875
942.84309	20374.6875
946.60924	20243.1875
950.37278	20212.3875
954.13371	20187.9875
957.89203	20126.5875
961.64774	20156.4875
965.40086	20078.2875
969.15137	20048.7875
972.89929	19951.0875
976.64461	19953.5875
980.38733	19943.5875
984.12747	19946.8875
987.86502	20052.8875
991.59999	20150.0875
995.33237	20327.9875
999.06217	20583.6875
1002.78939	20857.9875
1006.51404	21074.1875
1010.23611	21304.2875
1013.95561	21482.1875
1017.67255	21501.3875
1021.38692	21391.6875
1025.09872	21182.5875
1028.80796	21069.8875
1032.51465	21142.1875
1036.21877	21282.0875
1039.92035	21426.0875
1043.61937	21395.2875
1047.31584	21347.6875
1051.00976	21300.1875
1054.70114	21290.4875
1058.38998	21392.4875
1062.07627	21647.3875
1065.76003	21994.7875
1069.44126	22395.7875
1073.11995	22796.8875
1076.79611	23049.6875
1080.46974	22955.5875
1084.14085	22705.0875
1087.80943	22499.7875
1091.47549	22418.1875
1095.13903	22322.5875
1098.80005	22086.2875
1102.45857	21751.9875
1106.11456	21518.4875
1109.76805	21373.0875
1113.41903	21404.8875
1117.06751	21530.3875
1120.71348	21652.2875
1124.35696	21829.4875
1127.99793	22052.5875
1131.63641	22237.9875
1135.2724	22112.8875
1138.90589	21959.5875
1142.5369	21894.2875
1146.16542	21902.0875
1149.79145	21997.9875
1153.415	22134.2875
1157.03607	22303.3875
1160.65467	22667.8875
1164.27079	23300.8875
1167.88443	24172.7875
1171.49561	25205.2875
1175.10432	26459.5875
1178.71056	28107.6875
1182.31434	29491.2875
1185.91565	30114.2875
1189.51451	29872.8875
1193.11091	29182.7875
1196.70485	28306.1875
1200.29634	27431.9875
1203.88538	26842.8875
1207.47197	26433.0875
1211.05612	26092.9875
1214.63782	25696.3875
1218.21708	25290.6875
1221.79391	24922.4875
1225.36829	24691.3875
1228.94024	24526.3875
1232.50976	24326.6875
1236.07685	24106.4875
1239.6415	23927.6875
1243.20374	23940.7875
1246.76355	24058.8875
1250.32093	24251.6875
1253.8759	24594.1875
1257.42845	25011.8875
1260.97859	25463.0875
1264.52631	25899.1875
1268.07163	26381.6875
1271.61453	26873.9875
1275.15503	27401.1875
1278.69312	27928.6875
1282.22882	28424.1875
1285.76211	29099.4875
1289.29301	29937.6875
1292.82151	30959.8875
1296.34761	32217.3875
1299.87133	33641.9875
1303.39266	35184.3875
1306.9116	36618.6875
1310.42815	37876.8875
1313.94233	38477.2875
1317.45412	38335.5875
1320.96354	37711.0875
1324.47058	37013.7875
1327.97525	36402.2875
1331.47754	35913.0875
1334.97747	35584.4875
1338.47502	35338.8875
1341.97022	35117.8875
1345.46305	34900.2875
1348.95352	34826.9875
1352.44163	35175.5875
1355.92738	36019.0875
1359.41078	37318.2875
1362.89183	38359.1875
1366.37053	37815.2875
1369.84688	35347.3875
1373.32088	32297.8875
1376.79254	30165.2875
1380.26186	29331.2875
1383.72883	29183.0875
1387.19347	29157.0875
1390.65578	28865.4875
1394.11575	28744.8875
1397.57339	28889.1875
1401.0287	29150.2875
1404.48168	29318.3875
1407.93234	29200.3875
1411.38068	28759.9875
1414.82669	28033.8875
1418.27039	27219.0875
1421.71177	26354.0875
1425.15083	25675.3875
1428.58758	25311.7875
1432.02203	25417.1875
1435.45416	25837.4875
1438.88399	26352.4875
1442.31151	26745.2875
1445.73673	26969.9875
1449.15965	27174.7875
1452.58027	27286.1875
1455.9986	27297.2875
1459.41463	27344.0875
1462.82837	27639.9875
1466.23982	28099.7875
1469.64898	28455.8875
1473.05586	28702.6875
1476.46045	28791.4875
1479.86276	28748.1875
1483.26279	28606.7875
1486.66054	28537.4875
1490.05602	28714.5875
1493.44922	29030.7875
1496.84016	29341.0875
1500.22882	29925.6875
1503.61521	30688.1875
1506.99934	31527.6875
1510.38121	32215.5875
1513.76081	32274.3875
1517.13816	31609.2875
1520.51324	30588.2875
1523.88607	29810.3875
1527.25665	29440.8875
1530.62498	29331.8875
1533.99105	29279.1875
1537.35488	29092.7875
1540.71647	28667.3875
1544.07581	28195.5875
1547.4329	27653.2875
1550.78776	27146.0875
1554.14038	26819.4875
1557.49077	26618.7875
1560.83892	26522.3875
1564.18484	26623.2875
1567.52853	26934.7875
1570.86999	27367.4875
1574.20922	28078.7875
1577.54624	28750.5875
1580.88103	29090.4875
1584.2136	29134.8875
1587.54395	29172.5875
1590.87208	29554.4875
1594.19801	30352.9875
1597.52172	31409.9875
1600.84321	31741.2875
1604.16251	30816.2875
1607.47959	29146.9875
1610.79447	27257.3875
1614.10715	25552.7875
1617.41763	24132.2875
1620.7259	23169.0875
1624.03199	22727.3875
1627.33587	22706.3875
1630.63757	23087.2875
1633.93707	24015.6875
1637.23439	25629.5875
1640.52951	28021.5875
1643.82246	30805.8875
1647.11321	33119.6875
1650.40179	33557.1875
1653.68819	31749.9875
1656.97241	28590.1875
1660.25446	25466.1875
1663.53433	23152.1875
1666.81203	21636.7875
1670.08756	20674.2875
1673.36092	20064.6875
1676.63211	19682.3875
1679.90115	19382.3875
1683.16801	19119.7875
1686.43272	18990.9875
1689.69527	18884.8875
1692.95567	18795.0875
1696.2139	18756.9875
1699.46999	18692.7875
1702.72392	18701.5875
1705.97571	18635.2875
1709.22535	18613.3875
1712.47284	18564.3875
1715.71819	18554.5875
1718.96139	18533.3875
1722.20246	18473.9875
1725.44139	18400.9875
1728.67818	18340.1875
1731.91284	18243.8875
1735.14537	18176.1875
1738.37576	18151.4875
1741.60403	18089.8875
1744.83017	18029.5875
1748.05418	18011.9875
1751.27607	17966.3875
1754.49584	17938.2875
1757.71349	17975.8875
1760.92903	17968.8875
1764.14244	17957.7875
1767.35375	17960.6875
1770.56294	17931.5875
1773.77002	17916.6875
1776.97499	17866.5875
1780.17785	17815.7875
1783.37861	17800.8875
1786.57727	17749.8875
1789.77382	17733.1875
1792.96828	17701.0875
1796.16064	17666.4875
1799.3509	17654.5875
1802.53907	17616.2875
1805.72514	17559.5875
1808.90913	17481.5875
1812.09102	17487.6875
1815.27083	17434.1875
1818.44856	17453.3875
1821.6242	17419.3875
1824.79776	17407.5875
1827.96924	17398.4875
1831.13864	17364.5875
1834.30597	17381.1875
1837.47122	17360.6875
1840.6344	17333.8875
1843.7955	17354.6875
1846.95454	17323.7875
1850.11151	17325.9875
1853.26642	17325.2875
1856.41926	17301.9875
1859.57004	17279.5875
1862.71876	17253.7875
1865.86542	17240.1875
1869.01003	17239.1875
1872.15258	17236.8875
1875.29308	17243.3875
1878.43152	17182.8875
1881.56792	17187.4875
1884.70227	17195.0875
1887.83457	17183.7875
1890.96482	17123.9875
1894.09304	17105.9875
1897.21921	17115.1875
1900.34335	17095.2875
1903.46544	17069.9875
1906.58551	17039.6875
1909.70353	17042.8875
1912.81953	17006.4875
1915.93349	16965.9875
1919.04543	16931.1875
1922.15534	16917.3875
1925.26322	16867.9875
1928.36908	16890.0875
1931.47292	16850.6875
1934.57473	16802.9875
1937.67453	16732.3875
1940.77232	16721.4875
1943.86808	16681.3875
1946.96184	16645.4875
1950.05358	16595.8875
1953.14331	16559.4875
1956.23103	16537.9875
1959.31675	16459.2875
1962.40046	16445.1875
1965.48217	16419.9875
1968.56188	16358.7875
1971.63959	16294.4875
1974.7153	16248.9875
1977.78901	16214.2875
1980.86073	16139.0875
1983.93046	16151.6875
1986.99819	16058.8875
1990.06394	16028.5875
1993.1277	16018.5875
1996.18947	15900.9875
1999.24925	15871.9875
2002.30706	15858.1875
2005.36288	15804.6875
2008.41672	15747.5875
2011.46859	15726.3875
2014.51848	15705.2875
2017.56639	15653.3875
2020.61233	15618.4875
2023.6563	15620.4875
2026.6983	15551.0875
2029.73833	15521.8875
2032.7764	15493.1875
2035.8125	15447.1875
2038.84664	15419.6875
2041.87881	15431.4875
2044.90903	15374.0875
2047.93729	15355.8875
2050.96359	15360.6875
2053.98794	15303.5875
2057.01034	15344.8875
2060.03078	15297.0875
2063.04927	15292.9875
2066.06582	15294.1875
2069.08042	15251.3875
2072.09307	15244.5875
2075.10378	15253.0875
2078.11255	15223.5875
2081.11938	15227.0875
2084.12426	15240.9875
2087.12722	15223.8875
2090.12824	15230.4875
2093.12732	15217.7875
2096.12447	15250.4875
2099.11969	15229.7875
2102.11299	15249.8875
2105.10435	15231.8875
2108.09379	15254.4875
2111.08131	15269.4875
2114.0669	15274.6875
2117.05057	15268.9875
2120.03233	15296.9875
2123.01216	15328.2875
2125.99008	15328.9875
2128.96609	15323.5875
2131.94018	15344.1875
2134.91236	15358.4875
2137.88263	15348.4875
2140.851	15380.0875
2143.81746	15361.5875
2146.78201	15381.3875
2149.74466	15389.2875
2152.7054	15392.5875
2155.66425	15401.2875
2158.6212	15423.5875
2161.57625	15389.3875
2164.52941	15398.1875
2167.48067	15365.7875
2170.43004	15365.4875
2173.37752	15337.0875
2176.32311	15400.6875
2179.26681	15362.0875
2182.20863	15392.7875
2185.14856	15370.1875
2188.08661	15383.6875
2191.02278	15358.0875
2193.95707	15354.7875
2196.88948	15303.6875
2199.82001	15321.0875
2202.74867	15292.4875
2205.67545	15303.5875
2208.60037	15285.4875
2211.52341	15295.5875
2214.44458	15254.2875
2217.36388	15207.3875
2220.28132	15200.5875
2223.1969	15153.3875
2226.11061	15117.4875
2229.02246	15114.5875
2231.93245	15071.3875
2234.84058	15049.4875
2237.74686	15067.5875
2240.65128	15011.7875
2243.55385	14989.9875
2246.45456	14975.6875
2249.35343	14969.6875
2252.25044	14944.2875
2255.14561	14913.6875
2258.03893	14882.3875
2260.93041	14877.1875
2263.82004	14833.1875
2266.70783	14812.3875
2269.59378	14763.6875
2272.4779	14766.1875
2275.36017	14730.6875
2278.24061	14706.5875
2281.11922	14630.6875
2283.996	14584.4875
2286.87094	14631.1875
2289.74405	14573.2875
2292.61534	14583.9875
2295.4848	14557.2875
2298.35243	14591.2875
2301.21824	14534.6875
2304.08223	14514.6875
2306.94439	14522.3875
2309.80474	14503.0875
2312.66327	14517.0875
2315.51999	14519.9875
2318.37489	14496.3875
2321.22797	14468.7875
2324.07925	14471.0875
2326.92871	14428.7875
2329.77637	14456.0875
2332.62222	14423.1875
2335.46626	14394.4875
2338.3085	14386.8875
2341.14893	14369.0875
2343.98756	14363.3875
2346.8244	14340.9875
2349.65943	14323.4875
2352.49267	14320.7875
2355.32411	14307.0875
2358.15376	14301.3875
2360.98161	14317.9875
2363.80768	14298.2875
2366.63195	14268.5875
2369.45444	14262.7875
2372.27514	14246.6875
2375.09405	14238.7875
2377.91118	14195.5875
2380.72652	14202.8875
2383.54009	14166.1875
2386.35187	14144.1875
2389.16188	14083.3875
2391.97011	14041.9875
2394.77657	14054.0875
2397.58125	14029.3875
2400.38416	14000.3875
2403.18529	14003.3875
2405.98466	13988.1875
2408.78226	13957.2875
2411.57809	13960.0875
2414.37216	13911.2875
2417.16446	13889.0875
2419.955	13858.4875
2422.74378	13858.6875
2425.5308	13839.4875
2428.31606	13811.6875
2431.09956	13823.7875
2433.88131	13822.4875
2436.6613	13801.3875
2439.43954	13802.4875
2442.21603	13796.5875
2444.99077	13791.6875
2447.76377	13798.4875
2450.53501	13788.4875
2453.30451	13767.8875
2456.07226	13715.5875
2458.83827	13741.2875
2461.60254	13728.0875
2464.36507	13702.7875
2467.12586	13695.7875
2469.88492	13671.6875
2472.64224	13656.4875
2475.39782	13662.0875
2478.15167	13669.6875
2480.90379	13662.0875
2483.65417	13681.8875
2486.40283	13631.9875
2489.14976	13685.1875
2491.89497	13646.4875
2494.63845	13648.2875
2497.3802	13619.3875
2500.12024	13629.7875
2502.85855	13626.5875
2505.59514	13586.8875
2508.33002	13607.8875
2511.06318	13583.7875
2513.79462	13572.4875
2516.52435	13548.6875
2519.25237	13527.5875
2521.97867	13525.0875
2524.70327	13524.9875
2527.42616	13507.3875
2530.14734	13489.9875
2532.86681	13466.2875
2535.58458	13451.7875
2538.30065	13441.9875
2541.01501	13433.5875
2543.72768	13432.0875
2546.43864	13387.5875
2549.14791	13367.1875
2551.85548	13345.6875
2554.56136	13343.4875
2557.26554	13282.9875
2559.96803	13299.4875
2562.66883	13284.9875
2565.36794	13264.3875
2568.06536	13270.0875
2570.7611	13274.1875
2573.45514	13226.6875
2576.14751	13217.7875
2578.83819	13227.5875
2581.52719	13161.6875
2584.21451	13145.3875
2586.90015	13146.2875
2589.58411	13120.3875
2592.2664	13081.8875
2594.94701	13081.3875
2597.62594	13066.3875
2600.30321	13034.4875
2602.9788	13018.7875
2605.65273	13019.6875
2608.32498	13002.4875
2610.99557	12955.2875
2613.66449	12977.6875
2616.33175	12916.1875
2618.99734	12928.8875
2621.66128	12921.9875
2624.32355	12939.5875
2626.98416	12921.3875
2629.64311	12931.8875
2632.30041	12896.0875
2634.95605	12879.6875
2637.61004	12867.9875
2640.26238	12874.9875
2642.91306	12836.5875
2645.56209	12833.2875
2648.20948	12823.4875
2650.85521	12808.2875
2653.4993	12803.8875
2656.14175	12822.3875
2658.78255	12806.8875
2661.42171	12820.2875
2664.05923	12805.5875
2666.6951	12819.8875
2669.32934	12820.5875
2671.96194	12808.7875
2674.59291	12831.1875
2677.22224	12833.7875
2679.84993	12812.5875
2682.476	12833.7875
2685.10043	12804.2875
2687.72324	12775.1875
2690.34441	12807.1875
2692.96396	12812.1875
2695.58188	12822.4875
2698.19818	12767.8875
2700.81285	12790.1875
2703.4259	12817.4875
2706.03733	12838.8875
2708.64714	12836.5875
2711.25533	12856.1875
2713.86191	12833.9875
2716.46687	12851.8875
2719.07021	12818.0875
2721.67194	12831.0875
2724.27206	12772.6875
2726.87057	12817.9875
2729.46747	12798.6875
2732.06276	12814.6875
2734.65644	12788.3875
2737.24852	12788.7875
2739.83899	12786.6875
2742.42786	12763.3875
2745.01513	12767.6875
2747.60079	12727.2875
2750.18486	12752.9875
2752.76733	12731.7875
2755.3482	12721.1875
2757.92747	12717.0875
2760.50515	12715.9875
2763.08123	12711.8875
2765.65573	12678.3875
2768.22863	12711.7875
2770.79994	12691.4875
2773.36967	12648.8875
2775.9378	12659.6875
2778.50435	12612.3875
2781.06932	12586.7875
2783.6327	12619.2875
2786.1945	12589.1875
2788.75471	12567.0875
2791.31335	12525.3875
2793.87041	12507.5875
2796.42589	12473.6875
2798.97979	12485.5875
2801.53212	12435.7875
2804.08288	12457.2875
2806.63206	12413.3875
2809.17967	12351.0875
2811.72571	12361.9875
2814.27018	12333.1875
2816.81308	12301.9875
2819.35442	12337.7875
2821.89419	12286.8875
2824.43239	12291.6875
2826.96904	12285.2875
2829.50412	12271.7875
2832.03763	12233.8875
2834.56959	12252.8875
2837.1	12233.9875
2839.62884	12239.5875
2842.15613	12235.9875
2844.68186	12244.1875
2847.20604	12238.5875
2849.72867	12220.4875
2852.24974	12233.3875
2854.76927	12216.7875
2857.28724	12210.0875
2859.80367	12206.6875
2862.31855	12162.0875
2864.83189	12138.5875
2867.34368	12127.9875
2869.85393	12125.9875
2872.36264	12107.7875
2874.8698	12113.2875
2877.37543	12115.6875
2879.87952	12128.2875
2882.38207	12136.0875
2884.88308	12144.7875
2887.38256	12158.4875
2889.88051	12109.1875
2892.37692	12111.6875
2894.8718	12104.3875
2897.36515	12129.7875
2899.85698	12138.4875
2902.34727	12153.7875
2904.83604	12170.8875
2907.32328	12172.6875
2909.809	12151.9875
2912.29319	12145.2875
2914.77587	12144.1875
2917.25702	12134.6875
2919.73665	12132.2875
2922.21476	12145.7875
2924.69136	12154.0875
2927.16644	12118.9875
2929.64	12138.9875
2932.11205	12111.0875
2934.58258	12113.8875
2937.05161	12106.1875
2939.51912	12121.8875
2941.98513	12119.0875
2944.44962	12087.3875
2946.91261	12021.0875
2949.37409	12039.6875
2951.83407	12044.5875
2954.29254	12028.1875
2956.74951	11985.9875
2959.20498	11985.1875
2961.65895	11959.2875
2964.11142	11976.0875
2966.56239	11933.7875
2969.01186	11925.9875
2971.45984	11906.4875
2973.90632	11907.1875
2976.35131	11878.2875
2978.7948	11871.1875
2981.23681	11824.2875
2983.67732	11822.0875
2986.11635	11790.6875
2988.55388	11751.0875
2990.98993	11745.9875
2993.4245	11727.7875
2995.85758	11713.9875
2998.28917	11676.1875
3000.71928	11665.1875
3003.14791	11642.3875
3005.57506	11620.3875
3008.00073	11600.8875
3010.42493	11588.8875
3012.84764	11579.6875
3015.26888	11576.1875
3017.68865	11541.9875
3020.10694	11561.2875
3022.52376	11507.5875
3024.9391	11488.2875
3027.35298	11484.5875
3029.76539	11508.1875
3032.17632	11484.9875
3034.5858	11451.6875
3036.9938	11457.3875
3039.40034	11436.2875
3041.80542	11428.1875
3044.20903	11421.9875
3046.61118	11398.4875
3049.01187	11338.3875
3051.4111	11374.1875
3053.80888	11352.6875
3056.20519	11326.0875
3058.60005	11292.9875
3060.99345	11262.5875
3063.3854	11290.3875
3065.7759	11238.6875
3068.16494	11213.3875
3070.55254	11219.3875
3072.93868	11175.5875
3075.32338	11144.1875
3077.70662	11153.1875
3080.08842	11123.4875
3082.46878	11103.0875
3084.84769	11099.9875
3087.22515	11112.4875
3089.60118	11118.6875
3091.97576	11108.7875
3094.3489	11118.0875
3096.72061	11132.1875
3099.09087	11102.0875
3101.4597	11093.2875
3103.82709	11087.1875
3106.19305	11082.3875
3108.55757	11079.9875
3110.92066	11040.5875
3113.28232	11039.7875
3115.64255	11015.1875
3118.00134	10985.0875
3120.35871	10991.3875
3122.71466	10972.1875
3125.06917	10943.9875
3127.42226	10905.5875
3129.77393	10943.7875
3132.12417	10928.2875
3134.47299	10946.6875
3136.82039	10928.1875
3139.16636	10959.7875
3141.51092	10943.2875
3143.85406	10964.7875
3146.19579	10968.7875
3148.53609	10959.9875
3150.87499	10980.3875
3153.21246	10969.0875
3155.54853	11002.1875
3157.88318	10968.0875
3160.21642	10954.7875
3162.54826	10964.4875
3164.87868	10957.1875
3167.2077	10948.6875
3169.5353	10952.9875
3171.86151	10950.8875
3174.18631	10953.4875
3176.5097	10933.1875
3178.83169	10907.0875
3181.15228	10909.2875
3183.47147	10911.7875
3185.78926	10928.5875
3188.10565	10896.1875
3190.42065	10895.8875
3192.73424	10904.3875
3195.04645	10884.3875
3197.35725	10881.3875
3199.66667	10881.0875
3201.97469	10914.0875
3204.28132	10917.8875
3206.58656	10898.1875
3208.8904	10895.9875
3211.19287	10896.4875
3213.49394	10896.9875
3215.79363	10867.5875
3218.09193	10875.6875
3220.38884	10939.2875
3222.68438	10923.7875
3224.97853	10900.7875
3227.2713	10870.6875
3229.56269	10864.5875
3231.8527	10868.3875
3234.14133	10828.2875
3236.42858	10823.5875
3238.71446	10802.3875
3240.99896	10798.9875
3243.28209	10801.6875
3245.56384	10813.2875
3247.84423	10798.3875
3250.12324	10806.0875
3252.40088	10791.0875
3254.67715	10774.1875
3256.95205	10738.0875
3259.22558	10767.0875
3261.49775	10732.1875
3263.76855	10722.3875
3266.03799	10681.6875
3268.30606	10697.7875
3270.57277	10663.1875
3272.83812	10656.3875
3275.10211	10637.0875
3277.36474	10609.6875
3279.62601	10632.7875
3281.88593	10623.7875
3284.14448	10639.1875
3286.40168	10629.7875
3288.65753	10619.1875
3290.91202	10611.3875
3293.16516	10542.5875
3295.41695	10531.2875
3297.66738	10473.7875
3299.91647	10443.4875
3302.16421	10358.4875
3304.4106	10331.6875
3306.65564	10271.9875
3308.89933	10198.5875
3311.14169	10182.5875
3313.38269	10101.2875
3315.62236	10038.7875
3317.86068	9913.4875
3320.09766	9859.7875
3322.3333	9748.2875
3324.5676	9754.1875
3326.80056	9626.6875
3329.03219	9576.3875
3331.26248	3.9875
3333.49143	-0.7125
3335.71905	0.0875
