Data from AgNP_FTO_APTES_CRN_500uM_R6G_10uM_NaF_0.1M_Addition_RamanShift__16__20-22-18-231.txt Node

Date: Wed Dec 15 20:22:18 GMT 2021
User: TCL
Spectrometer: QEP01345
Trigger mode: 4
Integration Time (sec): 7.000000E0
Scans to average: 10
Electric dark correction enabled: true
Nonlinearity correction enabled: false
Boxcar width: 0
XAxis mode: Raman Shifts
Number of Pixels in Spectrum: 1044
>>>>>Begin Spectral Data<<<<<
46.04893	1.2375
50.45542	-1.8625
54.85868	-1.0625
59.25871	-0.5625
63.6555	52.5375
68.04907	56.8375
72.43941	61.0375
76.82654	63.6375
81.21044	64.8375
85.59113	67.1375
89.96862	70.9375
94.34289	67.9375
98.71396	74.7375
103.08183	80.0375
107.4465	83.8375
111.80798	79.3375
116.16626	84.1375
120.52136	86.3375
124.87327	82.3375
129.222	90.8375
133.56755	89.1375
137.90993	98.9375
142.24913	105.4375
146.58517	115.0375
150.91804	131.0375
155.24774	154.1375
159.57429	188.7375
163.89768	238.1375
168.21792	301.7375
172.53501	412.7375
176.84895	568.1375
181.15975	798.1375
185.46741	1118.6375
189.77193	1549.2375
194.07331	2077.6375
198.37157	2689.8375
202.6667	3337.2375
206.9587	3965.9375
211.24758	4603.9375
215.53334	5226.9375
219.81599	5870.2375
224.09553	6564.1375
228.37195	7311.7375
232.64527	8197.4375
236.91549	9093.3375
241.18261	10047.3375
245.44663	10957.2375
249.70755	11793.7375
253.96539	12531.5375
258.22014	13089.5375
262.4718	13551.7375
266.72039	13847.2375
270.96589	13980.7375
275.20832	14014.4375
279.44768	13970.9375
283.68397	13857.6375
287.91719	13678.6375
292.14735	13616.1375
296.37445	13532.4375
300.59849	13444.6375
304.81948	13430.3375
309.03742	13287.4375
313.25231	13191.0375
317.46415	13033.8375
321.67296	12843.7375
325.87872	12675.7375
330.08145	12650.3375
334.28114	12685.5375
338.47781	12801.3375
342.67145	12924.9375
346.86207	13068.0375
351.04966	13229.8375
355.23424	13374.0375
359.4158	13497.0375
363.59435	13619.6375
367.76989	13738.5375
371.94243	13818.2375
376.11196	13900.3375
380.27849	14003.9375
384.44203	14112.1375
388.60257	14195.0375
392.76012	14318.7375
396.91468	14462.7375
401.06626	14616.1375
405.21485	14775.4375
409.36047	14819.6375
413.50311	14804.7375
417.64277	14727.8375
421.77947	14767.2375
425.9132	14746.1375
430.04396	14848.0375
434.17176	14938.4375
438.2966	15055.9375
442.41849	15219.1375
446.53742	15383.4375
450.6534	15531.6375
454.76644	15684.9375
458.87653	15822.9375
462.98368	15882.9375
467.08789	15901.5375
471.18916	15894.8375
475.2875	15880.4375
479.38291	15838.3375
483.4754	15842.5375
487.56496	15740.8375
491.6516	15740.6375
495.73531	15687.1375
499.81612	15643.9375
503.89401	15731.5375
507.96899	15770.3375
512.04106	15792.6375
516.11023	15782.1375
520.1765	15835.2375
524.23987	15798.3375
528.30034	15738.6375
532.35792	15705.9375
536.41261	15664.5375
540.46441	15614.1375
544.51333	15655.0375
548.55936	15784.8375
552.60252	15975.9375
556.64279	16113.5375
560.6802	16215.8375
564.71473	16271.9375
568.7464	16361.8375
572.7752	16514.7375
576.80114	16679.0375
580.82422	16853.5375
584.84444	16972.5375
588.86181	16972.6375
592.87633	16904.9375
596.888	16886.8375
600.89682	16932.8375
604.9028	17148.9375
608.90594	17724.8375
612.90624	18287.8375
616.90371	17809.4375
620.89834	16609.2375
624.89015	16073.6375
628.87913	15982.5375
632.86528	16068.2375
636.84862	16165.2375
640.82913	16160.8375
644.80683	16040.0375
648.78172	15939.4375
652.75379	15905.9375
656.72306	15970.6375
660.68952	16083.8375
664.65319	16096.6375
668.61405	16066.2375
672.57211	16067.8375
676.52738	16138.7375
680.47986	16187.3375
684.42955	16211.2375
688.37646	16199.5375
692.32058	16227.1375
696.26192	16271.7375
700.20048	16344.0375
704.13626	16390.3375
708.06928	16427.7375
711.99952	16415.9375
715.927	16373.3375
719.85171	16346.1375
723.77365	16294.5375
727.69284	16218.3375
731.60928	16106.5375
735.52295	16065.8375
739.43388	16033.8375
743.34206	16083.4375
747.24749	16097.4375
751.15017	16132.4375
755.05012	16200.3375
758.94733	16400.4375
762.8418	16781.8375
766.73354	17334.7375
770.62254	17835.5375
774.50882	17940.6375
778.39237	17597.7375
782.27321	17085.4375
786.15132	16583.0375
790.02671	16263.0375
793.89938	16075.3375
797.76935	16017.8375
801.6366	15979.0375
805.50115	15958.3375
809.36299	15906.6375
813.22213	15854.4375
817.07857	15877.6375
820.93231	15894.5375
824.78336	15931.0375
828.63172	15909.4375
832.47738	15924.2375
836.32036	15933.0375
840.16066	15902.6375
843.99827	15885.4375
847.8332	15892.9375
851.66546	15899.5375
855.49504	15919.7375
859.32195	15923.4375
863.1462	15940.2375
866.96777	15926.0375
870.78668	15946.9375
874.60293	15981.0375
878.41652	15943.0375
882.22745	16001.7375
886.03573	16030.9375
889.84136	16029.4375
893.64433	16005.4375
897.44466	16034.9375
901.24235	15995.2375
905.0374	15978.9375
908.8298	15966.6375
912.61957	16008.0375
916.40671	16057.7375
920.19121	16149.8375
923.97308	16137.5375
927.75233	16124.2375
931.52895	16090.6375
935.30295	15991.7375
939.07433	15867.8375
942.84309	15759.6375
946.60924	15724.9375
950.37278	15684.8375
954.13371	15615.9375
957.89203	15582.3375
961.64774	15604.6375
965.40086	15550.3375
969.15137	15539.1375
972.89929	15533.4375
976.64461	15499.1375
980.38733	15452.6375
984.12747	15453.9375
987.86502	15501.1375
991.59999	15544.2375
995.33237	15552.1375
999.06217	15622.2375
1002.78939	15716.7375
1006.51404	15771.1375
1010.23611	15876.9375
1013.95561	15946.1375
1017.67255	15950.3375
1021.38692	15927.5375
1025.09872	15882.8375
1028.80796	15827.1375
1032.51465	15789.6375
1036.21877	15838.8375
1039.92035	15839.0375
1043.61937	15900.4375
1047.31584	15955.8375
1051.00976	16039.0375
1054.70114	16086.8375
1058.38998	16181.8375
1062.07627	16281.2375
1065.76003	16464.5375
1069.44126	16655.6375
1073.11995	16800.2375
1076.79611	16930.5375
1080.46974	16896.9375
1084.14085	16803.6375
1087.80943	16753.0375
1091.47549	16730.3375
1095.13903	16715.7375
1098.80005	16695.3375
1102.45857	16560.0375
1106.11456	16366.8375
1109.76805	16261.9375
1113.41903	16193.8375
1117.06751	16181.5375
1120.71348	16272.9375
1124.35696	16330.7375
1127.99793	16472.4375
1131.63641	16530.2375
1135.2724	16476.7375
1138.90589	16380.6375
1142.5369	16353.7375
1146.16542	16336.3375
1149.79145	16358.9375
1153.415	16418.2375
1157.03607	16442.6375
1160.65467	16565.0375
1164.27079	16771.4375
1167.88443	17038.6375
1171.49561	17414.9375
1175.10432	17829.5375
1178.71056	18416.3375
1182.31434	18960.4375
1185.91565	19328.0375
1189.51451	19507.1375
1193.11091	19536.2375
1196.70485	19307.6375
1200.29634	18954.7375
1203.88538	18594.7375
1207.47197	18258.8375
1211.05612	17959.5375
1214.63782	17755.1375
1218.21708	17579.1375
1221.79391	17372.9375
1225.36829	17236.2375
1228.94024	17151.4375
1232.50976	17129.6375
1236.07685	17148.2375
1239.6415	17172.6375
1243.20374	17203.0375
1246.76355	17271.1375
1250.32093	17350.0375
1253.8759	17501.1375
1257.42845	17652.3375
1260.97859	17851.3375
1264.52631	18030.1375
1268.07163	18184.9375
1271.61453	18299.4375
1275.15503	18463.9375
1278.69312	18598.2375
1282.22882	18704.9375
1285.76211	18844.1375
1289.29301	19035.5375
1292.82151	19287.6375
1296.34761	19583.1375
1299.87133	19923.7375
1303.39266	20300.5375
1306.9116	20689.3375
1310.42815	21035.4375
1313.94233	21224.3375
1317.45412	21220.0375
1320.96354	21222.4375
1324.47058	21171.4375
1327.97525	21135.1375
1331.47754	21131.6375
1334.97747	21291.8375
1338.47502	21458.4375
1341.97022	21794.1375
1345.46305	22114.6375
1348.95352	22331.1375
1352.44163	22372.0375
1355.92738	22274.7375
1359.41078	22267.5375
1362.89183	22308.2375
1366.37053	21937.8375
1369.84688	21022.9375
1373.32088	20069.7375
1376.79254	19285.0375
1380.26186	18891.1375
1383.72883	18677.1375
1387.19347	18563.4375
1390.65578	18413.4375
1394.11575	18266.3375
1397.57339	18111.5375
1401.0287	17988.7375
1404.48168	17941.7375
1407.93234	17826.4375
1411.38068	17698.8375
1414.82669	17514.2375
1418.27039	17210.1375
1421.71177	16994.3375
1425.15083	16742.1375
1428.58758	16597.4375
1432.02203	16496.8375
1435.45416	16583.9375
1438.88399	16673.6375
1442.31151	16710.1375
1445.73673	16805.7375
1449.15965	16915.4375
1452.58027	17046.0375
1455.9986	17099.8375
1459.41463	17255.1375
1462.82837	17422.4375
1466.23982	17605.9375
1469.64898	17789.6375
1473.05586	17935.9375
1476.46045	18023.4375
1479.86276	18066.6375
1483.26279	18123.8375
1486.66054	18186.9375
1490.05602	18288.2375
1493.44922	18501.0375
1496.84016	18820.3375
1500.22882	19308.3375
1503.61521	19899.0375
1506.99934	20444.9375
1510.38121	20806.9375
1513.76081	20771.6375
1517.13816	20470.1375
1520.51324	20019.5375
1523.88607	19657.8375
1527.25665	19379.8375
1530.62498	19231.4375
1533.99105	19056.2375
1537.35488	18919.0375
1540.71647	18721.1375
1544.07581	18544.0375
1547.4329	18292.8375
1550.78776	18157.6375
1554.14038	18055.4375
1557.49077	18019.4375
1560.83892	18032.5375
1564.18484	18109.4375
1567.52853	18225.4375
1570.86999	18314.0375
1574.20922	18462.9375
1577.54624	18585.1375
1580.88103	18514.9375
1584.2136	18400.8375
1587.54395	18293.2375
1590.87208	18250.0375
1594.19801	18327.1375
1597.52172	18548.1375
1600.84321	18605.5375
1604.16251	18399.4375
1607.47959	18069.9375
1610.79447	17646.8375
1614.10715	17175.2375
1617.41763	16684.3375
1620.7259	16285.8375
1624.03199	16011.9375
1627.33587	15881.3375
1630.63757	15870.7375
1633.93707	16058.2375
1637.23439	16391.7375
1640.52951	16988.0375
1643.82246	17720.0375
1647.11321	18500.5375
1650.40179	18970.8375
1653.68819	18875.9375
1656.97241	18190.0375
1660.25446	17250.6375
1663.53433	16374.4375
1666.81203	15655.9375
1670.08756	15172.8375
1673.36092	14832.1375
1676.63211	14578.7375
1679.90115	14435.3375
1683.16801	14268.4375
1686.43272	14172.0375
1689.69527	14131.0375
1692.95567	14083.2375
1696.2139	14046.0375
1699.46999	14034.7375
1702.72392	14005.9375
1705.97571	13988.9375
1709.22535	13951.0375
1712.47284	13946.3375
1715.71819	13928.3375
1718.96139	13905.7375
1722.20246	13859.2375
1725.44139	13838.1375
1728.67818	13779.9375
1731.91284	13731.7375
1735.14537	13687.6375
1738.37576	13639.1375
1741.60403	13602.8375
1744.83017	13610.0375
1748.05418	13566.5375
1751.27607	13542.7375
1754.49584	13522.5375
1757.71349	13540.6375
1760.92903	13517.3375
1764.14244	13526.6375
1767.35375	13505.6375
1770.56294	13495.6375
1773.77002	13444.9375
1776.97499	13430.6375
1780.17785	13396.2375
1783.37861	13368.8375
1786.57727	13349.0375
1789.77382	13309.7375
1792.96828	13270.8375
1796.16064	13229.8375
1799.3509	13228.9375
1802.53907	13210.2375
1805.72514	13164.8375
1808.90913	13117.0375
1812.09102	13109.4375
1815.27083	13064.6375
1818.44856	13071.0375
1821.6242	13027.3375
1824.79776	13009.7375
1827.96924	12993.6375
1831.13864	12998.6375
1834.30597	12990.1375
1837.47122	12948.3375
1840.6344	12961.3375
1843.7955	12939.0375
1846.95454	12914.1375
1850.11151	12922.7375
1853.26642	12895.3375
1856.41926	12861.7375
1859.57004	12881.3375
1862.71876	12880.6375
1865.86542	12848.4375
1869.01003	12827.6375
1872.15258	12826.3375
1875.29308	12808.1375
1878.43152	12758.5375
1881.56792	12760.9375
1884.70227	12738.3375
1887.83457	12734.7375
1890.96482	12711.4375
1894.09304	12693.4375
1897.21921	12696.7375
1900.34335	12645.0375
1903.46544	12609.4375
1906.58551	12637.9375
1909.70353	12588.0375
1912.81953	12610.3375
1915.93349	12538.7375
1919.04543	12520.4375
1922.15534	12493.7375
1925.26322	12499.9375
1928.36908	12488.7375
1931.47292	12454.1375
1934.57473	12423.3375
1937.67453	12390.8375
1940.77232	12354.6375
1943.86808	12333.9375
1946.96184	12312.7375
1950.05358	12280.9375
1953.14331	12231.0375
1956.23103	12196.8375
1959.31675	12171.4375
1962.40046	12128.0375
1965.48217	12106.2375
1968.56188	12059.1375
1971.63959	12016.6375
1974.7153	11960.1375
1977.78901	11955.5375
1980.86073	11885.8375
1983.93046	11876.0375
1986.99819	11818.5375
1990.06394	11796.9375
1993.1277	11777.3375
1996.18947	11722.6375
1999.24925	11701.9375
2002.30706	11648.5375
2005.36288	11587.7375
2008.41672	11575.0375
2011.46859	11540.4375
2014.51848	11520.0375
2017.56639	11497.5375
2020.61233	11430.3375
2023.6563	11445.7375
2026.6983	11403.0375
2029.73833	11377.9375
2032.7764	11311.8375
2035.8125	11285.4375
2038.84664	11282.5375
2041.87881	11239.2375
2044.90903	11216.2375
2047.93729	11190.8375
2050.96359	11170.3375
2053.98794	11159.3375
2057.01034	11161.4375
2060.03078	11156.3375
2063.04927	11129.0375
2066.06582	11098.3375
2069.08042	11119.6375
2072.09307	11100.4375
2075.10378	11084.2375
2078.11255	11069.1375
2081.11938	11061.4375
2084.12426	11075.2375
2087.12722	11067.9375
2090.12824	11056.2375
2093.12732	11040.8375
2096.12447	11051.5375
2099.11969	11070.2375
2102.11299	11070.7375
2105.10435	11065.7375
2108.09379	11065.2375
2111.08131	11068.2375
2114.0669	11059.8375
2117.05057	11062.1375
2120.03233	11079.3375
2123.01216	11072.0375
2125.99008	11077.2375
2128.96609	11106.2375
2131.94018	11090.9375
2134.91236	11087.6375
2137.88263	11085.0375
2140.851	11094.8375
2143.81746	11125.9375
2146.78201	11094.5375
2149.74466	11117.5375
2152.7054	11100.2375
2155.66425	11143.6375
2158.6212	11140.0375
2161.57625	11132.8375
2164.52941	11110.5375
2167.48067	11113.2375
2170.43004	11103.3375
2173.37752	11070.9375
2176.32311	11055.4375
2179.26681	11079.0375
2182.20863	11066.8375
2185.14856	11046.2375
2188.08661	11021.5375
2191.02278	11032.2375
2193.95707	11016.1375
2196.88948	11002.5375
2199.82001	11018.0375
2202.74867	10969.6375
2205.67545	10959.7375
2208.60037	10971.6375
2211.52341	10942.1375
2214.44458	10913.7375
2217.36388	10885.9375
2220.28132	10863.2375
2223.1969	10834.2375
2226.11061	10824.4375
2229.02246	10782.9375
2231.93245	10769.2375
2234.84058	10754.1375
2237.74686	10763.2375
2240.65128	10717.1375
2243.55385	10709.9375
2246.45456	10674.7375
2249.35343	10675.2375
2252.25044	10645.4375
2255.14561	10644.7375
2258.03893	10601.7375
2260.93041	10584.6375
2263.82004	10581.2375
2266.70783	10563.2375
2269.59378	10507.2375
2272.4779	10495.4375
2275.36017	10432.7375
2278.24061	10434.8375
2281.11922	10404.4375
2283.996	10366.8375
2286.87094	10359.4375
2289.74405	10336.7375
2292.61534	10317.9375
2295.4848	10308.4375
2298.35243	10305.6375
2301.21824	10289.4375
2304.08223	10255.6375
2306.94439	10274.8375
2309.80474	10264.0375
2312.66327	10217.7375
2315.51999	10237.3375
2318.37489	10214.2375
2321.22797	10213.6375
2324.07925	10203.3375
2326.92871	10174.5375
2329.77637	10154.0375
2332.62222	10145.8375
2335.46626	10111.1375
2338.3085	10090.5375
2341.14893	10112.2375
2343.98756	10076.8375
2346.8244	10048.7375
2349.65943	10043.4375
2352.49267	10024.2375
2355.32411	10008.6375
2358.15376	10004.3375
2360.98161	9992.6375
2363.80768	10005.5375
2366.63195	9976.6375
2369.45444	9940.6375
2372.27514	9950.0375
2375.09405	9944.5375
2377.91118	9929.1375
2380.72652	9872.9375
2383.54009	9866.3375
2386.35187	9879.2375
2389.16188	9833.9375
2391.97011	9833.6375
2394.77657	9784.7375
2397.58125	9792.1375
2400.38416	9770.4375
2403.18529	9740.3375
2405.98466	9726.4375
2408.78226	9707.9375
2411.57809	9686.5375
2414.37216	9680.5375
2417.16446	9661.8375
2419.955	9630.2375
2422.74378	9636.4375
2425.5308	9584.3375
2428.31606	9588.7375
2431.09956	9588.1375
2433.88131	9575.5375
2436.6613	9562.2375
2439.43954	9558.7375
2442.21603	9543.8375
2444.99077	9529.5375
2447.76377	9531.2375
2450.53501	9498.3375
2453.30451	9508.3375
2456.07226	9466.3375
2458.83827	9463.2375
2461.60254	9453.4375
2464.36507	9432.2375
2467.12586	9436.7375
2469.88492	9403.0375
2472.64224	9409.1375
2475.39782	9347.1375
2478.15167	9375.5375
2480.90379	9366.1375
2483.65417	9364.9375
2486.40283	9364.2375
2489.14976	9360.6375
2491.89497	9318.4375
2494.63845	9333.1375
2497.3802	9307.2375
2500.12024	9294.6375
2502.85855	9300.0375
2505.59514	9279.1375
2508.33002	9266.1375
2511.06318	9252.5375
2513.79462	9225.2375
2516.52435	9211.5375
2519.25237	9217.9375
2521.97867	9217.4375
2524.70327	9186.6375
2527.42616	9177.5375
2530.14734	9166.8375
2532.86681	9149.7375
2535.58458	9109.1375
2538.30065	9109.6375
2541.01501	9098.6375
2543.72768	9081.4375
2546.43864	9075.9375
2549.14791	9027.3375
2551.85548	9013.3375
2554.56136	8987.2375
2557.26554	8969.3375
2559.96803	8945.6375
2562.66883	8936.4375
2565.36794	8921.9375
2568.06536	8935.7375
2570.7611	8895.8375
2573.45514	8905.8375
2576.14751	8885.7375
2578.83819	8835.3375
2581.52719	8822.5375
2584.21451	8784.6375
2586.90015	8814.7375
2589.58411	8765.5375
2592.2664	8741.2375
2594.94701	8731.1375
2597.62594	8705.8375
2600.30321	8697.3375
2602.9788	8669.9375
2605.65273	8640.5375
2608.32498	8636.9375
2610.99557	8611.1375
2613.66449	8613.4375
2616.33175	8588.8375
2618.99734	8552.3375
2621.66128	8571.5375
2624.32355	8547.4375
2626.98416	8541.9375
2629.64311	8521.8375
2632.30041	8499.7375
2634.95605	8494.6375
2637.61004	8473.3375
2640.26238	8487.2375
2642.91306	8462.3375
2645.56209	8428.5375
2648.20948	8427.1375
2650.85521	8421.7375
2653.4993	8417.6375
2656.14175	8409.2375
2658.78255	8408.8375
2661.42171	8402.0375
2664.05923	8404.5375
2666.6951	8402.0375
2669.32934	8405.5375
2671.96194	8384.2375
2674.59291	8403.6375
2677.22224	8396.8375
2679.84993	8417.0375
2682.476	8384.6375
2685.10043	8363.1375
2687.72324	8351.9375
2690.34441	8347.9375
2692.96396	8390.5375
2695.58188	8348.4375
2698.19818	8331.6375
2700.81285	8342.8375
2703.4259	8358.1375
2706.03733	8378.2375
2708.64714	8392.5375
2711.25533	8366.3375
2713.86191	8326.3375
2716.46687	8346.2375
2719.07021	8344.8375
2721.67194	8331.3375
2724.27206	8313.5375
2726.87057	8307.5375
2729.46747	8296.2375
2732.06276	8307.4375
2734.65644	8278.5375
2737.24852	8272.3375
2739.83899	8239.8375
2742.42786	8263.1375
2745.01513	8234.6375
2747.60079	8235.4375
2750.18486	8206.0375
2752.76733	8209.1375
2755.3482	8189.9375
2757.92747	8179.5375
2760.50515	8163.9375
2763.08123	8189.3375
2765.65573	8163.8375
2768.22863	8156.4375
2770.79994	8137.2375
2773.36967	8120.9375
2775.9378	8107.2375
2778.50435	8084.9375
2781.06932	8058.2375
2783.6327	8070.9375
2786.1945	8045.5375
2788.75471	8037.1375
2791.31335	8000.2375
2793.87041	7982.4375
2796.42589	7955.5375
2798.97979	7959.5375
2801.53212	7930.9375
2804.08288	7915.4375
2806.63206	7905.3375
2809.17967	7875.0375
2811.72571	7848.8375
2814.27018	7846.9375
2816.81308	7828.7375
2819.35442	7824.2375
2821.89419	7810.3375
2824.43239	7776.8375
2826.96904	7766.9375
2829.50412	7764.2375
2832.03763	7742.6375
2834.56959	7756.1375
2837.1	7757.2375
2839.62884	7712.7375
2842.15613	7707.5375
2844.68186	7742.6375
2847.20604	7728.5375
2849.72867	7745.5375
2852.24974	7710.9375
2854.76927	7717.6375
2857.28724	7697.5375
2859.80367	7673.0375
2862.31855	7668.3375
2864.83189	7672.6375
2867.34368	7635.1375
2869.85393	7624.1375
2872.36264	7641.0375
2874.8698	7631.8375
2877.37543	7634.9375
2879.87952	7620.8375
2882.38207	7609.0375
2884.88308	7596.7375
2887.38256	7610.8375
2889.88051	7598.5375
2892.37692	7588.5375
2894.8718	7575.0375
2897.36515	7594.7375
2899.85698	7579.4375
2902.34727	7583.9375
2904.83604	7583.1375
2907.32328	7610.1375
2909.809	7590.6375
2912.29319	7580.8375
2914.77587	7584.8375
2917.25702	7583.1375
2919.73665	7554.3375
2922.21476	7563.6375
2924.69136	7558.1375
2927.16644	7555.9375
2929.64	7534.8375
2932.11205	7525.1375
2934.58258	7529.7375
2937.05161	7535.4375
2939.51912	7531.4375
2941.98513	7537.8375
2944.44962	7490.7375
2946.91261	7485.1375
2949.37409	7497.0375
2951.83407	7495.4375
2954.29254	7445.6375
2956.74951	7435.8375
2959.20498	7421.3375
2961.65895	7443.4375
2964.11142	7433.1375
2966.56239	7413.7375
2969.01186	7391.2375
2971.45984	7362.0375
2973.90632	7361.2375
2976.35131	7355.3375
2978.7948	7350.4375
2981.23681	7322.9375
2983.67732	7293.7375
2986.11635	7313.9375
2988.55388	7277.8375
2990.98993	7251.0375
2993.4245	7264.5375
2995.85758	7228.0375
2998.28917	7214.5375
3000.71928	7209.9375
3003.14791	7182.0375
3005.57506	7204.5375
3008.00073	7171.7375
3010.42493	7159.4375
3012.84764	7155.8375
3015.26888	7119.0375
3017.68865	7115.1375
3020.10694	7117.2375
3022.52376	7103.9375
3024.9391	7066.0375
3027.35298	7076.9375
3029.76539	7084.6375
3032.17632	7071.3375
3034.5858	7060.0375
3036.9938	7059.3375
3039.40034	7048.3375
3041.80542	7019.8375
3044.20903	7004.9375
3046.61118	7022.1375
3049.01187	6989.2375
3051.4111	6995.8375
3053.80888	6968.2375
3056.20519	6951.3375
3058.60005	6958.8375
3060.99345	6922.4375
3063.3854	6920.2375
3065.7759	6899.8375
3068.16494	6894.0375
3070.55254	6893.2375
3072.93868	6881.7375
3075.32338	6845.0375
3077.70662	6862.0375
3080.08842	6826.4375
3082.46878	6831.1375
3084.84769	6841.6375
3087.22515	6826.8375
3089.60118	6829.6375
3091.97576	6844.5375
3094.3489	6845.2375
3096.72061	6830.8375
3099.09087	6828.7375
3101.4597	6823.2375
3103.82709	6825.3375
3106.19305	6815.5375
3108.55757	6817.9375
3110.92066	6796.3375
3113.28232	6781.2375
3115.64255	6769.5375
3118.00134	6767.8375
3120.35871	6770.2375
3122.71466	6744.2375
3125.06917	6717.6375
3127.42226	6717.1375
3129.77393	6726.8375
3132.12417	6720.7375
3134.47299	6728.7375
3136.82039	6729.0375
3139.16636	6750.4375
3141.51092	6750.9375
3143.85406	6750.5375
3146.19579	6752.0375
3148.53609	6742.7375
3150.87499	6754.3375
3153.21246	6753.0375
3155.54853	6776.0375
3157.88318	6763.7375
3160.21642	6763.4375
3162.54826	6772.0375
3164.87868	6748.4375
3167.2077	6756.9375
3169.5353	6759.7375
3171.86151	6759.2375
3174.18631	6744.8375
3176.5097	6752.8375
3178.83169	6746.8375
3181.15228	6732.3375
3183.47147	6738.5375
3185.78926	6746.8375
3188.10565	6715.6375
3190.42065	6718.3375
3192.73424	6716.4375
3195.04645	6717.6375
3197.35725	6713.5375
3199.66667	6735.0375
3201.97469	6726.7375
3204.28132	6712.9375
3206.58656	6730.7375
3208.8904	6727.8375
3211.19287	6738.8375
3213.49394	6736.5375
3215.79363	6732.5375
3218.09193	6736.2375
3220.38884	6718.5375
3222.68438	6729.3375
3224.97853	6725.7375
3227.2713	6722.8375
3229.56269	6683.6375
3231.8527	6706.8375
3234.14133	6690.3375
3236.42858	6663.3375
3238.71446	6661.9375
3240.99896	6634.2375
3243.28209	6640.3375
3245.56384	6649.3375
3247.84423	6649.2375
3250.12324	6646.7375
3252.40088	6631.2375
3254.67715	6636.2375
3256.95205	6617.6375
3259.22558	6622.4375
3261.49775	6609.7375
3263.76855	6616.3375
3266.03799	6576.2375
3268.30606	6572.6375
3270.57277	6543.3375
3272.83812	6558.0375
3275.10211	6527.6375
3277.36474	6533.4375
3279.62601	6526.8375
3281.88593	6518.0375
3284.14448	6541.2375
3286.40168	6521.2375
3288.65753	6493.0375
3290.91202	6488.6375
3293.16516	6464.1375
3295.41695	6441.2375
3297.66738	6400.3375
3299.91647	6380.9375
3302.16421	6347.1375
3304.4106	6327.5375
3306.65564	6301.8375
3308.89933	6251.7375
3311.14169	6214.3375
3313.38269	6181.5375
3315.62236	6143.9375
3317.86068	6089.9375
3320.09766	6015.7375
3322.3333	5971.6375
3324.5676	5969.1375
3326.80056	5868.8375
3329.03219	5852.2375
3331.26248	2.9375
3333.49143	-0.8625
3335.71905	0.2375
