Data from AgNP_FTO_APTES_CRN_2uM_R6G_10uM_NaF_0.1M_Addition_RamanShift__9__14-45-29-334.txt Node

Date: Wed Dec 15 14:45:29 GMT 2021
User: TCL
Spectrometer: QEP01345
Trigger mode: 4
Integration Time (sec): 7.000000E0
Scans to average: 10
Electric dark correction enabled: true
Nonlinearity correction enabled: false
Boxcar width: 0
XAxis mode: Raman Shifts
Number of Pixels in Spectrum: 1044
>>>>>Begin Spectral Data<<<<<
46.04893	0.1125
50.45542	-1.7875
54.85868	-1.2875
59.25871	-1.9875
63.6555	145.4125
68.04907	155.6125
72.43941	154.8125
76.82654	167.9125
81.21044	172.9125
85.59113	176.2125
89.96862	182.5125
94.34289	184.3125
98.71396	192.7125
103.08183	203.9125
107.4465	208.0125
111.80798	214.1125
116.16626	217.4125
120.52136	223.8125
124.87327	235.7125
129.222	247.9125
133.56755	260.7125
137.90993	282.6125
142.24913	312.3125
146.58517	344.1125
150.91804	403.5125
155.24774	476.9125
159.57429	589.4125
163.89768	761.0125
168.21792	998.8125
172.53501	1359.3125
176.84895	1886.9125
181.15975	2631.7125
185.46741	3711.6125
189.77193	5091.4125
194.07331	6801.7125
198.37157	8752.1125
202.6667	10804.7125
206.9587	12845.7125
211.24758	14804.1125
215.53334	16781.3125
219.81599	18849.8125
224.09553	21147.2125
228.37195	23674.5125
232.64527	26470.9125
236.91549	29431.0125
241.18261	32421.1125
245.44663	35330.2125
249.70755	37873.4125
253.96539	40115.6125
258.22014	42048.6125
262.4718	43556.3125
266.72039	44630.2125
270.96589	45088.4125
275.20832	45202.9125
279.44768	44996.0125
283.68397	44608.3125
287.91719	44277.8125
292.14735	44030.7125
296.37445	43938.6125
300.59849	43902.6125
304.81948	44016.1125
309.03742	44041.1125
313.25231	43835.3125
317.46415	43359.2125
321.67296	42695.5125
325.87872	42181.2125
330.08145	41786.1125
334.28114	41848.9125
338.47781	42169.4125
342.67145	42641.7125
346.86207	43126.5125
351.04966	43861.6125
355.23424	44553.9125
359.4158	45262.9125
363.59435	45902.5125
367.76989	46301.6125
371.94243	46562.2125
376.11196	46687.8125
380.27849	46724.6125
384.44203	46886.5125
388.60257	47234.4125
392.76012	47772.5125
396.91468	48438.4125
401.06626	49278.9125
405.21485	49786.9125
409.36047	49807.9125
413.50311	49686.5125
417.64277	49830.3125
421.77947	50254.3125
425.9132	50673.2125
430.04396	51004.3125
434.17176	50975.7125
438.2966	51036.8125
442.41849	51304.5125
446.53742	52259.5125
450.6534	53452.8125
454.76644	54414.6125
458.87653	54804.7125
462.98368	54567.1125
467.08789	54030.3125
471.18916	53206.7125
475.2875	52324.7125
479.38291	51734.5125
483.4754	51360.0125
487.56496	50928.3125
491.6516	50410.9125
495.73531	50139.8125
499.81612	50106.9125
503.89401	50604.8125
507.96899	51108.1125
512.04106	51362.4125
516.11023	51161.2125
520.1765	50576.9125
524.23987	49866.5125
528.30034	49278.5125
532.35792	48753.4125
536.41261	48223.6125
540.46441	47814.7125
544.51333	47800.7125
548.55936	48363.7125
552.60252	49184.3125
556.64279	50118.6125
560.6802	50763.1125
564.71473	51277.1125
568.7464	52116.2125
572.7752	53690.6125
576.80114	55797.2125
580.82422	58298.9125
584.84444	61140.1125
588.86181	64140.1125
592.87633	65899.4125
596.888	64324.0125
600.89682	61044.2125
604.9028	59969.0125
608.90594	61912.1125
612.90624	63453.8125
616.90371	59567.3125
620.89834	52994.2125
624.89015	50267.0125
628.87913	50168.4125
632.86528	50512.4125
636.84862	50327.4125
640.82913	49567.3125
644.80683	48471.4125
648.78172	47912.8125
652.75379	48096.0125
656.72306	48599.8125
660.68952	48999.7125
664.65319	48640.5125
668.61405	48095.5125
672.57211	48082.8125
676.52738	48270.6125
680.47986	48303.4125
684.42955	47912.5125
688.37646	47800.4125
692.32058	48112.2125
696.26192	48811.4125
700.20048	49560.4125
704.13626	50025.2125
708.06928	50152.4125
711.99952	50035.8125
715.927	49992.3125
719.85171	50149.2125
723.77365	49948.6125
727.69284	49194.5125
731.60928	48383.7125
735.52295	47950.7125
739.43388	47847.3125
743.34206	48031.5125
747.24749	48345.4125
751.15017	48906.6125
755.05012	49719.3125
758.94733	50955.4125
762.8418	52921.5125
766.73354	55613.1125
770.62254	57611.2125
774.50882	57432.8125
778.39237	55079.5125
782.27321	52403.6125
786.15132	50311.9125
790.02671	49051.3125
793.89938	48316.3125
797.76935	48058.6125
801.6366	48011.4125
805.50115	48045.2125
809.36299	47836.8125
813.22213	47453.6125
817.07857	47115.1125
820.93231	46804.8125
824.78336	46593.9125
828.63172	46413.4125
832.47738	46339.1125
836.32036	46320.0125
840.16066	46467.4125
843.99827	46418.5125
847.8332	46420.2125
851.66546	46531.4125
855.49504	46615.6125
859.32195	46692.7125
863.1462	46525.0125
866.96777	46533.3125
870.78668	46482.7125
874.60293	46502.0125
878.41652	46549.7125
882.22745	46636.6125
886.03573	46808.6125
889.84136	46821.2125
893.64433	46681.1125
897.44466	46583.6125
901.24235	46501.7125
905.0374	46497.0125
908.8298	46387.2125
912.61957	46539.6125
916.40671	46963.3125
920.19121	47648.6125
923.97308	48201.9125
927.75233	48095.7125
931.52895	47427.9125
935.30295	46638.5125
939.07433	45985.2125
942.84309	45528.1125
946.60924	45355.2125
950.37278	45368.4125
954.13371	45395.3125
957.89203	45358.4125
961.64774	45367.1125
965.40086	45385.9125
969.15137	45287.5125
972.89929	45154.1125
976.64461	45032.3125
980.38733	44995.7125
984.12747	45110.7125
987.86502	45258.7125
991.59999	45478.7125
995.33237	45833.9125
999.06217	46536.8125
1002.78939	47415.6125
1006.51404	48459.7125
1010.23611	49493.6125
1013.95561	50104.5125
1017.67255	50080.5125
1021.38692	49426.0125
1025.09872	48611.7125
1028.80796	47987.2125
1032.51465	47937.4125
1036.21877	48143.4125
1039.92035	48335.3125
1043.61937	48449.6125
1047.31584	48519.7125
1051.00976	48482.0125
1054.70114	48647.7125
1058.38998	49130.5125
1062.07627	49913.7125
1065.76003	50954.9125
1069.44126	52157.0125
1073.11995	53501.5125
1076.79611	54531.6125
1080.46974	54655.2125
1084.14085	54454.3125
1087.80943	54462.4125
1091.47549	54468.8125
1095.13903	54363.1125
1098.80005	53629.9125
1102.45857	52324.1125
1106.11456	51301.6125
1109.76805	50663.2125
1113.41903	50421.0125
1117.06751	50435.3125
1120.71348	50683.5125
1124.35696	51040.3125
1127.99793	51443.2125
1131.63641	51788.8125
1135.2724	51946.0125
1138.90589	52208.5125
1142.5369	52545.6125
1146.16542	52915.6125
1149.79145	53295.1125
1153.415	53795.9125
1157.03607	54721.4125
1160.65467	56456.1125
1164.27079	59159.0125
1167.88443	62126.3125
1171.49561	64825.1125
1175.10432	67636.3125
1178.71056	71165.8125
1182.31434	74737.8125
1185.91565	76973.1125
1189.51451	77291.3125
1193.11091	76205.2125
1196.70485	74391.6125
1200.29634	72092.4125
1203.88538	70600.1125
1207.47197	70344.0125
1211.05612	70437.7125
1214.63782	69657.6125
1218.21708	67722.1125
1221.79391	65335.6125
1225.36829	63448.8125
1228.94024	62350.7125
1232.50976	61543.8125
1236.07685	61037.1125
1239.6415	60736.1125
1243.20374	60792.8125
1246.76355	61183.1125
1250.32093	62073.4125
1253.8759	63426.7125
1257.42845	65139.9125
1260.97859	66958.0125
1264.52631	68990.9125
1268.07163	70955.7125
1271.61453	72903.9125
1275.15503	74890.9125
1278.69312	76882.3125
1282.22882	78902.5125
1285.76211	81209.6125
1289.29301	83841.2125
1292.82151	87105.2125
1296.34761	91065.9125
1299.87133	95940.7125
1303.39266	100830.5125
1306.9116	104820.9125
1310.42815	107201.8125
1313.94233	107834.5125
1317.45412	107221.6125
1320.96354	106456.0125
1324.47058	106508.0125
1327.97525	107311.1125
1331.47754	108193.0125
1334.97747	108718.5125
1338.47502	108551.2125
1341.97022	107814.2125
1345.46305	106417.1125
1348.95352	104476.9125
1352.44163	102666.5125
1355.92738	102333.2125
1359.41078	103470.4125
1362.89183	104507.5125
1366.37053	102726.9125
1369.84688	97041.6125
1373.32088	89015.2125
1376.79254	82845.5125
1380.26186	80451.5125
1383.72883	80706.1125
1387.19347	81222.1125
1390.65578	80715.7125
1394.11575	80354.4125
1397.57339	81113.8125
1401.0287	82948.2125
1404.48168	84620.3125
1407.93234	84909.8125
1411.38068	83540.6125
1414.82669	80834.3125
1418.27039	77436.3125
1421.71177	74202.9125
1425.15083	71833.4125
1428.58758	70919.8125
1432.02203	71909.4125
1435.45416	74099.9125
1438.88399	76701.1125
1442.31151	78571.4125
1445.73673	79343.2125
1449.15965	79422.9125
1452.58027	78973.6125
1455.9986	78570.7125
1459.41463	78817.7125
1462.82837	80045.0125
1466.23982	81495.1125
1469.64898	82639.6125
1473.05586	83154.1125
1476.46045	83064.9125
1479.86276	82371.8125
1483.26279	81460.2125
1486.66054	80863.2125
1490.05602	80873.7125
1493.44922	81172.1125
1496.84016	81555.8125
1500.22882	82158.3125
1503.61521	83092.3125
1506.99934	84133.9125
1510.38121	84906.7125
1513.76081	84865.6125
1517.13816	84283.8125
1520.51324	83763.0125
1523.88607	83857.1125
1527.25665	84635.4125
1530.62498	85432.1125
1533.99105	85406.0125
1537.35488	84391.9125
1540.71647	82500.4125
1544.07581	80284.5125
1547.4329	78024.3125
1550.78776	76103.8125
1554.14038	74708.5125
1557.49077	73741.3125
1560.83892	73002.9125
1564.18484	72499.0125
1567.52853	72267.9125
1570.86999	72944.3125
1574.20922	74765.7125
1577.54624	76935.9125
1580.88103	78802.6125
1584.2136	80980.7125
1587.54395	83878.3125
1590.87208	87779.1125
1594.19801	92159.5125
1597.52172	95665.2125
1600.84321	95546.1125
1604.16251	90745.3125
1607.47959	83735.4125
1610.79447	76961.8125
1614.10715	70671.2125
1617.41763	65551.5125
1620.7259	61872.2125
1624.03199	59956.9125
1627.33587	59949.4125
1630.63757	61853.7125
1633.93707	65907.6125
1637.23439	72901.7125
1640.52951	82645.2125
1643.82246	93338.8125
1647.11321	100501.6125
1650.40179	99790.0125
1653.68819	91189.4125
1656.97241	78895.0125
1660.25446	67790.8125
1663.53433	59857.3125
1666.81203	54667.3125
1670.08756	51414.4125
1673.36092	49364.7125
1676.63211	47992.9125
1679.90115	47003.3125
1683.16801	46232.0125
1686.43272	45740.7125
1689.69527	45311.8125
1692.95567	44945.9125
1696.2139	44785.7125
1699.46999	44637.2125
1702.72392	44463.3125
1705.97571	44394.5125
1709.22535	44288.2125
1712.47284	44152.3125
1715.71819	44123.6125
1718.96139	43960.3125
1722.20246	43800.9125
1725.44139	43622.7125
1728.67818	43406.8125
1731.91284	43127.6125
1735.14537	42902.3125
1738.37576	42695.0125
1741.60403	42538.0125
1744.83017	42402.2125
1748.05418	42298.8125
1751.27607	42191.8125
1754.49584	42098.2125
1757.71349	42052.6125
1760.92903	42006.7125
1764.14244	42010.7125
1767.35375	41996.9125
1770.56294	41936.2125
1773.77002	41892.1125
1776.97499	41848.6125
1780.17785	41850.5125
1783.37861	41696.7125
1786.57727	41597.0125
1789.77382	41470.3125
1792.96828	41466.1125
1796.16064	41371.0125
1799.3509	41287.9125
1802.53907	41247.8125
1805.72514	41113.7125
1808.90913	41024.6125
1812.09102	40922.9125
1815.27083	40885.0125
1818.44856	40839.3125
1821.6242	40825.5125
1824.79776	40808.4125
1827.96924	40850.6125
1831.13864	40814.8125
1834.30597	40883.2125
1837.47122	40934.5125
1840.6344	40961.0125
1843.7955	40916.7125
1846.95454	40873.4125
1850.11151	40895.1125
1853.26642	40884.8125
1856.41926	40820.2125
1859.57004	40797.5125
1862.71876	40759.7125
1865.86542	40654.0125
1869.01003	40605.4125
1872.15258	40576.4125
1875.29308	40531.7125
1878.43152	40436.8125
1881.56792	40385.7125
1884.70227	40273.7125
1887.83457	40290.0125
1890.96482	40285.7125
1894.09304	40214.2125
1897.21921	40165.8125
1900.34335	40082.1125
1903.46544	39984.6125
1906.58551	39934.4125
1909.70353	39908.3125
1912.81953	39827.3125
1915.93349	39752.8125
1919.04543	39614.4125
1922.15534	39585.3125
1925.26322	39476.8125
1928.36908	39381.5125
1931.47292	39344.1125
1934.57473	39189.0125
1937.67453	39099.9125
1940.77232	39051.1125
1943.86808	38936.7125
1946.96184	38805.1125
1950.05358	38679.4125
1953.14331	38606.7125
1956.23103	38571.5125
1959.31675	38464.3125
1962.40046	38336.8125
1965.48217	38237.0125
1968.56188	38114.7125
1971.63959	37964.8125
1974.7153	37890.0125
1977.78901	37758.4125
1980.86073	37609.9125
1983.93046	37553.2125
1986.99819	37406.2125
1990.06394	37348.7125
1993.1277	37320.8125
1996.18947	37176.2125
1999.24925	37088.0125
2002.30706	36884.1125
2005.36288	36839.5125
2008.41672	36730.3125
2011.46859	36614.3125
2014.51848	36502.4125
2017.56639	36478.5125
2020.61233	36383.1125
2023.6563	36337.6125
2026.6983	36281.5125
2029.73833	36209.5125
2032.7764	36122.1125
2035.8125	36027.5125
2038.84664	35943.8125
2041.87881	35922.1125
2044.90903	35883.3125
2047.93729	35749.1125
2050.96359	35703.6125
2053.98794	35676.2125
2057.01034	35689.1125
2060.03078	35616.2125
2063.04927	35598.0125
2066.06582	35616.3125
2069.08042	35548.3125
2072.09307	35575.6125
2075.10378	35504.4125
2078.11255	35484.0125
2081.11938	35509.6125
2084.12426	35480.3125
2087.12722	35455.8125
2090.12824	35486.3125
2093.12732	35490.2125
2096.12447	35428.6125
2099.11969	35435.4125
2102.11299	35420.2125
2105.10435	35439.1125
2108.09379	35533.6125
2111.08131	35535.4125
2114.0669	35553.7125
2117.05057	35568.7125
2120.03233	35580.4125
2123.01216	35590.7125
2125.99008	35586.9125
2128.96609	35557.1125
2131.94018	35634.3125
2134.91236	35650.1125
2137.88263	35689.1125
2140.851	35707.9125
2143.81746	35698.0125
2146.78201	35710.6125
2149.74466	35724.7125
2152.7054	35708.9125
2155.66425	35726.5125
2158.6212	35735.5125
2161.57625	35699.8125
2164.52941	35722.5125
2167.48067	35695.8125
2170.43004	35657.0125
2173.37752	35669.3125
2176.32311	35713.0125
2179.26681	35640.0125
2182.20863	35612.2125
2185.14856	35672.6125
2188.08661	35677.9125
2191.02278	35699.6125
2193.95707	35606.1125
2196.88948	35596.5125
2199.82001	35626.5125
2202.74867	35550.6125
2205.67545	35477.4125
2208.60037	35431.2125
2211.52341	35380.2125
2214.44458	35342.6125
2217.36388	35284.5125
2220.28132	35246.9125
2223.1969	35222.4125
2226.11061	35165.0125
2229.02246	35102.6125
2231.93245	35055.3125
2234.84058	34953.0125
2237.74686	34913.9125
2240.65128	34910.1125
2243.55385	34833.9125
2246.45456	34750.3125
2249.35343	34678.4125
2252.25044	34647.0125
2255.14561	34538.7125
2258.03893	34457.2125
2260.93041	34452.7125
2263.82004	34373.4125
2266.70783	34287.4125
2269.59378	34204.6125
2272.4779	34159.3125
2275.36017	34047.7125
2278.24061	33988.7125
2281.11922	33911.0125
2283.996	33898.6125
2286.87094	33850.7125
2289.74405	33768.1125
2292.61534	33768.8125
2295.4848	33700.7125
2298.35243	33673.2125
2301.21824	33735.2125
2304.08223	33657.5125
2306.94439	33676.5125
2309.80474	33652.9125
2312.66327	33643.6125
2315.51999	33577.2125
2318.37489	33546.5125
2321.22797	33556.8125
2324.07925	33494.7125
2326.92871	33458.0125
2329.77637	33404.1125
2332.62222	33428.2125
2335.46626	33343.8125
2338.3085	33300.8125
2341.14893	33328.2125
2343.98756	33297.3125
2346.8244	33249.0125
2349.65943	33275.2125
2352.49267	33240.3125
2355.32411	33203.0125
2358.15376	33198.1125
2360.98161	33232.5125
2363.80768	33217.7125
2366.63195	33168.9125
2369.45444	33086.6125
2372.27514	33080.7125
2375.09405	33014.1125
2377.91118	33010.6125
2380.72652	32956.6125
2383.54009	32886.5125
2386.35187	32843.8125
2389.16188	32764.7125
2391.97011	32743.7125
2394.77657	32693.8125
2397.58125	32669.8125
2400.38416	32618.7125
2403.18529	32565.8125
2405.98466	32506.3125
2408.78226	32467.4125
2411.57809	32413.5125
2414.37216	32360.3125
2417.16446	32385.9125
2419.955	32345.8125
2422.74378	32373.2125
2425.5308	32318.0125
2428.31606	32268.1125
2431.09956	32233.7125
2433.88131	32177.5125
2436.6613	32182.7125
2439.43954	32165.7125
2442.21603	32149.4125
2444.99077	32103.4125
2447.76377	32142.2125
2450.53501	32117.0125
2453.30451	32103.1125
2456.07226	32059.4125
2458.83827	32072.1125
2461.60254	32041.8125
2464.36507	32021.8125
2467.12586	32012.1125
2469.88492	32003.0125
2472.64224	32005.5125
2475.39782	31976.7125
2478.15167	32020.3125
2480.90379	32001.6125
2483.65417	32007.0125
2486.40283	31971.3125
2489.14976	31951.8125
2491.89497	31930.0125
2494.63845	31957.2125
2497.3802	31979.0125
2500.12024	31986.9125
2502.85855	31942.2125
2505.59514	31959.9125
2508.33002	31920.7125
2511.06318	31931.7125
2513.79462	31890.4125
2516.52435	31863.1125
2519.25237	31895.6125
2521.97867	31855.4125
2524.70327	31802.5125
2527.42616	31778.5125
2530.14734	31750.4125
2532.86681	31727.1125
2535.58458	31722.4125
2538.30065	31644.8125
2541.01501	31669.9125
2543.72768	31654.9125
2546.43864	31640.5125
2549.14791	31554.7125
2551.85548	31536.4125
2554.56136	31490.9125
2557.26554	31511.3125
2559.96803	31462.4125
2562.66883	31429.5125
2565.36794	31437.3125
2568.06536	31366.3125
2570.7611	31356.7125
2573.45514	31295.7125
2576.14751	31304.7125
2578.83819	31219.6125
2581.52719	31268.6125
2584.21451	31156.0125
2586.90015	31171.5125
2589.58411	31134.5125
2592.2664	31075.3125
2594.94701	31054.0125
2597.62594	31072.0125
2600.30321	31015.2125
2602.9788	30977.4125
2605.65273	30962.4125
2608.32498	30986.1125
2610.99557	30938.1125
2613.66449	30925.6125
2616.33175	30895.3125
2618.99734	30859.4125
2621.66128	30872.2125
2624.32355	30838.4125
2626.98416	30853.1125
2629.64311	30811.4125
2632.30041	30762.5125
2634.95605	30734.8125
2637.61004	30743.1125
2640.26238	30749.0125
2642.91306	30719.3125
2645.56209	30732.0125
2648.20948	30698.6125
2650.85521	30646.1125
2653.4993	30679.3125
2656.14175	30740.6125
2658.78255	30745.7125
2661.42171	30753.2125
2664.05923	30791.5125
2666.6951	30810.2125
2669.32934	30826.2125
2671.96194	30735.5125
2674.59291	30754.5125
2677.22224	30761.1125
2679.84993	30777.4125
2682.476	30742.0125
2685.10043	30728.4125
2687.72324	30731.1125
2690.34441	30732.9125
2692.96396	30728.9125
2695.58188	30766.9125
2698.19818	30726.7125
2700.81285	30714.9125
2703.4259	30735.0125
2706.03733	30851.0125
2708.64714	30829.8125
2711.25533	30829.8125
2713.86191	30864.0125
2716.46687	30897.3125
2719.07021	30837.8125
2721.67194	30899.9125
2724.27206	30847.0125
2726.87057	30876.3125
2729.46747	30955.8125
2732.06276	30966.5125
2734.65644	30939.4125
2737.24852	30983.3125
2739.83899	30952.7125
2742.42786	30921.7125
2745.01513	30862.9125
2747.60079	30863.7125
2750.18486	30830.3125
2752.76733	30885.5125
2755.3482	30873.6125
2757.92747	30849.4125
2760.50515	30844.0125
2763.08123	30822.2125
2765.65573	30761.3125
2768.22863	30723.7125
2770.79994	30654.6125
2773.36967	30669.2125
2775.9378	30619.2125
2778.50435	30572.1125
2781.06932	30573.5125
2783.6327	30586.0125
2786.1945	30575.5125
2788.75471	30492.3125
2791.31335	30436.8125
2793.87041	30412.8125
2796.42589	30300.7125
2798.97979	30343.4125
2801.53212	30287.2125
2804.08288	30272.2125
2806.63206	30174.8125
2809.17967	30122.7125
2811.72571	29993.1125
2814.27018	30003.8125
2816.81308	29911.0125
2819.35442	29870.2125
2821.89419	29824.3125
2824.43239	29819.1125
2826.96904	29762.5125
2829.50412	29740.4125
2832.03763	29707.1125
2834.56959	29740.2125
2837.1	29612.6125
2839.62884	29597.1125
2842.15613	29584.3125
2844.68186	29547.5125
2847.20604	29456.6125
2849.72867	29448.4125
2852.24974	29406.4125
2854.76927	29403.7125
2857.28724	29387.2125
2859.80367	29326.2125
2862.31855	29301.8125
2864.83189	29273.7125
2867.34368	29234.4125
2869.85393	29236.3125
2872.36264	29175.6125
2874.8698	29164.0125
2877.37543	29198.0125
2879.87952	29204.9125
2882.38207	29151.0125
2884.88308	29181.2125
2887.38256	29150.5125
2889.88051	29165.0125
2892.37692	29133.0125
2894.8718	29170.5125
2897.36515	29153.5125
2899.85698	29166.8125
2902.34727	29210.6125
2904.83604	29234.8125
2907.32328	29267.9125
2909.809	29203.2125
2912.29319	29309.8125
2914.77587	29265.9125
2917.25702	29247.6125
2919.73665	29208.1125
2922.21476	29258.9125
2924.69136	29256.5125
2927.16644	29198.6125
2929.64	29181.2125
2932.11205	29151.7125
2934.58258	29001.9125
2937.05161	29121.7125
2939.51912	29204.7125
2941.98513	29161.1125
2944.44962	29071.3125
2946.91261	28954.4125
2949.37409	29029.3125
2951.83407	28988.8125
2954.29254	28931.8125
2956.74951	28860.7125
2959.20498	28869.3125
2961.65895	28819.0125
2964.11142	28817.1125
2966.56239	28767.5125
2969.01186	28714.8125
2971.45984	28642.9125
2973.90632	28623.3125
2976.35131	28569.1125
2978.7948	28530.6125
2981.23681	28491.5125
2983.67732	28433.4125
2986.11635	28397.6125
2988.55388	28295.4125
2990.98993	28207.3125
2993.4245	28190.5125
2995.85758	28107.1125
2998.28917	28032.8125
3000.71928	28008.4125
3003.14791	27882.6125
3005.57506	27863.6125
3008.00073	27774.6125
3010.42493	27743.0125
3012.84764	27705.4125
3015.26888	27681.0125
3017.68865	27661.8125
3020.10694	27605.3125
3022.52376	27552.8125
3024.9391	27491.6125
3027.35298	27468.3125
3029.76539	27487.7125
3032.17632	27460.7125
3034.5858	27387.7125
3036.9938	27339.5125
3039.40034	27311.2125
3041.80542	27282.5125
3044.20903	27152.7125
3046.61118	27188.1125
3049.01187	27116.0125
3051.4111	27099.1125
3053.80888	27001.0125
3056.20519	26948.7125
3058.60005	26854.0125
3060.99345	26840.6125
3063.3854	26756.2125
3065.7759	26651.0125
3068.16494	26649.4125
3070.55254	26541.9125
3072.93868	26449.8125
3075.32338	26396.0125
3077.70662	26341.7125
3080.08842	26249.9125
3082.46878	26201.6125
3084.84769	26204.6125
3087.22515	26131.1125
3089.60118	26123.6125
3091.97576	26099.9125
3094.3489	26074.7125
3096.72061	26069.5125
3099.09087	26013.8125
3101.4597	25964.1125
3103.82709	25953.7125
3106.19305	25874.3125
3108.55757	25861.5125
3110.92066	25736.4125
3113.28232	25696.1125
3115.64255	25627.1125
3118.00134	25563.0125
3120.35871	25565.3125
3122.71466	25506.8125
3125.06917	25461.7125
3127.42226	25424.6125
3129.77393	25450.9125
3132.12417	25368.2125
3134.47299	25353.5125
3136.82039	25299.1125
3139.16636	25289.5125
3141.51092	25280.8125
3143.85406	25262.6125
3146.19579	25279.7125
3148.53609	25235.6125
3150.87499	25237.6125
3153.21246	25209.7125
3155.54853	25250.2125
3157.88318	25162.3125
3160.21642	25158.3125
3162.54826	25155.0125
3164.87868	25102.7125
3167.2077	25043.4125
3169.5353	25046.8125
3171.86151	25022.4125
3174.18631	24948.1125
3176.5097	24940.5125
3178.83169	24901.0125
3181.15228	24885.5125
3183.47147	24832.5125
3185.78926	24832.6125
3188.10565	24806.2125
3190.42065	24759.4125
3192.73424	24714.5125
3195.04645	24724.7125
3197.35725	24665.3125
3199.66667	24658.5125
3201.97469	24650.8125
3204.28132	24611.9125
3206.58656	24622.8125
3208.8904	24597.2125
3211.19287	24592.7125
3213.49394	24555.9125
3215.79363	24542.6125
3218.09193	24552.6125
3220.38884	24529.3125
3222.68438	24560.4125
3224.97853	24508.5125
3227.2713	24531.6125
3229.56269	24467.6125
3231.8527	24424.2125
3234.14133	24348.4125
3236.42858	24342.8125
3238.71446	24321.2125
3240.99896	24227.9125
3243.28209	24236.7125
3245.56384	24180.4125
3247.84423	24208.4125
3250.12324	24148.2125
3252.40088	24089.5125
3254.67715	24036.8125
3256.95205	24000.2125
3259.22558	23967.0125
3261.49775	23924.7125
3263.76855	23877.4125
3266.03799	23824.3125
3268.30606	23772.9125
3270.57277	23773.0125
3272.83812	23692.1125
3275.10211	23666.6125
3277.36474	23643.7125
3279.62601	23669.7125
3281.88593	23659.9125
3284.14448	23652.8125
3286.40168	23578.1125
3288.65753	23579.4125
3290.91202	23510.3125
3293.16516	23468.1125
3295.41695	23388.7125
3297.66738	23256.3125
3299.91647	23097.9125
3302.16421	22953.0125
3304.4106	22882.3125
3306.65564	22772.2125
3308.89933	22598.5125
3311.14169	22423.4125
3313.38269	22229.4125
3315.62236	22137.7125
3317.86068	21914.7125
3320.09766	21721.4125
3322.3333	21525.6125
3324.5676	21494.7125
3326.80056	21136.3125
3329.03219	21035.3125
3331.26248	5.8125
3333.49143	0.4125
3335.71905	-0.8875
