Data from AgNP_FTO_APTES_CRN_200uM_R6G_10uM_NaF_0.1M_Addition_RamanShift__35__19-57-48-203.txt Node

Date: Wed Dec 15 19:57:48 GMT 2021
User: TCL
Spectrometer: QEP01345
Trigger mode: 4
Integration Time (sec): 7.000000E0
Scans to average: 10
Electric dark correction enabled: true
Nonlinearity correction enabled: false
Boxcar width: 0
XAxis mode: Raman Shifts
Number of Pixels in Spectrum: 1044
>>>>>Begin Spectral Data<<<<<
46.04893	1.2125
50.45542	-1.8875
54.85868	-0.2875
59.25871	-0.7875
63.6555	39.7125
68.04907	44.9125
72.43941	48.1125
76.82654	48.5125
81.21044	51.3125
85.59113	54.1125
89.96862	58.8125
94.34289	60.2125
98.71396	63.2125
103.08183	64.5125
107.4465	63.1125
111.80798	65.8125
116.16626	65.4125
120.52136	68.5125
124.87327	67.8125
129.222	70.4125
133.56755	71.0125
137.90993	73.8125
142.24913	80.9125
146.58517	87.7125
150.91804	94.1125
155.24774	104.5125
159.57429	134.0125
163.89768	160.9125
168.21792	205.7125
172.53501	274.2125
176.84895	371.2125
181.15975	516.5125
185.46741	710.2125
189.77193	977.4125
194.07331	1298.6125
198.37157	1669.0125
202.6667	2060.0125
206.9587	2442.5125
211.24758	2840.1125
215.53334	3235.9125
219.81599	3685.6125
224.09553	4201.6125
228.37195	4773.8125
232.64527	5373.0125
236.91549	5956.1125
241.18261	6478.6125
245.44663	6916.2125
249.70755	7256.7125
253.96539	7505.8125
258.22014	7764.8125
262.4718	7997.2125
266.72039	8178.0125
270.96589	8257.9125
275.20832	8252.2125
279.44768	8146.0125
283.68397	8025.4125
287.91719	7954.4125
292.14735	7971.1125
296.37445	8153.5125
300.59849	8479.7125
304.81948	8891.6125
309.03742	9198.4125
313.25231	9183.2125
317.46415	8806.4125
321.67296	8076.5125
325.87872	7501.2125
330.08145	7212.7125
334.28114	7182.7125
338.47781	7305.5125
342.67145	7536.2125
346.86207	7875.6125
351.04966	8396.7125
355.23424	8959.7125
359.4158	9399.7125
363.59435	9582.4125
367.76989	9618.0125
371.94243	9571.5125
376.11196	9501.5125
380.27849	9423.5125
384.44203	9283.7125
388.60257	9137.2125
392.76012	9059.8125
396.91468	9117.9125
401.06626	9362.8125
405.21485	9556.2125
409.36047	9364.0125
413.50311	8841.1125
417.64277	8348.0125
421.77947	8066.6125
425.9132	7945.6125
430.04396	7955.8125
434.17176	8007.1125
438.2966	8132.7125
442.41849	8341.8125
446.53742	8649.4125
450.6534	8887.4125
454.76644	9038.3125
458.87653	9034.1125
462.98368	8918.0125
467.08789	8751.3125
471.18916	8567.6125
475.2875	8358.9125
479.38291	8176.0125
483.4754	8006.4125
487.56496	7912.0125
491.6516	7791.6125
495.73531	7773.0125
499.81612	7797.9125
503.89401	7910.2125
507.96899	8041.9125
512.04106	8225.3125
516.11023	8418.7125
520.1765	8573.2125
524.23987	8606.5125
528.30034	8436.5125
532.35792	8241.0125
536.41261	8024.5125
540.46441	7802.8125
544.51333	7673.8125
548.55936	7732.2125
552.60252	7874.4125
556.64279	8102.8125
560.6802	8249.2125
564.71473	8370.7125
568.7464	8717.4125
572.7752	8917.0125
576.80114	8603.3125
580.82422	8214.9125
584.84444	8050.9125
588.86181	8035.3125
592.87633	8175.9125
596.888	8284.0125
600.89682	8573.4125
604.9028	9606.4125
608.90594	12433.9125
612.90624	16177.2125
616.90371	15569.0125
620.89834	10737.7125
624.89015	8406.7125
628.87913	7913.4125
632.86528	7955.6125
636.84862	8110.2125
640.82913	8019.4125
644.80683	7704.1125
648.78172	7508.6125
652.75379	7577.0125
656.72306	7938.6125
660.68952	8349.4125
664.65319	8248.3125
668.61405	7814.8125
672.57211	7615.2125
676.52738	7611.2125
680.47986	7612.2125
684.42955	7587.7125
688.37646	7507.0125
692.32058	7559.4125
696.26192	7629.0125
700.20048	7713.5125
704.13626	7761.1125
708.06928	7744.9125
711.99952	7661.6125
715.927	7599.5125
719.85171	7597.6125
723.77365	7591.8125
727.69284	7482.0125
731.60928	7398.0125
735.52295	7384.5125
739.43388	7402.7125
743.34206	7412.8125
747.24749	7422.8125
751.15017	7450.8125
755.05012	7599.8125
758.94733	8014.4125
762.8418	8945.2125
766.73354	10537.3125
770.62254	12203.0125
774.50882	13099.7125
778.39237	12574.7125
782.27321	10836.6125
786.15132	9059.6125
790.02671	8044.3125
793.89938	7608.7125
797.76935	7433.9125
801.6366	7325.3125
805.50115	7269.1125
809.36299	7240.7125
813.22213	7196.5125
817.07857	7204.5125
820.93231	7209.3125
824.78336	7210.7125
828.63172	7284.5125
832.47738	7296.7125
836.32036	7287.4125
840.16066	7241.3125
843.99827	7173.1125
847.8332	7129.0125
851.66546	7103.9125
855.49504	7113.6125
859.32195	7087.6125
863.1462	7041.1125
866.96777	7008.1125
870.78668	6995.3125
874.60293	7026.1125
878.41652	7013.5125
882.22745	7036.1125
886.03573	7061.3125
889.84136	7037.0125
893.64433	6999.4125
897.44466	6994.7125
901.24235	6997.3125
905.0374	6973.6125
908.8298	6964.2125
912.61957	6924.2125
916.40671	6983.6125
920.19121	7010.6125
923.97308	7065.0125
927.75233	7164.9125
931.52895	7262.0125
935.30295	7165.2125
939.07433	6969.9125
942.84309	6740.6125
946.60924	6616.2125
950.37278	6560.0125
954.13371	6524.2125
957.89203	6489.6125
961.64774	6463.1125
965.40086	6453.3125
969.15137	6432.7125
972.89929	6392.0125
976.64461	6388.4125
980.38733	6395.9125
984.12747	6389.0125
987.86502	6425.2125
991.59999	6444.8125
995.33237	6488.1125
999.06217	6592.4125
1002.78939	6729.8125
1006.51404	6855.7125
1010.23611	6999.6125
1013.95561	7099.4125
1017.67255	7048.5125
1021.38692	6951.9125
1025.09872	6841.5125
1028.80796	6761.8125
1032.51465	6748.9125
1036.21877	6838.4125
1039.92035	6936.8125
1043.61937	7006.0125
1047.31584	7031.0125
1051.00976	7052.2125
1054.70114	7020.8125
1058.38998	7024.5125
1062.07627	7070.3125
1065.76003	7170.9125
1069.44126	7311.8125
1073.11995	7514.6125
1076.79611	7721.7125
1080.46974	7876.2125
1084.14085	8002.6125
1087.80943	8094.0125
1091.47549	8034.9125
1095.13903	7777.4125
1098.80005	7451.0125
1102.45857	7181.4125
1106.11456	7102.5125
1109.76805	7166.2125
1113.41903	7326.0125
1117.06751	7607.1125
1120.71348	7960.0125
1124.35696	8381.4125
1127.99793	8695.7125
1131.63641	8633.2125
1135.2724	8185.2125
1138.90589	7747.7125
1142.5369	7487.5125
1146.16542	7304.7125
1149.79145	7187.6125
1153.415	7203.8125
1157.03607	7252.9125
1160.65467	7434.8125
1164.27079	7700.2125
1167.88443	8149.2125
1171.49561	8901.5125
1175.10432	10145.6125
1178.71056	11744.5125
1182.31434	12741.3125
1185.91565	12766.9125
1189.51451	12256.9125
1193.11091	11421.1125
1196.70485	10489.8125
1200.29634	9831.5125
1203.88538	9322.3125
1207.47197	8717.8125
1211.05612	8226.4125
1214.63782	7952.6125
1218.21708	7909.0125
1221.79391	7882.4125
1225.36829	7916.5125
1228.94024	7936.5125
1232.50976	7921.7125
1236.07685	7949.5125
1239.6415	7995.6125
1243.20374	8057.4125
1246.76355	8100.2125
1250.32093	8202.6125
1253.8759	8389.3125
1257.42845	8618.2125
1260.97859	8878.0125
1264.52631	9163.4125
1268.07163	9431.3125
1271.61453	9658.9125
1275.15503	9807.3125
1278.69312	9800.0125
1282.22882	9803.7125
1285.76211	10008.7125
1289.29301	10342.6125
1292.82151	10714.0125
1296.34761	11096.6125
1299.87133	11656.1125
1303.39266	12568.5125
1306.9116	14101.1125
1310.42815	15865.2125
1313.94233	16841.9125
1317.45412	16464.2125
1320.96354	15142.0125
1324.47058	13707.8125
1327.97525	12528.3125
1331.47754	11811.2125
1334.97747	11569.4125
1338.47502	11673.8125
1341.97022	12000.7125
1345.46305	12564.4125
1348.95352	13466.2125
1352.44163	14787.1125
1355.92738	16624.8125
1359.41078	19269.7125
1362.89183	21684.0125
1366.37053	20989.9125
1369.84688	17676.6125
1373.32088	14381.0125
1376.79254	12257.9125
1380.26186	11204.4125
1383.72883	10607.4125
1387.19347	10147.2125
1390.65578	9655.5125
1394.11575	9234.5125
1397.57339	9022.7125
1401.0287	9006.8125
1404.48168	9060.7125
1407.93234	9113.3125
1411.38068	9162.9125
1414.82669	9152.2125
1418.27039	9029.6125
1421.71177	8889.1125
1425.15083	8771.9125
1428.58758	8660.0125
1432.02203	8692.9125
1435.45416	8827.9125
1438.88399	8892.0125
1442.31151	8866.3125
1445.73673	8885.1125
1449.15965	8915.8125
1452.58027	8865.6125
1455.9986	8770.3125
1459.41463	8738.5125
1462.82837	8836.5125
1466.23982	9030.8125
1469.64898	9255.2125
1473.05586	9448.0125
1476.46045	9572.2125
1479.86276	9789.3125
1483.26279	10002.1125
1486.66054	10253.5125
1490.05602	10625.0125
1493.44922	11116.7125
1496.84016	11916.1125
1500.22882	13162.2125
1503.61521	14848.5125
1506.99934	16767.6125
1510.38121	18565.0125
1513.76081	19479.6125
1517.13816	18499.0125
1520.51324	16099.4125
1523.88607	13663.5125
1527.25665	11979.1125
1530.62498	11083.5125
1533.99105	10590.6125
1537.35488	10261.0125
1540.71647	10085.5125
1544.07581	9982.6125
1547.4329	9915.0125
1550.78776	9892.6125
1554.14038	9868.7125
1557.49077	9918.3125
1560.83892	10093.7125
1564.18484	10418.0125
1567.52853	10837.1125
1570.86999	11281.5125
1574.20922	11642.0125
1577.54624	11728.6125
1580.88103	11258.0125
1584.2136	10400.8125
1587.54395	9751.4125
1590.87208	9570.9125
1594.19801	9911.0125
1597.52172	10551.2125
1600.84321	10885.6125
1604.16251	10549.3125
1607.47959	9907.5125
1610.79447	9147.6125
1614.10715	8466.7125
1617.41763	7899.2125
1620.7259	7554.5125
1624.03199	7400.3125
1627.33587	7405.5125
1630.63757	7503.4125
1633.93707	7819.8125
1637.23439	8319.8125
1640.52951	9120.4125
1643.82246	10331.0125
1647.11321	11820.7125
1650.40179	12958.6125
1653.68819	12747.6125
1656.97241	11136.0125
1660.25446	9250.7125
1663.53433	7881.4125
1666.81203	7104.3125
1670.08756	6655.6125
1673.36092	6393.4125
1676.63211	6199.9125
1679.90115	6102.7125
1683.16801	6015.6125
1686.43272	5927.6125
1689.69527	5871.3125
1692.95567	5853.5125
1696.2139	5839.8125
1699.46999	5846.6125
1702.72392	5822.8125
1705.97571	5792.2125
1709.22535	5753.8125
1712.47284	5760.2125
1715.71819	5759.4125
1718.96139	5749.3125
1722.20246	5733.7125
1725.44139	5723.9125
1728.67818	5673.7125
1731.91284	5607.8125
1735.14537	5578.8125
1738.37576	5516.4125
1741.60403	5512.5125
1744.83017	5498.4125
1748.05418	5471.8125
1751.27607	5458.3125
1754.49584	5470.7125
1757.71349	5459.2125
1760.92903	5450.6125
1764.14244	5441.6125
1767.35375	5433.2125
1770.56294	5394.7125
1773.77002	5380.5125
1776.97499	5352.5125
1780.17785	5317.4125
1783.37861	5301.0125
1786.57727	5292.3125
1789.77382	5273.6125
1792.96828	5273.7125
1796.16064	5263.8125
1799.3509	5248.3125
1802.53907	5226.6125
1805.72514	5215.8125
1808.90913	5215.2125
1812.09102	5181.8125
1815.27083	5152.7125
1818.44856	5149.0125
1821.6242	5133.2125
1824.79776	5122.2125
1827.96924	5125.8125
1831.13864	5110.1125
1834.30597	5096.1125
1837.47122	5103.7125
1840.6344	5088.5125
1843.7955	5086.0125
1846.95454	5083.7125
1850.11151	5071.0125
1853.26642	5051.1125
1856.41926	5049.9125
1859.57004	5060.6125
1862.71876	5037.6125
1865.86542	5061.2125
1869.01003	5049.5125
1872.15258	5039.1125
1875.29308	5051.7125
1878.43152	5038.8125
1881.56792	5035.7125
1884.70227	5022.5125
1887.83457	5042.1125
1890.96482	5014.9125
1894.09304	5015.8125
1897.21921	5016.5125
1900.34335	4997.0125
1903.46544	5006.8125
1906.58551	5010.5125
1909.70353	4996.7125
1912.81953	4988.3125
1915.93349	5010.4125
1919.04543	4971.8125
1922.15534	4978.5125
1925.26322	4960.9125
1928.36908	4965.9125
1931.47292	4938.3125
1934.57473	4918.3125
1937.67453	4896.6125
1940.77232	4883.9125
1943.86808	4864.3125
1946.96184	4862.2125
1950.05358	4841.4125
1953.14331	4808.2125
1956.23103	4807.1125
1959.31675	4785.8125
1962.40046	4773.2125
1965.48217	4767.8125
1968.56188	4737.5125
1971.63959	4742.9125
1974.7153	4731.2125
1977.78901	4704.4125
1980.86073	4706.6125
1983.93046	4668.1125
1986.99819	4658.3125
1990.06394	4639.0125
1993.1277	4612.3125
1996.18947	4603.1125
1999.24925	4574.8125
2002.30706	4563.0125
2005.36288	4558.2125
2008.41672	4531.9125
2011.46859	4537.8125
2014.51848	4517.7125
2017.56639	4497.8125
2020.61233	4506.7125
2023.6563	4474.2125
2026.6983	4473.6125
2029.73833	4453.7125
2032.7764	4449.6125
2035.8125	4456.9125
2038.84664	4430.1125
2041.87881	4410.3125
2044.90903	4414.3125
2047.93729	4404.2125
2050.96359	4395.1125
2053.98794	4392.2125
2057.01034	4375.2125
2060.03078	4364.5125
2063.04927	4371.5125
2066.06582	4360.0125
2069.08042	4346.8125
2072.09307	4340.6125
2075.10378	4331.7125
2078.11255	4329.3125
2081.11938	4332.5125
2084.12426	4334.4125
2087.12722	4319.9125
2090.12824	4322.4125
2093.12732	4333.4125
2096.12447	4321.0125
2099.11969	4329.6125
2102.11299	4325.8125
2105.10435	4321.2125
2108.09379	4326.9125
2111.08131	4319.5125
2114.0669	4327.3125
2117.05057	4319.9125
2120.03233	4335.3125
2123.01216	4326.7125
2125.99008	4346.9125
2128.96609	4350.0125
2131.94018	4346.6125
2134.91236	4334.4125
2137.88263	4348.5125
2140.851	4341.7125
2143.81746	4353.3125
2146.78201	4372.4125
2149.74466	4328.0125
2152.7054	4330.0125
2155.66425	4332.8125
2158.6212	4346.8125
2161.57625	4316.0125
2164.52941	4320.5125
2167.48067	4315.0125
2170.43004	4314.8125
2173.37752	4313.1125
2176.32311	4307.0125
2179.26681	4311.0125
2182.20863	4309.0125
2185.14856	4306.8125
2188.08661	4303.0125
2191.02278	4301.0125
2193.95707	4284.6125
2196.88948	4282.4125
2199.82001	4274.6125
2202.74867	4264.9125
2205.67545	4270.4125
2208.60037	4280.6125
2211.52341	4262.4125
2214.44458	4238.1125
2217.36388	4236.3125
2220.28132	4224.6125
2223.1969	4214.1125
2226.11061	4199.7125
2229.02246	4197.0125
2231.93245	4167.3125
2234.84058	4160.2125
2237.74686	4172.5125
2240.65128	4154.1125
2243.55385	4148.6125
2246.45456	4138.6125
2249.35343	4129.7125
2252.25044	4153.6125
2255.14561	4132.8125
2258.03893	4141.6125
2260.93041	4155.9125
2263.82004	4137.9125
2266.70783	4122.4125
2269.59378	4112.3125
2272.4779	4103.3125
2275.36017	4080.9125
2278.24061	4075.2125
2281.11922	4067.2125
2283.996	4053.7125
2286.87094	4037.2125
2289.74405	4029.3125
2292.61534	4013.2125
2295.4848	4017.4125
2298.35243	4013.0125
2301.21824	4010.3125
2304.08223	3987.7125
2306.94439	3982.4125
2309.80474	3999.9125
2312.66327	3996.8125
2315.51999	3973.6125
2318.37489	3986.2125
2321.22797	3969.1125
2324.07925	3973.2125
2326.92871	3967.1125
2329.77637	3976.0125
2332.62222	3954.0125
2335.46626	3932.8125
2338.3085	3942.5125
2341.14893	3941.0125
2343.98756	3918.8125
2346.8244	3928.8125
2349.65943	3930.4125
2352.49267	3937.0125
2355.32411	3946.4125
2358.15376	3937.5125
2360.98161	3953.0125
2363.80768	3959.7125
2366.63195	3973.4125
2369.45444	3962.0125
2372.27514	3962.9125
2375.09405	3953.4125
2377.91118	3938.0125
2380.72652	3925.2125
2383.54009	3908.1125
2386.35187	3890.9125
2389.16188	3865.9125
2391.97011	3844.6125
2394.77657	3842.7125
2397.58125	3839.9125
2400.38416	3823.3125
2403.18529	3798.8125
2405.98466	3794.8125
2408.78226	3799.4125
2411.57809	3784.3125
2414.37216	3787.1125
2417.16446	3778.9125
2419.955	3764.5125
2422.74378	3762.4125
2425.5308	3755.6125
2428.31606	3769.4125
2431.09956	3759.3125
2433.88131	3740.5125
2436.6613	3744.0125
2439.43954	3757.5125
2442.21603	3752.1125
2444.99077	3756.5125
2447.76377	3748.7125
2450.53501	3742.9125
2453.30451	3742.7125
2456.07226	3739.1125
2458.83827	3730.1125
2461.60254	3745.6125
2464.36507	3743.6125
2467.12586	3728.7125
2469.88492	3728.1125
2472.64224	3722.3125
2475.39782	3732.5125
2478.15167	3724.1125
2480.90379	3738.7125
2483.65417	3745.9125
2486.40283	3750.1125
2489.14976	3745.2125
2491.89497	3756.4125
2494.63845	3759.3125
2497.3802	3758.5125
2500.12024	3740.0125
2502.85855	3732.2125
2505.59514	3714.1125
2508.33002	3696.1125
2511.06318	3679.4125
2513.79462	3692.1125
2516.52435	3661.0125
2519.25237	3654.2125
2521.97867	3627.9125
2524.70327	3617.4125
2527.42616	3625.1125
2530.14734	3614.9125
2532.86681	3616.6125
2535.58458	3595.7125
2538.30065	3604.5125
2541.01501	3596.4125
2543.72768	3589.4125
2546.43864	3595.3125
2549.14791	3589.6125
2551.85548	3580.4125
2554.56136	3585.8125
2557.26554	3575.5125
2559.96803	3560.9125
2562.66883	3565.3125
2565.36794	3558.8125
2568.06536	3558.8125
2570.7611	3539.0125
2573.45514	3537.9125
2576.14751	3531.3125
2578.83819	3534.2125
2581.52719	3514.1125
2584.21451	3522.0125
2586.90015	3504.2125
2589.58411	3497.0125
2592.2664	3493.4125
2594.94701	3489.8125
2597.62594	3481.7125
2600.30321	3475.3125
2602.9788	3475.1125
2605.65273	3465.3125
2608.32498	3450.3125
2610.99557	3448.7125
2613.66449	3453.8125
2616.33175	3453.7125
2618.99734	3451.3125
2621.66128	3436.6125
2624.32355	3436.5125
2626.98416	3419.9125
2629.64311	3439.5125
2632.30041	3415.3125
2634.95605	3419.9125
2637.61004	3411.2125
2640.26238	3394.8125
2642.91306	3405.1125
2645.56209	3390.7125
2648.20948	3387.7125
2650.85521	3388.1125
2653.4993	3379.3125
2656.14175	3382.1125
2658.78255	3379.2125
2661.42171	3386.5125
2664.05923	3409.7125
2666.6951	3404.0125
2669.32934	3399.4125
2671.96194	3389.5125
2674.59291	3394.9125
2677.22224	3409.7125
2679.84993	3405.3125
2682.476	3413.4125
2685.10043	3406.4125
2687.72324	3395.8125
2690.34441	3400.6125
2692.96396	3419.6125
2695.58188	3397.7125
2698.19818	3400.7125
2700.81285	3410.4125
2703.4259	3415.8125
2706.03733	3472.4125
2708.64714	3442.7125
2711.25533	3437.4125
2713.86191	3444.8125
2716.46687	3428.9125
2719.07021	3429.2125
2721.67194	3427.9125
2724.27206	3418.5125
2726.87057	3419.4125
2729.46747	3428.8125
2732.06276	3420.4125
2734.65644	3407.4125
2737.24852	3409.0125
2739.83899	3399.7125
2742.42786	3391.0125
2745.01513	3392.5125
2747.60079	3378.0125
2750.18486	3374.0125
2752.76733	3351.9125
2755.3482	3364.5125
2757.92747	3356.0125
2760.50515	3349.0125
2763.08123	3343.3125
2765.65573	3339.8125
2768.22863	3327.1125
2770.79994	3336.5125
2773.36967	3324.0125
2775.9378	3325.3125
2778.50435	3323.6125
2781.06932	3321.0125
2783.6327	3318.0125
2786.1945	3321.1125
2788.75471	3319.7125
2791.31335	3320.0125
2793.87041	3312.3125
2796.42589	3317.0125
2798.97979	3308.9125
2801.53212	3317.4125
2804.08288	3316.8125
2806.63206	3316.3125
2809.17967	3303.5125
2811.72571	3303.9125
2814.27018	3314.5125
2816.81308	3309.6125
2819.35442	3318.6125
2821.89419	3310.1125
2824.43239	3321.3125
2826.96904	3333.9125
2829.50412	3328.5125
2832.03763	3341.2125
2834.56959	3346.0125
2837.1	3356.1125
2839.62884	3381.5125
2842.15613	3395.1125
2844.68186	3458.6125
2847.20604	3510.2125
2849.72867	3553.3125
2852.24974	3577.8125
2854.76927	3599.3125
2857.28724	3597.1125
2859.80367	3565.7125
2862.31855	3556.8125
2864.83189	3527.6125
2867.34368	3518.8125
2869.85393	3510.2125
2872.36264	3503.6125
2874.8698	3498.5125
2877.37543	3499.9125
2879.87952	3509.7125
2882.38207	3506.7125
2884.88308	3510.2125
2887.38256	3502.8125
2889.88051	3498.5125
2892.37692	3509.8125
2894.8718	3503.6125
2897.36515	3497.1125
2899.85698	3516.4125
2902.34727	3521.3125
2904.83604	3516.4125
2907.32328	3515.9125
2909.809	3526.4125
2912.29319	3518.6125
2914.77587	3523.0125
2917.25702	3499.7125
2919.73665	3491.7125
2922.21476	3498.2125
2924.69136	3494.0125
2927.16644	3474.6125
2929.64	3475.6125
2932.11205	3446.5125
2934.58258	3441.6125
2937.05161	3433.6125
2939.51912	3421.7125
2941.98513	3388.4125
2944.44962	3359.4125
2946.91261	3311.1125
2949.37409	3305.3125
2951.83407	3274.2125
2954.29254	3263.2125
2956.74951	3259.1125
2959.20498	3228.8125
2961.65895	3211.2125
2964.11142	3219.7125
2966.56239	3191.3125
2969.01186	3193.4125
2971.45984	3171.7125
2973.90632	3160.5125
2976.35131	3149.7125
2978.7948	3131.7125
2981.23681	3132.6125
2983.67732	3122.0125
2986.11635	3121.9125
2988.55388	3100.6125
2990.98993	3092.2125
2993.4245	3082.6125
2995.85758	3073.4125
2998.28917	3065.4125
3000.71928	3065.2125
3003.14791	3057.3125
3005.57506	3057.7125
3008.00073	3056.5125
3010.42493	3045.5125
3012.84764	3017.3125
3015.26888	3045.6125
3017.68865	3045.8125
3020.10694	3036.5125
3022.52376	3022.3125
3024.9391	3012.3125
3027.35298	3025.2125
3029.76539	3023.1125
3032.17632	3009.2125
3034.5858	3007.8125
3036.9938	3019.9125
3039.40034	2990.1125
3041.80542	2990.0125
3044.20903	2993.7125
3046.61118	2996.8125
3049.01187	2991.8125
3051.4111	2983.6125
3053.80888	2977.0125
3056.20519	2976.2125
3058.60005	2970.7125
3060.99345	2969.0125
3063.3854	2965.7125
3065.7759	2965.9125
3068.16494	2954.4125
3070.55254	2966.8125
3072.93868	2965.4125
3075.32338	2946.1125
3077.70662	2951.6125
3080.08842	2945.7125
3082.46878	2942.3125
3084.84769	2936.4125
3087.22515	2933.5125
3089.60118	2936.8125
3091.97576	2927.1125
3094.3489	2924.1125
3096.72061	2944.1125
3099.09087	2934.3125
3101.4597	2924.3125
3103.82709	2924.3125
3106.19305	2932.0125
3108.55757	2932.8125
3110.92066	2917.4125
3113.28232	2904.2125
3115.64255	2919.3125
3118.00134	2902.2125
3120.35871	2919.7125
3122.71466	2912.3125
3125.06917	2917.3125
3127.42226	2909.6125
3129.77393	2919.4125
3132.12417	2940.8125
3134.47299	2935.7125
3136.82039	2941.2125
3139.16636	2946.1125
3141.51092	2959.7125
3143.85406	2960.5125
3146.19579	2967.8125
3148.53609	2977.2125
3150.87499	2975.0125
3153.21246	2981.5125
3155.54853	2991.2125
3157.88318	2982.9125
3160.21642	2999.8125
3162.54826	2994.0125
3164.87868	2992.3125
3167.2077	3009.0125
3169.5353	3014.7125
3171.86151	3010.3125
3174.18631	3022.5125
3176.5097	3019.4125
3178.83169	3008.5125
3181.15228	3020.3125
3183.47147	3018.4125
3185.78926	3023.4125
3188.10565	3030.2125
3190.42065	3043.6125
3192.73424	3048.8125
3195.04645	3043.7125
3197.35725	3055.8125
3199.66667	3050.6125
3201.97469	3061.2125
3204.28132	3063.9125
3206.58656	3076.6125
3208.8904	3065.5125
3211.19287	3081.3125
3213.49394	3084.2125
3215.79363	3076.5125
3218.09193	3082.9125
3220.38884	3084.0125
3222.68438	3111.1125
3224.97853	3099.0125
3227.2713	3098.8125
3229.56269	3094.7125
3231.8527	3086.2125
3234.14133	3069.5125
3236.42858	3092.1125
3238.71446	3088.3125
3240.99896	3078.9125
3243.28209	3076.4125
3245.56384	3063.1125
3247.84423	3085.4125
3250.12324	3071.7125
3252.40088	3085.3125
3254.67715	3069.9125
3256.95205	3073.7125
3259.22558	3070.7125
3261.49775	3061.4125
3263.76855	3060.8125
3266.03799	3056.6125
3268.30606	3060.2125
3270.57277	3062.9125
3272.83812	3039.8125
3275.10211	3034.8125
3277.36474	3040.3125
3279.62601	3036.3125
3281.88593	3039.1125
3284.14448	3045.1125
3286.40168	3044.7125
3288.65753	3043.6125
3290.91202	3036.7125
3293.16516	3018.5125
3295.41695	3021.6125
3297.66738	2996.2125
3299.91647	2984.3125
3302.16421	2971.6125
3304.4106	2966.6125
3306.65564	2942.1125
3308.89933	2931.3125
3311.14169	2919.2125
3313.38269	2904.5125
3315.62236	2885.5125
3317.86068	2854.3125
3320.09766	2828.8125
3322.3333	2814.8125
3324.5676	2812.8125
3326.80056	2766.3125
3329.03219	2745.2125
3331.26248	1.8125
3333.49143	-0.3875
3335.71905	0.6125
