Data from AgNP_FTO_APTES_CRN_0uM_R6G_10uM_NaF_0.1M_Addition_RamanShift__36__12-11-42-940.txt Node

Date: Wed Dec 15 12:11:42 GMT 2021
User: TCL
Spectrometer: QEP01345
Trigger mode: 4
Integration Time (sec): 7.000000E0
Scans to average: 10
Electric dark correction enabled: true
Nonlinearity correction enabled: false
Boxcar width: 0
XAxis mode: Raman Shifts
Number of Pixels in Spectrum: 1044
>>>>>Begin Spectral Data<<<<<
46.04893	1.5375
50.45542	-0.9625
54.85868	-1.3625
59.25871	0.2375
63.6555	63.9375
68.04907	73.4375
72.43941	75.2375
76.82654	82.7375
81.21044	88.6375
85.59113	92.8375
89.96862	99.1375
94.34289	99.6375
98.71396	107.4375
103.08183	107.3375
107.4465	112.2375
111.80798	110.3375
116.16626	114.0375
120.52136	112.9375
124.87327	106.9375
129.222	106.0375
133.56755	104.2375
137.90993	107.8375
142.24913	107.0375
146.58517	109.1375
150.91804	111.5375
155.24774	116.8375
159.57429	128.8375
163.89768	149.0375
168.21792	167.3375
172.53501	204.1375
176.84895	258.9375
181.15975	331.4375
185.46741	425.8375
189.77193	561.9375
194.07331	736.5375
198.37157	927.6375
202.6667	1123.4375
206.9587	1307.4375
211.24758	1499.9375
215.53334	1674.6375
219.81599	1879.8375
224.09553	2114.0375
228.37195	2367.2375
232.64527	2633.0375
236.91549	2922.9375
241.18261	3174.0375
245.44663	3366.7375
249.70755	3545.9375
253.96539	3682.5375
258.22014	3795.2375
262.4718	3884.9375
266.72039	3974.4375
270.96589	4007.9375
275.20832	3985.6375
279.44768	3951.3375
283.68397	3833.4375
287.91719	3782.6375
292.14735	3762.3375
296.37445	3803.1375
300.59849	3925.8375
304.81948	4063.1375
309.03742	4188.7375
313.25231	4168.8375
317.46415	3945.0375
321.67296	3659.3375
325.87872	3412.8375
330.08145	3315.3375
334.28114	3305.4375
338.47781	3361.3375
342.67145	3454.0375
346.86207	3606.3375
351.04966	3829.7375
355.23424	4087.9375
359.4158	4280.0375
363.59435	4388.9375
367.76989	4424.8375
371.94243	4419.8375
376.11196	4401.9375
380.27849	4371.6375
384.44203	4305.7375
388.60257	4241.9375
392.76012	4181.6375
396.91468	4192.1375
401.06626	4268.3375
405.21485	4367.2375
409.36047	4309.0375
413.50311	4076.5375
417.64277	3872.0375
421.77947	3747.7375
425.9132	3691.5375
430.04396	3695.4375
434.17176	3727.4375
438.2966	3805.0375
442.41849	3899.0375
446.53742	4041.6375
450.6534	4162.2375
454.76644	4240.8375
458.87653	4230.7375
462.98368	4159.3375
467.08789	4075.6375
471.18916	4004.4375
475.2875	3904.6375
479.38291	3816.4375
483.4754	3766.6375
487.56496	3709.1375
491.6516	3676.9375
495.73531	3674.5375
499.81612	3672.5375
503.89401	3733.5375
507.96899	3776.3375
512.04106	3894.2375
516.11023	3986.7375
520.1765	4080.6375
524.23987	4083.9375
528.30034	3991.8375
532.35792	3873.0375
536.41261	3764.0375
540.46441	3650.9375
544.51333	3574.2375
548.55936	3563.1375
552.60252	3626.6375
556.64279	3707.3375
560.6802	3721.4375
564.71473	3760.6375
568.7464	3867.8375
572.7752	3914.6375
576.80114	3776.7375
580.82422	3601.2375
584.84444	3513.7375
588.86181	3517.4375
592.87633	3574.2375
596.888	3633.9375
600.89682	3775.6375
604.9028	4180.4375
608.90594	5338.7375
612.90624	6912.9375
616.90371	6731.3375
620.89834	4727.3375
624.89015	3715.5375
628.87913	3460.7375
632.86528	3440.8375
636.84862	3494.3375
640.82913	3472.4375
644.80683	3360.1375
648.78172	3301.1375
652.75379	3389.1375
656.72306	3611.0375
660.68952	3796.7375
664.65319	3690.1375
668.61405	3440.3375
672.57211	3303.1375
676.52738	3287.9375
680.47986	3299.8375
684.42955	3279.3375
688.37646	3274.2375
692.32058	3316.1375
696.26192	3359.1375
700.20048	3450.4375
704.13626	3536.5375
708.06928	3514.6375
711.99952	3472.6375
715.927	3435.2375
719.85171	3408.6375
723.77365	3402.1375
727.69284	3364.8375
731.60928	3320.7375
735.52295	3324.6375
739.43388	3345.5375
743.34206	3362.4375
747.24749	3364.9375
751.15017	3367.3375
755.05012	3431.6375
758.94733	3576.2375
762.8418	3924.4375
766.73354	4531.9375
770.62254	5239.7375
774.50882	5751.2375
778.39237	5658.9375
782.27321	4947.5375
786.15132	4170.5375
790.02671	3750.3375
793.89938	3571.3375
797.76935	3492.9375
801.6366	3430.7375
805.50115	3409.4375
809.36299	3381.4375
813.22213	3368.8375
817.07857	3374.9375
820.93231	3386.5375
824.78336	3365.1375
828.63172	3373.0375
832.47738	3388.1375
836.32036	3383.2375
840.16066	3383.8375
843.99827	3363.7375
847.8332	3367.5375
851.66546	3378.1375
855.49504	3382.8375
859.32195	3369.0375
863.1462	3295.8375
866.96777	3267.3375
870.78668	3252.0375
874.60293	3245.3375
878.41652	3236.3375
882.22745	3257.0375
886.03573	3278.9375
889.84136	3284.9375
893.64433	3285.3375
897.44466	3302.4375
901.24235	3319.9375
905.0374	3320.3375
908.8298	3320.7375
912.61957	3321.5375
916.40671	3367.7375
920.19121	3413.1375
923.97308	3468.8375
927.75233	3520.8375
931.52895	3564.3375
935.30295	3570.2375
939.07433	3494.3375
942.84309	3411.0375
946.60924	3343.5375
950.37278	3311.7375
954.13371	3270.5375
957.89203	3222.6375
961.64774	3194.3375
965.40086	3189.3375
969.15137	3140.4375
972.89929	3139.4375
976.64461	3122.6375
980.38733	3107.6375
984.12747	3107.7375
987.86502	3099.3375
991.59999	3115.2375
995.33237	3126.8375
999.06217	3152.7375
1002.78939	3177.4375
1006.51404	3223.5375
1010.23611	3269.9375
1013.95561	3294.7375
1017.67255	3279.8375
1021.38692	3251.0375
1025.09872	3201.4375
1028.80796	3187.4375
1032.51465	3229.9375
1036.21877	3330.9375
1039.92035	3465.0375
1043.61937	3518.0375
1047.31584	3486.0375
1051.00976	3429.3375
1054.70114	3359.8375
1058.38998	3274.7375
1062.07627	3266.2375
1065.76003	3263.4375
1069.44126	3304.1375
1073.11995	3390.1375
1076.79611	3498.7375
1080.46974	3586.2375
1084.14085	3581.9375
1087.80943	3586.0375
1091.47549	3519.7375
1095.13903	3377.6375
1098.80005	3210.6375
1102.45857	3088.1375
1106.11456	3051.9375
1109.76805	3092.7375
1113.41903	3179.0375
1117.06751	3306.7375
1120.71348	3457.7375
1124.35696	3633.1375
1127.99793	3775.2375
1131.63641	3747.3375
1135.2724	3528.6375
1138.90589	3312.4375
1142.5369	3167.6375
1146.16542	3082.7375
1149.79145	3017.1375
1153.415	3032.3375
1157.03607	3079.7375
1160.65467	3178.0375
1164.27079	3299.8375
1167.88443	3507.3375
1171.49561	3831.4375
1175.10432	4364.4375
1178.71056	5052.8375
1182.31434	5570.8375
1185.91565	5683.5375
1189.51451	5503.0375
1193.11091	5155.5375
1196.70485	4699.0375
1200.29634	4317.0375
1203.88538	4014.4375
1207.47197	3663.5375
1211.05612	3414.0375
1214.63782	3275.4375
1218.21708	3244.1375
1221.79391	3237.6375
1225.36829	3238.6375
1228.94024	3254.5375
1232.50976	3260.9375
1236.07685	3276.8375
1239.6415	3282.7375
1243.20374	3294.1375
1246.76355	3321.9375
1250.32093	3385.6375
1253.8759	3460.1375
1257.42845	3568.3375
1260.97859	3701.6375
1264.52631	3876.8375
1268.07163	4035.7375
1271.61453	4162.0375
1275.15503	4204.2375
1278.69312	4211.7375
1282.22882	4159.8375
1285.76211	4243.3375
1289.29301	4391.8375
1292.82151	4561.4375
1296.34761	4716.4375
1299.87133	4932.7375
1303.39266	5312.0375
1306.9116	5889.6375
1310.42815	6582.2375
1313.94233	6963.9375
1317.45412	6743.9375
1320.96354	6183.4375
1324.47058	5532.8375
1327.97525	4972.3375
1331.47754	4628.0375
1334.97747	4531.8375
1338.47502	4592.5375
1341.97022	4714.5375
1345.46305	5014.1375
1348.95352	5525.7375
1352.44163	6247.2375
1355.92738	7168.7375
1359.41078	8332.5375
1362.89183	9290.7375
1366.37053	9097.7375
1369.84688	7826.0375
1373.32088	6469.5375
1376.79254	5449.9375
1380.26186	4826.9375
1383.72883	4470.9375
1387.19347	4179.1375
1390.65578	3914.0375
1394.11575	3718.0375
1397.57339	3569.8375
1401.0287	3513.6375
1404.48168	3501.0375
1407.93234	3493.2375
1411.38068	3483.4375
1414.82669	3511.1375
1418.27039	3493.5375
1421.71177	3480.7375
1425.15083	3462.3375
1428.58758	3469.3375
1432.02203	3533.4375
1435.45416	3603.5375
1438.88399	3644.7375
1442.31151	3654.2375
1445.73673	3634.2375
1449.15965	3597.4375
1452.58027	3533.0375
1455.9986	3442.0375
1459.41463	3397.3375
1462.82837	3414.9375
1466.23982	3473.4375
1469.64898	3549.6375
1473.05586	3586.9375
1476.46045	3628.8375
1479.86276	3675.7375
1483.26279	3743.5375
1486.66054	3801.8375
1490.05602	3884.3375
1493.44922	4043.9375
1496.84016	4371.0375
1500.22882	4930.4375
1503.61521	5760.8375
1506.99934	6658.9375
1510.38121	7490.7375
1513.76081	7859.1375
1517.13816	7387.0375
1520.51324	6288.5375
1523.88607	5203.7375
1527.25665	4515.0375
1530.62498	4163.1375
1533.99105	3994.7375
1537.35488	3877.9375
1540.71647	3804.2375
1544.07581	3804.6375
1547.4329	3797.3375
1550.78776	3779.4375
1554.14038	3782.7375
1557.49077	3799.4375
1560.83892	3884.0375
1564.18484	3989.4375
1567.52853	4210.9375
1570.86999	4493.2375
1574.20922	4788.0375
1577.54624	4886.9375
1580.88103	4646.1375
1584.2136	4190.5375
1587.54395	3834.9375
1590.87208	3709.4375
1594.19801	3821.6375
1597.52172	4092.6375
1600.84321	4206.3375
1604.16251	4074.1375
1607.47959	3808.0375
1610.79447	3513.1375
1614.10715	3243.0375
1617.41763	3010.3375
1620.7259	2883.7375
1624.03199	2823.5375
1627.33587	2820.2375
1630.63757	2864.9375
1633.93707	2932.8375
1637.23439	3078.5375
1640.52951	3355.7375
1643.82246	3780.1375
1647.11321	4330.3375
1650.40179	4797.7375
1653.68819	4739.9375
1656.97241	4119.6375
1660.25446	3408.2375
1663.53433	2897.6375
1666.81203	2615.2375
1670.08756	2462.3375
1673.36092	2356.9375
1676.63211	2307.3375
1679.90115	2271.5375
1683.16801	2241.5375
1686.43272	2226.1375
1689.69527	2204.9375
1692.95567	2192.0375
1696.2139	2178.4375
1699.46999	2149.2375
1702.72392	2123.7375
1705.97571	2109.7375
1709.22535	2109.0375
1712.47284	2095.5375
1715.71819	2107.6375
1718.96139	2105.7375
1722.20246	2081.8375
1725.44139	2067.7375
1728.67818	2033.2375
1731.91284	2006.9375
1735.14537	1967.0375
1738.37576	1950.1375
1741.60403	1924.8375
1744.83017	1915.2375
1748.05418	1894.5375
1751.27607	1885.5375
1754.49584	1870.2375
1757.71349	1869.5375
1760.92903	1854.0375
1764.14244	1850.2375
1767.35375	1841.7375
1770.56294	1831.7375
1773.77002	1819.8375
1776.97499	1817.2375
1780.17785	1812.9375
1783.37861	1796.9375
1786.57727	1789.1375
1789.77382	1792.3375
1792.96828	1792.3375
1796.16064	1787.3375
1799.3509	1775.2375
1802.53907	1773.7375
1805.72514	1767.5375
1808.90913	1751.7375
1812.09102	1739.9375
1815.27083	1734.6375
1818.44856	1731.3375
1821.6242	1732.7375
1824.79776	1717.9375
1827.96924	1721.9375
1831.13864	1711.9375
1834.30597	1706.2375
1837.47122	1706.8375
1840.6344	1704.3375
1843.7955	1690.7375
1846.95454	1696.7375
1850.11151	1697.3375
1853.26642	1687.3375
1856.41926	1684.7375
1859.57004	1677.4375
1862.71876	1679.9375
1865.86542	1677.5375
1869.01003	1667.0375
1872.15258	1673.8375
1875.29308	1682.7375
1878.43152	1657.8375
1881.56792	1661.5375
1884.70227	1660.3375
1887.83457	1659.8375
1890.96482	1663.0375
1894.09304	1660.8375
1897.21921	1643.6375
1900.34335	1656.6375
1903.46544	1649.3375
1906.58551	1652.4375
1909.70353	1649.1375
1912.81953	1648.6375
1915.93349	1648.8375
1919.04543	1641.1375
1922.15534	1633.1375
1925.26322	1629.8375
1928.36908	1627.8375
1931.47292	1615.9375
1934.57473	1611.0375
1937.67453	1601.5375
1940.77232	1595.4375
1943.86808	1594.8375
1946.96184	1590.5375
1950.05358	1575.8375
1953.14331	1573.3375
1956.23103	1561.1375
1959.31675	1564.1375
1962.40046	1553.6375
1965.48217	1557.5375
1968.56188	1550.0375
1971.63959	1542.1375
1974.7153	1538.9375
1977.78901	1537.4375
1980.86073	1526.4375
1983.93046	1517.4375
1986.99819	1518.0375
1990.06394	1508.8375
1993.1277	1504.9375
1996.18947	1489.6375
1999.24925	1483.9375
2002.30706	1486.7375
2005.36288	1477.0375
2008.41672	1483.9375
2011.46859	1468.7375
2014.51848	1467.5375
2017.56639	1454.4375
2020.61233	1458.6375
2023.6563	1450.7375
2026.6983	1438.5375
2029.73833	1436.6375
2032.7764	1439.9375
2035.8125	1436.2375
2038.84664	1433.2375
2041.87881	1426.1375
2044.90903	1416.3375
2047.93729	1423.1375
2050.96359	1409.6375
2053.98794	1409.5375
2057.01034	1404.3375
2060.03078	1410.3375
2063.04927	1403.1375
2066.06582	1404.6375
2069.08042	1401.1375
2072.09307	1400.1375
2075.10378	1392.2375
2078.11255	1389.8375
2081.11938	1391.1375
2084.12426	1392.6375
2087.12722	1395.2375
2090.12824	1390.7375
2093.12732	1390.2375
2096.12447	1385.5375
2099.11969	1385.5375
2102.11299	1390.1375
2105.10435	1391.7375
2108.09379	1389.3375
2111.08131	1391.9375
2114.0669	1390.1375
2117.05057	1392.7375
2120.03233	1385.3375
2123.01216	1393.4375
2125.99008	1390.5375
2128.96609	1392.3375
2131.94018	1381.8375
2134.91236	1389.1375
2137.88263	1391.9375
2140.851	1391.0375
2143.81746	1386.6375
2146.78201	1389.8375
2149.74466	1389.3375
2152.7054	1388.6375
2155.66425	1388.7375
2158.6212	1379.9375
2161.57625	1387.8375
2164.52941	1380.0375
2167.48067	1392.0375
2170.43004	1383.1375
2173.37752	1375.6375
2176.32311	1373.8375
2179.26681	1374.1375
2182.20863	1374.6375
2185.14856	1381.5375
2188.08661	1375.1375
2191.02278	1378.9375
2193.95707	1383.8375
2196.88948	1378.0375
2199.82001	1368.4375
2202.74867	1358.4375
2205.67545	1365.7375
2208.60037	1354.0375
2211.52341	1343.6375
2214.44458	1345.6375
2217.36388	1341.4375
2220.28132	1342.6375
2223.1969	1335.9375
2226.11061	1334.0375
2229.02246	1323.9375
2231.93245	1323.6375
2234.84058	1325.3375
2237.74686	1314.6375
2240.65128	1318.0375
2243.55385	1310.4375
2246.45456	1305.4375
2249.35343	1309.6375
2252.25044	1302.8375
2255.14561	1307.3375
2258.03893	1303.9375
2260.93041	1302.3375
2263.82004	1300.3375
2266.70783	1301.3375
2269.59378	1290.6375
2272.4779	1284.6375
2275.36017	1290.0375
2278.24061	1289.7375
2281.11922	1274.0375
2283.996	1274.0375
2286.87094	1273.4375
2289.74405	1261.5375
2292.61534	1263.3375
2295.4848	1263.8375
2298.35243	1258.0375
2301.21824	1249.0375
2304.08223	1253.2375
2306.94439	1248.1375
2309.80474	1247.1375
2312.66327	1251.1375
2315.51999	1244.2375
2318.37489	1241.5375
2321.22797	1241.9375
2324.07925	1233.2375
2326.92871	1245.7375
2329.77637	1238.6375
2332.62222	1234.2375
2335.46626	1234.0375
2338.3085	1231.8375
2341.14893	1225.8375
2343.98756	1224.9375
2346.8244	1214.5375
2349.65943	1224.6375
2352.49267	1229.4375
2355.32411	1235.1375
2358.15376	1226.5375
2360.98161	1226.6375
2363.80768	1228.6375
2366.63195	1237.2375
2369.45444	1240.5375
2372.27514	1246.4375
2375.09405	1241.6375
2377.91118	1247.9375
2380.72652	1234.3375
2383.54009	1221.7375
2386.35187	1217.5375
2389.16188	1206.9375
2391.97011	1202.4375
2394.77657	1204.1375
2397.58125	1194.4375
2400.38416	1191.4375
2403.18529	1188.8375
2405.98466	1184.4375
2408.78226	1188.3375
2411.57809	1185.9375
2414.37216	1178.9375
2417.16446	1175.6375
2419.955	1175.0375
2422.74378	1168.6375
2425.5308	1175.1375
2428.31606	1179.2375
2431.09956	1173.1375
2433.88131	1160.3375
2436.6613	1174.1375
2439.43954	1169.0375
2442.21603	1172.2375
2444.99077	1172.0375
2447.76377	1174.8375
2450.53501	1165.2375
2453.30451	1174.1375
2456.07226	1166.4375
2458.83827	1163.1375
2461.60254	1164.8375
2464.36507	1166.6375
2467.12586	1160.5375
2469.88492	1160.6375
2472.64224	1153.4375
2475.39782	1163.9375
2478.15167	1161.2375
2480.90379	1163.0375
2483.65417	1178.9375
2486.40283	1170.2375
2489.14976	1173.0375
2491.89497	1176.1375
2494.63845	1179.9375
2497.3802	1180.7375
2500.12024	1174.1375
2502.85855	1168.9375
2505.59514	1172.3375
2508.33002	1160.9375
2511.06318	1149.7375
2513.79462	1148.1375
2516.52435	1147.5375
2519.25237	1144.5375
2521.97867	1133.5375
2524.70327	1134.2375
2527.42616	1134.5375
2530.14734	1130.0375
2532.86681	1135.6375
2535.58458	1133.1375
2538.30065	1131.8375
2541.01501	1129.0375
2543.72768	1137.1375
2546.43864	1130.6375
2549.14791	1132.0375
2551.85548	1136.9375
2554.56136	1132.0375
2557.26554	1138.3375
2559.96803	1129.4375
2562.66883	1130.9375
2565.36794	1133.7375
2568.06536	1140.4375
2570.7611	1138.9375
2573.45514	1129.3375
2576.14751	1134.4375
2578.83819	1126.7375
2581.52719	1127.8375
2584.21451	1123.3375
2586.90015	1120.5375
2589.58411	1127.3375
2592.2664	1123.7375
2594.94701	1121.1375
2597.62594	1120.6375
2600.30321	1123.1375
2602.9788	1121.8375
2605.65273	1124.2375
2608.32498	1116.7375
2610.99557	1121.5375
2613.66449	1107.2375
2616.33175	1124.8375
2618.99734	1116.1375
2621.66128	1120.8375
2624.32355	1126.1375
2626.98416	1121.2375
2629.64311	1117.7375
2632.30041	1116.3375
2634.95605	1121.0375
2637.61004	1124.7375
2640.26238	1118.1375
2642.91306	1121.1375
2645.56209	1118.4375
2648.20948	1119.7375
2650.85521	1130.9375
2653.4993	1134.3375
2656.14175	1141.0375
2658.78255	1145.5375
2661.42171	1149.1375
2664.05923	1152.6375
2666.6951	1162.7375
2669.32934	1168.4375
2671.96194	1173.7375
2674.59291	1177.1375
2677.22224	1176.9375
2679.84993	1190.8375
2682.476	1197.1375
2685.10043	1190.2375
2687.72324	1201.9375
2690.34441	1209.2375
2692.96396	1210.3375
2695.58188	1228.0375
2698.19818	1225.2375
2700.81285	1238.8375
2703.4259	1246.7375
2706.03733	1249.8375
2708.64714	1261.7375
2711.25533	1279.5375
2713.86191	1285.8375
2716.46687	1310.7375
2719.07021	1314.0375
2721.67194	1331.1375
2724.27206	1328.7375
2726.87057	1333.4375
2729.46747	1341.0375
2732.06276	1359.0375
2734.65644	1352.5375
2737.24852	1358.2375
2739.83899	1375.4375
2742.42786	1381.4375
2745.01513	1391.9375
2747.60079	1413.4375
2750.18486	1413.8375
2752.76733	1437.8375
2755.3482	1449.1375
2757.92747	1470.2375
2760.50515	1485.5375
2763.08123	1499.6375
2765.65573	1513.1375
2768.22863	1538.5375
2770.79994	1565.1375
2773.36967	1577.3375
2775.9378	1607.2375
2778.50435	1634.7375
2781.06932	1674.0375
2783.6327	1699.0375
2786.1945	1736.2375
2788.75471	1765.7375
2791.31335	1797.9375
2793.87041	1844.7375
2796.42589	1883.5375
2798.97979	1924.8375
2801.53212	1961.8375
2804.08288	2009.0375
2806.63206	2062.7375
2809.17967	2099.0375
2811.72571	2142.2375
2814.27018	2187.3375
2816.81308	2226.1375
2819.35442	2260.9375
2821.89419	2272.8375
2824.43239	2277.4375
2826.96904	2290.2375
2829.50412	2297.8375
2832.03763	2285.4375
2834.56959	2298.9375
2837.1	2296.0375
2839.62884	2321.0375
2842.15613	2350.3375
2844.68186	2407.9375
2847.20604	2465.7375
2849.72867	2528.2375
2852.24974	2546.4375
2854.76927	2538.0375
2857.28724	2528.3375
2859.80367	2503.0375
2862.31855	2484.9375
2864.83189	2455.9375
2867.34368	2419.5375
2869.85393	2396.9375
2872.36264	2372.5375
2874.8698	2344.9375
2877.37543	2315.2375
2879.87952	2295.0375
2882.38207	2274.0375
2884.88308	2260.6375
2887.38256	2247.9375
2889.88051	2226.3375
2892.37692	2218.7375
2894.8718	2197.0375
2897.36515	2184.8375
2899.85698	2175.6375
2902.34727	2158.3375
2904.83604	2151.7375
2907.32328	2135.8375
2909.809	2122.6375
2912.29319	2120.7375
2914.77587	2101.3375
2917.25702	2081.4375
2919.73665	2078.9375
2922.21476	2073.0375
2924.69136	2050.9375
2927.16644	2032.5375
2929.64	2014.0375
2932.11205	1983.9375
2934.58258	1949.6375
2937.05161	1915.2375
2939.51912	1865.2375
2941.98513	1812.1375
2944.44962	1743.0375
2946.91261	1667.2375
2949.37409	1625.3375
2951.83407	1569.7375
2954.29254	1533.4375
2956.74951	1488.9375
2959.20498	1457.0375
2961.65895	1424.1375
2964.11142	1399.5375
2966.56239	1370.4375
2969.01186	1351.2375
2971.45984	1324.1375
2973.90632	1313.1375
2976.35131	1286.0375
2978.7948	1273.4375
2981.23681	1254.2375
2983.67732	1238.6375
2986.11635	1216.7375
2988.55388	1201.2375
2990.98993	1188.8375
2993.4245	1179.2375
2995.85758	1159.0375
2998.28917	1150.4375
3000.71928	1134.0375
3003.14791	1130.3375
3005.57506	1125.0375
3008.00073	1117.7375
3010.42493	1113.4375
3012.84764	1096.0375
3015.26888	1100.6375
3017.68865	1095.5375
3020.10694	1095.4375
3022.52376	1101.0375
3024.9391	1098.2375
3027.35298	1103.7375
3029.76539	1097.4375
3032.17632	1103.6375
3034.5858	1096.8375
3036.9938	1100.1375
3039.40034	1096.1375
3041.80542	1098.1375
3044.20903	1098.8375
3046.61118	1103.8375
3049.01187	1095.8375
3051.4111	1100.7375
3053.80888	1102.2375
3056.20519	1109.4375
3058.60005	1105.2375
3060.99345	1102.8375
3063.3854	1114.0375
3065.7759	1107.8375
3068.16494	1115.4375
3070.55254	1122.1375
3072.93868	1126.2375
3075.32338	1124.0375
3077.70662	1119.5375
3080.08842	1109.5375
3082.46878	1111.5375
3084.84769	1114.0375
3087.22515	1109.5375
3089.60118	1119.2375
3091.97576	1119.2375
3094.3489	1108.2375
3096.72061	1115.4375
3099.09087	1102.9375
3101.4597	1112.3375
3103.82709	1119.4375
3106.19305	1119.3375
3108.55757	1120.2375
3110.92066	1124.3375
3113.28232	1138.9375
3115.64255	1132.0375
3118.00134	1135.0375
3120.35871	1150.0375
3122.71466	1149.0375
3125.06917	1158.7375
3127.42226	1161.7375
3129.77393	1178.6375
3132.12417	1178.0375
3134.47299	1184.3375
3136.82039	1191.3375
3139.16636	1199.5375
3141.51092	1217.3375
3143.85406	1220.0375
3146.19579	1227.5375
3148.53609	1227.5375
3150.87499	1246.0375
3153.21246	1244.4375
3155.54853	1263.1375
3157.88318	1266.6375
3160.21642	1271.3375
3162.54826	1279.7375
3164.87868	1286.1375
3167.2077	1292.4375
3169.5353	1302.3375
3171.86151	1305.5375
3174.18631	1311.9375
3176.5097	1327.8375
3178.83169	1326.6375
3181.15228	1333.6375
3183.47147	1338.5375
3185.78926	1343.0375
3188.10565	1354.7375
3190.42065	1359.9375
3192.73424	1372.0375
3195.04645	1369.0375
3197.35725	1380.9375
3199.66667	1387.3375
3201.97469	1394.3375
3204.28132	1395.0375
3206.58656	1395.8375
3208.8904	1407.9375
3211.19287	1415.7375
3213.49394	1420.4375
3215.79363	1424.9375
3218.09193	1423.5375
3220.38884	1425.7375
3222.68438	1433.2375
3224.97853	1433.8375
3227.2713	1442.7375
3229.56269	1450.5375
3231.8527	1451.9375
3234.14133	1452.4375
3236.42858	1464.6375
3238.71446	1462.2375
3240.99896	1461.2375
3243.28209	1459.1375
3245.56384	1466.8375
3247.84423	1473.4375
3250.12324	1481.4375
3252.40088	1483.0375
3254.67715	1486.5375
3256.95205	1477.6375
3259.22558	1484.8375
3261.49775	1487.4375
3263.76855	1482.1375
3266.03799	1490.3375
3268.30606	1497.8375
3270.57277	1499.8375
3272.83812	1506.2375
3275.10211	1513.0375
3277.36474	1500.1375
3279.62601	1517.0375
3281.88593	1503.4375
3284.14448	1508.6375
3286.40168	1506.5375
3288.65753	1508.6375
3290.91202	1503.3375
3293.16516	1490.1375
3295.41695	1477.2375
3297.66738	1472.7375
3299.91647	1472.3375
3302.16421	1454.3375
3304.4106	1447.1375
3306.65564	1440.9375
3308.89933	1424.9375
3311.14169	1420.3375
3313.38269	1396.4375
3315.62236	1397.3375
3317.86068	1378.5375
3320.09766	1374.0375
3322.3333	1357.1375
3324.5676	1358.8375
3326.80056	1336.8375
3329.03219	1341.0375
3331.26248	0.8375
3333.49143	-0.5625
3335.71905	-0.1625
