Data from AgNP_FTO_APTES_CRN_100uM_R6G_10uM_NaF_0.1M_Addition_RamanShift__8__18-40-48-116.txt Node

Date: Wed Dec 15 18:40:48 GMT 2021
User: TCL
Spectrometer: QEP01345
Trigger mode: 4
Integration Time (sec): 7.000000E0
Scans to average: 10
Electric dark correction enabled: true
Nonlinearity correction enabled: false
Boxcar width: 0
XAxis mode: Raman Shifts
Number of Pixels in Spectrum: 1044
>>>>>Begin Spectral Data<<<<<
46.04893	1.1375
50.45542	-0.7625
54.85868	-1.3625
59.25871	-1.2625
63.6555	52.1375
68.04907	56.9375
72.43941	59.2375
76.82654	63.0375
81.21044	66.2375
85.59113	69.3375
89.96862	76.2375
94.34289	70.3375
98.71396	78.2375
103.08183	82.1375
107.4465	85.7375
111.80798	86.4375
116.16626	85.9375
120.52136	86.7375
124.87327	87.7375
129.222	94.0375
133.56755	95.6375
137.90993	105.6375
142.24913	114.1375
146.58517	122.9375
150.91804	139.4375
155.24774	164.5375
159.57429	204.1375
163.89768	258.0375
168.21792	336.9375
172.53501	450.6375
176.84895	618.4375
181.15975	870.3375
185.46741	1219.0375
189.77193	1678.0375
194.07331	2234.8375
198.37157	2888.4375
202.6667	3572.8375
206.9587	4240.0375
211.24758	4903.8375
215.53334	5578.6375
219.81599	6263.9375
224.09553	7018.0375
228.37195	7843.2375
232.64527	8777.5375
236.91549	9745.1375
241.18261	10767.6375
245.44663	11714.2375
249.70755	12593.1375
253.96539	13360.1375
258.22014	14042.7375
262.4718	14550.3375
266.72039	14866.9375
270.96589	15084.3375
275.20832	15092.5375
279.44768	14996.3375
283.68397	14877.6375
287.91719	14775.0375
292.14735	14719.9375
296.37445	14678.0375
300.59849	14620.1375
304.81948	14636.4375
309.03742	14570.5375
313.25231	14452.4375
317.46415	14235.7375
321.67296	13943.9375
325.87872	13710.7375
330.08145	13578.1375
334.28114	13586.5375
338.47781	13658.6375
342.67145	13823.1375
346.86207	13991.7375
351.04966	14204.3375
355.23424	14408.5375
359.4158	14556.7375
363.59435	14662.0375
367.76989	14745.4375
371.94243	14787.2375
376.11196	14802.8375
380.27849	14868.9375
384.44203	14911.5375
388.60257	15045.4375
392.76012	15219.4375
396.91468	15409.4375
401.06626	15619.5375
405.21485	15808.3375
409.36047	15789.9375
413.50311	15705.2375
417.64277	15621.9375
421.77947	15648.7375
425.9132	15685.6375
430.04396	15803.2375
434.17176	15852.3375
438.2966	15935.2375
442.41849	16043.3375
446.53742	16306.0375
450.6534	16580.0375
454.76644	16775.3375
458.87653	16906.9375
462.98368	16904.2375
467.08789	16859.7375
471.18916	16774.5375
475.2875	16714.1375
479.38291	16687.3375
483.4754	16574.7375
487.56496	16418.9375
491.6516	16193.8375
495.73531	16057.9375
499.81612	15988.9375
503.89401	16095.6375
507.96899	16145.8375
512.04106	16209.8375
516.11023	16181.7375
520.1765	16075.8375
524.23987	16015.2375
528.30034	15878.2375
532.35792	15782.2375
536.41261	15593.8375
540.46441	15481.4375
544.51333	15505.6375
548.55936	15668.9375
552.60252	15976.2375
556.64279	16256.3375
560.6802	16414.8375
564.71473	16468.3375
568.7464	16660.1375
572.7752	17029.9375
576.80114	17459.7375
580.82422	17897.7375
584.84444	18379.6375
588.86181	18831.3375
592.87633	19085.7375
596.888	18897.1375
600.89682	18347.0375
604.9028	18226.8375
608.90594	18827.2375
612.90624	19470.3375
616.90371	18527.8375
620.89834	16583.7375
624.89015	15711.9375
628.87913	15659.5375
632.86528	15764.4375
636.84862	15817.3375
640.82913	15714.6375
644.80683	15458.6375
648.78172	15318.0375
652.75379	15284.7375
656.72306	15352.0375
660.68952	15476.6375
664.65319	15456.4375
668.61405	15346.5375
672.57211	15328.1375
676.52738	15385.7375
680.47986	15402.3375
684.42955	15336.3375
688.37646	15294.0375
692.32058	15362.2375
696.26192	15496.4375
700.20048	15615.2375
704.13626	15752.8375
708.06928	15821.8375
711.99952	15836.5375
715.927	15854.1375
719.85171	15793.9375
723.77365	15704.2375
727.69284	15527.3375
731.60928	15375.6375
735.52295	15334.0375
739.43388	15313.2375
743.34206	15332.2375
747.24749	15377.2375
751.15017	15528.3375
755.05012	15704.8375
758.94733	16053.9375
762.8418	16603.8375
766.73354	17479.3375
770.62254	18223.5375
774.50882	18303.8375
778.39237	17649.0375
782.27321	16753.3375
786.15132	16039.9375
790.02671	15605.9375
793.89938	15348.3375
797.76935	15259.8375
801.6366	15265.2375
805.50115	15213.3375
809.36299	15182.5375
813.22213	15097.9375
817.07857	15115.2375
820.93231	15052.6375
824.78336	14986.6375
828.63172	14992.7375
832.47738	14961.1375
836.32036	14991.1375
840.16066	15013.0375
843.99827	14991.7375
847.8332	14938.8375
851.66546	14893.7375
855.49504	14927.8375
859.32195	14900.7375
863.1462	14879.2375
866.96777	14888.2375
870.78668	14873.4375
874.60293	14913.5375
878.41652	14907.6375
882.22745	14936.9375
886.03573	15010.0375
889.84136	15007.4375
893.64433	14953.1375
897.44466	14905.6375
901.24235	14900.0375
905.0374	14881.5375
908.8298	14869.7375
912.61957	14897.8375
916.40671	15019.7375
920.19121	15139.0375
923.97308	15225.7375
927.75233	15207.6375
931.52895	15110.6375
935.30295	14922.8375
939.07433	14726.6375
942.84309	14577.2375
946.60924	14474.4375
950.37278	14383.5375
954.13371	14394.2375
957.89203	14406.0375
961.64774	14384.5375
965.40086	14409.2375
969.15137	14332.4375
972.89929	14278.1375
976.64461	14228.6375
980.38733	14196.7375
984.12747	14210.3375
987.86502	14230.0375
991.59999	14303.1375
995.33237	14367.4375
999.06217	14528.3375
1002.78939	14671.5375
1006.51404	14827.4375
1010.23611	15073.6375
1013.95561	15227.9375
1017.67255	15231.0375
1021.38692	15112.4375
1025.09872	14965.4375
1028.80796	14828.6375
1032.51465	14803.0375
1036.21877	14835.1375
1039.92035	14913.3375
1043.61937	14969.8375
1047.31584	15100.3375
1051.00976	15178.3375
1054.70114	15293.3375
1058.38998	15553.5375
1062.07627	15857.3375
1065.76003	16258.1375
1069.44126	16694.5375
1073.11995	17086.6375
1076.79611	17226.5375
1080.46974	17027.0375
1084.14085	16686.0375
1087.80943	16411.3375
1091.47549	16348.6375
1095.13903	16279.3375
1098.80005	16107.6375
1102.45857	15784.5375
1106.11456	15495.9375
1109.76805	15301.5375
1113.41903	15251.7375
1117.06751	15327.8375
1120.71348	15428.5375
1124.35696	15578.3375
1127.99793	15781.4375
1131.63641	15939.5375
1135.2724	15896.6375
1138.90589	15799.4375
1142.5369	15771.1375
1146.16542	15847.9375
1149.79145	15950.6375
1153.415	16057.8375
1157.03607	16182.0375
1160.65467	16452.9375
1164.27079	16983.8375
1167.88443	17652.7375
1171.49561	18420.0375
1175.10432	19401.3375
1178.71056	20553.0375
1182.31434	21583.0375
1185.91565	22060.1375
1189.51451	21951.4375
1193.11091	21498.4375
1196.70485	20882.3375
1200.29634	20204.7375
1203.88538	19694.7375
1207.47197	19471.0375
1211.05612	19240.6375
1214.63782	18963.2375
1218.21708	18549.6375
1221.79391	18107.0375
1225.36829	17725.1375
1228.94024	17595.8375
1232.50976	17482.1375
1236.07685	17356.6375
1239.6415	17328.2375
1243.20374	17321.8375
1246.76355	17411.9375
1250.32093	17591.5375
1253.8759	17858.1375
1257.42845	18248.4375
1260.97859	18637.1375
1264.52631	18947.6375
1268.07163	19314.3375
1271.61453	19649.1375
1275.15503	20025.4375
1278.69312	20469.9375
1282.22882	20911.1375
1285.76211	21482.7375
1289.29301	22152.2375
1292.82151	22997.8375
1296.34761	23893.9375
1299.87133	24950.0375
1303.39266	25944.9375
1306.9116	26814.5375
1310.42815	27485.8375
1313.94233	27875.5375
1317.45412	27804.8375
1320.96354	27578.6375
1324.47058	27344.9375
1327.97525	27242.5375
1331.47754	27175.2375
1334.97747	27174.7375
1338.47502	27129.5375
1341.97022	27092.7375
1345.46305	26980.7375
1348.95352	26827.3375
1352.44163	26814.7375
1355.92738	27071.2375
1359.41078	27662.3375
1362.89183	28138.3375
1366.37053	27804.8375
1369.84688	26242.6375
1373.32088	24161.2375
1376.79254	22599.3375
1380.26186	21918.2375
1383.72883	21757.1375
1387.19347	21608.0375
1390.65578	21408.5375
1394.11575	21305.7375
1397.57339	21364.6375
1401.0287	21546.8375
1404.48168	21597.8375
1407.93234	21474.2375
1411.38068	21036.0375
1414.82669	20462.2375
1418.27039	19737.3375
1421.71177	19048.8375
1425.15083	18528.5375
1428.58758	18241.6375
1432.02203	18349.7375
1435.45416	18615.9375
1438.88399	19008.9375
1442.31151	19287.4375
1445.73673	19506.5375
1449.15965	19711.1375
1452.58027	19830.8375
1455.9986	19926.4375
1459.41463	20085.7375
1462.82837	20332.3375
1466.23982	20703.0375
1469.64898	21032.9375
1473.05586	21248.6375
1476.46045	21311.4375
1479.86276	21260.7375
1483.26279	21203.4375
1486.66054	21223.5375
1490.05602	21359.6375
1493.44922	21669.6375
1496.84016	21995.0375
1500.22882	22500.2375
1503.61521	23169.4375
1506.99934	23877.4375
1510.38121	24267.2375
1513.76081	24309.8375
1517.13816	23838.7375
1520.51324	23269.8375
1523.88607	22824.3375
1527.25665	22576.2375
1530.62498	22509.4375
1533.99105	22309.6375
1537.35488	22069.0375
1540.71647	21633.9375
1544.07581	21127.2375
1547.4329	20606.9375
1550.78776	20194.6375
1554.14038	19905.9375
1557.49077	19763.9375
1560.83892	19733.7375
1564.18484	19847.8375
1567.52853	20061.9375
1570.86999	20476.3375
1574.20922	21135.0375
1577.54624	21780.4375
1580.88103	22117.8375
1584.2136	22134.6375
1587.54395	21988.4375
1590.87208	22012.3375
1594.19801	22424.3375
1597.52172	23064.1375
1600.84321	23208.2375
1604.16251	22488.4375
1607.47959	21255.6375
1610.79447	19927.2375
1614.10715	18694.1375
1617.41763	17627.7375
1620.7259	16871.8375
1624.03199	16423.3375
1627.33587	16355.6375
1630.63757	16601.7375
1633.93707	17278.9375
1637.23439	18495.1375
1640.52951	20350.3375
1643.82246	22509.3375
1647.11321	24373.1375
1650.40179	24915.5375
1653.68819	23772.9375
1656.97241	21451.9375
1660.25446	19091.9375
1663.53433	17163.8375
1666.81203	15840.5375
1670.08756	14963.5375
1673.36092	14438.5375
1676.63211	14043.0375
1679.90115	13781.8375
1683.16801	13596.9375
1686.43272	13469.9375
1689.69527	13382.9375
1692.95567	13285.3375
1696.2139	13235.4375
1699.46999	13194.8375
1702.72392	13188.1375
1705.97571	13147.0375
1709.22535	13094.9375
1712.47284	13073.0375
1715.71819	13043.6375
1718.96139	13029.6375
1722.20246	12995.0375
1725.44139	12947.8375
1728.67818	12897.6375
1731.91284	12842.9375
1735.14537	12780.2375
1738.37576	12729.9375
1741.60403	12704.0375
1744.83017	12675.4375
1748.05418	12662.2375
1751.27607	12616.1375
1754.49584	12605.3375
1757.71349	12631.0375
1760.92903	12601.5375
1764.14244	12626.3375
1767.35375	12589.8375
1770.56294	12570.1375
1773.77002	12550.8375
1776.97499	12503.7375
1780.17785	12490.6375
1783.37861	12468.7375
1786.57727	12433.4375
1789.77382	12385.1375
1792.96828	12380.0375
1796.16064	12362.7375
1799.3509	12338.0375
1802.53907	12305.8375
1805.72514	12259.1375
1808.90913	12225.5375
1812.09102	12210.0375
1815.27083	12205.7375
1818.44856	12185.6375
1821.6242	12165.4375
1824.79776	12129.6375
1827.96924	12140.5375
1831.13864	12141.5375
1834.30597	12135.6375
1837.47122	12125.5375
1840.6344	12114.8375
1843.7955	12108.6375
1846.95454	12110.5375
1850.11151	12088.6375
1853.26642	12096.7375
1856.41926	12065.0375
1859.57004	12087.9375
1862.71876	12055.7375
1865.86542	12053.4375
1869.01003	12028.6375
1872.15258	12010.8375
1875.29308	11994.6375
1878.43152	11949.6375
1881.56792	11971.7375
1884.70227	11936.2375
1887.83457	11902.7375
1890.96482	11901.7375
1894.09304	11910.3375
1897.21921	11889.9375
1900.34335	11839.4375
1903.46544	11833.2375
1906.58551	11817.6375
1909.70353	11804.2375
1912.81953	11773.5375
1915.93349	11754.2375
1919.04543	11721.9375
1922.15534	11705.5375
1925.26322	11687.1375
1928.36908	11671.5375
1931.47292	11646.1375
1934.57473	11622.0375
1937.67453	11596.0375
1940.77232	11546.1375
1943.86808	11539.8375
1946.96184	11522.3375
1950.05358	11492.2375
1953.14331	11447.3375
1956.23103	11405.5375
1959.31675	11397.0375
1962.40046	11361.7375
1965.48217	11341.4375
1968.56188	11329.8375
1971.63959	11263.6375
1974.7153	11231.4375
1977.78901	11186.1375
1980.86073	11158.0375
1983.93046	11143.0375
1986.99819	11084.1375
1990.06394	11057.9375
1993.1277	11042.0375
1996.18947	10961.8375
1999.24925	10963.7375
2002.30706	10932.1375
2005.36288	10900.6375
2008.41672	10866.1375
2011.46859	10835.4375
2014.51848	10806.4375
2017.56639	10797.8375
2020.61233	10757.5375
2023.6563	10737.9375
2026.6983	10695.3375
2029.73833	10704.9375
2032.7764	10683.2375
2035.8125	10632.2375
2038.84664	10610.8375
2041.87881	10589.6375
2044.90903	10547.9375
2047.93729	10547.3375
2050.96359	10550.2375
2053.98794	10532.2375
2057.01034	10501.3375
2060.03078	10504.1375
2063.04927	10489.2375
2066.06582	10511.5375
2069.08042	10499.9375
2072.09307	10484.1375
2075.10378	10470.3375
2078.11255	10441.0375
2081.11938	10458.1375
2084.12426	10452.5375
2087.12722	10468.6375
2090.12824	10431.5375
2093.12732	10442.2375
2096.12447	10441.8375
2099.11969	10423.7375
2102.11299	10431.5375
2105.10435	10443.0375
2108.09379	10465.6375
2111.08131	10479.6375
2114.0669	10477.3375
2117.05057	10488.7375
2120.03233	10480.0375
2123.01216	10493.5375
2125.99008	10500.0375
2128.96609	10507.0375
2131.94018	10514.5375
2134.91236	10502.5375
2137.88263	10517.6375
2140.851	10518.6375
2143.81746	10527.0375
2146.78201	10522.5375
2149.74466	10517.9375
2152.7054	10526.5375
2155.66425	10546.9375
2158.6212	10535.8375
2161.57625	10518.4375
2164.52941	10496.6375
2167.48067	10522.2375
2170.43004	10513.8375
2173.37752	10500.4375
2176.32311	10497.1375
2179.26681	10498.5375
2182.20863	10499.4375
2185.14856	10493.2375
2188.08661	10486.0375
2191.02278	10490.2375
2193.95707	10480.5375
2196.88948	10460.5375
2199.82001	10430.1375
2202.74867	10437.2375
2205.67545	10424.8375
2208.60037	10424.7375
2211.52341	10403.4375
2214.44458	10386.9375
2217.36388	10368.7375
2220.28132	10350.8375
2223.1969	10321.6375
2226.11061	10324.5375
2229.02246	10300.9375
2231.93245	10287.9375
2234.84058	10249.5375
2237.74686	10259.8375
2240.65128	10233.9375
2243.55385	10211.3375
2246.45456	10191.1375
2249.35343	10191.7375
2252.25044	10168.3375
2255.14561	10139.1375
2258.03893	10140.9375
2260.93041	10122.3375
2263.82004	10083.6375
2266.70783	10084.8375
2269.59378	10045.8375
2272.4779	10021.6375
2275.36017	9999.8375
2278.24061	9989.8375
2281.11922	9965.2375
2283.996	9928.7375
2286.87094	9930.9375
2289.74405	9910.3375
2292.61534	9902.9375
2295.4848	9870.2375
2298.35243	9880.8375
2301.21824	9856.1375
2304.08223	9854.0375
2306.94439	9859.6375
2309.80474	9825.4375
2312.66327	9835.0375
2315.51999	9788.0375
2318.37489	9792.1375
2321.22797	9768.3375
2324.07925	9767.8375
2326.92871	9782.2375
2329.77637	9767.6375
2332.62222	9753.2375
2335.46626	9736.3375
2338.3085	9717.7375
2341.14893	9717.1375
2343.98756	9706.3375
2346.8244	9689.3375
2349.65943	9675.9375
2352.49267	9662.1375
2355.32411	9682.9375
2358.15376	9675.1375
2360.98161	9670.7375
2363.80768	9671.4375
2366.63195	9661.4375
2369.45444	9647.4375
2372.27514	9636.7375
2375.09405	9621.9375
2377.91118	9613.6375
2380.72652	9596.7375
2383.54009	9567.8375
2386.35187	9548.8375
2389.16188	9511.4375
2391.97011	9479.1375
2394.77657	9496.1375
2397.58125	9467.6375
2400.38416	9444.5375
2403.18529	9443.4375
2405.98466	9416.9375
2408.78226	9422.1375
2411.57809	9397.9375
2414.37216	9396.7375
2417.16446	9375.3375
2419.955	9368.8375
2422.74378	9382.3375
2425.5308	9345.2375
2428.31606	9316.9375
2431.09956	9340.1375
2433.88131	9349.0375
2436.6613	9333.8375
2439.43954	9313.4375
2442.21603	9274.9375
2444.99077	9291.9375
2447.76377	9287.1375
2450.53501	9289.3375
2453.30451	9273.6375
2456.07226	9257.1375
2458.83827	9238.8375
2461.60254	9223.4375
2464.36507	9205.6375
2467.12586	9229.0375
2469.88492	9229.7375
2472.64224	9234.0375
2475.39782	9208.4375
2478.15167	9208.6375
2480.90379	9204.7375
2483.65417	9206.9375
2486.40283	9275.4375
2489.14976	9218.2375
2491.89497	9185.3375
2494.63845	9211.0375
2497.3802	9168.4375
2500.12024	9165.5375
2502.85855	9142.8375
2505.59514	9155.9375
2508.33002	9140.3375
2511.06318	9112.8375
2513.79462	9107.2375
2516.52435	9140.2375
2519.25237	9095.0375
2521.97867	9082.0375
2524.70327	9089.2375
2527.42616	9045.3375
2530.14734	9059.8375
2532.86681	9032.8375
2535.58458	9046.9375
2538.30065	9009.4375
2541.01501	9026.1375
2543.72768	9003.5375
2546.43864	8984.3375
2549.14791	8972.1375
2551.85548	8986.4375
2554.56136	8933.8375
2557.26554	8916.0375
2559.96803	8927.3375
2562.66883	8908.6375
2565.36794	8897.0375
2568.06536	8921.1375
2570.7611	8878.7375
2573.45514	8873.7375
2576.14751	8858.0375
2578.83819	8842.1375
2581.52719	8840.7375
2584.21451	8800.0375
2586.90015	8823.6375
2589.58411	8792.6375
2592.2664	8779.6375
2594.94701	8743.0375
2597.62594	8751.7375
2600.30321	8728.9375
2602.9788	8717.9375
2605.65273	8701.6375
2608.32498	8698.8375
2610.99557	8678.0375
2613.66449	8680.1375
2616.33175	8665.7375
2618.99734	8661.1375
2621.66128	8639.9375
2624.32355	8635.2375
2626.98416	8611.5375
2629.64311	8621.4375
2632.30041	8605.2375
2634.95605	8603.0375
2637.61004	8619.0375
2640.26238	8595.1375
2642.91306	8596.4375
2645.56209	8583.7375
2648.20948	8589.4375
2650.85521	8563.3375
2653.4993	8558.7375
2656.14175	8578.0375
2658.78255	8543.2375
2661.42171	8560.7375
2664.05923	8577.0375
2666.6951	8566.8375
2669.32934	8557.9375
2671.96194	8541.2375
2674.59291	8554.6375
2677.22224	8549.5375
2679.84993	8569.7375
2682.476	8540.9375
2685.10043	8549.8375
2687.72324	8553.9375
2690.34441	8559.5375
2692.96396	8556.4375
2695.58188	8552.2375
2698.19818	8526.2375
2700.81285	8573.7375
2703.4259	8575.9375
2706.03733	8574.7375
2708.64714	8586.6375
2711.25533	8582.4375
2713.86191	8552.3375
2716.46687	8580.4375
2719.07021	8554.3375
2721.67194	8571.3375
2724.27206	8544.8375
2726.87057	8549.8375
2729.46747	8560.3375
2732.06276	8552.3375
2734.65644	8558.3375
2737.24852	8532.2375
2739.83899	8548.6375
2742.42786	8518.6375
2745.01513	8517.6375
2747.60079	8513.4375
2750.18486	8509.0375
2752.76733	8518.2375
2755.3482	8498.2375
2757.92747	8509.6375
2760.50515	8469.0375
2763.08123	8479.2375
2765.65573	8438.7375
2768.22863	8458.3375
2770.79994	8439.8375
2773.36967	8429.5375
2775.9378	8421.5375
2778.50435	8427.2375
2781.06932	8389.7375
2783.6327	8391.9375
2786.1945	8384.1375
2788.75471	8383.3375
2791.31335	8344.3375
2793.87041	8338.3375
2796.42589	8308.0375
2798.97979	8316.6375
2801.53212	8300.4375
2804.08288	8305.4375
2806.63206	8282.0375
2809.17967	8231.5375
2811.72571	8220.7375
2814.27018	8199.2375
2816.81308	8218.1375
2819.35442	8215.6375
2821.89419	8189.2375
2824.43239	8206.6375
2826.96904	8168.6375
2829.50412	8181.0375
2832.03763	8146.9375
2834.56959	8130.5375
2837.1	8149.5375
2839.62884	8167.3375
2842.15613	8130.7375
2844.68186	8164.3375
2847.20604	8172.0375
2849.72867	8187.3375
2852.24974	8176.4375
2854.76927	8177.6375
2857.28724	8149.7375
2859.80367	8171.1375
2862.31855	8129.9375
2864.83189	8117.1375
2867.34368	8112.5375
2869.85393	8089.2375
2872.36264	8086.6375
2874.8698	8089.8375
2877.37543	8085.9375
2879.87952	8095.9375
2882.38207	8105.8375
2884.88308	8079.4375
2887.38256	8084.6375
2889.88051	8094.9375
2892.37692	8086.6375
2894.8718	8074.3375
2897.36515	8069.3375
2899.85698	8085.9375
2902.34727	8102.7375
2904.83604	8103.9375
2907.32328	8103.7375
2909.809	8095.6375
2912.29319	8089.4375
2914.77587	8081.8375
2917.25702	8100.6375
2919.73665	8068.7375
2922.21476	8076.9375
2924.69136	8064.8375
2927.16644	8074.4375
2929.64	8057.6375
2932.11205	8054.8375
2934.58258	8039.2375
2937.05161	8053.0375
2939.51912	8083.8375
2941.98513	8064.4375
2944.44962	8016.7375
2946.91261	7987.2375
2949.37409	7974.8375
2951.83407	7970.5375
2954.29254	7992.4375
2956.74951	7964.6375
2959.20498	7956.6375
2961.65895	7946.9375
2964.11142	7958.7375
2966.56239	7927.7375
2969.01186	7918.6375
2971.45984	7907.5375
2973.90632	7891.6375
2976.35131	7848.5375
2978.7948	7832.0375
2981.23681	7830.2375
2983.67732	7838.1375
2986.11635	7799.3375
2988.55388	7785.8375
2990.98993	7772.6375
2993.4245	7772.8375
2995.85758	7735.2375
2998.28917	7721.6375
3000.71928	7710.9375
3003.14791	7676.4375
3005.57506	7707.0375
3008.00073	7676.2375
3010.42493	7680.5375
3012.84764	7662.1375
3015.26888	7632.7375
3017.68865	7610.2375
3020.10694	7606.3375
3022.52376	7588.8375
3024.9391	7573.4375
3027.35298	7575.4375
3029.76539	7583.7375
3032.17632	7582.8375
3034.5858	7552.9375
3036.9938	7557.8375
3039.40034	7552.5375
3041.80542	7533.8375
3044.20903	7522.1375
3046.61118	7527.1375
3049.01187	7524.7375
3051.4111	7502.8375
3053.80888	7493.7375
3056.20519	7482.0375
3058.60005	7474.7375
3060.99345	7433.6375
3063.3854	7442.9375
3065.7759	7417.4375
3068.16494	7418.8375
3070.55254	7404.1375
3072.93868	7388.5375
3075.32338	7357.0375
3077.70662	7354.0375
3080.08842	7307.1375
3082.46878	7317.0375
3084.84769	7325.4375
3087.22515	7299.0375
3089.60118	7293.6375
3091.97576	7303.1375
3094.3489	7307.8375
3096.72061	7318.4375
3099.09087	7309.0375
3101.4597	7301.4375
3103.82709	7305.2375
3106.19305	7288.6375
3108.55757	7281.3375
3110.92066	7254.9375
3113.28232	7251.0375
3115.64255	7216.8375
3118.00134	7232.3375
3120.35871	7219.7375
3122.71466	7216.4375
3125.06917	7209.5375
3127.42226	7180.1375
3129.77393	7183.9375
3132.12417	7197.5375
3134.47299	7203.6375
3136.82039	7200.0375
3139.16636	7209.2375
3141.51092	7210.6375
3143.85406	7210.6375
3146.19579	7207.1375
3148.53609	7217.8375
3150.87499	7234.8375
3153.21246	7227.5375
3155.54853	7243.5375
3157.88318	7217.1375
3160.21642	7236.2375
3162.54826	7230.6375
3164.87868	7229.7375
3167.2077	7209.9375
3169.5353	7224.0375
3171.86151	7211.7375
3174.18631	7227.7375
3176.5097	7218.6375
3178.83169	7191.7375
3181.15228	7197.5375
3183.47147	7200.1375
3185.78926	7207.3375
3188.10565	7182.7375
3190.42065	7199.0375
3192.73424	7179.8375
3195.04645	7210.6375
3197.35725	7170.6375
3199.66667	7170.3375
3201.97469	7191.5375
3204.28132	7195.6375
3206.58656	7213.9375
3208.8904	7193.8375
3211.19287	7202.9375
3213.49394	7201.9375
3215.79363	7197.5375
3218.09193	7188.5375
3220.38884	7189.7375
3222.68438	7201.6375
3224.97853	7187.1375
3227.2713	7186.1375
3229.56269	7172.3375
3231.8527	7174.3375
3234.14133	7138.9375
3236.42858	7117.0375
3238.71446	7145.5375
3240.99896	7114.0375
3243.28209	7103.8375
3245.56384	7110.7375
3247.84423	7111.6375
3250.12324	7101.2375
3252.40088	7098.8375
3254.67715	7098.2375
3256.95205	7072.9375
3259.22558	7086.4375
3261.49775	7081.2375
3263.76855	7059.2375
3266.03799	7043.2375
3268.30606	7026.4375
3270.57277	7007.7375
3272.83812	6994.0375
3275.10211	6986.1375
3277.36474	6978.7375
3279.62601	6982.5375
3281.88593	6982.8375
3284.14448	6980.8375
3286.40168	6974.0375
3288.65753	6943.0375
3290.91202	6949.4375
3293.16516	6928.2375
3295.41695	6900.6375
3297.66738	6882.3375
3299.91647	6833.4375
3302.16421	6805.5375
3304.4106	6773.6375
3306.65564	6726.5375
3308.89933	6693.8375
3311.14169	6647.8375
3313.38269	6611.4375
3315.62236	6573.6375
3317.86068	6513.6375
3320.09766	6428.2375
3322.3333	6391.8375
3324.5676	6375.9375
3326.80056	6284.2375
3329.03219	6268.2375
3331.26248	3.3375
3333.49143	-0.8625
3335.71905	0.9375
