Data from AgNP_FTO_APTES_UA_10uM_CRN_100uM_R6G_10uM_NaF_0.1M_Addition_RamanShift__9__17-35-00-844.txt Node

Date: Thu Feb 10 17:35:00 GMT 2022
User: TCL
Spectrometer: QEP01345
Trigger mode: 4
Integration Time (sec): 7.000000E0
Scans to average: 10
Electric dark correction enabled: true
Nonlinearity correction enabled: false
Boxcar width: 0
XAxis mode: Raman Shifts
Number of Pixels in Spectrum: 1044
>>>>>Begin Spectral Data<<<<<
46.04893	-0.7
50.45542	-0.6
54.85868	-0.5
59.25871	-0.8
63.6555	55.6
68.04907	56.6
72.43941	61
76.82654	58.8
81.21044	65.8
85.59113	63.4
89.96862	69.8
94.34289	72.4
98.71396	73.8
103.08183	75.4
107.4465	78.3
111.80798	76.6
116.16626	83.7
120.52136	81.2
124.87327	87
129.222	88.1
133.56755	96.6
137.90993	101.3
142.24913	102.8
146.58517	116.7
150.91804	135.4
155.24774	158
159.57429	195.3
163.89768	241.8
168.21792	322.7
172.53501	439.8
176.84895	607.9
181.15975	853
185.46741	1195.2
189.77193	1663.4
194.07331	2241.3
198.37157	2879.5
202.6667	3574.1
206.9587	4250.5
211.24758	4884.7
215.53334	5560.6
219.81599	6231.2
224.09553	6965.4
228.37195	7766.5
232.64527	8670.8
236.91549	9654.6
241.18261	10644.8
245.44663	11604.7
249.70755	12551.6
253.96539	13343.6
258.22014	14005.4
262.4718	14547.3
266.72039	14910.8
270.96589	15139.2
275.20832	15187.5
279.44768	15152.6
283.68397	15027.5
287.91719	14940
292.14735	14828.8
296.37445	14795.2
300.59849	14801.2
304.81948	14772.9
309.03742	14689
313.25231	14591.6
317.46415	14375.5
321.67296	14127.1
325.87872	13940.4
330.08145	13858.2
334.28114	13898
338.47781	14021.2
342.67145	14147.1
346.86207	14294.9
351.04966	14459.1
355.23424	14621.5
359.4158	14761.7
363.59435	14925.5
367.76989	15018.2
371.94243	15118.7
376.11196	15201.4
380.27849	15292.5
384.44203	15369.8
388.60257	15470.7
392.76012	15613.6
396.91468	15799.8
401.06626	15981.1
405.21485	16153.5
409.36047	16155.2
413.50311	16081.5
417.64277	16007.9
421.77947	16058.9
425.9132	16111.1
430.04396	16221.3
434.17176	16277.1
438.2966	16402.6
442.41849	16540
446.53742	16755
450.6534	16993.4
454.76644	17183.8
458.87653	17327.6
462.98368	17321.7
467.08789	17328.4
471.18916	17309
475.2875	17200.4
479.38291	17114.1
483.4754	17072.9
487.56496	16992.6
491.6516	16810.2
495.73531	16682.1
499.81612	16618
503.89401	16663.3
507.96899	16691.8
512.04106	16725.8
516.11023	16737.3
520.1765	16668.4
524.23987	16544.5
528.30034	16440.3
532.35792	16367.2
536.41261	16314.1
540.46441	16242.5
544.51333	16302.7
548.55936	16430.4
552.60252	16656.9
556.64279	16867
560.6802	16992.7
564.71473	17080.9
568.7464	17247.9
572.7752	17583.9
576.80114	17952.7
580.82422	18318.3
584.84444	18547.3
588.86181	18762.3
592.87633	18856.1
596.888	18779.7
600.89682	18591.2
604.9028	18649.3
608.90594	19223.5
612.90624	19823.6
616.90371	19057
620.89834	17428.7
624.89015	16756.5
628.87913	16743.3
632.86528	16879.3
636.84862	16939.9
640.82913	16822
644.80683	16592.6
648.78172	16464.2
652.75379	16416.1
656.72306	16497.5
660.68952	16603.7
664.65319	16607.6
668.61405	16547.5
672.57211	16534
676.52738	16569.5
680.47986	16567.3
684.42955	16542.7
688.37646	16512.9
692.32058	16553.1
696.26192	16662.2
700.20048	16774.2
704.13626	16867.2
708.06928	16931.8
711.99952	16912.8
715.927	16871.3
719.85171	16835.2
723.77365	16754.4
727.69284	16663.6
731.60928	16531.6
735.52295	16458.2
739.43388	16416.4
743.34206	16492.1
747.24749	16502.7
751.15017	16620.4
755.05012	16793
758.94733	17074
762.8418	17555.3
766.73354	18243.2
770.62254	18844.4
774.50882	18935
778.39237	18468.7
782.27321	17725.6
786.15132	17153.6
790.02671	16778.6
793.89938	16532.4
797.76935	16440.8
801.6366	16393.7
805.50115	16326.2
809.36299	16285
813.22213	16249.3
817.07857	16272.2
820.93231	16227.4
824.78336	16222.2
828.63172	16213.3
832.47738	16220.2
836.32036	16166.6
840.16066	16115
843.99827	16159.8
847.8332	16138.9
851.66546	16193.4
855.49504	16193.3
859.32195	16210.4
863.1462	16178.1
866.96777	16165.7
870.78668	16180
874.60293	16205.8
878.41652	16193.5
882.22745	16249.4
886.03573	16222.1
889.84136	16274.6
893.64433	16237.3
897.44466	16201.1
901.24235	16191.1
905.0374	16157.5
908.8298	16146
912.61957	16191.7
916.40671	16298.3
920.19121	16411.6
923.97308	16466.6
927.75233	16412.5
931.52895	16309.2
935.30295	16144.1
939.07433	15995.1
942.84309	15858.3
946.60924	15794.7
950.37278	15739.4
954.13371	15743.9
957.89203	15711.5
961.64774	15698.8
965.40086	15693.4
969.15137	15637.9
972.89929	15613.9
976.64461	15584.2
980.38733	15566.6
984.12747	15564.6
987.86502	15564.6
991.59999	15605
995.33237	15644.4
999.06217	15754.7
1002.78939	15849.5
1006.51404	15954.9
1010.23611	16098.8
1013.95561	16187.2
1017.67255	16226.2
1021.38692	16194.8
1025.09872	16099.9
1028.80796	16002.7
1032.51465	15929.1
1036.21877	15954.4
1039.92035	15972.6
1043.61937	16051
1047.31584	16090.3
1051.00976	16183.7
1054.70114	16257.7
1058.38998	16319.5
1062.07627	16440.3
1065.76003	16640.6
1069.44126	16738.3
1073.11995	16889.3
1076.79611	16968.1
1080.46974	17003.5
1084.14085	17077.6
1087.80943	17124.8
1091.47549	17186.5
1095.13903	17226.5
1098.80005	17172.7
1102.45857	16977.5
1106.11456	16795
1109.76805	16626.8
1113.41903	16595.5
1117.06751	16572.6
1120.71348	16671.2
1124.35696	16747.9
1127.99793	16859.9
1131.63641	16987.2
1135.2724	16952.4
1138.90589	16912.1
1142.5369	16879.5
1146.16542	16909.6
1149.79145	16996
1153.415	17069.2
1157.03607	17170.6
1160.65467	17429.2
1164.27079	17824.1
1167.88443	18285.6
1171.49561	18785.4
1175.10432	19396.3
1178.71056	20124.4
1182.31434	20917.5
1185.91565	21422.9
1189.51451	21667.5
1193.11091	21606.8
1196.70485	21299.7
1200.29634	20815
1203.88538	20442.7
1207.47197	20115.9
1211.05612	19855.1
1214.63782	19589.4
1218.21708	19254.2
1221.79391	18846
1225.36829	18538.4
1228.94024	18345.2
1232.50976	18235.3
1236.07685	18227.8
1239.6415	18267.8
1243.20374	18284.7
1246.76355	18365.3
1250.32093	18493.7
1253.8759	18713.2
1257.42845	19029.3
1260.97859	19268
1264.52631	19590.5
1268.07163	19887.7
1271.61453	20171.6
1275.15503	20372.9
1278.69312	20689.4
1282.22882	20985
1285.76211	21298.9
1289.29301	21675.3
1292.82151	22231.6
1296.34761	22844.4
1299.87133	23570.1
1303.39266	24237.6
1306.9116	24874
1310.42815	25314.7
1313.94233	25575.6
1317.45412	25514.4
1320.96354	25455.5
1324.47058	25413.9
1327.97525	25406.9
1331.47754	25464.9
1334.97747	25584.2
1338.47502	25746
1341.97022	26030.7
1345.46305	26207.3
1348.95352	26296.7
1352.44163	26189.6
1355.92738	26074.6
1359.41078	26035.9
1362.89183	26032.4
1366.37053	25506.3
1369.84688	24260.8
1373.32088	22798.2
1376.79254	21736
1380.26186	21258.7
1383.72883	21133.9
1387.19347	21074.9
1390.65578	20969.5
1394.11575	20806.8
1397.57339	20836.7
1401.0287	20806.3
1404.48168	20870.2
1407.93234	20735.8
1411.38068	20458.3
1414.82669	20030.6
1418.27039	19549
1421.71177	19028.2
1425.15083	18663
1428.58758	18428.1
1432.02203	18455.8
1435.45416	18608.1
1438.88399	18851.6
1442.31151	19027.3
1445.73673	19219.9
1449.15965	19404.7
1452.58027	19514.2
1455.9986	19611.3
1459.41463	19794.8
1462.82837	20037.4
1466.23982	20278.1
1469.64898	20514.8
1473.05586	20634.1
1476.46045	20709.9
1479.86276	20722.5
1483.26279	20660
1486.66054	20633.9
1490.05602	20704.4
1493.44922	20894
1496.84016	21239.1
1500.22882	21716.5
1503.61521	22341.2
1506.99934	22923.9
1510.38121	23348.2
1513.76081	23401.8
1517.13816	23142.1
1520.51324	22770.7
1523.88607	22434.9
1527.25665	22249.9
1530.62498	22166.7
1533.99105	22029.1
1537.35488	21758.2
1540.71647	21464.1
1544.07581	21033.9
1547.4329	20641.1
1550.78776	20298.2
1554.14038	20064.2
1557.49077	19934.4
1560.83892	19889.6
1564.18484	19892.3
1567.52853	19991.3
1570.86999	20023.3
1574.20922	20212.4
1577.54624	20351.4
1580.88103	20337.6
1584.2136	20298.4
1587.54395	20447.8
1590.87208	20819.1
1594.19801	21312.5
1597.52172	21867
1600.84321	21976.1
1604.16251	21520.9
1607.47959	20746.3
1610.79447	19867.7
1614.10715	18987.2
1617.41763	18177.7
1620.7259	17560.7
1624.03199	17156.9
1627.33587	17016.4
1630.63757	17147.2
1633.93707	17577.1
1637.23439	18410.4
1640.52951	19644.2
1643.82246	21120.9
1647.11321	22475.6
1650.40179	22995
1653.68819	22383.2
1656.97241	20896.9
1660.25446	19112.4
1663.53433	17607.5
1666.81203	16506.7
1670.08756	15765.3
1673.36092	15269.9
1676.63211	14950.5
1679.90115	14734.4
1683.16801	14550.9
1686.43272	14431.5
1689.69527	14343.3
1692.95567	14252.5
1696.2139	14229
1699.46999	14191.9
1702.72392	14149
1705.97571	14101.3
1709.22535	14069.3
1712.47284	14018.7
1715.71819	14024.9
1718.96139	13980.4
1722.20246	13976.1
1725.44139	13912.4
1728.67818	13825.3
1731.91284	13797.2
1735.14537	13737.8
1738.37576	13691
1741.60403	13642
1744.83017	13608.1
1748.05418	13576.8
1751.27607	13556.2
1754.49584	13559
1757.71349	13563.4
1760.92903	13544.3
1764.14244	13532.9
1767.35375	13529
1770.56294	13489.4
1773.77002	13455.7
1776.97499	13422.9
1780.17785	13412.1
1783.37861	13385.8
1786.57727	13361
1789.77382	13313.1
1792.96828	13281.9
1796.16064	13263.2
1799.3509	13230.1
1802.53907	13234.4
1805.72514	13183.5
1808.90913	13157.3
1812.09102	13137.1
1815.27083	13092.9
1818.44856	13084.4
1821.6242	13060.2
1824.79776	13045.2
1827.96924	13020.4
1831.13864	13022.9
1834.30597	13008.5
1837.47122	12984.3
1840.6344	12973.2
1843.7955	12958.5
1846.95454	12958.3
1850.11151	12949.4
1853.26642	12924.3
1856.41926	12922.5
1859.57004	12933.4
1862.71876	12917.8
1865.86542	12877.9
1869.01003	12872.2
1872.15258	12826.6
1875.29308	12804.8
1878.43152	12789.5
1881.56792	12795.8
1884.70227	12747.4
1887.83457	12737.6
1890.96482	12721.1
1894.09304	12671.9
1897.21921	12638.3
1900.34335	12638.1
1903.46544	12619.6
1906.58551	12629
1909.70353	12601.5
1912.81953	12563.9
1915.93349	12545.5
1919.04543	12522
1922.15534	12491.2
1925.26322	12455.1
1928.36908	12433.9
1931.47292	12420
1934.57473	12406.5
1937.67453	12381.8
1940.77232	12380.4
1943.86808	12309.7
1946.96184	12240.5
1950.05358	12226.1
1953.14331	12217.8
1956.23103	12193.6
1959.31675	12107.8
1962.40046	12095.6
1965.48217	12046.7
1968.56188	12006.1
1971.63959	11977
1974.7153	11899.3
1977.78901	11898.9
1980.86073	11872.1
1983.93046	11816.9
1986.99819	11783.2
1990.06394	11769.9
1993.1277	11762.8
1996.18947	11702.2
1999.24925	11664.1
2002.30706	11611.9
2005.36288	11622.3
2008.41672	11533.8
2011.46859	11515.2
2014.51848	11511.7
2017.56639	11474.2
2020.61233	11432.3
2023.6563	11381.9
2026.6983	11383.2
2029.73833	11328.8
2032.7764	11296.6
2035.8125	11276.6
2038.84664	11236
2041.87881	11200.7
2044.90903	11179.9
2047.93729	11144.2
2050.96359	11120.8
2053.98794	11111.3
2057.01034	11108.5
2060.03078	11100.4
2063.04927	11077.9
2066.06582	11094
2069.08042	11062.1
2072.09307	11054.8
2075.10378	11057.7
2078.11255	11017.5
2081.11938	11053.2
2084.12426	11012.1
2087.12722	11002.4
2090.12824	10990.9
2093.12732	10980.4
2096.12447	10988.9
2099.11969	10976.1
2102.11299	10980.7
2105.10435	10997.6
2108.09379	11003.4
2111.08131	11016.7
2114.0669	11007.5
2117.05057	11032.4
2120.03233	11018.2
2123.01216	11013.6
2125.99008	11029.2
2128.96609	11036
2131.94018	11037.6
2134.91236	11040.5
2137.88263	11050.4
2140.851	11058.5
2143.81746	11065.6
2146.78201	11040
2149.74466	11054.3
2152.7054	11043.1
2155.66425	11047.2
2158.6212	11054.3
2161.57625	11044.8
2164.52941	11014.4
2167.48067	11017.1
2170.43004	11001.5
2173.37752	10992.9
2176.32311	11020.7
2179.26681	11002.4
2182.20863	10976.9
2185.14856	10977.7
2188.08661	10960.4
2191.02278	10971.8
2193.95707	10955.5
2196.88948	10981.9
2199.82001	10981.5
2202.74867	10919.8
2205.67545	10919.6
2208.60037	10897
2211.52341	10883.2
2214.44458	10868.6
2217.36388	10840.1
2220.28132	10847.5
2223.1969	10767.3
2226.11061	10771.4
2229.02246	10762.3
2231.93245	10718.9
2234.84058	10702.8
2237.74686	10683.7
2240.65128	10680.8
2243.55385	10663.2
2246.45456	10642.8
2249.35343	10645.2
2252.25044	10619.8
2255.14561	10613.3
2258.03893	10580.9
2260.93041	10532.2
2263.82004	10543.4
2266.70783	10492.1
2269.59378	10461.3
2272.4779	10439.1
2275.36017	10397.4
2278.24061	10385.6
2281.11922	10367.3
2283.996	10351.3
2286.87094	10325.9
2289.74405	10317.8
2292.61534	10304.5
2295.4848	10291.4
2298.35243	10283.2
2301.21824	10247
2304.08223	10239.1
2306.94439	10251.7
2309.80474	10234.5
2312.66327	10248.3
2315.51999	10199.4
2318.37489	10214
2321.22797	10181.1
2324.07925	10160.5
2326.92871	10122.8
2329.77637	10114.5
2332.62222	10127.9
2335.46626	10088.1
2338.3085	10076.6
2341.14893	10052.9
2343.98756	10067.4
2346.8244	10050.2
2349.65943	10039.6
2352.49267	10025.6
2355.32411	10008.1
2358.15376	10026.3
2360.98161	10006.8
2363.80768	10021
2366.63195	9992.7
2369.45444	9972.6
2372.27514	9979.3
2375.09405	9941.7
2377.91118	9936.6
2380.72652	9902.5
2383.54009	9878.4
2386.35187	9853.5
2389.16188	9835.3
2391.97011	9822.8
2394.77657	9774.4
2397.58125	9768.8
2400.38416	9766.4
2403.18529	9750.6
2405.98466	9717.2
2408.78226	9696.9
2411.57809	9703.2
2414.37216	9649.1
2417.16446	9687.9
2419.955	9670.3
2422.74378	9673.7
2425.5308	9662
2428.31606	9640.5
2431.09956	9628.9
2433.88131	9624.8
2436.6613	9609.7
2439.43954	9598.2
2442.21603	9598.5
2444.99077	9566.2
2447.76377	9560.3
2450.53501	9551.3
2453.30451	9531.6
2456.07226	9511.3
2458.83827	9518.8
2461.60254	9504.1
2464.36507	9493.8
2467.12586	9473.5
2469.88492	9452.6
2472.64224	9445
2475.39782	9453
2478.15167	9447.6
2480.90379	9448.6
2483.65417	9470.3
2486.40283	9444.9
2489.14976	9433.1
2491.89497	9420.6
2494.63845	9434.9
2497.3802	9426
2500.12024	9418
2502.85855	9390.1
2505.59514	9374.9
2508.33002	9356.4
2511.06318	9349.6
2513.79462	9337.4
2516.52435	9340.2
2519.25237	9324.3
2521.97867	9316.3
2524.70327	9312.4
2527.42616	9282.7
2530.14734	9292.6
2532.86681	9277.9
2535.58458	9278
2538.30065	9245.9
2541.01501	9246.3
2543.72768	9259.7
2546.43864	9237.8
2549.14791	9193.1
2551.85548	9199.2
2554.56136	9164.5
2557.26554	9156.5
2559.96803	9153
2562.66883	9100.2
2565.36794	9092.1
2568.06536	9074.2
2570.7611	9061
2573.45514	9031.8
2576.14751	9022
2578.83819	9013.7
2581.52719	8979.7
2584.21451	8981
2586.90015	8962.6
2589.58411	8936.5
2592.2664	8932.5
2594.94701	8928
2597.62594	8914.8
2600.30321	8869.6
2602.9788	8846.7
2605.65273	8857.8
2608.32498	8850.8
2610.99557	8834.1
2613.66449	8829.9
2616.33175	8807.2
2618.99734	8770.6
2621.66128	8798.4
2624.32355	8770.6
2626.98416	8771.6
2629.64311	8750.9
2632.30041	8730.2
2634.95605	8728.7
2637.61004	8695.5
2640.26238	8704.8
2642.91306	8688.8
2645.56209	8673.6
2648.20948	8692
2650.85521	8669.5
2653.4993	8678.8
2656.14175	8686.8
2658.78255	8656.7
2661.42171	8679.9
2664.05923	8680.9
2666.6951	8688.9
2669.32934	8684.3
2671.96194	8660.9
2674.59291	8686.8
2677.22224	8655.5
2679.84993	8653.8
2682.476	8659.8
2685.10043	8638.4
2687.72324	8620.7
2690.34441	8632.9
2692.96396	8633.1
2695.58188	8635.3
2698.19818	8605.2
2700.81285	8619.2
2703.4259	8619.2
2706.03733	8626
2708.64714	8609.5
2711.25533	8616.3
2713.86191	8606.6
2716.46687	8623.4
2719.07021	8636.3
2721.67194	8645.3
2724.27206	8618.2
2726.87057	8650.3
2729.46747	8641.9
2732.06276	8610.2
2734.65644	8603.8
2737.24852	8597
2739.83899	8600.1
2742.42786	8585
2745.01513	8546.8
2747.60079	8533.4
2750.18486	8531.7
2752.76733	8555.6
2755.3482	8504.4
2757.92747	8519.6
2760.50515	8516.1
2763.08123	8468.3
2765.65573	8461
2768.22863	8467.8
2770.79994	8459.7
2773.36967	8454.1
2775.9378	8441.1
2778.50435	8444.7
2781.06932	8418.4
2783.6327	8413.4
2786.1945	8435.7
2788.75471	8393.1
2791.31335	8391.5
2793.87041	8363.6
2796.42589	8342.5
2798.97979	8328.1
2801.53212	8329.9
2804.08288	8302.5
2806.63206	8281.6
2809.17967	8261.8
2811.72571	8253.4
2814.27018	8209.3
2816.81308	8222.1
2819.35442	8178.4
2821.89419	8181.3
2824.43239	8149.5
2826.96904	8141.6
2829.50412	8155.3
2832.03763	8135.3
2834.56959	8119
2837.1	8096.9
2839.62884	8110
2842.15613	8118.6
2844.68186	8104.5
2847.20604	8107.7
2849.72867	8141.9
2852.24974	8109
2854.76927	8103.3
2857.28724	8091.4
2859.80367	8047.9
2862.31855	8050.8
2864.83189	8034.4
2867.34368	8032
2869.85393	8003.4
2872.36264	8015.9
2874.8698	8002.2
2877.37543	8005.2
2879.87952	7978.6
2882.38207	7960.8
2884.88308	7964.1
2887.38256	7980.3
2889.88051	7938.3
2892.37692	7976.2
2894.8718	7937.1
2897.36515	7951.6
2899.85698	7950.6
2902.34727	7970.2
2904.83604	7979.2
2907.32328	7970.3
2909.809	7968.8
2912.29319	7967.7
2914.77587	7965.1
2917.25702	7955.3
2919.73665	7952.7
2922.21476	7955.9
2924.69136	7939.1
2927.16644	7927.9
2929.64	7916.7
2932.11205	7904.5
2934.58258	7896.1
2937.05161	7915
2939.51912	7903.1
2941.98513	7898.4
2944.44962	7881.5
2946.91261	7844.5
2949.37409	7851.2
2951.83407	7845.3
2954.29254	7821.6
2956.74951	7820
2959.20498	7813.6
2961.65895	7805.5
2964.11142	7818.1
2966.56239	7820.6
2969.01186	7812.4
2971.45984	7780.2
2973.90632	7795.8
2976.35131	7754.6
2978.7948	7749.5
2981.23681	7736.2
2983.67732	7733
2986.11635	7711.7
2988.55388	7692.6
2990.98993	7668.4
2993.4245	7658.4
2995.85758	7642
2998.28917	7619.4
3000.71928	7609.6
3003.14791	7585.8
3005.57506	7571.4
3008.00073	7548.6
3010.42493	7522.4
3012.84764	7518.9
3015.26888	7517.5
3017.68865	7492.8
3020.10694	7493.4
3022.52376	7476.1
3024.9391	7478.5
3027.35298	7437.2
3029.76539	7443.5
3032.17632	7442.8
3034.5858	7443.3
3036.9938	7416.7
3039.40034	7419
3041.80542	7433.3
3044.20903	7401.7
3046.61118	7397.3
3049.01187	7362.8
3051.4111	7364.8
3053.80888	7370
3056.20519	7331.6
3058.60005	7318.7
3060.99345	7308.8
3063.3854	7290.1
3065.7759	7270.2
3068.16494	7258.4
3070.55254	7249
3072.93868	7241.8
3075.32338	7223.5
3077.70662	7227.1
3080.08842	7200.1
3082.46878	7202.5
3084.84769	7188.1
3087.22515	7167.3
3089.60118	7163.8
3091.97576	7170.9
3094.3489	7163.4
3096.72061	7142.3
3099.09087	7147.1
3101.4597	7134
3103.82709	7150.1
3106.19305	7142.5
3108.55757	7132.1
3110.92066	7128.1
3113.28232	7099.9
3115.64255	7110.1
3118.00134	7093.9
3120.35871	7072.1
3122.71466	7070.4
3125.06917	7042
3127.42226	7030.1
3129.77393	7036.8
3132.12417	7014.4
3134.47299	7015.8
3136.82039	7030.7
3139.16636	7029.7
3141.51092	7037
3143.85406	7031.7
3146.19579	7003.2
3148.53609	7024.2
3150.87499	7025.7
3153.21246	7035.6
3155.54853	7016.5
3157.88318	7039
3160.21642	7046.8
3162.54826	7035.2
3164.87868	7035.2
3167.2077	7059
3169.5353	7046
3171.86151	7037.6
3174.18631	7049.2
3176.5097	7034.3
3178.83169	7044.6
3181.15228	7021.2
3183.47147	7000.7
3185.78926	6999.4
3188.10565	6987.7
3190.42065	6992
3192.73424	6987.4
3195.04645	6960.8
3197.35725	6965.6
3199.66667	6974.2
3201.97469	6976.8
3204.28132	6957.6
3206.58656	6986.7
3208.8904	6968.7
3211.19287	6953.7
3213.49394	6951.5
3215.79363	6981.9
3218.09193	6995.7
3220.38884	6989.6
3222.68438	6972.3
3224.97853	6973.3
3227.2713	6963.8
3229.56269	6950.8
3231.8527	6929.8
3234.14133	6923.7
3236.42858	6914.9
3238.71446	6900.4
3240.99896	6897.2
3243.28209	6861.8
3245.56384	6859.6
3247.84423	6852.8
3250.12324	6857.6
3252.40088	6843.3
3254.67715	6853.7
3256.95205	6828.4
3259.22558	6819.5
3261.49775	6808.1
3263.76855	6796.5
3266.03799	6798.9
3268.30606	6781.6
3270.57277	6767.4
3272.83812	6749.2
3275.10211	6732.5
3277.36474	6736.7
3279.62601	6728.9
3281.88593	6714
3284.14448	6721.4
3286.40168	6723.9
3288.65753	6700.2
3290.91202	6696.1
3293.16516	6681.4
3295.41695	6656.2
3297.66738	6635
3299.91647	6612
3302.16421	6581.9
3304.4106	6532.9
3306.65564	6496.7
3308.89933	6427.3
3311.14169	6389.2
3313.38269	6326.8
3315.62236	6304.4
3317.86068	6236.7
3320.09766	6171.5
3322.3333	6145.7
3324.5676	6112.5
3326.80056	5995.7
3329.03219	5966.9
3331.26248	3.1
3333.49143	-0.3
3335.71905	0
