Data from AgNP_FTO_APTES_UA_10uM_CRN_1uM_R6G_10uM_NaF_0.1M_Addition_RamanShift__5__12-58-30-497.txt Node

Date: Thu Feb 10 12:58:30 GMT 2022
User: TCL
Spectrometer: QEP01345
Trigger mode: 4
Integration Time (sec): 7.000000E0
Scans to average: 10
Electric dark correction enabled: true
Nonlinearity correction enabled: false
Boxcar width: 0
XAxis mode: Raman Shifts
Number of Pixels in Spectrum: 1044
>>>>>Begin Spectral Data<<<<<
46.04893	-0.2625
50.45542	-1.1625
54.85868	-1.0625
59.25871	-0.2625
63.6555	79.0375
68.04907	80.6375
72.43941	85.8375
76.82654	84.3375
81.21044	94.7375
85.59113	93.0375
89.96862	95.4375
94.34289	100.3375
98.71396	103.7375
103.08183	109.6375
107.4465	112.4375
111.80798	108.9375
116.16626	113.1375
120.52136	121.6375
124.87327	125.9375
129.222	128.1375
133.56755	138.5375
137.90993	149.5375
142.24913	161.7375
146.58517	184.0375
150.91804	216.9375
155.24774	258.2375
159.57429	319.3375
163.89768	413.8375
168.21792	552.5375
172.53501	757.9375
176.84895	1049.0375
181.15975	1472.0375
185.46741	2069.4375
189.77193	2866.1375
194.07331	3825.0375
198.37157	4918.2375
202.6667	6088.6375
206.9587	7201.6375
211.24758	8349.1375
215.53334	9494.9375
219.81599	10717.9375
224.09553	12059.9375
228.37195	13581.0375
232.64527	15213.9375
236.91549	16910.7375
241.18261	18531.3375
245.44663	20056.2375
249.70755	21359.6375
253.96539	22498.9375
258.22014	23467.3375
262.4718	24307.8375
266.72039	24824.6375
270.96589	25091.1375
275.20832	25089.9375
279.44768	24843.8375
283.68397	24573.0375
287.91719	24321.1375
292.14735	24170.6375
296.37445	24191.9375
300.59849	24318.8375
304.81948	24516.6375
309.03742	24643.9375
313.25231	24555.3375
317.46415	24243.2375
321.67296	23695.0375
325.87872	23255.1375
330.08145	23002.2375
334.28114	22970.7375
338.47781	23114.4375
342.67145	23399.1375
346.86207	23874.0375
351.04966	24435.5375
355.23424	25004.2375
359.4158	25457.0375
363.59435	25749.5375
367.76989	26034.5375
371.94243	26132.9375
376.11196	26281.3375
380.27849	26297.2375
384.44203	26511.9375
388.60257	26702.6375
392.76012	26957.9375
396.91468	27264.0375
401.06626	27733.5375
405.21485	27994.2375
409.36047	27909.9375
413.50311	27681.9375
417.64277	27620.3375
421.77947	27816.3375
425.9132	28015.7375
430.04396	28149.6375
434.17176	28219.4375
438.2966	28314.4375
442.41849	28756.0375
446.53742	29675.8375
450.6534	30702.1375
454.76644	31357.9375
458.87653	31392.9375
462.98368	31019.5375
467.08789	30375.6375
471.18916	29616.6375
475.2875	28878.3375
479.38291	28269.6375
483.4754	28013.9375
487.56496	27772.0375
491.6516	27474.0375
495.73531	27285.7375
499.81612	27262.7375
503.89401	27515.8375
507.96899	27694.2375
512.04106	27619.4375
516.11023	27406.7375
520.1765	27088.1375
524.23987	26803.1375
528.30034	26638.1375
532.35792	26370.4375
536.41261	25956.6375
540.46441	25486.2375
544.51333	25464.6375
548.55936	25636.6375
552.60252	26257.4375
556.64279	27027.5375
560.6802	27594.2375
564.71473	27857.6375
568.7464	28229.0375
572.7752	29037.1375
576.80114	30089.4375
580.82422	31357.7375
584.84444	33187.0375
588.86181	35401.2375
592.87633	37185.6375
596.888	36784.7375
600.89682	34306.8375
604.9028	33299.6375
608.90594	35417.9375
612.90624	38055.5375
616.90371	35689.7375
620.89834	29886.1375
624.89015	27216.1375
628.87913	26913.4375
632.86528	26893.4375
636.84862	26585.2375
640.82913	26002.4375
644.80683	25271.3375
648.78172	24861.7375
652.75379	24930.1375
656.72306	25287.5375
660.68952	25800.4375
664.65319	25614.6375
668.61405	25105.6375
672.57211	25047.3375
676.52738	25265.2375
680.47986	25159.1375
684.42955	24945.2375
688.37646	24837.7375
692.32058	25114.9375
696.26192	25651.0375
700.20048	26190.7375
704.13626	26366.4375
708.06928	26181.3375
711.99952	25960.5375
715.927	26029.7375
719.85171	26266.1375
723.77365	26149.1375
727.69284	25607.7375
731.60928	25128.2375
735.52295	24933.1375
739.43388	24983.5375
743.34206	25100.5375
747.24749	25332.8375
751.15017	25597.5375
755.05012	26094.8375
758.94733	26890.9375
762.8418	28194.0375
766.73354	30183.7375
770.62254	32015.4375
774.50882	32281.4375
778.39237	30903.6375
782.27321	28904.8375
786.15132	27159.9375
790.02671	26076.6375
793.89938	25577.4375
797.76935	25420.1375
801.6366	25407.2375
805.50115	25341.5375
809.36299	25170.9375
813.22213	24913.3375
817.07857	24670.0375
820.93231	24553.0375
824.78336	24376.0375
828.63172	24263.3375
832.47738	24283.2375
836.32036	24313.1375
840.16066	24475.2375
843.99827	24549.9375
847.8332	24496.6375
851.66546	24417.1375
855.49504	24367.7375
859.32195	24381.0375
863.1462	24292.4375
866.96777	24195.2375
870.78668	24102.0375
874.60293	24119.3375
878.41652	24202.0375
882.22745	24328.8375
886.03573	24400.8375
889.84136	24440.0375
893.64433	24299.4375
897.44466	24161.9375
901.24235	24058.5375
905.0374	23969.0375
908.8298	23902.5375
912.61957	23915.1375
916.40671	24136.9375
920.19121	24528.1375
923.97308	24942.0375
927.75233	25160.2375
931.52895	25027.3375
935.30295	24588.3375
939.07433	24076.8375
942.84309	23703.9375
946.60924	23647.7375
950.37278	23653.9375
954.13371	23633.5375
957.89203	23549.9375
961.64774	23486.9375
965.40086	23450.1375
969.15137	23430.4375
972.89929	23377.7375
976.64461	23342.4375
980.38733	23405.5375
984.12747	23518.6375
987.86502	23775.3375
991.59999	24072.9375
995.33237	24580.9375
999.06217	25448.4375
1002.78939	26462.8375
1006.51404	27321.8375
1010.23611	27882.4375
1013.95561	28211.9375
1017.67255	28192.4375
1021.38692	27779.5375
1025.09872	27208.8375
1028.80796	27199.1375
1032.51465	27981.4375
1036.21877	28813.8375
1039.92035	29057.3375
1043.61937	28792.1375
1047.31584	28035.0375
1051.00976	27122.1375
1054.70114	26602.3375
1058.38998	26446.6375
1062.07627	26471.0375
1065.76003	26634.2375
1069.44126	26924.8375
1073.11995	27508.7375
1076.79611	28037.2375
1080.46974	28400.7375
1084.14085	28730.5375
1087.80943	29139.6375
1091.47549	29382.1375
1095.13903	29277.7375
1098.80005	28662.1375
1102.45857	27979.1375
1106.11456	27470.6375
1109.76805	27264.1375
1113.41903	27190.7375
1117.06751	27309.9375
1120.71348	27525.4375
1124.35696	27765.6375
1127.99793	28106.8375
1131.63641	28341.4375
1135.2724	28291.2375
1138.90589	28205.1375
1142.5369	28261.7375
1146.16542	28470.6375
1149.79145	28715.6375
1153.415	28921.0375
1157.03607	29276.7375
1160.65467	30196.7375
1164.27079	31848.9375
1167.88443	33828.8375
1171.49561	35957.2375
1175.10432	38531.7375
1178.71056	42044.6375
1182.31434	45474.0375
1185.91565	47231.6375
1189.51451	46710.0375
1193.11091	44951.2375
1196.70485	42912.1375
1200.29634	41164.7375
1203.88538	39988.2375
1207.47197	39479.0375
1211.05612	39089.9375
1214.63782	38327.7375
1218.21708	37279.3375
1221.79391	36319.5375
1225.36829	35849.0375
1228.94024	35376.8375
1232.50976	34585.9375
1236.07685	33787.9375
1239.6415	33178.7375
1243.20374	33158.6375
1246.76355	33457.9375
1250.32093	34217.4375
1253.8759	35196.7375
1257.42845	36405.0375
1260.97859	37715.6375
1264.52631	39176.6375
1268.07163	40721.6375
1271.61453	42321.1375
1275.15503	43808.3375
1278.69312	45191.5375
1282.22882	46438.9375
1285.76211	47812.5375
1289.29301	49430.7375
1292.82151	51574.8375
1296.34761	54457.6375
1299.87133	58294.4375
1303.39266	62759.5375
1306.9116	67093.6375
1310.42815	70352.5375
1313.94233	71675.1375
1317.45412	70413.0375
1320.96354	67889.5375
1324.47058	65756.7375
1327.97525	64453.2375
1331.47754	63627.7375
1334.97747	62977.6375
1338.47502	62124.4375
1341.97022	60604.2375
1345.46305	58890.0375
1348.95352	57701.5375
1352.44163	58023.6375
1355.92738	60256.5375
1359.41078	64062.0375
1362.89183	66985.0375
1366.37053	66122.1375
1369.84688	60561.3375
1373.32088	53210.6375
1376.79254	48063.6375
1380.26186	46253.2375
1383.72883	46150.5375
1387.19347	46151.0375
1390.65578	45474.5375
1394.11575	45273.7375
1397.57339	45922.7375
1401.0287	47011.2375
1404.48168	48037.9375
1407.93234	48426.7375
1411.38068	47847.7375
1414.82669	46473.7375
1418.27039	44644.0375
1421.71177	42628.5375
1425.15083	41099.1375
1428.58758	40637.9375
1432.02203	41428.9375
1435.45416	43052.9375
1438.88399	44748.0375
1442.31151	45650.3375
1445.73673	45925.9375
1449.15965	45879.6375
1452.58027	45415.1375
1455.9986	45037.1375
1459.41463	45137.7375
1462.82837	46004.1375
1466.23982	47208.1375
1469.64898	48232.8375
1473.05586	48896.8375
1476.46045	48884.6375
1479.86276	48355.4375
1483.26279	47727.2375
1486.66054	47430.7375
1490.05602	47596.3375
1493.44922	47878.3375
1496.84016	48013.6375
1500.22882	48330.5375
1503.61521	49223.1375
1506.99934	50356.6375
1510.38121	51379.9375
1513.76081	51294.6375
1517.13816	49999.4375
1520.51324	48208.7375
1523.88607	46963.8375
1527.25665	46724.3375
1530.62498	46893.1375
1533.99105	46870.3375
1537.35488	46565.3375
1540.71647	45739.2375
1544.07581	44640.9375
1547.4329	43428.2375
1550.78776	42333.3375
1554.14038	41438.8375
1557.49077	40828.5375
1560.83892	40347.4375
1564.18484	40149.1375
1567.52853	40171.3375
1570.86999	40473.8375
1574.20922	41132.8375
1577.54624	41823.1375
1580.88103	42179.2375
1584.2136	42968.9375
1587.54395	45132.2375
1590.87208	48700.2375
1594.19801	53211.9375
1597.52172	57095.6375
1600.84321	58072.1375
1604.16251	54780.8375
1607.47959	49158.6375
1610.79447	43387.8375
1614.10715	38540.8375
1617.41763	34975.5375
1620.7259	32906.4375
1624.03199	32028.2375
1627.33587	32280.8375
1630.63757	33700.5375
1633.93707	36436.6375
1637.23439	40970.2375
1640.52951	47568.9375
1643.82246	55164.5375
1647.11321	60586.2375
1650.40179	60368.3375
1653.68819	54122.7375
1656.97241	45152.9375
1660.25446	37347.0375
1663.53433	32136.5375
1666.81203	28961.3375
1670.08756	27090.7375
1673.36092	25899.3375
1676.63211	25142.8375
1679.90115	24595.5375
1683.16801	24188.3375
1686.43272	23918.1375
1689.69527	23646.5375
1692.95567	23473.4375
1696.2139	23376.0375
1699.46999	23268.6375
1702.72392	23243.5375
1705.97571	23157.3375
1709.22535	23112.7375
1712.47284	23111.0375
1715.71819	23034.6375
1718.96139	22969.7375
1722.20246	22895.3375
1725.44139	22785.8375
1728.67818	22612.1375
1731.91284	22448.4375
1735.14537	22321.9375
1738.37576	22280.7375
1741.60403	22186.0375
1744.83017	22092.4375
1748.05418	22033.5375
1751.27607	21920.7375
1754.49584	21937.0375
1757.71349	21943.6375
1760.92903	21891.0375
1764.14244	21904.5375
1767.35375	21869.5375
1770.56294	21822.2375
1773.77002	21794.5375
1776.97499	21755.1375
1780.17785	21709.5375
1783.37861	21660.6375
1786.57727	21647.2375
1789.77382	21631.0375
1792.96828	21570.1375
1796.16064	21491.0375
1799.3509	21476.1375
1802.53907	21445.8375
1805.72514	21399.7375
1808.90913	21348.2375
1812.09102	21326.7375
1815.27083	21257.3375
1818.44856	21258.8375
1821.6242	21202.9375
1824.79776	21197.2375
1827.96924	21197.0375
1831.13864	21215.5375
1834.30597	21233.0375
1837.47122	21247.9375
1840.6344	21285.9375
1843.7955	21246.4375
1846.95454	21263.7375
1850.11151	21251.8375
1853.26642	21233.8375
1856.41926	21210.6375
1859.57004	21219.2375
1862.71876	21226.9375
1865.86542	21211.4375
1869.01003	21207.1375
1872.15258	21148.6375
1875.29308	21174.1375
1878.43152	21155.3375
1881.56792	21139.1375
1884.70227	21126.0375
1887.83457	21109.5375
1890.96482	21068.3375
1894.09304	20984.9375
1897.21921	20946.7375
1900.34335	20953.9375
1903.46544	20941.1375
1906.58551	20948.7375
1909.70353	20871.0375
1912.81953	20879.5375
1915.93349	20864.7375
1919.04543	20793.5375
1922.15534	20722.5375
1925.26322	20701.0375
1928.36908	20669.2375
1931.47292	20614.2375
1934.57473	20521.0375
1937.67453	20487.8375
1940.77232	20467.9375
1943.86808	20423.5375
1946.96184	20336.9375
1950.05358	20282.6375
1953.14331	20257.2375
1956.23103	20177.7375
1959.31675	20130.6375
1962.40046	20101.7375
1965.48217	20019.3375
1968.56188	19946.2375
1971.63959	19893.5375
1974.7153	19865.6375
1977.78901	19861.9375
1980.86073	19760.2375
1983.93046	19693.5375
1986.99819	19672.5375
1990.06394	19606.4375
1993.1277	19540.2375
1996.18947	19503.4375
1999.24925	19456.8375
2002.30706	19386.2375
2005.36288	19363.6375
2008.41672	19305.7375
2011.46859	19240.6375
2014.51848	19229.7375
2017.56639	19192.9375
2020.61233	19148.6375
2023.6563	19125.2375
2026.6983	19084.1375
2029.73833	19068.4375
2032.7764	19018.8375
2035.8125	19012.5375
2038.84664	18949.6375
2041.87881	18974.4375
2044.90903	18930.5375
2047.93729	18900.1375
2050.96359	18857.7375
2053.98794	18848.6375
2057.01034	18858.1375
2060.03078	18811.8375
2063.04927	18811.0375
2066.06582	18810.2375
2069.08042	18780.3375
2072.09307	18765.8375
2075.10378	18762.2375
2078.11255	18748.9375
2081.11938	18751.7375
2084.12426	18732.4375
2087.12722	18721.8375
2090.12824	18686.0375
2093.12732	18696.9375
2096.12447	18700.9375
2099.11969	18692.8375
2102.11299	18693.0375
2105.10435	18752.7375
2108.09379	18735.0375
2111.08131	18764.8375
2114.0669	18739.6375
2117.05057	18787.8375
2120.03233	18800.6375
2123.01216	18826.4375
2125.99008	18850.1375
2128.96609	18825.1375
2131.94018	18844.3375
2134.91236	18916.3375
2137.88263	18904.7375
2140.851	18920.5375
2143.81746	18930.7375
2146.78201	18894.7375
2149.74466	18933.8375
2152.7054	18914.6375
2155.66425	18900.5375
2158.6212	18882.3375
2161.57625	18864.7375
2164.52941	18861.6375
2167.48067	18866.3375
2170.43004	18876.4375
2173.37752	18859.1375
2176.32311	18898.9375
2179.26681	18928.6375
2182.20863	18902.7375
2185.14856	18939.2375
2188.08661	18877.3375
2191.02278	18934.3375
2193.95707	18954.7375
2196.88948	18959.6375
2199.82001	18939.7375
2202.74867	18939.8375
2205.67545	18934.8375
2208.60037	18921.4375
2211.52341	18900.9375
2214.44458	18885.0375
2217.36388	18867.4375
2220.28132	18845.3375
2223.1969	18794.1375
2226.11061	18791.9375
2229.02246	18760.1375
2231.93245	18760.1375
2234.84058	18740.2375
2237.74686	18694.4375
2240.65128	18660.6375
2243.55385	18635.1375
2246.45456	18631.2375
2249.35343	18551.4375
2252.25044	18537.8375
2255.14561	18512.3375
2258.03893	18508.6375
2260.93041	18461.7375
2263.82004	18414.1375
2266.70783	18383.3375
2269.59378	18332.1375
2272.4779	18340.2375
2275.36017	18249.0375
2278.24061	18246.3375
2281.11922	18276.7375
2283.996	18237.5375
2286.87094	18195.2375
2289.74405	18188.7375
2292.61534	18168.5375
2295.4848	18179.4375
2298.35243	18222.7375
2301.21824	18203.2375
2304.08223	18251.7375
2306.94439	18271.3375
2309.80474	18271.8375
2312.66327	18268.0375
2315.51999	18301.0375
2318.37489	18275.4375
2321.22797	18264.9375
2324.07925	18240.6375
2326.92871	18245.6375
2329.77637	18254.8375
2332.62222	18207.7375
2335.46626	18194.1375
2338.3085	18234.3375
2341.14893	18236.0375
2343.98756	18227.6375
2346.8244	18279.9375
2349.65943	18247.1375
2352.49267	18254.0375
2355.32411	18224.7375
2358.15376	18266.0375
2360.98161	18246.8375
2363.80768	18224.2375
2366.63195	18192.4375
2369.45444	18144.8375
2372.27514	18117.7375
2375.09405	18089.5375
2377.91118	18073.2375
2380.72652	18065.0375
2383.54009	17990.5375
2386.35187	17989.1375
2389.16188	17926.8375
2391.97011	17954.4375
2394.77657	17888.7375
2397.58125	17861.0375
2400.38416	17877.0375
2403.18529	17826.4375
2405.98466	17813.9375
2408.78226	17762.1375
2411.57809	17731.8375
2414.37216	17751.5375
2417.16446	17727.3375
2419.955	17703.3375
2422.74378	17681.0375
2425.5308	17695.5375
2428.31606	17713.7375
2431.09956	17690.5375
2433.88131	17679.5375
2436.6613	17714.1375
2439.43954	17734.7375
2442.21603	17713.8375
2444.99077	17650.9375
2447.76377	17652.7375
2450.53501	17679.0375
2453.30451	17658.3375
2456.07226	17650.5375
2458.83827	17710.3375
2461.60254	17698.2375
2464.36507	17700.8375
2467.12586	17689.8375
2469.88492	17705.7375
2472.64224	17704.2375
2475.39782	17753.0375
2478.15167	17730.4375
2480.90379	17764.2375
2483.65417	17781.5375
2486.40283	17788.5375
2489.14976	17804.8375
2491.89497	17817.1375
2494.63845	17782.4375
2497.3802	17835.0375
2500.12024	17800.4375
2502.85855	17813.4375
2505.59514	17812.9375
2508.33002	17782.0375
2511.06318	17759.1375
2513.79462	17759.3375
2516.52435	17743.7375
2519.25237	17760.1375
2521.97867	17746.9375
2524.70327	17764.1375
2527.42616	17757.7375
2530.14734	17754.2375
2532.86681	17728.2375
2535.58458	17772.3375
2538.30065	17731.2375
2541.01501	17774.7375
2543.72768	17749.5375
2546.43864	17770.7375
2549.14791	17730.0375
2551.85548	17741.3375
2554.56136	17756.2375
2557.26554	17739.3375
2559.96803	17663.9375
2562.66883	17688.4375
2565.36794	17664.0375
2568.06536	17654.8375
2570.7611	17656.0375
2573.45514	17655.3375
2576.14751	17686.0375
2578.83819	17706.1375
2581.52719	17662.7375
2584.21451	17662.3375
2586.90015	17652.0375
2589.58411	17623.0375
2592.2664	17658.8375
2594.94701	17653.7375
2597.62594	17629.6375
2600.30321	17605.9375
2602.9788	17613.0375
2605.65273	17603.1375
2608.32498	17648.2375
2610.99557	17636.1375
2613.66449	17701.7375
2616.33175	17641.0375
2618.99734	17642.6375
2621.66128	17601.4375
2624.32355	17633.0375
2626.98416	17621.2375
2629.64311	17590.5375
2632.30041	17596.2375
2634.95605	17596.1375
2637.61004	17544.6375
2640.26238	17567.6375
2642.91306	17577.3375
2645.56209	17544.9375
2648.20948	17557.4375
2650.85521	17514.3375
2653.4993	17532.5375
2656.14175	17551.1375
2658.78255	17577.0375
2661.42171	17622.8375
2664.05923	17647.9375
2666.6951	17648.2375
2669.32934	17698.9375
2671.96194	17694.4375
2674.59291	17671.9375
2677.22224	17705.1375
2679.84993	17690.4375
2682.476	17631.3375
2685.10043	17636.1375
2687.72324	17614.5375
2690.34441	17593.3375
2692.96396	17608.0375
2695.58188	17617.4375
2698.19818	17595.4375
2700.81285	17580.2375
2703.4259	17600.1375
2706.03733	17599.2375
2708.64714	17629.3375
2711.25533	17673.5375
2713.86191	17656.5375
2716.46687	17690.6375
2719.07021	17725.4375
2721.67194	17715.3375
2724.27206	17733.9375
2726.87057	17743.5375
2729.46747	17769.5375
2732.06276	17808.2375
2734.65644	17826.6375
2737.24852	17815.4375
2739.83899	17774.9375
2742.42786	17796.2375
2745.01513	17787.7375
2747.60079	17818.1375
2750.18486	17801.6375
2752.76733	17775.6375
2755.3482	17759.6375
2757.92747	17760.0375
2760.50515	17758.2375
2763.08123	17769.9375
2765.65573	17741.3375
2768.22863	17740.9375
2770.79994	17753.2375
2773.36967	17725.9375
2775.9378	17748.1375
2778.50435	17733.2375
2781.06932	17760.8375
2783.6327	17780.3375
2786.1945	17757.9375
2788.75471	17765.6375
2791.31335	17734.4375
2793.87041	17736.4375
2796.42589	17685.3375
2798.97979	17683.3375
2801.53212	17666.1375
2804.08288	17659.0375
2806.63206	17615.0375
2809.17967	17575.6375
2811.72571	17532.4375
2814.27018	17517.7375
2816.81308	17479.6375
2819.35442	17458.2375
2821.89419	17433.5375
2824.43239	17407.1375
2826.96904	17394.3375
2829.50412	17396.4375
2832.03763	17337.2375
2834.56959	17347.8375
2837.1	17335.1375
2839.62884	17340.3375
2842.15613	17343.6375
2844.68186	17367.6375
2847.20604	17372.5375
2849.72867	17400.3375
2852.24974	17433.0375
2854.76927	17381.0375
2857.28724	17342.9375
2859.80367	17316.5375
2862.31855	17277.7375
2864.83189	17293.3375
2867.34368	17298.3375
2869.85393	17285.0375
2872.36264	17290.2375
2874.8698	17256.9375
2877.37543	17269.3375
2879.87952	17295.4375
2882.38207	17329.3375
2884.88308	17329.4375
2887.38256	17289.3375
2889.88051	17295.9375
2892.37692	17312.5375
2894.8718	17352.7375
2897.36515	17404.3375
2899.85698	17405.2375
2902.34727	17430.3375
2904.83604	17448.8375
2907.32328	17511.2375
2909.809	17490.4375
2912.29319	17501.1375
2914.77587	17478.2375
2917.25702	17432.3375
2919.73665	17424.9375
2922.21476	17457.4375
2924.69136	17414.7375
2927.16644	17404.6375
2929.64	17366.4375
2932.11205	17380.0375
2934.58258	17334.6375
2937.05161	17356.3375
2939.51912	17329.2375
2941.98513	17317.3375
2944.44962	17292.3375
2946.91261	17237.9375
2949.37409	17249.8375
2951.83407	17249.9375
2954.29254	17255.3375
2956.74951	17275.2375
2959.20498	17223.3375
2961.65895	17189.6375
2964.11142	17214.5375
2966.56239	17161.9375
2969.01186	17185.8375
2971.45984	17172.6375
2973.90632	17113.0375
2976.35131	17086.7375
2978.7948	17055.6375
2981.23681	17013.9375
2983.67732	16998.5375
2986.11635	16993.3375
2988.55388	16895.9375
2990.98993	16858.3375
2993.4245	16839.1375
2995.85758	16813.1375
2998.28917	16744.1375
3000.71928	16746.8375
3003.14791	16722.7375
3005.57506	16694.5375
3008.00073	16636.0375
3010.42493	16649.2375
3012.84764	16599.5375
3015.26888	16601.6375
3017.68865	16517.5375
3020.10694	16475.8375
3022.52376	16430.2375
3024.9391	16456.0375
3027.35298	16447.4375
3029.76539	16414.3375
3032.17632	16444.1375
3034.5858	16398.8375
3036.9938	16428.3375
3039.40034	16405.3375
3041.80542	16403.4375
3044.20903	16366.3375
3046.61118	16381.7375
3049.01187	16328.1375
3051.4111	16331.9375
3053.80888	16299.4375
3056.20519	16256.2375
3058.60005	16217.6375
3060.99345	16223.2375
3063.3854	16199.2375
3065.7759	16083.8375
3068.16494	16080.7375
3070.55254	16034.7375
3072.93868	15987.5375
3075.32338	15981.1375
3077.70662	15960.2375
3080.08842	15897.2375
3082.46878	15896.1375
3084.84769	15842.0375
3087.22515	15845.1375
3089.60118	15862.2375
3091.97576	15818.0375
3094.3489	15830.9375
3096.72061	15792.9375
3099.09087	15834.1375
3101.4597	15827.5375
3103.82709	15823.9375
3106.19305	15803.2375
3108.55757	15782.6375
3110.92066	15728.2375
3113.28232	15748.2375
3115.64255	15657.7375
3118.00134	15667.4375
3120.35871	15669.8375
3122.71466	15605.4375
3125.06917	15550.5375
3127.42226	15532.5375
3129.77393	15549.0375
3132.12417	15531.5375
3134.47299	15503.3375
3136.82039	15492.2375
3139.16636	15513.4375
3141.51092	15514.4375
3143.85406	15509.3375
3146.19579	15476.3375
3148.53609	15445.5375
3150.87499	15482.9375
3153.21246	15480.9375
3155.54853	15477.5375
3157.88318	15497.8375
3160.21642	15480.6375
3162.54826	15502.7375
3164.87868	15469.6375
3167.2077	15525.9375
3169.5353	15512.2375
3171.86151	15526.8375
3174.18631	15478.5375
3176.5097	15443.2375
3178.83169	15429.6375
3181.15228	15452.9375
3183.47147	15444.2375
3185.78926	15434.8375
3188.10565	15402.5375
3190.42065	15399.6375
3192.73424	15405.4375
3195.04645	15357.3375
3197.35725	15331.3375
3199.66667	15315.4375
3201.97469	15361.3375
3204.28132	15308.6375
3206.58656	15356.1375
3208.8904	15330.9375
3211.19287	15360.7375
3213.49394	15342.8375
3215.79363	15355.4375
3218.09193	15347.9375
3220.38884	15323.7375
3222.68438	15364.4375
3224.97853	15359.9375
3227.2713	15355.6375
3229.56269	15362.7375
3231.8527	15334.9375
3234.14133	15299.4375
3236.42858	15281.7375
3238.71446	15257.8375
3240.99896	15218.6375
3243.28209	15201.7375
3245.56384	15169.0375
3247.84423	15157.1375
3250.12324	15140.4375
3252.40088	15124.5375
3254.67715	15095.8375
3256.95205	15107.5375
3259.22558	15117.9375
3261.49775	15071.2375
3263.76855	15062.5375
3266.03799	15042.5375
3268.30606	15008.7375
3270.57277	14979.1375
3272.83812	14958.3375
3275.10211	14923.4375
3277.36474	14932.6375
3279.62601	14914.0375
3281.88593	14892.7375
3284.14448	14894.8375
3286.40168	14921.5375
3288.65753	14924.0375
3290.91202	14929.1375
3293.16516	14869.5375
3295.41695	14841.3375
3297.66738	14762.7375
3299.91647	14684.7375
3302.16421	14594.7375
3304.4106	14578.4375
3306.65564	14450.0375
3308.89933	14329.8375
3311.14169	14252.8375
3313.38269	14125.9375
3315.62236	14041.8375
3317.86068	13910.4375
3320.09766	13811.5375
3322.3333	13738.3375
3324.5676	13636.6375
3326.80056	13409.4375
3329.03219	13350.3375
3331.26248	5.2375
3333.49143	-0.8625
3335.71905	-1.5625
