Data from AgNP_FTO_APTES_UA_10uM_CRN_200uM_R6G_10uM_NaF_0.1M_Addition_RamanShift__5__18-06-30-883.txt Node

Date: Thu Feb 10 18:06:30 GMT 2022
User: TCL
Spectrometer: QEP01345
Trigger mode: 4
Integration Time (sec): 7.000000E0
Scans to average: 10
Electric dark correction enabled: true
Nonlinearity correction enabled: false
Boxcar width: 0
XAxis mode: Raman Shifts
Number of Pixels in Spectrum: 1044
>>>>>Begin Spectral Data<<<<<
46.04893	0.2375
50.45542	-0.1625
54.85868	-1.2625
59.25871	-1.0625
63.6555	55.5375
68.04907	62.2375
72.43941	63.0375
76.82654	59.8375
81.21044	70.1375
85.59113	68.7375
89.96862	73.8375
94.34289	76.0375
98.71396	79.1375
103.08183	83.2375
107.4465	84.2375
111.80798	84.7375
116.16626	89.7375
120.52136	91.4375
124.87327	99.6375
129.222	98.6375
133.56755	106.0375
137.90993	107.7375
142.24913	116.6375
146.58517	131.1375
150.91804	151.7375
155.24774	180.4375
159.57429	223.8375
163.89768	284.6375
168.21792	373.8375
172.53501	504.0375
176.84895	707.4375
181.15975	990.5375
185.46741	1390.0375
189.77193	1935.9375
194.07331	2583.8375
198.37157	3336.4375
202.6667	4116.0375
206.9587	4885.5375
211.24758	5657.1375
215.53334	6414.8375
219.81599	7202.0375
224.09553	8077.9375
228.37195	9013.4375
232.64527	10087.1375
236.91549	11211.6375
241.18261	12361.8375
245.44663	13460.3375
249.70755	14423.3375
253.96539	15313.7375
258.22014	16079.8375
262.4718	16672.7375
266.72039	17103.1375
270.96589	17327.0375
275.20832	17352.5375
279.44768	17268.7375
283.68397	17084.7375
287.91719	16893.6375
292.14735	16811.5375
296.37445	16760.2375
300.59849	16809.2375
304.81948	16844.1375
309.03742	16795.9375
313.25231	16669.0375
317.46415	16416.9375
321.67296	16125.8375
325.87872	15837.6375
330.08145	15726.7375
334.28114	15711.4375
338.47781	15828.3375
342.67145	15990.3375
346.86207	16217.0375
351.04966	16461.9375
355.23424	16745.6375
359.4158	16997.2375
363.59435	17189.1375
367.76989	17384.9375
371.94243	17513.3375
376.11196	17584.3375
380.27849	17713.0375
384.44203	17855.5375
388.60257	18002.2375
392.76012	18165.1375
396.91468	18360.8375
401.06626	18552.8375
405.21485	18685.7375
409.36047	18669.7375
413.50311	18500.8375
417.64277	18376.7375
421.77947	18409.2375
425.9132	18478.0375
430.04396	18579.3375
434.17176	18681.2375
438.2966	18742.7375
442.41849	18989.6375
446.53742	19382.7375
450.6534	19799.7375
454.76644	20114.9375
458.87653	20196.3375
462.98368	20104.7375
467.08789	19898.3375
471.18916	19734.3375
475.2875	19510.6375
479.38291	19457.3375
483.4754	19374.3375
487.56496	19212.9375
491.6516	19004.9375
495.73531	18784.4375
499.81612	18686.0375
503.89401	18752.4375
507.96899	18807.0375
512.04106	18796.5375
516.11023	18727.4375
520.1765	18596.8375
524.23987	18487.3375
528.30034	18381.8375
532.35792	18273.2375
536.41261	18136.5375
540.46441	17991.7375
544.51333	17993.7375
548.55936	18150.4375
552.60252	18420.9375
556.64279	18801.3375
560.6802	19015.4375
564.71473	19116.1375
568.7464	19321.7375
572.7752	19713.3375
576.80114	20078.0375
580.82422	20464.8375
584.84444	20984.3375
588.86181	21661.2375
592.87633	22109.1375
596.888	21880.4375
600.89682	21294.5375
604.9028	21190.5375
608.90594	22221.5375
612.90624	23513.2375
616.90371	22421.6375
620.89834	19775.6375
624.89015	18639.5375
628.87913	18530.4375
632.86528	18616.8375
636.84862	18571.5375
640.82913	18403.2375
644.80683	18106.6375
648.78172	17891.2375
652.75379	17904.3375
656.72306	18037.9375
660.68952	18252.2375
664.65319	18135.3375
668.61405	17910.7375
672.57211	17864.3375
676.52738	17916.3375
680.47986	17945.7375
684.42955	17864.5375
688.37646	17840.9375
692.32058	17925.5375
696.26192	18065.0375
700.20048	18244.9375
704.13626	18374.9375
708.06928	18359.2375
711.99952	18340.9375
715.927	18312.3375
719.85171	18335.9375
723.77365	18287.7375
727.69284	18153.9375
731.60928	17997.0375
735.52295	17931.9375
739.43388	17907.0375
743.34206	17948.0375
747.24749	18034.8375
751.15017	18131.9375
755.05012	18355.9375
758.94733	18701.9375
762.8418	19334.3375
766.73354	20221.1375
770.62254	21153.2375
774.50882	21433.9375
778.39237	20774.8375
782.27321	19673.9375
786.15132	18794.7375
790.02671	18248.0375
793.89938	17990.1375
797.76935	17906.2375
801.6366	17875.7375
805.50115	17851.2375
809.36299	17777.2375
813.22213	17677.8375
817.07857	17632.4375
820.93231	17575.6375
824.78336	17519.1375
828.63172	17488.2375
832.47738	17475.1375
836.32036	17486.3375
840.16066	17551.9375
843.99827	17576.4375
847.8332	17554.9375
851.66546	17498.4375
855.49504	17510.9375
859.32195	17545.8375
863.1462	17506.6375
866.96777	17459.7375
870.78668	17429.8375
874.60293	17411.2375
878.41652	17402.2375
882.22745	17498.6375
886.03573	17526.5375
889.84136	17507.7375
893.64433	17467.2375
897.44466	17429.9375
901.24235	17368.9375
905.0374	17311.0375
908.8298	17275.0375
912.61957	17306.9375
916.40671	17375.0375
920.19121	17573.3375
923.97308	17702.9375
927.75233	17750.0375
931.52895	17639.0375
935.30295	17435.1375
939.07433	17206.9375
942.84309	17022.5375
946.60924	16948.8375
950.37278	16913.8375
954.13371	16873.7375
957.89203	16841.7375
961.64774	16806.0375
965.40086	16783.9375
969.15137	16720.9375
972.89929	16692.2375
976.64461	16664.5375
980.38733	16653.2375
984.12747	16657.4375
987.86502	16755.3375
991.59999	16890.2375
995.33237	17087.9375
999.06217	17328.6375
1002.78939	17622.5375
1006.51404	17823.9375
1010.23611	17970.5375
1013.95561	18069.2375
1017.67255	18112.5375
1021.38692	17985.1375
1025.09872	17844.4375
1028.80796	17833.5375
1032.51465	18025.2375
1036.21877	18301.4375
1039.92035	18403.4375
1043.61937	18315.1375
1047.31584	18083.5375
1051.00976	17890.1375
1054.70114	17791.6375
1058.38998	17801.8375
1062.07627	17891.6375
1065.76003	17965.2375
1069.44126	18062.4375
1073.11995	18234.0375
1076.79611	18376.6375
1080.46974	18470.3375
1084.14085	18554.5375
1087.80943	18695.1375
1091.47549	18797.1375
1095.13903	18792.5375
1098.80005	18647.1375
1102.45857	18378.4375
1106.11456	18141.1375
1109.76805	18093.4375
1113.41903	18101.2375
1117.06751	18216.6375
1120.71348	18346.3375
1124.35696	18446.1375
1127.99793	18619.9375
1131.63641	18764.1375
1135.2724	18650.9375
1138.90589	18541.7375
1142.5369	18500.9375
1146.16542	18571.4375
1149.79145	18657.3375
1153.415	18749.8375
1157.03607	18934.7375
1160.65467	19386.8375
1164.27079	20102.1375
1167.88443	20866.3375
1171.49561	21738.9375
1175.10432	22813.6375
1178.71056	24204.0375
1182.31434	25500.6375
1185.91565	26166.4375
1189.51451	26021.1375
1193.11091	25350.5375
1196.70485	24584.5375
1200.29634	23868.5375
1203.88538	23388.7375
1207.47197	23108.2375
1211.05612	22792.2375
1214.63782	22410.8375
1218.21708	21916.8375
1221.79391	21494.2375
1225.36829	21158.5375
1228.94024	20935.9375
1232.50976	20672.8375
1236.07685	20455.5375
1239.6415	20360.2375
1243.20374	20392.9375
1246.76355	20522.9375
1250.32093	20794.5375
1253.8759	21111.1375
1257.42845	21529.3375
1260.97859	22006.6375
1264.52631	22462.6375
1268.07163	22937.0375
1271.61453	23475.4375
1275.15503	23990.5375
1278.69312	24537.3375
1282.22882	24999.0375
1285.76211	25609.7375
1289.29301	26399.2375
1292.82151	27442.5375
1296.34761	28742.9375
1299.87133	30311.2375
1303.39266	31928.3375
1306.9116	33396.2375
1310.42815	34431.8375
1313.94233	34896.2375
1317.45412	34517.8375
1320.96354	33735.9375
1324.47058	33092.0375
1327.97525	32523.5375
1331.47754	32129.0375
1334.97747	31852.5375
1338.47502	31498.0375
1341.97022	31158.2375
1345.46305	30766.3375
1348.95352	30594.6375
1352.44163	30809.8375
1355.92738	31608.7375
1359.41078	32855.0375
1362.89183	33752.6375
1366.37053	33157.7375
1369.84688	30739.4375
1373.32088	27870.1375
1376.79254	25883.8375
1380.26186	25232.1375
1383.72883	25234.3375
1387.19347	25235.4375
1390.65578	25045.4375
1394.11575	25015.3375
1397.57339	25214.8375
1401.0287	25547.7375
1404.48168	25819.5375
1407.93234	25711.7375
1411.38068	25263.3375
1414.82669	24570.0375
1418.27039	23719.8375
1421.71177	22888.5375
1425.15083	22209.0375
1428.58758	21850.5375
1432.02203	22030.9375
1435.45416	22490.8375
1438.88399	22987.3375
1442.31151	23423.2375
1445.73673	23677.5375
1449.15965	23840.3375
1452.58027	23895.4375
1455.9986	23793.8375
1459.41463	23887.5375
1462.82837	24135.0375
1466.23982	24402.4375
1469.64898	24769.8375
1473.05586	25009.0375
1476.46045	25078.4375
1479.86276	24935.4375
1483.26279	24721.3375
1486.66054	24607.8375
1490.05602	24694.1375
1493.44922	24850.1375
1496.84016	25073.3375
1500.22882	25514.9375
1503.61521	26191.2375
1506.99934	26985.8375
1510.38121	27634.6375
1513.76081	27727.6375
1517.13816	27260.9375
1520.51324	26492.7375
1523.88607	25923.5375
1527.25665	25633.5375
1530.62498	25572.5375
1533.99105	25542.8375
1537.35488	25297.7375
1540.71647	24924.6375
1544.07581	24418.7375
1547.4329	23883.8375
1550.78776	23389.9375
1554.14038	23050.7375
1557.49077	22825.3375
1560.83892	22705.7375
1564.18484	22709.3375
1567.52853	22753.0375
1570.86999	22955.9375
1574.20922	23300.7375
1577.54624	23648.4375
1580.88103	23811.1375
1584.2136	24009.1375
1587.54395	24600.5375
1590.87208	25573.6375
1594.19801	26808.8375
1597.52172	27975.3375
1600.84321	28246.1375
1604.16251	27173.3375
1607.47959	25394.1375
1610.79447	23469.9375
1614.10715	21795.5375
1617.41763	20480.1375
1620.7259	19623.0375
1624.03199	19209.7375
1627.33587	19247.5375
1630.63757	19718.7375
1633.93707	20629.6375
1637.23439	22234.2375
1640.52951	24488.7375
1643.82246	27211.0375
1647.11321	29320.9375
1650.40179	29634.4375
1653.68819	27688.3375
1656.97241	24525.8375
1660.25446	21545.2375
1663.53433	19410.9375
1666.81203	18035.8375
1670.08756	17137.1375
1673.36092	16586.3375
1676.63211	16235.5375
1679.90115	15961.3375
1683.16801	15771.2375
1686.43272	15647.8375
1689.69527	15531.8375
1692.95567	15482.5375
1696.2139	15421.7375
1699.46999	15365.5375
1702.72392	15342.0375
1705.97571	15276.8375
1709.22535	15221.9375
1712.47284	15206.4375
1715.71819	15222.5375
1718.96139	15153.2375
1722.20246	15136.5375
1725.44139	15079.0375
1728.67818	15007.3375
1731.91284	14895.3375
1735.14537	14866.6375
1738.37576	14835.0375
1741.60403	14782.5375
1744.83017	14761.9375
1748.05418	14733.1375
1751.27607	14683.1375
1754.49584	14689.7375
1757.71349	14729.1375
1760.92903	14681.8375
1764.14244	14651.2375
1767.35375	14643.0375
1770.56294	14611.7375
1773.77002	14613.5375
1776.97499	14575.4375
1780.17785	14518.3375
1783.37861	14493.1375
1786.57727	14477.6375
1789.77382	14430.3375
1792.96828	14409.6375
1796.16064	14417.1375
1799.3509	14369.7375
1802.53907	14341.5375
1805.72514	14312.5375
1808.90913	14275.5375
1812.09102	14261.8375
1815.27083	14238.3375
1818.44856	14193.5375
1821.6242	14186.1375
1824.79776	14168.0375
1827.96924	14146.5375
1831.13864	14137.6375
1834.30597	14131.7375
1837.47122	14124.4375
1840.6344	14122.9375
1843.7955	14128.9375
1846.95454	14080.7375
1850.11151	14090.8375
1853.26642	14079.1375
1856.41926	14068.3375
1859.57004	14071.0375
1862.71876	14056.0375
1865.86542	14020.7375
1869.01003	14013.1375
1872.15258	13985.9375
1875.29308	14003.1375
1878.43152	13951.0375
1881.56792	13942.1375
1884.70227	13959.5375
1887.83457	13901.9375
1890.96482	13883.4375
1894.09304	13851.6375
1897.21921	13859.1375
1900.34335	13843.8375
1903.46544	13836.6375
1906.58551	13789.7375
1909.70353	13784.4375
1912.81953	13800.0375
1915.93349	13761.9375
1919.04543	13720.2375
1922.15534	13688.5375
1925.26322	13662.2375
1928.36908	13624.9375
1931.47292	13645.2375
1934.57473	13603.0375
1937.67453	13566.9375
1940.77232	13543.6375
1943.86808	13501.5375
1946.96184	13438.9375
1950.05358	13439.7375
1953.14331	13402.0375
1956.23103	13321.8375
1959.31675	13306.5375
1962.40046	13255.9375
1965.48217	13224.7375
1968.56188	13182.5375
1971.63959	13180.3375
1974.7153	13097.4375
1977.78901	13055.0375
1980.86073	13047.7375
1983.93046	13001.7375
1986.99819	12955.2375
1990.06394	12939.8375
1993.1277	12927.3375
1996.18947	12867.2375
1999.24925	12826.8375
2002.30706	12794.3375
2005.36288	12745.2375
2008.41672	12734.1375
2011.46859	12679.2375
2014.51848	12682.0375
2017.56639	12643.9375
2020.61233	12616.5375
2023.6563	12562.9375
2026.6983	12544.7375
2029.73833	12516.8375
2032.7764	12501.5375
2035.8125	12488.0375
2038.84664	12444.4375
2041.87881	12413.6375
2044.90903	12369.4375
2047.93729	12353.2375
2050.96359	12345.0375
2053.98794	12328.6375
2057.01034	12318.4375
2060.03078	12310.6375
2063.04927	12291.6375
2066.06582	12302.8375
2069.08042	12260.7375
2072.09307	12280.6375
2075.10378	12271.0375
2078.11255	12290.0375
2081.11938	12280.7375
2084.12426	12267.9375
2087.12722	12277.0375
2090.12824	12235.3375
2093.12732	12228.8375
2096.12447	12229.2375
2099.11969	12255.4375
2102.11299	12243.9375
2105.10435	12244.2375
2108.09379	12229.8375
2111.08131	12232.6375
2114.0669	12255.5375
2117.05057	12254.9375
2120.03233	12294.4375
2123.01216	12258.9375
2125.99008	12277.2375
2128.96609	12272.3375
2131.94018	12336.0375
2134.91236	12331.8375
2137.88263	12323.0375
2140.851	12334.3375
2143.81746	12328.2375
2146.78201	12332.9375
2149.74466	12334.6375
2152.7054	12328.9375
2155.66425	12335.5375
2158.6212	12309.4375
2161.57625	12327.2375
2164.52941	12309.6375
2167.48067	12330.5375
2170.43004	12300.5375
2173.37752	12303.8375
2176.32311	12310.6375
2179.26681	12326.7375
2182.20863	12319.5375
2185.14856	12335.6375
2188.08661	12332.7375
2191.02278	12303.9375
2193.95707	12312.5375
2196.88948	12306.7375
2199.82001	12305.6375
2202.74867	12281.9375
2205.67545	12271.4375
2208.60037	12266.2375
2211.52341	12253.7375
2214.44458	12240.5375
2217.36388	12198.7375
2220.28132	12175.9375
2223.1969	12175.8375
2226.11061	12165.1375
2229.02246	12127.3375
2231.93245	12082.5375
2234.84058	12067.8375
2237.74686	12067.9375
2240.65128	12070.4375
2243.55385	12014.2375
2246.45456	12012.5375
2249.35343	11992.0375
2252.25044	11993.4375
2255.14561	11945.8375
2258.03893	11951.1375
2260.93041	11910.3375
2263.82004	11871.9375
2266.70783	11849.8375
2269.59378	11794.7375
2272.4779	11791.2375
2275.36017	11740.6375
2278.24061	11746.3375
2281.11922	11720.6375
2283.996	11724.6375
2286.87094	11709.7375
2289.74405	11680.8375
2292.61534	11719.6375
2295.4848	11685.4375
2298.35243	11708.5375
2301.21824	11669.7375
2304.08223	11692.3375
2306.94439	11708.4375
2309.80474	11686.1375
2312.66327	11708.9375
2315.51999	11669.0375
2318.37489	11663.2375
2321.22797	11640.7375
2324.07925	11622.9375
2326.92871	11621.0375
2329.77637	11601.4375
2332.62222	11575.8375
2335.46626	11546.8375
2338.3085	11581.6375
2341.14893	11539.4375
2343.98756	11539.1375
2346.8244	11544.1375
2349.65943	11541.7375
2352.49267	11494.7375
2355.32411	11521.6375
2358.15376	11532.6375
2360.98161	11512.5375
2363.80768	11503.0375
2366.63195	11492.0375
2369.45444	11467.2375
2372.27514	11447.2375
2375.09405	11449.4375
2377.91118	11438.8375
2380.72652	11419.8375
2383.54009	11377.0375
2386.35187	11354.4375
2389.16188	11316.2375
2391.97011	11293.3375
2394.77657	11286.8375
2397.58125	11258.3375
2400.38416	11261.5375
2403.18529	11230.0375
2405.98466	11231.7375
2408.78226	11183.3375
2411.57809	11178.7375
2414.37216	11171.1375
2417.16446	11144.4375
2419.955	11140.7375
2422.74378	11164.3375
2425.5308	11127.8375
2428.31606	11127.0375
2431.09956	11118.8375
2433.88131	11127.7375
2436.6613	11123.8375
2439.43954	11091.4375
2442.21603	11096.2375
2444.99077	11105.8375
2447.76377	11102.8375
2450.53501	11102.2375
2453.30451	11086.2375
2456.07226	11032.2375
2458.83827	11042.9375
2461.60254	11072.5375
2464.36507	11047.7375
2467.12586	11026.9375
2469.88492	11026.3375
2472.64224	11003.3375
2475.39782	11020.8375
2478.15167	11022.6375
2480.90379	11022.2375
2483.65417	11043.9375
2486.40283	11068.9375
2489.14976	11032.7375
2491.89497	11021.3375
2494.63845	11023.7375
2497.3802	11011.5375
2500.12024	11005.5375
2502.85855	11019.7375
2505.59514	10997.1375
2508.33002	10962.1375
2511.06318	10966.2375
2513.79462	10967.3375
2516.52435	10943.1375
2519.25237	10936.7375
2521.97867	10917.0375
2524.70327	10916.8375
2527.42616	10921.3375
2530.14734	10939.6375
2532.86681	10919.7375
2535.58458	10916.6375
2538.30065	10896.1375
2541.01501	10897.5375
2543.72768	10879.1375
2546.43864	10894.8375
2549.14791	10860.5375
2551.85548	10853.8375
2554.56136	10844.7375
2557.26554	10830.4375
2559.96803	10789.6375
2562.66883	10808.6375
2565.36794	10752.4375
2568.06536	10749.4375
2570.7611	10744.1375
2573.45514	10735.3375
2576.14751	10720.9375
2578.83819	10705.7375
2581.52719	10693.9375
2584.21451	10659.0375
2586.90015	10659.5375
2589.58411	10664.0375
2592.2664	10673.6375
2594.94701	10660.0375
2597.62594	10653.3375
2600.30321	10647.4375
2602.9788	10619.0375
2605.65273	10591.2375
2608.32498	10579.2375
2610.99557	10554.7375
2613.66449	10601.8375
2616.33175	10582.3375
2618.99734	10569.9375
2621.66128	10546.1375
2624.32355	10563.0375
2626.98416	10545.5375
2629.64311	10542.7375
2632.30041	10511.3375
2634.95605	10489.9375
2637.61004	10474.3375
2640.26238	10461.6375
2642.91306	10478.9375
2645.56209	10471.0375
2648.20948	10453.2375
2650.85521	10445.2375
2653.4993	10465.4375
2656.14175	10451.3375
2658.78255	10470.6375
2661.42171	10464.7375
2664.05923	10510.3375
2666.6951	10511.5375
2669.32934	10510.5375
2671.96194	10472.0375
2674.59291	10466.1375
2677.22224	10470.8375
2679.84993	10477.0375
2682.476	10479.1375
2685.10043	10467.2375
2687.72324	10455.5375
2690.34441	10480.9375
2692.96396	10456.5375
2695.58188	10457.8375
2698.19818	10427.3375
2700.81285	10452.9375
2703.4259	10445.7375
2706.03733	10462.4375
2708.64714	10464.7375
2711.25533	10467.2375
2713.86191	10465.3375
2716.46687	10473.5375
2719.07021	10491.6375
2721.67194	10478.7375
2724.27206	10479.6375
2726.87057	10495.9375
2729.46747	10490.4375
2732.06276	10509.7375
2734.65644	10483.4375
2737.24852	10525.1375
2739.83899	10499.0375
2742.42786	10472.9375
2745.01513	10454.8375
2747.60079	10482.1375
2750.18486	10435.3375
2752.76733	10437.1375
2755.3482	10421.5375
2757.92747	10421.0375
2760.50515	10409.2375
2763.08123	10415.7375
2765.65573	10366.4375
2768.22863	10392.6375
2770.79994	10372.2375
2773.36967	10383.0375
2775.9378	10357.6375
2778.50435	10340.0375
2781.06932	10367.4375
2783.6327	10358.5375
2786.1945	10342.1375
2788.75471	10339.6375
2791.31335	10316.1375
2793.87041	10331.1375
2796.42589	10312.0375
2798.97979	10287.9375
2801.53212	10291.0375
2804.08288	10273.3375
2806.63206	10228.8375
2809.17967	10192.1375
2811.72571	10169.2375
2814.27018	10164.5375
2816.81308	10152.0375
2819.35442	10107.8375
2821.89419	10108.8375
2824.43239	10114.8375
2826.96904	10100.3375
2829.50412	10086.3375
2832.03763	10073.5375
2834.56959	10083.1375
2837.1	10062.3375
2839.62884	10088.4375
2842.15613	10093.3375
2844.68186	10092.7375
2847.20604	10122.7375
2849.72867	10135.1375
2852.24974	10113.1375
2854.76927	10114.5375
2857.28724	10081.2375
2859.80367	10060.3375
2862.31855	10036.6375
2864.83189	10066.7375
2867.34368	10014.9375
2869.85393	10014.7375
2872.36264	10026.9375
2874.8698	10018.6375
2877.37543	10024.3375
2879.87952	10021.6375
2882.38207	10007.5375
2884.88308	10002.4375
2887.38256	10029.2375
2889.88051	9997.9375
2892.37692	10019.1375
2894.8718	10022.4375
2897.36515	10038.5375
2899.85698	10059.3375
2902.34727	10082.2375
2904.83604	10040.9375
2907.32328	10089.5375
2909.809	10064.0375
2912.29319	10073.2375
2914.77587	10057.0375
2917.25702	10092.4375
2919.73665	10051.6375
2922.21476	10048.5375
2924.69136	10042.3375
2927.16644	10054.8375
2929.64	10047.2375
2932.11205	10027.1375
2934.58258	9981.9375
2937.05161	10009.2375
2939.51912	10010.8375
2941.98513	10010.7375
2944.44962	9972.1375
2946.91261	9940.8375
2949.37409	9970.8375
2951.83407	9971.5375
2954.29254	9924.9375
2956.74951	9930.7375
2959.20498	9964.2375
2961.65895	9907.9375
2964.11142	9935.0375
2966.56239	9903.5375
2969.01186	9896.5375
2971.45984	9890.7375
2973.90632	9890.1375
2976.35131	9876.3375
2978.7948	9858.9375
2981.23681	9813.8375
2983.67732	9815.3375
2986.11635	9784.9375
2988.55388	9792.6375
2990.98993	9755.2375
2993.4245	9733.5375
2995.85758	9693.7375
2998.28917	9682.4375
3000.71928	9659.1375
3003.14791	9666.4375
3005.57506	9645.9375
3008.00073	9650.7375
3010.42493	9604.8375
3012.84764	9616.9375
3015.26888	9594.5375
3017.68865	9537.2375
3020.10694	9562.0375
3022.52376	9555.0375
3024.9391	9556.2375
3027.35298	9511.6375
3029.76539	9511.7375
3032.17632	9537.6375
3034.5858	9532.1375
3036.9938	9510.4375
3039.40034	9504.3375
3041.80542	9506.1375
3044.20903	9481.5375
3046.61118	9497.3375
3049.01187	9458.2375
3051.4111	9426.5375
3053.80888	9443.5375
3056.20519	9437.1375
3058.60005	9391.6375
3060.99345	9384.2375
3063.3854	9371.0375
3065.7759	9335.3375
3068.16494	9357.5375
3070.55254	9311.2375
3072.93868	9305.6375
3075.32338	9294.3375
3077.70662	9271.6375
3080.08842	9272.0375
3082.46878	9264.3375
3084.84769	9239.8375
3087.22515	9213.8375
3089.60118	9229.1375
3091.97576	9229.0375
3094.3489	9260.0375
3096.72061	9244.0375
3099.09087	9238.6375
3101.4597	9257.3375
3103.82709	9218.9375
3106.19305	9209.5375
3108.55757	9223.6375
3110.92066	9202.2375
3113.28232	9212.2375
3115.64255	9182.5375
3118.00134	9156.5375
3120.35871	9156.0375
3122.71466	9133.9375
3125.06917	9111.7375
3127.42226	9116.2375
3129.77393	9117.6375
3132.12417	9090.5375
3134.47299	9094.2375
3136.82039	9086.7375
3139.16636	9098.6375
3141.51092	9109.3375
3143.85406	9099.7375
3146.19579	9096.7375
3148.53609	9102.5375
3150.87499	9093.2375
3153.21246	9137.4375
3155.54853	9126.3375
3157.88318	9105.1375
3160.21642	9144.9375
3162.54826	9139.3375
3164.87868	9147.4375
3167.2077	9132.5375
3169.5353	9139.4375
3171.86151	9145.1375
3174.18631	9145.4375
3176.5097	9124.9375
3178.83169	9127.8375
3181.15228	9125.1375
3183.47147	9122.6375
3185.78926	9116.6375
3188.10565	9104.0375
3190.42065	9090.9375
3192.73424	9072.8375
3195.04645	9070.2375
3197.35725	9077.3375
3199.66667	9089.5375
3201.97469	9091.0375
3204.28132	9088.1375
3206.58656	9094.1375
3208.8904	9085.6375
3211.19287	9096.9375
3213.49394	9105.3375
3215.79363	9097.5375
3218.09193	9103.6375
3220.38884	9098.1375
3222.68438	9115.0375
3224.97853	9101.7375
3227.2713	9084.4375
3229.56269	9091.9375
3231.8527	9072.4375
3234.14133	9070.3375
3236.42858	9049.5375
3238.71446	9075.3375
3240.99896	9036.5375
3243.28209	9018.7375
3245.56384	9025.8375
3247.84423	9026.4375
3250.12324	8991.3375
3252.40088	9001.1375
3254.67715	8967.9375
3256.95205	8948.1375
3259.22558	8962.4375
3261.49775	8940.2375
3263.76855	8936.1375
3266.03799	8928.8375
3268.30606	8945.9375
3270.57277	8927.4375
3272.83812	8891.0375
3275.10211	8880.9375
3277.36474	8855.3375
3279.62601	8870.8375
3281.88593	8840.1375
3284.14448	8835.5375
3286.40168	8838.1375
3288.65753	8858.3375
3290.91202	8866.1375
3293.16516	8833.0375
3295.41695	8809.0375
3297.66738	8751.4375
3299.91647	8710.4375
3302.16421	8644.7375
3304.4106	8606.0375
3306.65564	8582.5375
3308.89933	8510.9375
3311.14169	8441.2375
3313.38269	8387.6375
3315.62236	8321.5375
3317.86068	8248.0375
3320.09766	8212.9375
3322.3333	8161.5375
3324.5676	8105.1375
3326.80056	7979.7375
3329.03219	7925.5375
3331.26248	2.9375
3333.49143	-0.8625
3335.71905	0.1375
