Data from AgNP_FTO_APTES_UA_10uM_CRN_200uM_R6G_10uM_NaF_0.1M_Addition_RamanShift__12__18-14-40-893.txt Node

Date: Thu Feb 10 18:14:40 GMT 2022
User: TCL
Spectrometer: QEP01345
Trigger mode: 4
Integration Time (sec): 7.000000E0
Scans to average: 10
Electric dark correction enabled: true
Nonlinearity correction enabled: false
Boxcar width: 0
XAxis mode: Raman Shifts
Number of Pixels in Spectrum: 1044
>>>>>Begin Spectral Data<<<<<
46.04893	0.2
50.45542	-0.4
54.85868	-1.5
59.25871	-1.4
63.6555	55
68.04907	54.1
72.43941	57.9
76.82654	56.8
81.21044	65.4
85.59113	61
89.96862	67
94.34289	71.8
98.71396	72.4
103.08183	77.1
107.4465	77.7
111.80798	75.5
116.16626	82.4
120.52136	78
124.87327	85.9
129.222	87.8
133.56755	91.7
137.90993	92.8
142.24913	103
146.58517	114.5
150.91804	132.7
155.24774	154.7
159.57429	186.8
163.89768	230.8
168.21792	305.3
172.53501	412.7
176.84895	568.6
181.15975	808.1
185.46741	1134.6
189.77193	1565.6
194.07331	2088.6
198.37157	2696.4
202.6667	3345.7
206.9587	3968.5
211.24758	4595.4
215.53334	5218
219.81599	5827.9
224.09553	6524.2
228.37195	7291.3
232.64527	8141.2
236.91549	9045.3
241.18261	9948.7
245.44663	10901.1
249.70755	11729.1
253.96539	12461.7
258.22014	13088.8
262.4718	13582.7
266.72039	13922.4
270.96589	14120.3
275.20832	14141.2
279.44768	14101.6
283.68397	13991.8
287.91719	13855.8
292.14735	13767.3
296.37445	13730.2
300.59849	13710.9
304.81948	13716.2
309.03742	13633.9
313.25231	13527.1
317.46415	13370.3
321.67296	13160.1
325.87872	12958.3
330.08145	12894.8
334.28114	12892.1
338.47781	13007.9
342.67145	13157.3
346.86207	13288.3
351.04966	13433
355.23424	13616.9
359.4158	13768.2
363.59435	13917.1
367.76989	14030.5
371.94243	14148.8
376.11196	14233
380.27849	14303.3
384.44203	14376.2
388.60257	14489.5
392.76012	14620.8
396.91468	14811.7
401.06626	14961.2
405.21485	15089.3
409.36047	15112.2
413.50311	15016.3
417.64277	14942.7
421.77947	14959.1
425.9132	15052.8
430.04396	15191
434.17176	15226.6
438.2966	15303.7
442.41849	15423.9
446.53742	15637.2
450.6534	15875.6
454.76644	16048.3
458.87653	16130.5
462.98368	16153.6
467.08789	16133.1
471.18916	16075.4
475.2875	15971.9
479.38291	15915.2
483.4754	15880.7
487.56496	15805.9
491.6516	15685.1
495.73531	15556.7
499.81612	15479.5
503.89401	15519.8
507.96899	15588.7
512.04106	15625.1
516.11023	15591.7
520.1765	15556.5
524.23987	15460.3
528.30034	15368.2
532.35792	15301.7
536.41261	15217.8
540.46441	15162.4
544.51333	15182.8
548.55936	15322.7
552.60252	15519.4
556.64279	15737.2
560.6802	15853.6
564.71473	15936.4
568.7464	16066.1
572.7752	16345.8
576.80114	16675.1
580.82422	16982.2
584.84444	17245.8
588.86181	17488.1
592.87633	17657.2
596.888	17630.3
600.89682	17395.9
604.9028	17375
608.90594	17908.1
612.90624	18594.2
616.90371	17884.7
620.89834	16338
624.89015	15673.5
628.87913	15668.9
632.86528	15761.2
636.84862	15829.3
640.82913	15744.5
644.80683	15526.6
648.78172	15381.6
652.75379	15358.1
656.72306	15453.8
660.68952	15569.2
664.65319	15575.9
668.61405	15457.6
672.57211	15413.2
676.52738	15491.9
680.47986	15507.9
684.42955	15461
688.37646	15458.8
692.32058	15482.6
696.26192	15596
700.20048	15660
704.13626	15773.6
708.06928	15834.9
711.99952	15804.2
715.927	15765.7
719.85171	15757.2
723.77365	15673.3
727.69284	15578.4
731.60928	15482.3
735.52295	15451.6
739.43388	15360.2
743.34206	15437.1
747.24749	15463.5
751.15017	15549.6
755.05012	15702.6
758.94733	15948.3
762.8418	16363.8
766.73354	17005.3
770.62254	17584.2
774.50882	17731.4
778.39237	17295.5
782.27321	16645.6
786.15132	16075.2
790.02671	15716.7
793.89938	15507
797.76935	15405.9
801.6366	15357.2
805.50115	15302.7
809.36299	15277
813.22213	15251.5
817.07857	15236.6
820.93231	15245.8
824.78336	15214.1
828.63172	15187.7
832.47738	15181.3
836.32036	15145.3
840.16066	15147.1
843.99827	15137.6
847.8332	15168
851.66546	15177.1
855.49504	15195
859.32195	15197.2
863.1462	15161.9
866.96777	15166.3
870.78668	15140.8
874.60293	15171.6
878.41652	15177.6
882.22745	15211.5
886.03573	15247.7
889.84136	15240.1
893.64433	15219.2
897.44466	15215.2
901.24235	15205.9
905.0374	15175.7
908.8298	15135.1
912.61957	15163.2
916.40671	15196.5
920.19121	15323.9
923.97308	15396.5
927.75233	15385.8
931.52895	15314.5
935.30295	15167
939.07433	14994
942.84309	14882.9
946.60924	14767
950.37278	14759.1
954.13371	14737.7
957.89203	14682.5
961.64774	14667.6
965.40086	14670.4
969.15137	14623.8
972.89929	14585.6
976.64461	14589.6
980.38733	14527.6
984.12747	14532.5
987.86502	14598.5
991.59999	14607.9
995.33237	14639.2
999.06217	14722.7
1002.78939	14813.2
1006.51404	14907.2
1010.23611	15066.2
1013.95561	15144.3
1017.67255	15170.4
1021.38692	15142.1
1025.09872	15067.4
1028.80796	14985.6
1032.51465	14927.5
1036.21877	14899.2
1039.92035	14944.8
1043.61937	14999
1047.31584	15020.8
1051.00976	15076.4
1054.70114	15131.2
1058.38998	15224
1062.07627	15339.5
1065.76003	15463
1069.44126	15589.7
1073.11995	15709.4
1076.79611	15785.3
1080.46974	15898.2
1084.14085	15886.7
1087.80943	15948.4
1091.47549	16012.6
1095.13903	16025
1098.80005	15996.6
1102.45857	15814.8
1106.11456	15638.8
1109.76805	15487.4
1113.41903	15456.2
1117.06751	15468
1120.71348	15562.4
1124.35696	15663.8
1127.99793	15805.2
1131.63641	15919.8
1135.2724	15820.6
1138.90589	15756.5
1142.5369	15752.5
1146.16542	15722.3
1149.79145	15779.2
1153.415	15854.5
1157.03607	15943
1160.65467	16148.8
1164.27079	16513.7
1167.88443	16946.5
1171.49561	17436.1
1175.10432	17974.4
1178.71056	18729.3
1182.31434	19379.1
1185.91565	19895.4
1189.51451	20096
1193.11091	20043.3
1196.70485	19732.2
1200.29634	19319.1
1203.88538	18886.8
1207.47197	18629.7
1211.05612	18351.6
1214.63782	18108.7
1218.21708	17807.3
1221.79391	17494.4
1225.36829	17194.8
1228.94024	17029.5
1232.50976	16939.5
1236.07685	16887.2
1239.6415	16890.6
1243.20374	16916.7
1246.76355	17020.7
1250.32093	17088.2
1253.8759	17281.4
1257.42845	17546.7
1260.97859	17833.5
1264.52631	18105.7
1268.07163	18364.3
1271.61453	18612.4
1275.15503	18845.1
1278.69312	19099.5
1282.22882	19356.4
1285.76211	19678.1
1289.29301	20055.7
1292.82151	20536.4
1296.34761	21123.9
1299.87133	21806.5
1303.39266	22448.3
1306.9116	23056.1
1310.42815	23501.1
1313.94233	23749.9
1317.45412	23700.3
1320.96354	23539.2
1324.47058	23350.5
1327.97525	23304.9
1331.47754	23267
1334.97747	23356.5
1338.47502	23464.6
1341.97022	23652.4
1345.46305	23823.3
1348.95352	23906.5
1352.44163	23901.3
1355.92738	23876
1359.41078	24061.7
1362.89183	24171.8
1366.37053	23742.2
1369.84688	22545.9
1373.32088	21118.4
1376.79254	19988.1
1380.26186	19534.2
1383.72883	19409.8
1387.19347	19288
1390.65578	19149.5
1394.11575	19074.6
1397.57339	19061.2
1401.0287	19072.6
1404.48168	19107.3
1407.93234	19074
1411.38068	18770.9
1414.82669	18416.4
1418.27039	17966.6
1421.71177	17516.9
1425.15083	17200.8
1428.58758	16983.6
1432.02203	16949.3
1435.45416	17138.3
1438.88399	17350
1442.31151	17519.9
1445.73673	17681.6
1449.15965	17754.7
1452.58027	17900.4
1455.9986	17981.6
1459.41463	18093.1
1462.82837	18253.9
1466.23982	18505.9
1469.64898	18675.8
1473.05586	18787
1476.46045	18876
1479.86276	18833.2
1483.26279	18798.4
1486.66054	18819.4
1490.05602	18865.5
1493.44922	19133.1
1496.84016	19460.4
1500.22882	19946.9
1503.61521	20538.1
1506.99934	21134.3
1510.38121	21556.4
1513.76081	21610
1517.13816	21324.1
1520.51324	20890
1523.88607	20527.2
1527.25665	20343.1
1530.62498	20234.8
1533.99105	20078
1537.35488	19888.2
1540.71647	19562.5
1544.07581	19205.7
1547.4329	18872.3
1550.78776	18541.6
1554.14038	18336.3
1557.49077	18256
1560.83892	18173.4
1564.18484	18191.8
1567.52853	18243.8
1570.86999	18334.4
1574.20922	18507.3
1577.54624	18661.5
1580.88103	18631.4
1584.2136	18590.2
1587.54395	18666.7
1590.87208	18941.8
1594.19801	19432.7
1597.52172	19947.5
1600.84321	20135.8
1604.16251	19710
1607.47959	19034.8
1610.79447	18249.1
1614.10715	17438.7
1617.41763	16668.7
1620.7259	16072.5
1624.03199	15691.9
1627.33587	15575.8
1630.63757	15663.7
1633.93707	16085.9
1637.23439	16820
1640.52951	17940.6
1643.82246	19327.5
1647.11321	20571.1
1650.40179	21118.4
1653.68819	20553.1
1656.97241	19122
1660.25446	17490.7
1663.53433	16141.3
1666.81203	15151.8
1670.08756	14425.4
1673.36092	14032
1676.63211	13762.2
1679.90115	13549.8
1683.16801	13401.2
1686.43272	13288.4
1689.69527	13204.4
1692.95567	13117.7
1696.2139	13094
1699.46999	13067.5
1702.72392	13056.9
1705.97571	13006.7
1709.22535	12962.3
1712.47284	12919.2
1715.71819	12923.7
1718.96139	12902.1
1722.20246	12892.3
1725.44139	12835.8
1728.67818	12768.7
1731.91284	12715.8
1735.14537	12666.4
1738.37576	12622.3
1741.60403	12600.9
1744.83017	12587.7
1748.05418	12520.9
1751.27607	12518.7
1754.49584	12490.9
1757.71349	12520.9
1760.92903	12490.4
1764.14244	12452.9
1767.35375	12445.6
1770.56294	12434.5
1773.77002	12422.6
1776.97499	12373.6
1780.17785	12367.7
1783.37861	12324.5
1786.57727	12286.6
1789.77382	12274.8
1792.96828	12233.6
1796.16064	12206.3
1799.3509	12180.3
1802.53907	12184
1805.72514	12129.5
1808.90913	12108.1
1812.09102	12100.2
1815.27083	12046.5
1818.44856	12045.4
1821.6242	12011.2
1824.79776	11983.8
1827.96924	11977.4
1831.13864	11979.5
1834.30597	11946
1837.47122	11956.3
1840.6344	11936
1843.7955	11910.1
1846.95454	11902.1
1850.11151	11899.4
1853.26642	11876.2
1856.41926	11912.5
1859.57004	11862.3
1862.71876	11857.9
1865.86542	11830.3
1869.01003	11838.1
1872.15258	11795.1
1875.29308	11767.8
1878.43152	11791.2
1881.56792	11754.2
1884.70227	11728.6
1887.83457	11680.1
1890.96482	11673.3
1894.09304	11634.9
1897.21921	11638.4
1900.34335	11630.6
1903.46544	11578.5
1906.58551	11573.6
1909.70353	11598.7
1912.81953	11560
1915.93349	11548.5
1919.04543	11476.8
1922.15534	11491.3
1925.26322	11460.6
1928.36908	11427.1
1931.47292	11418.1
1934.57473	11425.2
1937.67453	11375.1
1940.77232	11343
1943.86808	11307.3
1946.96184	11278
1950.05358	11245.7
1953.14331	11202.7
1956.23103	11166.8
1959.31675	11125.3
1962.40046	11101.7
1965.48217	11067.1
1968.56188	11038.9
1971.63959	10998.8
1974.7153	10961.9
1977.78901	10935.3
1980.86073	10882.7
1983.93046	10883.1
1986.99819	10836.6
1990.06394	10825
1993.1277	10791.2
1996.18947	10736
1999.24925	10714.5
2002.30706	10676.1
2005.36288	10626.1
2008.41672	10591.7
2011.46859	10570.1
2014.51848	10563.5
2017.56639	10523.6
2020.61233	10491.2
2023.6563	10471.5
2026.6983	10433.6
2029.73833	10400.9
2032.7764	10361.6
2035.8125	10358.9
2038.84664	10314.9
2041.87881	10301.4
2044.90903	10237
2047.93729	10250
2050.96359	10238.9
2053.98794	10211.4
2057.01034	10195.4
2060.03078	10168.7
2063.04927	10136.1
2066.06582	10153.3
2069.08042	10157.1
2072.09307	10132.1
2075.10378	10157.3
2078.11255	10141.1
2081.11938	10123.7
2084.12426	10130.3
2087.12722	10139.5
2090.12824	10101.2
2093.12732	10092.5
2096.12447	10121.7
2099.11969	10109.5
2102.11299	10079
2105.10435	10096.5
2108.09379	10096.1
2111.08131	10097.7
2114.0669	10084.2
2117.05057	10109.8
2120.03233	10126.5
2123.01216	10105.8
2125.99008	10112.2
2128.96609	10105.2
2131.94018	10114.9
2134.91236	10130.3
2137.88263	10150.4
2140.851	10143.9
2143.81746	10129.3
2146.78201	10110.9
2149.74466	10121.8
2152.7054	10116.8
2155.66425	10131.2
2158.6212	10106.3
2161.57625	10097.5
2164.52941	10103.1
2167.48067	10110.9
2170.43004	10101.7
2173.37752	10069.8
2176.32311	10083.2
2179.26681	10069.6
2182.20863	10095
2185.14856	10078.8
2188.08661	10059.8
2191.02278	10064.1
2193.95707	10049.3
2196.88948	10057.2
2199.82001	10046.8
2202.74867	10029.5
2205.67545	10001
2208.60037	9989.2
2211.52341	9960.9
2214.44458	9952.5
2217.36388	9898.7
2220.28132	9892.3
2223.1969	9860.3
2226.11061	9894.8
2229.02246	9831
2231.93245	9794.8
2234.84058	9818.3
2237.74686	9784.6
2240.65128	9760.8
2243.55385	9747
2246.45456	9717.8
2249.35343	9726.2
2252.25044	9693.7
2255.14561	9688.5
2258.03893	9690.3
2260.93041	9669.9
2263.82004	9617.5
2266.70783	9585.5
2269.59378	9574.8
2272.4779	9525.4
2275.36017	9499.5
2278.24061	9486.1
2281.11922	9477.2
2283.996	9472
2286.87094	9449.6
2289.74405	9456
2292.61534	9426.4
2295.4848	9444.9
2298.35243	9410.3
2301.21824	9383
2304.08223	9403.8
2306.94439	9366.9
2309.80474	9374.4
2312.66327	9355
2315.51999	9333.3
2318.37489	9324.5
2321.22797	9304.5
2324.07925	9281.9
2326.92871	9281.8
2329.77637	9283.2
2332.62222	9233
2335.46626	9222.9
2338.3085	9200.3
2341.14893	9225
2343.98756	9189.5
2346.8244	9194.6
2349.65943	9162.3
2352.49267	9151
2355.32411	9158.5
2358.15376	9134.8
2360.98161	9129.7
2363.80768	9146.2
2366.63195	9112.1
2369.45444	9106.5
2372.27514	9101.8
2375.09405	9082.1
2377.91118	9079.1
2380.72652	9079.4
2383.54009	9018.1
2386.35187	9005.5
2389.16188	8996.7
2391.97011	8975.3
2394.77657	8956.8
2397.58125	8907.7
2400.38416	8899.6
2403.18529	8895.3
2405.98466	8868.1
2408.78226	8860.1
2411.57809	8837.5
2414.37216	8814.9
2417.16446	8801.4
2419.955	8807.8
2422.74378	8793.7
2425.5308	8787.7
2428.31606	8771.4
2431.09956	8778.9
2433.88131	8769.8
2436.6613	8761.9
2439.43954	8751
2442.21603	8739.8
2444.99077	8727.8
2447.76377	8711.9
2450.53501	8699.4
2453.30451	8694.2
2456.07226	8683.8
2458.83827	8670.3
2461.60254	8663.8
2464.36507	8651.9
2467.12586	8618.9
2469.88492	8625.6
2472.64224	8633.6
2475.39782	8610.2
2478.15167	8595.3
2480.90379	8581.7
2483.65417	8599.1
2486.40283	8584.4
2489.14976	8596.9
2491.89497	8572.5
2494.63845	8573.2
2497.3802	8533
2500.12024	8552.8
2502.85855	8533
2505.59514	8528.9
2508.33002	8503.3
2511.06318	8492.1
2513.79462	8490.2
2516.52435	8479.6
2519.25237	8485.6
2521.97867	8448.4
2524.70327	8459.4
2527.42616	8448.1
2530.14734	8434.2
2532.86681	8435.2
2535.58458	8417.5
2538.30065	8411.7
2541.01501	8397.2
2543.72768	8387.1
2546.43864	8346.6
2549.14791	8367.5
2551.85548	8349
2554.56136	8319.1
2557.26554	8302.6
2559.96803	8283.7
2562.66883	8264.1
2565.36794	8241.6
2568.06536	8214.5
2570.7611	8200.9
2573.45514	8202.6
2576.14751	8172
2578.83819	8170.2
2581.52719	8157.2
2584.21451	8153.1
2586.90015	8122
2589.58411	8097.7
2592.2664	8087.2
2594.94701	8072.7
2597.62594	8072.1
2600.30321	8037.3
2602.9788	8029.5
2605.65273	7993.1
2608.32498	8002.6
2610.99557	7970.3
2613.66449	7989.8
2616.33175	7983.8
2618.99734	7962.4
2621.66128	7944.6
2624.32355	7925.9
2626.98416	7905.9
2629.64311	7909.5
2632.30041	7883.8
2634.95605	7856
2637.61004	7852.8
2640.26238	7870.8
2642.91306	7842.5
2645.56209	7858.1
2648.20948	7841.6
2650.85521	7817.5
2653.4993	7818.3
2656.14175	7820.2
2658.78255	7831
2661.42171	7832
2664.05923	7833.7
2666.6951	7836.3
2669.32934	7847.6
2671.96194	7819.9
2674.59291	7810.5
2677.22224	7823.1
2679.84993	7811.2
2682.476	7808.3
2685.10043	7806.6
2687.72324	7785.4
2690.34441	7800.9
2692.96396	7807.2
2695.58188	7782.8
2698.19818	7769
2700.81285	7790.9
2703.4259	7797.8
2706.03733	7775.4
2708.64714	7783
2711.25533	7787.9
2713.86191	7769.9
2716.46687	7765
2719.07021	7787.4
2721.67194	7771.3
2724.27206	7763.8
2726.87057	7773.5
2729.46747	7772.2
2732.06276	7776.7
2734.65644	7754.5
2737.24852	7755.9
2739.83899	7728.5
2742.42786	7736.4
2745.01513	7707.4
2747.60079	7700.3
2750.18486	7693.6
2752.76733	7675.2
2755.3482	7665.5
2757.92747	7657.2
2760.50515	7639.4
2763.08123	7641
2765.65573	7617
2768.22863	7606.9
2770.79994	7616.1
2773.36967	7601.6
2775.9378	7589.8
2778.50435	7565.3
2781.06932	7573.9
2783.6327	7548.7
2786.1945	7535.2
2788.75471	7549.4
2791.31335	7513.6
2793.87041	7521.4
2796.42589	7495.1
2798.97979	7496.3
2801.53212	7448
2804.08288	7454
2806.63206	7423.2
2809.17967	7396.2
2811.72571	7377.6
2814.27018	7367.6
2816.81308	7347.8
2819.35442	7331.8
2821.89419	7324
2824.43239	7312.3
2826.96904	7295.3
2829.50412	7283.4
2832.03763	7294.2
2834.56959	7298.7
2837.1	7285
2839.62884	7268.3
2842.15613	7260.2
2844.68186	7291.4
2847.20604	7312.4
2849.72867	7318.2
2852.24974	7306.5
2854.76927	7277.4
2857.28724	7271.5
2859.80367	7241.1
2862.31855	7231
2864.83189	7240.8
2867.34368	7196.7
2869.85393	7196.8
2872.36264	7200.9
2874.8698	7218.8
2877.37543	7192.8
2879.87952	7180.6
2882.38207	7172.7
2884.88308	7160.3
2887.38256	7176.8
2889.88051	7158.9
2892.37692	7154.7
2894.8718	7170.5
2897.36515	7143.1
2899.85698	7130.9
2902.34727	7162.1
2904.83604	7156.8
2907.32328	7179.9
2909.809	7152.2
2912.29319	7153.8
2914.77587	7148.7
2917.25702	7138.6
2919.73665	7143.1
2922.21476	7151.2
2924.69136	7134.8
2927.16644	7123.4
2929.64	7135.4
2932.11205	7113.6
2934.58258	7109.6
2937.05161	7092.3
2939.51912	7099.3
2941.98513	7107.9
2944.44962	7077.9
2946.91261	7038.4
2949.37409	7050.2
2951.83407	7031.9
2954.29254	7025.9
2956.74951	7034.5
2959.20498	7033.6
2961.65895	7000.7
2964.11142	7009.6
2966.56239	6978.4
2969.01186	7010.4
2971.45984	6965.8
2973.90632	6970.9
2976.35131	6945.1
2978.7948	6943.5
2981.23681	6912.2
2983.67732	6893.3
2986.11635	6896.5
2988.55388	6866.4
2990.98993	6856
2993.4245	6835.2
2995.85758	6822.2
2998.28917	6819.5
3000.71928	6794.8
3003.14791	6772.5
3005.57506	6781.7
3008.00073	6758.5
3010.42493	6737.1
3012.84764	6734.8
3015.26888	6728.4
3017.68865	6709.5
3020.10694	6680.3
3022.52376	6684.3
3024.9391	6674.2
3027.35298	6655.5
3029.76539	6658.7
3032.17632	6663.9
3034.5858	6635
3036.9938	6651.9
3039.40034	6638.4
3041.80542	6643.7
3044.20903	6616.9
3046.61118	6614.3
3049.01187	6596
3051.4111	6578.6
3053.80888	6555.8
3056.20519	6579.8
3058.60005	6538.5
3060.99345	6535
3063.3854	6520.9
3065.7759	6485
3068.16494	6497.6
3070.55254	6489.2
3072.93868	6492.4
3075.32338	6442.6
3077.70662	6445.7
3080.08842	6437.7
3082.46878	6418.7
3084.84769	6411.4
3087.22515	6427.7
3089.60118	6417.9
3091.97576	6414.7
3094.3489	6398.1
3096.72061	6416.1
3099.09087	6407.2
3101.4597	6411.2
3103.82709	6404.9
3106.19305	6396.8
3108.55757	6382
3110.92066	6399.1
3113.28232	6376.2
3115.64255	6354
3118.00134	6344.6
3120.35871	6339.2
3122.71466	6334.9
3125.06917	6300.7
3127.42226	6295.4
3129.77393	6302.9
3132.12417	6303.3
3134.47299	6287.9
3136.82039	6289.5
3139.16636	6295.1
3141.51092	6296.7
3143.85406	6294.8
3146.19579	6289.6
3148.53609	6304.4
3150.87499	6312.4
3153.21246	6323.4
3155.54853	6318.8
3157.88318	6311.2
3160.21642	6310.1
3162.54826	6321.8
3164.87868	6326.7
3167.2077	6313.8
3169.5353	6330.7
3171.86151	6318.2
3174.18631	6321.1
3176.5097	6301.3
3178.83169	6297.2
3181.15228	6304.8
3183.47147	6289.8
3185.78926	6280.7
3188.10565	6283.1
3190.42065	6274.5
3192.73424	6260.9
3195.04645	6252.4
3197.35725	6232.5
3199.66667	6258.5
3201.97469	6256.7
3204.28132	6280.4
3206.58656	6271.9
3208.8904	6262.7
3211.19287	6269.5
3213.49394	6252.4
3215.79363	6301.5
3218.09193	6282.8
3220.38884	6286.5
3222.68438	6258.9
3224.97853	6250.9
3227.2713	6236.7
3229.56269	6230.6
3231.8527	6252.3
3234.14133	6226.8
3236.42858	6221.2
3238.71446	6213
3240.99896	6196.9
3243.28209	6163.3
3245.56384	6166.5
3247.84423	6181.6
3250.12324	6162.9
3252.40088	6158.5
3254.67715	6116.6
3256.95205	6126
3259.22558	6151.4
3261.49775	6123.4
3263.76855	6113.7
3266.03799	6092.6
3268.30606	6095.6
3270.57277	6075.6
3272.83812	6066.5
3275.10211	6062.5
3277.36474	6056.1
3279.62601	6056.5
3281.88593	6029.3
3284.14448	6020.9
3286.40168	6049.7
3288.65753	6035.8
3290.91202	6017.2
3293.16516	6007.2
3295.41695	5987.8
3297.66738	5954.9
3299.91647	5906.4
3302.16421	5877.9
3304.4106	5853.6
3306.65564	5816.3
3308.89933	5776.5
3311.14169	5765.8
3313.38269	5694.3
3315.62236	5644.2
3317.86068	5604.3
3320.09766	5556.7
3322.3333	5529
3324.5676	5472.7
3326.80056	5390.6
3329.03219	5360.5
3331.26248	3.3
3333.49143	0.4
3335.71905	0.6
