Data from AgNP_FTO_APTES_UA_10uM_CRN_20uM_R6G_10uM_NaF_0.1M_Addition_RamanShift__17__16-22-40-753.txt Node

Date: Thu Feb 10 16:22:40 GMT 2022
User: TCL
Spectrometer: QEP01345
Trigger mode: 4
Integration Time (sec): 7.000000E0
Scans to average: 10
Electric dark correction enabled: true
Nonlinearity correction enabled: false
Boxcar width: 0
XAxis mode: Raman Shifts
Number of Pixels in Spectrum: 1044
>>>>>Begin Spectral Data<<<<<
46.04893	-0.1
50.45542	-0.8
54.85868	-1.1
59.25871	-1.3
63.6555	67.2
68.04907	69.2
72.43941	72.9
76.82654	75.1
81.21044	79.3
85.59113	76.7
89.96862	82.4
94.34289	85.8
98.71396	87.2
103.08183	93.5
107.4465	96.3
111.80798	96.8
116.16626	102.1
120.52136	104.2
124.87327	109.7
129.222	111
133.56755	120.6
137.90993	129.6
142.24913	141.6
146.58517	159.6
150.91804	181.9
155.24774	223.4
159.57429	271.3
163.89768	347.1
168.21792	458.4
172.53501	626
176.84895	871.4
181.15975	1227.9
185.46741	1729.5
189.77193	2377.6
194.07331	3163.4
198.37157	4089.1
202.6667	5037.5
206.9587	5998.6
211.24758	6916.2
215.53334	7844.5
219.81599	8810.6
224.09553	9862.9
228.37195	11056.2
232.64527	12318.9
236.91549	13740.3
241.18261	15115.9
245.44663	16407.6
249.70755	17626.7
253.96539	18659.5
258.22014	19557.4
262.4718	20364.9
266.72039	20834
270.96589	21231.7
275.20832	21324.6
279.44768	21299.5
283.68397	21201.1
287.91719	21086.6
292.14735	21012.8
296.37445	21046.7
300.59849	21115.1
304.81948	21082.6
309.03742	20892.1
313.25231	20619
317.46415	20126.1
321.67296	19552.1
325.87872	19112.3
330.08145	18918.6
334.28114	18893.3
338.47781	18996.7
342.67145	19216.3
346.86207	19507.5
351.04966	19851.7
355.23424	20192.4
359.4158	20451.6
363.59435	20674.1
367.76989	20839.7
371.94243	20993.8
376.11196	21058.5
380.27849	21151.9
384.44203	21263.7
388.60257	21460.5
392.76012	21663.8
396.91468	21895.1
401.06626	22176.2
405.21485	22394.4
409.36047	22291.2
413.50311	22005.7
417.64277	21753.5
421.77947	21763.9
425.9132	21851.1
430.04396	22019.8
434.17176	22132.6
438.2966	22275.9
442.41849	22591.6
446.53742	23150.3
450.6534	23740.9
454.76644	24252.5
458.87653	24493.8
462.98368	24461.9
467.08789	24343.7
471.18916	24129.9
475.2875	23978.3
479.38291	23936.8
483.4754	23818.1
487.56496	23477.8
491.6516	23006.2
495.73531	22609.3
499.81612	22427.6
503.89401	22460.2
507.96899	22505.4
512.04106	22476.5
516.11023	22342.4
520.1765	22073.4
524.23987	21831.9
528.30034	21653.3
532.35792	21430.2
536.41261	21281.9
540.46441	21142.9
544.51333	21182.6
548.55936	21504.8
552.60252	22014.1
556.64279	22490.2
560.6802	22826.9
564.71473	23025.2
568.7464	23338.7
572.7752	23811.8
576.80114	24287.4
580.82422	24606.2
584.84444	24837.4
588.86181	24937.6
592.87633	25101.4
596.888	25147.2
600.89682	25200.6
604.9028	25789.3
608.90594	27460.6
612.90624	28952.5
616.90371	27040
620.89834	23361.2
624.89015	21912.6
628.87913	21805.9
632.86528	21879.8
636.84862	21839.2
640.82913	21520.3
644.80683	21072
648.78172	20631
652.75379	20507.6
656.72306	20706.4
660.68952	20960.6
664.65319	20890.2
668.61405	20601.5
672.57211	20525.6
676.52738	20545
680.47986	20521.7
684.42955	20477.8
688.37646	20413.2
692.32058	20508.3
696.26192	20703
700.20048	20945.6
704.13626	21050.9
708.06928	21032
711.99952	20933.3
715.927	20864.2
719.85171	20876
723.77365	20832.6
727.69284	20617.3
731.60928	20458.5
735.52295	20354.8
739.43388	20336.4
743.34206	20355.1
747.24749	20434.1
751.15017	20648.9
755.05012	20987.8
758.94733	21609.8
762.8418	22631.4
766.73354	24114.5
770.62254	25383.7
774.50882	25509.4
778.39237	24345.7
782.27321	22712.5
786.15132	21518
790.02671	20764.5
793.89938	20396.1
797.76935	20262
801.6366	20228.9
805.50115	20161.6
809.36299	20029.3
813.22213	19890.4
817.07857	19835.7
820.93231	19805.1
824.78336	19702.5
828.63172	19613.2
832.47738	19612.6
836.32036	19554.2
840.16066	19624
843.99827	19699.1
847.8332	19694.6
851.66546	19600.1
855.49504	19585.4
859.32195	19587.9
863.1462	19499.3
866.96777	19451
870.78668	19390.5
874.60293	19347.4
878.41652	19400.1
882.22745	19376.7
886.03573	19433.7
889.84136	19424.2
893.64433	19348.6
897.44466	19260.1
901.24235	19210.5
905.0374	19164.6
908.8298	19152.1
912.61957	19210.9
916.40671	19393.4
920.19121	19670.1
923.97308	19815.1
927.75233	19784.2
931.52895	19622.6
935.30295	19401.3
939.07433	19087.8
942.84309	18828.5
946.60924	18677.6
950.37278	18702.4
954.13371	18654.8
957.89203	18604.7
961.64774	18580.7
965.40086	18524.4
969.15137	18480.8
972.89929	18401.6
976.64461	18320
980.38733	18297.5
984.12747	18369.1
987.86502	18523.9
991.59999	18736.5
995.33237	19026.3
999.06217	19514.2
1002.78939	19994.2
1006.51404	20331.6
1010.23611	20460.6
1013.95561	20604.7
1017.67255	20636.7
1021.38692	20474.9
1025.09872	20274.2
1028.80796	20357.2
1032.51465	20738.1
1036.21877	21160
1039.92035	21228.6
1043.61937	21015.2
1047.31584	20630.7
1051.00976	20248.8
1054.70114	20146.8
1058.38998	20211.6
1062.07627	20424
1065.76003	20546.7
1069.44126	20640.5
1073.11995	20857.2
1076.79611	21039.6
1080.46974	21175
1084.14085	21346.2
1087.80943	21542.8
1091.47549	21730.3
1095.13903	21752.2
1098.80005	21564.7
1102.45857	21149.4
1106.11456	20832.7
1109.76805	20692.4
1113.41903	20758.6
1117.06751	20878.5
1120.71348	21037.4
1124.35696	21224.5
1127.99793	21388.8
1131.63641	21520.4
1135.2724	21511.5
1138.90589	21391.3
1142.5369	21407.9
1146.16542	21458.9
1149.79145	21600.8
1153.415	21869.7
1157.03607	22254.8
1160.65467	22892.7
1164.27079	23859.2
1167.88443	25111.4
1171.49561	26535.6
1175.10432	28367.3
1178.71056	30568.8
1182.31434	32644.5
1185.91565	33855.2
1189.51451	33993.5
1193.11091	33341.1
1196.70485	32123.4
1200.29634	30742.1
1203.88538	29758.6
1207.47197	29063.4
1211.05612	28485.7
1214.63782	27926.9
1218.21708	27402.7
1221.79391	26889.5
1225.36829	26599.4
1228.94024	26230.6
1232.50976	25801.9
1236.07685	25457.1
1239.6415	25318.3
1243.20374	25300.6
1246.76355	25448.3
1250.32093	25801.5
1253.8759	26396
1257.42845	27066.2
1260.97859	27753.3
1264.52631	28441.7
1268.07163	29157.3
1271.61453	30012
1275.15503	30897.9
1278.69312	31795
1282.22882	32656.9
1285.76211	33418.3
1289.29301	34322.4
1292.82151	35541.4
1296.34761	37149.4
1299.87133	39128.2
1303.39266	41258
1306.9116	43516
1310.42815	45459.8
1313.94233	46771.3
1317.45412	46974.2
1320.96354	46590
1324.47058	46219.9
1327.97525	45844
1331.47754	45534.9
1334.97747	45561.7
1338.47502	45621.9
1341.97022	45627.7
1345.46305	45170
1348.95352	44254.9
1352.44163	43158.7
1355.92738	42744.7
1359.41078	43215.9
1362.89183	43765.9
1366.37053	42570.1
1369.84688	39607.4
1373.32088	36278.3
1376.79254	34047.2
1380.26186	33263.3
1383.72883	33366.8
1387.19347	33584.3
1390.65578	33505.8
1394.11575	33661.9
1397.57339	34126.1
1401.0287	34719.2
1404.48168	35186.2
1407.93234	35206.1
1411.38068	34569.3
1414.82669	33376
1418.27039	31906
1421.71177	30418.8
1425.15083	29241.5
1428.58758	28612.1
1432.02203	28651.6
1435.45416	29242.2
1438.88399	30117.1
1442.31151	30927.2
1445.73673	31573.4
1449.15965	32161.1
1452.58027	32640.8
1455.9986	32946.6
1459.41463	33303.1
1462.82837	33778.1
1466.23982	34282.4
1469.64898	34711.5
1473.05586	34916.2
1476.46045	34760
1479.86276	34311
1483.26279	33755.3
1486.66054	33370.1
1490.05602	33251.3
1493.44922	33241.6
1496.84016	33452
1500.22882	33874.8
1503.61521	34604.6
1506.99934	35687.6
1510.38121	36582.8
1513.76081	36827.1
1517.13816	36340.6
1520.51324	35333.5
1523.88607	34561.4
1527.25665	34125.3
1530.62498	34039.8
1533.99105	34046.5
1537.35488	34007.7
1540.71647	33533.6
1544.07581	32938
1547.4329	32220.4
1550.78776	31569.6
1554.14038	31163.6
1557.49077	30946.7
1560.83892	30800.9
1564.18484	30694.3
1567.52853	30672
1570.86999	30836.9
1574.20922	31241.1
1577.54624	31740.2
1580.88103	32008.6
1584.2136	32328.5
1587.54395	33185.5
1590.87208	34520.3
1594.19801	36266
1597.52172	37994.6
1600.84321	38395.4
1604.16251	36841
1607.47959	34328.9
1610.79447	31602.4
1614.10715	29037.1
1617.41763	26883.8
1620.7259	25307.8
1624.03199	24408.6
1627.33587	24303.5
1630.63757	24944.5
1633.93707	26515
1637.23439	28938
1640.52951	32236.3
1643.82246	35799.4
1647.11321	38209.9
1650.40179	38264
1653.68819	35738.8
1656.97241	31461.1
1660.25446	27258.1
1663.53433	24044.1
1666.81203	21818
1670.08756	20389.2
1673.36092	19473.7
1676.63211	18879.4
1679.90115	18452.6
1683.16801	18117.3
1686.43272	17866.1
1689.69527	17694.7
1692.95567	17567.8
1696.2139	17478.7
1699.46999	17426.9
1702.72392	17317
1705.97571	17211.4
1709.22535	17166.4
1712.47284	17118.2
1715.71819	17107
1718.96139	17004.6
1722.20246	16968.8
1725.44139	16894.9
1728.67818	16761.8
1731.91284	16653.4
1735.14537	16572.8
1738.37576	16498.4
1741.60403	16403.7
1744.83017	16370.4
1748.05418	16347
1751.27607	16291.5
1754.49584	16275.2
1757.71349	16272.1
1760.92903	16238.6
1764.14244	16225.9
1767.35375	16194.2
1770.56294	16155.2
1773.77002	16134
1776.97499	16100.3
1780.17785	16035.2
1783.37861	16015.5
1786.57727	16004.1
1789.77382	15971.5
1792.96828	15931.2
1796.16064	15879.2
1799.3509	15864.5
1802.53907	15832.3
1805.72514	15806.1
1808.90913	15745.7
1812.09102	15692.7
1815.27083	15672.5
1818.44856	15671.1
1821.6242	15611.4
1824.79776	15617.8
1827.96924	15581.2
1831.13864	15595.9
1834.30597	15609.7
1837.47122	15595.3
1840.6344	15583.3
1843.7955	15586.9
1846.95454	15581.7
1850.11151	15554
1853.26642	15547.4
1856.41926	15571
1859.57004	15536.6
1862.71876	15496.9
1865.86542	15505.7
1869.01003	15468.3
1872.15258	15459.3
1875.29308	15463.1
1878.43152	15440.2
1881.56792	15434
1884.70227	15414.7
1887.83457	15409.1
1890.96482	15406.8
1894.09304	15368.7
1897.21921	15344.7
1900.34335	15346.2
1903.46544	15337.1
1906.58551	15279.8
1909.70353	15264.2
1912.81953	15241
1915.93349	15228.7
1919.04543	15199.7
1922.15534	15157.2
1925.26322	15090.3
1928.36908	15084.8
1931.47292	15042.8
1934.57473	14979.4
1937.67453	14971.4
1940.77232	14920.5
1943.86808	14880.4
1946.96184	14850.8
1950.05358	14764
1953.14331	14759.8
1956.23103	14665.8
1959.31675	14621
1962.40046	14594.4
1965.48217	14550.8
1968.56188	14497.5
1971.63959	14483.3
1974.7153	14414.6
1977.78901	14353.1
1980.86073	14297.6
1983.93046	14273.4
1986.99819	14260.5
1990.06394	14205.5
1993.1277	14169.6
1996.18947	14105.8
1999.24925	14084.8
2002.30706	14003.3
2005.36288	14006.7
2008.41672	13971.5
2011.46859	13879
2014.51848	13877.4
2017.56639	13854.8
2020.61233	13800.5
2023.6563	13792.8
2026.6983	13770.4
2029.73833	13693.9
2032.7764	13690.5
2035.8125	13667.6
2038.84664	13613.1
2041.87881	13587
2044.90903	13566.3
2047.93729	13536.3
2050.96359	13527.4
2053.98794	13504
2057.01034	13522.7
2060.03078	13490.8
2063.04927	13483.1
2066.06582	13489.3
2069.08042	13483.7
2072.09307	13482.7
2075.10378	13485.9
2078.11255	13433.1
2081.11938	13434.9
2084.12426	13428.6
2087.12722	13413.8
2090.12824	13410.5
2093.12732	13417.8
2096.12447	13412.2
2099.11969	13398.8
2102.11299	13403.7
2105.10435	13436.9
2108.09379	13390
2111.08131	13405.2
2114.0669	13398.2
2117.05057	13409.9
2120.03233	13411.2
2123.01216	13437.1
2125.99008	13453.9
2128.96609	13454.3
2131.94018	13483.1
2134.91236	13502.6
2137.88263	13499.3
2140.851	13474.4
2143.81746	13487.4
2146.78201	13484.3
2149.74466	13479.3
2152.7054	13481.2
2155.66425	13499
2158.6212	13496.7
2161.57625	13467.2
2164.52941	13462.6
2167.48067	13459.5
2170.43004	13449
2173.37752	13411.7
2176.32311	13450.2
2179.26681	13446.7
2182.20863	13440.9
2185.14856	13458.6
2188.08661	13454.1
2191.02278	13434.7
2193.95707	13445.1
2196.88948	13464.3
2199.82001	13423.6
2202.74867	13402.4
2205.67545	13421.6
2208.60037	13367.7
2211.52341	13382.9
2214.44458	13346.1
2217.36388	13355.6
2220.28132	13357.9
2223.1969	13304.3
2226.11061	13315.3
2229.02246	13243
2231.93245	13219.9
2234.84058	13139.8
2237.74686	13173.1
2240.65128	13147.6
2243.55385	13121.9
2246.45456	13099.4
2249.35343	13076.8
2252.25044	13037.7
2255.14561	13014.2
2258.03893	13044.6
2260.93041	12998.2
2263.82004	12951.2
2266.70783	12928.3
2269.59378	12880
2272.4779	12841
2275.36017	12806.8
2278.24061	12799.4
2281.11922	12779.9
2283.996	12781.1
2286.87094	12772.6
2289.74405	12731.8
2292.61534	12740.5
2295.4848	12705.3
2298.35243	12722.6
2301.21824	12712.9
2304.08223	12756.3
2306.94439	12732.6
2309.80474	12746.2
2312.66327	12760.3
2315.51999	12746.1
2318.37489	12711.5
2321.22797	12716.8
2324.07925	12713.4
2326.92871	12656.1
2329.77637	12641.9
2332.62222	12640
2335.46626	12624.8
2338.3085	12627.5
2341.14893	12634.5
2343.98756	12633.9
2346.8244	12647.7
2349.65943	12651
2352.49267	12645.7
2355.32411	12634.7
2358.15376	12651.4
2360.98161	12632.3
2363.80768	12625.3
2366.63195	12637.3
2369.45444	12586.7
2372.27514	12571.9
2375.09405	12561.4
2377.91118	12524.3
2380.72652	12488.4
2383.54009	12434.3
2386.35187	12425.7
2389.16188	12374.7
2391.97011	12381.2
2394.77657	12335.9
2397.58125	12333.8
2400.38416	12329.3
2403.18529	12293
2405.98466	12288.3
2408.78226	12261.8
2411.57809	12256.3
2414.37216	12234.8
2417.16446	12220.2
2419.955	12178.8
2422.74378	12207.6
2425.5308	12186.8
2428.31606	12183.8
2431.09956	12152.8
2433.88131	12186.7
2436.6613	12173.1
2439.43954	12175.8
2442.21603	12159.5
2444.99077	12165.4
2447.76377	12147.4
2450.53501	12142.7
2453.30451	12142
2456.07226	12141.5
2458.83827	12126.4
2461.60254	12126.2
2464.36507	12114.5
2467.12586	12100.3
2469.88492	12080.2
2472.64224	12094
2475.39782	12111.2
2478.15167	12121.7
2480.90379	12123
2483.65417	12134.4
2486.40283	12156
2489.14976	12151.4
2491.89497	12170.2
2494.63845	12185.1
2497.3802	12172.8
2500.12024	12179.9
2502.85855	12139.4
2505.59514	12132.3
2508.33002	12132.3
2511.06318	12118
2513.79462	12117.7
2516.52435	12091
2519.25237	12098.3
2521.97867	12065
2524.70327	12083.7
2527.42616	12050.9
2530.14734	12068.4
2532.86681	12072.5
2535.58458	12062.8
2538.30065	12044.1
2541.01501	12056.1
2543.72768	12039.3
2546.43864	12037.1
2549.14791	12024.4
2551.85548	12001.1
2554.56136	12002.6
2557.26554	11994.2
2559.96803	11943.2
2562.66883	11939.7
2565.36794	11922.8
2568.06536	11942.6
2570.7611	11902.1
2573.45514	11903.5
2576.14751	11890.1
2578.83819	11861.7
2581.52719	11880.7
2584.21451	11872.2
2586.90015	11901.3
2589.58411	11857.7
2592.2664	11857.1
2594.94701	11848.9
2597.62594	11854.3
2600.30321	11817.5
2602.9788	11840.1
2605.65273	11838.1
2608.32498	11849.8
2610.99557	11843.4
2613.66449	11847.6
2616.33175	11813.2
2618.99734	11855.6
2621.66128	11830.1
2624.32355	11824.5
2626.98416	11839.6
2629.64311	11829.7
2632.30041	11839
2634.95605	11813.1
2637.61004	11804.7
2640.26238	11781.1
2642.91306	11775.8
2645.56209	11762.6
2648.20948	11761.2
2650.85521	11741.6
2653.4993	11750.4
2656.14175	11737.1
2658.78255	11766.5
2661.42171	11761.5
2664.05923	11778.3
2666.6951	11781.9
2669.32934	11811.2
2671.96194	11805.8
2674.59291	11823.7
2677.22224	11840
2679.84993	11796.4
2682.476	11804.8
2685.10043	11787.9
2687.72324	11778.3
2690.34441	11764.1
2692.96396	11776.5
2695.58188	11743.6
2698.19818	11736.1
2700.81285	11752.8
2703.4259	11747.2
2706.03733	11754.1
2708.64714	11756.3
2711.25533	11784.2
2713.86191	11792.4
2716.46687	11786.2
2719.07021	11796.2
2721.67194	11827
2724.27206	11807
2726.87057	11805
2729.46747	11823.6
2732.06276	11837.2
2734.65644	11839.4
2737.24852	11821.4
2739.83899	11802.2
2742.42786	11823.3
2745.01513	11812.3
2747.60079	11820.8
2750.18486	11767.2
2752.76733	11755.6
2755.3482	11773.7
2757.92747	11770.2
2760.50515	11751.6
2763.08123	11765.2
2765.65573	11744.6
2768.22863	11747.4
2770.79994	11732.5
2773.36967	11750.3
2775.9378	11755
2778.50435	11739.4
2781.06932	11761.1
2783.6327	11756.4
2786.1945	11750.2
2788.75471	11756.4
2791.31335	11715
2793.87041	11714.9
2796.42589	11689
2798.97979	11693
2801.53212	11682
2804.08288	11674.6
2806.63206	11639
2809.17967	11611.3
2811.72571	11600.4
2814.27018	11557.1
2816.81308	11549.5
2819.35442	11526.9
2821.89419	11502.5
2824.43239	11499
2826.96904	11466.4
2829.50412	11479.7
2832.03763	11426.2
2834.56959	11451.9
2837.1	11431.3
2839.62884	11444.2
2842.15613	11440.9
2844.68186	11444.8
2847.20604	11419.3
2849.72867	11439.8
2852.24974	11417.3
2854.76927	11434.9
2857.28724	11389.6
2859.80367	11385.3
2862.31855	11374.4
2864.83189	11351.6
2867.34368	11329.6
2869.85393	11330.9
2872.36264	11330.7
2874.8698	11312.9
2877.37543	11339.6
2879.87952	11318.9
2882.38207	11350.3
2884.88308	11329.9
2887.38256	11343.6
2889.88051	11335.5
2892.37692	11338.8
2894.8718	11342
2897.36515	11377.9
2899.85698	11383.8
2902.34727	11399.1
2904.83604	11395.9
2907.32328	11436.6
2909.809	11407.7
2912.29319	11445.4
2914.77587	11420.1
2917.25702	11434.4
2919.73665	11436.7
2922.21476	11430
2924.69136	11417.8
2927.16644	11396.3
2929.64	11387.7
2932.11205	11378.7
2934.58258	11340.3
2937.05161	11320.5
2939.51912	11344
2941.98513	11314.8
2944.44962	11296
2946.91261	11297.1
2949.37409	11318.6
2951.83407	11263.4
2954.29254	11278.6
2956.74951	11262.9
2959.20498	11259.4
2961.65895	11250.9
2964.11142	11253.9
2966.56239	11234
2969.01186	11239.2
2971.45984	11210.6
2973.90632	11183.4
2976.35131	11145.1
2978.7948	11152.7
2981.23681	11128.8
2983.67732	11120.9
2986.11635	11080.4
2988.55388	11065.2
2990.98993	11036.8
2993.4245	11021.2
2995.85758	10975.4
2998.28917	10934
3000.71928	10935.6
3003.14791	10898.1
3005.57506	10889.8
3008.00073	10861.8
3010.42493	10808.6
3012.84764	10768.4
3015.26888	10776.8
3017.68865	10768.5
3020.10694	10777.8
3022.52376	10757.7
3024.9391	10750.4
3027.35298	10731.4
3029.76539	10752.2
3032.17632	10733.4
3034.5858	10731.3
3036.9938	10717.7
3039.40034	10722.1
3041.80542	10727.1
3044.20903	10725.4
3046.61118	10696.5
3049.01187	10660.9
3051.4111	10661.1
3053.80888	10633.5
3056.20519	10599.8
3058.60005	10598.9
3060.99345	10574.2
3063.3854	10569.5
3065.7759	10507.6
3068.16494	10493.1
3070.55254	10465.4
3072.93868	10441.1
3075.32338	10419.2
3077.70662	10387.2
3080.08842	10379.2
3082.46878	10369.4
3084.84769	10380.1
3087.22515	10359.4
3089.60118	10352.8
3091.97576	10345.6
3094.3489	10327.1
3096.72061	10360.7
3099.09087	10333.8
3101.4597	10334.5
3103.82709	10333.8
3106.19305	10303.8
3108.55757	10282.5
3110.92066	10277.7
3113.28232	10263.9
3115.64255	10261.1
3118.00134	10228.2
3120.35871	10202.4
3122.71466	10179.7
3125.06917	10169.5
3127.42226	10131.5
3129.77393	10144.9
3132.12417	10124.7
3134.47299	10120.9
3136.82039	10121.6
3139.16636	10154.5
3141.51092	10113.2
3143.85406	10129.4
3146.19579	10106
3148.53609	10117.6
3150.87499	10114.3
3153.21246	10118.3
3155.54853	10154.6
3157.88318	10138.4
3160.21642	10163.3
3162.54826	10166.9
3164.87868	10173.6
3167.2077	10148.9
3169.5353	10146.3
3171.86151	10178.6
3174.18631	10168
3176.5097	10159.1
3178.83169	10119.5
3181.15228	10137.6
3183.47147	10109.4
3185.78926	10113.6
3188.10565	10073.3
3190.42065	10079
3192.73424	10080
3195.04645	10066.3
3197.35725	10043.9
3199.66667	10084.1
3201.97469	10086.2
3204.28132	10073
3206.58656	10087.5
3208.8904	10084.7
3211.19287	10086.7
3213.49394	10081.3
3215.79363	10086.5
3218.09193	10111.6
3220.38884	10091.5
3222.68438	10099.4
3224.97853	10084.4
3227.2713	10056.7
3229.56269	10064.2
3231.8527	10079.2
3234.14133	10043.1
3236.42858	10025.1
3238.71446	10023.2
3240.99896	9995.3
3243.28209	9996.8
3245.56384	9989
3247.84423	9987.4
3250.12324	9974
3252.40088	9948.1
3254.67715	9939.6
3256.95205	9929.3
3259.22558	9934.2
3261.49775	9924.2
3263.76855	9925.2
3266.03799	9905.3
3268.30606	9880.3
3270.57277	9857.1
3272.83812	9870.2
3275.10211	9830.8
3277.36474	9809.1
3279.62601	9789.1
3281.88593	9773.4
3284.14448	9782
3286.40168	9796
3288.65753	9792.5
3290.91202	9786.9
3293.16516	9764.8
3295.41695	9722.1
3297.66738	9685.3
3299.91647	9648.9
3302.16421	9590.1
3304.4106	9533.4
3306.65564	9471.8
3308.89933	9389.8
3311.14169	9321.3
3313.38269	9262
3315.62236	9194.9
3317.86068	9102
3320.09766	9062
3322.3333	8999.5
3324.5676	8928.3
3326.80056	8810.7
3329.03219	8758.7
3331.26248	4
3333.49143	-0.1
3335.71905	0.1
