Data from AgNP_FTO_APTES_UA_10uM_CRN_10uM_R6G_10uM_NaF_0.1M_Addition_RamanShift__27__15-55-50-721.txt Node

Date: Thu Feb 10 15:55:50 GMT 2022
User: TCL
Spectrometer: QEP01345
Trigger mode: 4
Integration Time (sec): 7.000000E0
Scans to average: 10
Electric dark correction enabled: true
Nonlinearity correction enabled: false
Boxcar width: 0
XAxis mode: Raman Shifts
Number of Pixels in Spectrum: 1044
>>>>>Begin Spectral Data<<<<<
46.04893	-0.4375
50.45542	-0.8375
54.85868	-1.9375
59.25871	-0.9375
63.6555	64.6625
68.04907	71.1625
72.43941	71.3625
76.82654	73.4625
81.21044	77.9625
85.59113	76.9625
89.96862	87.1625
94.34289	85.1625
98.71396	87.6625
103.08183	89.5625
107.4465	96.6625
111.80798	95.3625
116.16626	98.2625
120.52136	101.4625
124.87327	104.6625
129.222	110.0625
133.56755	116.3625
137.90993	127.8625
142.24913	133.2625
146.58517	149.1625
150.91804	173.4625
155.24774	204.3625
159.57429	255.2625
163.89768	327.9625
168.21792	432.7625
172.53501	588.3625
176.84895	806.7625
181.15975	1133.4625
185.46741	1588.2625
189.77193	2185.4625
194.07331	2915.5625
198.37157	3742.4625
202.6667	4618.9625
206.9587	5500.8625
211.24758	6352.8625
215.53334	7232.2625
219.81599	8182.5625
224.09553	9248.5625
228.37195	10424.5625
232.64527	11730.6625
236.91549	13099.2625
241.18261	14407.6625
245.44663	15528.8625
249.70755	16504.7625
253.96539	17373.1625
258.22014	18171.9625
262.4718	18838.3625
266.72039	19448.4625
270.96589	19743.9625
275.20832	19882.3625
279.44768	19921.0625
283.68397	19802.4625
287.91719	19729.8625
292.14735	19783.9625
296.37445	19947.5625
300.59849	20255.7625
304.81948	20521.8625
309.03742	20612.3625
313.25231	20337.1625
317.46415	19596.5625
321.67296	18562.4625
325.87872	17712.3625
330.08145	17322.7625
334.28114	17320.5625
338.47781	17483.0625
342.67145	17867.7625
346.86207	18356.3625
351.04966	19072.3625
355.23424	19832.0625
359.4158	20435.1625
363.59435	20753.0625
367.76989	20871.0625
371.94243	20893.6625
376.11196	20893.8625
380.27849	20890.4625
384.44203	20793.2625
388.60257	20744.5625
392.76012	20799.3625
396.91468	21033.2625
401.06626	21475.8625
405.21485	21841.2625
409.36047	21627.5625
413.50311	20936.5625
417.64277	20305.9625
421.77947	20060.4625
425.9132	20035.1625
430.04396	20153.5625
434.17176	20227.8625
438.2966	20496.2625
442.41849	20845.7625
446.53742	21400.3625
450.6534	22011.6625
454.76644	22511.3625
458.87653	22672.1625
462.98368	22593.6625
467.08789	22349.2625
471.18916	21976.5625
475.2875	21549.0625
479.38291	21275.0625
483.4754	21008.3625
487.56496	20669.3625
491.6516	20334.5625
495.73531	20143.0625
499.81612	20086.5625
503.89401	20238.8625
507.96899	20327.8625
512.04106	20397.3625
516.11023	20471.9625
520.1765	20443.3625
524.23987	20282.0625
528.30034	20035.6625
532.35792	19722.8625
536.41261	19425.4625
540.46441	19186.3625
544.51333	19146.1625
548.55936	19467.3625
552.60252	19913.4625
556.64279	20466.4625
560.6802	20734.6625
564.71473	20940.7625
568.7464	21417.2625
572.7752	21958.1625
576.80114	21844.8625
580.82422	21610.5625
584.84444	21544.5625
588.86181	21490.5625
592.87633	21546.5625
596.888	21780.7625
600.89682	22275.0625
604.9028	24025.0625
608.90594	28221.3625
612.90624	33190.4625
616.90371	31205.8625
620.89834	23927.7625
624.89015	20767.6625
628.87913	20282.2625
632.86528	20319.1625
636.84862	20276.9625
640.82913	19899.9625
644.80683	19175.9625
648.78172	18703.4625
652.75379	18745.2625
656.72306	19226.6625
660.68952	19876.6625
664.65319	19777.2625
668.61405	19183.6625
672.57211	18886.6625
676.52738	18927.9625
680.47986	18923.8625
684.42955	18829.6625
688.37646	18795.2625
692.32058	18895.2625
696.26192	19075.2625
700.20048	19334.3625
704.13626	19494.0625
708.06928	19459.7625
711.99952	19264.2625
715.927	19195.3625
719.85171	19204.1625
723.77365	19138.2625
727.69284	18910.5625
731.60928	18717.9625
735.52295	18665.6625
739.43388	18676.6625
743.34206	18786.9625
747.24749	18917.7625
751.15017	19125.1625
755.05012	19548.0625
758.94733	20368.7625
762.8418	21959.8625
766.73354	24588.7625
770.62254	27187.7625
774.50882	28046.8625
778.39237	26400.6625
782.27321	23559.0625
786.15132	21109.5625
790.02671	19748.9625
793.89938	19085.6625
797.76935	18842.4625
801.6366	18719.1625
805.50115	18598.6625
809.36299	18503.4625
813.22213	18393.5625
817.07857	18384.7625
820.93231	18388.3625
824.78336	18389.1625
828.63172	18440.9625
832.47738	18441.5625
836.32036	18454.7625
840.16066	18484.2625
843.99827	18504.0625
847.8332	18421.2625
851.66546	18355.2625
855.49504	18321.8625
859.32195	18284.7625
863.1462	18175.2625
866.96777	18045.7625
870.78668	18001.7625
874.60293	18026.9625
878.41652	18048.3625
882.22745	18146.5625
886.03573	18185.2625
889.84136	18162.5625
893.64433	18052.9625
897.44466	17997.1625
901.24235	17966.5625
905.0374	17963.1625
908.8298	17957.5625
912.61957	18021.3625
916.40671	18192.0625
920.19121	18461.8625
923.97308	18665.5625
927.75233	18755.2625
931.52895	18776.0625
935.30295	18507.7625
939.07433	18046.0625
942.84309	17704.4625
946.60924	17534.5625
950.37278	17420.3625
954.13371	17338.7625
957.89203	17224.1625
961.64774	17168.1625
965.40086	17133.1625
969.15137	17095.5625
972.89929	17032.5625
976.64461	17004.9625
980.38733	17006.1625
984.12747	17062.8625
987.86502	17207.7625
991.59999	17446.7625
995.33237	17823.3625
999.06217	18388.9625
1002.78939	19132.7625
1006.51404	19600.4625
1010.23611	19918.6625
1013.95561	20138.3625
1017.67255	20069.4625
1021.38692	19827.4625
1025.09872	19688.6625
1028.80796	19877.9625
1032.51465	20454.7625
1036.21877	21047.9625
1039.92035	21084.6625
1043.61937	20751.2625
1047.31584	20218.1625
1051.00976	19608.2625
1054.70114	19354.4625
1058.38998	19303.3625
1062.07627	19420.5625
1065.76003	19528.7625
1069.44126	19565.6625
1073.11995	19754.3625
1076.79611	19946.4625
1080.46974	20100.9625
1084.14085	20372.4625
1087.80943	20742.2625
1091.47549	20914.6625
1095.13903	20681.8625
1098.80005	20248.9625
1102.45857	19756.3625
1106.11456	19464.6625
1109.76805	19470.7625
1113.41903	19694.4625
1117.06751	20020.2625
1120.71348	20501.3625
1124.35696	20921.1625
1127.99793	21347.6625
1131.63641	21377.9625
1135.2724	20977.8625
1138.90589	20473.4625
1142.5369	20156.5625
1146.16542	20001.7625
1149.79145	19966.4625
1153.415	20092.3625
1157.03607	20386.2625
1160.65467	20869.4625
1164.27079	21622.0625
1167.88443	22728.8625
1171.49561	24339.9625
1175.10432	26722.3625
1178.71056	29792.6625
1182.31434	32328.5625
1185.91565	33615.0625
1189.51451	33435.1625
1193.11091	32041.2625
1196.70485	30069.8625
1200.29634	28339.4625
1203.88538	27002.7625
1207.47197	25758.4625
1211.05612	24701.2625
1214.63782	24085.4625
1218.21708	23972.8625
1221.79391	24002.4625
1225.36829	24140.2625
1228.94024	24064.0625
1232.50976	23947.2625
1236.07685	23834.6625
1239.6415	23744.9625
1243.20374	23682.9625
1246.76355	23810.9625
1250.32093	24184.9625
1253.8759	24832.2625
1257.42845	25661.0625
1260.97859	26396.9625
1264.52631	27016.0625
1268.07163	27686.6625
1271.61453	28444.1625
1275.15503	29229.4625
1278.69312	29887.8625
1282.22882	30451.1625
1285.76211	30966.5625
1289.29301	31637.4625
1292.82151	32395.1625
1296.34761	33419.5625
1299.87133	34971.1625
1303.39266	37236.1625
1306.9116	40423.6625
1310.42815	43857.9625
1313.94233	46291.5625
1317.45412	46370.4625
1320.96354	44923.2625
1324.47058	43114.0625
1327.97525	41402.0625
1331.47754	40269.6625
1334.97747	39987.4625
1338.47502	40269.2625
1341.97022	40736.8625
1345.46305	40983.7625
1348.95352	41019.0625
1352.44163	41259.9625
1355.92738	42627.7625
1359.41078	45899.1625
1362.89183	49198.0625
1366.37053	47953.0625
1369.84688	42498.6625
1373.32088	36862.7625
1376.79254	33342.6625
1380.26186	31765.1625
1383.72883	31106.7625
1387.19347	30638.5625
1390.65578	30089.5625
1394.11575	29835.0625
1397.57339	30011.8625
1401.0287	30560.9625
1404.48168	31197.9625
1407.93234	31835.6625
1411.38068	32075.4625
1414.82669	31702.9625
1418.27039	30679.2625
1421.71177	29460.7625
1425.15083	28291.2625
1428.58758	27598.4625
1432.02203	27471.8625
1435.45416	27647.8625
1438.88399	28033.2625
1442.31151	28320.9625
1445.73673	28648.7625
1449.15965	29003.0625
1452.58027	29285.4625
1455.9986	29327.1625
1459.41463	29488.6625
1462.82837	29870.3625
1466.23982	30432.9625
1469.64898	31109.6625
1473.05586	31514.6625
1476.46045	31676.1625
1479.86276	31858.0625
1483.26279	32109.9625
1486.66054	32403.2625
1490.05602	32860.2625
1493.44922	33428.2625
1496.84016	34333.5625
1500.22882	35626.2625
1503.61521	37504.8625
1506.99934	39970.4625
1510.38121	42526.2625
1513.76081	43946.9625
1517.13816	43057.1625
1520.51324	40167.6625
1523.88607	37043.5625
1527.25665	34719.3625
1530.62498	33322.0625
1533.99105	32433.0625
1537.35488	31873.8625
1540.71647	31476.3625
1544.07581	31113.7625
1547.4329	30765.4625
1550.78776	30392.5625
1554.14038	30240.8625
1557.49077	30301.0625
1560.83892	30486.0625
1564.18484	30779.8625
1567.52853	30960.4625
1570.86999	30988.9625
1574.20922	31095.2625
1577.54624	31089.0625
1580.88103	30534.5625
1584.2136	29908.2625
1587.54395	30113.2625
1590.87208	31361.4625
1594.19801	33417.6625
1597.52172	35635.9625
1600.84321	36376.2625
1604.16251	34959.8625
1607.47959	32340.0625
1610.79447	29645.7625
1614.10715	27224.8625
1617.41763	25228.1625
1620.7259	23907.5625
1624.03199	23234.6625
1627.33587	23261.4625
1630.63757	23898.2625
1633.93707	25251.1625
1637.23439	27164.6625
1640.52951	29656.0625
1643.82246	32440.5625
1647.11321	34934.7625
1650.40179	36139.2625
1653.68819	34665.7625
1656.97241	30658.1625
1660.25446	26274.8625
1663.53433	23057.3625
1666.81203	20955.2625
1670.08756	19671.1625
1673.36092	18875.0625
1676.63211	18337.4625
1679.90115	17964.1625
1683.16801	17673.2625
1686.43272	17513.9625
1689.69527	17355.1625
1692.95567	17231.3625
1696.2139	17178.4625
1699.46999	17156.7625
1702.72392	17089.8625
1705.97571	17046.2625
1709.22535	16965.9625
1712.47284	16957.4625
1715.71819	16960.8625
1718.96139	16915.5625
1722.20246	16846.7625
1725.44139	16823.1625
1728.67818	16702.7625
1731.91284	16607.9625
1735.14537	16497.0625
1738.37576	16401.7625
1741.60403	16373.7625
1744.83017	16293.6625
1748.05418	16262.3625
1751.27607	16258.9625
1754.49584	16222.9625
1757.71349	16232.3625
1760.92903	16223.0625
1764.14244	16182.2625
1767.35375	16205.2625
1770.56294	16164.4625
1773.77002	16121.8625
1776.97499	16074.9625
1780.17785	16051.3625
1783.37861	15988.4625
1786.57727	15981.9625
1789.77382	15962.1625
1792.96828	15921.6625
1796.16064	15951.7625
1799.3509	15943.6625
1802.53907	15906.6625
1805.72514	15871.7625
1808.90913	15825.9625
1812.09102	15777.0625
1815.27083	15740.3625
1818.44856	15740.6625
1821.6242	15692.6625
1824.79776	15666.8625
1827.96924	15660.9625
1831.13864	15670.7625
1834.30597	15642.9625
1837.47122	15648.4625
1840.6344	15659.2625
1843.7955	15659.0625
1846.95454	15676.9625
1850.11151	15642.9625
1853.26642	15657.2625
1856.41926	15669.8625
1859.57004	15687.2625
1862.71876	15654.7625
1865.86542	15667.8625
1869.01003	15678.1625
1872.15258	15674.6625
1875.29308	15707.9625
1878.43152	15703.0625
1881.56792	15706.2625
1884.70227	15697.5625
1887.83457	15719.1625
1890.96482	15716.1625
1894.09304	15704.9625
1897.21921	15716.4625
1900.34335	15736.9625
1903.46544	15713.5625
1906.58551	15756.2625
1909.70353	15722.7625
1912.81953	15788.0625
1915.93349	15788.6625
1919.04543	15743.8625
1922.15534	15725.6625
1925.26322	15688.3625
1928.36908	15623.2625
1931.47292	15545.9625
1934.57473	15484.8625
1937.67453	15467.6625
1940.77232	15394.6625
1943.86808	15347.0625
1946.96184	15250.1625
1950.05358	15155.3625
1953.14331	15074.2625
1956.23103	15035.8625
1959.31675	15002.8625
1962.40046	14934.4625
1965.48217	14904.2625
1968.56188	14858.5625
1971.63959	14809.0625
1974.7153	14745.6625
1977.78901	14728.4625
1980.86073	14687.3625
1983.93046	14634.3625
1986.99819	14559.3625
1990.06394	14552.3625
1993.1277	14506.7625
1996.18947	14447.9625
1999.24925	14410.9625
2002.30706	14362.4625
2005.36288	14332.9625
2008.41672	14305.6625
2011.46859	14234.6625
2014.51848	14242.7625
2017.56639	14175.8625
2020.61233	14149.4625
2023.6563	14116.9625
2026.6983	14086.0625
2029.73833	14070.3625
2032.7764	14022.0625
2035.8125	14019.7625
2038.84664	13994.1625
2041.87881	13964.0625
2044.90903	13913.9625
2047.93729	13877.0625
2050.96359	13870.6625
2053.98794	13849.1625
2057.01034	13901.4625
2060.03078	13856.5625
2063.04927	13818.6625
2066.06582	13834.9625
2069.08042	13837.8625
2072.09307	13788.2625
2075.10378	13785.0625
2078.11255	13763.7625
2081.11938	13783.5625
2084.12426	13743.1625
2087.12722	13742.4625
2090.12824	13732.5625
2093.12732	13733.3625
2096.12447	13739.2625
2099.11969	13706.4625
2102.11299	13680.6625
2105.10435	13724.7625
2108.09379	13722.7625
2111.08131	13716.9625
2114.0669	13711.3625
2117.05057	13729.4625
2120.03233	13748.9625
2123.01216	13778.6625
2125.99008	13789.6625
2128.96609	13794.1625
2131.94018	13814.3625
2134.91236	13804.7625
2137.88263	13814.7625
2140.851	13831.9625
2143.81746	13799.9625
2146.78201	13801.6625
2149.74466	13826.0625
2152.7054	13825.3625
2155.66425	13814.4625
2158.6212	13797.9625
2161.57625	13806.9625
2164.52941	13826.3625
2167.48067	13800.0625
2170.43004	13779.1625
2173.37752	13764.1625
2176.32311	13811.3625
2179.26681	13814.7625
2182.20863	13809.8625
2185.14856	13814.3625
2188.08661	13774.7625
2191.02278	13782.5625
2193.95707	13792.5625
2196.88948	13803.5625
2199.82001	13809.4625
2202.74867	13776.4625
2205.67545	13791.5625
2208.60037	13754.0625
2211.52341	13759.3625
2214.44458	13754.8625
2217.36388	13723.1625
2220.28132	13728.8625
2223.1969	13681.8625
2226.11061	13689.7625
2229.02246	13654.1625
2231.93245	13596.9625
2234.84058	13559.8625
2237.74686	13533.6625
2240.65128	13533.6625
2243.55385	13485.5625
2246.45456	13476.2625
2249.35343	13475.5625
2252.25044	13467.7625
2255.14561	13444.7625
2258.03893	13484.7625
2260.93041	13452.1625
2263.82004	13384.9625
2266.70783	13362.5625
2269.59378	13310.1625
2272.4779	13286.3625
2275.36017	13244.1625
2278.24061	13239.9625
2281.11922	13187.9625
2283.996	13187.0625
2286.87094	13194.7625
2289.74405	13164.4625
2292.61534	13137.9625
2295.4848	13125.7625
2298.35243	13161.0625
2301.21824	13140.1625
2304.08223	13187.8625
2306.94439	13138.8625
2309.80474	13195.1625
2312.66327	13177.3625
2315.51999	13204.4625
2318.37489	13194.8625
2321.22797	13196.7625
2324.07925	13176.7625
2326.92871	13153.3625
2329.77637	13132.5625
2332.62222	13129.8625
2335.46626	13110.7625
2338.3085	13124.8625
2341.14893	13162.7625
2343.98756	13178.8625
2346.8244	13167.7625
2349.65943	13209.3625
2352.49267	13196.7625
2355.32411	13212.0625
2358.15376	13174.5625
2360.98161	13192.5625
2363.80768	13180.2625
2366.63195	13176.4625
2369.45444	13093.9625
2372.27514	13100.6625
2375.09405	13084.2625
2377.91118	13042.7625
2380.72652	12966.1625
2383.54009	12949.1625
2386.35187	12924.0625
2389.16188	12892.8625
2391.97011	12854.8625
2394.77657	12835.3625
2397.58125	12828.7625
2400.38416	12771.9625
2403.18529	12793.9625
2405.98466	12741.9625
2408.78226	12727.0625
2411.57809	12698.8625
2414.37216	12662.2625
2417.16446	12658.0625
2419.955	12606.6625
2422.74378	12641.9625
2425.5308	12636.0625
2428.31606	12620.5625
2431.09956	12621.4625
2433.88131	12623.5625
2436.6613	12597.9625
2439.43954	12610.3625
2442.21603	12638.5625
2444.99077	12609.4625
2447.76377	12567.3625
2450.53501	12585.8625
2453.30451	12585.6625
2456.07226	12578.2625
2458.83827	12589.6625
2461.60254	12580.4625
2464.36507	12566.4625
2467.12586	12546.9625
2469.88492	12546.9625
2472.64224	12559.9625
2475.39782	12600.8625
2478.15167	12612.6625
2480.90379	12604.4625
2483.65417	12642.1625
2486.40283	12647.9625
2489.14976	12667.3625
2491.89497	12666.8625
2494.63845	12707.9625
2497.3802	12688.5625
2500.12024	12696.1625
2502.85855	12662.1625
2505.59514	12647.7625
2508.33002	12641.7625
2511.06318	12614.1625
2513.79462	12586.9625
2516.52435	12552.4625
2519.25237	12520.2625
2521.97867	12528.6625
2524.70327	12527.6625
2527.42616	12499.5625
2530.14734	12508.7625
2532.86681	12490.9625
2535.58458	12532.5625
2538.30065	12487.7625
2541.01501	12480.9625
2543.72768	12498.7625
2546.43864	12505.8625
2549.14791	12472.3625
2551.85548	12486.4625
2554.56136	12462.3625
2557.26554	12437.0625
2559.96803	12415.3625
2562.66883	12402.7625
2565.36794	12402.7625
2568.06536	12391.3625
2570.7611	12363.2625
2573.45514	12369.3625
2576.14751	12347.7625
2578.83819	12337.0625
2581.52719	12347.5625
2584.21451	12351.2625
2586.90015	12342.6625
2589.58411	12351.5625
2592.2664	12347.5625
2594.94701	12340.1625
2597.62594	12307.2625
2600.30321	12323.2625
2602.9788	12334.5625
2605.65273	12317.0625
2608.32498	12326.5625
2610.99557	12331.7625
2613.66449	12333.0625
2616.33175	12338.3625
2618.99734	12354.9625
2621.66128	12335.9625
2624.32355	12340.0625
2626.98416	12343.6625
2629.64311	12315.0625
2632.30041	12331.0625
2634.95605	12313.0625
2637.61004	12301.4625
2640.26238	12253.6625
2642.91306	12241.5625
2645.56209	12234.5625
2648.20948	12228.5625
2650.85521	12209.5625
2653.4993	12226.4625
2656.14175	12224.9625
2658.78255	12206.5625
2661.42171	12206.9625
2664.05923	12272.8625
2666.6951	12279.3625
2669.32934	12301.7625
2671.96194	12283.4625
2674.59291	12310.2625
2677.22224	12314.5625
2679.84993	12314.0625
2682.476	12280.4625
2685.10043	12296.8625
2687.72324	12260.3625
2690.34441	12251.7625
2692.96396	12261.4625
2695.58188	12252.1625
2698.19818	12225.4625
2700.81285	12234.9625
2703.4259	12234.9625
2706.03733	12276.8625
2708.64714	12233.5625
2711.25533	12232.9625
2713.86191	12247.2625
2716.46687	12244.6625
2719.07021	12277.2625
2721.67194	12275.3625
2724.27206	12269.5625
2726.87057	12301.9625
2729.46747	12290.2625
2732.06276	12285.2625
2734.65644	12286.9625
2737.24852	12283.3625
2739.83899	12260.7625
2742.42786	12295.6625
2745.01513	12259.5625
2747.60079	12270.7625
2750.18486	12235.6625
2752.76733	12230.8625
2755.3482	12224.3625
2757.92747	12203.9625
2760.50515	12221.6625
2763.08123	12218.9625
2765.65573	12172.9625
2768.22863	12187.3625
2770.79994	12188.9625
2773.36967	12186.3625
2775.9378	12184.9625
2778.50435	12172.1625
2781.06932	12196.4625
2783.6327	12215.6625
2786.1945	12198.4625
2788.75471	12172.8625
2791.31335	12143.1625
2793.87041	12144.7625
2796.42589	12123.1625
2798.97979	12144.3625
2801.53212	12091.0625
2804.08288	12097.3625
2806.63206	12068.1625
2809.17967	12036.0625
2811.72571	12036.5625
2814.27018	12036.9625
2816.81308	12017.5625
2819.35442	12000.3625
2821.89419	12000.7625
2824.43239	11997.2625
2826.96904	12000.9625
2829.50412	11995.3625
2832.03763	11988.3625
2834.56959	11984.7625
2837.1	11950.7625
2839.62884	11950.7625
2842.15613	11960.3625
2844.68186	11975.0625
2847.20604	11989.9625
2849.72867	11984.4625
2852.24974	11967.5625
2854.76927	11970.7625
2857.28724	11949.3625
2859.80367	11938.6625
2862.31855	11921.5625
2864.83189	11920.4625
2867.34368	11896.8625
2869.85393	11890.4625
2872.36264	11879.9625
2874.8698	11895.9625
2877.37543	11894.9625
2879.87952	11888.8625
2882.38207	11881.6625
2884.88308	11887.2625
2887.38256	11899.5625
2889.88051	11891.4625
2892.37692	11881.0625
2894.8718	11885.1625
2897.36515	11921.4625
2899.85698	11910.9625
2902.34727	11935.7625
2904.83604	11925.2625
2907.32328	11973.5625
2909.809	11998.6625
2912.29319	11965.5625
2914.77587	11956.6625
2917.25702	11951.5625
2919.73665	11940.5625
2922.21476	11940.1625
2924.69136	11916.8625
2927.16644	11929.9625
2929.64	11897.1625
2932.11205	11854.9625
2934.58258	11824.8625
2937.05161	11840.6625
2939.51912	11804.6625
2941.98513	11795.3625
2944.44962	11775.5625
2946.91261	11734.5625
2949.37409	11784.4625
2951.83407	11743.4625
2954.29254	11750.8625
2956.74951	11705.6625
2959.20498	11731.5625
2961.65895	11708.1625
2964.11142	11708.1625
2966.56239	11694.2625
2969.01186	11652.3625
2971.45984	11650.8625
2973.90632	11632.4625
2976.35131	11596.4625
2978.7948	11602.7625
2981.23681	11534.3625
2983.67732	11557.5625
2986.11635	11515.5625
2988.55388	11473.8625
2990.98993	11462.0625
2993.4245	11448.9625
2995.85758	11399.4625
2998.28917	11390.6625
3000.71928	11357.9625
3003.14791	11347.2625
3005.57506	11343.0625
3008.00073	11269.4625
3010.42493	11179.5625
3012.84764	11240.0625
3015.26888	11237.5625
3017.68865	11190.5625
3020.10694	11192.8625
3022.52376	11169.5625
3024.9391	11180.1625
3027.35298	11133.8625
3029.76539	11161.7625
3032.17632	11118.5625
3034.5858	11133.7625
3036.9938	11108.2625
3039.40034	11123.3625
3041.80542	11117.6625
3044.20903	11090.1625
3046.61118	11096.6625
3049.01187	11048.4625
3051.4111	11026.7625
3053.80888	11000.1625
3056.20519	10968.1625
3058.60005	10947.2625
3060.99345	10942.8625
3063.3854	10904.1625
3065.7759	10855.2625
3068.16494	10861.1625
3070.55254	10806.5625
3072.93868	10795.3625
3075.32338	10766.5625
3077.70662	10714.6625
3080.08842	10702.2625
3082.46878	10691.8625
3084.84769	10659.7625
3087.22515	10664.8625
3089.60118	10668.9625
3091.97576	10658.8625
3094.3489	10650.1625
3096.72061	10654.4625
3099.09087	10645.0625
3101.4597	10645.7625
3103.82709	10637.6625
3106.19305	10612.6625
3108.55757	10596.0625
3110.92066	10575.0625
3113.28232	10571.1625
3115.64255	10534.0625
3118.00134	10510.0625
3120.35871	10510.3625
3122.71466	10494.9625
3125.06917	10476.6625
3127.42226	10463.9625
3129.77393	10450.7625
3132.12417	10423.8625
3134.47299	10422.2625
3136.82039	10421.3625
3139.16636	10431.5625
3141.51092	10413.7625
3143.85406	10428.4625
3146.19579	10420.2625
3148.53609	10409.5625
3150.87499	10417.9625
3153.21246	10403.6625
3155.54853	10446.4625
3157.88318	10443.8625
3160.21642	10445.0625
3162.54826	10444.0625
3164.87868	10451.2625
3167.2077	10466.1625
3169.5353	10460.2625
3171.86151	10456.7625
3174.18631	10438.2625
3176.5097	10421.4625
3178.83169	10416.5625
3181.15228	10401.6625
3183.47147	10375.7625
3185.78926	10385.4625
3188.10565	10363.5625
3190.42065	10373.2625
3192.73424	10369.7625
3195.04645	10357.7625
3197.35725	10361.3625
3199.66667	10349.8625
3201.97469	10354.9625
3204.28132	10351.0625
3206.58656	10374.2625
3208.8904	10375.4625
3211.19287	10367.3625
3213.49394	10371.2625
3215.79363	10384.2625
3218.09193	10416.8625
3220.38884	10381.4625
3222.68438	10399.5625
3224.97853	10368.5625
3227.2713	10374.9625
3229.56269	10368.0625
3231.8527	10357.4625
3234.14133	10332.7625
3236.42858	10333.8625
3238.71446	10318.4625
3240.99896	10267.3625
3243.28209	10280.2625
3245.56384	10251.1625
3247.84423	10286.4625
3250.12324	10246.1625
3252.40088	10232.9625
3254.67715	10228.7625
3256.95205	10201.0625
3259.22558	10225.9625
3261.49775	10218.2625
3263.76855	10220.0625
3266.03799	10186.2625
3268.30606	10178.5625
3270.57277	10152.8625
3272.83812	10116.1625
3275.10211	10116.2625
3277.36474	10092.4625
3279.62601	10063.5625
3281.88593	10058.7625
3284.14448	10069.7625
3286.40168	10050.1625
3288.65753	10061.9625
3290.91202	10064.0625
3293.16516	10068.5625
3295.41695	10016.9625
3297.66738	9934.2625
3299.91647	9945.2625
3302.16421	9845.9625
3304.4106	9808.8625
3306.65564	9778.2625
3308.89933	9678.4625
3311.14169	9602.0625
3313.38269	9535.1625
3315.62236	9491.9625
3317.86068	9413.9625
3320.09766	9314.4625
3322.3333	9257.7625
3324.5676	9196.3625
3326.80056	9075.2625
3329.03219	9041.6625
3331.26248	4.3625
3333.49143	-0.9375
3335.71905	0.5625
