Data from AgNP_FTO_APTES_UA_10uM_CRN_1000uM_R6G_10uM_NaF_0.1M_Addition_RamanShift__22__19-46-51-005.txt Node

Date: Thu Feb 10 19:46:51 GMT 2022
User: TCL
Spectrometer: QEP01345
Trigger mode: 4
Integration Time (sec): 7.000000E0
Scans to average: 10
Electric dark correction enabled: true
Nonlinearity correction enabled: false
Boxcar width: 0
XAxis mode: Raman Shifts
Number of Pixels in Spectrum: 1044
>>>>>Begin Spectral Data<<<<<
46.04893	-0.5625
50.45542	-0.5625
54.85868	-1.5625
59.25871	-0.4625
63.6555	66.8375
68.04907	66.6375
72.43941	70.9375
76.82654	71.9375
81.21044	74.1375
85.59113	73.6375
89.96862	81.2375
94.34289	86.4375
98.71396	86.6375
103.08183	90.5375
107.4465	92.4375
111.80798	92.2375
116.16626	94.7375
120.52136	98.8375
124.87327	107.7375
129.222	109.8375
133.56755	116.0375
137.90993	123.3375
142.24913	133.3375
146.58517	151.7375
150.91804	183.8375
155.24774	213.2375
159.57429	271.3375
163.89768	338.8375
168.21792	449.3375
172.53501	617.1375
176.84895	866.5375
181.15975	1215.6375
185.46741	1714.1375
189.77193	2366.8375
194.07331	3177.0375
198.37157	4090.0375
202.6667	5077.0375
206.9587	6050.4375
211.24758	6984.8375
215.53334	7917.7375
219.81599	8917.8375
224.09553	9980.6375
228.37195	11180.2375
232.64527	12495.0375
236.91549	13881.4375
241.18261	15307.0375
245.44663	16632.3375
249.70755	17815.6375
253.96539	18933.8375
258.22014	19857.9375
262.4718	20623.6375
266.72039	21172.8375
270.96589	21481.2375
275.20832	21552.6375
279.44768	21479.3375
283.68397	21265.6375
287.91719	21073.1375
292.14735	20961.5375
296.37445	20919.1375
300.59849	20921.8375
304.81948	20900.8375
309.03742	20810.5375
313.25231	20509.7375
317.46415	20110.2375
321.67296	19635.5375
325.87872	19287.3375
330.08145	19154.9375
334.28114	19173.0375
338.47781	19314.1375
342.67145	19547.4375
346.86207	19829.8375
351.04966	20176.7375
355.23424	20555.3375
359.4158	20886.3375
363.59435	21165.9375
367.76989	21382.1375
371.94243	21576.8375
376.11196	21722.1375
380.27849	21915.5375
384.44203	22053.4375
388.60257	22191.1375
392.76012	22328.1375
396.91468	22496.9375
401.06626	22748.4375
405.21485	22974.2375
409.36047	22928.7375
413.50311	22668.3375
417.64277	22512.1375
421.77947	22507.5375
425.9132	22635.0375
430.04396	22857.8375
434.17176	23032.5375
438.2966	23324.7375
442.41849	23814.1375
446.53742	24395.7375
450.6534	25106.8375
454.76644	25625.0375
458.87653	25768.8375
462.98368	25592.6375
467.08789	25308.8375
471.18916	25020.6375
475.2875	24868.7375
479.38291	24858.0375
483.4754	24816.5375
487.56496	24621.7375
491.6516	24219.3375
495.73531	23763.2375
499.81612	23461.7375
503.89401	23399.6375
507.96899	23401.4375
512.04106	23346.5375
516.11023	23223.7375
520.1765	23076.7375
524.23987	22980.1375
528.30034	22886.5375
532.35792	22731.1375
536.41261	22568.2375
540.46441	22418.5375
544.51333	22429.2375
548.55936	22600.4375
552.60252	22982.3375
556.64279	23471.0375
560.6802	23892.6375
564.71473	24187.2375
568.7464	24618.0375
572.7752	25129.2375
576.80114	25339.5375
580.82422	25329.4375
584.84444	25351.6375
588.86181	25628.0375
592.87633	26082.7375
596.888	26272.4375
600.89682	25954.2375
604.9028	26135.9375
608.90594	27568.7375
612.90624	29336.8375
616.90371	28128.4375
620.89834	24582.8375
624.89015	22911.6375
628.87913	22659.1375
632.86528	22730.5375
636.84862	22842.3375
640.82913	22633.1375
644.80683	22270.0375
648.78172	21953.2375
652.75379	21879.5375
656.72306	22001.4375
660.68952	22275.5375
664.65319	22237.2375
668.61405	21962.7375
672.57211	21897.4375
676.52738	21967.5375
680.47986	22015.9375
684.42955	21987.3375
688.37646	21911.0375
692.32058	21975.9375
696.26192	22058.6375
700.20048	22284.5375
704.13626	22413.1375
708.06928	22347.5375
711.99952	22276.9375
715.927	22206.8375
719.85171	22163.8375
723.77365	22210.3375
727.69284	22081.7375
731.60928	21947.7375
735.52295	21903.7375
739.43388	21876.4375
743.34206	21956.6375
747.24749	22028.0375
751.15017	22154.0375
755.05012	22339.0375
758.94733	22815.7375
762.8418	23586.0375
766.73354	24808.6375
770.62254	26034.9375
774.50882	26358.3375
778.39237	25594.2375
782.27321	24076.6375
786.15132	22835.2375
790.02671	22079.0375
793.89938	21717.2375
797.76935	21620.1375
801.6366	21583.8375
805.50115	21585.3375
809.36299	21493.7375
813.22213	21414.7375
817.07857	21395.4375
820.93231	21421.9375
824.78336	21316.6375
828.63172	21245.7375
832.47738	21202.7375
836.32036	21155.1375
840.16066	21188.8375
843.99827	21182.3375
847.8332	21126.6375
851.66546	21152.9375
855.49504	21117.4375
859.32195	21192.5375
863.1462	21142.0375
866.96777	21102.4375
870.78668	21093.9375
874.60293	21099.0375
878.41652	21066.3375
882.22745	21082.0375
886.03573	21131.2375
889.84136	21127.9375
893.64433	21094.1375
897.44466	21015.1375
901.24235	20926.2375
905.0374	20838.2375
908.8298	20785.6375
912.61957	20759.4375
916.40671	20854.5375
920.19121	20974.6375
923.97308	21121.1375
927.75233	21121.1375
931.52895	21043.8375
935.30295	20861.2375
939.07433	20646.4375
942.84309	20443.7375
946.60924	20265.9375
950.37278	20192.7375
954.13371	20196.6375
957.89203	20113.2375
961.64774	20099.6375
965.40086	20038.5375
969.15137	19958.0375
972.89929	19856.7375
976.64461	19815.8375
980.38733	19743.4375
984.12747	19772.7375
987.86502	19874.6375
991.59999	20045.8375
995.33237	20230.8375
999.06217	20602.2375
1002.78939	21001.6375
1006.51404	21264.7375
1010.23611	21434.9375
1013.95561	21584.6375
1017.67255	21620.8375
1021.38692	21436.6375
1025.09872	21176.7375
1028.80796	21071.9375
1032.51465	21196.3375
1036.21877	21372.4375
1039.92035	21397.6375
1043.61937	21310.2375
1047.31584	21103.1375
1051.00976	20944.5375
1054.70114	20899.5375
1058.38998	20897.4375
1062.07627	20985.7375
1065.76003	21088.1375
1069.44126	21160.8375
1073.11995	21244.4375
1076.79611	21372.8375
1080.46974	21447.4375
1084.14085	21576.0375
1087.80943	21772.4375
1091.47549	21949.4375
1095.13903	21959.5375
1098.80005	21782.3375
1102.45857	21526.5375
1106.11456	21355.9375
1109.76805	21311.3375
1113.41903	21423.7375
1117.06751	21591.6375
1120.71348	21807.7375
1124.35696	21998.1375
1127.99793	22208.9375
1131.63641	22357.5375
1135.2724	22241.7375
1138.90589	22024.4375
1142.5369	21939.4375
1146.16542	21958.1375
1149.79145	22071.7375
1153.415	22182.6375
1157.03607	22444.9375
1160.65467	22920.0375
1164.27079	23667.0375
1167.88443	24645.8375
1171.49561	25771.3375
1175.10432	27288.9375
1178.71056	29214.5375
1182.31434	30981.8375
1185.91565	31917.4375
1189.51451	31890.2375
1193.11091	31243.9375
1196.70485	30405.5375
1200.29634	29533.4375
1203.88538	28793.4375
1207.47197	28236.3375
1211.05612	27682.8375
1214.63782	27199.4375
1218.21708	26875.4375
1221.79391	26614.5375
1225.36829	26365.5375
1228.94024	25940.8375
1232.50976	25359.3375
1236.07685	24978.6375
1239.6415	24834.0375
1243.20374	24873.3375
1246.76355	25014.8375
1250.32093	25256.7375
1253.8759	25610.9375
1257.42845	26156.2375
1260.97859	26680.1375
1264.52631	27180.4375
1268.07163	27742.3375
1271.61453	28264.1375
1275.15503	28907.7375
1278.69312	29443.0375
1282.22882	29994.1375
1285.76211	30599.5375
1289.29301	31426.1375
1292.82151	32547.8375
1296.34761	34084.6375
1299.87133	35840.0375
1303.39266	37744.2375
1306.9116	39722.2375
1310.42815	41596.6375
1313.94233	43027.3375
1317.45412	43275.3375
1320.96354	42744.5375
1324.47058	42123.0375
1327.97525	41495.4375
1331.47754	41070.9375
1334.97747	41013.6375
1338.47502	41276.0375
1341.97022	41274.3375
1345.46305	40748.3375
1348.95352	39942.7375
1352.44163	39250.3375
1355.92738	39166.4375
1359.41078	39870.5375
1362.89183	40790.4375
1366.37053	40066.4375
1369.84688	37378.6375
1373.32088	33935.7375
1376.79254	31633.7375
1380.26186	30809.5375
1383.72883	30879.1375
1387.19347	31154.3375
1390.65578	31277.5375
1394.11575	31614.8375
1397.57339	32278.7375
1401.0287	33140.2375
1404.48168	33989.4375
1407.93234	34390.2375
1411.38068	34164.8375
1414.82669	33263.8375
1418.27039	31876.5375
1421.71177	30317.7375
1425.15083	28937.8375
1428.58758	28143.2375
1432.02203	28038.8375
1435.45416	28455.5375
1438.88399	29107.7375
1442.31151	29774.6375
1445.73673	30389.8375
1449.15965	30973.8375
1452.58027	31492.4375
1455.9986	31693.8375
1459.41463	31914.9375
1462.82837	32203.0375
1466.23982	32670.0375
1469.64898	33043.1375
1473.05586	33199.5375
1476.46045	33054.7375
1479.86276	32741.0375
1483.26279	32275.0375
1486.66054	31889.9375
1490.05602	31721.3375
1493.44922	31538.9375
1496.84016	31325.7375
1500.22882	31246.9375
1503.61521	31526.4375
1506.99934	32265.3375
1510.38121	33059.0375
1513.76081	33404.1375
1517.13816	32967.4375
1520.51324	31885.6375
1523.88607	30912.1375
1527.25665	30358.1375
1530.62498	30345.3375
1533.99105	30481.0375
1537.35488	30535.9375
1540.71647	30470.3375
1544.07581	30170.3375
1547.4329	29777.5375
1550.78776	29332.0375
1554.14038	28960.3375
1557.49077	28772.9375
1560.83892	28668.7375
1564.18484	28575.8375
1567.52853	28552.5375
1570.86999	28677.4375
1574.20922	29062.6375
1577.54624	29433.1375
1580.88103	29605.5375
1584.2136	29927.1375
1587.54395	30640.0375
1590.87208	31948.8375
1594.19801	33618.9375
1597.52172	35360.9375
1600.84321	36079.7375
1604.16251	35103.8375
1607.47959	32843.0375
1610.79447	30242.0375
1614.10715	27676.8375
1617.41763	25628.0375
1620.7259	24234.6375
1624.03199	23424.5375
1627.33587	23295.9375
1630.63757	23731.3375
1633.93707	24909.4375
1637.23439	26838.3375
1640.52951	29546.4375
1643.82246	32653.6375
1647.11321	35138.7375
1650.40179	35703.7375
1653.68819	33765.8375
1656.97241	30060.8375
1660.25446	26219.3375
1663.53433	23404.9375
1666.81203	21477.8375
1670.08756	20274.2375
1673.36092	19549.2375
1676.63211	19047.7375
1679.90115	18688.8375
1683.16801	18437.6375
1686.43272	18210.7375
1689.69527	18076.0375
1692.95567	17967.5375
1696.2139	17885.8375
1699.46999	17809.7375
1702.72392	17781.7375
1705.97571	17679.9375
1709.22535	17642.4375
1712.47284	17604.0375
1715.71819	17568.6375
1718.96139	17548.7375
1722.20246	17487.6375
1725.44139	17381.5375
1728.67818	17319.3375
1731.91284	17236.7375
1735.14537	17150.6375
1738.37576	17089.4375
1741.60403	17043.7375
1744.83017	17009.1375
1748.05418	16966.0375
1751.27607	16976.3375
1754.49584	16937.2375
1757.71349	16925.5375
1760.92903	16913.3375
1764.14244	16849.6375
1767.35375	16816.1375
1770.56294	16821.0375
1773.77002	16801.0375
1776.97499	16767.8375
1780.17785	16718.0375
1783.37861	16661.5375
1786.57727	16635.3375
1789.77382	16559.6375
1792.96828	16577.3375
1796.16064	16544.2375
1799.3509	16529.6375
1802.53907	16473.5375
1805.72514	16434.2375
1808.90913	16392.8375
1812.09102	16348.9375
1815.27083	16318.7375
1818.44856	16282.3375
1821.6242	16245.6375
1824.79776	16223.0375
1827.96924	16232.6375
1831.13864	16188.8375
1834.30597	16164.6375
1837.47122	16146.6375
1840.6344	16134.1375
1843.7955	16119.1375
1846.95454	16105.2375
1850.11151	16098.5375
1853.26642	16090.5375
1856.41926	16103.5375
1859.57004	16099.9375
1862.71876	16065.0375
1865.86542	16051.9375
1869.01003	16038.5375
1872.15258	16037.8375
1875.29308	16040.3375
1878.43152	15998.5375
1881.56792	15979.5375
1884.70227	16029.6375
1887.83457	15984.9375
1890.96482	15927.1375
1894.09304	15879.9375
1897.21921	15905.3375
1900.34335	15884.9375
1903.46544	15888.9375
1906.58551	15864.1375
1909.70353	15867.0375
1912.81953	15816.1375
1915.93349	15827.4375
1919.04543	15770.8375
1922.15534	15748.2375
1925.26322	15694.5375
1928.36908	15635.8375
1931.47292	15651.8375
1934.57473	15600.0375
1937.67453	15582.0375
1940.77232	15499.9375
1943.86808	15497.8375
1946.96184	15448.3375
1950.05358	15390.5375
1953.14331	15361.4375
1956.23103	15303.6375
1959.31675	15238.2375
1962.40046	15221.4375
1965.48217	15163.7375
1968.56188	15130.4375
1971.63959	15046.6375
1974.7153	15030.8375
1977.78901	14974.2375
1980.86073	14926.1375
1983.93046	14875.0375
1986.99819	14818.0375
1990.06394	14788.2375
1993.1277	14761.5375
1996.18947	14688.1375
1999.24925	14662.4375
2002.30706	14591.3375
2005.36288	14556.6375
2008.41672	14552.8375
2011.46859	14497.1375
2014.51848	14480.3375
2017.56639	14414.0375
2020.61233	14402.4375
2023.6563	14361.2375
2026.6983	14333.1375
2029.73833	14296.5375
2032.7764	14234.3375
2035.8125	14228.5375
2038.84664	14192.1375
2041.87881	14138.2375
2044.90903	14122.6375
2047.93729	14101.6375
2050.96359	14104.1375
2053.98794	14052.6375
2057.01034	14071.0375
2060.03078	14033.0375
2063.04927	14019.5375
2066.06582	14027.9375
2069.08042	14033.7375
2072.09307	14042.2375
2075.10378	14010.7375
2078.11255	13991.3375
2081.11938	13993.7375
2084.12426	13949.3375
2087.12722	13963.7375
2090.12824	13916.9375
2093.12732	13903.8375
2096.12447	13924.3375
2099.11969	13893.9375
2102.11299	13889.9375
2105.10435	13923.7375
2108.09379	13914.2375
2111.08131	13924.9375
2114.0669	13880.3375
2117.05057	13919.5375
2120.03233	13933.2375
2123.01216	13936.2375
2125.99008	13949.7375
2128.96609	13943.4375
2131.94018	13973.1375
2134.91236	13977.7375
2137.88263	13961.1375
2140.851	13987.1375
2143.81746	14006.0375
2146.78201	13996.4375
2149.74466	13992.3375
2152.7054	14000.5375
2155.66425	13989.8375
2158.6212	13982.8375
2161.57625	13971.2375
2164.52941	13948.0375
2167.48067	13927.9375
2170.43004	13963.9375
2173.37752	13961.1375
2176.32311	13949.0375
2179.26681	13947.2375
2182.20863	13923.3375
2185.14856	13905.4375
2188.08661	13908.9375
2191.02278	13936.5375
2193.95707	13929.0375
2196.88948	13935.0375
2199.82001	13924.6375
2202.74867	13854.4375
2205.67545	13855.5375
2208.60037	13838.8375
2211.52341	13831.2375
2214.44458	13844.3375
2217.36388	13799.2375
2220.28132	13749.7375
2223.1969	13697.4375
2226.11061	13703.8375
2229.02246	13665.6375
2231.93245	13628.4375
2234.84058	13631.2375
2237.74686	13603.5375
2240.65128	13561.5375
2243.55385	13534.6375
2246.45456	13494.0375
2249.35343	13498.7375
2252.25044	13464.8375
2255.14561	13453.4375
2258.03893	13440.3375
2260.93041	13406.5375
2263.82004	13376.4375
2266.70783	13355.4375
2269.59378	13298.3375
2272.4779	13249.9375
2275.36017	13195.6375
2278.24061	13197.0375
2281.11922	13155.3375
2283.996	13188.4375
2286.87094	13149.6375
2289.74405	13131.3375
2292.61534	13139.9375
2295.4848	13100.0375
2298.35243	13115.2375
2301.21824	13087.5375
2304.08223	13081.6375
2306.94439	13058.1375
2309.80474	13098.7375
2312.66327	13066.6375
2315.51999	13038.6375
2318.37489	13045.7375
2321.22797	13029.9375
2324.07925	13000.5375
2326.92871	12987.7375
2329.77637	12962.8375
2332.62222	12926.7375
2335.46626	12903.6375
2338.3085	12881.4375
2341.14893	12880.8375
2343.98756	12892.2375
2346.8244	12892.2375
2349.65943	12879.0375
2352.49267	12855.2375
2355.32411	12865.8375
2358.15376	12840.8375
2360.98161	12846.6375
2363.80768	12838.5375
2366.63195	12844.3375
2369.45444	12835.5375
2372.27514	12794.9375
2375.09405	12758.0375
2377.91118	12757.1375
2380.72652	12728.2375
2383.54009	12657.4375
2386.35187	12648.3375
2389.16188	12612.1375
2391.97011	12607.2375
2394.77657	12570.5375
2397.58125	12548.2375
2400.38416	12564.9375
2403.18529	12543.7375
2405.98466	12501.6375
2408.78226	12491.3375
2411.57809	12433.2375
2414.37216	12470.6375
2417.16446	12400.6375
2419.955	12394.5375
2422.74378	12379.5375
2425.5308	12350.2375
2428.31606	12364.1375
2431.09956	12383.2375
2433.88131	12339.9375
2436.6613	12347.7375
2439.43954	12331.6375
2442.21603	12296.4375
2444.99077	12292.9375
2447.76377	12296.9375
2450.53501	12305.9375
2453.30451	12283.5375
2456.07226	12267.0375
2458.83827	12261.6375
2461.60254	12256.6375
2464.36507	12239.5375
2467.12586	12211.0375
2469.88492	12196.8375
2472.64224	12208.2375
2475.39782	12221.7375
2478.15167	12231.5375
2480.90379	12213.1375
2483.65417	12238.8375
2486.40283	12238.5375
2489.14976	12229.6375
2491.89497	12229.9375
2494.63845	12227.1375
2497.3802	12212.4375
2500.12024	12195.4375
2502.85855	12198.0375
2505.59514	12191.4375
2508.33002	12169.1375
2511.06318	12158.0375
2513.79462	12140.9375
2516.52435	12096.3375
2519.25237	12089.1375
2521.97867	12067.8375
2524.70327	12105.0375
2527.42616	12083.1375
2530.14734	12078.5375
2532.86681	12056.1375
2535.58458	12070.4375
2538.30065	12072.4375
2541.01501	12055.0375
2543.72768	12025.8375
2546.43864	12026.8375
2549.14791	11998.1375
2551.85548	11977.2375
2554.56136	11935.0375
2557.26554	11928.2375
2559.96803	11882.9375
2562.66883	11880.1375
2565.36794	11826.4375
2568.06536	11851.2375
2570.7611	11812.9375
2573.45514	11789.1375
2576.14751	11791.4375
2578.83819	11759.0375
2581.52719	11791.8375
2584.21451	11774.1375
2586.90015	11747.4375
2589.58411	11730.3375
2592.2664	11725.5375
2594.94701	11719.9375
2597.62594	11730.6375
2600.30321	11706.7375
2602.9788	11675.0375
2605.65273	11673.4375
2608.32498	11660.3375
2610.99557	11658.6375
2613.66449	11672.6375
2616.33175	11672.3375
2618.99734	11684.6375
2621.66128	11655.5375
2624.32355	11621.2375
2626.98416	11613.9375
2629.64311	11617.1375
2632.30041	11608.0375
2634.95605	11597.0375
2637.61004	11562.6375
2640.26238	11565.8375
2642.91306	11563.4375
2645.56209	11553.9375
2648.20948	11566.9375
2650.85521	11553.9375
2653.4993	11531.1375
2656.14175	11546.6375
2658.78255	11562.7375
2661.42171	11544.4375
2664.05923	11565.0375
2666.6951	11556.1375
2669.32934	11574.0375
2671.96194	11561.5375
2674.59291	11557.1375
2677.22224	11543.1375
2679.84993	11573.2375
2682.476	11555.8375
2685.10043	11512.9375
2687.72324	11479.2375
2690.34441	11527.7375
2692.96396	11515.8375
2695.58188	11495.1375
2698.19818	11481.5375
2700.81285	11513.9375
2703.4259	11503.4375
2706.03733	11550.5375
2708.64714	11499.0375
2711.25533	11521.1375
2713.86191	11507.5375
2716.46687	11527.6375
2719.07021	11553.0375
2721.67194	11548.1375
2724.27206	11538.8375
2726.87057	11524.8375
2729.46747	11559.2375
2732.06276	11571.0375
2734.65644	11563.3375
2737.24852	11557.7375
2739.83899	11537.3375
2742.42786	11545.1375
2745.01513	11503.7375
2747.60079	11490.4375
2750.18486	11480.4375
2752.76733	11481.2375
2755.3482	11467.3375
2757.92747	11475.7375
2760.50515	11438.5375
2763.08123	11444.7375
2765.65573	11453.9375
2768.22863	11452.2375
2770.79994	11419.9375
2773.36967	11411.6375
2775.9378	11411.5375
2778.50435	11393.7375
2781.06932	11419.2375
2783.6327	11394.6375
2786.1945	11416.5375
2788.75471	11385.0375
2791.31335	11379.2375
2793.87041	11373.4375
2796.42589	11336.6375
2798.97979	11332.6375
2801.53212	11313.5375
2804.08288	11290.3375
2806.63206	11251.7375
2809.17967	11220.5375
2811.72571	11208.7375
2814.27018	11199.4375
2816.81308	11185.6375
2819.35442	11143.6375
2821.89419	11115.9375
2824.43239	11099.4375
2826.96904	11120.0375
2829.50412	11102.4375
2832.03763	11082.3375
2834.56959	11061.4375
2837.1	11063.8375
2839.62884	11041.6375
2842.15613	11058.9375
2844.68186	11094.6375
2847.20604	11102.6375
2849.72867	11113.8375
2852.24974	11088.2375
2854.76927	11079.1375
2857.28724	11055.8375
2859.80367	11026.7375
2862.31855	11005.5375
2864.83189	11007.6375
2867.34368	10978.9375
2869.85393	10979.1375
2872.36264	10962.5375
2874.8698	10953.5375
2877.37543	10957.5375
2879.87952	10956.4375
2882.38207	10968.4375
2884.88308	10955.5375
2887.38256	10941.3375
2889.88051	10945.1375
2892.37692	10959.4375
2894.8718	10971.3375
2897.36515	10994.4375
2899.85698	10991.5375
2902.34727	11017.0375
2904.83604	11036.0375
2907.32328	11041.6375
2909.809	11030.4375
2912.29319	11040.4375
2914.77587	11023.2375
2917.25702	11004.3375
2919.73665	11022.7375
2922.21476	11007.5375
2924.69136	11003.6375
2927.16644	11004.5375
2929.64	10965.4375
2932.11205	11000.9375
2934.58258	10955.1375
2937.05161	10961.8375
2939.51912	10956.0375
2941.98513	10948.5375
2944.44962	10907.1375
2946.91261	10887.2375
2949.37409	10888.9375
2951.83407	10892.6375
2954.29254	10852.8375
2956.74951	10832.7375
2959.20498	10821.6375
2961.65895	10828.6375
2964.11142	10834.1375
2966.56239	10794.4375
2969.01186	10820.4375
2971.45984	10763.5375
2973.90632	10743.8375
2976.35131	10714.6375
2978.7948	10696.5375
2981.23681	10646.7375
2983.67732	10602.8375
2986.11635	10591.8375
2988.55388	10601.8375
2990.98993	10545.4375
2993.4245	10487.5375
2995.85758	10497.4375
2998.28917	10454.3375
3000.71928	10432.6375
3003.14791	10426.9375
3005.57506	10411.1375
3008.00073	10371.1375
3010.42493	10376.5375
3012.84764	10319.0375
3015.26888	10320.1375
3017.68865	10287.2375
3020.10694	10289.9375
3022.52376	10267.3375
3024.9391	10249.1375
3027.35298	10250.8375
3029.76539	10222.7375
3032.17632	10224.3375
3034.5858	10213.0375
3036.9938	10231.6375
3039.40034	10213.4375
3041.80542	10215.9375
3044.20903	10198.0375
3046.61118	10188.3375
3049.01187	10175.7375
3051.4111	10151.3375
3053.80888	10128.9375
3056.20519	10095.9375
3058.60005	10081.0375
3060.99345	10053.7375
3063.3854	10013.6375
3065.7759	9986.9375
3068.16494	9967.2375
3070.55254	9978.4375
3072.93868	9919.2375
3075.32338	9898.6375
3077.70662	9878.5375
3080.08842	9861.3375
3082.46878	9838.4375
3084.84769	9834.5375
3087.22515	9812.0375
3089.60118	9828.9375
3091.97576	9817.8375
3094.3489	9820.2375
3096.72061	9819.6375
3099.09087	9810.2375
3101.4597	9792.4375
3103.82709	9797.8375
3106.19305	9755.4375
3108.55757	9788.8375
3110.92066	9744.9375
3113.28232	9752.4375
3115.64255	9712.8375
3118.00134	9692.3375
3120.35871	9693.7375
3122.71466	9659.5375
3125.06917	9635.1375
3127.42226	9622.9375
3129.77393	9588.5375
3132.12417	9602.5375
3134.47299	9601.0375
3136.82039	9599.7375
3139.16636	9583.2375
3141.51092	9564.3375
3143.85406	9574.7375
3146.19579	9582.0375
3148.53609	9572.0375
3150.87499	9573.9375
3153.21246	9576.0375
3155.54853	9577.2375
3157.88318	9571.7375
3160.21642	9552.3375
3162.54826	9548.2375
3164.87868	9571.4375
3167.2077	9548.1375
3169.5353	9563.9375
3171.86151	9569.7375
3174.18631	9570.8375
3176.5097	9555.3375
3178.83169	9563.1375
3181.15228	9547.5375
3183.47147	9540.8375
3185.78926	9532.7375
3188.10565	9524.6375
3190.42065	9526.8375
3192.73424	9503.6375
3195.04645	9511.2375
3197.35725	9502.8375
3199.66667	9480.2375
3201.97469	9490.0375
3204.28132	9510.2375
3206.58656	9487.4375
3208.8904	9498.1375
3211.19287	9468.5375
3213.49394	9501.0375
3215.79363	9493.5375
3218.09193	9511.2375
3220.38884	9494.3375
3222.68438	9504.0375
3224.97853	9477.7375
3227.2713	9470.3375
3229.56269	9481.1375
3231.8527	9445.1375
3234.14133	9456.0375
3236.42858	9416.0375
3238.71446	9430.1375
3240.99896	9394.5375
3243.28209	9373.4375
3245.56384	9357.7375
3247.84423	9352.3375
3250.12324	9350.6375
3252.40088	9344.6375
3254.67715	9347.0375
3256.95205	9292.0375
3259.22558	9325.4375
3261.49775	9302.7375
3263.76855	9293.0375
3266.03799	9267.2375
3268.30606	9271.8375
3270.57277	9232.9375
3272.83812	9214.1375
3275.10211	9185.0375
3277.36474	9175.6375
3279.62601	9165.3375
3281.88593	9155.4375
3284.14448	9145.0375
3286.40168	9166.6375
3288.65753	9165.0375
3290.91202	9160.2375
3293.16516	9129.7375
3295.41695	9100.5375
3297.66738	9079.9375
3299.91647	9019.5375
3302.16421	8953.0375
3304.4106	8909.9375
3306.65564	8849.4375
3308.89933	8773.5375
3311.14169	8718.2375
3313.38269	8654.2375
3315.62236	8593.2375
3317.86068	8496.3375
3320.09766	8460.7375
3322.3333	8394.2375
3324.5676	8346.9375
3326.80056	8236.9375
3329.03219	8173.6375
3331.26248	2.1375
3333.49143	-0.4625
3335.71905	0.5375
