Data from AgNP_FTO_APTES_UA_10uM_CRN_100uM_R6G_10uM_NaF_0.1M_Addition_RamanShift__23__17-51-20-864.txt Node

Date: Thu Feb 10 17:51:20 GMT 2022
User: TCL
Spectrometer: QEP01345
Trigger mode: 4
Integration Time (sec): 7.000000E0
Scans to average: 10
Electric dark correction enabled: true
Nonlinearity correction enabled: false
Boxcar width: 0
XAxis mode: Raman Shifts
Number of Pixels in Spectrum: 1044
>>>>>Begin Spectral Data<<<<<
46.04893	0.0375
50.45542	-0.5625
54.85868	-1.2625
59.25871	-0.9625
63.6555	69.1375
68.04907	71.5375
72.43941	74.5375
76.82654	74.7375
81.21044	79.3375
85.59113	80.4375
89.96862	87.0375
94.34289	87.0375
98.71396	92.0375
103.08183	98.0375
107.4465	97.6375
111.80798	95.7375
116.16626	100.6375
120.52136	108.6375
124.87327	108.6375
129.222	113.4375
133.56755	121.3375
137.90993	124.9375
142.24913	137.7375
146.58517	151.1375
150.91804	184.0375
155.24774	213.5375
159.57429	268.9375
163.89768	341.0375
168.21792	451.7375
172.53501	613.1375
176.84895	861.0375
181.15975	1211.7375
185.46741	1695.5375
189.77193	2353.0375
194.07331	3141.4375
198.37157	4062.3375
202.6667	5028.5375
206.9587	5985.4375
211.24758	6922.8375
215.53334	7867.1375
219.81599	8891.2375
224.09553	10002.2375
228.37195	11242.8375
232.64527	12606.7375
236.91549	14066.6375
241.18261	15441.6375
245.44663	16811.7375
249.70755	17987.4375
253.96539	19001.8375
258.22014	19912.6375
262.4718	20691.0375
266.72039	21293.3375
270.96589	21654.9375
275.20832	21712.9375
279.44768	21622.1375
283.68397	21443.9375
287.91719	21238.7375
292.14735	21152.4375
296.37445	21206.9375
300.59849	21497.2375
304.81948	21761.1375
309.03742	21812.1375
313.25231	21535.3375
317.46415	20929.0375
321.67296	20076.0375
325.87872	19420.7375
330.08145	19170.6375
334.28114	19198.5375
338.47781	19421.0375
342.67145	19746.3375
346.86207	20243.5375
351.04966	20881.1375
355.23424	21573.1375
359.4158	22148.6375
363.59435	22489.4375
367.76989	22716.9375
371.94243	22823.7375
376.11196	22964.3375
380.27849	23050.5375
384.44203	23088.5375
388.60257	23073.3375
392.76012	23091.1375
396.91468	23330.2375
401.06626	23703.3375
405.21485	24018.2375
409.36047	23935.8375
413.50311	23380.4375
417.64277	22821.1375
421.77947	22629.5375
425.9132	22586.8375
430.04396	22679.6375
434.17176	22833.9375
438.2966	23086.1375
442.41849	23510.6375
446.53742	24005.8375
450.6534	24592.4375
454.76644	25044.1375
458.87653	25213.5375
462.98368	25159.3375
467.08789	24899.4375
471.18916	24591.9375
475.2875	24301.3375
479.38291	24101.4375
483.4754	23881.2375
487.56496	23606.5375
491.6516	23300.7375
495.73531	23081.6375
499.81612	22975.8375
503.89401	23109.1375
507.96899	23204.5375
512.04106	23298.1375
516.11023	23438.0375
520.1765	23516.5375
524.23987	23464.4375
528.30034	23252.2375
532.35792	23021.1375
536.41261	22832.3375
540.46441	22642.8375
544.51333	22615.2375
548.55936	22752.4375
552.60252	23127.4375
556.64279	23463.8375
560.6802	23654.8375
564.71473	23791.8375
568.7464	24164.1375
572.7752	24565.6375
576.80114	24455.9375
580.82422	24174.2375
584.84444	24093.2375
588.86181	24104.0375
592.87633	24339.4375
596.888	24516.2375
600.89682	24955.5375
604.9028	26227.4375
608.90594	29669.7375
612.90624	34062.1375
616.90371	32800.9375
620.89834	26769.4375
624.89015	24104.5375
628.87913	23683.7375
632.86528	23626.3375
636.84862	23645.4375
640.82913	23368.5375
644.80683	22867.7375
648.78172	22466.5375
652.75379	22450.4375
656.72306	22819.0375
660.68952	23382.3375
664.65319	23303.5375
668.61405	22838.7375
672.57211	22621.1375
676.52738	22620.7375
680.47986	22669.6375
684.42955	22622.1375
688.37646	22585.8375
692.32058	22650.7375
696.26192	22804.8375
700.20048	23023.2375
704.13626	23115.9375
708.06928	23036.3375
711.99952	22887.0375
715.927	22844.4375
719.85171	22863.5375
723.77365	22841.4375
727.69284	22742.0375
731.60928	22641.7375
735.52295	22599.2375
739.43388	22633.2375
743.34206	22742.5375
747.24749	22815.8375
751.15017	22961.8375
755.05012	23237.1375
758.94733	23879.1375
762.8418	24972.5375
766.73354	27012.6375
770.62254	29074.3375
774.50882	30047.6375
778.39237	29038.0375
782.27321	26668.0375
786.15132	24607.4375
790.02671	23430.9375
793.89938	22933.0375
797.76935	22733.0375
801.6366	22636.6375
805.50115	22554.5375
809.36299	22498.5375
813.22213	22409.7375
817.07857	22410.3375
820.93231	22402.8375
824.78336	22407.3375
828.63172	22496.2375
832.47738	22530.5375
836.32036	22519.6375
840.16066	22557.9375
843.99827	22546.4375
847.8332	22516.5375
851.66546	22474.1375
855.49504	22452.1375
859.32195	22428.7375
863.1462	22408.3375
866.96777	22297.2375
870.78668	22270.9375
874.60293	22328.5375
878.41652	22325.8375
882.22745	22382.2375
886.03573	22431.1375
889.84136	22392.6375
893.64433	22315.7375
897.44466	22281.0375
901.24235	22249.4375
905.0374	22263.4375
908.8298	22187.1375
912.61957	22210.6375
916.40671	22340.1375
920.19121	22484.4375
923.97308	22614.2375
927.75233	22718.6375
931.52895	22755.2375
935.30295	22610.7375
939.07433	22322.0375
942.84309	22007.4375
946.60924	21874.3375
950.37278	21756.8375
954.13371	21671.8375
957.89203	21556.4375
961.64774	21503.1375
965.40086	21459.9375
969.15137	21397.7375
972.89929	21293.4375
976.64461	21318.3375
980.38733	21344.8375
984.12747	21378.3375
987.86502	21556.2375
991.59999	21713.3375
995.33237	22027.7375
999.06217	22496.1375
1002.78939	23030.4375
1006.51404	23313.4375
1010.23611	23510.7375
1013.95561	23694.1375
1017.67255	23769.6375
1021.38692	23622.6375
1025.09872	23498.3375
1028.80796	23643.9375
1032.51465	24097.7375
1036.21877	24553.4375
1039.92035	24605.7375
1043.61937	24298.5375
1047.31584	23859.9375
1051.00976	23400.7375
1054.70114	23132.0375
1058.38998	23099.5375
1062.07627	23147.8375
1065.76003	23256.8375
1069.44126	23238.9375
1073.11995	23310.8375
1076.79611	23467.0375
1080.46974	23595.9375
1084.14085	23811.7375
1087.80943	24088.6375
1091.47549	24197.0375
1095.13903	24019.1375
1098.80005	23673.2375
1102.45857	23386.1375
1106.11456	23266.8375
1109.76805	23346.2375
1113.41903	23541.2375
1117.06751	23870.7375
1120.71348	24274.1375
1124.35696	24609.4375
1127.99793	24947.8375
1131.63641	24964.4375
1135.2724	24509.6375
1138.90589	24056.4375
1142.5369	23775.0375
1146.16542	23575.6375
1149.79145	23471.0375
1153.415	23544.5375
1157.03607	23697.3375
1160.65467	24008.2375
1164.27079	24594.1375
1167.88443	25439.4375
1171.49561	26627.5375
1175.10432	28353.8375
1178.71056	30742.4375
1182.31434	32773.2375
1185.91565	33749.6375
1189.51451	33532.8375
1193.11091	32469.4375
1196.70485	30906.6375
1200.29634	29666.8375
1203.88538	28750.0375
1207.47197	27815.0375
1211.05612	27030.0375
1214.63782	26558.1375
1218.21708	26391.4375
1221.79391	26360.2375
1225.36829	26361.8375
1228.94024	26272.5375
1232.50976	26086.9375
1236.07685	25958.2375
1239.6415	25994.0375
1243.20374	26150.0375
1246.76355	26355.3375
1250.32093	26655.4375
1253.8759	27189.0375
1257.42845	27763.1375
1260.97859	28297.3375
1264.52631	28726.7375
1268.07163	29147.5375
1271.61453	29695.1375
1275.15503	30239.0375
1278.69312	30684.7375
1282.22882	31049.0375
1285.76211	31416.6375
1289.29301	31894.1375
1292.82151	32546.2375
1296.34761	33392.8375
1299.87133	34631.4375
1303.39266	36446.6375
1306.9116	38946.3375
1310.42815	41700.9375
1313.94233	43421.8375
1317.45412	43185.5375
1320.96354	41767.6375
1324.47058	40054.7375
1327.97525	38587.2375
1331.47754	37681.5375
1334.97747	37540.5375
1338.47502	37996.9375
1341.97022	38661.8375
1345.46305	39105.9375
1348.95352	39340.5375
1352.44163	39620.6375
1355.92738	40805.7375
1359.41078	43533.1375
1362.89183	46217.4375
1366.37053	45341.2375
1369.84688	40643.1375
1373.32088	35988.0375
1376.79254	32946.2375
1380.26186	31574.0375
1383.72883	31023.4375
1387.19347	30668.0375
1390.65578	30366.0375
1394.11575	30172.8375
1397.57339	30286.8375
1401.0287	30639.9375
1404.48168	31120.7375
1407.93234	31560.9375
1411.38068	31828.3375
1414.82669	31652.6375
1418.27039	30980.1375
1421.71177	30187.2375
1425.15083	29407.6375
1428.58758	28915.2375
1432.02203	28832.4375
1435.45416	29014.3375
1438.88399	29209.5375
1442.31151	29393.7375
1445.73673	29650.0375
1449.15965	29887.3375
1452.58027	30001.9375
1455.9986	30045.2375
1459.41463	30142.6375
1462.82837	30423.3375
1466.23982	30803.3375
1469.64898	31273.5375
1473.05586	31554.8375
1476.46045	31742.7375
1479.86276	31898.1375
1483.26279	32101.4375
1486.66054	32376.4375
1490.05602	32800.0375
1493.44922	33282.5375
1496.84016	33970.7375
1500.22882	34906.3375
1503.61521	36439.2375
1506.99934	38529.1375
1510.38121	40725.5375
1513.76081	41815.7375
1517.13816	40925.6375
1520.51324	38371.0375
1523.88607	35621.6375
1527.25665	33694.9375
1530.62498	32593.5375
1533.99105	31952.8375
1537.35488	31580.1375
1540.71647	31397.3375
1544.07581	31240.3375
1547.4329	31111.2375
1550.78776	30873.2375
1554.14038	30807.7375
1557.49077	30834.2375
1560.83892	30974.1375
1564.18484	31195.0375
1567.52853	31355.4375
1570.86999	31457.8375
1574.20922	31537.3375
1577.54624	31501.4375
1580.88103	31115.7375
1584.2136	30646.8375
1587.54395	30754.5375
1590.87208	31559.1375
1594.19801	33117.9375
1597.52172	34915.9375
1600.84321	35691.5375
1604.16251	34746.6375
1607.47959	32853.5375
1610.79447	30788.1375
1614.10715	28834.1375
1617.41763	27233.5375
1620.7259	26107.7375
1624.03199	25575.6375
1627.33587	25548.4375
1630.63757	25994.9375
1633.93707	27002.1375
1637.23439	28358.0375
1640.52951	30114.3375
1643.82246	32143.0375
1647.11321	34105.4375
1650.40179	35123.3375
1653.68819	34122.0375
1656.97241	31095.8375
1660.25446	27754.8375
1663.53433	25291.2375
1666.81203	23740.0375
1670.08756	22752.2375
1673.36092	22128.2375
1676.63211	21715.4375
1679.90115	21421.7375
1683.16801	21190.3375
1686.43272	21066.0375
1689.69527	20935.4375
1692.95567	20834.0375
1696.2139	20813.5375
1699.46999	20769.3375
1702.72392	20741.8375
1705.97571	20685.0375
1709.22535	20684.3375
1712.47284	20646.2375
1715.71819	20655.2375
1718.96139	20655.2375
1722.20246	20644.3375
1725.44139	20546.9375
1728.67818	20484.0375
1731.91284	20356.3375
1735.14537	20308.1375
1738.37576	20244.4375
1741.60403	20228.1375
1744.83017	20132.6375
1748.05418	20103.4375
1751.27607	20082.6375
1754.49584	20070.7375
1757.71349	20056.8375
1760.92903	20056.0375
1764.14244	20036.1375
1767.35375	20024.8375
1770.56294	20019.7375
1773.77002	20003.1375
1776.97499	19944.3375
1780.17785	19931.7375
1783.37861	19911.2375
1786.57727	19875.0375
1789.77382	19845.0375
1792.96828	19817.4375
1796.16064	19827.6375
1799.3509	19794.5375
1802.53907	19784.2375
1805.72514	19734.1375
1808.90913	19662.5375
1812.09102	19666.8375
1815.27083	19610.5375
1818.44856	19606.8375
1821.6242	19579.1375
1824.79776	19564.3375
1827.96924	19528.1375
1831.13864	19482.2375
1834.30597	19514.5375
1837.47122	19513.7375
1840.6344	19500.0375
1843.7955	19477.8375
1846.95454	19472.8375
1850.11151	19445.1375
1853.26642	19465.8375
1856.41926	19488.2375
1859.57004	19472.6375
1862.71876	19469.7375
1865.86542	19457.3375
1869.01003	19466.1375
1872.15258	19439.8375
1875.29308	19477.0375
1878.43152	19429.4375
1881.56792	19433.4375
1884.70227	19444.5375
1887.83457	19399.6375
1890.96482	19402.7375
1894.09304	19369.7375
1897.21921	19312.5375
1900.34335	19333.0375
1903.46544	19324.9375
1906.58551	19346.3375
1909.70353	19303.2375
1912.81953	19296.3375
1915.93349	19312.9375
1919.04543	19274.7375
1922.15534	19176.9375
1925.26322	19212.6375
1928.36908	19149.8375
1931.47292	19177.2375
1934.57473	19128.0375
1937.67453	19089.7375
1940.77232	19034.0375
1943.86808	18978.9375
1946.96184	18908.5375
1950.05358	18823.4375
1953.14331	18792.8375
1956.23103	18752.7375
1959.31675	18682.4375
1962.40046	18675.3375
1965.48217	18611.6375
1968.56188	18543.1375
1971.63959	18474.9375
1974.7153	18425.3375
1977.78901	18372.1375
1980.86073	18333.5375
1983.93046	18304.2375
1986.99819	18227.2375
1990.06394	18200.5375
1993.1277	18165.4375
1996.18947	18107.6375
1999.24925	18093.8375
2002.30706	17990.4375
2005.36288	17926.7375
2008.41672	17926.3375
2011.46859	17864.8375
2014.51848	17840.0375
2017.56639	17823.7375
2020.61233	17726.2375
2023.6563	17686.6375
2026.6983	17649.1375
2029.73833	17634.0375
2032.7764	17606.8375
2035.8125	17570.6375
2038.84664	17491.1375
2041.87881	17500.1375
2044.90903	17440.1375
2047.93729	17407.7375
2050.96359	17402.0375
2053.98794	17384.1375
2057.01034	17356.6375
2060.03078	17373.7375
2063.04927	17346.9375
2066.06582	17359.5375
2069.08042	17350.4375
2072.09307	17306.9375
2075.10378	17287.0375
2078.11255	17258.7375
2081.11938	17260.3375
2084.12426	17236.4375
2087.12722	17250.5375
2090.12824	17209.3375
2093.12732	17218.7375
2096.12447	17246.1375
2099.11969	17216.5375
2102.11299	17220.0375
2105.10435	17217.7375
2108.09379	17248.8375
2111.08131	17272.5375
2114.0669	17292.1375
2117.05057	17289.0375
2120.03233	17296.6375
2123.01216	17304.9375
2125.99008	17335.6375
2128.96609	17360.9375
2131.94018	17346.6375
2134.91236	17354.6375
2137.88263	17370.7375
2140.851	17392.0375
2143.81746	17394.1375
2146.78201	17411.3375
2149.74466	17426.2375
2152.7054	17440.8375
2155.66425	17420.3375
2158.6212	17463.7375
2161.57625	17424.6375
2164.52941	17394.3375
2167.48067	17399.6375
2170.43004	17381.1375
2173.37752	17391.8375
2176.32311	17384.3375
2179.26681	17403.1375
2182.20863	17368.8375
2185.14856	17386.4375
2188.08661	17359.8375
2191.02278	17413.2375
2193.95707	17398.7375
2196.88948	17434.9375
2199.82001	17404.4375
2202.74867	17367.9375
2205.67545	17350.2375
2208.60037	17345.3375
2211.52341	17328.7375
2214.44458	17351.7375
2217.36388	17334.2375
2220.28132	17300.2375
2223.1969	17252.0375
2226.11061	17232.4375
2229.02246	17181.4375
2231.93245	17162.2375
2234.84058	17131.5375
2237.74686	17083.9375
2240.65128	17078.6375
2243.55385	17055.8375
2246.45456	17031.5375
2249.35343	17028.3375
2252.25044	17023.7375
2255.14561	16950.1375
2258.03893	16976.7375
2260.93041	16944.7375
2263.82004	16925.8375
2266.70783	16889.9375
2269.59378	16782.9375
2272.4779	16772.8375
2275.36017	16736.3375
2278.24061	16694.8375
2281.11922	16678.2375
2283.996	16653.2375
2286.87094	16633.8375
2289.74405	16622.1375
2292.61534	16617.7375
2295.4848	16596.4375
2298.35243	16577.6375
2301.21824	16581.6375
2304.08223	16579.8375
2306.94439	16591.4375
2309.80474	16592.4375
2312.66327	16627.6375
2315.51999	16591.6375
2318.37489	16627.5375
2321.22797	16556.4375
2324.07925	16561.3375
2326.92871	16534.8375
2329.77637	16508.9375
2332.62222	16512.7375
2335.46626	16473.8375
2338.3085	16492.6375
2341.14893	16511.5375
2343.98756	16501.8375
2346.8244	16521.4375
2349.65943	16493.0375
2352.49267	16492.1375
2355.32411	16527.6375
2358.15376	16496.3375
2360.98161	16487.5375
2363.80768	16466.9375
2366.63195	16467.9375
2369.45444	16390.7375
2372.27514	16389.3375
2375.09405	16344.1375
2377.91118	16332.5375
2380.72652	16259.3375
2383.54009	16198.3375
2386.35187	16165.7375
2389.16188	16114.7375
2391.97011	16102.0375
2394.77657	16053.5375
2397.58125	16086.3375
2400.38416	16037.7375
2403.18529	16018.0375
2405.98466	16000.6375
2408.78226	15950.3375
2411.57809	15972.5375
2414.37216	15937.4375
2417.16446	15887.4375
2419.955	15862.8375
2422.74378	15894.8375
2425.5308	15845.3375
2428.31606	15872.3375
2431.09956	15899.4375
2433.88131	15852.6375
2436.6613	15846.2375
2439.43954	15828.5375
2442.21603	15813.0375
2444.99077	15798.6375
2447.76377	15816.5375
2450.53501	15772.3375
2453.30451	15778.8375
2456.07226	15729.9375
2458.83827	15728.4375
2461.60254	15728.8375
2464.36507	15713.4375
2467.12586	15718.8375
2469.88492	15687.1375
2472.64224	15719.1375
2475.39782	15735.7375
2478.15167	15743.4375
2480.90379	15745.4375
2483.65417	15748.2375
2486.40283	15739.0375
2489.14976	15761.5375
2491.89497	15760.5375
2494.63845	15773.0375
2497.3802	15763.6375
2500.12024	15763.4375
2502.85855	15741.5375
2505.59514	15712.3375
2508.33002	15696.8375
2511.06318	15673.8375
2513.79462	15651.9375
2516.52435	15621.4375
2519.25237	15602.2375
2521.97867	15579.2375
2524.70327	15567.8375
2527.42616	15562.8375
2530.14734	15550.2375
2532.86681	15548.0375
2535.58458	15569.6375
2538.30065	15558.5375
2541.01501	15547.2375
2543.72768	15516.3375
2546.43864	15516.5375
2549.14791	15534.4375
2551.85548	15493.4375
2554.56136	15472.4375
2557.26554	15440.3375
2559.96803	15403.8375
2562.66883	15354.9375
2565.36794	15338.6375
2568.06536	15325.3375
2570.7611	15302.2375
2573.45514	15313.7375
2576.14751	15282.5375
2578.83819	15277.6375
2581.52719	15243.2375
2584.21451	15247.0375
2586.90015	15255.5375
2589.58411	15207.4375
2592.2664	15213.9375
2594.94701	15193.0375
2597.62594	15186.0375
2600.30321	15175.9375
2602.9788	15130.2375
2605.65273	15120.3375
2608.32498	15112.1375
2610.99557	15126.5375
2613.66449	15092.1375
2616.33175	15076.2375
2618.99734	15114.6375
2621.66128	15125.0375
2624.32355	15097.9375
2626.98416	15101.2375
2629.64311	15069.1375
2632.30041	15053.7375
2634.95605	15029.3375
2637.61004	15036.1375
2640.26238	15003.8375
2642.91306	14967.7375
2645.56209	14962.4375
2648.20948	14941.5375
2650.85521	14931.8375
2653.4993	14936.3375
2656.14175	14948.3375
2658.78255	14927.0375
2661.42171	14954.0375
2664.05923	14955.5375
2666.6951	14948.4375
2669.32934	14979.3375
2671.96194	15016.5375
2674.59291	15011.9375
2677.22224	14999.5375
2679.84993	15000.5375
2682.476	14960.1375
2685.10043	14988.9375
2687.72324	14928.7375
2690.34441	14937.6375
2692.96396	14977.4375
2695.58188	14955.9375
2698.19818	14902.8375
2700.81285	14929.3375
2703.4259	14957.9375
2706.03733	14927.8375
2708.64714	14925.5375
2711.25533	14932.5375
2713.86191	14930.9375
2716.46687	14957.7375
2719.07021	14961.9375
2721.67194	14981.0375
2724.27206	14974.9375
2726.87057	14993.8375
2729.46747	14992.5375
2732.06276	14996.6375
2734.65644	14976.8375
2737.24852	14966.8375
2739.83899	14926.8375
2742.42786	14922.4375
2745.01513	14891.4375
2747.60079	14874.0375
2750.18486	14876.2375
2752.76733	14880.6375
2755.3482	14844.5375
2757.92747	14878.9375
2760.50515	14835.5375
2763.08123	14834.2375
2765.65573	14805.7375
2768.22863	14806.9375
2770.79994	14781.2375
2773.36967	14806.5375
2775.9378	14801.1375
2778.50435	14814.1375
2781.06932	14824.5375
2783.6327	14802.1375
2786.1945	14794.1375
2788.75471	14754.5375
2791.31335	14736.4375
2793.87041	14708.7375
2796.42589	14676.0375
2798.97979	14657.5375
2801.53212	14646.3375
2804.08288	14615.4375
2806.63206	14577.9375
2809.17967	14552.3375
2811.72571	14519.1375
2814.27018	14518.9375
2816.81308	14517.9375
2819.35442	14485.5375
2821.89419	14463.4375
2824.43239	14450.6375
2826.96904	14415.7375
2829.50412	14462.5375
2832.03763	14425.8375
2834.56959	14424.0375
2837.1	14382.5375
2839.62884	14382.2375
2842.15613	14406.5375
2844.68186	14422.7375
2847.20604	14412.8375
2849.72867	14437.1375
2852.24974	14421.4375
2854.76927	14398.1375
2857.28724	14395.7375
2859.80367	14389.5375
2862.31855	14358.3375
2864.83189	14339.7375
2867.34368	14289.3375
2869.85393	14341.6375
2872.36264	14271.4375
2874.8698	14294.6375
2877.37543	14289.4375
2879.87952	14282.8375
2882.38207	14279.2375
2884.88308	14254.8375
2887.38256	14281.0375
2889.88051	14279.9375
2892.37692	14262.0375
2894.8718	14273.3375
2897.36515	14289.9375
2899.85698	14293.6375
2902.34727	14334.8375
2904.83604	14327.2375
2907.32328	14361.3375
2909.809	14353.6375
2912.29319	14348.9375
2914.77587	14328.9375
2917.25702	14362.7375
2919.73665	14321.0375
2922.21476	14330.7375
2924.69136	14310.2375
2927.16644	14295.7375
2929.64	14256.8375
2932.11205	14238.9375
2934.58258	14212.9375
2937.05161	14220.9375
2939.51912	14214.8375
2941.98513	14218.4375
2944.44962	14184.2375
2946.91261	14123.2375
2949.37409	14147.0375
2951.83407	14110.2375
2954.29254	14116.6375
2956.74951	14122.6375
2959.20498	14114.1375
2961.65895	14128.7375
2964.11142	14106.9375
2966.56239	14074.4375
2969.01186	14064.1375
2971.45984	14035.0375
2973.90632	14027.0375
2976.35131	14027.0375
2978.7948	13978.9375
2981.23681	13947.6375
2983.67732	13923.7375
2986.11635	13916.9375
2988.55388	13890.0375
2990.98993	13863.3375
2993.4245	13836.2375
2995.85758	13804.7375
2998.28917	13773.4375
3000.71928	13740.0375
3003.14791	13726.6375
3005.57506	13739.0375
3008.00073	13698.8375
3010.42493	13663.9375
3012.84764	13658.4375
3015.26888	13618.0375
3017.68865	13596.1375
3020.10694	13587.8375
3022.52376	13567.3375
3024.9391	13562.0375
3027.35298	13521.0375
3029.76539	13540.0375
3032.17632	13527.5375
3034.5858	13495.3375
3036.9938	13481.9375
3039.40034	13490.0375
3041.80542	13465.9375
3044.20903	13435.7375
3046.61118	13396.8375
3049.01187	13401.6375
3051.4111	13401.8375
3053.80888	13357.6375
3056.20519	13315.9375
3058.60005	13264.5375
3060.99345	13285.9375
3063.3854	13244.5375
3065.7759	13245.9375
3068.16494	13204.9375
3070.55254	13138.3375
3072.93868	13131.0375
3075.32338	13112.6375
3077.70662	13073.1375
3080.08842	13049.8375
3082.46878	13030.8375
3084.84769	13022.3375
3087.22515	13043.5375
3089.60118	13033.8375
3091.97576	12979.3375
3094.3489	12995.1375
3096.72061	13011.8375
3099.09087	12999.5375
3101.4597	12974.1375
3103.82709	13001.7375
3106.19305	12961.5375
3108.55757	12967.0375
3110.92066	12919.9375
3113.28232	12911.9375
3115.64255	12891.7375
3118.00134	12875.6375
3120.35871	12849.1375
3122.71466	12805.2375
3125.06917	12784.1375
3127.42226	12772.7375
3129.77393	12747.5375
3132.12417	12732.0375
3134.47299	12741.4375
3136.82039	12737.5375
3139.16636	12738.2375
3141.51092	12744.6375
3143.85406	12745.8375
3146.19579	12714.8375
3148.53609	12744.3375
3150.87499	12748.3375
3153.21246	12757.1375
3155.54853	12767.5375
3157.88318	12759.6375
3160.21642	12783.3375
3162.54826	12745.1375
3164.87868	12777.6375
3167.2077	12773.2375
3169.5353	12775.9375
3171.86151	12791.9375
3174.18631	12759.0375
3176.5097	12736.1375
3178.83169	12721.0375
3181.15228	12726.5375
3183.47147	12701.0375
3185.78926	12680.1375
3188.10565	12659.1375
3190.42065	12661.2375
3192.73424	12648.2375
3195.04645	12633.8375
3197.35725	12654.8375
3199.66667	12660.3375
3201.97469	12659.5375
3204.28132	12642.0375
3206.58656	12657.2375
3208.8904	12665.6375
3211.19287	12648.3375
3213.49394	12655.1375
3215.79363	12674.2375
3218.09193	12690.9375
3220.38884	12710.7375
3222.68438	12706.2375
3224.97853	12681.2375
3227.2713	12691.0375
3229.56269	12660.2375
3231.8527	12654.9375
3234.14133	12630.0375
3236.42858	12622.5375
3238.71446	12585.4375
3240.99896	12523.6375
3243.28209	12533.1375
3245.56384	12511.8375
3247.84423	12534.4375
3250.12324	12503.5375
3252.40088	12516.5375
3254.67715	12480.6375
3256.95205	12479.0375
3259.22558	12487.5375
3261.49775	12470.7375
3263.76855	12470.3375
3266.03799	12440.6375
3268.30606	12425.3375
3270.57277	12425.0375
3272.83812	12371.1375
3275.10211	12360.1375
3277.36474	12345.6375
3279.62601	12344.0375
3281.88593	12303.7375
3284.14448	12319.8375
3286.40168	12329.9375
3288.65753	12336.7375
3290.91202	12329.7375
3293.16516	12302.2375
3295.41695	12277.1375
3297.66738	12198.6375
3299.91647	12142.7375
3302.16421	12081.6375
3304.4106	12006.9375
3306.65564	11982.1375
3308.89933	11892.1375
3311.14169	11789.9375
3313.38269	11694.1375
3315.62236	11599.8375
3317.86068	11531.2375
3320.09766	11447.3375
3322.3333	11369.1375
3324.5676	11297.4375
3326.80056	11135.3375
3329.03219	11049.0375
3331.26248	4.9375
3333.49143	-0.9625
3335.71905	-1.5625
