Data from AgNP_FTO_APTES_UA_10uM_CRN_50uM_R6G_10uM_NaF_0.1M_Addition_RamanShift__5__16-48-20-786.txt Node

Date: Thu Feb 10 16:48:20 GMT 2022
User: TCL
Spectrometer: QEP01345
Trigger mode: 4
Integration Time (sec): 7.000000E0
Scans to average: 10
Electric dark correction enabled: true
Nonlinearity correction enabled: false
Boxcar width: 0
XAxis mode: Raman Shifts
Number of Pixels in Spectrum: 1044
>>>>>Begin Spectral Data<<<<<
46.04893	0.2875
50.45542	-0.0125
54.85868	-1.8125
59.25871	-1.7125
63.6555	65.8875
68.04907	68.4875
72.43941	72.9875
76.82654	72.4875
81.21044	78.0875
85.59113	77.6875
89.96862	83.9875
94.34289	85.2875
98.71396	84.7875
103.08183	90.6875
107.4465	98.9875
111.80798	93.6875
116.16626	98.8875
120.52136	102.0875
124.87327	109.6875
129.222	111.8875
133.56755	121.7875
137.90993	129.5875
142.24913	139.8875
146.58517	156.2875
150.91804	180.9875
155.24774	210.3875
159.57429	266.5875
163.89768	341.2875
168.21792	445.7875
172.53501	616.2875
176.84895	852.4875
181.15975	1194.4875
185.46741	1677.5875
189.77193	2312.7875
194.07331	3072.3875
198.37157	3964.8875
202.6667	4892.4875
206.9587	5799.7875
211.24758	6693.5875
215.53334	7616.7875
219.81599	8569.5875
224.09553	9604.6875
228.37195	10780.3875
232.64527	12043.8875
236.91549	13348.2875
241.18261	14644.9875
245.44663	15933.3875
249.70755	17047.2875
253.96539	18026.6875
258.22014	18865.2875
262.4718	19616.7875
266.72039	20074.7875
270.96589	20345.1875
275.20832	20490.3875
279.44768	20413.9875
283.68397	20285.8875
287.91719	20126.5875
292.14735	20073.5875
296.37445	20103.1875
300.59849	20154.7875
304.81948	20245.7875
309.03742	20175.2875
313.25231	19970.6875
317.46415	19560.5875
321.67296	19085.8875
325.87872	18647.0875
330.08145	18455.1875
334.28114	18429.4875
338.47781	18566.3875
342.67145	18749.9875
346.86207	19023.3875
351.04966	19299.8875
355.23424	19597.9875
359.4158	19919.7875
363.59435	20148.9875
367.76989	20367.9875
371.94243	20453.5875
376.11196	20532.9875
380.27849	20596.8875
384.44203	20740.2875
388.60257	20905.4875
392.76012	21119.8875
396.91468	21449.4875
401.06626	21686.5875
405.21485	21887.2875
409.36047	21828.2875
413.50311	21610.7875
417.64277	21514.6875
421.77947	21539.7875
425.9132	21641.3875
430.04396	21788.6875
434.17176	21842.5875
438.2966	21952.7875
442.41849	22282.5875
446.53742	22785.2875
450.6534	23451.2875
454.76644	23932.5875
458.87653	24149.0875
462.98368	24032.9875
467.08789	23795.9875
471.18916	23561.8875
475.2875	23340.9875
479.38291	23282.6875
483.4754	23191.4875
487.56496	22937.5875
491.6516	22471.6875
495.73531	22048.3875
499.81612	21755.7875
503.89401	21821.8875
507.96899	21908.0875
512.04106	21879.3875
516.11023	21741.0875
520.1765	21497.8875
524.23987	21219.1875
528.30034	21003.4875
532.35792	20804.9875
536.41261	20587.0875
540.46441	20438.8875
544.51333	20473.7875
548.55936	20762.4875
552.60252	21233.9875
556.64279	21726.5875
560.6802	22146.6875
564.71473	22366.0875
568.7464	22840.0875
572.7752	23553.1875
576.80114	24262.0875
580.82422	24943.1875
584.84444	25528.8875
588.86181	26330.0875
592.87633	26818.0875
596.888	26375.8875
600.89682	25449.4875
604.9028	25361.1875
608.90594	26668.7875
612.90624	27967.5875
616.90371	26062.9875
620.89834	22536.3875
624.89015	21099.7875
628.87913	20986.7875
632.86528	21053.4875
636.84862	21006.9875
640.82913	20671.1875
644.80683	20221.1875
648.78172	19893.2875
652.75379	19891.4875
656.72306	20075.7875
660.68952	20317.1875
664.65319	20182.2875
668.61405	19871.2875
672.57211	19835.4875
676.52738	19884.0875
680.47986	19945.0875
684.42955	19825.7875
688.37646	19785.3875
692.32058	19867.4875
696.26192	20139.6875
700.20048	20412.0875
704.13626	20573.0875
708.06928	20592.4875
711.99952	20531.9875
715.927	20512.6875
719.85171	20583.2875
723.77365	20474.5875
727.69284	20212.9875
731.60928	19976.4875
735.52295	19815.7875
739.43388	19818.4875
743.34206	19891.7875
747.24749	20018.6875
751.15017	20233.3875
755.05012	20602.8875
758.94733	21233.0875
762.8418	22151.1875
766.73354	23480.5875
770.62254	24574.0875
774.50882	24598.4875
778.39237	23453.9875
782.27321	22011.6875
786.15132	20895.3875
790.02671	20229.5875
793.89938	19919.0875
797.76935	19786.9875
801.6366	19745.3875
805.50115	19734.2875
809.36299	19621.9875
813.22213	19455.8875
817.07857	19441.5875
820.93231	19348.0875
824.78336	19209.8875
828.63172	19114.6875
832.47738	19084.0875
836.32036	19065.5875
840.16066	19133.0875
843.99827	19182.0875
847.8332	19150.4875
851.66546	19119.0875
855.49504	19106.1875
859.32195	19105.1875
863.1462	19079.3875
866.96777	18990.9875
870.78668	18928.4875
874.60293	18968.7875
878.41652	18945.3875
882.22745	19021.5875
886.03573	19023.7875
889.84136	19007.2875
893.64433	18935.0875
897.44466	18880.7875
901.24235	18836.1875
905.0374	18768.7875
908.8298	18780.5875
912.61957	18865.0875
916.40671	19080.3875
920.19121	19346.6875
923.97308	19551.9875
927.75233	19499.8875
931.52895	19266.6875
935.30295	18977.0875
939.07433	18668.9875
942.84309	18449.2875
946.60924	18371.4875
950.37278	18342.3875
954.13371	18323.1875
957.89203	18279.7875
961.64774	18258.0875
965.40086	18252.4875
969.15137	18217.4875
972.89929	18068.8875
976.64461	18025.0875
980.38733	18017.0875
984.12747	18058.3875
987.86502	18172.9875
991.59999	18319.4875
995.33237	18577.2875
999.06217	18920.0875
1002.78939	19439.6875
1006.51404	19748.9875
1010.23611	19960.7875
1013.95561	20159.5875
1017.67255	20197.1875
1021.38692	20003.4875
1025.09872	19722.5875
1028.80796	19721.1875
1032.51465	20010.8875
1036.21877	20400.6875
1039.92035	20553.3875
1043.61937	20450.5875
1047.31584	20160.2875
1051.00976	19861.1875
1054.70114	19710.7875
1058.38998	19751.2875
1062.07627	19893.0875
1065.76003	20074.8875
1069.44126	20248.2875
1073.11995	20501.5875
1076.79611	20801.4875
1080.46974	20822.9875
1084.14085	21018.4875
1087.80943	21213.9875
1091.47549	21379.9875
1095.13903	21417.3875
1098.80005	21178.6875
1102.45857	20768.5875
1106.11456	20404.5875
1109.76805	20249.1875
1113.41903	20233.9875
1117.06751	20305.3875
1120.71348	20469.6875
1124.35696	20658.2875
1127.99793	20863.0875
1131.63641	21012.7875
1135.2724	21003.0875
1138.90589	20967.1875
1142.5369	21102.6875
1146.16542	21238.4875
1149.79145	21483.1875
1153.415	21770.8875
1157.03607	22173.0875
1160.65467	22961.6875
1164.27079	24127.7875
1167.88443	25494.2875
1171.49561	26798.9875
1175.10432	28382.2875
1178.71056	30343.7875
1182.31434	32169.8875
1185.91565	33114.7875
1189.51451	32936.5875
1193.11091	32153.1875
1196.70485	31141.2875
1200.29634	30105.3875
1203.88538	29482.9875
1207.47197	29263.1875
1211.05612	28983.4875
1214.63782	28416.0875
1218.21708	27606.0875
1221.79391	26654.4875
1225.36829	26014.6875
1228.94024	25440.5875
1232.50976	25023.5875
1236.07685	24691.0875
1239.6415	24594.3875
1243.20374	24682.8875
1246.76355	24914.2875
1250.32093	25358.9875
1253.8759	25901.6875
1257.42845	26580.0875
1260.97859	27269.1875
1264.52631	28008.2875
1268.07163	28826.2875
1271.61453	29638.2875
1275.15503	30513.9875
1278.69312	31470.3875
1282.22882	32366.6875
1285.76211	33443.2875
1289.29301	34796.5875
1292.82151	36614.4875
1296.34761	38848.5875
1299.87133	41380.8875
1303.39266	43903.2875
1306.9116	45982.8875
1310.42815	47267.1875
1313.94233	47713.6875
1317.45412	47351.5875
1320.96354	46704.1875
1324.47058	46319.8875
1327.97525	46046.1875
1331.47754	45824.6875
1334.97747	45638.0875
1338.47502	45256.3875
1341.97022	44553.5875
1345.46305	43604.7875
1348.95352	42699.0875
1352.44163	42148.0875
1355.92738	42484.7875
1359.41078	43638.1875
1362.89183	44416.4875
1366.37053	43505.9875
1369.84688	40361.0875
1373.32088	36513.3875
1376.79254	33951.1875
1380.26186	33206.5875
1383.72883	33548.6875
1387.19347	33869.9875
1390.65578	33776.9875
1394.11575	33837.4875
1397.57339	34242.9875
1401.0287	34943.2875
1404.48168	35432.1875
1407.93234	35216.7875
1411.38068	34353.5875
1414.82669	32962.6875
1418.27039	31337.9875
1421.71177	29792.6875
1425.15083	28614.7875
1428.58758	27999.6875
1432.02203	28286.1875
1435.45416	29146.0875
1438.88399	30189.8875
1442.31151	31005.8875
1445.73673	31609.8875
1449.15965	31984.0875
1452.58027	32141.8875
1455.9986	32151.5875
1459.41463	32235.7875
1462.82837	32610.0875
1466.23982	33122.3875
1469.64898	33585.4875
1473.05586	33890.5875
1476.46045	33808.1875
1479.86276	33481.1875
1483.26279	32953.9875
1486.66054	32612.8875
1490.05602	32611.8875
1493.44922	32792.7875
1496.84016	33029.3875
1500.22882	33374.4875
1503.61521	34072.2875
1506.99934	34941.5875
1510.38121	35708.4875
1513.76081	35857.5875
1517.13816	35418.0875
1520.51324	34697.2875
1523.88607	34266.4875
1527.25665	34283.8875
1530.62498	34515.6875
1533.99105	34564.2875
1537.35488	34188.8875
1540.71647	33470.0875
1544.07581	32451.0875
1547.4329	31371.2875
1550.78776	30519.8875
1554.14038	29937.4875
1557.49077	29630.5875
1560.83892	29379.7875
1564.18484	29259.2875
1567.52853	29308.8875
1570.86999	29623.1875
1574.20922	30258.7875
1577.54624	30980.0875
1580.88103	31566.7875
1584.2136	32281.3875
1587.54395	33501.6875
1590.87208	35302.4875
1594.19801	37352.4875
1597.52172	38944.0875
1600.84321	38818.1875
1604.16251	36773.3875
1607.47959	33600.7875
1610.79447	30498.6875
1614.10715	27769.1875
1617.41763	25737.1875
1620.7259	24320.2875
1624.03199	23708.0875
1627.33587	23821.5875
1630.63757	24622.4875
1633.93707	26352.6875
1637.23439	29107.9875
1640.52951	33022.8875
1643.82246	37474.2875
1647.11321	40697.0875
1650.40179	40829.8875
1653.68819	37582.9875
1656.97241	32385.8875
1660.25446	27570.8875
1663.53433	23981.8875
1666.81203	21625.0875
1670.08756	20157.4875
1673.36092	19281.7875
1676.63211	18679.9875
1679.90115	18244.2875
1683.16801	17937.3875
1686.43272	17704.5875
1689.69527	17565.8875
1692.95567	17417.4875
1696.2139	17318.1875
1699.46999	17280.5875
1702.72392	17183.4875
1705.97571	17112.5875
1709.22535	17029.4875
1712.47284	17008.9875
1715.71819	16962.3875
1718.96139	16887.4875
1722.20246	16868.4875
1725.44139	16762.3875
1728.67818	16664.9875
1731.91284	16540.8875
1735.14537	16484.4875
1738.37576	16366.1875
1741.60403	16365.8875
1744.83017	16329.4875
1748.05418	16232.8875
1751.27607	16236.1875
1754.49584	16201.9875
1757.71349	16247.3875
1760.92903	16204.4875
1764.14244	16151.3875
1767.35375	16154.3875
1770.56294	16115.0875
1773.77002	16079.0875
1776.97499	16060.5875
1780.17785	15993.0875
1783.37861	15978.4875
1786.57727	15928.5875
1789.77382	15893.7875
1792.96828	15866.2875
1796.16064	15838.4875
1799.3509	15790.2875
1802.53907	15771.1875
1805.72514	15729.2875
1808.90913	15691.6875
1812.09102	15674.9875
1815.27083	15657.6875
1818.44856	15595.7875
1821.6242	15544.2875
1824.79776	15552.1875
1827.96924	15564.3875
1831.13864	15535.1875
1834.30597	15551.7875
1837.47122	15570.8875
1840.6344	15552.5875
1843.7955	15543.3875
1846.95454	15488.6875
1850.11151	15527.8875
1853.26642	15497.8875
1856.41926	15517.3875
1859.57004	15504.0875
1862.71876	15471.6875
1865.86542	15421.9875
1869.01003	15432.1875
1872.15258	15415.3875
1875.29308	15415.4875
1878.43152	15382.6875
1881.56792	15376.3875
1884.70227	15337.4875
1887.83457	15306.9875
1890.96482	15299.8875
1894.09304	15253.3875
1897.21921	15232.4875
1900.34335	15224.1875
1903.46544	15203.5875
1906.58551	15208.0875
1909.70353	15146.4875
1912.81953	15141.4875
1915.93349	15150.6875
1919.04543	15083.1875
1922.15534	15056.8875
1925.26322	15005.8875
1928.36908	15010.3875
1931.47292	15003.6875
1934.57473	14946.9875
1937.67453	14930.2875
1940.77232	14906.9875
1943.86808	14828.5875
1946.96184	14740.0875
1950.05358	14724.7875
1953.14331	14722.8875
1956.23103	14653.7875
1959.31675	14601.0875
1962.40046	14559.5875
1965.48217	14537.1875
1968.56188	14486.2875
1971.63959	14431.6875
1974.7153	14384.2875
1977.78901	14334.0875
1980.86073	14344.0875
1983.93046	14281.6875
1986.99819	14238.4875
1990.06394	14192.4875
1993.1277	14160.0875
1996.18947	14133.7875
1999.24925	14080.1875
2002.30706	14044.6875
2005.36288	14012.7875
2008.41672	13952.0875
2011.46859	13890.7875
2014.51848	13931.5875
2017.56639	13865.1875
2020.61233	13829.1875
2023.6563	13811.6875
2026.6983	13802.8875
2029.73833	13738.5875
2032.7764	13723.9875
2035.8125	13708.3875
2038.84664	13631.1875
2041.87881	13598.3875
2044.90903	13594.8875
2047.93729	13570.3875
2050.96359	13599.6875
2053.98794	13545.0875
2057.01034	13550.0875
2060.03078	13547.1875
2063.04927	13518.3875
2066.06582	13537.7875
2069.08042	13520.8875
2072.09307	13487.7875
2075.10378	13487.4875
2078.11255	13498.2875
2081.11938	13481.5875
2084.12426	13445.9875
2087.12722	13424.0875
2090.12824	13424.6875
2093.12732	13449.9875
2096.12447	13417.7875
2099.11969	13418.8875
2102.11299	13421.4875
2105.10435	13422.8875
2108.09379	13464.9875
2111.08131	13430.6875
2114.0669	13443.6875
2117.05057	13465.3875
2120.03233	13453.4875
2123.01216	13496.2875
2125.99008	13515.6875
2128.96609	13500.6875
2131.94018	13513.1875
2134.91236	13502.1875
2137.88263	13537.0875
2140.851	13531.0875
2143.81746	13559.1875
2146.78201	13528.2875
2149.74466	13525.6875
2152.7054	13506.7875
2155.66425	13522.1875
2158.6212	13519.6875
2161.57625	13518.7875
2164.52941	13505.0875
2167.48067	13521.7875
2170.43004	13513.1875
2173.37752	13500.6875
2176.32311	13487.6875
2179.26681	13480.0875
2182.20863	13494.5875
2185.14856	13493.8875
2188.08661	13491.4875
2191.02278	13503.2875
2193.95707	13507.5875
2196.88948	13505.6875
2199.82001	13502.6875
2202.74867	13472.3875
2205.67545	13468.2875
2208.60037	13440.5875
2211.52341	13435.7875
2214.44458	13413.1875
2217.36388	13364.3875
2220.28132	13404.5875
2223.1969	13361.9875
2226.11061	13349.8875
2229.02246	13308.6875
2231.93245	13295.0875
2234.84058	13267.6875
2237.74686	13290.5875
2240.65128	13250.5875
2243.55385	13209.7875
2246.45456	13194.7875
2249.35343	13167.3875
2252.25044	13163.6875
2255.14561	13117.0875
2258.03893	13111.9875
2260.93041	13082.3875
2263.82004	13024.7875
2266.70783	12981.4875
2269.59378	12969.2875
2272.4779	12921.7875
2275.36017	12905.7875
2278.24061	12911.9875
2281.11922	12866.3875
2283.996	12851.3875
2286.87094	12866.3875
2289.74405	12829.5875
2292.61534	12827.1875
2295.4848	12818.0875
2298.35243	12784.1875
2301.21824	12830.6875
2304.08223	12833.1875
2306.94439	12829.6875
2309.80474	12825.1875
2312.66327	12822.5875
2315.51999	12795.8875
2318.37489	12839.8875
2321.22797	12790.2875
2324.07925	12785.8875
2326.92871	12757.8875
2329.77637	12764.0875
2332.62222	12694.1875
2335.46626	12734.6875
2338.3085	12722.0875
2341.14893	12711.9875
2343.98756	12745.7875
2346.8244	12735.3875
2349.65943	12721.5875
2352.49267	12709.4875
2355.32411	12698.1875
2358.15376	12705.1875
2360.98161	12714.0875
2363.80768	12677.1875
2366.63195	12661.4875
2369.45444	12673.0875
2372.27514	12616.3875
2375.09405	12614.9875
2377.91118	12601.9875
2380.72652	12551.9875
2383.54009	12532.7875
2386.35187	12499.3875
2389.16188	12448.5875
2391.97011	12436.8875
2394.77657	12407.9875
2397.58125	12413.5875
2400.38416	12410.4875
2403.18529	12392.4875
2405.98466	12412.5875
2408.78226	12387.1875
2411.57809	12372.2875
2414.37216	12336.3875
2417.16446	12352.0875
2419.955	12330.8875
2422.74378	12324.2875
2425.5308	12317.6875
2428.31606	12319.2875
2431.09956	12315.7875
2433.88131	12305.9875
2436.6613	12285.2875
2439.43954	12308.3875
2442.21603	12265.9875
2444.99077	12280.2875
2447.76377	12282.8875
2450.53501	12285.2875
2453.30451	12261.4875
2456.07226	12251.4875
2458.83827	12250.9875
2461.60254	12254.3875
2464.36507	12258.8875
2467.12586	12248.4875
2469.88492	12248.8875
2472.64224	12237.6875
2475.39782	12268.4875
2478.15167	12265.0875
2480.90379	12277.8875
2483.65417	12301.2875
2486.40283	12281.2875
2489.14976	12275.9875
2491.89497	12297.6875
2494.63845	12297.8875
2497.3802	12292.0875
2500.12024	12285.9875
2502.85855	12263.5875
2505.59514	12283.7875
2508.33002	12258.3875
2511.06318	12261.6875
2513.79462	12251.0875
2516.52435	12235.0875
2519.25237	12216.5875
2521.97867	12222.4875
2524.70327	12242.4875
2527.42616	12232.5875
2530.14734	12204.6875
2532.86681	12231.8875
2535.58458	12226.2875
2538.30065	12204.4875
2541.01501	12226.0875
2543.72768	12186.8875
2546.43864	12186.6875
2549.14791	12173.2875
2551.85548	12183.4875
2554.56136	12158.4875
2557.26554	12148.5875
2559.96803	12111.1875
2562.66883	12116.1875
2565.36794	12115.0875
2568.06536	12105.8875
2570.7611	12113.3875
2573.45514	12094.2875
2576.14751	12066.9875
2578.83819	12069.2875
2581.52719	12055.3875
2584.21451	12040.5875
2586.90015	12069.8875
2589.58411	12042.1875
2592.2664	12063.8875
2594.94701	12035.5875
2597.62594	12039.7875
2600.30321	12023.5875
2602.9788	12012.4875
2605.65273	11997.0875
2608.32498	12019.7875
2610.99557	12004.2875
2613.66449	12014.4875
2616.33175	12014.5875
2618.99734	12012.1875
2621.66128	12014.8875
2624.32355	12009.0875
2626.98416	11984.6875
2629.64311	12013.0875
2632.30041	11983.8875
2634.95605	11972.9875
2637.61004	11957.9875
2640.26238	11951.5875
2642.91306	11924.1875
2645.56209	11929.7875
2648.20948	11952.3875
2650.85521	11955.0875
2653.4993	11958.4875
2656.14175	11935.4875
2658.78255	11947.9875
2661.42171	11958.6875
2664.05923	11980.9875
2666.6951	12006.7875
2669.32934	12010.2875
2671.96194	12005.9875
2674.59291	12004.0875
2677.22224	11985.6875
2679.84993	12018.5875
2682.476	11997.1875
2685.10043	11973.3875
2687.72324	11938.6875
2690.34441	11965.6875
2692.96396	11975.6875
2695.58188	11963.9875
2698.19818	11959.7875
2700.81285	11969.1875
2703.4259	12020.6875
2706.03733	12023.1875
2708.64714	11985.8875
2711.25533	11985.3875
2713.86191	11998.0875
2716.46687	12035.7875
2719.07021	12027.4875
2721.67194	12057.0875
2724.27206	12040.4875
2726.87057	12064.9875
2729.46747	12105.0875
2732.06276	12089.6875
2734.65644	12085.5875
2737.24852	12088.5875
2739.83899	12072.6875
2742.42786	12088.3875
2745.01513	12057.8875
2747.60079	12044.1875
2750.18486	12049.2875
2752.76733	12038.5875
2755.3482	12031.4875
2757.92747	12023.0875
2760.50515	12000.4875
2763.08123	12015.8875
2765.65573	11977.2875
2768.22863	11985.7875
2770.79994	11995.7875
2773.36967	12045.3875
2775.9378	12002.7875
2778.50435	12030.9875
2781.06932	12028.4875
2783.6327	12020.9875
2786.1945	12015.3875
2788.75471	12006.2875
2791.31335	11997.5875
2793.87041	11997.3875
2796.42589	11973.3875
2798.97979	11932.9875
2801.53212	11964.6875
2804.08288	11948.5875
2806.63206	11909.8875
2809.17967	11878.5875
2811.72571	11829.0875
2814.27018	11830.4875
2816.81308	11807.6875
2819.35442	11802.8875
2821.89419	11763.6875
2824.43239	11751.9875
2826.96904	11748.2875
2829.50412	11778.7875
2832.03763	11729.1875
2834.56959	11734.9875
2837.1	11707.3875
2839.62884	11734.1875
2842.15613	11731.9875
2844.68186	11750.7875
2847.20604	11744.4875
2849.72867	11779.9875
2852.24974	11750.2875
2854.76927	11741.9875
2857.28724	11720.9875
2859.80367	11693.9875
2862.31855	11690.1875
2864.83189	11670.1875
2867.34368	11658.1875
2869.85393	11628.3875
2872.36264	11637.4875
2874.8698	11656.0875
2877.37543	11623.2875
2879.87952	11621.3875
2882.38207	11645.2875
2884.88308	11639.2875
2887.38256	11647.0875
2889.88051	11645.3875
2892.37692	11628.9875
2894.8718	11643.0875
2897.36515	11690.6875
2899.85698	11660.1875
2902.34727	11713.7875
2904.83604	11709.0875
2907.32328	11736.2875
2909.809	11743.8875
2912.29319	11748.2875
2914.77587	11720.6875
2917.25702	11740.8875
2919.73665	11729.2875
2922.21476	11740.9875
2924.69136	11728.8875
2927.16644	11708.2875
2929.64	11694.8875
2932.11205	11724.8875
2934.58258	11673.5875
2937.05161	11689.4875
2939.51912	11685.2875
2941.98513	11684.4875
2944.44962	11660.8875
2946.91261	11616.9875
2949.37409	11605.4875
2951.83407	11588.0875
2954.29254	11607.4875
2956.74951	11593.9875
2959.20498	11602.5875
2961.65895	11611.4875
2964.11142	11615.8875
2966.56239	11558.1875
2969.01186	11578.2875
2971.45984	11564.2875
2973.90632	11572.4875
2976.35131	11542.4875
2978.7948	11517.6875
2981.23681	11493.6875
2983.67732	11468.9875
2986.11635	11473.0875
2988.55388	11414.4875
2990.98993	11417.1875
2993.4245	11384.7875
2995.85758	11341.3875
2998.28917	11314.7875
3000.71928	11304.7875
3003.14791	11287.8875
3005.57506	11292.7875
3008.00073	11257.4875
3010.42493	11228.5875
3012.84764	11196.1875
3015.26888	11177.6875
3017.68865	11150.6875
3020.10694	11150.4875
3022.52376	11139.4875
3024.9391	11133.3875
3027.35298	11090.6875
3029.76539	11089.2875
3032.17632	11102.1875
3034.5858	11073.6875
3036.9938	11094.1875
3039.40034	11096.0875
3041.80542	11107.4875
3044.20903	11045.6875
3046.61118	11056.1875
3049.01187	11068.9875
3051.4111	11046.5875
3053.80888	11010.4875
3056.20519	10993.3875
3058.60005	10958.6875
3060.99345	10979.5875
3063.3854	10909.4875
3065.7759	10884.2875
3068.16494	10861.4875
3070.55254	10855.2875
3072.93868	10837.6875
3075.32338	10800.5875
3077.70662	10768.8875
3080.08842	10754.4875
3082.46878	10739.7875
3084.84769	10739.5875
3087.22515	10723.9875
3089.60118	10720.7875
3091.97576	10714.5875
3094.3489	10711.0875
3096.72061	10722.0875
3099.09087	10712.8875
3101.4597	10702.1875
3103.82709	10699.3875
3106.19305	10674.0875
3108.55757	10674.6875
3110.92066	10666.8875
3113.28232	10672.6875
3115.64255	10639.0875
3118.00134	10609.7875
3120.35871	10612.8875
3122.71466	10572.4875
3125.06917	10571.2875
3127.42226	10534.4875
3129.77393	10527.2875
3132.12417	10500.7875
3134.47299	10514.3875
3136.82039	10535.3875
3139.16636	10528.5875
3141.51092	10502.2875
3143.85406	10495.3875
3146.19579	10494.6875
3148.53609	10493.7875
3150.87499	10517.4875
3153.21246	10532.8875
3155.54853	10527.0875
3157.88318	10510.6875
3160.21642	10518.1875
3162.54826	10509.6875
3164.87868	10547.3875
3167.2077	10579.9875
3169.5353	10580.1875
3171.86151	10548.0875
3174.18631	10540.6875
3176.5097	10549.7875
3178.83169	10523.0875
3181.15228	10508.5875
3183.47147	10511.1875
3185.78926	10481.7875
3188.10565	10484.5875
3190.42065	10481.1875
3192.73424	10444.9875
3195.04645	10434.4875
3197.35725	10457.0875
3199.66667	10459.6875
3201.97469	10457.3875
3204.28132	10431.5875
3206.58656	10449.8875
3208.8904	10429.4875
3211.19287	10442.1875
3213.49394	10446.9875
3215.79363	10456.1875
3218.09193	10479.3875
3220.38884	10478.4875
3222.68438	10485.1875
3224.97853	10482.8875
3227.2713	10473.5875
3229.56269	10444.8875
3231.8527	10455.1875
3234.14133	10433.5875
3236.42858	10423.7875
3238.71446	10425.6875
3240.99896	10355.0875
3243.28209	10359.8875
3245.56384	10360.2875
3247.84423	10374.2875
3250.12324	10350.3875
3252.40088	10348.0875
3254.67715	10333.8875
3256.95205	10288.1875
3259.22558	10309.1875
3261.49775	10286.2875
3263.76855	10289.4875
3266.03799	10273.4875
3268.30606	10259.1875
3270.57277	10241.7875
3272.83812	10206.3875
3275.10211	10182.9875
3277.36474	10201.7875
3279.62601	10172.5875
3281.88593	10160.5875
3284.14448	10177.5875
3286.40168	10168.5875
3288.65753	10171.9875
3290.91202	10199.9875
3293.16516	10145.3875
3295.41695	10129.0875
3297.66738	10063.8875
3299.91647	10037.5875
3302.16421	9963.2875
3304.4106	9924.2875
3306.65564	9866.3875
3308.89933	9796.0875
3311.14169	9712.1875
3313.38269	9617.8875
3315.62236	9578.2875
3317.86068	9489.5875
3320.09766	9412.1875
3322.3333	9345.6875
3324.5676	9304.7875
3326.80056	9156.1875
3329.03219	9082.8875
3331.26248	4.3875
3333.49143	-0.4125
3335.71905	-0.3125
