Data from AgNP_FTO_APTES_UA_10uM_CRN_500uM_R6G_10uM_NaF_0.1M_Addition_RamanShift__1__18-41-30-926.txt Node

Date: Thu Feb 10 18:41:30 GMT 2022
User: TCL
Spectrometer: QEP01345
Trigger mode: 4
Integration Time (sec): 7.000000E0
Scans to average: 10
Electric dark correction enabled: true
Nonlinearity correction enabled: false
Boxcar width: 0
XAxis mode: Raman Shifts
Number of Pixels in Spectrum: 1044
>>>>>Begin Spectral Data<<<<<
46.04893	0.7
50.45542	-1.4
54.85868	-1.9
59.25871	-1.3
63.6555	59.1
68.04907	61.3
72.43941	66.5
76.82654	63.1
81.21044	69.7
85.59113	68.8
89.96862	72.9
94.34289	76.6
98.71396	79.2
103.08183	82.3
107.4465	85.7
111.80798	81.9
116.16626	90
120.52136	90.3
124.87327	95.7
129.222	96.9
133.56755	105.2
137.90993	111
142.24913	118.3
146.58517	133.3
150.91804	151.9
155.24774	179.9
159.57429	227.3
163.89768	285.2
168.21792	372
172.53501	512.5
176.84895	709.2
181.15975	993.7
185.46741	1391.5
189.77193	1940.5
194.07331	2607.6
198.37157	3363.9
202.6667	4166.3
206.9587	4949.3
211.24758	5739.7
215.53334	6517.2
219.81599	7338.6
224.09553	8225.2
228.37195	9221.3
232.64527	10314.1
236.91549	11465
241.18261	12615.6
245.44663	13723.9
249.70755	14725.6
253.96539	15595.2
258.22014	16330.8
262.4718	16921.6
266.72039	17374.5
270.96589	17644.2
275.20832	17678.7
279.44768	17562.2
283.68397	17394.2
287.91719	17201.8
292.14735	17087.9
296.37445	17061.9
300.59849	17119.1
304.81948	17273.3
309.03742	17255.7
313.25231	17155.2
317.46415	16893.3
321.67296	16488.9
325.87872	16181.9
330.08145	16038.2
334.28114	16049.4
338.47781	16133.3
342.67145	16352.4
346.86207	16612.3
351.04966	16960.7
355.23424	17266.8
359.4158	17583.7
363.59435	17790.6
367.76989	17968.7
371.94243	18081.3
376.11196	18170.2
380.27849	18280.8
384.44203	18365.7
388.60257	18460.8
392.76012	18570.2
396.91468	18794.9
401.06626	19026.8
405.21485	19229.8
409.36047	19136
413.50311	18893.2
417.64277	18667.7
421.77947	18579.2
425.9132	18568.7
430.04396	18672.5
434.17176	18750.6
438.2966	18909.3
442.41849	19150.3
446.53742	19554.5
450.6534	19966.2
454.76644	20274.7
458.87653	20381.1
462.98368	20326.6
467.08789	20268.5
471.18916	20133.9
475.2875	19995.2
479.38291	19903.6
483.4754	19803.7
487.56496	19619.2
491.6516	19403
495.73531	19186.5
499.81612	19067.7
503.89401	19078.1
507.96899	19148.1
512.04106	19196.1
516.11023	19213.9
520.1765	19206.5
524.23987	19145.4
528.30034	19036.9
532.35792	18949.4
536.41261	18802.3
540.46441	18643.7
544.51333	18637.5
548.55936	18803.2
552.60252	19003.4
556.64279	19405.4
560.6802	19602.5
564.71473	19749.1
568.7464	19990.5
572.7752	20330.1
576.80114	20490
580.82422	20593.9
584.84444	20779
588.86181	21136.7
592.87633	21491.8
596.888	21536
600.89682	21199.7
604.9028	21472.1
608.90594	23009
612.90624	25019.4
616.90371	24198.3
620.89834	20908
624.89015	19351
628.87913	19119.3
632.86528	19248.2
636.84862	19317.2
640.82913	19195.7
644.80683	18870.1
648.78172	18661.9
652.75379	18612.1
656.72306	18852.4
660.68952	19101.1
664.65319	19006.4
668.61405	18743.8
672.57211	18655.4
676.52738	18746
680.47986	18775.6
684.42955	18676.9
688.37646	18648.6
692.32058	18667
696.26192	18811
700.20048	19012.5
704.13626	19126.5
708.06928	19132.6
711.99952	19078.8
715.927	19083.6
719.85171	19057.1
723.77365	19048
727.69284	18924
731.60928	18800.6
735.52295	18719.8
739.43388	18715.9
743.34206	18771.8
747.24749	18815.6
751.15017	18917.9
755.05012	19104.9
758.94733	19453.4
762.8418	20152
766.73354	21271.5
770.62254	22435.6
774.50882	22917.9
778.39237	22292.7
782.27321	21028.3
786.15132	19933.8
790.02671	19241.7
793.89938	18897.6
797.76935	18769.5
801.6366	18716.8
805.50115	18663.7
809.36299	18607.7
813.22213	18529.9
817.07857	18539.6
820.93231	18554.8
824.78336	18551.9
828.63172	18490
832.47738	18491
836.32036	18479.8
840.16066	18511.7
843.99827	18484.8
847.8332	18481.2
851.66546	18476.5
855.49504	18525.2
859.32195	18488.2
863.1462	18458.7
866.96777	18462.3
870.78668	18478
874.60293	18465.9
878.41652	18479.9
882.22745	18517.4
886.03573	18559.5
889.84136	18550.5
893.64433	18483.6
897.44466	18458.8
901.24235	18420.3
905.0374	18414.3
908.8298	18358.4
912.61957	18319.3
916.40671	18409.3
920.19121	18531.9
923.97308	18634.8
927.75233	18644.1
931.52895	18626.9
935.30295	18469
939.07433	18256.8
942.84309	18075.6
946.60924	18004.9
950.37278	17930.7
954.13371	17895.9
957.89203	17886
961.64774	17862
965.40086	17824.5
969.15137	17794.3
972.89929	17735.7
976.64461	17733.9
980.38733	17733.4
984.12747	17766.2
987.86502	17849.1
991.59999	17937.9
995.33237	18054.4
999.06217	18228.2
1002.78939	18445
1006.51404	18659.7
1010.23611	18786.5
1013.95561	18924.1
1017.67255	18904.9
1021.38692	18858.7
1025.09872	18680.9
1028.80796	18594.9
1032.51465	18604.5
1036.21877	18742.5
1039.92035	18805
1043.61937	18799.3
1047.31584	18757
1051.00976	18702.3
1054.70114	18704.1
1058.38998	18751.7
1062.07627	18772
1065.76003	18887.3
1069.44126	18995.5
1073.11995	19126.8
1076.79611	19264.5
1080.46974	19363.6
1084.14085	19480.4
1087.80943	19628.1
1091.47549	19774.9
1095.13903	19770.8
1098.80005	19618.8
1102.45857	19380.5
1106.11456	19232.4
1109.76805	19115.9
1113.41903	19151.5
1117.06751	19297.1
1120.71348	19492.2
1124.35696	19708.4
1127.99793	19924.5
1131.63641	19975.3
1135.2724	19830.7
1138.90589	19606.6
1142.5369	19509
1146.16542	19465
1149.79145	19548.9
1153.415	19593.8
1157.03607	19745.5
1160.65467	20033.8
1164.27079	20559.1
1167.88443	21179.7
1171.49561	22010.9
1175.10432	23104.5
1178.71056	24511
1182.31434	25832.5
1185.91565	26466
1189.51451	26378
1193.11091	25829.1
1196.70485	25028
1200.29634	24331.1
1203.88538	23756.8
1207.47197	23243.2
1211.05612	22791.8
1214.63782	22390.8
1218.21708	22068.5
1221.79391	21826.5
1225.36829	21593.5
1228.94024	21497.4
1232.50976	21321.1
1236.07685	21157.6
1239.6415	21059.7
1243.20374	21128.1
1246.76355	21225.6
1250.32093	21369.7
1253.8759	21656.3
1257.42845	22039.2
1260.97859	22444.7
1264.52631	22857.3
1268.07163	23220.6
1271.61453	23599.7
1275.15503	23977.9
1278.69312	24332.9
1282.22882	24669.8
1285.76211	25186.1
1289.29301	25768.9
1292.82151	26603
1296.34761	27602.7
1299.87133	28767.8
1303.39266	30049.9
1306.9116	31344.9
1310.42815	32540.8
1313.94233	33296.2
1317.45412	33211.3
1320.96354	32579.9
1324.47058	31855.1
1327.97525	31047.4
1331.47754	30425.9
1334.97747	30034.4
1338.47502	29848
1341.97022	29809.7
1345.46305	29747.3
1348.95352	29950.4
1352.44163	30437.6
1355.92738	31345.1
1359.41078	32729.9
1362.89183	34005.3
1366.37053	33502
1369.84688	30829.3
1373.32088	27862.2
1376.79254	25888.1
1380.26186	25168.2
1383.72883	25031.3
1387.19347	24943.9
1390.65578	24714.4
1394.11575	24585.3
1397.57339	24581.8
1401.0287	24729.5
1404.48168	24815.4
1407.93234	24636.6
1411.38068	24264.6
1414.82669	23748.3
1418.27039	23137.5
1421.71177	22559.8
1425.15083	22031.2
1428.58758	21787.2
1432.02203	21858.6
1435.45416	22145.1
1438.88399	22525.4
1442.31151	22766.1
1445.73673	22932.4
1449.15965	23086.6
1452.58027	23187.4
1455.9986	23219.1
1459.41463	23243.6
1462.82837	23405.2
1466.23982	23673.6
1469.64898	23903.5
1473.05586	24108.4
1476.46045	24153.4
1479.86276	24109.4
1483.26279	24054.4
1486.66054	24085.4
1490.05602	24289.7
1493.44922	24597.5
1496.84016	25098.7
1500.22882	25950
1503.61521	27081.3
1506.99934	28366
1510.38121	29409.4
1513.76081	29759.8
1517.13816	29027.4
1520.51324	27700.7
1523.88607	26502.6
1527.25665	25773.5
1530.62498	25441.7
1533.99105	25260.1
1537.35488	24945.3
1540.71647	24598.9
1544.07581	24154.7
1547.4329	23777.4
1550.78776	23412
1554.14038	23163.5
1557.49077	23107
1560.83892	23110.6
1564.18484	23236.4
1567.52853	23382.9
1570.86999	23665.2
1574.20922	24014.8
1577.54624	24190.5
1580.88103	24170.2
1584.2136	23961.3
1587.54395	24144.3
1590.87208	24621.1
1594.19801	25442.7
1597.52172	26251.6
1600.84321	26503.1
1604.16251	25874.9
1607.47959	24614.8
1610.79447	23246.7
1614.10715	21947.2
1617.41763	20847.7
1620.7259	20129.6
1624.03199	19725.6
1627.33587	19713.8
1630.63757	20048.9
1633.93707	20733.4
1637.23439	21910.8
1640.52951	23725.7
1643.82246	25931.3
1647.11321	27895.1
1650.40179	28624.2
1653.68819	27390
1656.97241	24817.2
1660.25446	22055.8
1663.53433	20101.9
1666.81203	18844.1
1670.08756	18033.6
1673.36092	17533.3
1676.63211	17211.5
1679.90115	16963.6
1683.16801	16784.9
1686.43272	16668.6
1689.69527	16565.4
1692.95567	16484.2
1696.2139	16426.7
1699.46999	16434.1
1702.72392	16387.4
1705.97571	16354.1
1709.22535	16335.2
1712.47284	16258.6
1715.71819	16253.5
1718.96139	16274.9
1722.20246	16213.4
1725.44139	16146.8
1728.67818	16103.2
1731.91284	16020.5
1735.14537	15937.8
1738.37576	15862
1741.60403	15850.6
1744.83017	15799.1
1748.05418	15822.5
1751.27607	15783.4
1754.49584	15753.8
1757.71349	15764.1
1760.92903	15768.2
1764.14244	15706.7
1767.35375	15736
1770.56294	15687.9
1773.77002	15692.2
1776.97499	15635.6
1780.17785	15601.9
1783.37861	15560
1786.57727	15539.1
1789.77382	15490.3
1792.96828	15500.9
1796.16064	15457.7
1799.3509	15422.6
1802.53907	15387.6
1805.72514	15390.2
1808.90913	15354.2
1812.09102	15352.6
1815.27083	15259
1818.44856	15264.7
1821.6242	15251.5
1824.79776	15212.4
1827.96924	15187.2
1831.13864	15196.5
1834.30597	15165.9
1837.47122	15148.8
1840.6344	15147.1
1843.7955	15111.8
1846.95454	15130.6
1850.11151	15113.8
1853.26642	15092.9
1856.41926	15077
1859.57004	15077
1862.71876	15080
1865.86542	15055.3
1869.01003	15017.1
1872.15258	15002.3
1875.29308	14997.4
1878.43152	15006.9
1881.56792	14982.9
1884.70227	14958.4
1887.83457	14923.5
1890.96482	14903.7
1894.09304	14872.5
1897.21921	14837.9
1900.34335	14876.4
1903.46544	14899.4
1906.58551	14864.3
1909.70353	14820.7
1912.81953	14770.7
1915.93349	14762
1919.04543	14760.8
1922.15534	14727.4
1925.26322	14674.3
1928.36908	14664.6
1931.47292	14656.8
1934.57473	14630.6
1937.67453	14583.1
1940.77232	14536.2
1943.86808	14508.4
1946.96184	14466.4
1950.05358	14426.1
1953.14331	14406.7
1956.23103	14381.3
1959.31675	14332.1
1962.40046	14295
1965.48217	14274.3
1968.56188	14215.6
1971.63959	14162.1
1974.7153	14121
1977.78901	14094.7
1980.86073	14064.3
1983.93046	14005.8
1986.99819	13966.9
1990.06394	13931.4
1993.1277	13900.2
1996.18947	13823.3
1999.24925	13812.7
2002.30706	13770.8
2005.36288	13731
2008.41672	13661.2
2011.46859	13630.5
2014.51848	13616.8
2017.56639	13580.9
2020.61233	13584.4
2023.6563	13558
2026.6983	13489.7
2029.73833	13473.8
2032.7764	13434.2
2035.8125	13384.1
2038.84664	13338.5
2041.87881	13328.6
2044.90903	13257.3
2047.93729	13272
2050.96359	13258.6
2053.98794	13233.6
2057.01034	13231.8
2060.03078	13213.9
2063.04927	13212.8
2066.06582	13222.5
2069.08042	13206.5
2072.09307	13222.3
2075.10378	13207
2078.11255	13185.1
2081.11938	13177.5
2084.12426	13173.1
2087.12722	13156.6
2090.12824	13158
2093.12732	13134
2096.12447	13161.9
2099.11969	13124.4
2102.11299	13114
2105.10435	13149
2108.09379	13149.9
2111.08131	13177.2
2114.0669	13158.1
2117.05057	13178
2120.03233	13165.8
2123.01216	13192.8
2125.99008	13214.8
2128.96609	13198.1
2131.94018	13238.2
2134.91236	13245.9
2137.88263	13225.1
2140.851	13255.9
2143.81746	13276
2146.78201	13246
2149.74466	13278.3
2152.7054	13267.2
2155.66425	13266.2
2158.6212	13236.3
2161.57625	13231.3
2164.52941	13236.4
2167.48067	13225.7
2170.43004	13214.9
2173.37752	13244.6
2176.32311	13210.1
2179.26681	13201
2182.20863	13177.3
2185.14856	13191
2188.08661	13196.2
2191.02278	13237.6
2193.95707	13199.2
2196.88948	13214.2
2199.82001	13180.5
2202.74867	13159
2205.67545	13146.6
2208.60037	13133.1
2211.52341	13115.3
2214.44458	13081.3
2217.36388	13099.3
2220.28132	13057
2223.1969	13023.1
2226.11061	13016.2
2229.02246	12979.6
2231.93245	12914
2234.84058	12899.9
2237.74686	12913.2
2240.65128	12881.1
2243.55385	12882.4
2246.45456	12844.9
2249.35343	12824.3
2252.25044	12815.2
2255.14561	12797.9
2258.03893	12791.5
2260.93041	12771.9
2263.82004	12728.2
2266.70783	12716.5
2269.59378	12662.3
2272.4779	12618.5
2275.36017	12598.4
2278.24061	12579.3
2281.11922	12558.8
2283.996	12546.6
2286.87094	12555.5
2289.74405	12546
2292.61534	12538
2295.4848	12525.1
2298.35243	12524.5
2301.21824	12497.8
2304.08223	12473.4
2306.94439	12477.6
2309.80474	12459.3
2312.66327	12420.7
2315.51999	12417.6
2318.37489	12427.3
2321.22797	12419.5
2324.07925	12390.9
2326.92871	12380.5
2329.77637	12341
2332.62222	12334.7
2335.46626	12320.4
2338.3085	12299.3
2341.14893	12293.8
2343.98756	12276.7
2346.8244	12279.4
2349.65943	12261.6
2352.49267	12241.4
2355.32411	12259.8
2358.15376	12230.3
2360.98161	12248.4
2363.80768	12263.8
2366.63195	12244.6
2369.45444	12225.2
2372.27514	12198
2375.09405	12189.8
2377.91118	12166.6
2380.72652	12136.2
2383.54009	12121.8
2386.35187	12081.4
2389.16188	12015.8
2391.97011	12048.9
2394.77657	12010.1
2397.58125	11997.3
2400.38416	11943.1
2403.18529	11944.8
2405.98466	11952
2408.78226	11941.3
2411.57809	11937.2
2414.37216	11905
2417.16446	11890.4
2419.955	11860.5
2422.74378	11856.2
2425.5308	11832.8
2428.31606	11830.5
2431.09956	11841.8
2433.88131	11811.9
2436.6613	11819.2
2439.43954	11795.5
2442.21603	11767.7
2444.99077	11758.1
2447.76377	11749.9
2450.53501	11782.9
2453.30451	11776.1
2456.07226	11714.1
2458.83827	11742.7
2461.60254	11740.1
2464.36507	11712.6
2467.12586	11708.2
2469.88492	11692.1
2472.64224	11692.4
2475.39782	11680.7
2478.15167	11718.5
2480.90379	11700.7
2483.65417	11703.6
2486.40283	11694
2489.14976	11689.5
2491.89497	11673.9
2494.63845	11680.2
2497.3802	11662.3
2500.12024	11652.9
2502.85855	11629.2
2505.59514	11616.7
2508.33002	11610
2511.06318	11613.1
2513.79462	11588.3
2516.52435	11579.8
2519.25237	11515.7
2521.97867	11520.7
2524.70327	11518.9
2527.42616	11484
2530.14734	11482.1
2532.86681	11459
2535.58458	11467.4
2538.30065	11472.4
2541.01501	11443.2
2543.72768	11408.7
2546.43864	11441.8
2549.14791	11406.4
2551.85548	11419.6
2554.56136	11376.9
2557.26554	11348.1
2559.96803	11330.8
2562.66883	11316.9
2565.36794	11304.9
2568.06536	11281
2570.7611	11241.5
2573.45514	11228.4
2576.14751	11224.6
2578.83819	11193.9
2581.52719	11185.1
2584.21451	11190.9
2586.90015	11171.4
2589.58411	11133.4
2592.2664	11118.5
2594.94701	11085.9
2597.62594	11102.1
2600.30321	11060.7
2602.9788	11072.9
2605.65273	11042.9
2608.32498	11032.7
2610.99557	11034.9
2613.66449	11023.4
2616.33175	11015
2618.99734	11014.5
2621.66128	10999.1
2624.32355	10979.9
2626.98416	10955
2629.64311	10942.4
2632.30041	10933
2634.95605	10904.1
2637.61004	10873.1
2640.26238	10863.2
2642.91306	10885.7
2645.56209	10874.2
2648.20948	10857.5
2650.85521	10838.8
2653.4993	10851.8
2656.14175	10855.9
2658.78255	10862.9
2661.42171	10866.2
2664.05923	10842
2666.6951	10865.8
2669.32934	10876.4
2671.96194	10848.8
2674.59291	10846.2
2677.22224	10819.3
2679.84993	10864.5
2682.476	10825.4
2685.10043	10838
2687.72324	10823.2
2690.34441	10847.7
2692.96396	10838.5
2695.58188	10806.9
2698.19818	10807
2700.81285	10834.7
2703.4259	10836.2
2706.03733	10837.3
2708.64714	10813.4
2711.25533	10822.1
2713.86191	10830.1
2716.46687	10820
2719.07021	10864.2
2721.67194	10849.9
2724.27206	10827
2726.87057	10839
2729.46747	10831
2732.06276	10853.2
2734.65644	10830
2737.24852	10826.5
2739.83899	10825.6
2742.42786	10811.6
2745.01513	10781.4
2747.60079	10803.1
2750.18486	10753.9
2752.76733	10763.3
2755.3482	10724
2757.92747	10710.5
2760.50515	10704.1
2763.08123	10685.4
2765.65573	10664.7
2768.22863	10693.6
2770.79994	10631.7
2773.36967	10669.6
2775.9378	10627.8
2778.50435	10638.5
2781.06932	10641.6
2783.6327	10604.6
2786.1945	10614.6
2788.75471	10599.5
2791.31335	10567.6
2793.87041	10559.5
2796.42589	10517.2
2798.97979	10547.9
2801.53212	10532.8
2804.08288	10506.4
2806.63206	10459.9
2809.17967	10461.5
2811.72571	10402.4
2814.27018	10405.3
2816.81308	10365.4
2819.35442	10347
2821.89419	10349.6
2824.43239	10342.6
2826.96904	10313.3
2829.50412	10312
2832.03763	10284.9
2834.56959	10308.4
2837.1	10292.4
2839.62884	10294.1
2842.15613	10310.7
2844.68186	10327.7
2847.20604	10337.4
2849.72867	10336
2852.24974	10329.6
2854.76927	10341.9
2857.28724	10286.9
2859.80367	10271
2862.31855	10251
2864.83189	10243.9
2867.34368	10214.2
2869.85393	10223.5
2872.36264	10214.7
2874.8698	10216.9
2877.37543	10198.5
2879.87952	10194.9
2882.38207	10171.9
2884.88308	10156.1
2887.38256	10158.9
2889.88051	10165.3
2892.37692	10174.9
2894.8718	10160.5
2897.36515	10201.4
2899.85698	10195.4
2902.34727	10198.1
2904.83604	10202.5
2907.32328	10214.7
2909.809	10203
2912.29319	10214
2914.77587	10235.3
2917.25702	10192.9
2919.73665	10213.6
2922.21476	10182.6
2924.69136	10165.9
2927.16644	10186.4
2929.64	10183.8
2932.11205	10162.7
2934.58258	10127.7
2937.05161	10154.1
2939.51912	10137.8
2941.98513	10123.7
2944.44962	10092.4
2946.91261	10081
2949.37409	10063.1
2951.83407	10060.1
2954.29254	10046.7
2956.74951	10032.3
2959.20498	10067.3
2961.65895	10045.1
2964.11142	10037.5
2966.56239	10027.9
2969.01186	10036.9
2971.45984	9999.9
2973.90632	9996.4
2976.35131	9984
2978.7948	9947.8
2981.23681	9927.1
2983.67732	9874.2
2986.11635	9876.2
2988.55388	9871.6
2990.98993	9829.6
2993.4245	9802.9
2995.85758	9799.1
2998.28917	9775.8
3000.71928	9757.4
3003.14791	9734.6
3005.57506	9754.4
3008.00073	9715.3
3010.42493	9714.6
3012.84764	9698.6
3015.26888	9672.6
3017.68865	9653.9
3020.10694	9668.3
3022.52376	9638
3024.9391	9626.8
3027.35298	9621.2
3029.76539	9593.2
3032.17632	9582.7
3034.5858	9568
3036.9938	9570.8
3039.40034	9589.5
3041.80542	9554.2
3044.20903	9539.4
3046.61118	9565.9
3049.01187	9530.1
3051.4111	9532.9
3053.80888	9498.7
3056.20519	9473.9
3058.60005	9452.6
3060.99345	9426.8
3063.3854	9419.8
3065.7759	9404.1
3068.16494	9385.4
3070.55254	9355.6
3072.93868	9361.9
3075.32338	9337.5
3077.70662	9333.7
3080.08842	9269.4
3082.46878	9274
3084.84769	9280.8
3087.22515	9264.5
3089.60118	9281.8
3091.97576	9285.7
3094.3489	9285.3
3096.72061	9277.6
3099.09087	9250.3
3101.4597	9247.4
3103.82709	9240.6
3106.19305	9207.8
3108.55757	9207.9
3110.92066	9217
3113.28232	9235.4
3115.64255	9211.4
3118.00134	9180.3
3120.35871	9182.5
3122.71466	9176.3
3125.06917	9142
3127.42226	9115
3129.77393	9118.9
3132.12417	9121.1
3134.47299	9128.6
3136.82039	9122.5
3139.16636	9126.9
3141.51092	9129.3
3143.85406	9111.8
3146.19579	9107.7
3148.53609	9108.8
3150.87499	9142.8
3153.21246	9103.3
3155.54853	9129.8
3157.88318	9120.7
3160.21642	9142.2
3162.54826	9128.4
3164.87868	9132.3
3167.2077	9145.7
3169.5353	9171.7
3171.86151	9139.3
3174.18631	9146.1
3176.5097	9122.6
3178.83169	9130.3
3181.15228	9126
3183.47147	9113.9
3185.78926	9094.6
3188.10565	9073.2
3190.42065	9071
3192.73424	9054.8
3195.04645	9050.4
3197.35725	9054.1
3199.66667	9044.7
3201.97469	9047.8
3204.28132	9042.6
3206.58656	9062.7
3208.8904	9075.2
3211.19287	9072.3
3213.49394	9068.3
3215.79363	9067.8
3218.09193	9086.5
3220.38884	9076.9
3222.68438	9054.1
3224.97853	9045.8
3227.2713	9056.8
3229.56269	9042.7
3231.8527	9025.4
3234.14133	9019.1
3236.42858	9014.1
3238.71446	8995.7
3240.99896	8948.2
3243.28209	8950.1
3245.56384	8953.4
3247.84423	8960.8
3250.12324	8947
3252.40088	8960
3254.67715	8913.8
3256.95205	8914.3
3259.22558	8904.7
3261.49775	8892.4
3263.76855	8913.2
3266.03799	8870.4
3268.30606	8868.8
3270.57277	8834.3
3272.83812	8831.7
3275.10211	8793.9
3277.36474	8818
3279.62601	8785.9
3281.88593	8744
3284.14448	8765.7
3286.40168	8768.2
3288.65753	8784.6
3290.91202	8750.5
3293.16516	8750.5
3295.41695	8703
3297.66738	8690.7
3299.91647	8617.6
3302.16421	8587.7
3304.4106	8537.6
3306.65564	8519.6
3308.89933	8434
3311.14169	8376.1
3313.38269	8307.7
3315.62236	8226.4
3317.86068	8154.4
3320.09766	8104.9
3322.3333	8060.2
3324.5676	8029.6
3326.80056	7885
3329.03219	7856.1
3331.26248	3.4
3333.49143	0.2
3335.71905	-0.9
