Data from AgNP_FTO_APTES_UA_10uM_CRN_0uM_R6G_10uM_NaF_0.1M_Addition_RamanShift__15__12-25-50-454.txt Node

Date: Thu Feb 10 12:25:50 GMT 2022
User: TCL
Spectrometer: QEP01345
Trigger mode: 4
Integration Time (sec): 7.000000E0
Scans to average: 10
Electric dark correction enabled: true
Nonlinearity correction enabled: false
Boxcar width: 0
XAxis mode: Raman Shifts
Number of Pixels in Spectrum: 1044
>>>>>Begin Spectral Data<<<<<
46.04893	-0.4625
50.45542	-0.5625
54.85868	-2.4625
59.25871	-0.1625
63.6555	58.0375
68.04907	58.8375
72.43941	62.2375
76.82654	62.5375
81.21044	66.4375
85.59113	69.3375
89.96862	71.9375
94.34289	77.2375
98.71396	74.8375
103.08183	77.8375
107.4465	82.0375
111.80798	81.1375
116.16626	85.1375
120.52136	89.1375
124.87327	90.4375
129.222	97.7375
133.56755	105.9375
137.90993	111.7375
142.24913	119.8375
146.58517	133.0375
150.91804	158.5375
155.24774	189.1375
159.57429	234.8375
163.89768	306.7375
168.21792	407.0375
172.53501	553.7375
176.84895	775.5375
181.15975	1090.8375
185.46741	1534.1375
189.77193	2128.9375
194.07331	2832.4375
198.37157	3660.1375
202.6667	4527.0375
206.9587	5387.1375
211.24758	6240.2375
215.53334	7106.9375
219.81599	8050.9375
224.09553	9077.5375
228.37195	10198.3375
232.64527	11462.7375
236.91549	12754.3375
241.18261	14019.5375
245.44663	15154.1375
249.70755	16129.4375
253.96539	16946.8375
258.22014	17667.8375
262.4718	18234.1375
266.72039	18711.0375
270.96589	18902.9375
275.20832	18909.6375
279.44768	18725.9375
283.68397	18424.0375
287.91719	18248.6375
292.14735	18134.2375
296.37445	18205.6375
300.59849	18332.3375
304.81948	18563.2375
309.03742	18697.7375
313.25231	18601.8375
317.46415	18149.1375
321.67296	17409.4375
325.87872	16775.8375
330.08145	16473.0375
334.28114	16397.0375
338.47781	16540.3375
342.67145	16790.7375
346.86207	17133.9375
351.04966	17628.7375
355.23424	18214.0375
359.4158	18663.0375
363.59435	19005.1375
367.76989	19150.0375
371.94243	19197.5375
376.11196	19229.8375
380.27849	19224.8375
384.44203	19228.0375
388.60257	19331.4375
392.76012	19457.7375
396.91468	19687.8375
401.06626	20014.1375
405.21485	20236.0375
409.36047	20034.6375
413.50311	19517.6375
417.64277	19077.9375
421.77947	18908.0375
425.9132	18911.9375
430.04396	18926.2375
434.17176	18961.7375
438.2966	19047.4375
442.41849	19296.5375
446.53742	19696.8375
450.6534	20173.1375
454.76644	20515.3375
458.87653	20584.4375
462.98368	20498.4375
467.08789	20285.4375
471.18916	20039.2375
475.2875	19704.9375
479.38291	19535.4375
483.4754	19478.0375
487.56496	19329.9375
491.6516	19139.9375
495.73531	18970.4375
499.81612	18915.5375
503.89401	19056.9375
507.96899	19107.5375
512.04106	19156.9375
516.11023	19119.2375
520.1765	19052.7375
524.23987	18873.0375
528.30034	18718.1375
532.35792	18465.4375
536.41261	18212.3375
540.46441	17906.2375
544.51333	17795.0375
548.55936	17981.7375
552.60252	18382.5375
556.64279	18835.7375
560.6802	19101.2375
564.71473	19311.4375
568.7464	19660.0375
572.7752	20130.3375
576.80114	20333.3375
580.82422	20578.9375
584.84444	20931.0375
588.86181	21223.6375
592.87633	21376.3375
596.888	21364.8375
600.89682	21222.5375
604.9028	22088.9375
608.90594	25108.4375
612.90624	28724.1375
616.90371	27251.4375
620.89834	21637.7375
624.89015	18922.6375
628.87913	18437.8375
632.86528	18603.3375
636.84862	18714.0375
640.82913	18521.6375
644.80683	17934.5375
648.78172	17496.0375
652.75379	17398.0375
656.72306	17681.7375
660.68952	18128.1375
664.65319	18049.6375
668.61405	17554.8375
672.57211	17392.2375
676.52738	17411.1375
680.47986	17378.8375
684.42955	17264.4375
688.37646	17160.4375
692.32058	17200.3375
696.26192	17380.6375
700.20048	17662.3375
704.13626	17822.5375
708.06928	17796.8375
711.99952	17683.5375
715.927	17601.7375
719.85171	17650.6375
723.77365	17591.2375
727.69284	17384.8375
731.60928	17149.6375
735.52295	17070.3375
739.43388	17058.1375
743.34206	17132.0375
747.24749	17219.0375
751.15017	17320.3375
755.05012	17603.3375
758.94733	18166.9375
762.8418	19334.6375
766.73354	21321.1375
770.62254	23329.9375
774.50882	23981.8375
778.39237	22917.0375
782.27321	20992.6375
786.15132	19250.9375
790.02671	18083.1375
793.89938	17496.0375
797.76935	17242.9375
801.6366	17134.3375
805.50115	17062.2375
809.36299	16920.6375
813.22213	16749.9375
817.07857	16654.7375
820.93231	16583.1375
824.78336	16549.8375
828.63172	16492.8375
832.47738	16506.3375
836.32036	16505.2375
840.16066	16462.0375
843.99827	16481.5375
847.8332	16475.5375
851.66546	16438.0375
855.49504	16449.6375
859.32195	16459.2375
863.1462	16405.7375
866.96777	16352.9375
870.78668	16364.3375
874.60293	16364.0375
878.41652	16396.4375
882.22745	16437.7375
886.03573	16539.2375
889.84136	16563.6375
893.64433	16557.3375
897.44466	16527.5375
901.24235	16477.4375
905.0374	16421.2375
908.8298	16286.2375
912.61957	16265.5375
916.40671	16351.9375
920.19121	16505.3375
923.97308	16751.0375
927.75233	16915.6375
931.52895	16945.3375
935.30295	16732.3375
939.07433	16315.4375
942.84309	15956.8375
946.60924	15772.6375
950.37278	15683.6375
954.13371	15665.0375
957.89203	15586.3375
961.64774	15539.6375
965.40086	15497.3375
969.15137	15463.3375
972.89929	15421.2375
976.64461	15375.1375
980.38733	15383.0375
984.12747	15409.2375
987.86502	15484.4375
991.59999	15652.5375
995.33237	15895.0375
999.06217	16248.8375
1002.78939	16681.7375
1006.51404	17064.4375
1010.23611	17367.0375
1013.95561	17531.9375
1017.67255	17582.3375
1021.38692	17391.7375
1025.09872	17143.6375
1028.80796	17026.4375
1032.51465	17209.2375
1036.21877	17433.4375
1039.92035	17506.2375
1043.61937	17412.9375
1047.31584	17193.0375
1051.00976	16933.2375
1054.70114	16833.6375
1058.38998	16836.2375
1062.07627	16936.4375
1065.76003	17046.7375
1069.44126	17220.2375
1073.11995	17484.8375
1076.79611	17887.8375
1080.46974	18071.1375
1084.14085	18277.2375
1087.80943	18636.5375
1091.47549	18852.1375
1095.13903	18786.6375
1098.80005	18455.4375
1102.45857	17992.0375
1106.11456	17628.7375
1109.76805	17453.8375
1113.41903	17423.4375
1117.06751	17606.4375
1120.71348	17851.1375
1124.35696	18171.0375
1127.99793	18548.5375
1131.63641	18772.2375
1135.2724	18508.4375
1138.90589	18204.5375
1142.5369	17997.5375
1146.16542	17844.7375
1149.79145	17791.4375
1153.415	17820.0375
1157.03607	18011.5375
1160.65467	18469.4375
1164.27079	19305.8375
1167.88443	20391.4375
1171.49561	21842.0375
1175.10432	23869.4375
1178.71056	26415.7375
1182.31434	28770.4375
1185.91565	30083.2375
1189.51451	30092.7375
1193.11091	29024.8375
1196.70485	27386.5375
1200.29634	25669.0375
1203.88538	24287.2375
1207.47197	23258.1375
1211.05612	22445.5375
1214.63782	21837.7375
1218.21708	21486.9375
1221.79391	21350.3375
1225.36829	21355.2375
1228.94024	21240.8375
1232.50976	21024.5375
1236.07685	20826.1375
1239.6415	20664.5375
1243.20374	20544.7375
1246.76355	20543.7375
1250.32093	20751.8375
1253.8759	21194.3375
1257.42845	21859.4375
1260.97859	22671.2375
1264.52631	23518.5375
1268.07163	24393.7375
1271.61453	25224.8375
1275.15503	25984.6375
1278.69312	26643.7375
1282.22882	27168.9375
1285.76211	27695.7375
1289.29301	28262.1375
1292.82151	29079.6375
1296.34761	30036.6375
1299.87133	31473.4375
1303.39266	33410.0375
1306.9116	35824.1375
1310.42815	38378.9375
1313.94233	40145.5375
1317.45412	40183.6375
1320.96354	39167.8375
1324.47058	38019.3375
1327.97525	37049.1375
1331.47754	36307.6375
1334.97747	35806.6375
1338.47502	35513.8375
1341.97022	35325.2375
1345.46305	35172.5375
1348.95352	35155.9375
1352.44163	35459.7375
1355.92738	36388.9375
1359.41078	38430.4375
1362.89183	40709.8375
1366.37053	40383.2375
1369.84688	36593.9375
1373.32088	31926.8375
1376.79254	28592.2375
1380.26186	27010.7375
1383.72883	26333.8375
1387.19347	25875.4375
1390.65578	25351.7375
1394.11575	25119.1375
1397.57339	25210.3375
1401.0287	25571.8375
1404.48168	25956.1375
1407.93234	26042.3375
1411.38068	25780.1375
1414.82669	25231.2375
1418.27039	24431.8375
1421.71177	23683.6375
1425.15083	23004.3375
1428.58758	22612.2375
1432.02203	22742.4375
1435.45416	23103.8375
1438.88399	23607.6375
1442.31151	23954.4375
1445.73673	24302.9375
1449.15965	24633.7375
1452.58027	24803.6375
1455.9986	24918.5375
1459.41463	25142.5375
1462.82837	25619.1375
1466.23982	26153.0375
1469.64898	26641.3375
1473.05586	26862.3375
1476.46045	26836.5375
1479.86276	26667.2375
1483.26279	26565.5375
1486.66054	26680.2375
1490.05602	27003.7375
1493.44922	27534.2375
1496.84016	28395.3375
1500.22882	29755.4375
1503.61521	31642.2375
1506.99934	33905.8375
1510.38121	35849.9375
1513.76081	36393.7375
1517.13816	35016.3375
1520.51324	32353.4375
1523.88607	29797.7375
1527.25665	28028.2375
1530.62498	26976.2375
1533.99105	26412.6375
1537.35488	25974.1375
1540.71647	25547.4375
1544.07581	25054.2375
1547.4329	24638.5375
1550.78776	24338.6375
1554.14038	24099.9375
1557.49077	24135.9375
1560.83892	24233.4375
1564.18484	24445.8375
1567.52853	24737.0375
1570.86999	25065.7375
1574.20922	25392.6375
1577.54624	25553.8375
1580.88103	25175.5375
1584.2136	24675.2375
1587.54395	24749.8375
1590.87208	25582.4375
1594.19801	27098.6375
1597.52172	28819.0375
1600.84321	29349.6375
1604.16251	28214.1375
1607.47959	26213.7375
1610.79447	24146.2375
1614.10715	22093.1375
1617.41763	20345.8375
1620.7259	19198.0375
1624.03199	18566.6375
1627.33587	18506.5375
1630.63757	19050.2375
1633.93707	20326.5375
1637.23439	22315.6375
1640.52951	25176.8375
1643.82246	28536.8375
1647.11321	31370.3375
1650.40179	32482.9375
1653.68819	30796.4375
1656.97241	26823.3375
1660.25446	22600.3375
1663.53433	19451.2375
1666.81203	17399.7375
1670.08756	16182.1375
1673.36092	15450.1375
1676.63211	14946.0375
1679.90115	14624.3375
1683.16801	14386.4375
1686.43272	14213.2375
1689.69527	14067.5375
1692.95567	13957.3375
1696.2139	13906.1375
1699.46999	13856.9375
1702.72392	13813.7375
1705.97571	13782.0375
1709.22535	13737.7375
1712.47284	13728.7375
1715.71819	13678.9375
1718.96139	13628.1375
1722.20246	13584.4375
1725.44139	13501.4375
1728.67818	13439.1375
1731.91284	13331.3375
1735.14537	13231.4375
1738.37576	13183.4375
1741.60403	13133.4375
1744.83017	13095.0375
1748.05418	13052.7375
1751.27607	13026.1375
1754.49584	12981.2375
1757.71349	12942.7375
1760.92903	12898.4375
1764.14244	12889.2375
1767.35375	12910.1375
1770.56294	12899.9375
1773.77002	12859.4375
1776.97499	12823.7375
1780.17785	12794.6375
1783.37861	12777.3375
1786.57727	12760.0375
1789.77382	12710.0375
1792.96828	12682.9375
1796.16064	12671.7375
1799.3509	12643.4375
1802.53907	12637.5375
1805.72514	12592.4375
1808.90913	12527.7375
1812.09102	12497.1375
1815.27083	12497.3375
1818.44856	12490.4375
1821.6242	12430.3375
1824.79776	12450.1375
1827.96924	12426.2375
1831.13864	12451.3375
1834.30597	12447.4375
1837.47122	12455.6375
1840.6344	12493.0375
1843.7955	12491.2375
1846.95454	12496.6375
1850.11151	12454.5375
1853.26642	12497.8375
1856.41926	12500.0375
1859.57004	12518.4375
1862.71876	12511.7375
1865.86542	12471.4375
1869.01003	12447.4375
1872.15258	12466.4375
1875.29308	12445.6375
1878.43152	12445.0375
1881.56792	12414.4375
1884.70227	12391.0375
1887.83457	12386.6375
1890.96482	12367.8375
1894.09304	12322.0375
1897.21921	12307.1375
1900.34335	12282.7375
1903.46544	12272.9375
1906.58551	12246.7375
1909.70353	12237.2375
1912.81953	12181.0375
1915.93349	12156.1375
1919.04543	12096.3375
1922.15534	12052.4375
1925.26322	12005.9375
1928.36908	11978.8375
1931.47292	11929.9375
1934.57473	11893.0375
1937.67453	11860.5375
1940.77232	11823.5375
1943.86808	11750.3375
1946.96184	11705.9375
1950.05358	11673.9375
1953.14331	11634.5375
1956.23103	11578.0375
1959.31675	11558.7375
1962.40046	11536.1375
1965.48217	11499.9375
1968.56188	11457.4375
1971.63959	11407.5375
1974.7153	11390.7375
1977.78901	11331.1375
1980.86073	11302.7375
1983.93046	11257.7375
1986.99819	11233.1375
1990.06394	11211.2375
1993.1277	11166.1375
1996.18947	11124.3375
1999.24925	11106.9375
2002.30706	11038.9375
2005.36288	11028.4375
2008.41672	10995.2375
2011.46859	10964.7375
2014.51848	10944.7375
2017.56639	10924.7375
2020.61233	10869.3375
2023.6563	10846.5375
2026.6983	10834.4375
2029.73833	10812.2375
2032.7764	10768.7375
2035.8125	10750.7375
2038.84664	10737.4375
2041.87881	10705.3375
2044.90903	10691.0375
2047.93729	10689.6375
2050.96359	10674.7375
2053.98794	10642.5375
2057.01034	10636.9375
2060.03078	10610.6375
2063.04927	10633.1375
2066.06582	10611.8375
2069.08042	10611.6375
2072.09307	10608.9375
2075.10378	10587.3375
2078.11255	10556.8375
2081.11938	10580.5375
2084.12426	10539.0375
2087.12722	10535.7375
2090.12824	10534.3375
2093.12732	10533.1375
2096.12447	10552.7375
2099.11969	10534.6375
2102.11299	10557.0375
2105.10435	10557.3375
2108.09379	10558.4375
2111.08131	10561.1375
2114.0669	10567.1375
2117.05057	10569.5375
2120.03233	10571.0375
2123.01216	10589.6375
2125.99008	10572.8375
2128.96609	10582.0375
2131.94018	10586.6375
2134.91236	10628.9375
2137.88263	10594.3375
2140.851	10607.7375
2143.81746	10610.8375
2146.78201	10613.0375
2149.74466	10577.8375
2152.7054	10570.0375
2155.66425	10584.2375
2158.6212	10586.2375
2161.57625	10562.1375
2164.52941	10571.1375
2167.48067	10547.1375
2170.43004	10540.1375
2173.37752	10556.9375
2176.32311	10554.1375
2179.26681	10536.6375
2182.20863	10537.0375
2185.14856	10548.8375
2188.08661	10515.1375
2191.02278	10538.2375
2193.95707	10533.1375
2196.88948	10524.7375
2199.82001	10529.1375
2202.74867	10491.9375
2205.67545	10510.1375
2208.60037	10493.6375
2211.52341	10477.9375
2214.44458	10462.2375
2217.36388	10427.9375
2220.28132	10437.0375
2223.1969	10395.5375
2226.11061	10390.1375
2229.02246	10387.3375
2231.93245	10350.2375
2234.84058	10297.5375
2237.74686	10298.2375
2240.65128	10288.3375
2243.55385	10256.8375
2246.45456	10244.7375
2249.35343	10210.2375
2252.25044	10202.5375
2255.14561	10212.2375
2258.03893	10173.0375
2260.93041	10191.9375
2263.82004	10156.1375
2266.70783	10128.4375
2269.59378	10095.4375
2272.4779	10085.6375
2275.36017	10049.7375
2278.24061	10049.5375
2281.11922	10016.6375
2283.996	10001.5375
2286.87094	9999.0375
2289.74405	9956.4375
2292.61534	9948.2375
2295.4848	9945.9375
2298.35243	9961.9375
2301.21824	9935.2375
2304.08223	9968.0375
2306.94439	9959.2375
2309.80474	9935.1375
2312.66327	9945.7375
2315.51999	9951.6375
2318.37489	9931.7375
2321.22797	9932.3375
2324.07925	9892.2375
2326.92871	9915.2375
2329.77637	9896.1375
2332.62222	9896.8375
2335.46626	9856.1375
2338.3085	9864.0375
2341.14893	9880.3375
2343.98756	9888.2375
2346.8244	9862.3375
2349.65943	9881.9375
2352.49267	9893.9375
2355.32411	9867.4375
2358.15376	9877.1375
2360.98161	9876.5375
2363.80768	9872.2375
2366.63195	9876.3375
2369.45444	9862.3375
2372.27514	9824.9375
2375.09405	9801.3375
2377.91118	9811.2375
2380.72652	9756.2375
2383.54009	9752.9375
2386.35187	9702.8375
2389.16188	9699.9375
2391.97011	9659.1375
2394.77657	9603.3375
2397.58125	9614.8375
2400.38416	9606.7375
2403.18529	9584.6375
2405.98466	9566.4375
2408.78226	9559.2375
2411.57809	9521.3375
2414.37216	9519.4375
2417.16446	9496.4375
2419.955	9493.6375
2422.74378	9506.0375
2425.5308	9483.2375
2428.31606	9484.3375
2431.09956	9492.5375
2433.88131	9477.4375
2436.6613	9490.3375
2439.43954	9479.1375
2442.21603	9458.4375
2444.99077	9476.8375
2447.76377	9443.0375
2450.53501	9464.1375
2453.30451	9454.1375
2456.07226	9436.2375
2458.83827	9466.2375
2461.60254	9435.1375
2464.36507	9436.9375
2467.12586	9419.8375
2469.88492	9447.0375
2472.64224	9445.2375
2475.39782	9431.6375
2478.15167	9465.0375
2480.90379	9472.6375
2483.65417	9455.7375
2486.40283	9479.6375
2489.14976	9476.3375
2491.89497	9462.0375
2494.63845	9456.0375
2497.3802	9439.3375
2500.12024	9440.6375
2502.85855	9463.6375
2505.59514	9447.9375
2508.33002	9428.8375
2511.06318	9395.7375
2513.79462	9394.1375
2516.52435	9374.5375
2519.25237	9350.1375
2521.97867	9351.2375
2524.70327	9343.8375
2527.42616	9322.5375
2530.14734	9329.9375
2532.86681	9319.7375
2535.58458	9299.9375
2538.30065	9308.2375
2541.01501	9306.0375
2543.72768	9285.6375
2546.43864	9298.7375
2549.14791	9279.5375
2551.85548	9281.2375
2554.56136	9263.9375
2557.26554	9255.7375
2559.96803	9239.1375
2562.66883	9208.9375
2565.36794	9221.5375
2568.06536	9192.2375
2570.7611	9185.2375
2573.45514	9176.3375
2576.14751	9144.8375
2578.83819	9165.5375
2581.52719	9149.1375
2584.21451	9144.0375
2586.90015	9151.7375
2589.58411	9129.2375
2592.2664	9103.3375
2594.94701	9132.5375
2597.62594	9116.3375
2600.30321	9093.6375
2602.9788	9093.1375
2605.65273	9092.9375
2608.32498	9096.2375
2610.99557	9067.2375
2613.66449	9079.3375
2616.33175	9069.1375
2618.99734	9043.8375
2621.66128	9055.2375
2624.32355	9038.1375
2626.98416	9029.8375
2629.64311	9031.4375
2632.30041	9033.3375
2634.95605	9017.7375
2637.61004	9003.5375
2640.26238	8992.9375
2642.91306	8999.4375
2645.56209	8985.6375
2648.20948	8970.3375
2650.85521	8950.4375
2653.4993	8977.4375
2656.14175	8971.0375
2658.78255	8995.2375
2661.42171	8991.7375
2664.05923	9000.6375
2666.6951	9007.2375
2669.32934	9023.5375
2671.96194	9015.2375
2674.59291	9020.8375
2677.22224	8989.3375
2679.84993	8983.5375
2682.476	8988.5375
2685.10043	8998.6375
2687.72324	8978.5375
2690.34441	8961.0375
2692.96396	8955.5375
2695.58188	8941.8375
2698.19818	8931.0375
2700.81285	8919.7375
2703.4259	8940.3375
2706.03733	8939.4375
2708.64714	8914.9375
2711.25533	8953.6375
2713.86191	8948.6375
2716.46687	8971.8375
2719.07021	8962.9375
2721.67194	8973.5375
2724.27206	8996.8375
2726.87057	8990.6375
2729.46747	8987.1375
2732.06276	8998.9375
2734.65644	9011.3375
2737.24852	8985.2375
2739.83899	8970.5375
2742.42786	8990.9375
2745.01513	8943.4375
2747.60079	8952.6375
2750.18486	8921.1375
2752.76733	8926.9375
2755.3482	8892.2375
2757.92747	8905.1375
2760.50515	8876.7375
2763.08123	8899.3375
2765.65573	8871.0375
2768.22863	8869.0375
2770.79994	8892.8375
2773.36967	8877.8375
2775.9378	8869.2375
2778.50435	8853.4375
2781.06932	8848.7375
2783.6327	8867.7375
2786.1945	8878.0375
2788.75471	8832.9375
2791.31335	8846.3375
2793.87041	8834.6375
2796.42589	8828.1375
2798.97979	8812.2375
2801.53212	8791.9375
2804.08288	8777.9375
2806.63206	8756.3375
2809.17967	8741.0375
2811.72571	8724.7375
2814.27018	8688.7375
2816.81308	8666.2375
2819.35442	8670.5375
2821.89419	8671.2375
2824.43239	8669.9375
2826.96904	8666.6375
2829.50412	8674.0375
2832.03763	8655.0375
2834.56959	8645.7375
2837.1	8638.9375
2839.62884	8634.5375
2842.15613	8645.3375
2844.68186	8663.2375
2847.20604	8669.6375
2849.72867	8679.0375
2852.24974	8663.6375
2854.76927	8664.7375
2857.28724	8669.2375
2859.80367	8645.0375
2862.31855	8634.4375
2864.83189	8627.0375
2867.34368	8620.9375
2869.85393	8645.7375
2872.36264	8619.4375
2874.8698	8612.8375
2877.37543	8610.8375
2879.87952	8618.6375
2882.38207	8623.6375
2884.88308	8609.4375
2887.38256	8628.7375
2889.88051	8614.7375
2892.37692	8622.7375
2894.8718	8627.5375
2897.36515	8636.0375
2899.85698	8629.1375
2902.34727	8689.3375
2904.83604	8642.0375
2907.32328	8700.0375
2909.809	8679.6375
2912.29319	8676.8375
2914.77587	8675.9375
2917.25702	8654.3375
2919.73665	8670.9375
2922.21476	8688.1375
2924.69136	8663.9375
2927.16644	8641.1375
2929.64	8626.3375
2932.11205	8617.6375
2934.58258	8575.9375
2937.05161	8573.0375
2939.51912	8594.9375
2941.98513	8583.4375
2944.44962	8531.6375
2946.91261	8521.9375
2949.37409	8499.0375
2951.83407	8493.4375
2954.29254	8509.1375
2956.74951	8471.2375
2959.20498	8484.2375
2961.65895	8461.2375
2964.11142	8470.3375
2966.56239	8476.0375
2969.01186	8444.0375
2971.45984	8409.0375
2973.90632	8410.4375
2976.35131	8381.8375
2978.7948	8355.9375
2981.23681	8341.1375
2983.67732	8314.9375
2986.11635	8296.1375
2988.55388	8276.0375
2990.98993	8260.8375
2993.4245	8287.0375
2995.85758	8220.4375
2998.28917	8221.0375
3000.71928	8213.1375
3003.14791	8183.0375
3005.57506	8214.8375
3008.00073	8153.1375
3010.42493	8160.8375
3012.84764	8149.1375
3015.26888	8125.3375
3017.68865	8101.0375
3020.10694	8092.5375
3022.52376	8088.7375
3024.9391	8105.2375
3027.35298	8073.3375
3029.76539	8048.1375
3032.17632	8067.5375
3034.5858	8068.8375
3036.9938	8051.9375
3039.40034	8057.5375
3041.80542	8052.0375
3044.20903	8021.7375
3046.61118	8038.1375
3049.01187	7992.2375
3051.4111	7977.8375
3053.80888	7958.3375
3056.20519	7963.3375
3058.60005	7943.4375
3060.99345	7924.0375
3063.3854	7923.0375
3065.7759	7909.2375
3068.16494	7891.2375
3070.55254	7854.0375
3072.93868	7842.7375
3075.32338	7833.8375
3077.70662	7812.6375
3080.08842	7799.7375
3082.46878	7808.0375
3084.84769	7774.3375
3087.22515	7767.8375
3089.60118	7763.2375
3091.97576	7756.0375
3094.3489	7755.0375
3096.72061	7755.0375
3099.09087	7767.1375
3101.4597	7768.2375
3103.82709	7739.4375
3106.19305	7738.5375
3108.55757	7743.5375
3110.92066	7724.5375
3113.28232	7729.0375
3115.64255	7703.4375
3118.00134	7699.8375
3120.35871	7679.5375
3122.71466	7663.8375
3125.06917	7655.7375
3127.42226	7637.2375
3129.77393	7645.2375
3132.12417	7617.9375
3134.47299	7628.3375
3136.82039	7629.1375
3139.16636	7629.7375
3141.51092	7647.6375
3143.85406	7636.0375
3146.19579	7634.4375
3148.53609	7639.3375
3150.87499	7633.5375
3153.21246	7656.2375
3155.54853	7660.6375
3157.88318	7655.0375
3160.21642	7656.5375
3162.54826	7660.3375
3164.87868	7677.1375
3167.2077	7685.9375
3169.5353	7685.5375
3171.86151	7657.9375
3174.18631	7652.9375
3176.5097	7650.6375
3178.83169	7662.5375
3181.15228	7659.8375
3183.47147	7622.1375
3185.78926	7648.0375
3188.10565	7621.5375
3190.42065	7649.9375
3192.73424	7660.1375
3195.04645	7638.6375
3197.35725	7628.1375
3199.66667	7633.7375
3201.97469	7634.2375
3204.28132	7642.3375
3206.58656	7661.9375
3208.8904	7645.7375
3211.19287	7649.1375
3213.49394	7663.0375
3215.79363	7675.1375
3218.09193	7658.7375
3220.38884	7650.9375
3222.68438	7652.9375
3224.97853	7665.0375
3227.2713	7675.1375
3229.56269	7651.2375
3231.8527	7642.2375
3234.14133	7628.9375
3236.42858	7616.6375
3238.71446	7600.1375
3240.99896	7569.0375
3243.28209	7594.2375
3245.56384	7586.2375
3247.84423	7583.4375
3250.12324	7564.6375
3252.40088	7548.8375
3254.67715	7559.5375
3256.95205	7557.4375
3259.22558	7535.4375
3261.49775	7539.4375
3263.76855	7534.6375
3266.03799	7525.2375
3268.30606	7514.3375
3270.57277	7507.6375
3272.83812	7466.0375
3275.10211	7439.1375
3277.36474	7440.0375
3279.62601	7441.6375
3281.88593	7429.4375
3284.14448	7451.8375
3286.40168	7447.2375
3288.65753	7441.9375
3290.91202	7434.7375
3293.16516	7412.6375
3295.41695	7395.7375
3297.66738	7376.8375
3299.91647	7349.7375
3302.16421	7286.1375
3304.4106	7249.9375
3306.65564	7192.6375
3308.89933	7158.0375
3311.14169	7137.9375
3313.38269	7043.2375
3315.62236	7010.1375
3317.86068	6960.1375
3320.09766	6887.0375
3322.3333	6861.8375
3324.5676	6807.7375
3326.80056	6692.4375
3329.03219	6683.9375
3331.26248	3.4375
3333.49143	0.9375
3335.71905	-0.0625
