Data from AgNP_FTO_APTES_UA_10uM_CRN_0uM_R6G_10uM_NaF_0.1M_Addition_RamanShift__14__12-24-40-452.txt Node

Date: Thu Feb 10 12:24:40 GMT 2022
User: TCL
Spectrometer: QEP01345
Trigger mode: 4
Integration Time (sec): 7.000000E0
Scans to average: 10
Electric dark correction enabled: true
Nonlinearity correction enabled: false
Boxcar width: 0
XAxis mode: Raman Shifts
Number of Pixels in Spectrum: 1044
>>>>>Begin Spectral Data<<<<<
46.04893	0.7375
50.45542	-0.7625
54.85868	-1.7625
59.25871	-0.1625
63.6555	57.4375
68.04907	62.7375
72.43941	65.3375
76.82654	65.2375
81.21044	70.4375
85.59113	69.1375
89.96862	74.8375
94.34289	76.5375
98.71396	79.6375
103.08183	80.9375
107.4465	85.9375
111.80798	85.8375
116.16626	89.3375
120.52136	93.9375
124.87327	97.4375
129.222	102.1375
133.56755	110.4375
137.90993	116.0375
142.24913	124.4375
146.58517	140.0375
150.91804	168.9375
155.24774	197.4375
159.57429	249.3375
163.89768	311.4375
168.21792	422.0375
172.53501	576.5375
176.84895	809.4375
181.15975	1146.0375
185.46741	1602.8375
189.77193	2236.0375
194.07331	2980.5375
198.37157	3852.8375
202.6667	4783.5375
206.9587	5702.8375
211.24758	6610.6375
215.53334	7502.5375
219.81599	8472.7375
224.09553	9548.4375
228.37195	10708.0375
232.64527	11981.0375
236.91549	13351.0375
241.18261	14690.8375
245.44663	15972.2375
249.70755	17020.0375
253.96539	17992.7375
258.22014	18820.6375
262.4718	19476.8375
266.72039	19892.7375
270.96589	20127.5375
275.20832	20118.7375
279.44768	19878.5375
283.68397	19620.7375
287.91719	19347.6375
292.14735	19179.3375
296.37445	19157.4375
300.59849	19276.9375
304.81948	19408.0375
309.03742	19488.9375
313.25231	19409.2375
317.46415	19030.4375
321.67296	18436.5375
325.87872	17960.1375
330.08145	17739.3375
334.28114	17729.1375
338.47781	17850.2375
342.67145	18109.1375
346.86207	18471.0375
351.04966	18892.4375
355.23424	19377.1375
359.4158	19834.8375
363.59435	20110.3375
367.76989	20311.0375
371.94243	20383.7375
376.11196	20422.0375
380.27849	20422.3375
384.44203	20462.4375
388.60257	20538.9375
392.76012	20689.4375
396.91468	20933.0375
401.06626	21240.9375
405.21485	21490.1375
409.36047	21283.0375
413.50311	20821.9375
417.64277	20458.4375
421.77947	20331.2375
425.9132	20367.4375
430.04396	20420.2375
434.17176	20471.8375
438.2966	20589.1375
442.41849	20751.2375
446.53742	21102.2375
450.6534	21458.0375
454.76644	21751.3375
458.87653	21864.4375
462.98368	21826.1375
467.08789	21722.0375
471.18916	21569.7375
475.2875	21328.0375
479.38291	21073.4375
483.4754	21030.1375
487.56496	20956.0375
491.6516	20817.1375
495.73531	20669.9375
499.81612	20609.3375
503.89401	20702.6375
507.96899	20806.7375
512.04106	20899.8375
516.11023	20917.0375
520.1765	20833.9375
524.23987	20684.6375
528.30034	20511.1375
532.35792	20335.6375
536.41261	20125.7375
540.46441	19927.2375
544.51333	19854.3375
548.55936	19997.6375
552.60252	20317.5375
556.64279	20744.9375
560.6802	20968.9375
564.71473	21141.0375
568.7464	21444.0375
572.7752	21815.3375
576.80114	22057.3375
580.82422	22352.6375
584.84444	22779.1375
588.86181	23237.4375
592.87633	23542.9375
596.888	23488.0375
600.89682	23196.5375
604.9028	23707.5375
608.90594	26109.3375
612.90624	29069.8375
616.90371	27854.6375
620.89834	23175.0375
624.89015	20840.7375
628.87913	20465.7375
632.86528	20678.2375
636.84862	20848.6375
640.82913	20649.7375
644.80683	20173.9375
648.78172	19779.6375
652.75379	19675.2375
656.72306	19949.0375
660.68952	20377.9375
664.65319	20326.1375
668.61405	19898.9375
672.57211	19782.5375
676.52738	19823.6375
680.47986	19829.6375
684.42955	19648.0375
688.37646	19583.1375
692.32058	19659.4375
696.26192	19819.1375
700.20048	20024.0375
704.13626	20205.5375
708.06928	20256.9375
711.99952	20192.0375
715.927	20100.2375
719.85171	20106.1375
723.77365	20050.0375
727.69284	19839.4375
731.60928	19618.7375
735.52295	19513.5375
739.43388	19512.4375
743.34206	19542.6375
747.24749	19626.0375
751.15017	19774.2375
755.05012	19996.9375
758.94733	20470.0375
762.8418	21439.0375
766.73354	23120.8375
770.62254	24788.4375
774.50882	25292.3375
778.39237	24455.2375
782.27321	22951.9375
786.15132	21556.5375
790.02671	20546.3375
793.89938	19983.6375
797.76935	19730.0375
801.6366	19639.6375
805.50115	19524.4375
809.36299	19461.4375
813.22213	19294.5375
817.07857	19213.2375
820.93231	19198.2375
824.78336	19164.5375
828.63172	19139.8375
832.47738	19100.0375
836.32036	19054.8375
840.16066	19045.1375
843.99827	19037.2375
847.8332	19070.5375
851.66546	19049.1375
855.49504	19052.1375
859.32195	19082.7375
863.1462	19079.9375
866.96777	19035.9375
870.78668	19048.0375
874.60293	19051.2375
878.41652	19070.2375
882.22745	19172.0375
886.03573	19267.9375
889.84136	19275.5375
893.64433	19269.0375
897.44466	19279.0375
901.24235	19301.3375
905.0374	19227.6375
908.8298	19157.2375
912.61957	19156.9375
916.40671	19206.4375
920.19121	19334.9375
923.97308	19502.4375
927.75233	19601.0375
931.52895	19581.7375
935.30295	19373.3375
939.07433	19033.7375
942.84309	18706.3375
946.60924	18582.9375
950.37278	18490.9375
954.13371	18478.0375
957.89203	18402.0375
961.64774	18381.0375
965.40086	18361.8375
969.15137	18270.5375
972.89929	18244.0375
976.64461	18187.8375
980.38733	18183.6375
984.12747	18227.0375
987.86502	18254.9375
991.59999	18330.3375
995.33237	18449.7375
999.06217	18610.0375
1002.78939	18881.5375
1006.51404	19216.2375
1010.23611	19471.3375
1013.95561	19684.2375
1017.67255	19742.3375
1021.38692	19619.3375
1025.09872	19363.6375
1028.80796	19127.7375
1032.51465	19073.8375
1036.21877	19141.8375
1039.92035	19199.8375
1043.61937	19226.7375
1047.31584	19208.3375
1051.00976	19254.2375
1054.70114	19263.8375
1058.38998	19348.6375
1062.07627	19426.0375
1065.76003	19587.4375
1069.44126	19783.0375
1073.11995	20110.2375
1076.79611	20522.6375
1080.46974	20755.2375
1084.14085	20882.1375
1087.80943	21101.0375
1091.47549	21280.2375
1095.13903	21259.7375
1098.80005	21021.8375
1102.45857	20649.5375
1106.11456	20317.6375
1109.76805	20131.3375
1113.41903	20061.9375
1117.06751	20135.0375
1120.71348	20326.0375
1124.35696	20623.6375
1127.99793	20892.2375
1131.63641	21063.1375
1135.2724	20838.2375
1138.90589	20610.7375
1142.5369	20451.9375
1146.16542	20372.8375
1149.79145	20308.2375
1153.415	20334.0375
1157.03607	20463.4375
1160.65467	20850.5375
1164.27079	21591.9375
1167.88443	22481.9375
1171.49561	23656.4375
1175.10432	25237.7375
1178.71056	27260.2375
1182.31434	29126.7375
1185.91565	30182.1375
1189.51451	30286.8375
1193.11091	29606.5375
1196.70485	28440.9375
1200.29634	27077.9375
1203.88538	25913.6375
1207.47197	25069.3375
1211.05612	24409.4375
1214.63782	23845.8375
1218.21708	23328.9375
1221.79391	23010.1375
1225.36829	22787.5375
1228.94024	22673.2375
1232.50976	22602.0375
1236.07685	22521.9375
1239.6415	22434.5375
1243.20374	22381.7375
1246.76355	22416.2375
1250.32093	22562.5375
1253.8759	22869.8375
1257.42845	23442.2375
1260.97859	24099.9375
1264.52631	24854.9375
1268.07163	25544.8375
1271.61453	26157.4375
1275.15503	26666.5375
1278.69312	27149.6375
1282.22882	27551.2375
1285.76211	28095.8375
1289.29301	28697.0375
1292.82151	29478.3375
1296.34761	30317.0375
1299.87133	31528.9375
1303.39266	33013.3375
1306.9116	34717.1375
1310.42815	36535.7375
1313.94233	37573.9375
1317.45412	37398.3375
1320.96354	36640.7375
1324.47058	35992.3375
1327.97525	35421.6375
1331.47754	35021.1375
1334.97747	34685.1375
1338.47502	34550.3375
1341.97022	34521.8375
1345.46305	34716.4375
1348.95352	35044.9375
1352.44163	35526.6375
1355.92738	36115.1375
1359.41078	37429.4375
1362.89183	38931.1375
1366.37053	38565.3375
1369.84688	35439.2375
1373.32088	31562.7375
1376.79254	28828.3375
1380.26186	27558.3375
1383.72883	26911.2375
1387.19347	26462.4375
1390.65578	25974.6375
1394.11575	25716.3375
1397.57339	25728.1375
1401.0287	25833.7375
1404.48168	26008.1375
1407.93234	25876.8375
1411.38068	25642.6375
1414.82669	25180.2375
1418.27039	24651.4375
1421.71177	24115.4375
1425.15083	23613.8375
1428.58758	23352.6375
1432.02203	23438.5375
1435.45416	23817.7375
1438.88399	24141.1375
1442.31151	24387.5375
1445.73673	24614.1375
1449.15965	24842.1375
1452.58027	24944.6375
1455.9986	24991.5375
1459.41463	25141.9375
1462.82837	25513.9375
1466.23982	25898.5375
1469.64898	26208.3375
1473.05586	26403.2375
1476.46045	26466.3375
1479.86276	26422.2375
1483.26279	26458.1375
1486.66054	26621.8375
1490.05602	27053.7375
1493.44922	27731.8375
1496.84016	28696.8375
1500.22882	30107.0375
1503.61521	31963.6375
1506.99934	33902.7375
1510.38121	35411.1375
1513.76081	35715.7375
1517.13816	34501.3375
1520.51324	32270.2375
1523.88607	30210.4375
1527.25665	28808.8375
1530.62498	27938.6375
1533.99105	27346.1375
1537.35488	26823.9375
1540.71647	26342.1375
1544.07581	25799.2375
1547.4329	25337.5375
1550.78776	24998.8375
1554.14038	24766.6375
1557.49077	24812.5375
1560.83892	24922.8375
1564.18484	25220.7375
1567.52853	25505.2375
1570.86999	25828.9375
1574.20922	26152.5375
1577.54624	26322.7375
1580.88103	26014.4375
1584.2136	25555.9375
1587.54395	25519.4375
1590.87208	26013.6375
1594.19801	27014.6375
1597.52172	28167.6375
1600.84321	28447.7375
1604.16251	27544.8375
1607.47959	26157.1375
1610.79447	24644.2375
1614.10715	23078.3375
1617.41763	21721.7375
1620.7259	20694.9375
1624.03199	20176.1375
1627.33587	20119.7375
1630.63757	20562.2375
1633.93707	21476.5375
1637.23439	23162.8375
1640.52951	25623.8375
1643.82246	28508.7375
1647.11321	31162.2375
1650.40179	32211.7375
1653.68819	30816.3375
1656.97241	27412.6375
1660.25446	23831.1375
1663.53433	21064.9375
1666.81203	19354.0375
1670.08756	18276.6375
1673.36092	17650.9375
1676.63211	17193.8375
1679.90115	16924.6375
1683.16801	16720.3375
1686.43272	16563.1375
1689.69527	16434.8375
1692.95567	16341.3375
1696.2139	16258.7375
1699.46999	16231.5375
1702.72392	16182.6375
1705.97571	16137.7375
1709.22535	16145.9375
1712.47284	16109.5375
1715.71819	16106.5375
1718.96139	16025.6375
1722.20246	15980.0375
1725.44139	15910.0375
1728.67818	15807.3375
1731.91284	15729.3375
1735.14537	15631.4375
1738.37576	15590.8375
1741.60403	15542.6375
1744.83017	15483.7375
1748.05418	15441.7375
1751.27607	15401.3375
1754.49584	15368.8375
1757.71349	15347.7375
1760.92903	15327.5375
1764.14244	15326.6375
1767.35375	15329.1375
1770.56294	15303.1375
1773.77002	15260.8375
1776.97499	15225.1375
1780.17785	15186.5375
1783.37861	15171.8375
1786.57727	15126.5375
1789.77382	15101.6375
1792.96828	15054.2375
1796.16064	15070.1375
1799.3509	15030.3375
1802.53907	15010.1375
1805.72514	14928.5375
1808.90913	14885.4375
1812.09102	14847.1375
1815.27083	14860.2375
1818.44856	14843.5375
1821.6242	14799.6375
1824.79776	14804.1375
1827.96924	14796.8375
1831.13864	14801.4375
1834.30597	14793.6375
1837.47122	14799.7375
1840.6344	14824.3375
1843.7955	14827.9375
1846.95454	14832.3375
1850.11151	14792.8375
1853.26642	14798.7375
1856.41926	14787.9375
1859.57004	14793.2375
1862.71876	14784.0375
1865.86542	14762.6375
1869.01003	14717.5375
1872.15258	14684.3375
1875.29308	14659.3375
1878.43152	14628.9375
1881.56792	14616.5375
1884.70227	14596.0375
1887.83457	14545.9375
1890.96482	14523.9375
1894.09304	14444.0375
1897.21921	14402.7375
1900.34335	14435.9375
1903.46544	14364.8375
1906.58551	14365.9375
1909.70353	14299.8375
1912.81953	14295.8375
1915.93349	14303.0375
1919.04543	14217.2375
1922.15534	14190.9375
1925.26322	14163.8375
1928.36908	14090.7375
1931.47292	14057.0375
1934.57473	14036.1375
1937.67453	13974.6375
1940.77232	13931.8375
1943.86808	13915.2375
1946.96184	13824.4375
1950.05358	13808.4375
1953.14331	13758.6375
1956.23103	13712.2375
1959.31675	13690.1375
1962.40046	13658.6375
1965.48217	13596.8375
1968.56188	13541.5375
1971.63959	13492.0375
1974.7153	13464.2375
1977.78901	13396.2375
1980.86073	13353.6375
1983.93046	13314.3375
1986.99819	13294.8375
1990.06394	13260.5375
1993.1277	13235.8375
1996.18947	13146.6375
1999.24925	13115.3375
2002.30706	13066.8375
2005.36288	13041.2375
2008.41672	12999.8375
2011.46859	12936.1375
2014.51848	12947.6375
2017.56639	12877.5375
2020.61233	12855.0375
2023.6563	12810.4375
2026.6983	12784.0375
2029.73833	12753.9375
2032.7764	12697.4375
2035.8125	12672.8375
2038.84664	12653.2375
2041.87881	12597.6375
2044.90903	12595.7375
2047.93729	12548.3375
2050.96359	12550.9375
2053.98794	12540.2375
2057.01034	12538.3375
2060.03078	12491.2375
2063.04927	12498.4375
2066.06582	12473.6375
2069.08042	12479.6375
2072.09307	12453.1375
2075.10378	12463.6375
2078.11255	12461.7375
2081.11938	12446.7375
2084.12426	12413.5375
2087.12722	12427.2375
2090.12824	12407.6375
2093.12732	12434.2375
2096.12447	12418.2375
2099.11969	12426.2375
2102.11299	12423.7375
2105.10435	12397.2375
2108.09379	12407.6375
2111.08131	12431.7375
2114.0669	12418.5375
2117.05057	12434.2375
2120.03233	12419.5375
2123.01216	12453.7375
2125.99008	12454.9375
2128.96609	12449.9375
2131.94018	12437.7375
2134.91236	12455.7375
2137.88263	12462.6375
2140.851	12471.2375
2143.81746	12452.6375
2146.78201	12452.9375
2149.74466	12430.4375
2152.7054	12430.4375
2155.66425	12434.2375
2158.6212	12432.0375
2161.57625	12398.9375
2164.52941	12390.6375
2167.48067	12389.8375
2170.43004	12397.5375
2173.37752	12405.6375
2176.32311	12383.7375
2179.26681	12373.6375
2182.20863	12366.9375
2185.14856	12382.1375
2188.08661	12339.7375
2191.02278	12325.5375
2193.95707	12348.0375
2196.88948	12316.2375
2199.82001	12318.8375
2202.74867	12275.5375
2205.67545	12253.3375
2208.60037	12252.4375
2211.52341	12260.6375
2214.44458	12231.2375
2217.36388	12199.9375
2220.28132	12179.8375
2223.1969	12108.8375
2226.11061	12096.8375
2229.02246	12085.3375
2231.93245	12043.0375
2234.84058	12031.5375
2237.74686	12028.5375
2240.65128	12012.4375
2243.55385	11953.9375
2246.45456	11953.6375
2249.35343	11927.3375
2252.25044	11933.7375
2255.14561	11917.1375
2258.03893	11898.5375
2260.93041	11873.9375
2263.82004	11836.7375
2266.70783	11816.4375
2269.59378	11790.1375
2272.4779	11737.5375
2275.36017	11708.4375
2278.24061	11709.9375
2281.11922	11677.2375
2283.996	11645.0375
2286.87094	11648.2375
2289.74405	11601.5375
2292.61534	11599.7375
2295.4848	11570.4375
2298.35243	11580.1375
2301.21824	11549.4375
2304.08223	11550.5375
2306.94439	11538.7375
2309.80474	11513.2375
2312.66327	11512.0375
2315.51999	11495.4375
2318.37489	11476.2375
2321.22797	11460.2375
2324.07925	11444.9375
2326.92871	11437.5375
2329.77637	11415.4375
2332.62222	11366.5375
2335.46626	11364.5375
2338.3085	11365.0375
2341.14893	11362.3375
2343.98756	11354.8375
2346.8244	11350.3375
2349.65943	11331.7375
2352.49267	11352.6375
2355.32411	11304.5375
2358.15376	11299.8375
2360.98161	11350.2375
2363.80768	11325.2375
2366.63195	11327.6375
2369.45444	11289.0375
2372.27514	11264.4375
2375.09405	11270.6375
2377.91118	11234.8375
2380.72652	11209.3375
2383.54009	11207.0375
2386.35187	11148.6375
2389.16188	11117.2375
2391.97011	11102.7375
2394.77657	11029.4375
2397.58125	11016.9375
2400.38416	11036.4375
2403.18529	11007.6375
2405.98466	10993.9375
2408.78226	10961.0375
2411.57809	10943.0375
2414.37216	10925.8375
2417.16446	10882.5375
2419.955	10882.8375
2422.74378	10878.1375
2425.5308	10887.6375
2428.31606	10883.7375
2431.09956	10902.1375
2433.88131	10884.6375
2436.6613	10887.8375
2439.43954	10872.2375
2442.21603	10834.7375
2444.99077	10827.1375
2447.76377	10835.7375
2450.53501	10815.9375
2453.30451	10825.7375
2456.07226	10810.9375
2458.83827	10799.8375
2461.60254	10784.2375
2464.36507	10781.0375
2467.12586	10763.4375
2469.88492	10748.0375
2472.64224	10732.3375
2475.39782	10775.4375
2478.15167	10764.6375
2480.90379	10763.8375
2483.65417	10738.3375
2486.40283	10751.4375
2489.14976	10744.8375
2491.89497	10724.6375
2494.63845	10723.9375
2497.3802	10703.4375
2500.12024	10677.6375
2502.85855	10694.7375
2505.59514	10679.4375
2508.33002	10687.7375
2511.06318	10639.8375
2513.79462	10628.1375
2516.52435	10612.5375
2519.25237	10617.6375
2521.97867	10564.4375
2524.70327	10549.9375
2527.42616	10533.6375
2530.14734	10527.0375
2532.86681	10519.5375
2535.58458	10504.4375
2538.30065	10507.5375
2541.01501	10509.2375
2543.72768	10489.6375
2546.43864	10461.2375
2549.14791	10459.4375
2551.85548	10446.5375
2554.56136	10425.6375
2557.26554	10379.2375
2559.96803	10382.7375
2562.66883	10362.6375
2565.36794	10340.7375
2568.06536	10314.9375
2570.7611	10288.3375
2573.45514	10291.9375
2576.14751	10238.7375
2578.83819	10236.9375
2581.52719	10224.9375
2584.21451	10211.2375
2586.90015	10214.9375
2589.58411	10193.9375
2592.2664	10149.2375
2594.94701	10152.9375
2597.62594	10162.2375
2600.30321	10119.3375
2602.9788	10131.9375
2605.65273	10112.3375
2608.32498	10104.9375
2610.99557	10080.6375
2613.66449	10085.8375
2616.33175	10057.6375
2618.99734	10049.0375
2621.66128	10037.8375
2624.32355	10020.3375
2626.98416	9995.8375
2629.64311	9981.3375
2632.30041	9961.6375
2634.95605	9926.5375
2637.61004	9920.0375
2640.26238	9911.4375
2642.91306	9919.7375
2645.56209	9929.2375
2648.20948	9915.1375
2650.85521	9904.9375
2653.4993	9927.1375
2656.14175	9902.1375
2658.78255	9905.1375
2661.42171	9899.3375
2664.05923	9911.5375
2666.6951	9932.3375
2669.32934	9907.3375
2671.96194	9890.6375
2674.59291	9926.1375
2677.22224	9885.8375
2679.84993	9913.4375
2682.476	9890.1375
2685.10043	9885.8375
2687.72324	9881.2375
2690.34441	9850.9375
2692.96396	9855.4375
2695.58188	9857.0375
2698.19818	9864.6375
2700.81285	9860.5375
2703.4259	9844.4375
2706.03733	9837.3375
2708.64714	9827.7375
2711.25533	9818.2375
2713.86191	9835.8375
2716.46687	9850.2375
2719.07021	9856.6375
2721.67194	9871.3375
2724.27206	9870.6375
2726.87057	9885.5375
2729.46747	9862.7375
2732.06276	9870.9375
2734.65644	9877.5375
2737.24852	9859.0375
2739.83899	9846.5375
2742.42786	9832.2375
2745.01513	9824.7375
2747.60079	9796.5375
2750.18486	9772.1375
2752.76733	9769.8375
2755.3482	9775.2375
2757.92747	9748.4375
2760.50515	9736.1375
2763.08123	9720.7375
2765.65573	9709.4375
2768.22863	9703.4375
2770.79994	9676.7375
2773.36967	9674.5375
2775.9378	9652.7375
2778.50435	9649.3375
2781.06932	9642.7375
2783.6327	9636.3375
2786.1945	9623.0375
2788.75471	9650.8375
2791.31335	9613.2375
2793.87041	9586.0375
2796.42589	9591.9375
2798.97979	9581.7375
2801.53212	9542.5375
2804.08288	9518.8375
2806.63206	9496.1375
2809.17967	9483.8375
2811.72571	9462.4375
2814.27018	9458.4375
2816.81308	9413.4375
2819.35442	9397.0375
2821.89419	9391.4375
2824.43239	9381.7375
2826.96904	9368.6375
2829.50412	9368.8375
2832.03763	9342.5375
2834.56959	9350.9375
2837.1	9337.5375
2839.62884	9344.0375
2842.15613	9319.0375
2844.68186	9349.1375
2847.20604	9346.1375
2849.72867	9339.7375
2852.24974	9339.6375
2854.76927	9326.8375
2857.28724	9321.8375
2859.80367	9292.7375
2862.31855	9255.3375
2864.83189	9261.7375
2867.34368	9278.5375
2869.85393	9249.9375
2872.36264	9247.9375
2874.8698	9233.1375
2877.37543	9235.5375
2879.87952	9260.5375
2882.38207	9227.7375
2884.88308	9215.8375
2887.38256	9235.2375
2889.88051	9209.4375
2892.37692	9223.9375
2894.8718	9213.3375
2897.36515	9248.8375
2899.85698	9254.9375
2902.34727	9265.5375
2904.83604	9246.3375
2907.32328	9256.5375
2909.809	9228.1375
2912.29319	9228.7375
2914.77587	9225.2375
2917.25702	9223.4375
2919.73665	9223.7375
2922.21476	9233.3375
2924.69136	9229.8375
2927.16644	9226.8375
2929.64	9198.0375
2932.11205	9173.3375
2934.58258	9139.4375
2937.05161	9135.7375
2939.51912	9143.2375
2941.98513	9142.5375
2944.44962	9119.9375
2946.91261	9081.8375
2949.37409	9072.9375
2951.83407	9061.0375
2954.29254	9072.4375
2956.74951	9052.9375
2959.20498	9047.0375
2961.65895	9036.2375
2964.11142	9039.8375
2966.56239	9008.0375
2969.01186	8997.6375
2971.45984	8997.0375
2973.90632	8989.8375
2976.35131	8955.0375
2978.7948	8926.5375
2981.23681	8928.1375
2983.67732	8896.5375
2986.11635	8906.1375
2988.55388	8854.2375
2990.98993	8848.7375
2993.4245	8804.3375
2995.85758	8820.1375
2998.28917	8814.5375
3000.71928	8780.5375
3003.14791	8765.5375
3005.57506	8729.7375
3008.00073	8731.1375
3010.42493	8732.6375
3012.84764	8694.3375
3015.26888	8684.7375
3017.68865	8644.3375
3020.10694	8613.7375
3022.52376	8613.9375
3024.9391	8613.9375
3027.35298	8618.8375
3029.76539	8606.8375
3032.17632	8577.7375
3034.5858	8588.3375
3036.9938	8572.2375
3039.40034	8542.1375
3041.80542	8576.1375
3044.20903	8555.7375
3046.61118	8549.4375
3049.01187	8519.9375
3051.4111	8488.7375
3053.80888	8449.6375
3056.20519	8454.8375
3058.60005	8434.0375
3060.99345	8419.2375
3063.3854	8402.3375
3065.7759	8385.1375
3068.16494	8356.4375
3070.55254	8343.9375
3072.93868	8338.1375
3075.32338	8325.4375
3077.70662	8292.8375
3080.08842	8280.2375
3082.46878	8275.8375
3084.84769	8250.4375
3087.22515	8251.9375
3089.60118	8244.6375
3091.97576	8229.9375
3094.3489	8252.0375
3096.72061	8254.7375
3099.09087	8248.8375
3101.4597	8223.8375
3103.82709	8219.0375
3106.19305	8224.9375
3108.55757	8209.8375
3110.92066	8213.1375
3113.28232	8205.8375
3115.64255	8165.8375
3118.00134	8160.8375
3120.35871	8147.0375
3122.71466	8113.4375
3125.06917	8131.2375
3127.42226	8101.7375
3129.77393	8084.8375
3132.12417	8076.7375
3134.47299	8078.5375
3136.82039	8071.4375
3139.16636	8076.5375
3141.51092	8059.3375
3143.85406	8077.3375
3146.19579	8064.9375
3148.53609	8076.7375
3150.87499	8061.1375
3153.21246	8076.4375
3155.54853	8101.8375
3157.88318	8066.0375
3160.21642	8088.0375
3162.54826	8085.1375
3164.87868	8099.9375
3167.2077	8096.4375
3169.5353	8086.7375
3171.86151	8088.0375
3174.18631	8089.3375
3176.5097	8049.9375
3178.83169	8045.1375
3181.15228	8048.7375
3183.47147	8034.2375
3185.78926	8037.0375
3188.10565	8020.6375
3190.42065	8024.9375
3192.73424	8014.4375
3195.04645	8030.0375
3197.35725	7996.3375
3199.66667	7985.5375
3201.97469	8005.4375
3204.28132	7987.7375
3206.58656	7999.3375
3208.8904	7999.0375
3211.19287	8016.5375
3213.49394	8013.3375
3215.79363	8053.8375
3218.09193	8022.2375
3220.38884	8013.9375
3222.68438	7997.9375
3224.97853	8017.4375
3227.2713	8008.1375
3229.56269	7998.3375
3231.8527	7994.3375
3234.14133	7949.7375
3236.42858	7952.4375
3238.71446	7926.5375
3240.99896	7901.4375
3243.28209	7907.5375
3245.56384	7890.0375
3247.84423	7903.3375
3250.12324	7898.7375
3252.40088	7878.1375
3254.67715	7881.9375
3256.95205	7861.4375
3259.22558	7860.7375
3261.49775	7858.3375
3263.76855	7837.6375
3266.03799	7851.1375
3268.30606	7817.8375
3270.57277	7785.7375
3272.83812	7783.1375
3275.10211	7742.5375
3277.36474	7748.9375
3279.62601	7741.6375
3281.88593	7742.0375
3284.14448	7730.0375
3286.40168	7741.2375
3288.65753	7723.0375
3290.91202	7712.7375
3293.16516	7688.0375
3295.41695	7696.6375
3297.66738	7657.4375
3299.91647	7614.2375
3302.16421	7572.6375
3304.4106	7507.5375
3306.65564	7478.0375
3308.89933	7431.3375
3311.14169	7374.9375
3313.38269	7297.5375
3315.62236	7231.6375
3317.86068	7210.4375
3320.09766	7139.2375
3322.3333	7096.8375
3324.5676	7056.4375
3326.80056	6937.1375
3329.03219	6889.5375
3331.26248	3.3375
3333.49143	-0.6625
3335.71905	-0.0625
