Data from AgNP_FTO_APTES_UA_10uM_CRN_1000uM_R6G_10uM_NaF_0.1M_Addition_RamanShift__30__19-56-11-017.txt Node

Date: Thu Feb 10 19:56:11 GMT 2022
User: TCL
Spectrometer: QEP01345
Trigger mode: 4
Integration Time (sec): 7.000000E0
Scans to average: 10
Electric dark correction enabled: true
Nonlinearity correction enabled: false
Boxcar width: 0
XAxis mode: Raman Shifts
Number of Pixels in Spectrum: 1044
>>>>>Begin Spectral Data<<<<<
46.04893	-0.175
50.45542	-1.575
54.85868	-1.075
59.25871	-0.175
63.6555	38.225
68.04907	42.025
72.43941	48.525
76.82654	45.625
81.21044	52.125
85.59113	49.425
89.96862	52.325
94.34289	59.825
98.71396	55.025
103.08183	61.325
107.4465	61.425
111.80798	60.425
116.16626	61.325
120.52136	62.325
124.87327	66.925
129.222	68.725
133.56755	70.325
137.90993	75.825
142.24913	79.625
146.58517	88.125
150.91804	106.125
155.24774	121.325
159.57429	146.425
163.89768	186.825
168.21792	245.725
172.53501	326.225
176.84895	452.025
181.15975	632.525
185.46741	872.625
189.77193	1212.525
194.07331	1623.725
198.37157	2086.725
202.6667	2592.825
206.9587	3076.525
211.24758	3565.425
215.53334	4094.425
219.81599	4660.625
224.09553	5308.825
228.37195	6018.125
232.64527	6824.425
236.91549	7628.925
241.18261	8354.525
245.44663	8949.925
249.70755	9390.425
253.96539	9772.725
258.22014	10085.325
262.4718	10361.325
266.72039	10610.225
270.96589	10744.625
275.20832	10785.525
279.44768	10682.225
283.68397	10521.325
287.91719	10417.025
292.14735	10435.025
296.37445	10676.825
300.59849	11145.325
304.81948	11690.425
309.03742	12097.225
313.25231	12063.425
317.46415	11476.025
321.67296	10512.025
325.87872	9709.325
330.08145	9336.525
334.28114	9309.625
338.47781	9470.825
342.67145	9768.125
346.86207	10257.825
351.04966	10935.225
355.23424	11725.225
359.4158	12290.525
363.59435	12552.125
367.76989	12618.825
371.94243	12578.925
376.11196	12524.925
380.27849	12435.925
384.44203	12280.925
388.60257	12078.325
392.76012	11935.725
396.91468	12000.125
401.06626	12352.825
405.21485	12639.925
409.36047	12374.225
413.50311	11685.825
417.64277	10957.225
421.77947	10596.825
425.9132	10450.925
430.04396	10438.925
434.17176	10476.225
438.2966	10626.525
442.41849	10887.925
446.53742	11219.825
450.6534	11544.225
454.76644	11717.225
458.87653	11743.625
462.98368	11586.625
467.08789	11454.425
471.18916	11214.325
475.2875	10890.425
479.38291	10704.025
483.4754	10500.125
487.56496	10314.925
491.6516	10188.725
495.73531	10152.725
499.81612	10197.525
503.89401	10331.925
507.96899	10532.425
512.04106	10719.725
516.11023	10962.525
520.1765	11127.325
524.23987	11099.125
528.30034	10876.325
532.35792	10602.025
536.41261	10356.925
540.46441	10082.225
544.51333	9965.525
548.55936	10020.425
552.60252	10260.125
556.64279	10577.725
560.6802	10768.225
564.71473	10976.925
568.7464	11502.925
572.7752	11882.025
576.80114	11476.625
580.82422	10839.925
584.84444	10525.725
588.86181	10451.925
592.87633	10535.525
596.888	10616.425
600.89682	10975.625
604.9028	12272.325
608.90594	16024.325
612.90624	21497.825
616.90371	21071.125
620.89834	14327.625
624.89015	11009.725
628.87913	10326.625
632.86528	10367.725
636.84862	10595.825
640.82913	10484.925
644.80683	10048.925
648.78172	9702.425
652.75379	9789.625
656.72306	10256.325
660.68952	10839.225
664.65319	10765.625
668.61405	10164.025
672.57211	9865.125
676.52738	9863.525
680.47986	9887.025
684.42955	9808.825
688.37646	9769.925
692.32058	9781.425
696.26192	9868.825
700.20048	10009.125
704.13626	10093.025
708.06928	10087.925
711.99952	9962.725
715.927	9894.425
719.85171	9920.325
723.77365	9939.125
727.69284	9810.925
731.60928	9725.525
735.52295	9670.225
739.43388	9703.625
743.34206	9748.725
747.24749	9781.425
751.15017	9809.725
755.05012	10024.425
758.94733	10540.225
762.8418	11744.125
766.73354	13846.225
770.62254	16185.025
774.50882	17546.925
778.39237	16919.825
782.27321	14504.725
786.15132	12060.025
790.02671	10680.825
793.89938	10110.925
797.76935	9814.125
801.6366	9727.825
805.50115	9658.225
809.36299	9609.925
813.22213	9595.925
817.07857	9562.425
820.93231	9565.725
824.78336	9589.925
828.63172	9636.225
832.47738	9657.425
836.32036	9635.825
840.16066	9533.225
843.99827	9498.025
847.8332	9480.225
851.66546	9474.825
855.49504	9458.725
859.32195	9446.425
863.1462	9424.225
866.96777	9363.125
870.78668	9360.125
874.60293	9372.525
878.41652	9423.125
882.22745	9474.425
886.03573	9543.625
889.84136	9503.425
893.64433	9444.425
897.44466	9409.725
901.24235	9414.825
905.0374	9397.525
908.8298	9344.725
912.61957	9311.625
916.40671	9345.925
920.19121	9401.725
923.97308	9477.725
927.75233	9567.625
931.52895	9680.325
935.30295	9613.125
939.07433	9321.725
942.84309	9065.425
946.60924	8896.425
950.37278	8799.425
954.13371	8742.925
957.89203	8749.525
961.64774	8727.025
965.40086	8689.325
969.15137	8666.425
972.89929	8632.425
976.64461	8613.325
980.38733	8615.625
984.12747	8623.425
987.86502	8663.425
991.59999	8708.925
995.33237	8768.725
999.06217	8907.825
1002.78939	9092.525
1006.51404	9296.325
1010.23611	9466.725
1013.95561	9603.425
1017.67255	9582.425
1021.38692	9451.425
1025.09872	9334.525
1028.80796	9187.825
1032.51465	9190.625
1036.21877	9253.225
1039.92035	9339.225
1043.61937	9401.325
1047.31584	9405.825
1051.00976	9416.925
1054.70114	9436.125
1058.38998	9426.025
1062.07627	9448.125
1065.76003	9505.825
1069.44126	9523.525
1073.11995	9589.625
1076.79611	9729.025
1080.46974	9898.825
1084.14085	10205.125
1087.80943	10499.325
1091.47549	10651.425
1095.13903	10455.125
1098.80005	10088.325
1102.45857	9780.325
1106.11456	9650.825
1109.76805	9745.325
1113.41903	9996.225
1117.06751	10364.525
1120.71348	10853.825
1124.35696	11371.825
1127.99793	11804.025
1131.63641	11744.825
1135.2724	11153.025
1138.90589	10519.425
1142.5369	10178.425
1146.16542	9948.825
1149.79145	9829.325
1153.415	9809.525
1157.03607	9896.225
1160.65467	10102.925
1164.27079	10473.925
1167.88443	11035.725
1171.49561	11959.125
1175.10432	13604.125
1178.71056	15705.325
1182.31434	17175.025
1185.91565	17306.225
1189.51451	16712.325
1193.11091	15589.025
1196.70485	14350.325
1200.29634	13473.225
1203.88538	12870.125
1207.47197	12044.125
1211.05612	11335.325
1214.63782	10985.825
1218.21708	10823.825
1221.79391	10814.425
1225.36829	10810.825
1228.94024	10782.525
1232.50976	10771.125
1236.07685	10779.025
1239.6415	10862.825
1243.20374	10956.325
1246.76355	11027.725
1250.32093	11174.525
1253.8759	11386.825
1257.42845	11683.525
1260.97859	12045.125
1264.52631	12417.725
1268.07163	12792.125
1271.61453	13099.925
1275.15503	13317.925
1278.69312	13293.425
1282.22882	13269.325
1285.76211	13468.725
1289.29301	13925.225
1292.82151	14363.425
1296.34761	14883.425
1299.87133	15672.725
1303.39266	16980.025
1306.9116	19054.725
1310.42815	21484.025
1313.94233	22917.925
1317.45412	22491.925
1320.96354	20790.625
1324.47058	18912.625
1327.97525	17260.925
1331.47754	16260.225
1334.97747	15886.125
1338.47502	16034.225
1341.97022	16514.725
1345.46305	17201.525
1348.95352	18345.625
1352.44163	19919.425
1355.92738	22161.225
1359.41078	25554.525
1362.89183	28833.225
1366.37053	27946.525
1369.84688	23448.925
1373.32088	19013.825
1376.79254	16237.725
1380.26186	14813.425
1383.72883	14140.125
1387.19347	13630.425
1390.65578	13162.425
1394.11575	12721.925
1397.57339	12492.325
1401.0287	12495.725
1404.48168	12633.325
1407.93234	12761.225
1411.38068	12855.525
1414.82669	12849.625
1418.27039	12652.125
1421.71177	12390.225
1425.15083	12086.425
1428.58758	11896.825
1432.02203	11975.725
1435.45416	12081.625
1438.88399	12167.325
1442.31151	12132.525
1445.73673	12178.125
1449.15965	12246.425
1452.58027	12255.825
1455.9986	12159.125
1459.41463	12162.525
1462.82837	12284.525
1466.23982	12541.625
1469.64898	12816.425
1473.05586	13047.525
1476.46045	13182.925
1479.86276	13363.425
1483.26279	13651.025
1486.66054	13991.025
1490.05602	14513.025
1493.44922	15154.725
1496.84016	16179.125
1500.22882	17894.025
1503.61521	20183.625
1506.99934	22847.425
1510.38121	25486.225
1513.76081	26878.025
1517.13816	25636.325
1520.51324	22307.925
1523.88607	18863.325
1527.25665	16543.525
1530.62498	15289.125
1533.99105	14583.425
1537.35488	14138.025
1540.71647	13886.525
1544.07581	13783.725
1547.4329	13726.525
1550.78776	13678.125
1554.14038	13700.325
1557.49077	13792.125
1560.83892	14074.725
1564.18484	14478.925
1567.52853	14972.725
1570.86999	15356.325
1574.20922	15581.325
1577.54624	15452.825
1580.88103	14690.925
1584.2136	13590.525
1587.54395	12934.425
1590.87208	12995.825
1594.19801	13597.825
1597.52172	14564.925
1600.84321	15101.625
1604.16251	14699.625
1607.47959	13870.325
1610.79447	12833.625
1614.10715	11824.125
1617.41763	11026.025
1620.7259	10510.525
1624.03199	10219.125
1627.33587	10200.225
1630.63757	10370.525
1633.93707	10768.725
1637.23439	11467.325
1640.52951	12570.525
1643.82246	14171.625
1647.11321	16185.225
1650.40179	17883.625
1653.68819	17675.125
1656.97241	15451.525
1660.25446	12813.725
1663.53433	10929.525
1666.81203	9810.325
1670.08756	9192.125
1673.36092	8815.125
1676.63211	8584.225
1679.90115	8422.725
1683.16801	8272.325
1686.43272	8203.925
1689.69527	8109.225
1692.95567	8063.025
1696.2139	8057.725
1699.46999	8054.225
1702.72392	8018.725
1705.97571	7982.425
1709.22535	7941.825
1712.47284	7934.325
1715.71819	7939.725
1718.96139	7966.025
1722.20246	7932.425
1725.44139	7889.225
1728.67818	7842.625
1731.91284	7778.925
1735.14537	7718.825
1738.37576	7665.225
1741.60403	7629.825
1744.83017	7606.725
1748.05418	7592.125
1751.27607	7562.925
1754.49584	7565.125
1757.71349	7561.425
1760.92903	7548.625
1764.14244	7526.625
1767.35375	7511.325
1770.56294	7484.725
1773.77002	7476.025
1776.97499	7436.925
1780.17785	7387.025
1783.37861	7375.025
1786.57727	7334.125
1789.77382	7342.625
1792.96828	7323.325
1796.16064	7312.625
1799.3509	7298.325
1802.53907	7285.625
1805.72514	7243.425
1808.90913	7233.025
1812.09102	7212.425
1815.27083	7202.525
1818.44856	7171.625
1821.6242	7128.925
1824.79776	7148.525
1827.96924	7121.825
1831.13864	7117.225
1834.30597	7086.225
1837.47122	7079.725
1840.6344	7083.425
1843.7955	7074.725
1846.95454	7063.625
1850.11151	7057.625
1853.26642	7062.325
1856.41926	7041.825
1859.57004	7053.225
1862.71876	7035.625
1865.86542	7034.125
1869.01003	7039.525
1872.15258	7030.425
1875.29308	7027.925
1878.43152	7018.225
1881.56792	7027.525
1884.70227	6989.925
1887.83457	7007.525
1890.96482	6981.325
1894.09304	6977.425
1897.21921	6964.825
1900.34335	6977.125
1903.46544	6981.925
1906.58551	6984.625
1909.70353	6975.125
1912.81953	6955.025
1915.93349	6963.325
1919.04543	6944.625
1922.15534	6912.025
1925.26322	6904.525
1928.36908	6904.825
1931.47292	6882.125
1934.57473	6875.625
1937.67453	6841.325
1940.77232	6813.025
1943.86808	6778.525
1946.96184	6764.825
1950.05358	6734.725
1953.14331	6724.625
1956.23103	6675.825
1959.31675	6662.425
1962.40046	6659.725
1965.48217	6665.725
1968.56188	6617.825
1971.63959	6602.225
1974.7153	6579.625
1977.78901	6556.425
1980.86073	6540.925
1983.93046	6527.325
1986.99819	6499.125
1990.06394	6471.525
1993.1277	6449.125
1996.18947	6406.325
1999.24925	6397.025
2002.30706	6364.625
2005.36288	6347.025
2008.41672	6338.825
2011.46859	6327.625
2014.51848	6296.825
2017.56639	6292.825
2020.61233	6265.525
2023.6563	6251.825
2026.6983	6222.225
2029.73833	6190.125
2032.7764	6202.625
2035.8125	6180.225
2038.84664	6146.925
2041.87881	6126.725
2044.90903	6107.025
2047.93729	6120.625
2050.96359	6122.525
2053.98794	6105.625
2057.01034	6094.825
2060.03078	6058.725
2063.04927	6074.725
2066.06582	6061.125
2069.08042	6084.425
2072.09307	6068.725
2075.10378	6042.125
2078.11255	6048.925
2081.11938	6058.225
2084.12426	6029.225
2087.12722	6009.225
2090.12824	6006.225
2093.12732	6006.625
2096.12447	6023.825
2099.11969	6007.025
2102.11299	6018.525
2105.10435	6024.225
2108.09379	6016.025
2111.08131	6010.425
2114.0669	6006.825
2117.05057	6030.325
2120.03233	6012.725
2123.01216	6029.925
2125.99008	6034.925
2128.96609	6052.125
2131.94018	6056.725
2134.91236	6056.125
2137.88263	6029.025
2140.851	6063.325
2143.81746	6040.725
2146.78201	6039.125
2149.74466	6022.025
2152.7054	6042.725
2155.66425	6034.125
2158.6212	6015.825
2161.57625	6005.525
2164.52941	6001.525
2167.48067	5986.525
2170.43004	5981.025
2173.37752	5982.525
2176.32311	5988.025
2179.26681	5996.325
2182.20863	5984.125
2185.14856	5992.225
2188.08661	5985.525
2191.02278	5972.225
2193.95707	5960.025
2196.88948	5945.925
2199.82001	5949.025
2202.74867	5928.825
2205.67545	5930.225
2208.60037	5927.125
2211.52341	5910.225
2214.44458	5906.625
2217.36388	5889.925
2220.28132	5864.925
2223.1969	5852.925
2226.11061	5850.225
2229.02246	5815.025
2231.93245	5820.825
2234.84058	5800.025
2237.74686	5787.125
2240.65128	5769.925
2243.55385	5754.025
2246.45456	5769.225
2249.35343	5746.425
2252.25044	5735.725
2255.14561	5754.425
2258.03893	5746.725
2260.93041	5748.925
2263.82004	5718.525
2266.70783	5715.425
2269.59378	5688.925
2272.4779	5669.625
2275.36017	5659.825
2278.24061	5681.125
2281.11922	5643.625
2283.996	5627.325
2286.87094	5633.525
2289.74405	5599.225
2292.61534	5591.325
2295.4848	5602.625
2298.35243	5573.625
2301.21824	5571.625
2304.08223	5569.925
2306.94439	5558.125
2309.80474	5561.125
2312.66327	5547.325
2315.51999	5524.125
2318.37489	5554.025
2321.22797	5521.325
2324.07925	5517.625
2326.92871	5512.825
2329.77637	5480.425
2332.62222	5503.825
2335.46626	5469.125
2338.3085	5468.325
2341.14893	5472.225
2343.98756	5454.225
2346.8244	5471.125
2349.65943	5477.225
2352.49267	5476.225
2355.32411	5474.625
2358.15376	5490.825
2360.98161	5489.725
2363.80768	5513.225
2366.63195	5502.425
2369.45444	5521.825
2372.27514	5494.725
2375.09405	5490.825
2377.91118	5480.525
2380.72652	5438.925
2383.54009	5413.425
2386.35187	5382.225
2389.16188	5366.225
2391.97011	5353.125
2394.77657	5332.625
2397.58125	5307.225
2400.38416	5303.025
2403.18529	5311.625
2405.98466	5271.625
2408.78226	5255.625
2411.57809	5261.325
2414.37216	5237.825
2417.16446	5249.825
2419.955	5228.225
2422.74378	5230.725
2425.5308	5213.625
2428.31606	5231.625
2431.09956	5233.225
2433.88131	5216.525
2436.6613	5224.225
2439.43954	5194.325
2442.21603	5205.225
2444.99077	5214.025
2447.76377	5219.825
2450.53501	5198.925
2453.30451	5197.325
2456.07226	5198.125
2458.83827	5195.225
2461.60254	5194.525
2464.36507	5175.725
2467.12586	5168.725
2469.88492	5171.125
2472.64224	5161.825
2475.39782	5159.325
2478.15167	5174.625
2480.90379	5174.025
2483.65417	5190.325
2486.40283	5199.225
2489.14976	5206.525
2491.89497	5215.325
2494.63845	5218.625
2497.3802	5188.625
2500.12024	5184.625
2502.85855	5181.025
2505.59514	5152.725
2508.33002	5134.025
2511.06318	5120.925
2513.79462	5099.725
2516.52435	5078.025
2519.25237	5055.525
2521.97867	5056.825
2524.70327	5043.125
2527.42616	5035.325
2530.14734	5032.925
2532.86681	5013.125
2535.58458	5015.225
2538.30065	5016.525
2541.01501	5009.425
2543.72768	5008.925
2546.43864	4995.825
2549.14791	4984.825
2551.85548	4999.125
2554.56136	4990.525
2557.26554	4974.625
2559.96803	4958.125
2562.66883	4958.225
2565.36794	4937.225
2568.06536	4923.825
2570.7611	4936.925
2573.45514	4914.825
2576.14751	4900.625
2578.83819	4883.425
2581.52719	4883.925
2584.21451	4874.525
2586.90015	4836.525
2589.58411	4853.425
2592.2664	4849.725
2594.94701	4836.825
2597.62594	4840.825
2600.30321	4817.525
2602.9788	4809.125
2605.65273	4810.625
2608.32498	4810.625
2610.99557	4803.225
2613.66449	4811.325
2616.33175	4795.225
2618.99734	4790.325
2621.66128	4779.925
2624.32355	4762.125
2626.98416	4767.325
2629.64311	4762.025
2632.30041	4753.225
2634.95605	4732.725
2637.61004	4737.025
2640.26238	4710.425
2642.91306	4715.525
2645.56209	4699.525
2648.20948	4690.525
2650.85521	4700.625
2653.4993	4689.925
2656.14175	4704.625
2658.78255	4708.225
2661.42171	4697.325
2664.05923	4706.525
2666.6951	4709.125
2669.32934	4715.325
2671.96194	4709.125
2674.59291	4721.625
2677.22224	4728.025
2679.84993	4728.025
2682.476	4716.325
2685.10043	4713.325
2687.72324	4704.625
2690.34441	4704.925
2692.96396	4708.525
2695.58188	4705.825
2698.19818	4691.925
2700.81285	4703.325
2703.4259	4698.925
2706.03733	4717.525
2708.64714	4704.525
2711.25533	4734.225
2713.86191	4717.025
2716.46687	4723.725
2719.07021	4731.425
2721.67194	4726.725
2724.27206	4728.925
2726.87057	4719.125
2729.46747	4725.325
2732.06276	4721.725
2734.65644	4717.325
2737.24852	4705.825
2739.83899	4687.625
2742.42786	4678.425
2745.01513	4661.225
2747.60079	4669.525
2750.18486	4645.325
2752.76733	4652.925
2755.3482	4652.125
2757.92747	4637.625
2760.50515	4631.725
2763.08123	4619.025
2765.65573	4598.425
2768.22863	4607.825
2770.79994	4591.425
2773.36967	4597.425
2775.9378	4591.225
2778.50435	4599.625
2781.06932	4584.725
2783.6327	4585.025
2786.1945	4573.225
2788.75471	4586.925
2791.31335	4570.525
2793.87041	4572.725
2796.42589	4571.225
2798.97979	4579.625
2801.53212	4568.625
2804.08288	4554.325
2806.63206	4545.625
2809.17967	4541.825
2811.72571	4531.925
2814.27018	4526.325
2816.81308	4545.525
2819.35442	4539.225
2821.89419	4544.225
2824.43239	4536.925
2826.96904	4537.925
2829.50412	4550.425
2832.03763	4550.125
2834.56959	4548.525
2837.1	4566.025
2839.62884	4587.925
2842.15613	4608.125
2844.68186	4668.325
2847.20604	4714.825
2849.72867	4774.425
2852.24974	4799.225
2854.76927	4778.125
2857.28724	4777.525
2859.80367	4747.225
2862.31855	4732.125
2864.83189	4721.325
2867.34368	4707.325
2869.85393	4683.325
2872.36264	4691.125
2874.8698	4686.025
2877.37543	4683.525
2879.87952	4680.425
2882.38207	4677.725
2884.88308	4667.825
2887.38256	4661.525
2889.88051	4669.825
2892.37692	4653.825
2894.8718	4654.825
2897.36515	4667.625
2899.85698	4656.525
2902.34727	4667.925
2904.83604	4666.225
2907.32328	4680.025
2909.809	4669.525
2912.29319	4669.125
2914.77587	4655.625
2917.25702	4654.925
2919.73665	4656.925
2922.21476	4645.825
2924.69136	4625.325
2927.16644	4634.825
2929.64	4635.025
2932.11205	4624.725
2934.58258	4590.925
2937.05161	4585.025
2939.51912	4573.425
2941.98513	4534.325
2944.44962	4514.325
2946.91261	4472.825
2949.37409	4456.025
2951.83407	4437.325
2954.29254	4402.725
2956.74951	4401.725
2959.20498	4389.825
2961.65895	4371.625
2964.11142	4373.925
2966.56239	4364.025
2969.01186	4361.025
2971.45984	4323.825
2973.90632	4320.725
2976.35131	4307.625
2978.7948	4293.525
2981.23681	4256.625
2983.67732	4259.825
2986.11635	4266.425
2988.55388	4247.525
2990.98993	4212.325
2993.4245	4213.525
2995.85758	4197.025
2998.28917	4179.425
3000.71928	4183.925
3003.14791	4173.925
3005.57506	4155.025
3008.00073	4160.725
3010.42493	4146.525
3012.84764	4135.225
3015.26888	4126.625
3017.68865	4120.625
3020.10694	4124.825
3022.52376	4119.125
3024.9391	4129.125
3027.35298	4115.925
3029.76539	4107.325
3032.17632	4095.325
3034.5858	4092.925
3036.9938	4088.825
3039.40034	4099.525
3041.80542	4092.925
3044.20903	4057.725
3046.61118	4067.225
3049.01187	4052.925
3051.4111	4060.625
3053.80888	4044.825
3056.20519	4038.225
3058.60005	4019.425
3060.99345	4004.125
3063.3854	4012.425
3065.7759	4005.725
3068.16494	4001.225
3070.55254	3992.725
3072.93868	3991.325
3075.32338	3961.425
3077.70662	3956.225
3080.08842	3948.925
3082.46878	3941.625
3084.84769	3933.125
3087.22515	3931.325
3089.60118	3923.525
3091.97576	3917.425
3094.3489	3914.425
3096.72061	3895.325
3099.09087	3902.325
3101.4597	3901.525
3103.82709	3911.325
3106.19305	3911.725
3108.55757	3895.225
3110.92066	3887.925
3113.28232	3881.825
3115.64255	3892.925
3118.00134	3882.125
3120.35871	3887.125
3122.71466	3876.325
3125.06917	3868.425
3127.42226	3860.025
3129.77393	3874.025
3132.12417	3855.525
3134.47299	3865.025
3136.82039	3856.025
3139.16636	3873.025
3141.51092	3859.125
3143.85406	3885.425
3146.19579	3868.025
3148.53609	3867.425
3150.87499	3879.725
3153.21246	3883.725
3155.54853	3876.925
3157.88318	3907.925
3160.21642	3897.125
3162.54826	3899.825
3164.87868	3908.425
3167.2077	3897.525
3169.5353	3907.425
3171.86151	3905.925
3174.18631	3905.025
3176.5097	3884.825
3178.83169	3895.625
3181.15228	3907.725
3183.47147	3908.825
3185.78926	3903.225
3188.10565	3899.225
3190.42065	3896.025
3192.73424	3901.325
3195.04645	3885.625
3197.35725	3894.325
3199.66667	3899.125
3201.97469	3892.625
3204.28132	3918.225
3206.58656	3906.625
3208.8904	3906.725
3211.19287	3916.325
3213.49394	3901.225
3215.79363	3928.625
3218.09193	3932.425
3220.38884	3928.025
3222.68438	3922.725
3224.97853	3916.225
3227.2713	3920.025
3229.56269	3897.825
3231.8527	3921.025
3234.14133	3906.525
3236.42858	3897.225
3238.71446	3897.425
3240.99896	3886.225
3243.28209	3866.225
3245.56384	3874.125
3247.84423	3872.925
3250.12324	3866.725
3252.40088	3865.325
3254.67715	3848.825
3256.95205	3865.725
3259.22558	3851.525
3261.49775	3849.825
3263.76855	3845.425
3266.03799	3826.925
3268.30606	3850.425
3270.57277	3832.125
3272.83812	3825.025
3275.10211	3807.325
3277.36474	3799.625
3279.62601	3802.725
3281.88593	3775.625
3284.14448	3789.525
3286.40168	3797.325
3288.65753	3791.025
3290.91202	3796.125
3293.16516	3773.325
3295.41695	3787.725
3297.66738	3770.425
3299.91647	3744.725
3302.16421	3703.225
3304.4106	3692.125
3306.65564	3664.225
3308.89933	3636.925
3311.14169	3614.625
3313.38269	3583.025
3315.62236	3566.425
3317.86068	3521.325
3320.09766	3502.325
3322.3333	3474.925
3324.5676	3456.325
3326.80056	3406.025
3329.03219	3377.525
3331.26248	3.425
3333.49143	0.525
3335.71905	-0.675
