Data from AgNP_FTO_APTES_UA_10uM_CRN_2uM_R6G_10uM_NaF_0.1M_Addition_RamanShift__29__14-30-40-616.txt Node

Date: Thu Feb 10 14:30:40 GMT 2022
User: TCL
Spectrometer: QEP01345
Trigger mode: 4
Integration Time (sec): 7.000000E0
Scans to average: 10
Electric dark correction enabled: true
Nonlinearity correction enabled: false
Boxcar width: 0
XAxis mode: Raman Shifts
Number of Pixels in Spectrum: 1044
>>>>>Begin Spectral Data<<<<<
46.04893	1.1125
50.45542	-0.9875
54.85868	-2.0875
59.25871	-1.2875
63.6555	57.6125
68.04907	61.0125
72.43941	64.3125
76.82654	65.5125
81.21044	69.4125
85.59113	70.5125
89.96862	72.8125
94.34289	77.8125
98.71396	79.7125
103.08183	85.2125
107.4465	83.1125
111.80798	83.6125
116.16626	89.1125
120.52136	91.2125
124.87327	98.0125
129.222	94.9125
133.56755	106.0125
137.90993	111.5125
142.24913	118.8125
146.58517	132.0125
150.91804	154.3125
155.24774	176.0125
159.57429	218.6125
163.89768	280.3125
168.21792	369.6125
172.53501	497.2125
176.84895	689.8125
181.15975	959.7125
185.46741	1331.5125
189.77193	1842.3125
194.07331	2464.0125
198.37157	3158.0125
202.6667	3892.3125
206.9587	4623.8125
211.24758	5358.0125
215.53334	6119.1125
219.81599	6953.7125
224.09553	7875.2125
228.37195	8931.7125
232.64527	10040.6125
236.91549	11210.8125
241.18261	12272.7125
245.44663	13182.2125
249.70755	13947.0125
253.96539	14649.6125
258.22014	15226.3125
262.4718	15755.6125
266.72039	16164.9125
270.96589	16437.1125
275.20832	16504.2125
279.44768	16433.0125
283.68397	16292.8125
287.91719	16222.9125
292.14735	16243.6125
296.37445	16484.1125
300.59849	16824.7125
304.81948	17273.5125
309.03742	17503.6125
313.25231	17330.0125
317.46415	16556.1125
321.67296	15503.2125
325.87872	14625.7125
330.08145	14188.1125
334.28114	14165.2125
338.47781	14344.3125
342.67145	14719.8125
346.86207	15232.9125
351.04966	15957.1125
355.23424	16789.7125
359.4158	17423.3125
363.59435	17717.4125
367.76989	17802.4125
371.94243	17785.8125
376.11196	17707.9125
380.27849	17638.5125
384.44203	17489.0125
388.60257	17369.2125
392.76012	17377.5125
396.91468	17639.9125
401.06626	18030.0125
405.21485	18347.6125
409.36047	18061.5125
413.50311	17368.0125
417.64277	16691.1125
421.77947	16378.8125
425.9132	16307.6125
430.04396	16324.1125
434.17176	16412.8125
438.2966	16607.7125
442.41849	16992.7125
446.53742	17531.1125
450.6534	18089.8125
454.76644	18494.2125
458.87653	18567.4125
462.98368	18447.2125
467.08789	18210.4125
471.18916	17850.7125
475.2875	17463.8125
479.38291	17179.3125
483.4754	16958.0125
487.56496	16656.5125
491.6516	16406.8125
495.73531	16186.6125
499.81612	16151.8125
503.89401	16255.2125
507.96899	16369.9125
512.04106	16434.4125
516.11023	16569.6125
520.1765	16632.6125
524.23987	16527.3125
528.30034	16281.4125
532.35792	15972.8125
536.41261	15657.3125
540.46441	15339.9125
544.51333	15263.2125
548.55936	15491.6125
552.60252	15917.7125
556.64279	16411.6125
560.6802	16715.8125
564.71473	16954.5125
568.7464	17548.0125
572.7752	18014.9125
576.80114	17826.0125
580.82422	17502.7125
584.84444	17396.6125
588.86181	17410.3125
592.87633	17574.2125
596.888	17799.8125
600.89682	18301.2125
604.9028	19932.7125
608.90594	24157.4125
612.90624	29444.1125
616.90371	27679.1125
620.89834	20147.4125
624.89015	16857.7125
628.87913	16361.1125
632.86528	16406.1125
636.84862	16424.9125
640.82913	16047.3125
644.80683	15339.2125
648.78172	14909.1125
652.75379	14908.8125
656.72306	15417.5125
660.68952	16075.1125
664.65319	15975.4125
668.61405	15350.8125
672.57211	15034.0125
676.52738	14993.0125
680.47986	14990.1125
684.42955	14893.7125
688.37646	14856.6125
692.32058	14930.4125
696.26192	15095.6125
700.20048	15317.8125
704.13626	15475.0125
708.06928	15461.2125
711.99952	15306.7125
715.927	15187.3125
719.85171	15229.3125
723.77365	15186.1125
727.69284	14939.8125
731.60928	14784.8125
735.52295	14765.4125
739.43388	14828.5125
743.34206	14900.1125
747.24749	15007.8125
751.15017	15200.3125
755.05012	15558.2125
758.94733	16320.3125
762.8418	17899.1125
766.73354	20492.9125
770.62254	23158.3125
774.50882	24108.0125
778.39237	22713.5125
782.27321	19887.4125
786.15132	17396.1125
790.02671	15955.8125
793.89938	15267.9125
797.76935	14996.7125
801.6366	14874.6125
805.50115	14783.5125
809.36299	14702.1125
813.22213	14596.5125
817.07857	14564.2125
820.93231	14548.0125
824.78336	14581.6125
828.63172	14625.7125
832.47738	14677.7125
836.32036	14676.4125
840.16066	14668.1125
843.99827	14645.0125
847.8332	14571.9125
851.66546	14546.7125
855.49504	14510.8125
859.32195	14457.1125
863.1462	14362.6125
866.96777	14291.7125
870.78668	14249.0125
874.60293	14296.6125
878.41652	14294.6125
882.22745	14382.0125
886.03573	14406.8125
889.84136	14396.1125
893.64433	14347.6125
897.44466	14277.0125
901.24235	14226.8125
905.0374	14233.2125
908.8298	14205.8125
912.61957	14224.5125
916.40671	14344.0125
920.19121	14584.8125
923.97308	14819.1125
927.75233	14934.4125
931.52895	14987.7125
935.30295	14792.9125
939.07433	14376.1125
942.84309	13995.6125
946.60924	13790.5125
950.37278	13735.9125
954.13371	13633.3125
957.89203	13555.5125
961.64774	13524.4125
965.40086	13462.5125
969.15137	13418.1125
972.89929	13373.9125
976.64461	13359.0125
980.38733	13393.0125
984.12747	13433.2125
987.86502	13589.0125
991.59999	13792.5125
995.33237	14046.5125
999.06217	14575.4125
1002.78939	15177.2125
1006.51404	15618.8125
1010.23611	15939.2125
1013.95561	16152.2125
1017.67255	16119.4125
1021.38692	15896.2125
1025.09872	15737.5125
1028.80796	15810.1125
1032.51465	16266.3125
1036.21877	16659.7125
1039.92035	16696.6125
1043.61937	16434.4125
1047.31584	15979.7125
1051.00976	15583.2125
1054.70114	15332.4125
1058.38998	15288.6125
1062.07627	15357.5125
1065.76003	15438.1125
1069.44126	15544.8125
1073.11995	15716.8125
1076.79611	15914.5125
1080.46974	16130.6125
1084.14085	16406.5125
1087.80943	16750.1125
1091.47549	16893.7125
1095.13903	16662.0125
1098.80005	16206.2125
1102.45857	15731.0125
1106.11456	15458.2125
1109.76805	15514.1125
1113.41903	15739.7125
1117.06751	16119.7125
1120.71348	16591.2125
1124.35696	17123.1125
1127.99793	17596.4125
1131.63641	17617.0125
1135.2724	17100.7125
1138.90589	16549.1125
1142.5369	16220.8125
1146.16542	15973.9125
1149.79145	15944.5125
1153.415	15999.1125
1157.03607	16248.4125
1160.65467	16675.2125
1164.27079	17328.0125
1167.88443	18322.3125
1171.49561	19856.7125
1175.10432	22193.4125
1178.71056	25158.0125
1182.31434	27597.6125
1185.91565	28641.3125
1189.51451	28325.2125
1193.11091	26934.0125
1196.70485	25037.2125
1200.29634	23429.0125
1203.88538	22076.4125
1207.47197	20889.0125
1211.05612	19878.9125
1214.63782	19339.1125
1218.21708	19256.4125
1221.79391	19371.3125
1225.36829	19459.9125
1228.94024	19429.1125
1232.50976	19265.7125
1236.07685	19184.8125
1239.6415	19105.6125
1243.20374	19093.4125
1246.76355	19136.2125
1250.32093	19426.6125
1253.8759	19946.8125
1257.42845	20646.4125
1260.97859	21309.1125
1264.52631	21912.3125
1268.07163	22612.4125
1271.61453	23287.2125
1275.15503	23963.1125
1278.69312	24527.5125
1282.22882	24951.7125
1285.76211	25499.4125
1289.29301	26185.8125
1292.82151	26994.5125
1296.34761	27901.2125
1299.87133	29366.2125
1303.39266	31537.4125
1306.9116	34601.2125
1310.42815	38133.1125
1313.94233	40523.1125
1317.45412	40541.2125
1320.96354	38829.6125
1324.47058	36718.3125
1327.97525	34869.5125
1331.47754	33574.2125
1334.97747	33119.6125
1338.47502	33207.4125
1341.97022	33595.1125
1345.46305	33869.4125
1348.95352	34257.9125
1352.44163	34954.7125
1355.92738	36776.3125
1359.41078	40318.7125
1362.89183	43920.9125
1366.37053	42887.9125
1369.84688	37373.8125
1373.32088	31775.4125
1376.79254	28191.7125
1380.26186	26563.0125
1383.72883	25843.4125
1387.19347	25350.5125
1390.65578	24816.0125
1394.11575	24580.5125
1397.57339	24704.1125
1401.0287	25212.6125
1404.48168	25770.1125
1407.93234	26240.7125
1411.38068	26362.9125
1414.82669	26008.8125
1418.27039	25160.9125
1421.71177	24179.1125
1425.15083	23241.2125
1428.58758	22736.0125
1432.02203	22657.3125
1435.45416	22883.4125
1438.88399	23111.7125
1442.31151	23340.8125
1445.73673	23654.9125
1449.15965	23975.3125
1452.58027	24130.8125
1455.9986	24134.9125
1459.41463	24290.8125
1462.82837	24637.9125
1466.23982	25129.0125
1469.64898	25614.2125
1473.05586	25885.5125
1476.46045	26035.1125
1479.86276	26156.2125
1483.26279	26433.5125
1486.66054	26766.9125
1490.05602	27257.9125
1493.44922	27899.3125
1496.84016	28832.6125
1500.22882	30271.7125
1503.61521	32404.5125
1506.99934	35080.0125
1510.38121	37778.9125
1513.76081	39274.6125
1517.13816	38186.9125
1520.51324	34966.3125
1523.88607	31477.0125
1527.25665	28986.0125
1530.62498	27515.8125
1533.99105	26608.1125
1537.35488	26026.2125
1540.71647	25716.1125
1544.07581	25410.9125
1547.4329	25127.4125
1550.78776	24882.2125
1554.14038	24786.3125
1557.49077	24881.8125
1560.83892	25154.8125
1564.18484	25471.6125
1567.52853	25703.2125
1570.86999	25811.1125
1574.20922	26006.3125
1577.54624	25950.0125
1580.88103	25213.5125
1584.2136	24456.2125
1587.54395	24474.1125
1590.87208	25453.8125
1594.19801	27287.8125
1597.52172	29380.4125
1600.84321	30194.2125
1604.16251	29051.9125
1607.47959	26799.4125
1610.79447	24303.8125
1614.10715	22087.7125
1617.41763	20294.5125
1620.7259	19145.5125
1624.03199	18621.5125
1627.33587	18626.9125
1630.63757	19242.4125
1633.93707	20462.7125
1637.23439	22246.0125
1640.52951	24597.9125
1643.82246	27315.3125
1647.11321	29929.8125
1650.40179	31310.6125
1653.68819	30007.4125
1656.97241	26152.4125
1660.25446	21915.5125
1663.53433	18797.6125
1666.81203	16892.1125
1670.08756	15706.7125
1673.36092	15016.1125
1676.63211	14561.7125
1679.90115	14245.2125
1683.16801	13993.4125
1686.43272	13857.0125
1689.69527	13710.7125
1692.95567	13579.4125
1696.2139	13554.4125
1699.46999	13551.1125
1702.72392	13494.6125
1705.97571	13459.6125
1709.22535	13426.4125
1712.47284	13424.5125
1715.71819	13407.7125
1718.96139	13382.6125
1722.20246	13358.8125
1725.44139	13304.0125
1728.67818	13210.3125
1731.91284	13117.6125
1735.14537	13048.4125
1738.37576	12956.7125
1741.60403	12932.5125
1744.83017	12871.4125
1748.05418	12828.7125
1751.27607	12791.5125
1754.49584	12793.1125
1757.71349	12789.6125
1760.92903	12796.0125
1764.14244	12796.3125
1767.35375	12754.7125
1770.56294	12732.9125
1773.77002	12717.8125
1776.97499	12685.2125
1780.17785	12633.4125
1783.37861	12630.3125
1786.57727	12595.6125
1789.77382	12585.1125
1792.96828	12562.8125
1796.16064	12535.1125
1799.3509	12521.9125
1802.53907	12536.7125
1805.72514	12492.3125
1808.90913	12460.1125
1812.09102	12444.9125
1815.27083	12398.1125
1818.44856	12391.4125
1821.6242	12377.3125
1824.79776	12342.5125
1827.96924	12348.5125
1831.13864	12361.1125
1834.30597	12334.6125
1837.47122	12311.3125
1840.6344	12311.2125
1843.7955	12315.1125
1846.95454	12312.8125
1850.11151	12312.3125
1853.26642	12321.3125
1856.41926	12370.3125
1859.57004	12352.9125
1862.71876	12339.7125
1865.86542	12331.3125
1869.01003	12371.5125
1872.15258	12347.0125
1875.29308	12383.3125
1878.43152	12368.2125
1881.56792	12366.1125
1884.70227	12400.6125
1887.83457	12414.9125
1890.96482	12406.7125
1894.09304	12391.1125
1897.21921	12404.1125
1900.34335	12408.8125
1903.46544	12393.7125
1906.58551	12435.4125
1909.70353	12402.0125
1912.81953	12418.2125
1915.93349	12416.0125
1919.04543	12403.8125
1922.15534	12378.1125
1925.26322	12326.7125
1928.36908	12308.0125
1931.47292	12277.4125
1934.57473	12222.6125
1937.67453	12223.9125
1940.77232	12151.0125
1943.86808	12061.8125
1946.96184	12024.0125
1950.05358	11972.1125
1953.14331	11908.4125
1956.23103	11856.3125
1959.31675	11818.7125
1962.40046	11808.0125
1965.48217	11752.6125
1968.56188	11718.7125
1971.63959	11695.1125
1974.7153	11657.8125
1977.78901	11633.4125
1980.86073	11579.8125
1983.93046	11537.5125
1986.99819	11501.2125
1990.06394	11473.9125
1993.1277	11450.1125
1996.18947	11409.6125
1999.24925	11372.3125
2002.30706	11329.4125
2005.36288	11304.5125
2008.41672	11274.5125
2011.46859	11226.5125
2014.51848	11228.8125
2017.56639	11211.2125
2020.61233	11145.3125
2023.6563	11126.7125
2026.6983	11130.8125
2029.73833	11088.1125
2032.7764	11092.8125
2035.8125	11045.9125
2038.84664	11051.6125
2041.87881	11021.7125
2044.90903	10984.3125
2047.93729	10997.3125
2050.96359	10993.4125
2053.98794	10979.3125
2057.01034	10946.4125
2060.03078	10929.2125
2063.04927	10917.6125
2066.06582	10915.5125
2069.08042	10916.4125
2072.09307	10906.5125
2075.10378	10896.1125
2078.11255	10861.1125
2081.11938	10849.1125
2084.12426	10835.8125
2087.12722	10859.8125
2090.12824	10867.3125
2093.12732	10814.1125
2096.12447	10837.3125
2099.11969	10822.1125
2102.11299	10820.8125
2105.10435	10857.7125
2108.09379	10845.1125
2111.08131	10853.9125
2114.0669	10819.5125
2117.05057	10840.1125
2120.03233	10860.0125
2123.01216	10872.8125
2125.99008	10880.1125
2128.96609	10894.8125
2131.94018	10903.2125
2134.91236	10896.3125
2137.88263	10917.2125
2140.851	10928.0125
2143.81746	10910.9125
2146.78201	10907.7125
2149.74466	10889.4125
2152.7054	10933.3125
2155.66425	10882.6125
2158.6212	10877.2125
2161.57625	10891.1125
2164.52941	10902.0125
2167.48067	10859.1125
2170.43004	10860.6125
2173.37752	10873.6125
2176.32311	10862.9125
2179.26681	10892.2125
2182.20863	10877.9125
2185.14856	10866.2125
2188.08661	10879.0125
2191.02278	10872.4125
2193.95707	10915.0125
2196.88948	10895.9125
2199.82001	10890.1125
2202.74867	10860.1125
2205.67545	10848.4125
2208.60037	10857.9125
2211.52341	10852.7125
2214.44458	10841.1125
2217.36388	10831.2125
2220.28132	10808.4125
2223.1969	10782.6125
2226.11061	10780.4125
2229.02246	10745.2125
2231.93245	10721.8125
2234.84058	10708.9125
2237.74686	10691.3125
2240.65128	10691.9125
2243.55385	10683.8125
2246.45456	10637.5125
2249.35343	10638.4125
2252.25044	10644.4125
2255.14561	10634.7125
2258.03893	10634.8125
2260.93041	10606.7125
2263.82004	10567.2125
2266.70783	10533.8125
2269.59378	10540.7125
2272.4779	10473.5125
2275.36017	10476.9125
2278.24061	10424.4125
2281.11922	10426.5125
2283.996	10419.5125
2286.87094	10411.8125
2289.74405	10410.6125
2292.61534	10383.9125
2295.4848	10395.2125
2298.35243	10396.2125
2301.21824	10381.3125
2304.08223	10387.7125
2306.94439	10374.9125
2309.80474	10395.0125
2312.66327	10426.2125
2315.51999	10394.3125
2318.37489	10412.4125
2321.22797	10399.7125
2324.07925	10390.0125
2326.92871	10382.8125
2329.77637	10373.0125
2332.62222	10390.4125
2335.46626	10368.0125
2338.3085	10385.9125
2341.14893	10410.6125
2343.98756	10434.2125
2346.8244	10435.9125
2349.65943	10419.0125
2352.49267	10428.7125
2355.32411	10431.4125
2358.15376	10411.5125
2360.98161	10434.0125
2363.80768	10401.0125
2366.63195	10424.9125
2369.45444	10397.7125
2372.27514	10379.9125
2375.09405	10367.2125
2377.91118	10320.9125
2380.72652	10270.1125
2383.54009	10237.9125
2386.35187	10224.4125
2389.16188	10177.1125
2391.97011	10177.6125
2394.77657	10129.3125
2397.58125	10135.7125
2400.38416	10118.5125
2403.18529	10105.6125
2405.98466	10075.7125
2408.78226	10052.4125
2411.57809	10040.9125
2414.37216	10020.6125
2417.16446	10005.2125
2419.955	9992.0125
2422.74378	9977.6125
2425.5308	9974.9125
2428.31606	9957.0125
2431.09956	9973.7125
2433.88131	9975.8125
2436.6613	9976.3125
2439.43954	9977.9125
2442.21603	9992.1125
2444.99077	9972.6125
2447.76377	9963.6125
2450.53501	9934.6125
2453.30451	9959.2125
2456.07226	9933.8125
2458.83827	9943.3125
2461.60254	9962.8125
2464.36507	9925.6125
2467.12586	9933.3125
2469.88492	9958.8125
2472.64224	9950.0125
2475.39782	9960.8125
2478.15167	9967.0125
2480.90379	9979.8125
2483.65417	10017.3125
2486.40283	10029.9125
2489.14976	10038.2125
2491.89497	10061.0125
2494.63845	10063.6125
2497.3802	10053.0125
2500.12024	10050.3125
2502.85855	10049.0125
2505.59514	10022.4125
2508.33002	10007.2125
2511.06318	9983.5125
2513.79462	9959.1125
2516.52435	9939.0125
2519.25237	9959.4125
2521.97867	9922.7125
2524.70327	9903.9125
2527.42616	9892.5125
2530.14734	9903.1125
2532.86681	9876.4125
2535.58458	9912.6125
2538.30065	9872.6125
2541.01501	9877.1125
2543.72768	9866.6125
2546.43864	9877.4125
2549.14791	9871.7125
2551.85548	9874.3125
2554.56136	9850.0125
2557.26554	9852.7125
2559.96803	9833.0125
2562.66883	9810.4125
2565.36794	9804.9125
2568.06536	9779.7125
2570.7611	9787.0125
2573.45514	9778.3125
2576.14751	9763.3125
2578.83819	9775.6125
2581.52719	9762.6125
2584.21451	9756.9125
2586.90015	9761.9125
2589.58411	9746.6125
2592.2664	9773.4125
2594.94701	9765.2125
2597.62594	9764.4125
2600.30321	9755.3125
2602.9788	9757.4125
2605.65273	9743.7125
2608.32498	9771.9125
2610.99557	9759.8125
2613.66449	9775.6125
2616.33175	9755.2125
2618.99734	9791.6125
2621.66128	9788.0125
2624.32355	9789.1125
2626.98416	9774.4125
2629.64311	9774.9125
2632.30041	9765.2125
2634.95605	9774.0125
2637.61004	9724.6125
2640.26238	9743.6125
2642.91306	9695.0125
2645.56209	9730.2125
2648.20948	9710.4125
2650.85521	9666.4125
2653.4993	9684.7125
2656.14175	9659.6125
2658.78255	9676.5125
2661.42171	9676.9125
2664.05923	9719.1125
2666.6951	9736.9125
2669.32934	9757.7125
2671.96194	9750.3125
2674.59291	9759.6125
2677.22224	9757.7125
2679.84993	9760.7125
2682.476	9778.0125
2685.10043	9765.2125
2687.72324	9745.9125
2690.34441	9718.4125
2692.96396	9731.3125
2695.58188	9727.0125
2698.19818	9731.5125
2700.81285	9730.8125
2703.4259	9712.2125
2706.03733	9747.1125
2708.64714	9719.0125
2711.25533	9734.8125
2713.86191	9731.2125
2716.46687	9742.0125
2719.07021	9758.7125
2721.67194	9763.8125
2724.27206	9753.6125
2726.87057	9743.5125
2729.46747	9789.9125
2732.06276	9768.5125
2734.65644	9777.2125
2737.24852	9778.9125
2739.83899	9756.1125
2742.42786	9779.3125
2745.01513	9720.7125
2747.60079	9736.6125
2750.18486	9724.7125
2752.76733	9732.0125
2755.3482	9733.5125
2757.92747	9706.7125
2760.50515	9719.6125
2763.08123	9697.0125
2765.65573	9681.7125
2768.22863	9673.9125
2770.79994	9655.9125
2773.36967	9692.9125
2775.9378	9686.4125
2778.50435	9679.7125
2781.06932	9685.4125
2783.6327	9671.8125
2786.1945	9705.4125
2788.75471	9695.4125
2791.31335	9677.9125
2793.87041	9647.6125
2796.42589	9632.9125
2798.97979	9642.7125
2801.53212	9628.9125
2804.08288	9624.5125
2806.63206	9604.1125
2809.17967	9602.9125
2811.72571	9588.7125
2814.27018	9577.5125
2816.81308	9583.6125
2819.35442	9568.8125
2821.89419	9552.7125
2824.43239	9572.4125
2826.96904	9554.3125
2829.50412	9547.7125
2832.03763	9544.7125
2834.56959	9567.3125
2837.1	9553.7125
2839.62884	9569.5125
2842.15613	9565.4125
2844.68186	9636.9125
2847.20604	9646.4125
2849.72867	9650.8125
2852.24974	9655.9125
2854.76927	9622.4125
2857.28724	9606.6125
2859.80367	9598.4125
2862.31855	9580.7125
2864.83189	9568.0125
2867.34368	9552.9125
2869.85393	9555.8125
2872.36264	9563.5125
2874.8698	9553.1125
2877.37543	9573.9125
2879.87952	9571.0125
2882.38207	9548.9125
2884.88308	9529.5125
2887.38256	9543.1125
2889.88051	9556.1125
2892.37692	9567.1125
2894.8718	9553.1125
2897.36515	9562.3125
2899.85698	9568.8125
2902.34727	9593.1125
2904.83604	9594.5125
2907.32328	9626.1125
2909.809	9605.3125
2912.29319	9616.5125
2914.77587	9612.2125
2917.25702	9606.1125
2919.73665	9575.2125
2922.21476	9605.4125
2924.69136	9576.8125
2927.16644	9570.8125
2929.64	9553.8125
2932.11205	9534.3125
2934.58258	9482.3125
2937.05161	9516.4125
2939.51912	9499.1125
2941.98513	9478.5125
2944.44962	9432.1125
2946.91261	9408.8125
2949.37409	9431.3125
2951.83407	9383.4125
2954.29254	9341.6125
2956.74951	9377.7125
2959.20498	9356.9125
2961.65895	9341.8125
2964.11142	9356.1125
2966.56239	9343.3125
2969.01186	9329.2125
2971.45984	9315.2125
2973.90632	9300.6125
2976.35131	9256.9125
2978.7948	9256.6125
2981.23681	9212.9125
2983.67732	9208.2125
2986.11635	9184.5125
2988.55388	9148.9125
2990.98993	9151.9125
2993.4245	9110.1125
2995.85758	9088.7125
2998.28917	9058.4125
3000.71928	9070.3125
3003.14791	9028.7125
3005.57506	9053.4125
3008.00073	9031.0125
3010.42493	8875.0125
3012.84764	8956.0125
3015.26888	8973.7125
3017.68865	8942.0125
3020.10694	8939.4125
3022.52376	8906.5125
3024.9391	8891.0125
3027.35298	8882.3125
3029.76539	8873.4125
3032.17632	8893.8125
3034.5858	8877.5125
3036.9938	8873.6125
3039.40034	8849.2125
3041.80542	8853.6125
3044.20903	8828.1125
3046.61118	8814.8125
3049.01187	8803.8125
3051.4111	8786.1125
3053.80888	8789.8125
3056.20519	8776.1125
3058.60005	8739.5125
3060.99345	8722.4125
3063.3854	8712.9125
3065.7759	8670.5125
3068.16494	8645.0125
3070.55254	8631.0125
3072.93868	8605.0125
3075.32338	8569.3125
3077.70662	8533.7125
3080.08842	8522.3125
3082.46878	8520.3125
3084.84769	8482.2125
3087.22515	8501.2125
3089.60118	8494.6125
3091.97576	8486.4125
3094.3489	8477.9125
3096.72061	8477.0125
3099.09087	8665.9125
3101.4597	8476.8125
3103.82709	8473.4125
3106.19305	8460.6125
3108.55757	8451.6125
3110.92066	8427.5125
3113.28232	8410.1125
3115.64255	8401.9125
3118.00134	8372.2125
3120.35871	8373.4125
3122.71466	8358.4125
3125.06917	8331.6125
3127.42226	8336.3125
3129.77393	8330.4125
3132.12417	8310.9125
3134.47299	8298.4125
3136.82039	8295.0125
3139.16636	8310.5125
3141.51092	8312.2125
3143.85406	8309.0125
3146.19579	8312.2125
3148.53609	8305.4125
3150.87499	8315.0125
3153.21246	8308.9125
3155.54853	8338.0125
3157.88318	8338.6125
3160.21642	8347.7125
3162.54826	8321.0125
3164.87868	8318.6125
3167.2077	8344.9125
3169.5353	8327.1125
3171.86151	8329.3125
3174.18631	8342.0125
3176.5097	8325.5125
3178.83169	8297.8125
3181.15228	8299.9125
3183.47147	8286.3125
3185.78926	8277.5125
3188.10565	8285.4125
3190.42065	8272.8125
3192.73424	8283.5125
3195.04645	8261.6125
3197.35725	8275.2125
3199.66667	8272.0125
3201.97469	8296.7125
3204.28132	8275.1125
3206.58656	8299.3125
3208.8904	8311.1125
3211.19287	8314.8125
3213.49394	8306.3125
3215.79363	8310.8125
3218.09193	8306.0125
3220.38884	8308.8125
3222.68438	8327.9125
3224.97853	8298.7125
3227.2713	8325.5125
3229.56269	8311.6125
3231.8527	8292.2125
3234.14133	8265.5125
3236.42858	8273.9125
3238.71446	8267.8125
3240.99896	8254.1125
3243.28209	8238.7125
3245.56384	8203.5125
3247.84423	8201.4125
3250.12324	8214.5125
3252.40088	8185.8125
3254.67715	8194.0125
3256.95205	8186.0125
3259.22558	8183.3125
3261.49775	8153.1125
3263.76855	8161.4125
3266.03799	8158.3125
3268.30606	8155.3125
3270.57277	8139.5125
3272.83812	8092.5125
3275.10211	8092.5125
3277.36474	8090.6125
3279.62601	8079.1125
3281.88593	8062.5125
3284.14448	8055.8125
3286.40168	8086.6125
3288.65753	8075.2125
3290.91202	8069.9125
3293.16516	8062.6125
3295.41695	8032.4125
3297.66738	7993.8125
3299.91647	7945.9125
3302.16421	7908.0125
3304.4106	7875.1125
3306.65564	7823.7125
3308.89933	7751.4125
3311.14169	7713.4125
3313.38269	7619.1125
3315.62236	7596.2125
3317.86068	7521.2125
3320.09766	7476.5125
3322.3333	7430.8125
3324.5676	7390.0125
3326.80056	7273.6125
3329.03219	7234.6125
3331.26248	3.9125
3333.49143	0.5125
3335.71905	-0.8875
