Data from AgNP_FTO_APTES_UA_10uM_CRN_1uM_R6G_10uM_NaF_0.1M_Addition_RamanShift__7__13-00-50-501.txt Node

Date: Thu Feb 10 13:00:50 GMT 2022
User: TCL
Spectrometer: QEP01345
Trigger mode: 4
Integration Time (sec): 7.000000E0
Scans to average: 10
Electric dark correction enabled: true
Nonlinearity correction enabled: false
Boxcar width: 0
XAxis mode: Raman Shifts
Number of Pixels in Spectrum: 1044
>>>>>Begin Spectral Data<<<<<
46.04893	0.1375
50.45542	-1.4625
54.85868	-2.1625
59.25871	-1.0625
63.6555	80.6375
68.04907	82.3375
72.43941	83.5375
76.82654	84.7375
81.21044	92.7375
85.59113	89.6375
89.96862	97.7375
94.34289	101.1375
98.71396	102.4375
103.08183	109.7375
107.4465	112.9375
111.80798	112.7375
116.16626	111.6375
120.52136	119.3375
124.87327	128.1375
129.222	129.4375
133.56755	141.2375
137.90993	151.1375
142.24913	166.6375
146.58517	192.1375
150.91804	225.7375
155.24774	274.4375
159.57429	333.2375
163.89768	435.3375
168.21792	583.9375
172.53501	795.1375
176.84895	1111.3375
181.15975	1562.3375
185.46741	2199.5375
189.77193	3028.1375
194.07331	4041.5375
198.37157	5214.9375
202.6667	6424.3375
206.9587	7630.5375
211.24758	8839.6375
215.53334	10057.9375
219.81599	11324.3375
224.09553	12739.9375
228.37195	14302.6375
232.64527	15989.6375
236.91549	17771.7375
241.18261	19583.4375
245.44663	21167.4375
249.70755	22610.5375
253.96539	23870.9375
258.22014	24904.6375
262.4718	25735.1375
266.72039	26300.9375
270.96589	26592.4375
275.20832	26572.5375
279.44768	26341.4375
283.68397	26029.8375
287.91719	25824.1375
292.14735	25631.7375
296.37445	25564.2375
300.59849	25652.4375
304.81948	25789.6375
309.03742	25918.1375
313.25231	25864.4375
317.46415	25573.2375
321.67296	25091.6375
325.87872	24630.5375
330.08145	24468.5375
334.28114	24432.2375
338.47781	24575.0375
342.67145	24865.0375
346.86207	25300.4375
351.04966	25824.3375
355.23424	26364.9375
359.4158	26818.6375
363.59435	27177.9375
367.76989	27360.2375
371.94243	27488.5375
376.11196	27493.0375
380.27849	27546.0375
384.44203	27657.5375
388.60257	27867.7375
392.76012	28171.0375
396.91468	28593.8375
401.06626	29044.4375
405.21485	29346.2375
409.36047	29213.5375
413.50311	28955.0375
417.64277	28908.2375
421.77947	29126.7375
425.9132	29369.6375
430.04396	29536.3375
434.17176	29589.3375
438.2966	29617.7375
442.41849	30033.9375
446.53742	30763.3375
450.6534	31658.2375
454.76644	32247.6375
458.87653	32300.0375
462.98368	32023.7375
467.08789	31564.9375
471.18916	30957.4375
475.2875	30197.2375
479.38291	29724.5375
483.4754	29417.4375
487.56496	29191.9375
491.6516	28851.0375
495.73531	28581.0375
499.81612	28469.5375
503.89401	28737.7375
507.96899	28964.0375
512.04106	28916.5375
516.11023	28756.1375
520.1765	28468.5375
524.23987	28163.5375
528.30034	27871.6375
532.35792	27606.5375
536.41261	27191.5375
540.46441	26878.5375
544.51333	26745.8375
548.55936	26987.6375
552.60252	27525.0375
556.64279	28241.7375
560.6802	28795.2375
564.71473	29093.9375
568.7464	29599.9375
572.7752	30497.9375
576.80114	31777.3375
580.82422	33235.6375
584.84444	35224.4375
588.86181	37898.5375
592.87633	40193.1375
596.888	39737.5375
600.89682	36693.3375
604.9028	35003.9375
608.90594	36405.7375
612.90624	38433.4375
616.90371	35992.7375
620.89834	30631.8375
624.89015	28296.6375
628.87913	28064.2375
632.86528	28254.0375
636.84862	28151.8375
640.82913	27492.6375
644.80683	26737.2375
648.78172	26324.9375
652.75379	26374.0375
656.72306	26734.3375
660.68952	27199.3375
664.65319	26971.6375
668.61405	26494.7375
672.57211	26390.8375
676.52738	26627.1375
680.47986	26561.9375
684.42955	26321.7375
688.37646	26207.2375
692.32058	26427.6375
696.26192	26908.0375
700.20048	27454.5375
704.13626	27679.8375
708.06928	27633.1375
711.99952	27465.2375
715.927	27533.4375
719.85171	27626.9375
723.77365	27496.6375
727.69284	26910.5375
731.60928	26388.3375
735.52295	26229.3375
739.43388	26220.2375
743.34206	26308.1375
747.24749	26600.6375
751.15017	26909.3375
755.05012	27421.0375
758.94733	28221.9375
762.8418	29523.2375
766.73354	31475.5375
770.62254	33178.4375
774.50882	33403.8375
778.39237	31968.1375
782.27321	30008.7375
786.15132	28337.5375
790.02671	27278.2375
793.89938	26766.6375
797.76935	26503.7375
801.6366	26432.0375
805.50115	26390.1375
809.36299	26270.1375
813.22213	26051.6375
817.07857	25889.5375
820.93231	25658.2375
824.78336	25516.0375
828.63172	25361.5375
832.47738	25315.0375
836.32036	25321.9375
840.16066	25372.2375
843.99827	25378.8375
847.8332	25399.4375
851.66546	25416.8375
855.49504	25425.4375
859.32195	25470.9375
863.1462	25367.8375
866.96777	25277.1375
870.78668	25246.3375
874.60293	25291.7375
878.41652	25326.4375
882.22745	25419.3375
886.03573	25526.5375
889.84136	25514.6375
893.64433	25417.6375
897.44466	25300.9375
901.24235	25230.7375
905.0374	25164.2375
908.8298	25133.7375
912.61957	25156.8375
916.40671	25361.4375
920.19121	25693.0375
923.97308	26077.5375
927.75233	26203.5375
931.52895	25991.3375
935.30295	25470.1375
939.07433	24958.3375
942.84309	24610.3375
946.60924	24492.5375
950.37278	24457.8375
954.13371	24500.8375
957.89203	24510.3375
961.64774	24473.8375
965.40086	24489.1375
969.15137	24504.5375
972.89929	24383.6375
976.64461	24365.2375
980.38733	24363.4375
984.12747	24425.5375
987.86502	24561.0375
991.59999	24733.8375
995.33237	25020.7375
999.06217	25497.0375
1002.78939	26197.8375
1006.51404	26929.3375
1010.23611	27634.6375
1013.95561	28025.9375
1017.67255	28077.5375
1021.38692	27691.0375
1025.09872	27056.5375
1028.80796	26645.3375
1032.51465	26715.8375
1036.21877	26921.6375
1039.92035	27090.4375
1043.61937	27114.2375
1047.31584	26970.6375
1051.00976	26710.9375
1054.70114	26647.8375
1058.38998	26750.6375
1062.07627	26993.2375
1065.76003	27275.2375
1069.44126	27709.7375
1073.11995	28296.3375
1076.79611	28817.6375
1080.46974	29106.9375
1084.14085	29412.6375
1087.80943	29794.9375
1091.47549	30133.0375
1095.13903	30125.6375
1098.80005	29567.9375
1102.45857	28844.2375
1106.11456	28210.4375
1109.76805	27878.5375
1113.41903	27792.4375
1117.06751	27915.3375
1120.71348	28155.2375
1124.35696	28420.3375
1127.99793	28763.9375
1131.63641	28990.8375
1135.2724	29006.3375
1138.90589	28894.6375
1142.5369	28998.2375
1146.16542	29291.3375
1149.79145	29611.6375
1153.415	29820.3375
1157.03607	30239.4375
1160.65467	31065.3375
1164.27079	32642.8375
1167.88443	34469.3375
1171.49561	36446.1375
1175.10432	38741.0375
1178.71056	41665.4375
1182.31434	44587.1375
1185.91565	45988.0375
1189.51451	45738.9375
1193.11091	44451.0375
1196.70485	42831.7375
1200.29634	41278.9375
1203.88538	40219.4375
1207.47197	39946.5375
1211.05612	39718.8375
1214.63782	39059.7375
1218.21708	37825.1375
1221.79391	36557.5375
1225.36829	35783.2375
1228.94024	35380.8375
1232.50976	34876.1375
1236.07685	34288.1375
1239.6415	33793.4375
1243.20374	33617.2375
1246.76355	33866.0375
1250.32093	34429.6375
1253.8759	35285.6375
1257.42845	36467.0375
1260.97859	37622.0375
1264.52631	39018.8375
1268.07163	40346.3375
1271.61453	41692.4375
1275.15503	42955.2375
1278.69312	44157.8375
1282.22882	45521.3375
1285.76211	47158.9375
1289.29301	48995.8375
1292.82151	51326.5375
1296.34761	54130.2375
1299.87133	57582.5375
1303.39266	61298.6375
1306.9116	64620.8375
1310.42815	67096.5375
1313.94233	67996.2375
1317.45412	67050.6375
1320.96354	65222.3375
1324.47058	63889.3375
1327.97525	63236.7375
1331.47754	62821.4375
1334.97747	62449.2375
1338.47502	61764.9375
1341.97022	60624.0375
1345.46305	59390.0375
1348.95352	58368.5375
1352.44163	58274.4375
1355.92738	59633.3375
1359.41078	62340.2375
1362.89183	64693.3375
1366.37053	64158.8375
1369.84688	59487.8375
1373.32088	52699.8375
1376.79254	47864.9375
1380.26186	46218.0375
1383.72883	46211.7375
1387.19347	46250.6375
1390.65578	45719.0375
1394.11575	45533.0375
1397.57339	46184.3375
1401.0287	47211.6375
1404.48168	48100.1375
1407.93234	48291.5375
1411.38068	47467.1375
1414.82669	45882.8375
1418.27039	43883.2375
1421.71177	42024.2375
1425.15083	40669.7375
1428.58758	40252.4375
1432.02203	41008.6375
1435.45416	42622.5375
1438.88399	44132.2375
1442.31151	44988.5375
1445.73673	45262.1375
1449.15965	45190.1375
1452.58027	44843.7375
1455.9986	44579.0375
1459.41463	44855.0375
1462.82837	45625.8375
1466.23982	46637.9375
1469.64898	47536.8375
1473.05586	47917.3375
1476.46045	47836.6375
1479.86276	47364.5375
1483.26279	46796.3375
1486.66054	46616.5375
1490.05602	46827.8375
1493.44922	47320.9375
1496.84016	47788.4375
1500.22882	48306.5375
1503.61521	49243.0375
1506.99934	50361.4375
1510.38121	51225.2375
1513.76081	51103.8375
1517.13816	50040.3375
1520.51324	48729.7375
1523.88607	47992.5375
1527.25665	48007.3375
1530.62498	48154.6375
1533.99105	47918.2375
1537.35488	47253.4375
1540.71647	46074.0375
1544.07581	44678.2375
1547.4329	43322.8375
1550.78776	42162.4375
1554.14038	41324.4375
1557.49077	40798.3375
1560.83892	40442.9375
1564.18484	40302.0375
1567.52853	40344.9375
1570.86999	40720.4375
1574.20922	41393.6375
1577.54624	42178.2375
1580.88103	42620.7375
1584.2136	43304.5375
1587.54395	45170.7375
1590.87208	48346.2375
1594.19801	52157.6375
1597.52172	55421.5375
1600.84321	56012.6375
1604.16251	52909.6375
1607.47959	47899.5375
1610.79447	42830.2375
1614.10715	38438.7375
1617.41763	35138.5375
1620.7259	33112.0375
1624.03199	32189.3375
1627.33587	32322.7375
1630.63757	33615.3375
1633.93707	36327.2375
1637.23439	40848.9375
1640.52951	47569.2375
1643.82246	55409.1375
1647.11321	61202.7375
1650.40179	61294.3375
1653.68819	55116.8375
1656.97241	46213.5375
1660.25446	38301.1375
1663.53433	32909.3375
1666.81203	29667.0375
1670.08756	27670.0375
1673.36092	26407.8375
1676.63211	25631.1375
1679.90115	25105.9375
1683.16801	24648.1375
1686.43272	24348.4375
1689.69527	24084.1375
1692.95567	23917.1375
1696.2139	23803.7375
1699.46999	23708.7375
1702.72392	23612.9375
1705.97571	23527.3375
1709.22535	23535.1375
1712.47284	23476.8375
1715.71819	23423.1375
1718.96139	23343.8375
1722.20246	23274.8375
1725.44139	23128.3375
1728.67818	22946.6375
1731.91284	22820.7375
1735.14537	22668.0375
1738.37576	22567.2375
1741.60403	22512.2375
1744.83017	22402.9375
1748.05418	22333.4375
1751.27607	22260.7375
1754.49584	22215.8375
1757.71349	22234.0375
1760.92903	22208.2375
1764.14244	22224.2375
1767.35375	22172.0375
1770.56294	22126.3375
1773.77002	22068.5375
1776.97499	22028.4375
1780.17785	21957.2375
1783.37861	21951.4375
1786.57727	21925.3375
1789.77382	21860.2375
1792.96828	21798.6375
1796.16064	21738.6375
1799.3509	21711.7375
1802.53907	21713.3375
1805.72514	21639.9375
1808.90913	21589.7375
1812.09102	21520.9375
1815.27083	21497.3375
1818.44856	21455.6375
1821.6242	21409.2375
1824.79776	21434.5375
1827.96924	21372.9375
1831.13864	21427.7375
1834.30597	21435.6375
1837.47122	21461.6375
1840.6344	21451.8375
1843.7955	21470.3375
1846.95454	21461.9375
1850.11151	21440.9375
1853.26642	21420.2375
1856.41926	21380.6375
1859.57004	21383.2375
1862.71876	21395.5375
1865.86542	21334.9375
1869.01003	21306.2375
1872.15258	21282.9375
1875.29308	21268.5375
1878.43152	21229.0375
1881.56792	21225.1375
1884.70227	21211.1375
1887.83457	21178.4375
1890.96482	21119.5375
1894.09304	21059.2375
1897.21921	20992.4375
1900.34335	21000.1375
1903.46544	21018.7375
1906.58551	20970.0375
1909.70353	20944.4375
1912.81953	20903.4375
1915.93349	20881.6375
1919.04543	20802.7375
1922.15534	20762.8375
1925.26322	20696.5375
1928.36908	20661.8375
1931.47292	20605.4375
1934.57473	20555.7375
1937.67453	20515.2375
1940.77232	20460.5375
1943.86808	20419.3375
1946.96184	20360.2375
1950.05358	20269.7375
1953.14331	20263.9375
1956.23103	20196.4375
1959.31675	20143.1375
1962.40046	20070.4375
1965.48217	20016.3375
1968.56188	19968.5375
1971.63959	19879.7375
1974.7153	19808.4375
1977.78901	19786.7375
1980.86073	19730.3375
1983.93046	19640.1375
1986.99819	19579.8375
1990.06394	19525.9375
1993.1277	19507.8375
1996.18947	19452.1375
1999.24925	19397.2375
2002.30706	19347.3375
2005.36288	19266.2375
2008.41672	19224.2375
2011.46859	19199.2375
2014.51848	19153.8375
2017.56639	19096.3375
2020.61233	19067.3375
2023.6563	19021.2375
2026.6983	18991.8375
2029.73833	18970.9375
2032.7764	18889.1375
2035.8125	18887.9375
2038.84664	18808.5375
2041.87881	18799.2375
2044.90903	18769.5375
2047.93729	18721.6375
2050.96359	18709.5375
2053.98794	18703.8375
2057.01034	18659.9375
2060.03078	18669.1375
2063.04927	18635.7375
2066.06582	18625.5375
2069.08042	18604.3375
2072.09307	18599.6375
2075.10378	18566.2375
2078.11255	18557.4375
2081.11938	18542.7375
2084.12426	18542.7375
2087.12722	18534.2375
2090.12824	18523.2375
2093.12732	18530.4375
2096.12447	18514.9375
2099.11969	18496.2375
2102.11299	18530.6375
2105.10435	18521.0375
2108.09379	18561.9375
2111.08131	18567.0375
2114.0669	18565.0375
2117.05057	18568.6375
2120.03233	18581.0375
2123.01216	18629.7375
2125.99008	18618.5375
2128.96609	18657.2375
2131.94018	18679.4375
2134.91236	18667.5375
2137.88263	18686.2375
2140.851	18628.7375
2143.81746	18663.0375
2146.78201	18668.5375
2149.74466	18659.4375
2152.7054	18658.5375
2155.66425	18604.0375
2158.6212	18598.5375
2161.57625	18611.6375
2164.52941	18570.5375
2167.48067	18580.2375
2170.43004	18571.5375
2173.37752	18593.6375
2176.32311	18619.3375
2179.26681	18592.7375
2182.20863	18631.2375
2185.14856	18598.0375
2188.08661	18566.2375
2191.02278	18630.0375
2193.95707	18600.6375
2196.88948	18582.8375
2199.82001	18587.7375
2202.74867	18562.7375
2205.67545	18528.7375
2208.60037	18519.3375
2211.52341	18502.0375
2214.44458	18456.1375
2217.36388	18427.3375
2220.28132	18372.5375
2223.1969	18365.1375
2226.11061	18344.2375
2229.02246	18319.8375
2231.93245	18317.1375
2234.84058	18290.2375
2237.74686	18282.5375
2240.65128	18274.4375
2243.55385	18196.3375
2246.45456	18172.6375
2249.35343	18118.9375
2252.25044	18112.1375
2255.14561	18082.4375
2258.03893	18041.6375
2260.93041	18017.6375
2263.82004	17956.0375
2266.70783	17912.5375
2269.59378	17864.4375
2272.4779	17836.1375
2275.36017	17777.6375
2278.24061	17806.3375
2281.11922	17757.7375
2283.996	17727.5375
2286.87094	17706.1375
2289.74405	17682.8375
2292.61534	17652.5375
2295.4848	17636.1375
2298.35243	17661.8375
2301.21824	17668.6375
2304.08223	17663.3375
2306.94439	17642.6375
2309.80474	17672.2375
2312.66327	17634.5375
2315.51999	17658.7375
2318.37489	17631.0375
2321.22797	17618.7375
2324.07925	17616.9375
2326.92871	17571.2375
2329.77637	17586.6375
2332.62222	17532.0375
2335.46626	17527.0375
2338.3085	17505.2375
2341.14893	17509.4375
2343.98756	17528.8375
2346.8244	17546.1375
2349.65943	17540.7375
2352.49267	17517.8375
2355.32411	17525.3375
2358.15376	17528.5375
2360.98161	17517.1375
2363.80768	17520.6375
2366.63195	17529.6375
2369.45444	17442.9375
2372.27514	17432.2375
2375.09405	17431.2375
2377.91118	17424.5375
2380.72652	17363.5375
2383.54009	17319.4375
2386.35187	17282.5375
2389.16188	17219.4375
2391.97011	17219.6375
2394.77657	17174.3375
2397.58125	17146.1375
2400.38416	17117.2375
2403.18529	17104.7375
2405.98466	17105.8375
2408.78226	17065.2375
2411.57809	17053.9375
2414.37216	17063.7375
2417.16446	17038.6375
2419.955	16987.3375
2422.74378	17003.8375
2425.5308	17001.4375
2428.31606	17025.7375
2431.09956	17028.3375
2433.88131	16986.4375
2436.6613	16994.0375
2439.43954	17012.5375
2442.21603	16974.3375
2444.99077	16973.3375
2447.76377	16935.9375
2450.53501	16947.7375
2453.30451	16971.5375
2456.07226	16916.2375
2458.83827	16931.6375
2461.60254	16951.1375
2464.36507	16946.4375
2467.12586	16891.3375
2469.88492	16922.9375
2472.64224	16925.8375
2475.39782	16979.4375
2478.15167	16953.7375
2480.90379	16973.9375
2483.65417	16953.2375
2486.40283	16961.9375
2489.14976	16978.8375
2491.89497	16949.5375
2494.63845	16969.6375
2497.3802	16922.7375
2500.12024	16961.9375
2502.85855	16932.4375
2505.59514	16959.0375
2508.33002	16932.1375
2511.06318	16937.2375
2513.79462	16904.4375
2516.52435	16888.8375
2519.25237	16861.1375
2521.97867	16836.9375
2524.70327	16881.6375
2527.42616	16857.6375
2530.14734	16856.6375
2532.86681	16844.2375
2535.58458	16852.8375
2538.30065	16877.8375
2541.01501	16868.6375
2543.72768	16853.0375
2546.43864	16840.9375
2549.14791	16855.0375
2551.85548	16811.2375
2554.56136	16813.7375
2557.26554	16775.8375
2559.96803	16727.6375
2562.66883	16749.1375
2565.36794	16705.9375
2568.06536	16705.7375
2570.7611	16690.4375
2573.45514	16669.6375
2576.14751	16713.6375
2578.83819	16678.1375
2581.52719	16631.7375
2584.21451	16644.8375
2586.90015	16651.3375
2589.58411	16623.2375
2592.2664	16647.1375
2594.94701	16605.3375
2597.62594	16630.7375
2600.30321	16583.1375
2602.9788	16566.9375
2605.65273	16567.1375
2608.32498	16602.1375
2610.99557	16599.9375
2613.66449	16558.7375
2616.33175	16565.7375
2618.99734	16544.1375
2621.66128	16521.4375
2624.32355	16515.9375
2626.98416	16475.5375
2629.64311	16443.1375
2632.30041	16458.0375
2634.95605	16437.1375
2637.61004	16454.3375
2640.26238	16440.5375
2642.91306	16435.6375
2645.56209	16450.9375
2648.20948	16474.2375
2650.85521	16451.0375
2653.4993	16454.9375
2656.14175	16474.4375
2658.78255	16514.0375
2661.42171	16482.6375
2664.05923	16567.5375
2666.6951	16556.7375
2669.32934	16562.0375
2671.96194	16547.8375
2674.59291	16570.6375
2677.22224	16554.6375
2679.84993	16540.0375
2682.476	16553.0375
2685.10043	16549.7375
2687.72324	16503.5375
2690.34441	16521.7375
2692.96396	16537.2375
2695.58188	16530.9375
2698.19818	16508.4375
2700.81285	16509.7375
2703.4259	16518.0375
2706.03733	16511.9375
2708.64714	16536.8375
2711.25533	16581.7375
2713.86191	16524.7375
2716.46687	16557.1375
2719.07021	16605.2375
2721.67194	16640.0375
2724.27206	16616.9375
2726.87057	16635.1375
2729.46747	16659.3375
2732.06276	16696.3375
2734.65644	16667.7375
2737.24852	16692.8375
2739.83899	16674.7375
2742.42786	16649.6375
2745.01513	16648.4375
2747.60079	16657.3375
2750.18486	16648.5375
2752.76733	16633.9375
2755.3482	16626.9375
2757.92747	16626.5375
2760.50515	16587.7375
2763.08123	16606.2375
2765.65573	16558.4375
2768.22863	16556.7375
2770.79994	16551.5375
2773.36967	16525.1375
2775.9378	16535.9375
2778.50435	16552.3375
2781.06932	16580.4375
2783.6327	16542.4375
2786.1945	16556.0375
2788.75471	16523.4375
2791.31335	16514.7375
2793.87041	16505.2375
2796.42589	16472.8375
2798.97979	16439.9375
2801.53212	16400.7375
2804.08288	16411.0375
2806.63206	16351.9375
2809.17967	16335.8375
2811.72571	16280.3375
2814.27018	16275.9375
2816.81308	16234.7375
2819.35442	16218.7375
2821.89419	16227.0375
2824.43239	16174.9375
2826.96904	16180.3375
2829.50412	16153.4375
2832.03763	16129.9375
2834.56959	16126.3375
2837.1	16083.3375
2839.62884	16075.7375
2842.15613	16076.9375
2844.68186	16103.9375
2847.20604	16057.4375
2849.72867	16113.2375
2852.24974	16090.8375
2854.76927	16104.3375
2857.28724	16103.4375
2859.80367	16044.3375
2862.31855	16020.8375
2864.83189	16021.6375
2867.34368	15966.8375
2869.85393	15961.6375
2872.36264	15945.1375
2874.8698	15933.2375
2877.37543	15971.2375
2879.87952	15979.7375
2882.38207	15974.1375
2884.88308	15963.8375
2887.38256	15948.1375
2889.88051	15973.4375
2892.37692	15961.1375
2894.8718	15972.0375
2897.36515	15994.5375
2899.85698	15988.9375
2902.34727	16069.3375
2904.83604	16050.4375
2907.32328	16081.6375
2909.809	16051.1375
2912.29319	16067.3375
2914.77587	16056.7375
2917.25702	16019.1375
2919.73665	16014.0375
2922.21476	16015.7375
2924.69136	15998.9375
2927.16644	16000.3375
2929.64	15970.9375
2932.11205	15976.3375
2934.58258	15965.2375
2937.05161	15935.2375
2939.51912	15947.2375
2941.98513	15894.8375
2944.44962	15891.7375
2946.91261	15819.6375
2949.37409	15867.5375
2951.83407	15862.1375
2954.29254	15848.9375
2956.74951	15814.5375
2959.20498	15813.2375
2961.65895	15783.7375
2964.11142	15800.1375
2966.56239	15749.3375
2969.01186	15765.9375
2971.45984	15746.0375
2973.90632	15708.8375
2976.35131	15638.1375
2978.7948	15644.7375
2981.23681	15589.4375
2983.67732	15551.1375
2986.11635	15549.9375
2988.55388	15489.2375
2990.98993	15461.2375
2993.4245	15407.7375
2995.85758	15381.1375
2998.28917	15343.6375
3000.71928	15331.7375
3003.14791	15285.5375
3005.57506	15285.0375
3008.00073	15226.9375
3010.42493	15209.9375
3012.84764	15158.8375
3015.26888	15157.6375
3017.68865	15044.2375
3020.10694	15045.7375
3022.52376	14980.3375
3024.9391	15017.0375
3027.35298	15017.1375
3029.76539	15019.1375
3032.17632	14981.7375
3034.5858	14937.4375
3036.9938	14957.7375
3039.40034	14950.5375
3041.80542	14951.1375
3044.20903	14910.5375
3046.61118	14903.2375
3049.01187	14880.5375
3051.4111	14853.9375
3053.80888	14833.4375
3056.20519	14764.9375
3058.60005	14764.2375
3060.99345	14751.6375
3063.3854	14720.5375
3065.7759	14619.9375
3068.16494	14612.0375
3070.55254	14544.9375
3072.93868	14526.9375
3075.32338	14514.9375
3077.70662	14486.9375
3080.08842	14395.8375
3082.46878	14377.2375
3084.84769	14358.4375
3087.22515	14350.4375
3089.60118	14371.4375
3091.97576	14344.4375
3094.3489	14300.3375
3096.72061	14280.4375
3099.09087	14325.9375
3101.4597	14310.8375
3103.82709	14298.5375
3106.19305	14264.0375
3108.55757	14266.9375
3110.92066	14216.1375
3113.28232	14198.7375
3115.64255	14151.4375
3118.00134	14121.7375
3120.35871	14081.2375
3122.71466	14053.2375
3125.06917	14049.8375
3127.42226	13983.8375
3129.77393	14006.9375
3132.12417	13984.8375
3134.47299	13951.1375
3136.82039	13963.3375
3139.16636	13986.7375
3141.51092	13959.3375
3143.85406	13942.9375
3146.19579	13937.8375
3148.53609	13912.5375
3150.87499	13899.5375
3153.21246	13914.4375
3155.54853	13941.3375
3157.88318	13894.0375
3160.21642	13933.3375
3162.54826	13892.2375
3164.87868	13934.2375
3167.2077	13926.3375
3169.5353	13935.4375
3171.86151	13907.9375
3174.18631	13909.2375
3176.5097	13844.5375
3178.83169	13832.7375
3181.15228	13854.9375
3183.47147	13841.2375
3185.78926	13798.6375
3188.10565	13781.4375
3190.42065	13771.7375
3192.73424	13749.1375
3195.04645	13719.3375
3197.35725	13720.4375
3199.66667	13700.8375
3201.97469	13678.7375
3204.28132	13673.9375
3206.58656	13693.3375
3208.8904	13682.5375
3211.19287	13685.5375
3213.49394	13663.4375
3215.79363	13669.2375
3218.09193	13658.4375
3220.38884	13662.5375
3222.68438	13675.0375
3224.97853	13647.5375
3227.2713	13708.2375
3229.56269	13671.4375
3231.8527	13657.9375
3234.14133	13606.2375
3236.42858	13592.0375
3238.71446	13577.9375
3240.99896	13516.7375
3243.28209	13530.3375
3245.56384	13483.7375
3247.84423	13491.2375
3250.12324	13446.0375
3252.40088	13461.7375
3254.67715	13408.9375
3256.95205	13427.7375
3259.22558	13395.3375
3261.49775	13371.1375
3263.76855	13357.1375
3266.03799	13344.9375
3268.30606	13321.3375
3270.57277	13271.2375
3272.83812	13230.8375
3275.10211	13220.7375
3277.36474	13206.3375
3279.62601	13207.0375
3281.88593	13188.0375
3284.14448	13200.7375
3286.40168	13209.6375
3288.65753	13214.1375
3290.91202	13212.5375
3293.16516	13166.6375
3295.41695	13139.9375
3297.66738	13053.8375
3299.91647	12990.9375
3302.16421	12911.2375
3304.4106	12831.8375
3306.65564	12747.2375
3308.89933	12653.0375
3311.14169	12556.8375
3313.38269	12457.3375
3315.62236	12370.5375
3317.86068	12262.4375
3320.09766	12158.5375
3322.3333	12060.0375
3324.5676	12006.2375
3326.80056	11813.8375
3329.03219	11715.1375
3331.26248	4.4375
3333.49143	0.0375
3335.71905	0.2375
