Data from AgNP_FTO_APTES_UA_10uM_CRN_2uM_R6G_10uM_NaF_0.1M_Addition_RamanShift__10__14-08-30-587.txt Node

Date: Thu Feb 10 14:08:30 GMT 2022
User: TCL
Spectrometer: QEP01345
Trigger mode: 4
Integration Time (sec): 7.000000E0
Scans to average: 10
Electric dark correction enabled: true
Nonlinearity correction enabled: false
Boxcar width: 0
XAxis mode: Raman Shifts
Number of Pixels in Spectrum: 1044
>>>>>Begin Spectral Data<<<<<
46.04893	0.7875
50.45542	-1.1125
54.85868	-2.1125
59.25871	-0.7125
63.6555	65.8875
68.04907	68.1875
72.43941	73.5875
76.82654	71.9875
81.21044	79.6875
85.59113	78.7875
89.96862	81.3875
94.34289	86.5875
98.71396	88.5875
103.08183	92.5875
107.4465	95.0875
111.80798	93.7875
116.16626	99.7875
120.52136	103.6875
124.87327	110.0875
129.222	113.5875
133.56755	118.6875
137.90993	129.9875
142.24913	136.5875
146.58517	159.1875
150.91804	190.5875
155.24774	220.2875
159.57429	277.2875
163.89768	354.9875
168.21792	484.9875
172.53501	648.8875
176.84895	899.7875
181.15975	1275.5875
185.46741	1773.9875
189.77193	2473.8875
194.07331	3295.5875
198.37157	4248.8875
202.6667	5274.4875
206.9587	6277.2875
211.24758	7240.7875
215.53334	8273.2875
219.81599	9291.8875
224.09553	10461.4875
228.37195	11752.1875
232.64527	13136.2875
236.91549	14624.2875
241.18261	16062.7875
245.44663	17361.8875
249.70755	18537.1875
253.96539	19558.6875
258.22014	20400.3875
262.4718	21086.3875
266.72039	21572.8875
270.96589	21781.1875
275.20832	21812.7875
279.44768	21689.8875
283.68397	21502.2875
287.91719	21354.0875
292.14735	21290.3875
296.37445	21360.1875
300.59849	21598.1875
304.81948	21814.9875
309.03742	21969.0875
313.25231	21788.4875
317.46415	21331.9875
321.67296	20625.4875
325.87872	20011.4875
330.08145	19733.6875
334.28114	19681.0875
338.47781	19855.6875
342.67145	20135.5875
346.86207	20510.9875
351.04966	20956.5875
355.23424	21400.3875
359.4158	21799.3875
363.59435	22026.9875
367.76989	22163.3875
371.94243	22224.9875
376.11196	22264.7875
380.27849	22253.4875
384.44203	22269.1875
388.60257	22410.4875
392.76012	22633.3875
396.91468	22893.4875
401.06626	23349.3875
405.21485	23564.2875
409.36047	23362.9875
413.50311	22860.7875
417.64277	22488.2875
421.77947	22392.8875
425.9132	22435.7875
430.04396	22527.3875
434.17176	22552.5875
438.2966	22622.4875
442.41849	22890.8875
446.53742	23355.2875
450.6534	23919.8875
454.76644	24276.9875
458.87653	24409.5875
462.98368	24401.8875
467.08789	24244.1875
471.18916	24005.5875
475.2875	23727.9875
479.38291	23477.9875
483.4754	23315.8875
487.56496	23082.5875
491.6516	22792.7875
495.73531	22496.5875
499.81612	22379.3875
503.89401	22463.1875
507.96899	22561.0875
512.04106	22600.3875
516.11023	22643.0875
520.1765	22513.5875
524.23987	22348.6875
528.30034	22100.9875
532.35792	21915.0875
536.41261	21621.6875
540.46441	21376.0875
544.51333	21330.6875
548.55936	21619.3875
552.60252	22065.5875
556.64279	22570.8875
560.6802	22929.0875
564.71473	23156.4875
568.7464	23565.9875
572.7752	24284.1875
576.80114	24953.2875
580.82422	25533.6875
584.84444	26079.0875
588.86181	26586.0875
592.87633	27018.8875
596.888	26817.0875
600.89682	26165.3875
604.9028	26484.6875
608.90594	28814.0875
612.90624	31625.7875
616.90371	29707.5875
620.89834	24559.5875
624.89015	22283.9875
628.87913	21910.3875
632.86528	22185.8875
636.84862	22314.2875
640.82913	21991.0875
644.80683	21404.9875
648.78172	20950.9875
652.75379	20915.8875
656.72306	21234.7875
660.68952	21651.3875
664.65319	21525.9875
668.61405	21083.0875
672.57211	20950.7875
676.52738	21049.9875
680.47986	20971.5875
684.42955	20817.2875
688.37646	20682.8875
692.32058	20813.3875
696.26192	21085.5875
700.20048	21396.5875
704.13626	21541.1875
708.06928	21611.4875
711.99952	21507.2875
715.927	21400.4875
719.85171	21442.6875
723.77365	21324.0875
727.69284	21018.6875
731.60928	20747.3875
735.52295	20606.2875
739.43388	20634.4875
743.34206	20682.0875
747.24749	20790.6875
751.15017	21000.4875
755.05012	21346.1875
758.94733	22045.2875
762.8418	23305.4875
766.73354	25358.2875
770.62254	27208.3875
774.50882	27545.3875
778.39237	26312.9875
782.27321	24384.8875
786.15132	22702.9875
790.02671	21607.7875
793.89938	21020.0875
797.76935	20751.4875
801.6366	20649.4875
805.50115	20566.7875
809.36299	20417.1875
813.22213	20298.6875
817.07857	20200.1875
820.93231	20181.5875
824.78336	20113.2875
828.63172	19972.7875
832.47738	19977.4875
836.32036	19935.6875
840.16066	19947.7875
843.99827	19914.6875
847.8332	19915.2875
851.66546	19921.5875
855.49504	19970.0875
859.32195	19989.2875
863.1462	19918.4875
866.96777	19875.2875
870.78668	19846.5875
874.60293	19860.9875
878.41652	19859.7875
882.22745	19975.1875
886.03573	19995.1875
889.84136	20005.1875
893.64433	19964.6875
897.44466	19939.1875
901.24235	19868.8875
905.0374	19816.6875
908.8298	19723.7875
912.61957	19775.9875
916.40671	19926.1875
920.19121	20158.2875
923.97308	20348.7875
927.75233	20352.3875
931.52895	20215.8875
935.30295	19970.7875
939.07433	19563.8875
942.84309	19281.6875
946.60924	19117.2875
950.37278	19038.9875
954.13371	19030.5875
957.89203	19009.9875
961.64774	18971.6875
965.40086	18995.9875
969.15137	18977.4875
972.89929	18938.8875
976.64461	18867.4875
980.38733	18826.5875
984.12747	18828.6875
987.86502	18929.7875
991.59999	19014.3875
995.33237	19140.2875
999.06217	19385.6875
1002.78939	19715.1875
1006.51404	20062.1875
1010.23611	20398.9875
1013.95561	20634.3875
1017.67255	20698.0875
1021.38692	20526.2875
1025.09872	20256.0875
1028.80796	20002.8875
1032.51465	19927.5875
1036.21877	19964.4875
1039.92035	20092.2875
1043.61937	20173.4875
1047.31584	20171.0875
1051.00976	20193.2875
1054.70114	20222.7875
1058.38998	20373.6875
1062.07627	20541.9875
1065.76003	20841.5875
1069.44126	21136.5875
1073.11995	21457.3875
1076.79611	21789.3875
1080.46974	22015.1875
1084.14085	22179.6875
1087.80943	22466.1875
1091.47549	22688.5875
1095.13903	22621.1875
1098.80005	22299.5875
1102.45857	21805.5875
1106.11456	21346.4875
1109.76805	21105.7875
1113.41903	21132.2875
1117.06751	21291.2875
1120.71348	21553.2875
1124.35696	21903.2875
1127.99793	22265.8875
1131.63641	22421.3875
1135.2724	22207.4875
1138.90589	21974.9875
1142.5369	21850.6875
1146.16542	21899.3875
1149.79145	21913.3875
1153.415	22078.2875
1157.03607	22334.3875
1160.65467	22861.3875
1164.27079	23787.1875
1167.88443	24958.3875
1171.49561	26404.5875
1175.10432	28276.6875
1178.71056	30645.1875
1182.31434	32833.2875
1185.91565	33975.2875
1189.51451	34066.0875
1193.11091	33374.4875
1196.70485	32070.6875
1200.29634	30667.6875
1203.88538	29520.0875
1207.47197	28589.0875
1211.05612	27977.1875
1214.63782	27322.3875
1218.21708	26587.6875
1221.79391	25896.5875
1225.36829	25440.6875
1228.94024	25181.9875
1232.50976	24991.5875
1236.07685	24826.4875
1239.6415	24652.8875
1243.20374	24597.8875
1246.76355	24766.1875
1250.32093	25051.7875
1253.8759	25509.5875
1257.42845	26154.5875
1260.97859	26923.7875
1264.52631	27740.5875
1268.07163	28571.9875
1271.61453	29296.8875
1275.15503	29977.1875
1278.69312	30638.6875
1282.22882	31255.6875
1285.76211	32117.2875
1289.29301	33236.8875
1292.82151	34551.2875
1296.34761	36129.6875
1299.87133	37978.8875
1303.39266	40054.2875
1306.9116	42261.4875
1310.42815	44186.8875
1313.94233	45145.6875
1317.45412	44754.6875
1320.96354	43793.0875
1324.47058	42952.0875
1327.97525	42379.1875
1331.47754	41930.1875
1334.97747	41733.9875
1338.47502	41675.7875
1341.97022	41904.0875
1345.46305	42113.9875
1348.95352	42413.1875
1352.44163	42631.9875
1355.92738	43223.2875
1359.41078	44637.9875
1362.89183	46199.2875
1366.37053	45184.3875
1369.84688	41229.2875
1373.32088	36587.7875
1376.79254	33572.4875
1380.26186	32246.9875
1383.72883	31917.0875
1387.19347	31719.5875
1390.65578	31375.8875
1394.11575	31075.0875
1397.57339	31054.6875
1401.0287	31171.7875
1404.48168	31209.4875
1407.93234	31039.6875
1411.38068	30590.1875
1414.82669	29770.4875
1418.27039	28798.7875
1421.71177	27880.0875
1425.15083	27132.9875
1428.58758	26856.1875
1432.02203	27126.4875
1435.45416	27763.1875
1438.88399	28416.7875
1442.31151	28856.3875
1445.73673	29200.1875
1449.15965	29440.3875
1452.58027	29623.3875
1455.9986	29714.3875
1459.41463	29927.0875
1462.82837	30359.7875
1466.23982	30786.9875
1469.64898	31181.4875
1473.05586	31412.0875
1476.46045	31418.2875
1479.86276	31279.4875
1483.26279	31195.5875
1486.66054	31380.3875
1490.05602	31770.4875
1493.44922	32465.6875
1496.84016	33579.3875
1500.22882	35246.0875
1503.61521	37356.1875
1506.99934	39624.2875
1510.38121	41303.6875
1513.76081	41403.6875
1517.13816	39764.5875
1520.51324	37459.4875
1523.88607	35456.3875
1527.25665	34423.4875
1530.62498	33907.7875
1533.99105	33559.1875
1537.35488	32939.1875
1540.71647	32167.3875
1544.07581	31243.6875
1547.4329	30461.9875
1550.78776	29771.0875
1554.14038	29448.6875
1557.49077	29280.1875
1560.83892	29265.6875
1564.18484	29388.0875
1567.52853	29656.4875
1570.86999	30028.7875
1574.20922	30537.1875
1577.54624	30839.5875
1580.88103	30661.3875
1584.2136	30288.4875
1587.54395	30480.5875
1590.87208	31346.7875
1594.19801	32764.2875
1597.52172	34209.9875
1600.84321	34607.7875
1604.16251	33414.6875
1607.47959	31425.9875
1610.79447	29317.0875
1614.10715	27129.0875
1617.41763	25152.6875
1620.7259	23722.1875
1624.03199	22918.7875
1627.33587	22827.8875
1630.63757	23414.3875
1633.93707	24840.9875
1637.23439	27251.0875
1640.52951	30770.2875
1643.82246	35007.6875
1647.11321	38501.3875
1650.40179	39683.4875
1653.68819	37344.6875
1656.97241	32436.7875
1660.25446	27578.5875
1663.53433	23981.8875
1666.81203	21598.4875
1670.08756	20130.1875
1673.36092	19260.8875
1676.63211	18661.8875
1679.90115	18257.3875
1683.16801	17984.3875
1686.43272	17741.1875
1689.69527	17551.5875
1692.95567	17426.3875
1696.2139	17374.9875
1699.46999	17311.4875
1702.72392	17189.8875
1705.97571	17114.9875
1709.22535	17085.6875
1712.47284	17061.5875
1715.71819	17011.2875
1718.96139	16946.2875
1722.20246	16926.7875
1725.44139	16804.1875
1728.67818	16678.0875
1731.91284	16636.5875
1735.14537	16514.5875
1738.37576	16409.9875
1741.60403	16358.0875
1744.83017	16294.4875
1748.05418	16260.1875
1751.27607	16204.3875
1754.49584	16195.7875
1757.71349	16187.0875
1760.92903	16143.4875
1764.14244	16143.3875
1767.35375	16104.8875
1770.56294	16080.5875
1773.77002	16045.5875
1776.97499	16018.7875
1780.17785	15945.4875
1783.37861	15930.6875
1786.57727	15862.0875
1789.77382	15868.8875
1792.96828	15837.5875
1796.16064	15739.4875
1799.3509	15725.9875
1802.53907	15692.9875
1805.72514	15650.3875
1808.90913	15611.9875
1812.09102	15590.4875
1815.27083	15524.4875
1818.44856	15530.1875
1821.6242	15471.1875
1824.79776	15471.5875
1827.96924	15444.3875
1831.13864	15453.0875
1834.30597	15440.7875
1837.47122	15430.9875
1840.6344	15410.1875
1843.7955	15439.9875
1846.95454	15405.8875
1850.11151	15412.6875
1853.26642	15387.1875
1856.41926	15389.4875
1859.57004	15393.8875
1862.71876	15346.9875
1865.86542	15300.8875
1869.01003	15260.2875
1872.15258	15252.0875
1875.29308	15228.7875
1878.43152	15198.8875
1881.56792	15174.1875
1884.70227	15168.0875
1887.83457	15121.7875
1890.96482	15102.7875
1894.09304	15080.5875
1897.21921	15034.2875
1900.34335	15011.5875
1903.46544	15022.8875
1906.58551	15007.2875
1909.70353	14971.0875
1912.81953	14947.4875
1915.93349	14886.0875
1919.04543	14878.0875
1922.15534	14822.7875
1925.26322	14818.6875
1928.36908	14796.3875
1931.47292	14769.6875
1934.57473	14714.3875
1937.67453	14666.7875
1940.77232	14648.1875
1943.86808	14555.0875
1946.96184	14543.2875
1950.05358	14494.2875
1953.14331	14460.4875
1956.23103	14415.2875
1959.31675	14370.7875
1962.40046	14320.2875
1965.48217	14290.4875
1968.56188	14255.8875
1971.63959	14215.8875
1974.7153	14167.4875
1977.78901	14148.9875
1980.86073	14038.6875
1983.93046	14033.6875
1986.99819	13960.1875
1990.06394	13943.2875
1993.1277	13878.4875
1996.18947	13857.0875
1999.24925	13802.6875
2002.30706	13738.6875
2005.36288	13680.4875
2008.41672	13664.3875
2011.46859	13628.1875
2014.51848	13590.8875
2017.56639	13576.1875
2020.61233	13557.2875
2023.6563	13492.6875
2026.6983	13461.4875
2029.73833	13437.3875
2032.7764	13416.7875
2035.8125	13356.9875
2038.84664	13309.6875
2041.87881	13277.8875
2044.90903	13250.2875
2047.93729	13222.5875
2050.96359	13219.5875
2053.98794	13214.9875
2057.01034	13189.3875
2060.03078	13157.7875
2063.04927	13165.9875
2066.06582	13158.1875
2069.08042	13156.0875
2072.09307	13151.6875
2075.10378	13143.7875
2078.11255	13124.9875
2081.11938	13099.9875
2084.12426	13108.2875
2087.12722	13063.0875
2090.12824	13061.1875
2093.12732	13104.9875
2096.12447	13089.7875
2099.11969	13098.4875
2102.11299	13048.1875
2105.10435	13064.0875
2108.09379	13093.7875
2111.08131	13113.0875
2114.0669	13074.9875
2117.05057	13089.0875
2120.03233	13083.1875
2123.01216	13113.7875
2125.99008	13125.0875
2128.96609	13149.2875
2131.94018	13150.8875
2134.91236	13148.3875
2137.88263	13150.4875
2140.851	13178.4875
2143.81746	13163.4875
2146.78201	13185.5875
2149.74466	13164.5875
2152.7054	13129.7875
2155.66425	13121.0875
2158.6212	13111.0875
2161.57625	13110.3875
2164.52941	13100.7875
2167.48067	13087.7875
2170.43004	13085.4875
2173.37752	13047.0875
2176.32311	13061.0875
2179.26681	13046.2875
2182.20863	13052.5875
2185.14856	13041.2875
2188.08661	13066.2875
2191.02278	13093.5875
2193.95707	13078.6875
2196.88948	13028.3875
2199.82001	13018.5875
2202.74867	13003.7875
2205.67545	12961.5875
2208.60037	12950.4875
2211.52341	12937.4875
2214.44458	12943.7875
2217.36388	12926.9875
2220.28132	12886.5875
2223.1969	12868.9875
2226.11061	12818.5875
2229.02246	12794.3875
2231.93245	12771.2875
2234.84058	12750.8875
2237.74686	12762.6875
2240.65128	12724.9875
2243.55385	12708.9875
2246.45456	12663.7875
2249.35343	12664.7875
2252.25044	12642.8875
2255.14561	12635.9875
2258.03893	12629.2875
2260.93041	12593.5875
2263.82004	12543.0875
2266.70783	12501.1875
2269.59378	12480.1875
2272.4779	12460.4875
2275.36017	12410.7875
2278.24061	12403.2875
2281.11922	12382.1875
2283.996	12353.5875
2286.87094	12355.5875
2289.74405	12293.7875
2292.61534	12291.4875
2295.4848	12300.1875
2298.35243	12298.2875
2301.21824	12281.7875
2304.08223	12267.6875
2306.94439	12264.1875
2309.80474	12227.1875
2312.66327	12253.9875
2315.51999	12227.1875
2318.37489	12227.3875
2321.22797	12225.0875
2324.07925	12214.9875
2326.92871	12179.3875
2329.77637	12145.1875
2332.62222	12148.5875
2335.46626	12103.4875
2338.3085	12100.5875
2341.14893	12111.7875
2343.98756	12109.5875
2346.8244	12091.6875
2349.65943	12092.8875
2352.49267	12081.7875
2355.32411	12060.4875
2358.15376	12109.2875
2360.98161	12092.2875
2363.80768	12111.5875
2366.63195	12085.6875
2369.45444	12075.1875
2372.27514	12064.1875
2375.09405	12018.3875
2377.91118	11990.2875
2380.72652	11998.7875
2383.54009	11951.7875
2386.35187	11933.5875
2389.16188	11891.7875
2391.97011	11863.9875
2394.77657	11819.7875
2397.58125	11800.7875
2400.38416	11789.4875
2403.18529	11752.8875
2405.98466	11740.3875
2408.78226	11734.3875
2411.57809	11716.1875
2414.37216	11735.0875
2417.16446	11719.4875
2419.955	11687.7875
2422.74378	11666.7875
2425.5308	11672.9875
2428.31606	11672.9875
2431.09956	11665.9875
2433.88131	11643.5875
2436.6613	11646.9875
2439.43954	11638.2875
2442.21603	11656.0875
2444.99077	11629.4875
2447.76377	11612.5875
2450.53501	11596.1875
2453.30451	11620.3875
2456.07226	11600.3875
2458.83827	11592.7875
2461.60254	11596.4875
2464.36507	11573.8875
2467.12586	11568.6875
2469.88492	11551.1875
2472.64224	11565.0875
2475.39782	11582.4875
2478.15167	11574.4875
2480.90379	11545.1875
2483.65417	11605.8875
2486.40283	11591.9875
2489.14976	11600.5875
2491.89497	11543.8875
2494.63845	11564.9875
2497.3802	11594.0875
2500.12024	11574.8875
2502.85855	11533.5875
2505.59514	11514.2875
2508.33002	11507.4875
2511.06318	11509.3875
2513.79462	11481.3875
2516.52435	11447.6875
2519.25237	11448.6875
2521.97867	11436.0875
2524.70327	11455.9875
2527.42616	11422.0875
2530.14734	11414.5875
2532.86681	11389.5875
2535.58458	11359.7875
2538.30065	11382.0875
2541.01501	11366.5875
2543.72768	11362.3875
2546.43864	11340.6875
2549.14791	11346.1875
2551.85548	11338.0875
2554.56136	11292.0875
2557.26554	11278.7875
2559.96803	11262.5875
2562.66883	11246.4875
2565.36794	11230.2875
2568.06536	11238.7875
2570.7611	11224.0875
2573.45514	11200.0875
2576.14751	11176.1875
2578.83819	11155.8875
2581.52719	11158.7875
2584.21451	11121.0875
2586.90015	11117.0875
2589.58411	11111.1875
2592.2664	11108.6875
2594.94701	11069.6875
2597.62594	11081.7875
2600.30321	11029.0875
2602.9788	11040.1875
2605.65273	11026.5875
2608.32498	11036.6875
2610.99557	11030.9875
2613.66449	11047.6875
2616.33175	11012.8875
2618.99734	11044.3875
2621.66128	11002.9875
2624.32355	10982.3875
2626.98416	10983.4875
2629.64311	10964.7875
2632.30041	10923.0875
2634.95605	10904.5875
2637.61004	10931.8875
2640.26238	10901.7875
2642.91306	10909.3875
2645.56209	10912.1875
2648.20948	10928.5875
2650.85521	10896.3875
2653.4993	10888.0875
2656.14175	10896.8875
2658.78255	10928.2875
2661.42171	10898.3875
2664.05923	10933.0875
2666.6951	10943.9875
2669.32934	10941.6875
2671.96194	10933.9875
2674.59291	10943.2875
2677.22224	10907.9875
2679.84993	10937.1875
2682.476	10931.6875
2685.10043	10937.9875
2687.72324	10912.3875
2690.34441	10916.6875
2692.96396	10911.0875
2695.58188	10917.0875
2698.19818	10898.4875
2700.81285	10918.3875
2703.4259	10908.1875
2706.03733	10916.1875
2708.64714	10893.7875
2711.25533	10946.7875
2713.86191	10924.1875
2716.46687	10945.5875
2719.07021	10960.2875
2721.67194	10954.6875
2724.27206	10957.8875
2726.87057	10935.3875
2729.46747	10975.6875
2732.06276	10962.4875
2734.65644	10962.3875
2737.24852	10938.8875
2739.83899	10915.1875
2742.42786	10945.0875
2745.01513	10907.2875
2747.60079	10869.0875
2750.18486	10894.9875
2752.76733	10877.3875
2755.3482	10861.7875
2757.92747	10884.5875
2760.50515	10841.3875
2763.08123	10822.9875
2765.65573	10817.6875
2768.22863	10812.5875
2770.79994	10801.9875
2773.36967	10770.5875
2775.9378	10781.1875
2778.50435	10769.4875
2781.06932	10747.3875
2783.6327	10737.2875
2786.1945	10752.2875
2788.75471	10778.6875
2791.31335	10734.2875
2793.87041	10744.5875
2796.42589	10708.2875
2798.97979	10712.3875
2801.53212	10673.1875
2804.08288	10676.0875
2806.63206	10653.6875
2809.17967	10640.2875
2811.72571	10625.3875
2814.27018	10603.7875
2816.81308	10578.9875
2819.35442	10566.4875
2821.89419	10549.7875
2824.43239	10505.1875
2826.96904	10504.5875
2829.50412	10514.9875
2832.03763	10477.3875
2834.56959	10498.2875
2837.1	10477.4875
2839.62884	10495.6875
2842.15613	10465.3875
2844.68186	10491.1875
2847.20604	10506.9875
2849.72867	10479.6875
2852.24974	10483.0875
2854.76927	10468.0875
2857.28724	10418.1875
2859.80367	10429.1875
2862.31855	10452.2875
2864.83189	10417.7875
2867.34368	10388.6875
2869.85393	10377.8875
2872.36264	10418.4875
2874.8698	10383.4875
2877.37543	10388.5875
2879.87952	10349.7875
2882.38207	10386.3875
2884.88308	10345.7875
2887.38256	10357.8875
2889.88051	10336.0875
2892.37692	10352.9875
2894.8718	10325.9875
2897.36515	10382.1875
2899.85698	10370.7875
2902.34727	10381.8875
2904.83604	10374.0875
2907.32328	10411.5875
2909.809	10437.3875
2912.29319	10386.7875
2914.77587	10388.4875
2917.25702	10357.4875
2919.73665	10366.8875
2922.21476	10388.9875
2924.69136	10353.0875
2927.16644	10373.9875
2929.64	10354.4875
2932.11205	10327.9875
2934.58258	10304.8875
2937.05161	10318.6875
2939.51912	10319.8875
2941.98513	10282.2875
2944.44962	10261.5875
2946.91261	10243.1875
2949.37409	10264.5875
2951.83407	10205.8875
2954.29254	10186.0875
2956.74951	10216.8875
2959.20498	10196.5875
2961.65895	10178.6875
2964.11142	10179.6875
2966.56239	10194.6875
2969.01186	10188.0875
2971.45984	10149.1875
2973.90632	10150.7875
2976.35131	10120.7875
2978.7948	10113.1875
2981.23681	10093.8875
2983.67732	10084.7875
2986.11635	10060.1875
2988.55388	10004.2875
2990.98993	10002.6875
2993.4245	9978.5875
2995.85758	9978.0875
2998.28917	9930.4875
3000.71928	9899.8875
3003.14791	9907.2875
3005.57506	9888.6875
3008.00073	9871.6875
3010.42493	9708.8875
3012.84764	9795.7875
3015.26888	9789.2875
3017.68865	9743.4875
3020.10694	9734.5875
3022.52376	9725.2875
3024.9391	9700.3875
3027.35298	9677.2875
3029.76539	9706.4875
3032.17632	9709.1875
3034.5858	9668.5875
3036.9938	9671.4875
3039.40034	9670.3875
3041.80542	9669.7875
3044.20903	9624.2875
3046.61118	9615.2875
3049.01187	9594.2875
3051.4111	9593.8875
3053.80888	9571.8875
3056.20519	9548.2875
3058.60005	9545.7875
3060.99345	9499.2875
3063.3854	9485.2875
3065.7759	9470.6875
3068.16494	9444.4875
3070.55254	9420.1875
3072.93868	9395.0875
3075.32338	9366.3875
3077.70662	9320.8875
3080.08842	9336.6875
3082.46878	9306.0875
3084.84769	9284.7875
3087.22515	9274.5875
3089.60118	9295.4875
3091.97576	9286.5875
3094.3489	9270.8875
3096.72061	9260.1875
3099.09087	9271.8875
3101.4597	9260.9875
3103.82709	9258.9875
3106.19305	9235.9875
3108.55757	9233.1875
3110.92066	9192.6875
3113.28232	9201.5875
3115.64255	9190.0875
3118.00134	9134.7875
3120.35871	9141.7875
3122.71466	9107.0875
3125.06917	9082.9875
3127.42226	9064.4875
3129.77393	9064.0875
3132.12417	9065.5875
3134.47299	9050.3875
3136.82039	9037.3875
3139.16636	9057.6875
3141.51092	9064.3875
3143.85406	9037.9875
3146.19579	9020.1875
3148.53609	9039.0875
3150.87499	9061.6875
3153.21246	9059.9875
3155.54853	9063.0875
3157.88318	9057.7875
3160.21642	9063.8875
3162.54826	9059.2875
3164.87868	9073.4875
3167.2077	9068.7875
3169.5353	9065.3875
3171.86151	9035.1875
3174.18631	9062.8875
3176.5097	9020.9875
3178.83169	9028.7875
3181.15228	9008.5875
3183.47147	8976.7875
3185.78926	8972.0875
3188.10565	8953.4875
3190.42065	8943.8875
3192.73424	8952.2875
3195.04645	8929.5875
3197.35725	8944.5875
3199.66667	8926.2875
3201.97469	8941.6875
3204.28132	8929.3875
3206.58656	8955.1875
3208.8904	8954.0875
3211.19287	8942.0875
3213.49394	8935.7875
3215.79363	8927.6875
3218.09193	8956.3875
3220.38884	8937.8875
3222.68438	8929.8875
3224.97853	8924.4875
3227.2713	8928.1875
3229.56269	8910.4875
3231.8527	8912.1875
3234.14133	8867.1875
3236.42858	8886.5875
3238.71446	8863.0875
3240.99896	8830.7875
3243.28209	8833.9875
3245.56384	8793.6875
3247.84423	8821.1875
3250.12324	8814.4875
3252.40088	8776.4875
3254.67715	8765.2875
3256.95205	8751.0875
3259.22558	8731.7875
3261.49775	8736.2875
3263.76855	8719.5875
3266.03799	8708.3875
3268.30606	8701.1875
3270.57277	8659.6875
3272.83812	8664.9875
3275.10211	8628.4875
3277.36474	8641.7875
3279.62601	8639.5875
3281.88593	8618.6875
3284.14448	8612.9875
3286.40168	8605.8875
3288.65753	8620.7875
3290.91202	8615.3875
3293.16516	8597.3875
3295.41695	8581.6875
3297.66738	8527.5875
3299.91647	8457.2875
3302.16421	8421.1875
3304.4106	8369.4875
3306.65564	8333.9875
3308.89933	8268.7875
3311.14169	8216.6875
3313.38269	8118.5875
3315.62236	8081.2875
3317.86068	7995.9875
3320.09766	7952.1875
3322.3333	7898.4875
3324.5676	7837.2875
3326.80056	7737.7875
3329.03219	7685.7875
3331.26248	3.3875
3333.49143	0.4875
3335.71905	0.2875
