Data from AgNP_FTO_APTES_UA_10uM_CRN_1000uM_R6G_10uM_NaF_0.1M_Addition_RamanShift__20__19-44-31-003.txt Node

Date: Thu Feb 10 19:44:31 GMT 2022
User: TCL
Spectrometer: QEP01345
Trigger mode: 4
Integration Time (sec): 7.000000E0
Scans to average: 10
Electric dark correction enabled: true
Nonlinearity correction enabled: false
Boxcar width: 0
XAxis mode: Raman Shifts
Number of Pixels in Spectrum: 1044
>>>>>Begin Spectral Data<<<<<
46.04893	-0.1625
50.45542	-0.7625
54.85868	-1.5625
59.25871	-0.9625
63.6555	62.4375
68.04907	66.2375
72.43941	68.7375
76.82654	66.5375
81.21044	72.5375
85.59113	74.3375
89.96862	80.8375
94.34289	82.7375
98.71396	81.2375
103.08183	83.7375
107.4465	91.1375
111.80798	87.4375
116.16626	94.2375
120.52136	97.9375
124.87327	102.1375
129.222	104.6375
133.56755	115.0375
137.90993	118.9375
142.24913	129.3375
146.58517	150.9375
150.91804	175.5375
155.24774	207.5375
159.57429	257.9375
163.89768	329.5375
168.21792	438.8375
172.53501	605.0375
176.84895	845.2375
181.15975	1189.9375
185.46741	1667.6375
189.77193	2304.2375
194.07331	3093.1375
198.37157	4014.3375
202.6667	4954.8375
206.9587	5920.0375
211.24758	6841.8375
215.53334	7744.1375
219.81599	8730.2375
224.09553	9778.2375
228.37195	10963.7375
232.64527	12211.9375
236.91549	13584.2375
241.18261	14930.7375
245.44663	16241.6375
249.70755	17480.1375
253.96539	18539.5375
258.22014	19446.0375
262.4718	20173.8375
266.72039	20707.1375
270.96589	21036.6375
275.20832	21132.3375
279.44768	21025.2375
283.68397	20835.9375
287.91719	20638.9375
292.14735	20506.7375
296.37445	20475.4375
300.59849	20474.8375
304.81948	20504.7375
309.03742	20343.2375
313.25231	20130.7375
317.46415	19716.2375
321.67296	19246.8375
325.87872	18887.9375
330.08145	18772.0375
334.28114	18791.4375
338.47781	18900.7375
342.67145	19102.4375
346.86207	19412.6375
351.04966	19748.2375
355.23424	20110.9375
359.4158	20501.9375
363.59435	20721.9375
367.76989	20951.7375
371.94243	21114.6375
376.11196	21290.0375
380.27849	21452.7375
384.44203	21575.8375
388.60257	21705.1375
392.76012	21829.1375
396.91468	22019.0375
401.06626	22286.4375
405.21485	22460.6375
409.36047	22453.8375
413.50311	22192.7375
417.64277	22014.2375
421.77947	22008.1375
425.9132	22134.9375
430.04396	22327.1375
434.17176	22526.7375
438.2966	22787.0375
442.41849	23219.7375
446.53742	23801.7375
450.6534	24393.9375
454.76644	24895.3375
458.87653	25034.8375
462.98368	24892.2375
467.08789	24631.2375
471.18916	24402.1375
475.2875	24256.7375
479.38291	24210.7375
483.4754	24172.3375
487.56496	24037.3375
491.6516	23622.3375
495.73531	23231.4375
499.81612	22962.5375
503.89401	22931.2375
507.96899	22937.2375
512.04106	22832.5375
516.11023	22778.9375
520.1765	22632.2375
524.23987	22515.1375
528.30034	22372.6375
532.35792	22266.0375
536.41261	22082.2375
540.46441	21931.8375
544.51333	21983.0375
548.55936	22146.5375
552.60252	22511.9375
556.64279	23015.4375
560.6802	23382.5375
564.71473	23669.0375
568.7464	24048.8375
572.7752	24556.9375
576.80114	24792.1375
580.82422	24752.3375
584.84444	24789.9375
588.86181	25046.9375
592.87633	25443.3375
596.888	25549.9375
600.89682	25265.4375
604.9028	25531.3375
608.90594	26982.7375
612.90624	28723.3375
616.90371	27546.4375
620.89834	24074.7375
624.89015	22474.2375
628.87913	22269.9375
632.86528	22332.3375
636.84862	22437.0375
640.82913	22247.7375
644.80683	21896.8375
648.78172	21623.2375
652.75379	21514.0375
656.72306	21631.2375
660.68952	21929.8375
664.65319	21809.3375
668.61405	21603.3375
672.57211	21539.5375
676.52738	21576.9375
680.47986	21654.5375
684.42955	21620.2375
688.37646	21534.6375
692.32058	21547.7375
696.26192	21701.0375
700.20048	21910.8375
704.13626	22017.9375
708.06928	21984.4375
711.99952	21887.2375
715.927	21828.1375
719.85171	21800.2375
723.77365	21808.5375
727.69284	21706.6375
731.60928	21555.1375
735.52295	21536.3375
739.43388	21528.9375
743.34206	21568.3375
747.24749	21626.3375
751.15017	21724.0375
755.05012	21971.6375
758.94733	22394.8375
762.8418	23182.6375
766.73354	24382.2375
770.62254	25548.0375
774.50882	25950.1375
778.39237	25128.1375
782.27321	23646.4375
786.15132	22459.1375
790.02671	21768.8375
793.89938	21392.8375
797.76935	21260.5375
801.6366	21232.4375
805.50115	21215.9375
809.36299	21121.7375
813.22213	21061.9375
817.07857	21019.5375
820.93231	21013.5375
824.78336	20923.7375
828.63172	20888.9375
832.47738	20814.8375
836.32036	20806.3375
840.16066	20780.5375
843.99827	20800.2375
847.8332	20833.8375
851.66546	20772.6375
855.49504	20783.9375
859.32195	20842.2375
863.1462	20802.3375
866.96777	20755.5375
870.78668	20736.2375
874.60293	20755.2375
878.41652	20710.8375
882.22745	20753.9375
886.03573	20821.1375
889.84136	20805.5375
893.64433	20767.8375
897.44466	20712.9375
901.24235	20590.7375
905.0374	20543.4375
908.8298	20448.6375
912.61957	20408.7375
916.40671	20509.3375
920.19121	20624.1375
923.97308	20773.9375
927.75233	20781.2375
931.52895	20680.6375
935.30295	20556.3375
939.07433	20286.6375
942.84309	20132.7375
946.60924	19980.9375
950.37278	19882.8375
954.13371	19834.2375
957.89203	19816.5375
961.64774	19809.5375
965.40086	19742.4375
969.15137	19688.9375
972.89929	19560.2375
976.64461	19508.1375
980.38733	19452.1375
984.12747	19463.8375
987.86502	19566.0375
991.59999	19756.3375
995.33237	19934.8375
999.06217	20304.3375
1002.78939	20621.0375
1006.51404	20911.6375
1010.23611	21061.0375
1013.95561	21206.5375
1017.67255	21248.8375
1021.38692	21070.9375
1025.09872	20876.9375
1028.80796	20751.6375
1032.51465	20880.6375
1036.21877	21077.9375
1039.92035	21074.3375
1043.61937	20997.4375
1047.31584	20776.3375
1051.00976	20646.0375
1054.70114	20568.3375
1058.38998	20647.7375
1062.07627	20712.5375
1065.76003	20805.7375
1069.44126	20872.3375
1073.11995	20980.2375
1076.79611	21073.5375
1080.46974	21203.2375
1084.14085	21299.7375
1087.80943	21478.3375
1091.47549	21649.8375
1095.13903	21668.5375
1098.80005	21521.4375
1102.45857	21249.7375
1106.11456	21058.9375
1109.76805	21030.6375
1113.41903	21115.3375
1117.06751	21288.2375
1120.71348	21449.2375
1124.35696	21677.1375
1127.99793	21887.1375
1131.63641	22017.3375
1135.2724	21891.7375
1138.90589	21712.6375
1142.5369	21594.9375
1146.16542	21626.8375
1149.79145	21683.4375
1153.415	21858.0375
1157.03607	22046.2375
1160.65467	22548.9375
1164.27079	23259.2375
1167.88443	24173.5375
1171.49561	25335.2375
1175.10432	26769.1375
1178.71056	28649.5375
1182.31434	30343.9375
1185.91565	31274.5375
1189.51451	31282.2375
1193.11091	30680.5375
1196.70485	29884.2375
1200.29634	28967.3375
1203.88538	28244.0375
1207.47197	27650.3375
1211.05612	27125.3375
1214.63782	26675.9375
1218.21708	26283.7375
1221.79391	26074.3375
1225.36829	25811.8375
1228.94024	25412.6375
1232.50976	24916.9375
1236.07685	24523.6375
1239.6415	24414.3375
1243.20374	24391.0375
1246.76355	24541.4375
1250.32093	24729.6375
1253.8759	25115.4375
1257.42845	25608.5375
1260.97859	26139.7375
1264.52631	26698.3375
1268.07163	27193.8375
1271.61453	27750.1375
1275.15503	28355.8375
1278.69312	28918.0375
1282.22882	29414.6375
1285.76211	29997.2375
1289.29301	30817.5375
1292.82151	31856.1375
1296.34761	33268.3375
1299.87133	35021.1375
1303.39266	36795.1375
1306.9116	38678.6375
1310.42815	40523.8375
1313.94233	41738.1375
1317.45412	41949.3375
1320.96354	41464.2375
1324.47058	40780.6375
1327.97525	40177.1375
1331.47754	39752.9375
1334.97747	39752.7375
1338.47502	39934.3375
1341.97022	39997.4375
1345.46305	39616.5375
1348.95352	38924.5375
1352.44163	38323.4375
1355.92738	38293.0375
1359.41078	38966.1375
1362.89183	39812.8375
1366.37053	39187.1375
1369.84688	36429.7375
1373.32088	33203.5375
1376.79254	30965.4375
1380.26186	30109.0375
1383.72883	30136.1375
1387.19347	30363.3375
1390.65578	30462.6375
1394.11575	30754.1375
1397.57339	31286.2375
1401.0287	32071.4375
1404.48168	32764.1375
1407.93234	33101.9375
1411.38068	32851.7375
1414.82669	31996.4375
1418.27039	30712.7375
1421.71177	29328.8375
1425.15083	28080.7375
1428.58758	27308.9375
1432.02203	27210.7375
1435.45416	27620.8375
1438.88399	28250.1375
1442.31151	28895.3375
1445.73673	29447.2375
1449.15965	30001.1375
1452.58027	30406.1375
1455.9986	30697.3375
1459.41463	30915.0375
1462.82837	31159.2375
1466.23982	31566.8375
1469.64898	31926.9375
1473.05586	32079.1375
1476.46045	31913.3375
1479.86276	31638.5375
1483.26279	31210.3375
1486.66054	30853.5375
1490.05602	30730.1375
1493.44922	30624.1375
1496.84016	30567.6375
1500.22882	30537.7375
1503.61521	30983.8375
1506.99934	31705.0375
1510.38121	32517.3375
1513.76081	32857.5375
1517.13816	32375.7375
1520.51324	31359.8375
1523.88607	30323.1375
1527.25665	29827.1375
1530.62498	29823.0375
1533.99105	29808.0375
1537.35488	29915.8375
1540.71647	29835.1375
1544.07581	29484.5375
1547.4329	29099.6375
1550.78776	28687.5375
1554.14038	28299.3375
1557.49077	28128.5375
1560.83892	28022.7375
1564.18484	27973.8375
1567.52853	27955.4375
1570.86999	28122.7375
1574.20922	28423.1375
1577.54624	28782.4375
1580.88103	28979.4375
1584.2136	29200.9375
1587.54395	29910.5375
1590.87208	31067.0375
1594.19801	32574.3375
1597.52172	34176.0375
1600.84321	34887.4375
1604.16251	33988.5375
1607.47959	31886.0375
1610.79447	29413.9375
1614.10715	27048.3375
1617.41763	25164.8375
1620.7259	23774.8375
1624.03199	23007.0375
1627.33587	22816.6375
1630.63757	23252.8375
1633.93707	24343.7375
1637.23439	26139.6375
1640.52951	28701.6375
1643.82246	31619.6375
1647.11321	33987.4375
1650.40179	34559.6375
1653.68819	32778.7375
1656.97241	29263.2375
1660.25446	25652.3375
1663.53433	22962.3375
1666.81203	21174.7375
1670.08756	20014.8375
1673.36092	19283.2375
1676.63211	18773.6375
1679.90115	18450.7375
1683.16801	18198.3375
1686.43272	18025.2375
1689.69527	17893.9375
1692.95567	17751.4375
1696.2139	17700.4375
1699.46999	17653.0375
1702.72392	17583.6375
1705.97571	17510.5375
1709.22535	17419.2375
1712.47284	17402.6375
1715.71819	17349.9375
1718.96139	17332.7375
1722.20246	17280.7375
1725.44139	17210.8375
1728.67818	17121.9375
1731.91284	17059.7375
1735.14537	16943.9375
1738.37576	16928.8375
1741.60403	16865.0375
1744.83017	16798.7375
1748.05418	16820.2375
1751.27607	16756.6375
1754.49584	16766.6375
1757.71349	16766.7375
1760.92903	16711.5375
1764.14244	16703.7375
1767.35375	16675.7375
1770.56294	16660.8375
1773.77002	16599.5375
1776.97499	16574.8375
1780.17785	16549.0375
1783.37861	16512.2375
1786.57727	16471.0375
1789.77382	16403.3375
1792.96828	16421.8375
1796.16064	16369.8375
1799.3509	16317.4375
1802.53907	16303.8375
1805.72514	16261.2375
1808.90913	16219.3375
1812.09102	16207.6375
1815.27083	16155.3375
1818.44856	16107.3375
1821.6242	16078.2375
1824.79776	16052.7375
1827.96924	16066.4375
1831.13864	15990.4375
1834.30597	16022.0375
1837.47122	15975.6375
1840.6344	15964.4375
1843.7955	15969.2375
1846.95454	15945.4375
1850.11151	15954.9375
1853.26642	15917.5375
1856.41926	15928.7375
1859.57004	15917.9375
1862.71876	15895.4375
1865.86542	15904.6375
1869.01003	15873.4375
1872.15258	15856.6375
1875.29308	15852.2375
1878.43152	15865.4375
1881.56792	15836.4375
1884.70227	15834.5375
1887.83457	15798.1375
1890.96482	15790.9375
1894.09304	15735.4375
1897.21921	15738.5375
1900.34335	15717.0375
1903.46544	15745.4375
1906.58551	15712.7375
1909.70353	15677.7375
1912.81953	15665.5375
1915.93349	15622.9375
1919.04543	15576.2375
1922.15534	15546.9375
1925.26322	15533.4375
1928.36908	15504.3375
1931.47292	15486.2375
1934.57473	15457.0375
1937.67453	15413.7375
1940.77232	15395.7375
1943.86808	15339.6375
1946.96184	15278.0375
1950.05358	15242.5375
1953.14331	15151.7375
1956.23103	15140.1375
1959.31675	15122.8375
1962.40046	15032.9375
1965.48217	14998.3375
1968.56188	14954.1375
1971.63959	14894.2375
1974.7153	14878.6375
1977.78901	14836.0375
1980.86073	14778.8375
1983.93046	14723.9375
1986.99819	14701.4375
1990.06394	14689.9375
1993.1277	14649.4375
1996.18947	14531.5375
1999.24925	14520.3375
2002.30706	14469.5375
2005.36288	14430.9375
2008.41672	14374.9375
2011.46859	14362.3375
2014.51848	14308.6375
2017.56639	14285.7375
2020.61233	14261.3375
2023.6563	14224.5375
2026.6983	14200.2375
2029.73833	14129.1375
2032.7764	14104.9375
2035.8125	14085.3375
2038.84664	14039.4375
2041.87881	13988.0375
2044.90903	13957.7375
2047.93729	13951.8375
2050.96359	13943.2375
2053.98794	13924.6375
2057.01034	13889.7375
2060.03078	13886.4375
2063.04927	13875.0375
2066.06582	13879.2375
2069.08042	13911.2375
2072.09307	13885.9375
2075.10378	13864.5375
2078.11255	13834.7375
2081.11938	13855.3375
2084.12426	13800.4375
2087.12722	13820.1375
2090.12824	13815.8375
2093.12732	13781.9375
2096.12447	13784.5375
2099.11969	13801.0375
2102.11299	13790.8375
2105.10435	13782.2375
2108.09379	13772.5375
2111.08131	13799.7375
2114.0669	13794.1375
2117.05057	13796.9375
2120.03233	13787.1375
2123.01216	13820.3375
2125.99008	13819.3375
2128.96609	13837.7375
2131.94018	13860.2375
2134.91236	13880.4375
2137.88263	13838.7375
2140.851	13830.0375
2143.81746	13872.5375
2146.78201	13871.6375
2149.74466	13866.5375
2152.7054	13876.1375
2155.66425	13860.8375
2158.6212	13850.7375
2161.57625	13842.4375
2164.52941	13827.0375
2167.48067	13820.9375
2170.43004	13827.8375
2173.37752	13815.2375
2176.32311	13845.5375
2179.26681	13792.6375
2182.20863	13816.4375
2185.14856	13810.9375
2188.08661	13801.1375
2191.02278	13809.7375
2193.95707	13797.9375
2196.88948	13810.6375
2199.82001	13795.1375
2202.74867	13755.4375
2205.67545	13745.0375
2208.60037	13703.7375
2211.52341	13710.7375
2214.44458	13675.9375
2217.36388	13667.2375
2220.28132	13645.8375
2223.1969	13576.7375
2226.11061	13570.0375
2229.02246	13537.9375
2231.93245	13528.1375
2234.84058	13493.6375
2237.74686	13491.3375
2240.65128	13460.7375
2243.55385	13407.3375
2246.45456	13390.4375
2249.35343	13384.7375
2252.25044	13379.3375
2255.14561	13335.2375
2258.03893	13324.6375
2260.93041	13288.7375
2263.82004	13255.2375
2266.70783	13207.5375
2269.59378	13172.6375
2272.4779	13140.1375
2275.36017	13092.7375
2278.24061	13086.9375
2281.11922	13083.2375
2283.996	13072.6375
2286.87094	13036.3375
2289.74405	13031.4375
2292.61534	13021.8375
2295.4848	13014.2375
2298.35243	12988.3375
2301.21824	12981.7375
2304.08223	12979.8375
2306.94439	12969.9375
2309.80474	12961.4375
2312.66327	12990.1375
2315.51999	12965.6375
2318.37489	12931.6375
2321.22797	12930.2375
2324.07925	12907.0375
2326.92871	12893.0375
2329.77637	12887.5375
2332.62222	12830.7375
2335.46626	12833.2375
2338.3085	12820.4375
2341.14893	12801.7375
2343.98756	12800.2375
2346.8244	12789.3375
2349.65943	12798.9375
2352.49267	12789.9375
2355.32411	12772.2375
2358.15376	12757.9375
2360.98161	12765.7375
2363.80768	12742.9375
2366.63195	12763.2375
2369.45444	12736.7375
2372.27514	12707.6375
2375.09405	12681.3375
2377.91118	12682.0375
2380.72652	12638.2375
2383.54009	12589.0375
2386.35187	12555.9375
2389.16188	12504.7375
2391.97011	12525.0375
2394.77657	12490.0375
2397.58125	12478.2375
2400.38416	12475.3375
2403.18529	12453.3375
2405.98466	12439.0375
2408.78226	12374.2375
2411.57809	12374.3375
2414.37216	12329.3375
2417.16446	12320.5375
2419.955	12327.5375
2422.74378	12289.1375
2425.5308	12295.9375
2428.31606	12294.6375
2431.09956	12277.3375
2433.88131	12253.2375
2436.6613	12236.0375
2439.43954	12228.2375
2442.21603	12215.8375
2444.99077	12217.2375
2447.76377	12209.2375
2450.53501	12178.2375
2453.30451	12205.4375
2456.07226	12161.8375
2458.83827	12177.6375
2461.60254	12195.8375
2464.36507	12167.0375
2467.12586	12144.5375
2469.88492	12120.8375
2472.64224	12134.1375
2475.39782	12141.7375
2478.15167	12152.8375
2480.90379	12152.1375
2483.65417	12157.0375
2486.40283	12140.0375
2489.14976	12116.6375
2491.89497	12137.3375
2494.63845	12104.8375
2497.3802	12119.8375
2500.12024	12103.5375
2502.85855	12098.4375
2505.59514	12096.6375
2508.33002	12093.8375
2511.06318	12067.9375
2513.79462	12069.3375
2516.52435	12022.2375
2519.25237	11998.4375
2521.97867	12032.8375
2524.70327	11986.6375
2527.42616	11993.9375
2530.14734	12015.4375
2532.86681	11974.9375
2535.58458	11967.1375
2538.30065	11978.0375
2541.01501	11960.2375
2543.72768	11960.8375
2546.43864	11937.2375
2549.14791	11916.7375
2551.85548	11882.0375
2554.56136	11881.5375
2557.26554	11856.7375
2559.96803	11838.6375
2562.66883	11818.9375
2565.36794	11788.3375
2568.06536	11769.5375
2570.7611	11738.9375
2573.45514	11747.8375
2576.14751	11716.7375
2578.83819	11694.1375
2581.52719	11697.6375
2584.21451	11673.7375
2586.90015	11672.3375
2589.58411	11664.0375
2592.2664	11636.4375
2594.94701	11627.6375
2597.62594	11638.6375
2600.30321	11624.9375
2602.9788	11603.2375
2605.65273	11575.5375
2608.32498	11594.8375
2610.99557	11577.2375
2613.66449	11573.2375
2616.33175	11561.6375
2618.99734	11581.2375
2621.66128	11555.4375
2624.32355	11537.1375
2626.98416	11527.8375
2629.64311	11529.9375
2632.30041	11522.7375
2634.95605	11509.0375
2637.61004	11470.0375
2640.26238	11465.8375
2642.91306	11476.5375
2645.56209	11457.8375
2648.20948	11455.9375
2650.85521	11455.4375
2653.4993	11439.8375
2656.14175	11455.0375
2658.78255	11484.7375
2661.42171	11455.4375
2664.05923	11458.8375
2666.6951	11458.2375
2669.32934	11455.0375
2671.96194	11444.5375
2674.59291	11465.3375
2677.22224	11454.6375
2679.84993	11445.1375
2682.476	11423.5375
2685.10043	11440.2375
2687.72324	11435.6375
2690.34441	11423.6375
2692.96396	11443.3375
2695.58188	11429.4375
2698.19818	11413.8375
2700.81285	11411.8375
2703.4259	11420.0375
2706.03733	11447.5375
2708.64714	11443.1375
2711.25533	11435.8375
2713.86191	11419.5375
2716.46687	11437.0375
2719.07021	11444.3375
2721.67194	11444.4375
2724.27206	11443.3375
2726.87057	11427.4375
2729.46747	11429.5375
2732.06276	11448.3375
2734.65644	11455.3375
2737.24852	11464.0375
2739.83899	11432.3375
2742.42786	11443.1375
2745.01513	11421.3375
2747.60079	11439.5375
2750.18486	11390.4375
2752.76733	11392.1375
2755.3482	11393.0375
2757.92747	11369.7375
2760.50515	11345.5375
2763.08123	11364.4375
2765.65573	11320.8375
2768.22863	11349.9375
2770.79994	11339.2375
2773.36967	11330.3375
2775.9378	11307.7375
2778.50435	11298.5375
2781.06932	11295.1375
2783.6327	11286.4375
2786.1945	11330.3375
2788.75471	11284.2375
2791.31335	11298.0375
2793.87041	11266.7375
2796.42589	11244.7375
2798.97979	11227.3375
2801.53212	11205.2375
2804.08288	11190.5375
2806.63206	11157.3375
2809.17967	11114.2375
2811.72571	11089.5375
2814.27018	11082.6375
2816.81308	11059.7375
2819.35442	11063.7375
2821.89419	11035.9375
2824.43239	11040.4375
2826.96904	10977.0375
2829.50412	10969.3375
2832.03763	10966.4375
2834.56959	10982.0375
2837.1	10971.0375
2839.62884	10978.0375
2842.15613	10961.7375
2844.68186	11019.5375
2847.20604	11024.3375
2849.72867	11018.2375
2852.24974	11014.9375
2854.76927	11003.9375
2857.28724	10963.2375
2859.80367	10938.8375
2862.31855	10936.7375
2864.83189	10908.9375
2867.34368	10912.5375
2869.85393	10892.2375
2872.36264	10882.7375
2874.8698	10863.2375
2877.37543	10867.1375
2879.87952	10890.0375
2882.38207	10886.5375
2884.88308	10885.4375
2887.38256	10892.6375
2889.88051	10882.3375
2892.37692	10883.0375
2894.8718	10887.2375
2897.36515	10903.9375
2899.85698	10901.3375
2902.34727	10928.3375
2904.83604	10915.6375
2907.32328	10938.2375
2909.809	10948.7375
2912.29319	10943.6375
2914.77587	10947.4375
2917.25702	10939.4375
2919.73665	10949.7375
2922.21476	10922.5375
2924.69136	10903.2375
2927.16644	10896.7375
2929.64	10902.4375
2932.11205	10913.9375
2934.58258	10873.5375
2937.05161	10888.9375
2939.51912	10905.4375
2941.98513	10885.2375
2944.44962	10838.2375
2946.91261	10838.9375
2949.37409	10813.3375
2951.83407	10790.7375
2954.29254	10784.7375
2956.74951	10766.8375
2959.20498	10770.8375
2961.65895	10753.9375
2964.11142	10755.6375
2966.56239	10715.2375
2969.01186	10730.9375
2971.45984	10699.0375
2973.90632	10671.9375
2976.35131	10632.8375
2978.7948	10626.3375
2981.23681	10579.7375
2983.67732	10578.2375
2986.11635	10521.6375
2988.55388	10498.1375
2990.98993	10485.9375
2993.4245	10461.0375
2995.85758	10404.4375
2998.28917	10414.7375
3000.71928	10407.1375
3003.14791	10359.6375
3005.57506	10371.2375
3008.00073	10308.5375
3010.42493	10325.1375
3012.84764	10292.2375
3015.26888	10252.5375
3017.68865	10254.7375
3020.10694	10234.0375
3022.52376	10228.9375
3024.9391	10202.6375
3027.35298	10199.1375
3029.76539	10165.5375
3032.17632	10177.1375
3034.5858	10177.9375
3036.9938	10191.6375
3039.40034	10177.1375
3041.80542	10159.5375
3044.20903	10128.7375
3046.61118	10130.1375
3049.01187	10116.3375
3051.4111	10094.5375
3053.80888	10108.4375
3056.20519	10071.6375
3058.60005	10023.5375
3060.99345	10010.5375
3063.3854	9987.8375
3065.7759	9944.3375
3068.16494	9937.8375
3070.55254	9937.5375
3072.93868	9912.2375
3075.32338	9874.6375
3077.70662	9831.3375
3080.08842	9818.5375
3082.46878	9815.6375
3084.84769	9791.0375
3087.22515	9802.2375
3089.60118	9779.7375
3091.97576	9770.5375
3094.3489	9770.4375
3096.72061	9780.4375
3099.09087	9762.8375
3101.4597	9758.9375
3103.82709	9770.1375
3106.19305	9739.7375
3108.55757	9748.9375
3110.92066	9733.6375
3113.28232	9710.2375
3115.64255	9688.2375
3118.00134	9660.0375
3120.35871	9660.6375
3122.71466	9654.6375
3125.06917	9606.9375
3127.42226	9580.1375
3129.77393	9589.7375
3132.12417	9566.1375
3134.47299	9569.6375
3136.82039	9576.3375
3139.16636	9568.7375
3141.51092	9573.6375
3143.85406	9565.1375
3146.19579	9582.1375
3148.53609	9547.5375
3150.87499	9543.4375
3153.21246	9559.7375
3155.54853	9579.9375
3157.88318	9577.5375
3160.21642	9589.0375
3162.54826	9546.4375
3164.87868	9554.9375
3167.2077	9567.3375
3169.5353	9568.8375
3171.86151	9593.3375
3174.18631	9558.3375
3176.5097	9561.5375
3178.83169	9572.3375
3181.15228	9560.9375
3183.47147	9529.5375
3185.78926	9544.6375
3188.10565	9507.6375
3190.42065	9517.7375
3192.73424	9489.2375
3195.04645	9492.9375
3197.35725	9504.4375
3199.66667	9495.7375
3201.97469	9490.9375
3204.28132	9496.2375
3206.58656	9515.8375
3208.8904	9477.9375
3211.19287	9486.7375
3213.49394	9496.2375
3215.79363	9496.2375
3218.09193	9482.1375
3220.38884	9512.5375
3222.68438	9506.5375
3224.97853	9485.3375
3227.2713	9475.4375
3229.56269	9444.3375
3231.8527	9473.1375
3234.14133	9434.8375
3236.42858	9426.9375
3238.71446	9428.9375
3240.99896	9380.6375
3243.28209	9365.9375
3245.56384	9391.5375
3247.84423	9379.7375
3250.12324	9368.8375
3252.40088	9358.6375
3254.67715	9345.5375
3256.95205	9323.1375
3259.22558	9305.6375
3261.49775	9303.3375
3263.76855	9306.3375
3266.03799	9276.6375
3268.30606	9248.5375
3270.57277	9255.7375
3272.83812	9226.3375
3275.10211	9178.9375
3277.36474	9191.0375
3279.62601	9186.8375
3281.88593	9178.8375
3284.14448	9158.6375
3286.40168	9176.5375
3288.65753	9177.5375
3290.91202	9160.4375
3293.16516	9131.4375
3295.41695	9120.2375
3297.66738	9084.5375
3299.91647	9032.3375
3302.16421	8970.7375
3304.4106	8910.7375
3306.65564	8869.0375
3308.89933	8799.5375
3311.14169	8726.8375
3313.38269	8659.3375
3315.62236	8591.1375
3317.86068	8527.2375
3320.09766	8451.4375
3322.3333	8428.0375
3324.5676	8365.3375
3326.80056	8230.0375
3329.03219	8174.3375
3331.26248	4.9375
3333.49143	0.3375
3335.71905	-1.3625
