Data from AgNP_FTO_APTES_UA_10uM_CRN_10uM_R6G_10uM_NaF_0.1M_Addition_RamanShift__17__15-44-10-707.txt Node

Date: Thu Feb 10 15:44:10 GMT 2022
User: TCL
Spectrometer: QEP01345
Trigger mode: 4
Integration Time (sec): 7.000000E0
Scans to average: 10
Electric dark correction enabled: true
Nonlinearity correction enabled: false
Boxcar width: 0
XAxis mode: Raman Shifts
Number of Pixels in Spectrum: 1044
>>>>>Begin Spectral Data<<<<<
46.04893	-0.5625
50.45542	-0.7625
54.85868	-0.9625
59.25871	-0.6625
63.6555	68.1375
68.04907	72.7375
72.43941	79.7375
76.82654	76.3375
81.21044	81.8375
85.59113	82.1375
89.96862	83.6375
94.34289	93.6375
98.71396	93.3375
103.08183	97.7375
107.4465	99.9375
111.80798	98.3375
116.16626	106.2375
120.52136	108.3375
124.87327	114.1375
129.222	122.8375
133.56755	130.2375
137.90993	135.0375
142.24913	150.9375
146.58517	168.8375
150.91804	191.9375
155.24774	229.6375
159.57429	292.2375
163.89768	369.2375
168.21792	491.4375
172.53501	672.8375
176.84895	937.5375
181.15975	1322.6375
185.46741	1838.6375
189.77193	2543.3375
194.07331	3397.1375
198.37157	4370.8375
202.6667	5385.3375
206.9587	6400.0375
211.24758	7364.7375
215.53334	8387.2375
219.81599	9414.9375
224.09553	10588.5375
228.37195	11854.5375
232.64527	13288.1375
236.91549	14737.8375
241.18261	16241.4375
245.44663	17591.4375
249.70755	18878.1375
253.96539	19972.5375
258.22014	20912.0375
262.4718	21714.7375
266.72039	22320.3375
270.96589	22589.2375
275.20832	22786.0375
279.44768	22725.7375
283.68397	22602.6375
287.91719	22470.9375
292.14735	22398.3375
296.37445	22448.2375
300.59849	22515.7375
304.81948	22517.7375
309.03742	22358.4375
313.25231	22087.8375
317.46415	21488.4375
321.67296	20866.7375
325.87872	20403.2375
330.08145	20190.6375
334.28114	20134.6375
338.47781	20268.2375
342.67145	20498.3375
346.86207	20851.2375
351.04966	21227.3375
355.23424	21630.9375
359.4158	21990.5375
363.59435	22205.5375
367.76989	22387.8375
371.94243	22563.0375
376.11196	22666.3375
380.27849	22721.3375
384.44203	22865.1375
388.60257	23033.2375
392.76012	23258.7375
396.91468	23529.0375
401.06626	23854.7375
405.21485	24054.0375
409.36047	23943.0375
413.50311	23598.5375
417.64277	23354.7375
421.77947	23352.1375
425.9132	23468.9375
430.04396	23650.5375
434.17176	23737.6375
438.2966	23925.5375
442.41849	24305.0375
446.53742	24929.9375
450.6534	25645.9375
454.76644	26186.5375
458.87653	26442.3375
462.98368	26353.0375
467.08789	26112.4375
471.18916	25834.6375
475.2875	25540.4375
479.38291	25459.1375
483.4754	25316.0375
487.56496	24934.3375
491.6516	24498.5375
495.73531	24030.3375
499.81612	23816.8375
503.89401	23954.9375
507.96899	23973.4375
512.04106	24005.8375
516.11023	23793.6375
520.1765	23531.5375
524.23987	23277.2375
528.30034	23043.6375
532.35792	22796.7375
536.41261	22548.9375
540.46441	22369.9375
544.51333	22435.7375
548.55936	22779.7375
552.60252	23267.5375
556.64279	23879.3375
560.6802	24264.9375
564.71473	24531.8375
568.7464	24926.9375
572.7752	25536.6375
576.80114	26085.7375
580.82422	26520.4375
584.84444	26866.0375
588.86181	27117.6375
592.87633	27352.4375
596.888	27324.4375
600.89682	27195.6375
604.9028	27898.5375
608.90594	29902.9375
612.90624	31747.5375
616.90371	29569.6375
620.89834	25121.5375
624.89015	23339.3375
628.87913	23206.2375
632.86528	23247.5375
636.84862	23131.1375
640.82913	22770.7375
644.80683	22187.6375
648.78172	21779.5375
652.75379	21682.5375
656.72306	21884.1375
660.68952	22194.6375
664.65319	22060.8375
668.61405	21754.9375
672.57211	21635.0375
676.52738	21679.5375
680.47986	21658.2375
684.42955	21583.7375
688.37646	21540.5375
692.32058	21638.4375
696.26192	21865.5375
700.20048	22114.7375
704.13626	22270.0375
708.06928	22264.7375
711.99952	22109.7375
715.927	22030.2375
719.85171	22051.1375
723.77365	22020.0375
727.69284	21811.6375
731.60928	21542.6375
735.52295	21431.6375
739.43388	21436.1375
743.34206	21507.6375
747.24749	21613.2375
751.15017	21820.2375
755.05012	22250.8375
758.94733	22933.4375
762.8418	24138.4375
766.73354	25846.3375
770.62254	27388.3375
774.50882	27517.0375
778.39237	26162.3375
782.27321	24259.8375
786.15132	22846.7375
790.02671	21964.4375
793.89938	21573.8375
797.76935	21446.1375
801.6366	21387.4375
805.50115	21332.3375
809.36299	21150.5375
813.22213	21021.2375
817.07857	20905.6375
820.93231	20868.8375
824.78336	20756.9375
828.63172	20666.0375
832.47738	20584.6375
836.32036	20611.1375
840.16066	20686.6375
843.99827	20761.3375
847.8332	20696.9375
851.66546	20631.5375
855.49504	20611.6375
859.32195	20589.1375
863.1462	20549.5375
866.96777	20442.3375
870.78668	20384.9375
874.60293	20388.4375
878.41652	20386.7375
882.22745	20444.8375
886.03573	20492.6375
889.84136	20461.9375
893.64433	20357.8375
897.44466	20316.5375
901.24235	20243.3375
905.0374	20162.6375
908.8298	20154.0375
912.61957	20242.7375
916.40671	20399.7375
920.19121	20735.7375
923.97308	20908.3375
927.75233	20916.4375
931.52895	20718.1375
935.30295	20453.3375
939.07433	20070.0375
942.84309	19815.1375
946.60924	19666.5375
950.37278	19667.6375
954.13371	19612.3375
957.89203	19585.0375
961.64774	19512.3375
965.40086	19489.7375
969.15137	19425.0375
972.89929	19319.4375
976.64461	19258.3375
980.38733	19251.7375
984.12747	19332.7375
987.86502	19494.4375
991.59999	19758.6375
995.33237	20117.2375
999.06217	20708.6375
1002.78939	21360.7375
1006.51404	21729.0375
1010.23611	21995.3375
1013.95561	22157.0375
1017.67255	22152.9375
1021.38692	21891.5375
1025.09872	21622.5375
1028.80796	21679.0375
1032.51465	22158.4375
1036.21877	22641.7375
1039.92035	22751.1375
1043.61937	22469.8375
1047.31584	21996.0375
1051.00976	21533.8375
1054.70114	21424.6375
1058.38998	21477.6375
1062.07627	21675.8375
1065.76003	21802.7375
1069.44126	21983.8375
1073.11995	22222.1375
1076.79611	22459.4375
1080.46974	22612.4375
1084.14085	22845.4375
1087.80943	23058.0375
1091.47549	23363.4375
1095.13903	23341.3375
1098.80005	23113.2375
1102.45857	22635.2375
1106.11456	22239.2375
1109.76805	22104.3375
1113.41903	22129.5375
1117.06751	22257.7375
1120.71348	22491.6375
1124.35696	22667.5375
1127.99793	22923.4375
1131.63641	23095.0375
1135.2724	22991.6375
1138.90589	22929.8375
1142.5369	22902.9375
1146.16542	22976.0375
1149.79145	23187.0375
1153.415	23443.8375
1157.03607	23890.8375
1160.65467	24650.6375
1164.27079	25792.9375
1167.88443	27223.3375
1171.49561	28969.4375
1175.10432	31137.0375
1178.71056	33733.4375
1182.31434	36272.7375
1185.91565	37660.1375
1189.51451	37826.4375
1193.11091	36809.1375
1196.70485	35360.2375
1200.29634	33805.1375
1203.88538	32593.9375
1207.47197	31812.7375
1211.05612	31259.0375
1214.63782	30618.4375
1218.21708	30009.0375
1221.79391	29560.2375
1225.36829	29134.8375
1228.94024	28751.7375
1232.50976	28243.7375
1236.07685	27780.7375
1239.6415	27517.1375
1243.20374	27495.8375
1246.76355	27676.7375
1250.32093	28106.2375
1253.8759	28742.1375
1257.42845	29565.0375
1260.97859	30432.8375
1264.52631	31343.9375
1268.07163	32266.5375
1271.61453	33236.5375
1275.15503	34285.0375
1278.69312	35378.3375
1282.22882	36247.1375
1285.76211	37168.8375
1289.29301	38179.0375
1292.82151	39597.7375
1296.34761	41387.6375
1299.87133	43794.4375
1303.39266	46500.3375
1306.9116	49256.9375
1310.42815	51802.2375
1313.94233	53385.6375
1317.45412	53627.4375
1320.96354	53095.1375
1324.47058	52542.4375
1327.97525	51992.4375
1331.47754	51605.7375
1334.97747	51558.9375
1338.47502	51605.2375
1341.97022	51510.5375
1345.46305	50873.1375
1348.95352	49708.9375
1352.44163	48533.5375
1355.92738	48115.8375
1359.41078	48988.5375
1362.89183	49790.8375
1366.37053	48499.0375
1369.84688	44833.7375
1373.32088	40728.3375
1376.79254	37943.6375
1380.26186	36947.6375
1383.72883	37038.8375
1387.19347	37244.6375
1390.65578	37137.2375
1394.11575	37303.6375
1397.57339	37869.9375
1401.0287	38716.6375
1404.48168	39397.3375
1407.93234	39549.5375
1411.38068	38953.4375
1414.82669	37604.2375
1418.27039	35878.1375
1421.71177	34150.6375
1425.15083	32707.4375
1428.58758	31994.6375
1432.02203	32051.1375
1435.45416	32809.6375
1438.88399	33896.9375
1442.31151	34877.7375
1445.73673	35634.7375
1449.15965	36300.8375
1452.58027	36700.0375
1455.9986	37017.4375
1459.41463	37359.2375
1462.82837	37966.7375
1466.23982	38645.9375
1469.64898	39208.0375
1473.05586	39471.6375
1476.46045	39292.8375
1479.86276	38759.2375
1483.26279	38081.4375
1486.66054	37607.5375
1490.05602	37449.5375
1493.44922	37441.6375
1496.84016	37572.6375
1500.22882	38003.4375
1503.61521	38884.1375
1506.99934	39981.8375
1510.38121	41006.3375
1513.76081	41302.5375
1517.13816	40549.6375
1520.51324	39358.8375
1523.88607	38279.8375
1527.25665	37740.6375
1530.62498	37653.8375
1533.99105	37794.2375
1537.35488	37689.6375
1540.71647	37250.8375
1544.07581	36582.1375
1547.4329	35736.7375
1550.78776	35037.5375
1554.14038	34450.7375
1557.49077	34169.8375
1560.83892	33948.6375
1564.18484	33844.2375
1567.52853	33793.5375
1570.86999	34007.2375
1574.20922	34448.4375
1577.54624	34943.2375
1580.88103	35308.1375
1584.2136	35746.2375
1587.54395	36819.5375
1590.87208	38657.7375
1594.19801	40946.4375
1597.52172	43197.3375
1600.84321	43774.9375
1604.16251	41916.0375
1607.47959	38688.4375
1610.79447	35291.8375
1614.10715	32087.6375
1617.41763	29440.9375
1620.7259	27559.8375
1624.03199	26538.1375
1627.33587	26453.0375
1630.63757	27286.2375
1633.93707	29242.9375
1637.23439	32362.0375
1640.52951	36498.1375
1643.82246	40859.4375
1647.11321	43789.1375
1650.40179	43731.5375
1653.68819	40299.1375
1656.97241	34983.5375
1660.25446	29854.7375
1663.53433	26013.2375
1666.81203	23443.6375
1670.08756	21830.8375
1673.36092	20786.5375
1676.63211	20111.4375
1679.90115	19619.5375
1683.16801	19221.1375
1686.43272	18983.7375
1689.69527	18778.0375
1692.95567	18630.0375
1696.2139	18526.4375
1699.46999	18454.2375
1702.72392	18393.6375
1705.97571	18258.7375
1709.22535	18226.0375
1712.47284	18135.7375
1715.71819	18097.9375
1718.96139	18012.9375
1722.20246	17961.4375
1725.44139	17859.2375
1728.67818	17719.5375
1731.91284	17599.9375
1735.14537	17494.1375
1738.37576	17421.2375
1741.60403	17377.5375
1744.83017	17281.2375
1748.05418	17250.7375
1751.27607	17193.3375
1754.49584	17195.2375
1757.71349	17171.1375
1760.92903	17134.7375
1764.14244	17108.2375
1767.35375	17109.2375
1770.56294	17070.5375
1773.77002	17034.0375
1776.97499	16979.7375
1780.17785	16928.3375
1783.37861	16901.2375
1786.57727	16863.2375
1789.77382	16809.1375
1792.96828	16797.5375
1796.16064	16747.3375
1799.3509	16716.2375
1802.53907	16692.2375
1805.72514	16654.6375
1808.90913	16612.4375
1812.09102	16553.7375
1815.27083	16503.9375
1818.44856	16486.4375
1821.6242	16492.4375
1824.79776	16454.8375
1827.96924	16457.2375
1831.13864	16450.4375
1834.30597	16438.3375
1837.47122	16485.2375
1840.6344	16472.0375
1843.7955	16464.2375
1846.95454	16471.0375
1850.11151	16482.3375
1853.26642	16464.3375
1856.41926	16435.2375
1859.57004	16468.3375
1862.71876	16409.7375
1865.86542	16387.7375
1869.01003	16366.9375
1872.15258	16373.5375
1875.29308	16346.4375
1878.43152	16366.8375
1881.56792	16352.4375
1884.70227	16331.6375
1887.83457	16352.6375
1890.96482	16306.0375
1894.09304	16277.1375
1897.21921	16279.8375
1900.34335	16218.6375
1903.46544	16254.8375
1906.58551	16180.5375
1909.70353	16162.6375
1912.81953	16160.4375
1915.93349	16121.3375
1919.04543	16106.2375
1922.15534	16052.8375
1925.26322	15991.3375
1928.36908	15943.9375
1931.47292	15934.8375
1934.57473	15888.3375
1937.67453	15864.6375
1940.77232	15769.6375
1943.86808	15732.1375
1946.96184	15675.4375
1950.05358	15609.6375
1953.14331	15543.8375
1956.23103	15499.4375
1959.31675	15466.6375
1962.40046	15406.9375
1965.48217	15360.4375
1968.56188	15328.2375
1971.63959	15284.4375
1974.7153	15232.4375
1977.78901	15163.3375
1980.86073	15136.4375
1983.93046	15105.8375
1986.99819	15053.9375
1990.06394	15038.4375
1993.1277	14940.0375
1996.18947	14894.8375
1999.24925	14860.4375
2002.30706	14811.1375
2005.36288	14768.0375
2008.41672	14734.7375
2011.46859	14712.7375
2014.51848	14701.1375
2017.56639	14659.2375
2020.61233	14623.7375
2023.6563	14563.2375
2026.6983	14514.8375
2029.73833	14493.0375
2032.7764	14490.9375
2035.8125	14463.0375
2038.84664	14424.1375
2041.87881	14395.7375
2044.90903	14354.5375
2047.93729	14334.1375
2050.96359	14345.6375
2053.98794	14317.2375
2057.01034	14328.0375
2060.03078	14279.7375
2063.04927	14285.2375
2066.06582	14280.4375
2069.08042	14288.7375
2072.09307	14245.8375
2075.10378	14226.0375
2078.11255	14234.2375
2081.11938	14241.1375
2084.12426	14240.7375
2087.12722	14189.3375
2090.12824	14194.8375
2093.12732	14155.8375
2096.12447	14179.2375
2099.11969	14179.1375
2102.11299	14160.8375
2105.10435	14191.7375
2108.09379	14181.0375
2111.08131	14169.0375
2114.0669	14169.3375
2117.05057	14178.0375
2120.03233	14199.5375
2123.01216	14236.4375
2125.99008	14227.9375
2128.96609	14229.4375
2131.94018	14270.4375
2134.91236	14243.0375
2137.88263	14295.0375
2140.851	14273.0375
2143.81746	14242.7375
2146.78201	14271.6375
2149.74466	14273.6375
2152.7054	14275.9375
2155.66425	14259.8375
2158.6212	14261.9375
2161.57625	14254.3375
2164.52941	14286.6375
2167.48067	14254.1375
2170.43004	14252.6375
2173.37752	14194.0375
2176.32311	14211.2375
2179.26681	14222.7375
2182.20863	14265.0375
2185.14856	14246.2375
2188.08661	14218.6375
2191.02278	14226.2375
2193.95707	14243.6375
2196.88948	14204.2375
2199.82001	14218.7375
2202.74867	14202.2375
2205.67545	14210.0375
2208.60037	14170.4375
2211.52341	14168.0375
2214.44458	14170.1375
2217.36388	14146.1375
2220.28132	14123.2375
2223.1969	14100.3375
2226.11061	14081.6375
2229.02246	14024.8375
2231.93245	13997.2375
2234.84058	13935.8375
2237.74686	13929.6375
2240.65128	13901.9375
2243.55385	13884.1375
2246.45456	13887.3375
2249.35343	13864.9375
2252.25044	13846.9375
2255.14561	13809.5375
2258.03893	13794.3375
2260.93041	13771.8375
2263.82004	13706.8375
2266.70783	13697.0375
2269.59378	13649.9375
2272.4779	13590.8375
2275.36017	13575.7375
2278.24061	13563.9375
2281.11922	13525.9375
2283.996	13546.9375
2286.87094	13515.1375
2289.74405	13520.4375
2292.61534	13492.9375
2295.4848	13465.1375
2298.35243	13485.8375
2301.21824	13466.8375
2304.08223	13468.2375
2306.94439	13472.7375
2309.80474	13517.2375
2312.66327	13511.5375
2315.51999	13493.7375
2318.37489	13493.8375
2321.22797	13487.4375
2324.07925	13478.3375
2326.92871	13448.8375
2329.77637	13438.6375
2332.62222	13424.8375
2335.46626	13393.1375
2338.3085	13422.4375
2341.14893	13427.8375
2343.98756	13412.4375
2346.8244	13430.1375
2349.65943	13435.9375
2352.49267	13441.5375
2355.32411	13448.6375
2358.15376	13435.3375
2360.98161	13424.4375
2363.80768	13439.7375
2366.63195	13404.4375
2369.45444	13383.2375
2372.27514	13344.5375
2375.09405	13300.3375
2377.91118	13295.4375
2380.72652	13278.6375
2383.54009	13241.1375
2386.35187	13209.3375
2389.16188	13147.1375
2391.97011	13150.5375
2394.77657	13125.6375
2397.58125	13087.2375
2400.38416	13115.2375
2403.18529	13086.4375
2405.98466	13046.5375
2408.78226	13033.2375
2411.57809	13026.3375
2414.37216	12981.6375
2417.16446	12994.1375
2419.955	12978.4375
2422.74378	12950.2375
2425.5308	12936.2375
2428.31606	12953.8375
2431.09956	12953.2375
2433.88131	12942.8375
2436.6613	12941.0375
2439.43954	12922.8375
2442.21603	12924.0375
2444.99077	12940.8375
2447.76377	12899.6375
2450.53501	12913.4375
2453.30451	12904.1375
2456.07226	12897.0375
2458.83827	12896.3375
2461.60254	12916.3375
2464.36507	12899.6375
2467.12586	12877.0375
2469.88492	12860.8375
2472.64224	12885.6375
2475.39782	12922.1375
2478.15167	12923.0375
2480.90379	12936.5375
2483.65417	12951.5375
2486.40283	12920.2375
2489.14976	12953.6375
2491.89497	12968.3375
2494.63845	12992.4375
2497.3802	12970.5375
2500.12024	12971.0375
2502.85855	12984.5375
2505.59514	12944.4375
2508.33002	12908.5375
2511.06318	12918.5375
2513.79462	12914.4375
2516.52435	12915.5375
2519.25237	12886.5375
2521.97867	12873.7375
2524.70327	12861.2375
2527.42616	12865.0375
2530.14734	12880.3375
2532.86681	12844.1375
2535.58458	12861.5375
2538.30065	12849.4375
2541.01501	12875.5375
2543.72768	12874.9375
2546.43864	12833.6375
2549.14791	12834.6375
2551.85548	12845.7375
2554.56136	12819.5375
2557.26554	12812.8375
2559.96803	12804.0375
2562.66883	12753.3375
2565.36794	12756.1375
2568.06536	12742.1375
2570.7611	12742.5375
2573.45514	12733.0375
2576.14751	12737.5375
2578.83819	12684.0375
2581.52719	12718.1375
2584.21451	12700.5375
2586.90015	12685.3375
2589.58411	12717.9375
2592.2664	12700.4375
2594.94701	12697.5375
2597.62594	12704.4375
2600.30321	12673.0375
2602.9788	12679.4375
2605.65273	12660.2375
2608.32498	12684.1375
2610.99557	12685.3375
2613.66449	12676.8375
2616.33175	12691.9375
2618.99734	12695.4375
2621.66128	12696.8375
2624.32355	12663.3375
2626.98416	12687.5375
2629.64311	12674.6375
2632.30041	12693.5375
2634.95605	12665.1375
2637.61004	12653.9375
2640.26238	12647.6375
2642.91306	12646.5375
2645.56209	12625.8375
2648.20948	12662.3375
2650.85521	12617.4375
2653.4993	12642.5375
2656.14175	12642.0375
2658.78255	12658.0375
2661.42171	12644.2375
2664.05923	12685.3375
2666.6951	12678.1375
2669.32934	12703.5375
2671.96194	12715.1375
2674.59291	12699.0375
2677.22224	12695.0375
2679.84993	12714.4375
2682.476	12666.2375
2685.10043	12661.9375
2687.72324	12631.6375
2690.34441	12663.5375
2692.96396	12633.0375
2695.58188	12658.4375
2698.19818	12617.0375
2700.81285	12649.6375
2703.4259	12649.8375
2706.03733	12681.3375
2708.64714	12665.6375
2711.25533	12670.4375
2713.86191	12660.9375
2716.46687	12676.2375
2719.07021	12659.2375
2721.67194	12703.6375
2724.27206	12678.5375
2726.87057	12715.2375
2729.46747	12726.4375
2732.06276	12753.1375
2734.65644	12731.9375
2737.24852	12720.2375
2739.83899	12699.5375
2742.42786	12733.8375
2745.01513	12718.6375
2747.60079	12711.1375
2750.18486	12704.0375
2752.76733	12700.0375
2755.3482	12687.9375
2757.92747	12674.7375
2760.50515	12666.9375
2763.08123	12674.7375
2765.65573	12655.8375
2768.22863	12663.1375
2770.79994	12654.4375
2773.36967	12660.3375
2775.9378	12685.1375
2778.50435	12699.4375
2781.06932	12686.3375
2783.6327	12695.5375
2786.1945	12683.2375
2788.75471	12659.8375
2791.31335	12657.5375
2793.87041	12643.9375
2796.42589	12616.6375
2798.97979	12607.2375
2801.53212	12593.5375
2804.08288	12593.6375
2806.63206	12548.6375
2809.17967	12536.1375
2811.72571	12501.6375
2814.27018	12482.6375
2816.81308	12414.5375
2819.35442	12456.1375
2821.89419	12410.2375
2824.43239	12401.4375
2826.96904	12389.1375
2829.50412	12386.2375
2832.03763	12349.5375
2834.56959	12362.6375
2837.1	12324.0375
2839.62884	12325.7375
2842.15613	12344.0375
2844.68186	12361.2375
2847.20604	12309.5375
2849.72867	12323.0375
2852.24974	12322.5375
2854.76927	12308.0375
2857.28724	12278.8375
2859.80367	12265.1375
2862.31855	12258.0375
2864.83189	12248.0375
2867.34368	12237.8375
2869.85393	12242.0375
2872.36264	12230.9375
2874.8698	12250.5375
2877.37543	12214.1375
2879.87952	12200.3375
2882.38207	12228.3375
2884.88308	12226.2375
2887.38256	12221.9375
2889.88051	12256.6375
2892.37692	12263.9375
2894.8718	12241.0375
2897.36515	12283.6375
2899.85698	12294.1375
2902.34727	12291.3375
2904.83604	12324.7375
2907.32328	12353.0375
2909.809	12353.8375
2912.29319	12339.6375
2914.77587	12317.3375
2917.25702	12328.2375
2919.73665	12308.7375
2922.21476	12346.9375
2924.69136	12297.2375
2927.16644	12310.6375
2929.64	12314.2375
2932.11205	12285.3375
2934.58258	12221.6375
2937.05161	12235.4375
2939.51912	12233.9375
2941.98513	12178.6375
2944.44962	12205.3375
2946.91261	12180.0375
2949.37409	12181.6375
2951.83407	12183.8375
2954.29254	12174.8375
2956.74951	12174.7375
2959.20498	12155.8375
2961.65895	12143.8375
2964.11142	12160.7375
2966.56239	12101.2375
2969.01186	12106.6375
2971.45984	12051.2375
2973.90632	12041.5375
2976.35131	12019.7375
2978.7948	12015.2375
2981.23681	12009.1375
2983.67732	11980.9375
2986.11635	11940.9375
2988.55388	11871.8375
2990.98993	11903.2375
2993.4245	11851.0375
2995.85758	11804.6375
2998.28917	11782.4375
3000.71928	11753.3375
3003.14791	11737.6375
3005.57506	11720.9375
3008.00073	11674.6375
3010.42493	11545.7375
3012.84764	11640.5375
3015.26888	11595.2375
3017.68865	11552.2375
3020.10694	11569.2375
3022.52376	11551.0375
3024.9391	11558.5375
3027.35298	11572.6375
3029.76539	11548.2375
3032.17632	11557.3375
3034.5858	11543.1375
3036.9938	11539.9375
3039.40034	11514.9375
3041.80542	11521.3375
3044.20903	11509.5375
3046.61118	11469.2375
3049.01187	11467.4375
3051.4111	11452.6375
3053.80888	11436.4375
3056.20519	11396.0375
3058.60005	11361.0375
3060.99345	11357.9375
3063.3854	11350.0375
3065.7759	11278.5375
3068.16494	11272.2375
3070.55254	11218.6375
3072.93868	11223.8375
3075.32338	11194.5375
3077.70662	11180.7375
3080.08842	11124.4375
3082.46878	11136.5375
3084.84769	11103.5375
3087.22515	11108.9375
3089.60118	11108.4375
3091.97576	11079.5375
3094.3489	11084.3375
3096.72061	11107.0375
3099.09087	11108.9375
3101.4597	11065.2375
3103.82709	11058.7375
3106.19305	11039.9375
3108.55757	11023.2375
3110.92066	11002.0375
3113.28232	10987.3375
3115.64255	10967.4375
3118.00134	10921.2375
3120.35871	10923.2375
3122.71466	10905.6375
3125.06917	10880.7375
3127.42226	10856.9375
3129.77393	10849.7375
3132.12417	10838.1375
3134.47299	10810.3375
3136.82039	10817.2375
3139.16636	10823.2375
3141.51092	10858.0375
3143.85406	10805.3375
3146.19579	10781.9375
3148.53609	10784.8375
3150.87499	10795.6375
3153.21246	10827.5375
3155.54853	10827.4375
3157.88318	10818.5375
3160.21642	10810.0375
3162.54826	10820.7375
3164.87868	10848.5375
3167.2077	10834.8375
3169.5353	10853.2375
3171.86151	10870.3375
3174.18631	10833.7375
3176.5097	10831.5375
3178.83169	10812.8375
3181.15228	10816.5375
3183.47147	10765.4375
3185.78926	10763.9375
3188.10565	10752.5375
3190.42065	10740.0375
3192.73424	10734.0375
3195.04645	10741.0375
3197.35725	10746.8375
3199.66667	10723.1375
3201.97469	10746.5375
3204.28132	10725.7375
3206.58656	10745.3375
3208.8904	10746.6375
3211.19287	10749.9375
3213.49394	10746.0375
3215.79363	10773.4375
3218.09193	10754.7375
3220.38884	10751.2375
3222.68438	10774.2375
3224.97853	10739.0375
3227.2713	10743.0375
3229.56269	10743.9375
3231.8527	10705.7375
3234.14133	10703.7375
3236.42858	10663.4375
3238.71446	10666.6375
3240.99896	10645.6375
3243.28209	10635.1375
3245.56384	10619.9375
3247.84423	10655.5375
3250.12324	10624.5375
3252.40088	10599.6375
3254.67715	10581.6375
3256.95205	10595.1375
3259.22558	10584.1375
3261.49775	10571.5375
3263.76855	10541.1375
3266.03799	10525.2375
3268.30606	10520.6375
3270.57277	10485.7375
3272.83812	10469.8375
3275.10211	10455.8375
3277.36474	10445.0375
3279.62601	10411.9375
3281.88593	10387.8375
3284.14448	10400.4375
3286.40168	10403.3375
3288.65753	10434.6375
3290.91202	10421.4375
3293.16516	10372.8375
3295.41695	10360.8375
3297.66738	10307.8375
3299.91647	10271.9375
3302.16421	10205.3375
3304.4106	10141.3375
3306.65564	10080.1375
3308.89933	10004.9375
3311.14169	9909.9375
3313.38269	9819.9375
3315.62236	9762.4375
3317.86068	9696.7375
3320.09766	9608.8375
3322.3333	9547.1375
3324.5676	9517.0375
3326.80056	9372.7375
3329.03219	9305.9375
3331.26248	3.8375
3333.49143	-0.7625
3335.71905	-0.3625
