Data from AgNP_FTO_APTES_UA_10uM_CRN_1000uM_R6G_10uM_NaF_0.1M_Addition_RamanShift__21__19-45-41-004.txt Node

Date: Thu Feb 10 19:45:41 GMT 2022
User: TCL
Spectrometer: QEP01345
Trigger mode: 4
Integration Time (sec): 7.000000E0
Scans to average: 10
Electric dark correction enabled: true
Nonlinearity correction enabled: false
Boxcar width: 0
XAxis mode: Raman Shifts
Number of Pixels in Spectrum: 1044
>>>>>Begin Spectral Data<<<<<
46.04893	-0.4
50.45542	0
54.85868	-1.2
59.25871	-0.1
63.6555	64
68.04907	67.3
72.43941	70.5
76.82654	67.4
81.21044	77.9
85.59113	77.3
89.96862	77.2
94.34289	82.8
98.71396	83.6
103.08183	90.1
107.4465	91.9
111.80798	89.7
116.16626	96.3
120.52136	100.9
124.87327	107.6
129.222	105.5
133.56755	117
137.90993	120.7
142.24913	134.3
146.58517	155.2
150.91804	175.3
155.24774	213.1
159.57429	261.6
163.89768	338.2
168.21792	446.9
172.53501	616.4
176.84895	859
181.15975	1215.6
185.46741	1693.2
189.77193	2360.9
194.07331	3136.5
198.37157	4049.9
202.6667	5032.6
206.9587	5997.8
211.24758	6923.5
215.53334	7860.8
219.81599	8875.4
224.09553	9926.8
228.37195	11108.2
232.64527	12395
236.91549	13785.8
241.18261	15172.8
245.44663	16512.3
249.70755	17687.4
253.96539	18785.4
258.22014	19697.7
262.4718	20432.6
266.72039	21008.4
270.96589	21320.7
275.20832	21396.7
279.44768	21287.9
283.68397	21091.1
287.91719	20937.4
292.14735	20792.3
296.37445	20753.9
300.59849	20793.1
304.81948	20778.6
309.03742	20623
313.25231	20382.3
317.46415	19995.3
321.67296	19521.2
325.87872	19131.3
330.08145	19027
334.28114	19031.1
338.47781	19183
342.67145	19374.8
346.86207	19628.9
351.04966	20009
355.23424	20410.5
359.4158	20748.5
363.59435	21028
367.76989	21224
371.94243	21436.5
376.11196	21573.3
380.27849	21735.4
384.44203	21855.2
388.60257	22016.6
392.76012	22122.1
396.91468	22287.1
401.06626	22594.9
405.21485	22774.9
409.36047	22770.1
413.50311	22521.8
417.64277	22327.7
421.77947	22346.5
425.9132	22445.5
430.04396	22681.9
434.17176	22857
438.2966	23129.4
442.41849	23580.6
446.53742	24222
450.6534	24868.7
454.76644	25357.1
458.87653	25526.3
462.98368	25351.7
467.08789	25093.1
471.18916	24784.6
475.2875	24617.3
479.38291	24619.7
483.4754	24589.1
487.56496	24417
491.6516	23992.4
495.73531	23578.7
499.81612	23277.3
503.89401	23226.5
507.96899	23215.9
512.04106	23144.8
516.11023	23069.3
520.1765	22953.1
524.23987	22824.3
528.30034	22675.2
532.35792	22547.4
536.41261	22424
540.46441	22241.2
544.51333	22254.2
548.55936	22430.8
552.60252	22815.1
556.64279	23303.6
560.6802	23714.9
564.71473	24029.9
568.7464	24393.8
572.7752	24910
576.80114	25144.9
580.82422	25121.6
584.84444	25120.7
588.86181	25397.6
592.87633	25878.6
596.888	26044.4
600.89682	25731.9
604.9028	25914.9
608.90594	27354.4
612.90624	29119.9
616.90371	27922.1
620.89834	24410.3
624.89015	22767.2
628.87913	22526.9
632.86528	22629.8
636.84862	22664.5
640.82913	22524.1
644.80683	22139.5
648.78172	21827.7
652.75379	21738.9
656.72306	21897.4
660.68952	22173.8
664.65319	22125.1
668.61405	21820
672.57211	21778.3
676.52738	21869.3
680.47986	21915
684.42955	21840
688.37646	21789.3
692.32058	21819.9
696.26192	21995.4
700.20048	22135.9
704.13626	22231.9
708.06928	22229.5
711.99952	22142.2
715.927	22057.2
719.85171	22062.6
723.77365	22058.9
727.69284	21933.6
731.60928	21802.9
735.52295	21774.1
739.43388	21784.5
743.34206	21824.5
747.24749	21894
751.15017	22039.5
755.05012	22246.9
758.94733	22636.3
762.8418	23473.3
766.73354	24681.7
770.62254	25872.7
774.50882	26239.3
778.39237	25430.2
782.27321	23930.3
786.15132	22707.8
790.02671	21946.9
793.89938	21623.4
797.76935	21502.8
801.6366	21453.3
805.50115	21458.4
809.36299	21381.1
813.22213	21303.9
817.07857	21298.8
820.93231	21253.4
824.78336	21195.5
828.63172	21118
832.47738	21075.8
836.32036	21022.2
840.16066	21054
843.99827	21051.5
847.8332	21044.9
851.66546	20994.3
855.49504	21012.7
859.32195	21037.8
863.1462	21043.3
866.96777	21005.6
870.78668	20990
874.60293	20969.7
878.41652	20935.5
882.22745	20991.3
886.03573	21003.3
889.84136	21049.3
893.64433	20960.9
897.44466	20918.4
901.24235	20856.6
905.0374	20745.4
908.8298	20704.2
912.61957	20636.9
916.40671	20727.5
920.19121	20900.8
923.97308	20999.3
927.75233	21020.5
931.52895	20926.5
935.30295	20788.2
939.07433	20531.3
942.84309	20311.2
946.60924	20168.8
950.37278	20100.7
954.13371	20060.8
957.89203	20034.1
961.64774	19988.1
965.40086	19989.5
969.15137	19899.9
972.89929	19757.7
976.64461	19684.4
980.38733	19646.6
984.12747	19671.4
987.86502	19793.6
991.59999	19926
995.33237	20154.5
999.06217	20511.6
1002.78939	20899
1006.51404	21143.7
1010.23611	21278.1
1013.95561	21451.5
1017.67255	21479.1
1021.38692	21277.9
1025.09872	21133.6
1028.80796	21009.9
1032.51465	21117.4
1036.21877	21245.9
1039.92035	21311.2
1043.61937	21203.2
1047.31584	21033.2
1051.00976	20838.6
1054.70114	20777
1058.38998	20794.1
1062.07627	20879.5
1065.76003	20978.8
1069.44126	21063.6
1073.11995	21169.3
1076.79611	21286.8
1080.46974	21373.5
1084.14085	21485.3
1087.80943	21675.9
1091.47549	21837.3
1095.13903	21850.3
1098.80005	21718.7
1102.45857	21447.3
1106.11456	21263
1109.76805	21218.3
1113.41903	21364.6
1117.06751	21502.1
1120.71348	21709.8
1124.35696	21883.7
1127.99793	22119.2
1131.63641	22240.2
1135.2724	22132.5
1138.90589	21872.8
1142.5369	21831.9
1146.16542	21858.5
1149.79145	21957
1153.415	22095
1157.03607	22335.6
1160.65467	22765.1
1164.27079	23540.6
1167.88443	24501
1171.49561	25640.5
1175.10432	27203.8
1178.71056	29078.7
1182.31434	30834.7
1185.91565	31734.7
1189.51451	31683.8
1193.11091	31108.9
1196.70485	30252.8
1200.29634	29332.4
1203.88538	28634.6
1207.47197	28051.2
1211.05612	27510.9
1214.63782	27055.6
1218.21708	26716.1
1221.79391	26462
1225.36829	26197.4
1228.94024	25759
1232.50976	25216.6
1236.07685	24837.8
1239.6415	24684.7
1243.20374	24706
1246.76355	24876.3
1250.32093	25100
1253.8759	25491.3
1257.42845	25975.3
1260.97859	26521.2
1264.52631	27016.1
1268.07163	27623.6
1271.61453	28091.8
1275.15503	28697.4
1278.69312	29346.2
1282.22882	29830.1
1285.76211	30451.2
1289.29301	31268.6
1292.82151	32370.1
1296.34761	33811.9
1299.87133	35641.4
1303.39266	37490.6
1306.9116	39420.4
1310.42815	41295.3
1313.94233	42627.3
1317.45412	42869.6
1320.96354	42413.5
1324.47058	41757.4
1327.97525	41042.9
1331.47754	40652.4
1334.97747	40614.3
1338.47502	40823.6
1341.97022	40907.7
1345.46305	40447
1348.95352	39641.4
1352.44163	38973.4
1355.92738	38920
1359.41078	39609
1362.89183	40478.4
1366.37053	39846.9
1369.84688	37073.2
1373.32088	33689.7
1376.79254	31459.5
1380.26186	30622.6
1383.72883	30671
1387.19347	30933.8
1390.65578	31040.9
1394.11575	31337.7
1397.57339	32018.6
1401.0287	32801.2
1404.48168	33626
1407.93234	33992.9
1411.38068	33777.7
1414.82669	32838.8
1418.27039	31492
1421.71177	30004
1425.15083	28639.3
1428.58758	27861.4
1432.02203	27704.2
1435.45416	28187.8
1438.88399	28879.3
1442.31151	29492.1
1445.73673	30129.2
1449.15965	30637
1452.58027	31148.3
1455.9986	31369.4
1459.41463	31653.9
1462.82837	31904.3
1466.23982	32330.1
1469.64898	32721.6
1473.05586	32823.3
1476.46045	32684.5
1479.86276	32335.9
1483.26279	31924.6
1486.66054	31569.3
1490.05602	31346.5
1493.44922	31223.8
1496.84016	31042.2
1500.22882	31070.1
1503.61521	31382.2
1506.99934	32099
1510.38121	32926.8
1513.76081	33297.2
1517.13816	32759.8
1520.51324	31678.9
1523.88607	30771.8
1527.25665	30220.1
1530.62498	30167.6
1533.99105	30276
1537.35488	30391.5
1540.71647	30272.9
1544.07581	30012.2
1547.4329	29607.2
1550.78776	29122.5
1554.14038	28779.4
1557.49077	28579.5
1560.83892	28467.7
1564.18484	28430
1567.52853	28353.9
1570.86999	28509.2
1574.20922	28866.2
1577.54624	29205.9
1580.88103	29436.6
1584.2136	29714.9
1587.54395	30461.8
1590.87208	31684.7
1594.19801	33281.6
1597.52172	34972
1600.84321	35702
1604.16251	34742.8
1607.47959	32595.4
1610.79447	29973.8
1614.10715	27489.6
1617.41763	25494.8
1620.7259	24091
1624.03199	23305.6
1627.33587	23158.5
1630.63757	23633
1633.93707	24751.1
1637.23439	26635.5
1640.52951	29304.3
1643.82246	32365.8
1647.11321	34761.2
1650.40179	35326.9
1653.68819	33443.9
1656.97241	29842.6
1660.25446	26032.7
1663.53433	23267.9
1666.81203	21365
1670.08756	20173.3
1673.36092	19449.3
1676.63211	18962.2
1679.90115	18607
1683.16801	18364.9
1686.43272	18137.3
1689.69527	18033.2
1692.95567	17898.7
1696.2139	17852.8
1699.46999	17809.7
1702.72392	17709.7
1705.97571	17651.9
1709.22535	17555.7
1712.47284	17552.1
1715.71819	17499
1718.96139	17451
1722.20246	17415.5
1725.44139	17318.1
1728.67818	17270.3
1731.91284	17173.7
1735.14537	17064.2
1738.37576	17023.4
1741.60403	16973.4
1744.83017	16949
1748.05418	16934.1
1751.27607	16879.5
1754.49584	16842.6
1757.71349	16863
1760.92903	16849.8
1764.14244	16795.1
1767.35375	16808.9
1770.56294	16748.9
1773.77002	16715.1
1776.97499	16703.1
1780.17785	16647.5
1783.37861	16634.7
1786.57727	16557.9
1789.77382	16552.1
1792.96828	16538.8
1796.16064	16486.6
1799.3509	16445.8
1802.53907	16427.3
1805.72514	16377
1808.90913	16352.3
1812.09102	16305.6
1815.27083	16262.6
1818.44856	16227.3
1821.6242	16191.1
1824.79776	16176.8
1827.96924	16154.9
1831.13864	16125
1834.30597	16156.1
1837.47122	16104.5
1840.6344	16070.9
1843.7955	16066.4
1846.95454	16048.2
1850.11151	16045.4
1853.26642	16039.1
1856.41926	15999.6
1859.57004	15999.3
1862.71876	16027
1865.86542	16017.9
1869.01003	15981.3
1872.15258	15974.1
1875.29308	15977.6
1878.43152	15965.3
1881.56792	15943.6
1884.70227	15950.2
1887.83457	15920.7
1890.96482	15876
1894.09304	15836.5
1897.21921	15837.2
1900.34335	15838.7
1903.46544	15855.9
1906.58551	15833.1
1909.70353	15810.6
1912.81953	15760.6
1915.93349	15757.1
1919.04543	15729.2
1922.15534	15705.7
1925.26322	15642.7
1928.36908	15599.4
1931.47292	15576.9
1934.57473	15584.4
1937.67453	15537.4
1940.77232	15494.7
1943.86808	15452.6
1946.96184	15366.8
1950.05358	15350.7
1953.14331	15293.2
1956.23103	15235.9
1959.31675	15185.6
1962.40046	15143.8
1965.48217	15100.8
1968.56188	15045.3
1971.63959	15002.2
1974.7153	14946.6
1977.78901	14939.1
1980.86073	14869.3
1983.93046	14820.5
1986.99819	14792
1990.06394	14766.2
1993.1277	14709.6
1996.18947	14645.7
1999.24925	14612.4
2002.30706	14540.5
2005.36288	14545.6
2008.41672	14498.8
2011.46859	14450
2014.51848	14425.3
2017.56639	14380.8
2020.61233	14355.2
2023.6563	14303.8
2026.6983	14286.5
2029.73833	14243.6
2032.7764	14217.1
2035.8125	14171.2
2038.84664	14123.4
2041.87881	14103.4
2044.90903	14055.2
2047.93729	14048.4
2050.96359	14041.3
2053.98794	14005.8
2057.01034	13975.3
2060.03078	13985.9
2063.04927	13973.3
2066.06582	13953.3
2069.08042	13969.7
2072.09307	13959.6
2075.10378	13955.9
2078.11255	13904.3
2081.11938	13956
2084.12426	13936.4
2087.12722	13900.9
2090.12824	13880.7
2093.12732	13901.6
2096.12447	13888.9
2099.11969	13864.6
2102.11299	13857
2105.10435	13868.5
2108.09379	13865.7
2111.08131	13868.6
2114.0669	13868.3
2117.05057	13865.4
2120.03233	13891.6
2123.01216	13891.5
2125.99008	13921.2
2128.96609	13940.7
2131.94018	13916.1
2134.91236	13957.6
2137.88263	13939.7
2140.851	13905.5
2143.81746	13960.7
2146.78201	13950.4
2149.74466	13979.2
2152.7054	13961
2155.66425	13953
2158.6212	13911.6
2161.57625	13914.4
2164.52941	13925.3
2167.48067	13886.4
2170.43004	13924.4
2173.37752	13909.1
2176.32311	13905.3
2179.26681	13890.8
2182.20863	13867.6
2185.14856	13889.8
2188.08661	13864.7
2191.02278	13883
2193.95707	13894.2
2196.88948	13869.3
2199.82001	13860
2202.74867	13825.2
2205.67545	13803.8
2208.60037	13809.1
2211.52341	13775.5
2214.44458	13761
2217.36388	13754
2220.28132	13702.2
2223.1969	13647.3
2226.11061	13638
2229.02246	13631.7
2231.93245	13588.1
2234.84058	13560.9
2237.74686	13534.6
2240.65128	13535.7
2243.55385	13471.7
2246.45456	13453.9
2249.35343	13440.3
2252.25044	13441.4
2255.14561	13412.7
2258.03893	13395.7
2260.93041	13363.9
2263.82004	13337.7
2266.70783	13287.5
2269.59378	13226.2
2272.4779	13205
2275.36017	13149.5
2278.24061	13162.1
2281.11922	13102.7
2283.996	13126.6
2286.87094	13140.5
2289.74405	13086.8
2292.61534	13078.7
2295.4848	13073.1
2298.35243	13058.3
2301.21824	13022.4
2304.08223	13036.1
2306.94439	13052.6
2309.80474	13042.7
2312.66327	13039.4
2315.51999	13005.5
2318.37489	13001.3
2321.22797	12998.9
2324.07925	12974.8
2326.92871	12926.2
2329.77637	12919.7
2332.62222	12888.4
2335.46626	12887.8
2338.3085	12865.6
2341.14893	12868.6
2343.98756	12885
2346.8244	12862.6
2349.65943	12858
2352.49267	12855.3
2355.32411	12844.2
2358.15376	12814.7
2360.98161	12815.3
2363.80768	12809
2366.63195	12796.6
2369.45444	12776.3
2372.27514	12722.6
2375.09405	12748.7
2377.91118	12731.8
2380.72652	12685.8
2383.54009	12654
2386.35187	12634.5
2389.16188	12577.1
2391.97011	12578.6
2394.77657	12542.4
2397.58125	12517.4
2400.38416	12552.1
2403.18529	12510.4
2405.98466	12486.7
2408.78226	12440.8
2411.57809	12421.4
2414.37216	12411
2417.16446	12400.8
2419.955	12342.9
2422.74378	12365.6
2425.5308	12322.7
2428.31606	12355.6
2431.09956	12335.9
2433.88131	12305.6
2436.6613	12309.4
2439.43954	12299.4
2442.21603	12254.6
2444.99077	12266
2447.76377	12256.3
2450.53501	12252.8
2453.30451	12260.8
2456.07226	12229.4
2458.83827	12221.1
2461.60254	12249
2464.36507	12192.9
2467.12586	12189.2
2469.88492	12187.5
2472.64224	12194.9
2475.39782	12169.9
2478.15167	12190.8
2480.90379	12183.6
2483.65417	12203.6
2486.40283	12206.5
2489.14976	12193.5
2491.89497	12195.4
2494.63845	12197
2497.3802	12192.1
2500.12024	12165.2
2502.85855	12152
2505.59514	12197.8
2508.33002	12156.2
2511.06318	12115.4
2513.79462	12115.1
2516.52435	12083.2
2519.25237	12091.1
2521.97867	12077.1
2524.70327	12057.8
2527.42616	12062.5
2530.14734	12021.6
2532.86681	12044.7
2535.58458	12052
2538.30065	12037.2
2541.01501	12027
2543.72768	11997.4
2546.43864	11984.6
2549.14791	11955.7
2551.85548	11957.6
2554.56136	11922.6
2557.26554	11897.9
2559.96803	11857.3
2562.66883	11873.3
2565.36794	11832.8
2568.06536	11805.3
2570.7611	11794.9
2573.45514	11785.7
2576.14751	11781.2
2578.83819	11733
2581.52719	11745.9
2584.21451	11731.4
2586.90015	11722.1
2589.58411	11699.2
2592.2664	11728.6
2594.94701	11685.3
2597.62594	11690.6
2600.30321	11647.3
2602.9788	11639.8
2605.65273	11650.1
2608.32498	11627.2
2610.99557	11624.7
2613.66449	11646.6
2616.33175	11628
2618.99734	11623
2621.66128	11622.8
2624.32355	11601.4
2626.98416	11595
2629.64311	11601.5
2632.30041	11570.3
2634.95605	11567.5
2637.61004	11533.5
2640.26238	11541
2642.91306	11523.6
2645.56209	11518
2648.20948	11516
2650.85521	11506.1
2653.4993	11504.1
2656.14175	11518.3
2658.78255	11535.5
2661.42171	11504.7
2664.05923	11528.3
2666.6951	11534.1
2669.32934	11546.3
2671.96194	11516.8
2674.59291	11520
2677.22224	11522.8
2679.84993	11521.7
2682.476	11497.7
2685.10043	11472.8
2687.72324	11477.5
2690.34441	11520.3
2692.96396	11483.1
2695.58188	11480.8
2698.19818	11469.1
2700.81285	11488.2
2703.4259	11467.5
2706.03733	11496.8
2708.64714	11481.1
2711.25533	11494.9
2713.86191	11479
2716.46687	11469.1
2719.07021	11480.3
2721.67194	11524.4
2724.27206	11497.5
2726.87057	11503.6
2729.46747	11500.7
2732.06276	11509.5
2734.65644	11527.9
2737.24852	11549.9
2739.83899	11499.6
2742.42786	11511.3
2745.01513	11473.8
2747.60079	11486.9
2750.18486	11455.3
2752.76733	11443.6
2755.3482	11443.9
2757.92747	11443.2
2760.50515	11422.5
2763.08123	11411.2
2765.65573	11397.6
2768.22863	11398
2770.79994	11397.5
2773.36967	11365
2775.9378	11358.4
2778.50435	11370
2781.06932	11368.6
2783.6327	11373
2786.1945	11351.1
2788.75471	11356.2
2791.31335	11333.1
2793.87041	11314.6
2796.42589	11304.6
2798.97979	11291.5
2801.53212	11267
2804.08288	11247.1
2806.63206	11215.5
2809.17967	11178
2811.72571	11166.7
2814.27018	11155.1
2816.81308	11125.5
2819.35442	11112.6
2821.89419	11076.9
2824.43239	11099
2826.96904	11054.9
2829.50412	11061.7
2832.03763	11039.5
2834.56959	11016.2
2837.1	11031.2
2839.62884	11030
2842.15613	11010.9
2844.68186	11037.1
2847.20604	11065.9
2849.72867	11090.8
2852.24974	11084.3
2854.76927	11050.6
2857.28724	11040
2859.80367	10997.8
2862.31855	10990.4
2864.83189	10998.2
2867.34368	10939.1
2869.85393	10938.5
2872.36264	10916.1
2874.8698	10944.6
2877.37543	10940.9
2879.87952	10938.5
2882.38207	10936.2
2884.88308	10917.5
2887.38256	10938.1
2889.88051	10937.3
2892.37692	10945.3
2894.8718	10924.8
2897.36515	10974.8
2899.85698	10965.1
2902.34727	10987.2
2904.83604	11004.4
2907.32328	11029
2909.809	11005.6
2912.29319	11004.7
2914.77587	10989
2917.25702	11002.7
2919.73665	10982.2
2922.21476	11004.7
2924.69136	10974.5
2927.16644	10967.8
2929.64	10974.6
2932.11205	10963.1
2934.58258	10938.3
2937.05161	10942.3
2939.51912	10954.3
2941.98513	10926
2944.44962	10919.8
2946.91261	10868.5
2949.37409	10874.9
2951.83407	10838.6
2954.29254	10851.1
2956.74951	10821.5
2959.20498	10816.5
2961.65895	10804.5
2964.11142	10797.6
2966.56239	10776.1
2969.01186	10775.6
2971.45984	10726.6
2973.90632	10718.1
2976.35131	10701.1
2978.7948	10642.3
2981.23681	10648.5
2983.67732	10606.5
2986.11635	10576.9
2988.55388	10558.1
2990.98993	10530
2993.4245	10487
2995.85758	10476.3
2998.28917	10440.3
3000.71928	10437.4
3003.14791	10392.7
3005.57506	10396.9
3008.00073	10361.2
3010.42493	10354.9
3012.84764	10311.4
3015.26888	10278.2
3017.68865	10270
3020.10694	10270.7
3022.52376	10260.5
3024.9391	10232.9
3027.35298	10233.1
3029.76539	10205.6
3032.17632	10226.4
3034.5858	10207
3036.9938	10199.9
3039.40034	10221.6
3041.80542	10193.8
3044.20903	10168.3
3046.61118	10166
3049.01187	10148.2
3051.4111	10161.4
3053.80888	10121.4
3056.20519	10075.6
3058.60005	10065.6
3060.99345	10034.6
3063.3854	10031.5
3065.7759	9976.4
3068.16494	9989
3070.55254	9969.4
3072.93868	9955.8
3075.32338	9892.8
3077.70662	9851
3080.08842	9879
3082.46878	9842.5
3084.84769	9828.7
3087.22515	9815.1
3089.60118	9819.6
3091.97576	9823.1
3094.3489	9798.7
3096.72061	9808.3
3099.09087	9798.8
3101.4597	9758.9
3103.82709	9778.1
3106.19305	9758.4
3108.55757	9778
3110.92066	9742.5
3113.28232	9732.1
3115.64255	9691.3
3118.00134	9700.9
3120.35871	9673.2
3122.71466	9692.2
3125.06917	9639.8
3127.42226	9624.9
3129.77393	9617.4
3132.12417	9592.3
3134.47299	9576.2
3136.82039	9571
3139.16636	9567.4
3141.51092	9565.2
3143.85406	9568.9
3146.19579	9601.7
3148.53609	9584.3
3150.87499	9550.1
3153.21246	9565.6
3155.54853	9592.3
3157.88318	9558.9
3160.21642	9585.8
3162.54826	9555.6
3164.87868	9559.2
3167.2077	9576.8
3169.5353	9577.2
3171.86151	9577.8
3174.18631	9590.9
3176.5097	9574.2
3178.83169	9571.9
3181.15228	9570.9
3183.47147	9549.5
3185.78926	9519.3
3188.10565	9536.8
3190.42065	9497.4
3192.73424	9522.4
3195.04645	9504.4
3197.35725	9501.2
3199.66667	9516.8
3201.97469	9508.4
3204.28132	9496.4
3206.58656	9515.1
3208.8904	9501.6
3211.19287	9478.2
3213.49394	9480.7
3215.79363	9499.5
3218.09193	9502.4
3220.38884	9502.2
3222.68438	9507.6
3224.97853	9478
3227.2713	9457.1
3229.56269	9459.5
3231.8527	9451.1
3234.14133	9439.6
3236.42858	9431.4
3238.71446	9427.5
3240.99896	9389.5
3243.28209	9397.9
3245.56384	9375.9
3247.84423	9370.8
3250.12324	9384.1
3252.40088	9360.5
3254.67715	9314.2
3256.95205	9334
3259.22558	9309
3261.49775	9302.3
3263.76855	9265.7
3266.03799	9299.4
3268.30606	9269
3270.57277	9245.3
3272.83812	9223.1
3275.10211	9222.6
3277.36474	9182.7
3279.62601	9206
3281.88593	9159.1
3284.14448	9144.4
3286.40168	9163
3288.65753	9170.8
3290.91202	9157.8
3293.16516	9152.2
3295.41695	9110.8
3297.66738	9059.5
3299.91647	9027.8
3302.16421	8972.1
3304.4106	8901.2
3306.65564	8862.6
3308.89933	8766.5
3311.14169	8710.9
3313.38269	8647.7
3315.62236	8586.9
3317.86068	8511.8
3320.09766	8468.5
3322.3333	8398.6
3324.5676	8354.6
3326.80056	8222.7
3329.03219	8174.8
3331.26248	3.6
3333.49143	-0.5
3335.71905	-1.5
