Data from AgNP_FTO_APTES_UA_10uM_CRN_0uM_R6G_10uM_NaF_0.1M_Addition_RamanShift__11__12-21-10-448.txt Node

Date: Thu Feb 10 12:21:10 GMT 2022
User: TCL
Spectrometer: QEP01345
Trigger mode: 4
Integration Time (sec): 7.000000E0
Scans to average: 10
Electric dark correction enabled: true
Nonlinearity correction enabled: false
Boxcar width: 0
XAxis mode: Raman Shifts
Number of Pixels in Spectrum: 1044
>>>>>Begin Spectral Data<<<<<
46.04893	0.2
50.45542	-0.3
54.85868	-1.5
59.25871	-0.4
63.6555	55.9
68.04907	57.5
72.43941	62.8
76.82654	62.1
81.21044	66.4
85.59113	63
89.96862	70.9
94.34289	72.6
98.71396	73.4
103.08183	79.4
107.4465	79.3
111.80798	79.6
116.16626	84.2
120.52136	88.9
124.87327	90.2
129.222	95.7
133.56755	100.2
137.90993	112.7
142.24913	115
146.58517	132.1
150.91804	154.7
155.24774	187.1
159.57429	235.2
163.89768	301.3
168.21792	400.4
172.53501	547.1
176.84895	765.7
181.15975	1081.2
185.46741	1513.9
189.77193	2088
194.07331	2811
198.37157	3644.8
202.6667	4491.7
206.9587	5382
211.24758	6242.4
215.53334	7089.6
219.81599	7994.4
224.09553	8983.9
228.37195	10080.4
232.64527	11291.1
236.91549	12588
241.18261	13904.4
245.44663	15077.3
249.70755	16128.3
253.96539	17054.6
258.22014	17863.3
262.4718	18430.3
266.72039	18810.2
270.96589	18988.1
275.20832	18943.6
279.44768	18731.8
283.68397	18397.1
287.91719	18131.5
292.14735	17977.9
296.37445	17901.8
300.59849	17904.7
304.81948	17946.8
309.03742	18037.9
313.25231	17955.4
317.46415	17705.3
321.67296	17258.6
325.87872	16904.7
330.08145	16740.7
334.28114	16682.3
338.47781	16801.8
342.67145	17005.2
346.86207	17298
351.04966	17691.8
355.23424	18079.8
359.4158	18394
363.59435	18652.1
367.76989	18817.6
371.94243	18839.7
376.11196	18775.8
380.27849	18776
384.44203	18826.5
388.60257	18931.8
392.76012	19065.7
396.91468	19358.3
401.06626	19671.4
405.21485	19887.8
409.36047	19706.5
413.50311	19340.3
417.64277	19108.2
421.77947	19068
425.9132	19162
430.04396	19303.6
434.17176	19359.6
438.2966	19379.6
442.41849	19543
446.53742	19884
450.6534	20182.5
454.76644	20367.2
458.87653	20425.9
462.98368	20372.7
467.08789	20274.1
471.18916	20059.5
475.2875	19826.4
479.38291	19649.2
483.4754	19556.9
487.56496	19468.1
491.6516	19370.1
495.73531	19204.3
499.81612	19132.9
503.89401	19238.4
507.96899	19334.1
512.04106	19409.3
516.11023	19420.9
520.1765	19323.2
524.23987	19177.7
528.30034	19057.4
532.35792	18888.7
536.41261	18696.4
540.46441	18498
544.51333	18452.2
548.55936	18634.5
552.60252	18914
556.64279	19277.8
560.6802	19495.1
564.71473	19634.6
568.7464	19912.2
572.7752	20362.3
576.80114	20852.9
580.82422	21408.4
584.84444	22028.8
588.86181	22848.6
592.87633	23620
596.888	23751.3
600.89682	22994.5
604.9028	22714.7
608.90594	24265.7
612.90624	26455.7
616.90371	25262
620.89834	21348.5
624.89015	19484.4
628.87913	19193
632.86528	19396.7
636.84862	19467.4
640.82913	19179.1
644.80683	18672.8
648.78172	18295.7
652.75379	18260.4
656.72306	18477.8
660.68952	18787.3
664.65319	18761.7
668.61405	18372.1
672.57211	18282.9
676.52738	18316.2
680.47986	18285.5
684.42955	18173.3
688.37646	18029.6
692.32058	18103.8
696.26192	18253.7
700.20048	18471
704.13626	18654.3
708.06928	18741.8
711.99952	18711.7
715.927	18648.9
719.85171	18588.8
723.77365	18498.2
727.69284	18260.2
731.60928	18036.5
735.52295	17952.8
739.43388	17942.8
743.34206	18005.9
747.24749	18091.5
751.15017	18241.8
755.05012	18491.2
758.94733	18955.3
762.8418	19833.9
766.73354	21276.3
770.62254	22659.6
774.50882	22993.6
778.39237	22176.3
782.27321	20878.2
786.15132	19679
790.02671	18817.4
793.89938	18385.8
797.76935	18144.6
801.6366	18008.6
805.50115	17933
809.36299	17818
813.22213	17719.7
817.07857	17654.2
820.93231	17596.5
824.78336	17585
828.63172	17557.5
832.47738	17537.9
836.32036	17460
840.16066	17459.3
843.99827	17437.5
847.8332	17429.6
851.66546	17465.7
855.49504	17530.8
859.32195	17515.9
863.1462	17507.5
866.96777	17456.7
870.78668	17439.7
874.60293	17504.9
878.41652	17553.7
882.22745	17607.3
886.03573	17654.5
889.84136	17710.6
893.64433	17691.5
897.44466	17754.3
901.24235	17774.8
905.0374	17748
908.8298	17734
912.61957	17716.6
916.40671	17822.3
920.19121	17989.4
923.97308	18167.7
927.75233	18259
931.52895	18163.3
935.30295	17884.4
939.07433	17521.4
942.84309	17226.8
946.60924	17049.9
950.37278	16984.6
954.13371	16931
957.89203	16916.7
961.64774	16874.1
965.40086	16837.4
969.15137	16775.2
972.89929	16709.1
976.64461	16630.7
980.38733	16584.1
984.12747	16577.4
987.86502	16604.6
991.59999	16677.3
995.33237	16793.9
999.06217	16929.1
1002.78939	17207.7
1006.51404	17544.6
1010.23611	17878.9
1013.95561	18104.6
1017.67255	18140.6
1021.38692	17972.2
1025.09872	17748
1028.80796	17489.5
1032.51465	17328.2
1036.21877	17305.9
1039.92035	17352.4
1043.61937	17399.3
1047.31584	17475.9
1051.00976	17541.4
1054.70114	17592.8
1058.38998	17673
1062.07627	17781.9
1065.76003	17941.1
1069.44126	18129.2
1073.11995	18481.2
1076.79611	18839.4
1080.46974	19022.1
1084.14085	19113.9
1087.80943	19343.3
1091.47549	19521.8
1095.13903	19507.2
1098.80005	19285
1102.45857	18897
1106.11456	18492.7
1109.76805	18245.1
1113.41903	18194.2
1117.06751	18274.6
1120.71348	18473.6
1124.35696	18700.2
1127.99793	19018.3
1131.63641	19128.6
1135.2724	19035.7
1138.90589	18877
1142.5369	18756.2
1146.16542	18773.3
1149.79145	18789.6
1153.415	18869.8
1157.03607	19048.6
1160.65467	19449.3
1164.27079	20098.6
1167.88443	21066.5
1171.49561	22181
1175.10432	23638.5
1178.71056	25418.9
1182.31434	27116.5
1185.91565	28067
1189.51451	28209.7
1193.11091	27721.2
1196.70485	26650
1200.29634	25390.3
1203.88538	24263.8
1207.47197	23540.9
1211.05612	23048.3
1214.63782	22585.4
1218.21708	22066.6
1221.79391	21605.2
1225.36829	21288.3
1228.94024	21146.7
1232.50976	21095.7
1236.07685	20986.5
1239.6415	20891.7
1243.20374	20806.5
1246.76355	20787.7
1250.32093	20895.7
1253.8759	21274
1257.42845	21791.6
1260.97859	22426
1264.52631	23144.7
1268.07163	23856.4
1271.61453	24505.1
1275.15503	25062.4
1278.69312	25662.9
1282.22882	26243.9
1285.76211	26990.9
1289.29301	27753.9
1292.82151	28582.6
1296.34761	29619.9
1299.87133	30831.3
1303.39266	32258.1
1306.9116	33644.6
1310.42815	35059.9
1313.94233	35831.1
1317.45412	35581.2
1320.96354	34935.1
1324.47058	34329.9
1327.97525	33983.4
1331.47754	33632.9
1334.97747	33397.3
1338.47502	33253.8
1341.97022	33229.2
1345.46305	33354.2
1348.95352	33614.2
1352.44163	33951.3
1355.92738	34422.8
1359.41078	35499.6
1362.89183	36556.1
1366.37053	36238.1
1369.84688	33641.5
1373.32088	30088
1376.79254	27479.4
1380.26186	26263.3
1383.72883	25720.3
1387.19347	25238.3
1390.65578	24740
1394.11575	24508.8
1397.57339	24591.7
1401.0287	24814.2
1404.48168	24947.8
1407.93234	24819.9
1411.38068	24437.8
1414.82669	23869.8
1418.27039	23221.6
1421.71177	22674.8
1425.15083	22182.1
1428.58758	21941.7
1432.02203	22105.7
1435.45416	22464.7
1438.88399	22857.7
1442.31151	23079
1445.73673	23271.7
1449.15965	23497.8
1452.58027	23638.8
1455.9986	23735.6
1459.41463	23950.4
1462.82837	24362.3
1466.23982	24759.3
1469.64898	25132.6
1473.05586	25260.8
1476.46045	25327.6
1479.86276	25317.1
1483.26279	25404.5
1486.66054	25582.2
1490.05602	25930.5
1493.44922	26637
1496.84016	27640.2
1500.22882	28859.5
1503.61521	30186.7
1506.99934	31592
1510.38121	32562.4
1513.76081	32607.3
1517.13816	31673.3
1520.51324	30132.9
1523.88607	28705.1
1527.25665	27772.3
1530.62498	27164.3
1533.99105	26657.7
1537.35488	26063.2
1540.71647	25377
1544.07581	24697.5
1547.4329	24124.9
1550.78776	23691.2
1554.14038	23399.5
1557.49077	23360.7
1560.83892	23512.8
1564.18484	23692.9
1567.52853	23944.2
1570.86999	24198.8
1574.20922	24530.1
1577.54624	24737.5
1580.88103	24515.8
1584.2136	24278
1587.54395	24409.6
1590.87208	25068.4
1594.19801	26125.7
1597.52172	27220.9
1600.84321	27394.6
1604.16251	26376
1607.47959	24882.9
1610.79447	23251.1
1614.10715	21593.9
1617.41763	20229.3
1620.7259	19269.1
1624.03199	18769.5
1627.33587	18771.1
1630.63757	19223.8
1633.93707	20306.9
1637.23439	22194
1640.52951	24940.3
1643.82246	28284.8
1647.11321	31069.3
1650.40179	31759
1653.68819	29923.9
1656.97241	26277.5
1660.25446	22461
1663.53433	19742.9
1666.81203	17941.9
1670.08756	16885.9
1673.36092	16241.2
1676.63211	15849.2
1679.90115	15548.8
1683.16801	15330.5
1686.43272	15159.2
1689.69527	15005
1692.95567	14914
1696.2139	14859.3
1699.46999	14809.7
1702.72392	14743.1
1705.97571	14718.6
1709.22535	14709.4
1712.47284	14675
1715.71819	14637.1
1718.96139	14580.1
1722.20246	14566
1725.44139	14465.6
1728.67818	14417.4
1731.91284	14290.8
1735.14537	14227.4
1738.37576	14172.3
1741.60403	14149.1
1744.83017	14084.5
1748.05418	14033
1751.27607	13996.4
1754.49584	13964.8
1757.71349	13945.7
1760.92903	13910.9
1764.14244	13888.8
1767.35375	13922.3
1770.56294	13866.4
1773.77002	13823.2
1776.97499	13783.9
1780.17785	13775.8
1783.37861	13748.3
1786.57727	13726
1789.77382	13686.4
1792.96828	13646.6
1796.16064	13644
1799.3509	13595.4
1802.53907	13595.1
1805.72514	13542.3
1808.90913	13466
1812.09102	13469.3
1815.27083	13475.8
1818.44856	13435.1
1821.6242	13411
1824.79776	13382.4
1827.96924	13418.1
1831.13864	13420.2
1834.30597	13427.3
1837.47122	13434.4
1840.6344	13435.3
1843.7955	13437.9
1846.95454	13425.9
1850.11151	13431.5
1853.26642	13435.7
1856.41926	13460.4
1859.57004	13443.6
1862.71876	13427.4
1865.86542	13383.8
1869.01003	13356.3
1872.15258	13332.4
1875.29308	13295.5
1878.43152	13257.9
1881.56792	13221.1
1884.70227	13200.6
1887.83457	13194.2
1890.96482	13152.1
1894.09304	13092.3
1897.21921	13062.6
1900.34335	13056.8
1903.46544	12992.6
1906.58551	12991.1
1909.70353	12949
1912.81953	12940.7
1915.93349	12935
1919.04543	12877.3
1922.15534	12801.7
1925.26322	12792.7
1928.36908	12751.6
1931.47292	12708.5
1934.57473	12691.9
1937.67453	12633.1
1940.77232	12579.2
1943.86808	12527.2
1946.96184	12485.5
1950.05358	12446.7
1953.14331	12403.7
1956.23103	12368.8
1959.31675	12340.2
1962.40046	12289.8
1965.48217	12238.9
1968.56188	12192.6
1971.63959	12163.2
1974.7153	12117.4
1977.78901	12066.4
1980.86073	12023.8
1983.93046	11966.8
1986.99819	11976.4
1990.06394	11948.4
1993.1277	11880.8
1996.18947	11823.3
1999.24925	11796.2
2002.30706	11726
2005.36288	11729.1
2008.41672	11696.5
2011.46859	11629
2014.51848	11625.6
2017.56639	11583.6
2020.61233	11548.9
2023.6563	11519.2
2026.6983	11483.6
2029.73833	11424.3
2032.7764	11417.5
2035.8125	11375.1
2038.84664	11355
2041.87881	11335
2044.90903	11309.9
2047.93729	11266.8
2050.96359	11268.2
2053.98794	11268.2
2057.01034	11241.3
2060.03078	11208.6
2063.04927	11224.2
2066.06582	11228.6
2069.08042	11206.8
2072.09307	11214.6
2075.10378	11234.8
2078.11255	11189.1
2081.11938	11197.9
2084.12426	11171.4
2087.12722	11177.9
2090.12824	11176.3
2093.12732	11155.1
2096.12447	11180.5
2099.11969	11171.9
2102.11299	11162.6
2105.10435	11145.8
2108.09379	11146.1
2111.08131	11172.4
2114.0669	11146.7
2117.05057	11150.4
2120.03233	11154.8
2123.01216	11149
2125.99008	11189.7
2128.96609	11132.3
2131.94018	11157.3
2134.91236	11179.5
2137.88263	11153.9
2140.851	11171.7
2143.81746	11150.5
2146.78201	11130
2149.74466	11109.6
2152.7054	11103.5
2155.66425	11095.9
2158.6212	11114.9
2161.57625	11082.1
2164.52941	11078.4
2167.48067	11090.2
2170.43004	11087.6
2173.37752	11064.9
2176.32311	11053.5
2179.26681	11031.6
2182.20863	11042
2185.14856	11061.4
2188.08661	11021.2
2191.02278	11030
2193.95707	11025.2
2196.88948	10979.2
2199.82001	10992.7
2202.74867	10969.3
2205.67545	10924.3
2208.60037	10935.7
2211.52341	10910.1
2214.44458	10894.8
2217.36388	10856.2
2220.28132	10869.6
2223.1969	10795.5
2226.11061	10806.2
2229.02246	10774.1
2231.93245	10765.2
2234.84058	10734
2237.74686	10733.2
2240.65128	10724.7
2243.55385	10707.7
2246.45456	10696.7
2249.35343	10649
2252.25044	10634.9
2255.14561	10620.1
2258.03893	10583.9
2260.93041	10561
2263.82004	10555.5
2266.70783	10520.9
2269.59378	10470.7
2272.4779	10480.7
2275.36017	10409.8
2278.24061	10428.7
2281.11922	10384.8
2283.996	10383.2
2286.87094	10354.6
2289.74405	10335.1
2292.61534	10331.4
2295.4848	10282.4
2298.35243	10300.2
2301.21824	10271.7
2304.08223	10272.7
2306.94439	10244.7
2309.80474	10253.6
2312.66327	10247.1
2315.51999	10195.9
2318.37489	10196.3
2321.22797	10181.1
2324.07925	10169.8
2326.92871	10148.9
2329.77637	10139.3
2332.62222	10113.8
2335.46626	10083.8
2338.3085	10065.7
2341.14893	10095.5
2343.98756	10079.4
2346.8244	10075.6
2349.65943	10076.9
2352.49267	10066.7
2355.32411	10062
2358.15376	10073.8
2360.98161	10074.6
2363.80768	10078.6
2366.63195	10052.3
2369.45444	10024.8
2372.27514	10037.5
2375.09405	10023.6
2377.91118	9994
2380.72652	9956.2
2383.54009	9930.6
2386.35187	9916.2
2389.16188	9875.4
2391.97011	9852
2394.77657	9824.4
2397.58125	9783.1
2400.38416	9784.4
2403.18529	9779.8
2405.98466	9750
2408.78226	9751.5
2411.57809	9712
2414.37216	9697.4
2417.16446	9694.8
2419.955	9678.4
2422.74378	9706.4
2425.5308	9663.7
2428.31606	9682.1
2431.09956	9687.4
2433.88131	9671.5
2436.6613	9655.8
2439.43954	9662.1
2442.21603	9613.7
2444.99077	9626.8
2447.76377	9633.8
2450.53501	9597.1
2453.30451	9608.5
2456.07226	9597.8
2458.83827	9594
2461.60254	9594.6
2464.36507	9572
2467.12586	9578.5
2469.88492	9540.1
2472.64224	9544.4
2475.39782	9552.6
2478.15167	9539.3
2480.90379	9551
2483.65417	9567.1
2486.40283	9552.7
2489.14976	9540.2
2491.89497	9510.1
2494.63845	9521.4
2497.3802	9478.3
2500.12024	9488.6
2502.85855	9509.9
2505.59514	9482.9
2508.33002	9479.1
2511.06318	9447.8
2513.79462	9444.5
2516.52435	9421.5
2519.25237	9398.6
2521.97867	9389.5
2524.70327	9397
2527.42616	9354.4
2530.14734	9348.5
2532.86681	9347.7
2535.58458	9340.8
2538.30065	9319.9
2541.01501	9358.3
2543.72768	9318.1
2546.43864	9302
2549.14791	9264.2
2551.85548	9283.5
2554.56136	9270.5
2557.26554	9213.1
2559.96803	9220.3
2562.66883	9200.1
2565.36794	9187.4
2568.06536	9164.3
2570.7611	9162
2573.45514	9153.4
2576.14751	9121.2
2578.83819	9112.4
2581.52719	9096
2584.21451	9079.5
2586.90015	9079
2589.58411	9037.2
2592.2664	9021.3
2594.94701	9010.6
2597.62594	9011.5
2600.30321	9008
2602.9788	8984.2
2605.65273	8970.2
2608.32498	8982
2610.99557	8959
2613.66449	8967.6
2616.33175	8931.1
2618.99734	8924.6
2621.66128	8927.6
2624.32355	8918.6
2626.98416	8889.5
2629.64311	8871.4
2632.30041	8866.5
2634.95605	8839.1
2637.61004	8841.4
2640.26238	8841.6
2642.91306	8837.6
2645.56209	8815
2648.20948	8830.5
2650.85521	8832.6
2653.4993	8837.1
2656.14175	8814.8
2658.78255	8832.8
2661.42171	8820
2664.05923	8829.1
2666.6951	8832.1
2669.32934	8830.6
2671.96194	8841.8
2674.59291	8833.7
2677.22224	8826.9
2679.84993	8806.6
2682.476	8817.1
2685.10043	8822.4
2687.72324	8792.2
2690.34441	8806.9
2692.96396	8790.9
2695.58188	8786.3
2698.19818	8787.1
2700.81285	8774.8
2703.4259	8766.6
2706.03733	8763.9
2708.64714	8769.5
2711.25533	8784.7
2713.86191	8766.9
2716.46687	8756.2
2719.07021	8786.2
2721.67194	8816.7
2724.27206	8789.7
2726.87057	8809.8
2729.46747	8800.7
2732.06276	8807.7
2734.65644	8789
2737.24852	8793.2
2739.83899	8763.6
2742.42786	8776.8
2745.01513	8764.5
2747.60079	8731.2
2750.18486	8730.2
2752.76733	8713.2
2755.3482	8697.3
2757.92747	8689.3
2760.50515	8668.3
2763.08123	8670.1
2765.65573	8662.2
2768.22863	8642.9
2770.79994	8660.4
2773.36967	8645.6
2775.9378	8613.9
2778.50435	8599.5
2781.06932	8582.6
2783.6327	8575.4
2786.1945	8598.9
2788.75471	8603.2
2791.31335	8561.7
2793.87041	8553.1
2796.42589	8535.2
2798.97979	8531.5
2801.53212	8521.6
2804.08288	8506.7
2806.63206	8510.6
2809.17967	8455.2
2811.72571	8443.2
2814.27018	8447
2816.81308	8404.4
2819.35442	8415.6
2821.89419	8364
2824.43239	8378
2826.96904	8357.3
2829.50412	8370.9
2832.03763	8343.7
2834.56959	8348.9
2837.1	8324.9
2839.62884	8313.8
2842.15613	8344.5
2844.68186	8347.9
2847.20604	8332.1
2849.72867	8346.6
2852.24974	8358.3
2854.76927	8313.1
2857.28724	8293.4
2859.80367	8292.7
2862.31855	8277.7
2864.83189	8273.9
2867.34368	8259.9
2869.85393	8273.4
2872.36264	8264.7
2874.8698	8266.8
2877.37543	8237.8
2879.87952	8239.7
2882.38207	8244
2884.88308	8230.3
2887.38256	8233.6
2889.88051	8239.8
2892.37692	8242.2
2894.8718	8247.2
2897.36515	8243.7
2899.85698	8229.7
2902.34727	8241.4
2904.83604	8239.4
2907.32328	8253.6
2909.809	8241.7
2912.29319	8244.1
2914.77587	8234.4
2917.25702	8236.3
2919.73665	8228.8
2922.21476	8221.9
2924.69136	8227.2
2927.16644	8253
2929.64	8192.4
2932.11205	8175.4
2934.58258	8160.3
2937.05161	8164.4
2939.51912	8156.1
2941.98513	8141.9
2944.44962	8132.2
2946.91261	8111
2949.37409	8117.1
2951.83407	8088.2
2954.29254	8076.6
2956.74951	8072
2959.20498	8065
2961.65895	8076.6
2964.11142	8077.1
2966.56239	8059.9
2969.01186	8031.9
2971.45984	8001
2973.90632	8027.8
2976.35131	8016.4
2978.7948	7973.7
2981.23681	7949
2983.67732	7938.3
2986.11635	7920.2
2988.55388	7881.9
2990.98993	7875.4
2993.4245	7844.3
2995.85758	7834
2998.28917	7811.4
3000.71928	7809.4
3003.14791	7803.7
3005.57506	7787.2
3008.00073	7755.7
3010.42493	7754.7
3012.84764	7721.7
3015.26888	7702.4
3017.68865	7684.2
3020.10694	7664.3
3022.52376	7665.2
3024.9391	7679.9
3027.35298	7637.8
3029.76539	7649.1
3032.17632	7618.3
3034.5858	7636.8
3036.9938	7625.9
3039.40034	7608
3041.80542	7600.3
3044.20903	7576.3
3046.61118	7577.2
3049.01187	7550.2
3051.4111	7526
3053.80888	7513.2
3056.20519	7485
3058.60005	7489.7
3060.99345	7467
3063.3854	7451.5
3065.7759	7456.8
3068.16494	7424.9
3070.55254	7419.6
3072.93868	7399
3075.32338	7369.2
3077.70662	7363.4
3080.08842	7346.9
3082.46878	7349.9
3084.84769	7318.8
3087.22515	7304.9
3089.60118	7324.7
3091.97576	7302.5
3094.3489	7300.6
3096.72061	7318
3099.09087	7306.2
3101.4597	7300.4
3103.82709	7286.1
3106.19305	7282.2
3108.55757	7269.9
3110.92066	7250.1
3113.28232	7242.6
3115.64255	7231.3
3118.00134	7227
3120.35871	7219.1
3122.71466	7177.6
3125.06917	7166.2
3127.42226	7170.9
3129.77393	7171
3132.12417	7155.4
3134.47299	7152.2
3136.82039	7141.2
3139.16636	7146.2
3141.51092	7147.4
3143.85406	7144.5
3146.19579	7120.5
3148.53609	7133.7
3150.87499	7131.5
3153.21246	7139.1
3155.54853	7153.4
3157.88318	7143.1
3160.21642	7163.5
3162.54826	7148.1
3164.87868	7154.7
3167.2077	7177.7
3169.5353	7152
3171.86151	7148.5
3174.18631	7143.9
3176.5097	7136.9
3178.83169	7122.2
3181.15228	7104.4
3183.47147	7117.5
3185.78926	7108.2
3188.10565	7114.4
3190.42065	7107.3
3192.73424	7100.5
3195.04645	7103
3197.35725	7073.4
3199.66667	7057.4
3201.97469	7070
3204.28132	7069.6
3206.58656	7069
3208.8904	7078.4
3211.19287	7080.6
3213.49394	7088.3
3215.79363	7072.8
3218.09193	7091.7
3220.38884	7072.4
3222.68438	7068.1
3224.97853	7070.3
3227.2713	7074.4
3229.56269	7072.8
3231.8527	7062.7
3234.14133	7026.5
3236.42858	7001.4
3238.71446	7007.7
3240.99896	6979.3
3243.28209	6993.6
3245.56384	6963
3247.84423	6974.7
3250.12324	6972.7
3252.40088	6964.4
3254.67715	6936.8
3256.95205	6948.2
3259.22558	6927.8
3261.49775	6930.9
3263.76855	6919.9
3266.03799	6908.3
3268.30606	6887.7
3270.57277	6875.6
3272.83812	6854.7
3275.10211	6829.4
3277.36474	6822.9
3279.62601	6812.5
3281.88593	6805.9
3284.14448	6820.2
3286.40168	6811.7
3288.65753	6822.4
3290.91202	6797.3
3293.16516	6782.9
3295.41695	6780.8
3297.66738	6736.7
3299.91647	6730.2
3302.16421	6650
3304.4106	6590
3306.65564	6578.5
3308.89933	6530.6
3311.14169	6479.5
3313.38269	6427.8
3315.62236	6367.8
3317.86068	6326.8
3320.09766	6267.2
3322.3333	6233.7
3324.5676	6193.8
3326.80056	6079.5
3329.03219	6044.6
3331.26248	2.8
3333.49143	-0.4
3335.71905	-0.7
