Data from AgNP_FTO_APTES_UA_10uM_CRN_1uM_R6G_10uM_NaF_0.1M_Addition_RamanShift__23__13-19-30-525.txt Node

Date: Thu Feb 10 13:19:30 GMT 2022
User: TCL
Spectrometer: QEP01345
Trigger mode: 4
Integration Time (sec): 7.000000E0
Scans to average: 10
Electric dark correction enabled: true
Nonlinearity correction enabled: false
Boxcar width: 0
XAxis mode: Raman Shifts
Number of Pixels in Spectrum: 1044
>>>>>Begin Spectral Data<<<<<
46.04893	0.3875
50.45542	-0.4125
54.85868	-1.8125
59.25871	-1.0125
63.6555	81.1875
68.04907	80.7875
72.43941	83.5875
76.82654	84.4875
81.21044	95.3875
85.59113	94.5875
89.96862	97.6875
94.34289	100.3875
98.71396	103.0875
103.08183	108.2875
107.4465	111.9875
111.80798	109.2875
116.16626	113.4875
120.52136	119.1875
124.87327	125.4875
129.222	130.1875
133.56755	137.4875
137.90993	152.5875
142.24913	163.5875
146.58517	183.7875
150.91804	213.7875
155.24774	256.0875
159.57429	324.1875
163.89768	412.3875
168.21792	551.8875
172.53501	737.4875
176.84895	1044.4875
181.15975	1459.3875
185.46741	2051.3875
189.77193	2816.2875
194.07331	3775.3875
198.37157	4868.0875
202.6667	6019.2875
206.9587	7143.3875
211.24758	8268.1875
215.53334	9442.6875
219.81599	10675.1875
224.09553	12065.8875
228.37195	13577.4875
232.64527	15270.1875
236.91549	16976.7875
241.18261	18663.3875
245.44663	20151.5875
249.70755	21470.5875
253.96539	22586.1875
258.22014	23573.1875
262.4718	24457.2875
266.72039	25091.6875
270.96589	25511.9875
275.20832	25557.3875
279.44768	25390.1875
283.68397	25200.3875
287.91719	25016.8875
292.14735	24970.8875
296.37445	25121.4875
300.59849	25338.7875
304.81948	25705.5875
309.03742	25886.4875
313.25231	25626.9875
317.46415	24818.8875
321.67296	23700.7875
325.87872	22783.6875
330.08145	22359.3875
334.28114	22367.1875
338.47781	22629.9875
342.67145	23040.9875
346.86207	23610.4875
351.04966	24408.8875
355.23424	25254.3875
359.4158	25969.8875
363.59435	26392.6875
367.76989	26659.5875
371.94243	26729.2875
376.11196	26776.0875
380.27849	26809.9875
384.44203	26856.3875
388.60257	26837.8875
392.76012	26948.4875
396.91468	27322.2875
401.06626	27875.7875
405.21485	28301.5875
409.36047	28109.2875
413.50311	27423.8875
417.64277	26842.0875
421.77947	26650.0875
425.9132	26610.0875
430.04396	26774.1875
434.17176	26945.8875
438.2966	27246.5875
442.41849	27842.7875
446.53742	28701.5875
450.6534	29711.3875
454.76644	30422.3875
458.87653	30693.9875
462.98368	30423.5875
467.08789	29918.6875
471.18916	29271.8875
475.2875	28634.8875
479.38291	28255.6875
483.4754	27958.8875
487.56496	27618.5875
491.6516	27130.2875
495.73531	26777.4875
499.81612	26611.7875
503.89401	26723.4875
507.96899	26831.9875
512.04106	26812.5875
516.11023	26857.6875
520.1765	26806.9875
524.23987	26639.4875
528.30034	26323.5875
532.35792	25953.3875
536.41261	25517.1875
540.46441	25067.1875
544.51333	24975.2875
548.55936	25278.0875
552.60252	25859.5875
556.64279	26537.4875
560.6802	26910.1875
564.71473	27206.5875
568.7464	27895.0875
572.7752	28651.5875
576.80114	28811.0875
580.82422	28879.3875
584.84444	29108.2875
588.86181	29467.0875
592.87633	29984.8875
596.888	30425.0875
600.89682	30704.5875
604.9028	32261.4875
608.90594	36805.6875
612.90624	42172.8875
616.90371	39840.9875
620.89834	31390.6875
624.89015	27710.2875
628.87913	27211.1875
632.86528	27104.3875
636.84862	26791.9875
640.82913	26122.1875
644.80683	25243.4875
648.78172	24545.2875
652.75379	24440.9875
656.72306	24972.8875
660.68952	25779.5875
664.65319	25732.0875
668.61405	24997.8875
672.57211	24673.1875
676.52738	24642.7875
680.47986	24650.9875
684.42955	24545.6875
688.37646	24561.9875
692.32058	24683.2875
696.26192	24967.5875
700.20048	25317.5875
704.13626	25455.6875
708.06928	25327.1875
711.99952	25005.3875
715.927	24901.5875
719.85171	24960.6875
723.77365	24864.1875
727.69284	24556.7875
731.60928	24274.3875
735.52295	24281.1875
739.43388	24335.3875
743.34206	24494.1875
747.24749	24644.0875
751.15017	24904.6875
755.05012	25394.4875
758.94733	26336.2875
762.8418	28143.2875
766.73354	31148.0875
770.62254	34046.3875
774.50882	35071.3875
778.39237	33324.8875
782.27321	30054.5875
786.15132	27318.1875
790.02671	25646.1875
793.89938	24927.5875
797.76935	24624.5875
801.6366	24526.3875
805.50115	24445.4875
809.36299	24241.6875
813.22213	24070.1875
817.07857	23984.1875
820.93231	23961.1875
824.78336	23950.7875
828.63172	23954.1875
832.47738	24049.5875
836.32036	24115.5875
840.16066	24252.9875
843.99827	24353.0875
847.8332	24277.3875
851.66546	24065.6875
855.49504	23985.8875
859.32195	23918.6875
863.1462	23798.2875
866.96777	23622.6875
870.78668	23492.3875
874.60293	23535.7875
878.41652	23500.7875
882.22745	23638.9875
886.03573	23750.4875
889.84136	23658.0875
893.64433	23560.6875
897.44466	23482.2875
901.24235	23432.6875
905.0374	23345.0875
908.8298	23325.5875
912.61957	23302.1875
916.40671	23546.0875
920.19121	23959.1875
923.97308	24391.5875
927.75233	24688.9875
931.52895	24693.2875
935.30295	24392.1875
939.07433	23755.0875
942.84309	23247.7875
946.60924	23091.3875
950.37278	22935.5875
954.13371	22813.6875
957.89203	22598.8875
961.64774	22473.0875
965.40086	22421.7875
969.15137	22295.1875
972.89929	22234.5875
976.64461	22167.0875
980.38733	22215.6875
984.12747	22377.9875
987.86502	22691.0875
991.59999	23165.3875
995.33237	23909.4875
999.06217	25031.7875
1002.78939	26344.5875
1006.51404	27169.9875
1010.23611	27456.8875
1013.95561	27691.4875
1017.67255	27611.4875
1021.38692	27189.6875
1025.09872	26925.3875
1028.80796	27520.9875
1032.51465	28947.2875
1036.21877	30113.3875
1039.92035	30248.3875
1043.61937	29552.9875
1047.31584	28211.9875
1051.00976	26825.9875
1054.70114	26055.2875
1058.38998	25779.5875
1062.07627	25761.2875
1065.76003	25740.4875
1069.44126	25789.0875
1073.11995	26134.2875
1076.79611	26416.0875
1080.46974	26714.2875
1084.14085	27112.5875
1087.80943	27618.9875
1091.47549	27795.9875
1095.13903	27519.0875
1098.80005	26857.9875
1102.45857	26226.4875
1106.11456	25898.8875
1109.76805	25917.9875
1113.41903	26131.4875
1117.06751	26535.2875
1120.71348	27019.7875
1124.35696	27505.9875
1127.99793	28018.0875
1131.63641	28092.0875
1135.2724	27727.4875
1138.90589	27169.6875
1142.5369	26793.2875
1146.16542	26633.3875
1149.79145	26620.7875
1153.415	26728.8875
1157.03607	27092.9875
1160.65467	27710.6875
1164.27079	28834.4875
1167.88443	30497.3875
1171.49561	32911.1875
1175.10432	36266.6875
1178.71056	40561.7875
1182.31434	44386.0875
1185.91565	46478.2875
1189.51451	46283.2875
1193.11091	44223.9875
1196.70485	41332.5875
1200.29634	38846.8875
1203.88538	36891.1875
1207.47197	35376.6875
1211.05612	34204.9875
1214.63782	33509.1875
1218.21708	33379.0875
1221.79391	33573.3875
1225.36829	33865.2875
1228.94024	33609.8875
1232.50976	33048.8875
1236.07685	32522.0875
1239.6415	32148.0875
1243.20374	31998.4875
1246.76355	32100.2875
1250.32093	32633.3875
1253.8759	33578.0875
1257.42845	34873.4875
1260.97859	36034.7875
1264.52631	37042.2875
1268.07163	38232.5875
1271.61453	39560.7875
1275.15503	41019.9875
1278.69312	42509.5875
1282.22882	43631.7875
1285.76211	44579.3875
1289.29301	45485.1875
1292.82151	46677.7875
1296.34761	48385.4875
1299.87133	50884.3875
1303.39266	54536.5875
1306.9116	59265.7875
1310.42815	64290.9875
1313.94233	67598.8875
1317.45412	67534.2875
1320.96354	65225.8875
1324.47058	62320.5875
1327.97525	59731.5875
1331.47754	57995.0875
1334.97747	57389.7875
1338.47502	57464.9875
1341.97022	57649.9875
1345.46305	57343.1875
1348.95352	56811.3875
1352.44163	56794.3875
1355.92738	58454.1875
1359.41078	62529.8875
1362.89183	66603.3875
1366.37053	65305.3875
1369.84688	58332.6875
1373.32088	50812.8875
1376.79254	45804.1875
1380.26186	43533.1875
1383.72883	42680.3875
1387.19347	42112.3875
1390.65578	41490.9875
1394.11575	41379.6875
1397.57339	41967.9875
1401.0287	42971.1875
1404.48168	44151.6875
1407.93234	45002.5875
1411.38068	45242.5875
1414.82669	44562.4875
1418.27039	43017.3875
1421.71177	41147.4875
1425.15083	39610.8875
1428.58758	38702.7875
1432.02203	38638.9875
1435.45416	39194.7875
1438.88399	39834.3875
1442.31151	40384.3875
1445.73673	40952.4875
1449.15965	41501.1875
1452.58027	41740.6875
1455.9986	41825.6875
1459.41463	41987.3875
1462.82837	42564.9875
1466.23982	43515.0875
1469.64898	44459.4875
1473.05586	45040.7875
1476.46045	45162.7875
1479.86276	45171.2875
1483.26279	45094.9875
1486.66054	45279.8875
1490.05602	45709.9875
1493.44922	46356.7875
1496.84016	46999.1875
1500.22882	48020.0875
1503.61521	49766.8875
1506.99934	52250.1875
1510.38121	54894.6875
1513.76081	56073.6875
1517.13816	54572.1875
1520.51324	51207.9875
1523.88607	47788.3875
1527.25665	45400.9875
1530.62498	43979.8875
1533.99105	43107.7875
1537.35488	42667.4875
1540.71647	42264.1875
1544.07581	41810.6875
1547.4329	41405.1875
1550.78776	40848.3875
1554.14038	40458.8875
1557.49077	40370.1875
1560.83892	40386.9875
1564.18484	40457.7875
1567.52853	40459.4875
1570.86999	40527.2875
1574.20922	40773.2875
1577.54624	40916.3875
1580.88103	40599.2875
1584.2136	40428.1875
1587.54395	41408.4875
1590.87208	43816.4875
1594.19801	47364.9875
1597.52172	51059.0875
1600.84321	52460.7875
1604.16251	50284.3875
1607.47959	45911.1875
1610.79447	41305.4875
1614.10715	37136.3875
1617.41763	33919.0875
1620.7259	31907.0875
1624.03199	30971.0875
1627.33587	31140.1875
1630.63757	32294.0875
1633.93707	34574.1875
1637.23439	37837.5875
1640.52951	42052.1875
1643.82246	46541.3875
1647.11321	50037.1875
1650.40179	50784.9875
1653.68819	47525.7875
1656.97241	41255.8875
1660.25446	34838.0875
1663.53433	30259.7875
1666.81203	27313.0875
1670.08756	25495.0875
1673.36092	24438.4875
1676.63211	23664.2875
1679.90115	23169.2875
1683.16801	22810.4875
1686.43272	22546.9875
1689.69527	22346.4875
1692.95567	22182.1875
1696.2139	22091.6875
1699.46999	22016.8875
1702.72392	21992.0875
1705.97571	21932.5875
1709.22535	21887.1875
1712.47284	21834.7875
1715.71819	21781.3875
1718.96139	21767.4875
1722.20246	21661.0875
1725.44139	21544.1875
1728.67818	21416.5875
1731.91284	21256.0875
1735.14537	21147.5875
1738.37576	21087.5875
1741.60403	21056.4875
1744.83017	20935.0875
1748.05418	20885.6875
1751.27607	20794.7875
1754.49584	20820.9875
1757.71349	20787.4875
1760.92903	20773.9875
1764.14244	20770.3875
1767.35375	20770.5875
1770.56294	20709.7875
1773.77002	20668.2875
1776.97499	20610.6875
1780.17785	20606.8875
1783.37861	20531.2875
1786.57727	20543.0875
1789.77382	20554.5875
1792.96828	20458.5875
1796.16064	20442.9875
1799.3509	20442.8875
1802.53907	20397.5875
1805.72514	20364.3875
1808.90913	20313.1875
1812.09102	20257.3875
1815.27083	20214.5875
1818.44856	20182.4875
1821.6242	20169.6875
1824.79776	20136.6875
1827.96924	20118.7875
1831.13864	20131.7875
1834.30597	20157.7875
1837.47122	20147.3875
1840.6344	20180.9875
1843.7955	20145.6875
1846.95454	20166.9875
1850.11151	20166.1875
1853.26642	20140.9875
1856.41926	20193.6875
1859.57004	20255.8875
1862.71876	20219.8875
1865.86542	20242.5875
1869.01003	20255.2875
1872.15258	20248.7875
1875.29308	20286.6875
1878.43152	20271.0875
1881.56792	20301.5875
1884.70227	20317.7875
1887.83457	20332.2875
1890.96482	20329.8875
1894.09304	20327.3875
1897.21921	20303.7875
1900.34335	20308.3875
1903.46544	20325.9875
1906.58551	20315.1875
1909.70353	20323.7875
1912.81953	20325.1875
1915.93349	20297.2875
1919.04543	20286.6875
1922.15534	20218.0875
1925.26322	20191.1875
1928.36908	20065.9875
1931.47292	20026.2875
1934.57473	19932.6875
1937.67453	19843.2875
1940.77232	19791.4875
1943.86808	19650.8875
1946.96184	19571.1875
1950.05358	19488.8875
1953.14331	19430.5875
1956.23103	19346.1875
1959.31675	19249.7875
1962.40046	19226.4875
1965.48217	19170.7875
1968.56188	19095.2875
1971.63959	19038.3875
1974.7153	18987.5875
1977.78901	18921.0875
1980.86073	18900.4875
1983.93046	18793.2875
1986.99819	18736.6875
1990.06394	18693.8875
1993.1277	18613.8875
1996.18947	18559.6875
1999.24925	18506.7875
2002.30706	18461.0875
2005.36288	18433.1875
2008.41672	18362.3875
2011.46859	18299.1875
2014.51848	18282.3875
2017.56639	18232.8875
2020.61233	18193.9875
2023.6563	18159.2875
2026.6983	18169.8875
2029.73833	18118.5875
2032.7764	18068.8875
2035.8125	18081.6875
2038.84664	18028.2875
2041.87881	18001.2875
2044.90903	17984.6875
2047.93729	17952.6875
2050.96359	17964.3875
2053.98794	17871.4875
2057.01034	17891.6875
2060.03078	17883.2875
2063.04927	17833.7875
2066.06582	17864.1875
2069.08042	17854.3875
2072.09307	17779.4875
2075.10378	17788.2875
2078.11255	17751.6875
2081.11938	17753.5875
2084.12426	17753.1875
2087.12722	17731.5875
2090.12824	17717.5875
2093.12732	17696.5875
2096.12447	17659.7875
2099.11969	17656.5875
2102.11299	17684.3875
2105.10435	17694.9875
2108.09379	17718.3875
2111.08131	17717.0875
2114.0669	17709.8875
2117.05057	17720.2875
2120.03233	17713.9875
2123.01216	17741.0875
2125.99008	17780.2875
2128.96609	17784.7875
2131.94018	17767.8875
2134.91236	17807.0875
2137.88263	17809.0875
2140.851	17808.1875
2143.81746	17801.5875
2146.78201	17834.1875
2149.74466	17818.0875
2152.7054	17806.5875
2155.66425	17776.8875
2158.6212	17809.3875
2161.57625	17785.1875
2164.52941	17758.1875
2167.48067	17749.0875
2170.43004	17761.6875
2173.37752	17746.9875
2176.32311	17811.1875
2179.26681	17824.6875
2182.20863	17804.5875
2185.14856	17796.3875
2188.08661	17813.1875
2191.02278	17818.0875
2193.95707	17809.9875
2196.88948	17867.9875
2199.82001	17850.2875
2202.74867	17804.9875
2205.67545	17854.1875
2208.60037	17852.5875
2211.52341	17838.9875
2214.44458	17824.5875
2217.36388	17830.4875
2220.28132	17784.5875
2223.1969	17769.9875
2226.11061	17739.0875
2229.02246	17700.9875
2231.93245	17658.7875
2234.84058	17598.6875
2237.74686	17580.8875
2240.65128	17551.3875
2243.55385	17511.8875
2246.45456	17521.8875
2249.35343	17477.2875
2252.25044	17459.8875
2255.14561	17450.7875
2258.03893	17421.5875
2260.93041	17382.4875
2263.82004	17329.5875
2266.70783	17313.3875
2269.59378	17250.4875
2272.4779	17207.0875
2275.36017	17185.6875
2278.24061	17127.0875
2281.11922	17166.9875
2283.996	17133.2875
2286.87094	17111.3875
2289.74405	17091.9875
2292.61534	17082.4875
2295.4848	17101.3875
2298.35243	17120.0875
2301.21824	17093.8875
2304.08223	17145.0875
2306.94439	17169.6875
2309.80474	17192.4875
2312.66327	17213.7875
2315.51999	17207.0875
2318.37489	17227.3875
2321.22797	17232.8875
2324.07925	17222.8875
2326.92871	17238.4875
2329.77637	17220.1875
2332.62222	17188.2875
2335.46626	17186.3875
2338.3085	17203.5875
2341.14893	17206.0875
2343.98756	17281.7875
2346.8244	17317.0875
2349.65943	17302.1875
2352.49267	17292.4875
2355.32411	17280.1875
2358.15376	17268.0875
2360.98161	17270.4875
2363.80768	17222.1875
2366.63195	17237.3875
2369.45444	17160.1875
2372.27514	17133.8875
2375.09405	17103.1875
2377.91118	17035.1875
2380.72652	16986.1875
2383.54009	16938.1875
2386.35187	16915.1875
2389.16188	16857.6875
2391.97011	16843.8875
2394.77657	16799.4875
2397.58125	16789.5875
2400.38416	16804.4875
2403.18529	16741.1875
2405.98466	16696.2875
2408.78226	16630.5875
2411.57809	16595.6875
2414.37216	16580.8875
2417.16446	16535.8875
2419.955	16507.6875
2422.74378	16504.8875
2425.5308	16502.3875
2428.31606	16501.8875
2431.09956	16486.4875
2433.88131	16526.5875
2436.6613	16508.7875
2439.43954	16532.7875
2442.21603	16509.9875
2444.99077	16488.9875
2447.76377	16465.7875
2450.53501	16482.6875
2453.30451	16480.7875
2456.07226	16455.5875
2458.83827	16461.5875
2461.60254	16484.4875
2464.36507	16469.2875
2467.12586	16462.9875
2469.88492	16467.9875
2472.64224	16506.6875
2475.39782	16507.8875
2478.15167	16525.3875
2480.90379	16543.2875
2483.65417	16582.4875
2486.40283	16613.7875
2489.14976	16626.4875
2491.89497	16629.8875
2494.63845	16634.0875
2497.3802	16641.5875
2500.12024	16645.8875
2502.85855	16632.7875
2505.59514	16619.7875
2508.33002	16636.7875
2511.06318	16567.0875
2513.79462	16555.2875
2516.52435	16502.1875
2519.25237	16486.9875
2521.97867	16462.7875
2524.70327	16481.2875
2527.42616	16483.8875
2530.14734	16476.2875
2532.86681	16467.6875
2535.58458	16466.3875
2538.30065	16458.7875
2541.01501	16508.3875
2543.72768	16493.8875
2546.43864	16472.7875
2549.14791	16471.9875
2551.85548	16472.4875
2554.56136	16447.6875
2557.26554	16385.7875
2559.96803	16383.7875
2562.66883	16368.4875
2565.36794	16330.1875
2568.06536	16356.8875
2570.7611	16336.7875
2573.45514	16340.6875
2576.14751	16367.2875
2578.83819	16365.4875
2581.52719	16347.5875
2584.21451	16377.0875
2586.90015	16382.3875
2589.58411	16365.5875
2592.2664	16396.3875
2594.94701	16370.8875
2597.62594	16379.4875
2600.30321	16346.2875
2602.9788	16356.9875
2605.65273	16340.2875
2608.32498	16367.5875
2610.99557	16373.9875
2613.66449	16371.5875
2616.33175	16369.2875
2618.99734	16397.1875
2621.66128	16382.7875
2624.32355	16386.7875
2626.98416	16397.7875
2629.64311	16436.6875
2632.30041	16440.2875
2634.95605	16401.1875
2637.61004	16356.2875
2640.26238	16350.5875
2642.91306	16323.5875
2645.56209	16290.4875
2648.20948	16315.3875
2650.85521	16264.4875
2653.4993	16253.7875
2656.14175	16229.4875
2658.78255	16259.3875
2661.42171	16255.9875
2664.05923	16301.1875
2666.6951	16344.0875
2669.32934	16352.7875
2671.96194	16360.8875
2674.59291	16366.0875
2677.22224	16363.8875
2679.84993	16350.4875
2682.476	16322.3875
2685.10043	16351.7875
2687.72324	16306.6875
2690.34441	16258.6875
2692.96396	16268.6875
2695.58188	16236.3875
2698.19818	16206.5875
2700.81285	16208.3875
2703.4259	16197.8875
2706.03733	16204.3875
2708.64714	16203.9875
2711.25533	16213.0875
2713.86191	16214.4875
2716.46687	16250.4875
2719.07021	16259.0875
2721.67194	16296.9875
2724.27206	16270.7875
2726.87057	16261.5875
2729.46747	16270.1875
2732.06276	16304.4875
2734.65644	16337.9875
2737.24852	16348.8875
2739.83899	16272.9875
2742.42786	16279.3875
2745.01513	16268.3875
2747.60079	16270.0875
2750.18486	16224.3875
2752.76733	16230.3875
2755.3482	16240.6875
2757.92747	16263.5875
2760.50515	16236.7875
2763.08123	16198.7875
2765.65573	16203.1875
2768.22863	16213.8875
2770.79994	16221.7875
2773.36967	16187.6875
2775.9378	16209.5875
2778.50435	16202.2875
2781.06932	16208.1875
2783.6327	16218.5875
2786.1945	16250.3875
2788.75471	16230.7875
2791.31335	16182.5875
2793.87041	16178.9875
2796.42589	16121.7875
2798.97979	16113.5875
2801.53212	16099.7875
2804.08288	16078.3875
2806.63206	16048.8875
2809.17967	16055.3875
2811.72571	16016.7875
2814.27018	15983.5875
2816.81308	15977.8875
2819.35442	15968.7875
2821.89419	15920.5875
2824.43239	15981.0875
2826.96904	15965.4875
2829.50412	15959.3875
2832.03763	15914.5875
2834.56959	15912.4875
2837.1	15862.8875
2839.62884	15910.7875
2842.15613	15912.0875
2844.68186	15910.8875
2847.20604	15905.7875
2849.72867	15963.6875
2852.24974	15926.6875
2854.76927	15930.5875
2857.28724	15901.9875
2859.80367	15857.2875
2862.31855	15854.7875
2864.83189	15878.8875
2867.34368	15841.3875
2869.85393	15823.1875
2872.36264	15803.6875
2874.8698	15807.6875
2877.37543	15838.1875
2879.87952	15872.5875
2882.38207	15843.0875
2884.88308	15836.7875
2887.38256	15810.7875
2889.88051	15806.4875
2892.37692	15841.1875
2894.8718	15874.5875
2897.36515	15877.1875
2899.85698	15910.4875
2902.34727	15920.4875
2904.83604	15928.1875
2907.32328	15977.4875
2909.809	15985.2875
2912.29319	15987.9875
2914.77587	15959.9875
2917.25702	15985.2875
2919.73665	15917.3875
2922.21476	15903.1875
2924.69136	15866.5875
2927.16644	15878.6875
2929.64	15823.9875
2932.11205	15844.4875
2934.58258	15777.4875
2937.05161	15783.8875
2939.51912	15754.3875
2941.98513	15740.3875
2944.44962	15731.7875
2946.91261	15657.1875
2949.37409	15686.7875
2951.83407	15700.2875
2954.29254	15666.3875
2956.74951	15665.8875
2959.20498	15619.5875
2961.65895	15598.4875
2964.11142	15587.7875
2966.56239	15558.2875
2969.01186	15580.3875
2971.45984	15498.6875
2973.90632	15497.6875
2976.35131	15428.5875
2978.7948	15411.8875
2981.23681	15363.1875
2983.67732	15317.4875
2986.11635	15292.2875
2988.55388	15265.7875
2990.98993	15225.6875
2993.4245	15198.7875
2995.85758	15178.6875
2998.28917	15136.6875
3000.71928	15100.6875
3003.14791	15079.9875
3005.57506	15059.9875
3008.00073	15026.1875
3010.42493	14890.6875
3012.84764	14942.5875
3015.26888	14919.9875
3017.68865	14848.0875
3020.10694	14829.7875
3022.52376	14791.2875
3024.9391	14840.8875
3027.35298	14795.0875
3029.76539	14777.0875
3032.17632	14747.3875
3034.5858	14738.6875
3036.9938	14738.9875
3039.40034	14727.6875
3041.80542	14757.9875
3044.20903	14704.6875
3046.61118	14689.5875
3049.01187	14637.8875
3051.4111	14660.5875
3053.80888	14619.9875
3056.20519	14586.8875
3058.60005	14531.2875
3060.99345	14534.8875
3063.3854	14469.1875
3065.7759	14398.2875
3068.16494	14349.9875
3070.55254	14313.5875
3072.93868	14285.6875
3075.32338	14242.6875
3077.70662	14253.3875
3080.08842	14191.4875
3082.46878	14220.1875
3084.84769	14148.2875
3087.22515	14139.6875
3089.60118	14130.5875
3091.97576	14169.4875
3094.3489	14105.2875
3096.72061	14094.3875
3099.09087	14104.5875
3101.4597	14081.4875
3103.82709	14075.3875
3106.19305	14065.6875
3108.55757	14070.8875
3110.92066	14000.4875
3113.28232	14007.4875
3115.64255	13966.0875
3118.00134	13918.8875
3120.35871	13936.0875
3122.71466	13901.7875
3125.06917	13876.6875
3127.42226	13848.1875
3129.77393	13839.9875
3132.12417	13850.2875
3134.47299	13806.1875
3136.82039	13777.3875
3139.16636	13777.5875
3141.51092	13786.5875
3143.85406	13793.8875
3146.19579	13757.6875
3148.53609	13762.6875
3150.87499	13777.0875
3153.21246	13752.1875
3155.54853	13794.2875
3157.88318	13789.6875
3160.21642	13778.7875
3162.54826	13746.6875
3164.87868	13776.2875
3167.2077	13804.3875
3169.5353	13803.1875
3171.86151	13778.5875
3174.18631	13755.2875
3176.5097	13729.4875
3178.83169	13710.0875
3181.15228	13709.9875
3183.47147	13732.6875
3185.78926	13702.3875
3188.10565	13688.3875
3190.42065	13700.9875
3192.73424	13668.9875
3195.04645	13697.7875
3197.35725	13629.8875
3199.66667	13636.9875
3201.97469	13664.4875
3204.28132	13663.0875
3206.58656	13684.4875
3208.8904	13658.3875
3211.19287	13677.1875
3213.49394	13702.2875
3215.79363	13718.9875
3218.09193	13683.4875
3220.38884	13653.8875
3222.68438	13714.2875
3224.97853	13688.3875
3227.2713	13695.0875
3229.56269	13698.5875
3231.8527	13694.8875
3234.14133	13639.5875
3236.42858	13622.0875
3238.71446	13596.9875
3240.99896	13579.8875
3243.28209	13525.0875
3245.56384	13517.6875
3247.84423	13504.8875
3250.12324	13506.3875
3252.40088	13479.7875
3254.67715	13477.1875
3256.95205	13485.5875
3259.22558	13469.6875
3261.49775	13458.2875
3263.76855	13439.2875
3266.03799	13413.7875
3268.30606	13391.6875
3270.57277	13370.2875
3272.83812	13377.2875
3275.10211	13311.6875
3277.36474	13295.9875
3279.62601	13300.4875
3281.88593	13283.1875
3284.14448	13292.0875
3286.40168	13338.0875
3288.65753	13303.2875
3290.91202	13312.0875
3293.16516	13246.9875
3295.41695	13226.2875
3297.66738	13195.7875
3299.91647	13119.6875
3302.16421	13050.5875
3304.4106	12955.1875
3306.65564	12878.9875
3308.89933	12815.7875
3311.14169	12731.1875
3313.38269	12621.5875
3315.62236	12529.0875
3317.86068	12445.6875
3320.09766	12339.7875
3322.3333	12267.9875
3324.5676	12218.2875
3326.80056	11983.4875
3329.03219	11928.2875
3331.26248	4.5875
3333.49143	-0.3125
3335.71905	-0.3125
