Data from AgNP_FTO_APTES_UA_10uM_CRN_20uM_R6G_10uM_NaF_0.1M_Addition_RamanShift__1__16-04-00-731.txt Node

Date: Thu Feb 10 16:04:00 GMT 2022
User: TCL
Spectrometer: QEP01345
Trigger mode: 4
Integration Time (sec): 7.000000E0
Scans to average: 10
Electric dark correction enabled: true
Nonlinearity correction enabled: false
Boxcar width: 0
XAxis mode: Raman Shifts
Number of Pixels in Spectrum: 1044
>>>>>Begin Spectral Data<<<<<
46.04893	-0.3125
50.45542	-1.3125
54.85868	-1.4125
59.25871	-0.7125
63.6555	75.1875
68.04907	80.0875
72.43941	83.6875
76.82654	83.0875
81.21044	90.4875
85.59113	88.0875
89.96862	94.9875
94.34289	96.0875
98.71396	96.7875
103.08183	101.4875
107.4465	104.5875
111.80798	106.2875
116.16626	113.2875
120.52136	117.0875
124.87327	121.5875
129.222	123.0875
133.56755	135.9875
137.90993	146.4875
142.24913	156.6875
146.58517	180.8875
150.91804	214.8875
155.24774	251.7875
159.57429	315.0875
163.89768	400.4875
168.21792	530.6875
172.53501	734.4875
176.84895	1012.1875
181.15975	1433.6875
185.46741	2005.8875
189.77193	2762.5875
194.07331	3696.3875
198.37157	4753.7875
202.6667	5886.5875
206.9587	6996.3875
211.24758	8103.5875
215.53334	9176.2875
219.81599	10348.2875
224.09553	11622.6875
228.37195	13040.5875
232.64527	14574.6875
236.91549	16197.1875
241.18261	17795.1875
245.44663	19311.1875
249.70755	20603.0875
253.96539	21852.9875
258.22014	22899.9875
262.4718	23715.8875
266.72039	24337.7875
270.96589	24677.9875
275.20832	24710.8875
279.44768	24590.3875
283.68397	24356.5875
287.91719	24116.8875
292.14735	23958.1875
296.37445	23915.2875
300.59849	24047.4875
304.81948	24148.6875
309.03742	24203.8875
313.25231	24029.3875
317.46415	23660.1875
321.67296	23182.9875
325.87872	22771.8875
330.08145	22613.6875
334.28114	22619.9875
338.47781	22744.0875
342.67145	23068.3875
346.86207	23450.5875
351.04966	23884.8875
355.23424	24379.6875
359.4158	24767.4875
363.59435	25099.5875
367.76989	25333.3875
371.94243	25536.9875
376.11196	25605.3875
380.27849	25731.8875
384.44203	25875.4875
388.60257	26071.1875
392.76012	26310.9875
396.91468	26653.1875
401.06626	27008.4875
405.21485	27260.6875
409.36047	27161.6875
413.50311	26891.6875
417.64277	26726.2875
421.77947	26736.1875
425.9132	26831.3875
430.04396	26946.2875
434.17176	27113.5875
438.2966	27351.4875
442.41849	27839.7875
446.53742	28702.8875
450.6534	29607.1875
454.76644	30248.2875
458.87653	30384.0875
462.98368	30148.4875
467.08789	29675.4875
471.18916	29186.0875
475.2875	28706.6875
479.38291	28443.8875
483.4754	28193.4875
487.56496	27963.8875
491.6516	27596.9875
495.73531	27210.1875
499.81612	27044.3875
503.89401	27108.8875
507.96899	27214.8875
512.04106	27190.4875
516.11023	27030.3875
520.1765	26796.8875
524.23987	26670.2875
528.30034	26537.2875
532.35792	26390.9875
536.41261	26102.1875
540.46441	25802.9875
544.51333	25770.1875
548.55936	25963.6875
552.60252	26431.5875
556.64279	27097.6875
560.6802	27566.3875
564.71473	27873.1875
568.7464	28298.1875
572.7752	28982.0875
576.80114	29625.6875
580.82422	30315.6875
584.84444	31226.2875
588.86181	32491.1875
592.87633	33585.2875
596.888	33534.3875
600.89682	32244.3875
604.9028	31922.5875
608.90594	33783.1875
612.90624	35997.4875
616.90371	33875.3875
620.89834	29209.7875
624.89015	27206.3875
628.87913	26915.3875
632.86528	26943.1875
636.84862	26807.0875
640.82913	26373.3875
644.80683	25792.7875
648.78172	25509.4875
652.75379	25491.5875
656.72306	25872.7875
660.68952	26280.0875
664.65319	26059.8875
668.61405	25656.8875
672.57211	25641.0875
676.52738	25728.1875
680.47986	25703.5875
684.42955	25524.9875
688.37646	25456.2875
692.32058	25637.1875
696.26192	26067.8875
700.20048	26447.9875
704.13626	26652.8875
708.06928	26584.5875
711.99952	26389.8875
715.927	26432.5875
719.85171	26555.4875
723.77365	26561.9875
727.69284	26227.6875
731.60928	25902.3875
735.52295	25790.1875
739.43388	25770.1875
743.34206	25868.7875
747.24749	26059.8875
751.15017	26218.8875
755.05012	26633.3875
758.94733	27275.1875
762.8418	28417.4875
766.73354	30067.8875
770.62254	31531.0875
774.50882	31813.1875
778.39237	30638.1875
782.27321	28878.9875
786.15132	27425.7875
790.02671	26526.0875
793.89938	26133.7875
797.76935	25940.7875
801.6366	25885.2875
805.50115	25789.0875
809.36299	25708.3875
813.22213	25536.6875
817.07857	25436.9875
820.93231	25433.6875
824.78336	25339.7875
828.63172	25282.2875
832.47738	25332.3875
836.32036	25339.9875
840.16066	25466.8875
843.99827	25563.6875
847.8332	25521.7875
851.66546	25419.4875
855.49504	25481.3875
859.32195	25499.0875
863.1462	25380.1875
866.96777	25311.2875
870.78668	25236.6875
874.60293	25241.7875
878.41652	25287.8875
882.22745	25343.6875
886.03573	25406.3875
889.84136	25405.9875
893.64433	25267.4875
897.44466	25174.0875
901.24235	25101.3875
905.0374	25071.8875
908.8298	25071.2875
912.61957	25190.4875
916.40671	25311.4875
920.19121	25658.0875
923.97308	25926.8875
927.75233	25990.9875
931.52895	25837.0875
935.30295	25530.2875
939.07433	25111.1875
942.84309	24880.9875
946.60924	24818.5875
950.37278	24798.1875
954.13371	24765.1875
957.89203	24683.1875
961.64774	24636.2875
965.40086	24644.1875
969.15137	24625.9875
972.89929	24613.3875
976.64461	24603.5875
980.38733	24677.3875
984.12747	24798.0875
987.86502	24977.3875
991.59999	25196.8875
995.33237	25562.8875
999.06217	26108.8875
1002.78939	26780.3875
1006.51404	27253.7875
1010.23611	27593.5875
1013.95561	27830.1875
1017.67255	27806.6875
1021.38692	27468.0875
1025.09872	27136.7875
1028.80796	27169.8875
1032.51465	27645.9875
1036.21877	28201.0875
1039.92035	28352.0875
1043.61937	28135.1875
1047.31584	27702.8875
1051.00976	27197.1875
1054.70114	26956.8875
1058.38998	26920.1875
1062.07627	27050.7875
1065.76003	27175.0875
1069.44126	27347.6875
1073.11995	27692.3875
1076.79611	28049.8875
1080.46974	28283.6875
1084.14085	28524.6875
1087.80943	28807.0875
1091.47549	29016.6875
1095.13903	28945.7875
1098.80005	28606.5875
1102.45857	28129.7875
1106.11456	27792.0875
1109.76805	27662.5875
1113.41903	27670.4875
1117.06751	27780.1875
1120.71348	28023.0875
1124.35696	28262.1875
1127.99793	28496.6875
1131.63641	28626.0875
1135.2724	28531.9875
1138.90589	28403.4875
1142.5369	28429.6875
1146.16542	28553.7875
1149.79145	28743.7875
1153.415	28991.9875
1157.03607	29454.0875
1160.65467	30178.1875
1164.27079	31513.8875
1167.88443	33049.0875
1171.49561	34605.0875
1175.10432	36565.2875
1178.71056	39202.9875
1182.31434	41570.9875
1185.91565	42560.0875
1189.51451	42167.6875
1193.11091	40939.2875
1196.70485	39600.1875
1200.29634	38429.3875
1203.88538	37716.0875
1207.47197	37310.8875
1211.05612	36885.7875
1214.63782	36238.5875
1218.21708	35423.3875
1221.79391	34726.8875
1225.36829	34222.0875
1228.94024	33739.2875
1232.50976	33172.9875
1236.07685	32612.0875
1239.6415	32358.6875
1243.20374	32422.2875
1246.76355	32744.0875
1250.32093	33243.5875
1253.8759	33965.6875
1257.42845	34769.9875
1260.97859	35642.4875
1264.52631	36644.5875
1268.07163	37638.5875
1271.61453	38696.7875
1275.15503	39764.4875
1278.69312	40780.2875
1282.22882	41773.9875
1285.76211	42959.1875
1289.29301	44377.7875
1292.82151	46249.2875
1296.34761	48556.2875
1299.87133	51385.6875
1303.39266	54562.1875
1306.9116	57470.9875
1310.42815	59638.3875
1313.94233	60612.4875
1317.45412	60073.5875
1320.96354	58787.6875
1324.47058	57555.0875
1327.97525	56508.1875
1331.47754	55813.9875
1334.97747	55316.7875
1338.47502	54739.2875
1341.97022	53808.3875
1345.46305	52657.1875
1348.95352	51864.4875
1352.44163	51993.0875
1355.92738	53407.0875
1359.41078	55916.5875
1362.89183	57855.0875
1366.37053	56708.3875
1369.84688	52285.3875
1373.32088	46883.1875
1376.79254	43393.6875
1380.26186	42260.0875
1383.72883	42523.8875
1387.19347	42661.4875
1390.65578	42335.1875
1394.11575	42187.6875
1397.57339	42678.4875
1401.0287	43454.0875
1404.48168	44062.3875
1407.93234	44139.7875
1411.38068	43473.9875
1414.82669	42252.0875
1418.27039	40719.2875
1421.71177	39079.1875
1425.15083	37707.9875
1428.58758	37050.4875
1432.02203	37433.2875
1435.45416	38452.2875
1438.88399	39685.3875
1442.31151	40569.7875
1445.73673	41052.8875
1449.15965	41304.5875
1452.58027	41186.4875
1455.9986	41026.6875
1459.41463	41018.5875
1462.82837	41420.2875
1466.23982	42204.6875
1469.64898	42992.2875
1473.05586	43549.6875
1476.46045	43709.3875
1479.86276	43535.1875
1483.26279	43096.6875
1486.66054	42878.9875
1490.05602	42951.9875
1493.44922	43105.8875
1496.84016	43345.8875
1500.22882	43758.4875
1503.61521	44580.9875
1506.99934	45607.0875
1510.38121	46557.6875
1513.76081	46782.0875
1517.13816	46001.6875
1520.51324	44620.2875
1523.88607	43555.7875
1527.25665	43087.0875
1530.62498	43094.2875
1533.99105	43092.2875
1537.35488	42755.1875
1540.71647	41960.7875
1544.07581	41026.3875
1547.4329	40025.0875
1550.78776	39206.1875
1554.14038	38600.5875
1557.49077	38254.7875
1560.83892	38035.1875
1564.18484	37951.8875
1567.52853	38097.7875
1570.86999	38426.0875
1574.20922	39097.9875
1577.54624	39758.6875
1580.88103	40186.6875
1584.2136	40781.1875
1587.54395	42279.8875
1590.87208	44668.5875
1594.19801	47445.7875
1597.52172	49845.9875
1600.84321	50260.0875
1604.16251	47828.0875
1607.47959	43848.7875
1610.79447	39698.1875
1614.10715	36229.4875
1617.41763	33790.7875
1620.7259	32278.4875
1624.03199	31704.0875
1627.33587	31931.2875
1630.63757	32950.1875
1633.93707	35056.2875
1637.23439	38314.8875
1640.52951	42979.2875
1643.82246	48368.7875
1647.11321	52372.9875
1650.40179	52582.8875
1653.68819	48345.5875
1656.97241	41833.5875
1660.25446	35995.4875
1663.53433	31913.7875
1666.81203	29337.8875
1670.08756	27689.1875
1673.36092	26750.5875
1676.63211	26126.7875
1679.90115	25666.5875
1683.16801	25327.3875
1686.43272	25095.1875
1689.69527	24928.3875
1692.95567	24763.6875
1696.2139	24722.6875
1699.46999	24643.4875
1702.72392	24558.9875
1705.97571	24521.0875
1709.22535	24429.8875
1712.47284	24398.9875
1715.71819	24356.5875
1718.96139	24310.7875
1722.20246	24243.6875
1725.44139	24174.9875
1728.67818	24027.4875
1731.91284	23903.9875
1735.14537	23805.8875
1738.37576	23750.3875
1741.60403	23666.0875
1744.83017	23590.8875
1748.05418	23556.1875
1751.27607	23526.0875
1754.49584	23468.9875
1757.71349	23457.2875
1760.92903	23424.9875
1764.14244	23435.8875
1767.35375	23404.0875
1770.56294	23405.4875
1773.77002	23376.9875
1776.97499	23328.0875
1780.17785	23249.9875
1783.37861	23255.5875
1786.57727	23230.1875
1789.77382	23188.1875
1792.96828	23161.9875
1796.16064	23102.9875
1799.3509	23131.8875
1802.53907	23089.1875
1805.72514	22974.4875
1808.90913	22938.9875
1812.09102	22903.0875
1815.27083	22884.0875
1818.44856	22907.6875
1821.6242	22842.9875
1824.79776	22803.7875
1827.96924	22762.2875
1831.13864	22749.9875
1834.30597	22784.0875
1837.47122	22803.5875
1840.6344	22785.8875
1843.7955	22810.2875
1846.95454	22792.5875
1850.11151	22766.6875
1853.26642	22743.9875
1856.41926	22743.4875
1859.57004	22709.1875
1862.71876	22710.3875
1865.86542	22683.6875
1869.01003	22640.3875
1872.15258	22676.6875
1875.29308	22698.4875
1878.43152	22629.3875
1881.56792	22640.8875
1884.70227	22601.0875
1887.83457	22623.1875
1890.96482	22558.1875
1894.09304	22561.2875
1897.21921	22546.2875
1900.34335	22490.6875
1903.46544	22499.6875
1906.58551	22448.7875
1909.70353	22440.0875
1912.81953	22402.2875
1915.93349	22370.7875
1919.04543	22364.7875
1922.15534	22321.7875
1925.26322	22306.7875
1928.36908	22252.5875
1931.47292	22244.3875
1934.57473	22171.0875
1937.67453	22143.5875
1940.77232	22112.7875
1943.86808	22058.9875
1946.96184	21959.7875
1950.05358	21883.4875
1953.14331	21824.4875
1956.23103	21798.2875
1959.31675	21762.7875
1962.40046	21696.7875
1965.48217	21647.1875
1968.56188	21605.2875
1971.63959	21525.9875
1974.7153	21445.0875
1977.78901	21416.0875
1980.86073	21365.9875
1983.93046	21302.6875
1986.99819	21249.5875
1990.06394	21162.5875
1993.1277	21114.6875
1996.18947	21068.5875
1999.24925	21023.8875
2002.30706	20953.9875
2005.36288	20913.7875
2008.41672	20875.9875
2011.46859	20800.9875
2014.51848	20814.3875
2017.56639	20761.9875
2020.61233	20697.2875
2023.6563	20659.5875
2026.6983	20634.6875
2029.73833	20567.9875
2032.7764	20524.9875
2035.8125	20535.3875
2038.84664	20459.2875
2041.87881	20412.2875
2044.90903	20355.0875
2047.93729	20335.4875
2050.96359	20359.2875
2053.98794	20329.7875
2057.01034	20323.7875
2060.03078	20275.9875
2063.04927	20280.0875
2066.06582	20297.3875
2069.08042	20297.5875
2072.09307	20273.6875
2075.10378	20261.4875
2078.11255	20216.7875
2081.11938	20278.7875
2084.12426	20219.7875
2087.12722	20226.5875
2090.12824	20242.4875
2093.12732	20233.0875
2096.12447	20261.5875
2099.11969	20230.6875
2102.11299	20228.4875
2105.10435	20229.5875
2108.09379	20265.2875
2111.08131	20225.7875
2114.0669	20229.0875
2117.05057	20261.7875
2120.03233	20328.6875
2123.01216	20357.8875
2125.99008	20385.5875
2128.96609	20411.5875
2131.94018	20433.9875
2134.91236	20455.9875
2137.88263	20482.8875
2140.851	20478.8875
2143.81746	20479.9875
2146.78201	20493.7875
2149.74466	20492.1875
2152.7054	20450.5875
2155.66425	20494.5875
2158.6212	20504.0875
2161.57625	20527.7875
2164.52941	20512.8875
2167.48067	20512.1875
2170.43004	20455.6875
2173.37752	20464.1875
2176.32311	20510.5875
2179.26681	20495.6875
2182.20863	20495.3875
2185.14856	20516.9875
2188.08661	20527.6875
2191.02278	20545.7875
2193.95707	20525.7875
2196.88948	20535.1875
2199.82001	20529.7875
2202.74867	20482.8875
2205.67545	20498.6875
2208.60037	20474.1875
2211.52341	20434.0875
2214.44458	20407.5875
2217.36388	20386.6875
2220.28132	20356.2875
2223.1969	20327.2875
2226.11061	20327.0875
2229.02246	20266.7875
2231.93245	20229.3875
2234.84058	20202.1875
2237.74686	20216.0875
2240.65128	20177.3875
2243.55385	20160.7875
2246.45456	20117.4875
2249.35343	20112.8875
2252.25044	20083.3875
2255.14561	20058.3875
2258.03893	20055.1875
2260.93041	19974.4875
2263.82004	19919.4875
2266.70783	19896.5875
2269.59378	19834.4875
2272.4779	19804.3875
2275.36017	19779.9875
2278.24061	19718.2875
2281.11922	19707.1875
2283.996	19709.7875
2286.87094	19707.4875
2289.74405	19698.9875
2292.61534	19656.0875
2295.4848	19664.4875
2298.35243	19663.0875
2301.21824	19652.1875
2304.08223	19685.0875
2306.94439	19672.2875
2309.80474	19679.6875
2312.66327	19710.8875
2315.51999	19685.9875
2318.37489	19667.3875
2321.22797	19643.9875
2324.07925	19618.6875
2326.92871	19620.5875
2329.77637	19588.3875
2332.62222	19571.9875
2335.46626	19548.3875
2338.3085	19541.2875
2341.14893	19563.8875
2343.98756	19540.8875
2346.8244	19553.6875
2349.65943	19566.8875
2352.49267	19528.1875
2355.32411	19518.0875
2358.15376	19503.9875
2360.98161	19536.4875
2363.80768	19511.8875
2366.63195	19490.8875
2369.45444	19483.5875
2372.27514	19433.0875
2375.09405	19413.3875
2377.91118	19388.8875
2380.72652	19349.5875
2383.54009	19317.1875
2386.35187	19288.2875
2389.16188	19232.8875
2391.97011	19227.3875
2394.77657	19153.2875
2397.58125	19177.6875
2400.38416	19190.5875
2403.18529	19162.2875
2405.98466	19098.5875
2408.78226	19047.4875
2411.57809	19058.5875
2414.37216	19030.8875
2417.16446	19052.8875
2419.955	19013.5875
2422.74378	18983.2875
2425.5308	18982.0875
2428.31606	18969.4875
2431.09956	18969.8875
2433.88131	18978.9875
2436.6613	18959.5875
2439.43954	18976.8875
2442.21603	18967.3875
2444.99077	18970.1875
2447.76377	18954.9875
2450.53501	18925.3875
2453.30451	18922.1875
2456.07226	18912.2875
2458.83827	18923.3875
2461.60254	18948.3875
2464.36507	18925.5875
2467.12586	18878.0875
2469.88492	18865.1875
2472.64224	18896.5875
2475.39782	18898.8875
2478.15167	18904.2875
2480.90379	18923.1875
2483.65417	18956.5875
2486.40283	18941.1875
2489.14976	18966.3875
2491.89497	18955.3875
2494.63845	18983.9875
2497.3802	18963.3875
2500.12024	18983.8875
2502.85855	18971.9875
2505.59514	18985.9875
2508.33002	18940.1875
2511.06318	18881.5875
2513.79462	18891.9875
2516.52435	18884.8875
2519.25237	18856.5875
2521.97867	18860.1875
2524.70327	18825.5875
2527.42616	18821.4875
2530.14734	18851.6875
2532.86681	18832.6875
2535.58458	18792.2875
2538.30065	18803.1875
2541.01501	18784.9875
2543.72768	18798.3875
2546.43864	18786.0875
2549.14791	18779.5875
2551.85548	18774.9875
2554.56136	18771.3875
2557.26554	18735.7875
2559.96803	18714.7875
2562.66883	18678.2875
2565.36794	18644.3875
2568.06536	18639.2875
2570.7611	18648.0875
2573.45514	18646.6875
2576.14751	18614.5875
2578.83819	18604.9875
2581.52719	18587.7875
2584.21451	18610.3875
2586.90015	18555.7875
2589.58411	18583.8875
2592.2664	18566.9875
2594.94701	18527.7875
2597.62594	18525.3875
2600.30321	18499.1875
2602.9788	18489.3875
2605.65273	18472.3875
2608.32498	18526.4875
2610.99557	18526.5875
2613.66449	18528.8875
2616.33175	18548.8875
2618.99734	18514.8875
2621.66128	18496.6875
2624.32355	18447.2875
2626.98416	18442.6875
2629.64311	18440.4875
2632.30041	18413.0875
2634.95605	18395.3875
2637.61004	18357.1875
2640.26238	18367.1875
2642.91306	18341.4875
2645.56209	18336.0875
2648.20948	18341.4875
2650.85521	18304.3875
2653.4993	18361.9875
2656.14175	18348.4875
2658.78255	18393.4875
2661.42171	18399.1875
2664.05923	18392.4875
2666.6951	18414.9875
2669.32934	18454.6875
2671.96194	18441.5875
2674.59291	18458.6875
2677.22224	18454.2875
2679.84993	18433.4875
2682.476	18430.5875
2685.10043	18448.5875
2687.72324	18407.4875
2690.34441	18425.4875
2692.96396	18421.1875
2695.58188	18393.8875
2698.19818	18398.8875
2700.81285	18441.0875
2703.4259	18455.5875
2706.03733	18472.0875
2708.64714	18452.6875
2711.25533	18442.0875
2713.86191	18425.1875
2716.46687	18469.2875
2719.07021	18497.3875
2721.67194	18557.4875
2724.27206	18547.8875
2726.87057	18537.6875
2729.46747	18572.5875
2732.06276	18583.3875
2734.65644	18549.7875
2737.24852	18552.3875
2739.83899	18533.0875
2742.42786	18535.2875
2745.01513	18516.7875
2747.60079	18518.5875
2750.18486	18455.0875
2752.76733	18484.9875
2755.3482	18483.9875
2757.92747	18475.5875
2760.50515	18450.5875
2763.08123	18510.8875
2765.65573	18457.2875
2768.22863	18453.4875
2770.79994	18469.8875
2773.36967	18429.5875
2775.9378	18455.7875
2778.50435	18472.1875
2781.06932	18426.2875
2783.6327	18444.0875
2786.1945	18424.2875
2788.75471	18414.0875
2791.31335	18370.6875
2793.87041	18384.3875
2796.42589	18382.5875
2798.97979	18330.5875
2801.53212	18316.8875
2804.08288	18303.2875
2806.63206	18265.6875
2809.17967	18218.7875
2811.72571	18200.0875
2814.27018	18140.8875
2816.81308	18115.5875
2819.35442	18073.9875
2821.89419	18061.8875
2824.43239	18020.6875
2826.96904	18007.9875
2829.50412	17992.9875
2832.03763	17960.9875
2834.56959	17979.7875
2837.1	17956.2875
2839.62884	17975.9875
2842.15613	18002.5875
2844.68186	17977.1875
2847.20604	17936.9875
2849.72867	17968.1875
2852.24974	17951.6875
2854.76927	17911.9875
2857.28724	17889.1875
2859.80367	17884.5875
2862.31855	17863.6875
2864.83189	17851.8875
2867.34368	17808.0875
2869.85393	17815.9875
2872.36264	17820.0875
2874.8698	17803.8875
2877.37543	17803.0875
2879.87952	17804.6875
2882.38207	17800.7875
2884.88308	17816.2875
2887.38256	17824.5875
2889.88051	17818.9875
2892.37692	17837.5875
2894.8718	17838.3875
2897.36515	17916.6875
2899.85698	17891.9875
2902.34727	17924.1875
2904.83604	17902.6875
2907.32328	17934.4875
2909.809	17966.8875
2912.29319	17967.6875
2914.77587	17964.4875
2917.25702	17944.4875
2919.73665	17923.8875
2922.21476	17929.5875
2924.69136	17911.7875
2927.16644	17921.0875
2929.64	17899.0875
2932.11205	17881.0875
2934.58258	17796.2875
2937.05161	17831.2875
2939.51912	17835.9875
2941.98513	17836.4875
2944.44962	17807.4875
2946.91261	17774.4875
2949.37409	17826.9875
2951.83407	17774.7875
2954.29254	17809.2875
2956.74951	17755.5875
2959.20498	17808.9875
2961.65895	17769.1875
2964.11142	17795.6875
2966.56239	17769.7875
2969.01186	17776.6875
2971.45984	17721.0875
2973.90632	17758.2875
2976.35131	17668.2875
2978.7948	17708.4875
2981.23681	17638.2875
2983.67732	17590.1875
2986.11635	17549.6875
2988.55388	17534.3875
2990.98993	17498.8875
2993.4245	17484.9875
2995.85758	17435.0875
2998.28917	17374.1875
3000.71928	17347.9875
3003.14791	17333.5875
3005.57506	17339.9875
3008.00073	17238.0875
3010.42493	17106.7875
3012.84764	17157.9875
3015.26888	17178.9875
3017.68865	17158.2875
3020.10694	17116.4875
3022.52376	17118.4875
3024.9391	17101.3875
3027.35298	17105.0875
3029.76539	17117.7875
3032.17632	17103.7875
3034.5858	17101.3875
3036.9938	17081.4875
3039.40034	17109.0875
3041.80542	17128.7875
3044.20903	17051.4875
3046.61118	17034.8875
3049.01187	16977.7875
3051.4111	16959.8875
3053.80888	16907.5875
3056.20519	16869.6875
3058.60005	16855.8875
3060.99345	16820.6875
3063.3854	16821.0875
3065.7759	16777.8875
3068.16494	16735.7875
3070.55254	16687.1875
3072.93868	16649.2875
3075.32338	16600.1875
3077.70662	16577.6875
3080.08842	16534.8875
3082.46878	16561.9875
3084.84769	16548.4875
3087.22515	16553.5875
3089.60118	16553.2875
3091.97576	16522.6875
3094.3489	16486.7875
3096.72061	16542.9875
3099.09087	16547.8875
3101.4597	16522.1875
3103.82709	16520.2875
3106.19305	16485.3875
3108.55757	16457.3875
3110.92066	16439.7875
3113.28232	16397.2875
3115.64255	16384.5875
3118.00134	16325.0875
3120.35871	16324.8875
3122.71466	16298.5875
3125.06917	16260.9875
3127.42226	16216.3875
3129.77393	16238.2875
3132.12417	16201.9875
3134.47299	16208.3875
3136.82039	16209.9875
3139.16636	16226.5875
3141.51092	16230.5875
3143.85406	16192.9875
3146.19579	16168.7875
3148.53609	16166.2875
3150.87499	16174.1875
3153.21246	16191.3875
3155.54853	16196.3875
3157.88318	16192.9875
3160.21642	16209.0875
3162.54826	16226.2875
3164.87868	16220.7875
3167.2077	16242.8875
3169.5353	16245.7875
3171.86151	16244.8875
3174.18631	16224.9875
3176.5097	16234.3875
3178.83169	16197.9875
3181.15228	16211.0875
3183.47147	16125.7875
3185.78926	16138.5875
3188.10565	16101.4875
3190.42065	16098.6875
3192.73424	16081.4875
3195.04645	16072.5875
3197.35725	16043.1875
3199.66667	16050.2875
3201.97469	16068.9875
3204.28132	16065.2875
3206.58656	16079.7875
3208.8904	16086.3875
3211.19287	16102.2875
3213.49394	16068.9875
3215.79363	16081.1875
3218.09193	16095.2875
3220.38884	16099.4875
3222.68438	16105.5875
3224.97853	16103.2875
3227.2713	16055.0875
3229.56269	16045.1875
3231.8527	16036.3875
3234.14133	15975.6875
3236.42858	15978.3875
3238.71446	15938.0875
3240.99896	15921.1875
3243.28209	15931.4875
3245.56384	15933.9875
3247.84423	15932.2875
3250.12324	15914.5875
3252.40088	15873.8875
3254.67715	15807.6875
3256.95205	15879.5875
3259.22558	15868.5875
3261.49775	15828.1875
3263.76855	15817.8875
3266.03799	15774.7875
3268.30606	15765.9875
3270.57277	15739.3875
3272.83812	15700.4875
3275.10211	15680.0875
3277.36474	15682.3875
3279.62601	15629.1875
3281.88593	15612.2875
3284.14448	15594.3875
3286.40168	15634.4875
3288.65753	15627.5875
3290.91202	15649.2875
3293.16516	15587.9875
3295.41695	15564.2875
3297.66738	15485.1875
3299.91647	15424.8875
3302.16421	15328.2875
3304.4106	15248.7875
3306.65564	15131.0875
3308.89933	15035.7875
3311.14169	14904.7875
3313.38269	14786.9875
3315.62236	14709.9875
3317.86068	14599.6875
3320.09766	14470.0875
3322.3333	14386.5875
3324.5676	14319.2875
3326.80056	14110.4875
3329.03219	14039.7875
3331.26248	5.3875
3333.49143	0.0875
3335.71905	-0.6125
