Data from AgNP_FTO_APTES_UA_10uM_CRN_500uM_R6G_10uM_NaF_0.1M_Addition_RamanShift__24__19-08-20-959.txt Node

Date: Thu Feb 10 19:08:20 GMT 2022
User: TCL
Spectrometer: QEP01345
Trigger mode: 4
Integration Time (sec): 7.000000E0
Scans to average: 10
Electric dark correction enabled: true
Nonlinearity correction enabled: false
Boxcar width: 0
XAxis mode: Raman Shifts
Number of Pixels in Spectrum: 1044
>>>>>Begin Spectral Data<<<<<
46.04893	0.2
50.45542	-0.7
54.85868	-2.5
59.25871	-1.7
63.6555	63.9
68.04907	69.2
72.43941	72.7
76.82654	72.8
81.21044	79.1
85.59113	77.1
89.96862	86.8
94.34289	85.2
98.71396	88.6
103.08183	90.6
107.4465	97
111.80798	92.6
116.16626	98.2
120.52136	101.7
124.87327	107.4
129.222	110
133.56755	121
137.90993	126.2
142.24913	137.7
146.58517	153.5
150.91804	181.5
155.24774	219.3
159.57429	265.4
163.89768	339.6
168.21792	451.6
172.53501	621.6
176.84895	869.4
181.15975	1213.1
185.46741	1718.5
189.77193	2381.5
194.07331	3178
198.37157	4114
202.6667	5105.7
206.9587	6058.5
211.24758	7005.7
215.53334	7965.6
219.81599	8974.2
224.09553	10054.5
228.37195	11239.3
232.64527	12597
236.91549	14001.9
241.18261	15466.7
245.44663	16796.5
249.70755	18053.5
253.96539	19112.4
258.22014	20014.2
262.4718	20803.3
266.72039	21386.7
270.96589	21719.8
275.20832	21792.7
279.44768	21701.8
283.68397	21522.9
287.91719	21340.6
292.14735	21225.6
296.37445	21210.1
300.59849	21290.6
304.81948	21331.7
309.03742	21213.7
313.25231	20965.7
317.46415	20513.1
321.67296	19972.5
325.87872	19540
330.08145	19385.9
334.28114	19402.8
338.47781	19544.4
342.67145	19815.3
346.86207	20141.6
351.04966	20549
355.23424	21019.1
359.4158	21424.9
363.59435	21685
367.76989	21947
371.94243	22145.7
376.11196	22251
380.27849	22378.2
384.44203	22544.4
388.60257	22622.1
392.76012	22707.6
396.91468	22920.3
401.06626	23204.8
405.21485	23458.1
409.36047	23428.3
413.50311	23129.8
417.64277	22835.8
421.77947	22762.8
425.9132	22888
430.04396	23030.9
434.17176	23216.7
438.2966	23496.7
442.41849	23953.5
446.53742	24524.5
450.6534	25128.3
454.76644	25630.3
458.87653	25817.1
462.98368	25684.6
467.08789	25430.8
471.18916	25160.8
475.2875	24945.9
479.38291	24897.2
483.4754	24786
487.56496	24547.7
491.6516	24197.3
495.73531	23804.3
499.81612	23565.7
503.89401	23615.5
507.96899	23651.3
512.04106	23659.2
516.11023	23624.6
520.1765	23556.6
524.23987	23441.7
528.30034	23282.6
532.35792	23165
536.41261	23002.9
540.46441	22822.1
544.51333	22827.2
548.55936	23008.9
552.60252	23347.2
556.64279	23786.6
560.6802	24131.7
564.71473	24395.8
568.7464	24768.7
572.7752	25207.8
576.80114	25268.6
580.82422	25195.1
584.84444	25203.2
588.86181	25451.8
592.87633	25848.2
596.888	26037.2
600.89682	25984.3
604.9028	26406.9
608.90594	28313.9
612.90624	30724.7
616.90371	29603.6
620.89834	25482.2
624.89015	23602.9
628.87913	23331.8
632.86528	23388.2
636.84862	23444.6
640.82913	23240.3
644.80683	22856.5
648.78172	22514
652.75379	22455.4
656.72306	22691.3
660.68952	22969.7
664.65319	22912.6
668.61405	22581.8
672.57211	22505
676.52738	22532.4
680.47986	22583.1
684.42955	22484.9
688.37646	22497.8
692.32058	22512.5
696.26192	22651.3
700.20048	22868.4
704.13626	22964
708.06928	22936.5
711.99952	22848.2
715.927	22817.7
719.85171	22795.7
723.77365	22787.6
727.69284	22678.9
731.60928	22567.3
735.52295	22521.7
739.43388	22533.7
743.34206	22572.8
747.24749	22650.3
751.15017	22711.9
755.05012	23026.7
758.94733	23474.4
762.8418	24307.4
766.73354	25708.4
770.62254	27161.5
774.50882	27706.7
778.39237	26842.2
782.27321	25133.9
786.15132	23696.6
790.02671	22867.3
793.89938	22468.4
797.76935	22324.1
801.6366	22261.2
805.50115	22247
809.36299	22196.4
813.22213	22161.8
817.07857	22106.2
820.93231	22117.9
824.78336	22072.5
828.63172	22008.5
832.47738	22015.7
836.32036	21994.2
840.16066	22018.9
843.99827	22018.5
847.8332	21995.9
851.66546	21972.6
855.49504	21970.6
859.32195	21970.3
863.1462	21960.2
866.96777	21949.5
870.78668	21883.5
874.60293	21878.5
878.41652	21885
882.22745	21911.2
886.03573	21938.4
889.84136	21944.7
893.64433	21866
897.44466	21848.3
901.24235	21792.7
905.0374	21694.9
908.8298	21639
912.61957	21603.8
916.40671	21705.5
920.19121	21872.2
923.97308	21986.3
927.75233	22020.1
931.52895	21995.3
935.30295	21832.7
939.07433	21547.5
942.84309	21356.1
946.60924	21198.8
950.37278	21135.7
954.13371	21038.8
957.89203	21009.3
961.64774	20964.1
965.40086	20918.6
969.15137	20838.4
972.89929	20755
976.64461	20701.3
980.38733	20691.3
984.12747	20731.9
987.86502	20851.2
991.59999	20986.9
995.33237	21217.2
999.06217	21589.4
1002.78939	22042.1
1006.51404	22329.4
1010.23611	22483.2
1013.95561	22594.9
1017.67255	22648.9
1021.38692	22504.3
1025.09872	22297.9
1028.80796	22207.6
1032.51465	22475.4
1036.21877	22689.9
1039.92035	22706.5
1043.61937	22570.5
1047.31584	22322.4
1051.00976	22087.3
1054.70114	21936.3
1058.38998	21976.8
1062.07627	22089.6
1065.76003	22159.7
1069.44126	22202.3
1073.11995	22271.5
1076.79611	22367.9
1080.46974	22476.6
1084.14085	22626.4
1087.80943	22820.4
1091.47549	22979.1
1095.13903	22987.5
1098.80005	22793
1102.45857	22532.9
1106.11456	22353.3
1109.76805	22339.5
1113.41903	22517.9
1117.06751	22716.6
1120.71348	22979.5
1124.35696	23194.9
1127.99793	23392.1
1131.63641	23526
1135.2724	23297.2
1138.90589	23027.9
1142.5369	22903.6
1146.16542	22877
1149.79145	22881.3
1153.415	23008
1157.03607	23219.5
1160.65467	23629.9
1164.27079	24285.7
1167.88443	25240.1
1171.49561	26392.9
1175.10432	27870.2
1178.71056	29840.5
1182.31434	31613.8
1185.91565	32612.2
1189.51451	32597.1
1193.11091	31837.6
1196.70485	30829
1200.29634	29849.3
1203.88538	29066.3
1207.47197	28392.1
1211.05612	27803.2
1214.63782	27317.9
1218.21708	27018.4
1221.79391	26893.3
1225.36829	26685.8
1228.94024	26304.7
1232.50976	25881.2
1236.07685	25604.1
1239.6415	25562.2
1243.20374	25551
1246.76355	25737
1250.32093	25975.1
1253.8759	26378.2
1257.42845	26919.6
1260.97859	27412
1264.52631	27904.8
1268.07163	28410.3
1271.61453	28935.6
1275.15503	29478.4
1278.69312	30056.5
1282.22882	30509.2
1285.76211	31008.4
1289.29301	31683.1
1292.82151	32679.2
1296.34761	34023.7
1299.87133	35600.8
1303.39266	37460.7
1306.9116	39552.7
1310.42815	41622
1313.94233	43028.9
1317.45412	43140
1320.96354	42447.9
1324.47058	41617.8
1327.97525	40590.3
1331.47754	40000
1334.97747	39898.6
1338.47502	40182.7
1341.97022	40461.6
1345.46305	40278
1348.95352	39785.8
1352.44163	39423.4
1355.92738	39721.8
1359.41078	40891.8
1362.89183	42252.4
1366.37053	41535.9
1369.84688	38348.8
1373.32088	34675.3
1376.79254	32212.2
1380.26186	31267.6
1383.72883	31105.7
1387.19347	31213.4
1390.65578	31203
1394.11575	31363.1
1397.57339	31805.4
1401.0287	32597
1404.48168	33317.8
1407.93234	33734.3
1411.38068	33656
1414.82669	32965
1418.27039	31804.6
1421.71177	30478.7
1425.15083	29286.9
1428.58758	28558.5
1432.02203	28472.6
1435.45416	28752.4
1438.88399	29322.5
1442.31151	29836.6
1445.73673	30277.1
1449.15965	30777.2
1452.58027	31212.1
1455.9986	31455.1
1459.41463	31629
1462.82837	31852.8
1466.23982	32297.9
1469.64898	32747.8
1473.05586	32985.5
1476.46045	32938.2
1479.86276	32708.5
1483.26279	32451.8
1486.66054	32252.6
1490.05602	32147.5
1493.44922	32173.7
1496.84016	32176.7
1500.22882	32405.5
1503.61521	32999.7
1506.99934	34078.6
1510.38121	35215.6
1513.76081	35764
1517.13816	35123.7
1520.51324	33714
1523.88607	32301
1527.25665	31479.4
1530.62498	31138.3
1533.99105	31088.7
1537.35488	31058.8
1540.71647	30995.1
1544.07581	30748.2
1547.4329	30455.6
1550.78776	30085.6
1554.14038	29750.5
1557.49077	29646.4
1560.83892	29560
1564.18484	29591.3
1567.52853	29580.6
1570.86999	29681.6
1574.20922	29984.7
1577.54624	30206.4
1580.88103	30270.8
1584.2136	30307.6
1587.54395	30820.4
1590.87208	31960.3
1594.19801	33577.4
1597.52172	35230.8
1600.84321	35975.5
1604.16251	35113.7
1607.47959	33106.3
1610.79447	30674.2
1614.10715	28341.5
1617.41763	26459.7
1620.7259	25186.7
1624.03199	24417.1
1627.33587	24277.1
1630.63757	24722.9
1633.93707	25815.9
1637.23439	27510.9
1640.52951	29856.1
1643.82246	32541.6
1647.11321	34809.6
1650.40179	35520.8
1653.68819	33894.6
1656.97241	30485.3
1660.25446	26955.8
1663.53433	24287.8
1666.81203	22523.1
1670.08756	21383.8
1673.36092	20691.1
1676.63211	20229.8
1679.90115	19879.2
1683.16801	19646.5
1686.43272	19471.8
1689.69527	19305.9
1692.95567	19212.6
1696.2139	19122.3
1699.46999	19095
1702.72392	19021
1705.97571	18975.9
1709.22535	18951.8
1712.47284	18870.8
1715.71819	18865
1718.96139	18858.5
1722.20246	18806.2
1725.44139	18726.1
1728.67818	18642.3
1731.91284	18541.2
1735.14537	18493.5
1738.37576	18391.2
1741.60403	18347.5
1744.83017	18321.8
1748.05418	18278.2
1751.27607	18298.9
1754.49584	18258.6
1757.71349	18232.6
1760.92903	18208.5
1764.14244	18205.9
1767.35375	18180
1770.56294	18170.3
1773.77002	18131
1776.97499	18081.3
1780.17785	18036.9
1783.37861	18043.1
1786.57727	17989.4
1789.77382	17949.4
1792.96828	17906.8
1796.16064	17896.8
1799.3509	17853.8
1802.53907	17851.6
1805.72514	17800.3
1808.90913	17784.7
1812.09102	17732.2
1815.27083	17650.7
1818.44856	17642.3
1821.6242	17606.3
1824.79776	17599.6
1827.96924	17577.5
1831.13864	17557.7
1834.30597	17579.3
1837.47122	17536.8
1840.6344	17547.2
1843.7955	17524.8
1846.95454	17491.2
1850.11151	17518.5
1853.26642	17472.5
1856.41926	17493.8
1859.57004	17458.3
1862.71876	17458.7
1865.86542	17458.2
1869.01003	17432.8
1872.15258	17438.8
1875.29308	17437.9
1878.43152	17411.3
1881.56792	17410
1884.70227	17396.8
1887.83457	17373.6
1890.96482	17335.8
1894.09304	17308.6
1897.21921	17331.9
1900.34335	17298.6
1903.46544	17326.8
1906.58551	17307.5
1909.70353	17271.5
1912.81953	17208.4
1915.93349	17216.7
1919.04543	17213.5
1922.15534	17140.7
1925.26322	17120.7
1928.36908	17080.4
1931.47292	17076.8
1934.57473	17076.6
1937.67453	16973.2
1940.77232	16978.7
1943.86808	16907.3
1946.96184	16867.3
1950.05358	16788.8
1953.14331	16758.3
1956.23103	16688.6
1959.31675	16668.7
1962.40046	16609.6
1965.48217	16598
1968.56188	16525.5
1971.63959	16479.4
1974.7153	16410.4
1977.78901	16371.5
1980.86073	16327.2
1983.93046	16275
1986.99819	16269.6
1990.06394	16165.1
1993.1277	16125.3
1996.18947	16096.1
1999.24925	16037.2
2002.30706	15997.7
2005.36288	15929.9
2008.41672	15884
2011.46859	15870.6
2014.51848	15826.7
2017.56639	15805
2020.61233	15762
2023.6563	15693.3
2026.6983	15689.1
2029.73833	15624.4
2032.7764	15615.3
2035.8125	15596.3
2038.84664	15533.8
2041.87881	15505.6
2044.90903	15472.5
2047.93729	15448.1
2050.96359	15470
2053.98794	15398.9
2057.01034	15405.4
2060.03078	15382.2
2063.04927	15368.7
2066.06582	15392.1
2069.08042	15361.5
2072.09307	15386.2
2075.10378	15349.5
2078.11255	15346.5
2081.11938	15315.3
2084.12426	15298
2087.12722	15295.5
2090.12824	15287.3
2093.12732	15279.6
2096.12447	15272.8
2099.11969	15260.8
2102.11299	15245.2
2105.10435	15237.9
2108.09379	15260.7
2111.08131	15259.3
2114.0669	15298.2
2117.05057	15280.4
2120.03233	15293.4
2123.01216	15317.7
2125.99008	15287.4
2128.96609	15362.3
2131.94018	15330.1
2134.91236	15356.1
2137.88263	15335.5
2140.851	15341.4
2143.81746	15337.8
2146.78201	15369.3
2149.74466	15355.5
2152.7054	15364.1
2155.66425	15337.3
2158.6212	15350.1
2161.57625	15330.6
2164.52941	15329.5
2167.48067	15336.6
2170.43004	15323.7
2173.37752	15330.5
2176.32311	15315.8
2179.26681	15321.5
2182.20863	15304.4
2185.14856	15311.6
2188.08661	15312.1
2191.02278	15319.9
2193.95707	15332.4
2196.88948	15327.7
2199.82001	15314.2
2202.74867	15281.1
2205.67545	15236.4
2208.60037	15240.8
2211.52341	15244.5
2214.44458	15212
2217.36388	15165.8
2220.28132	15175.1
2223.1969	15098.2
2226.11061	15116.1
2229.02246	15089.5
2231.93245	15027.2
2234.84058	15006.7
2237.74686	14979.3
2240.65128	14981.6
2243.55385	14933.5
2246.45456	14920.2
2249.35343	14893.5
2252.25044	14879.1
2255.14561	14861
2258.03893	14869.6
2260.93041	14795.2
2263.82004	14759.6
2266.70783	14754.8
2269.59378	14686.8
2272.4779	14650.6
2275.36017	14594.1
2278.24061	14600.8
2281.11922	14543.7
2283.996	14552.2
2286.87094	14547.9
2289.74405	14513.5
2292.61534	14497.5
2295.4848	14509.8
2298.35243	14510.7
2301.21824	14464.4
2304.08223	14484.9
2306.94439	14485.6
2309.80474	14492.5
2312.66327	14448.7
2315.51999	14480.8
2318.37489	14429.8
2321.22797	14439.4
2324.07925	14380.6
2326.92871	14393.7
2329.77637	14341.4
2332.62222	14329.3
2335.46626	14308.1
2338.3085	14311
2341.14893	14319.4
2343.98756	14321.2
2346.8244	14307.3
2349.65943	14292.1
2352.49267	14291.3
2355.32411	14301.7
2358.15376	14282.8
2360.98161	14287.7
2363.80768	14257
2366.63195	14271.2
2369.45444	14212.7
2372.27514	14190.6
2375.09405	14168.7
2377.91118	14180.4
2380.72652	14114
2383.54009	14088.8
2386.35187	14061.5
2389.16188	14001.4
2391.97011	13988.2
2394.77657	13955.3
2397.58125	13932.3
2400.38416	13916.9
2403.18529	13911.8
2405.98466	13885.6
2408.78226	13876.1
2411.57809	13833.4
2414.37216	13819.1
2417.16446	13813.1
2419.955	13792.4
2422.74378	13766.8
2425.5308	13737.7
2428.31606	13765.6
2431.09956	13756.9
2433.88131	13738.2
2436.6613	13691.6
2439.43954	13719.6
2442.21603	13656.3
2444.99077	13632.8
2447.76377	13650.4
2450.53501	13655.4
2453.30451	13649.1
2456.07226	13642
2458.83827	13620.3
2461.60254	13657.2
2464.36507	13623.2
2467.12586	13584.5
2469.88492	13586.7
2472.64224	13601.5
2475.39782	13608.8
2478.15167	13644.2
2480.90379	13644.7
2483.65417	13617
2486.40283	13611.4
2489.14976	13612.8
2491.89497	13616.4
2494.63845	13626.9
2497.3802	13606.2
2500.12024	13608.7
2502.85855	13561.2
2505.59514	13550.2
2508.33002	13551.3
2511.06318	13544.4
2513.79462	13500.3
2516.52435	13490.7
2519.25237	13469.8
2521.97867	13419.7
2524.70327	13472.3
2527.42616	13435.1
2530.14734	13428.7
2532.86681	13424.6
2535.58458	13442.7
2538.30065	13414.3
2541.01501	13387
2543.72768	13370.2
2546.43864	13352.8
2549.14791	13344.5
2551.85548	13310.1
2554.56136	13334.4
2557.26554	13286.8
2559.96803	13242
2562.66883	13205.4
2565.36794	13219.9
2568.06536	13201.6
2570.7611	13174.5
2573.45514	13158.6
2576.14751	13129.9
2578.83819	13096.2
2581.52719	13121.4
2584.21451	13131.6
2586.90015	13092.3
2589.58411	13057.1
2592.2664	13072.9
2594.94701	13054.1
2597.62594	13059
2600.30321	13034.6
2602.9788	12990.1
2605.65273	12986.7
2608.32498	12982.3
2610.99557	13006.3
2613.66449	12992.6
2616.33175	13011.2
2618.99734	13002.1
2621.66128	12969.9
2624.32355	12974.4
2626.98416	12960.4
2629.64311	12937.7
2632.30041	12937.8
2634.95605	12915.1
2637.61004	12883.6
2640.26238	12872.5
2642.91306	12873.9
2645.56209	12861.2
2648.20948	12844.4
2650.85521	12845.3
2653.4993	12844.8
2656.14175	12837.4
2658.78255	12846.5
2661.42171	12861.8
2664.05923	12877.3
2666.6951	12863
2669.32934	12856.8
2671.96194	12833.6
2674.59291	12859.5
2677.22224	12833.7
2679.84993	12856.3
2682.476	12862.2
2685.10043	12844.4
2687.72324	12814
2690.34441	12831.6
2692.96396	12835.5
2695.58188	12834.1
2698.19818	12782.2
2700.81285	12829.2
2703.4259	12824.9
2706.03733	12848
2708.64714	12820.6
2711.25533	12797.4
2713.86191	12824.2
2716.46687	12848.9
2719.07021	12834.8
2721.67194	12861
2724.27206	12848.5
2726.87057	12869.5
2729.46747	12858.2
2732.06276	12867.4
2734.65644	12856.4
2737.24852	12847.7
2739.83899	12846.3
2742.42786	12849.9
2745.01513	12794.2
2747.60079	12840.4
2750.18486	12806.4
2752.76733	12801
2755.3482	12756.7
2757.92747	12764.9
2760.50515	12722.3
2763.08123	12718.1
2765.65573	12707
2768.22863	12740.3
2770.79994	12722.7
2773.36967	12697.1
2775.9378	12689.5
2778.50435	12680.4
2781.06932	12686.8
2783.6327	12693.8
2786.1945	12669.7
2788.75471	12657.3
2791.31335	12657.6
2793.87041	12651.1
2796.42589	12628.1
2798.97979	12620.4
2801.53212	12588.8
2804.08288	12567.4
2806.63206	12536.4
2809.17967	12484.7
2811.72571	12481.8
2814.27018	12443.7
2816.81308	12412.7
2819.35442	12418.5
2821.89419	12391.1
2824.43239	12375.8
2826.96904	12345.2
2829.50412	12330.8
2832.03763	12323
2834.56959	12336.4
2837.1	12307.7
2839.62884	12312.8
2842.15613	12311.5
2844.68186	12350.9
2847.20604	12365
2849.72867	12350.1
2852.24974	12334.9
2854.76927	12322.9
2857.28724	12308.2
2859.80367	12263.2
2862.31855	12228.4
2864.83189	12234.4
2867.34368	12243.7
2869.85393	12233
2872.36264	12219.2
2874.8698	12209.5
2877.37543	12217.3
2879.87952	12183.5
2882.38207	12214.5
2884.88308	12177.4
2887.38256	12174.4
2889.88051	12189.5
2892.37692	12203.2
2894.8718	12201.8
2897.36515	12230.6
2899.85698	12217.5
2902.34727	12249.7
2904.83604	12285
2907.32328	12306.3
2909.809	12266.8
2912.29319	12286.7
2914.77587	12277.8
2917.25702	12257.8
2919.73665	12253.3
2922.21476	12249.1
2924.69136	12229.1
2927.16644	12236
2929.64	12247
2932.11205	12231.7
2934.58258	12200.7
2937.05161	12190.2
2939.51912	12190.3
2941.98513	12153.8
2944.44962	12135.3
2946.91261	12087.9
2949.37409	12096.9
2951.83407	12092.5
2954.29254	12076.4
2956.74951	12069.2
2959.20498	12080.6
2961.65895	12046.3
2964.11142	12069
2966.56239	12023.2
2969.01186	12021
2971.45984	11997.7
2973.90632	11969.4
2976.35131	11938
2978.7948	11907.3
2981.23681	11878.8
2983.67732	11856.9
2986.11635	11821.3
2988.55388	11830.8
2990.98993	11798.9
2993.4245	11739.4
2995.85758	11739.5
2998.28917	11705.6
3000.71928	11682.1
3003.14791	11657.3
3005.57506	11668.2
3008.00073	11621
3010.42493	11602.3
3012.84764	11588.8
3015.26888	11565
3017.68865	11519.2
3020.10694	11511.7
3022.52376	11513.1
3024.9391	11481.4
3027.35298	11490.3
3029.76539	11469.5
3032.17632	11462.6
3034.5858	11436.2
3036.9938	11450.4
3039.40034	11467.2
3041.80542	11433.1
3044.20903	11411.5
3046.61118	11424.9
3049.01187	11393.4
3051.4111	11400.2
3053.80888	11379.7
3056.20519	11339.7
3058.60005	11320.3
3060.99345	11284.5
3063.3854	11255.9
3065.7759	11216.2
3068.16494	11185.5
3070.55254	11175.6
3072.93868	11148.8
3075.32338	11104.4
3077.70662	11079.2
3080.08842	11067.6
3082.46878	11031
3084.84769	11050.8
3087.22515	11022.3
3089.60118	11071.4
3091.97576	11031.5
3094.3489	11045.9
3096.72061	11002.1
3099.09087	11002.4
3101.4597	11018.8
3103.82709	10994.9
3106.19305	10969.7
3108.55757	10959.7
3110.92066	10960.3
3113.28232	10950.8
3115.64255	10935.4
3118.00134	10925.8
3120.35871	10909.7
3122.71466	10843.8
3125.06917	10844.6
3127.42226	10824.9
3129.77393	10806.5
3132.12417	10806.7
3134.47299	10778.8
3136.82039	10783.2
3139.16636	10801.1
3141.51092	10798.1
3143.85406	10778.2
3146.19579	10802
3148.53609	10800.9
3150.87499	10793.1
3153.21246	10799.3
3155.54853	10810.1
3157.88318	10784
3160.21642	10791.9
3162.54826	10804.6
3164.87868	10796.7
3167.2077	10792
3169.5353	10794.9
3171.86151	10826.9
3174.18631	10798.2
3176.5097	10770.3
3178.83169	10769.1
3181.15228	10761.5
3183.47147	10736.4
3185.78926	10719.4
3188.10565	10726
3190.42065	10715.2
3192.73424	10714.2
3195.04645	10682
3197.35725	10693
3199.66667	10676.6
3201.97469	10684.2
3204.28132	10685.4
3206.58656	10734.5
3208.8904	10719.3
3211.19287	10718.6
3213.49394	10705.1
3215.79363	10687.5
3218.09193	10705.7
3220.38884	10707.8
3222.68438	10697
3224.97853	10690.7
3227.2713	10685.6
3229.56269	10654.9
3231.8527	10651.9
3234.14133	10647.1
3236.42858	10635.6
3238.71446	10596.1
3240.99896	10544.7
3243.28209	10554.8
3245.56384	10571.9
3247.84423	10588.4
3250.12324	10540.8
3252.40088	10524.6
3254.67715	10536.3
3256.95205	10506.1
3259.22558	10507.4
3261.49775	10480.1
3263.76855	10505.3
3266.03799	10456.5
3268.30606	10436.5
3270.57277	10430.2
3272.83812	10413.3
3275.10211	10394.3
3277.36474	10368.2
3279.62601	10361.8
3281.88593	10332.7
3284.14448	10306.5
3286.40168	10316.8
3288.65753	10346.8
3290.91202	10355.6
3293.16516	10297
3295.41695	10280.2
3297.66738	10242.3
3299.91647	10191.8
3302.16421	10098.1
3304.4106	10081.7
3306.65564	9987
3308.89933	9925.9
3311.14169	9865.6
3313.38269	9777.7
3315.62236	9719.4
3317.86068	9638.5
3320.09766	9562.3
3322.3333	9488.5
3324.5676	9460
3326.80056	9317.5
3329.03219	9233.7
3331.26248	3.9
3333.49143	1
3335.71905	0.3
