Data from AgNP_FTO_APTES_UA_10uM_CRN_1000uM_R6G_10uM_NaF_0.1M_Addition_RamanShift__6__19-28-10-983.txt Node

Date: Thu Feb 10 19:28:10 GMT 2022
User: TCL
Spectrometer: QEP01345
Trigger mode: 4
Integration Time (sec): 7.000000E0
Scans to average: 10
Electric dark correction enabled: true
Nonlinearity correction enabled: false
Boxcar width: 0
XAxis mode: Raman Shifts
Number of Pixels in Spectrum: 1044
>>>>>Begin Spectral Data<<<<<
46.04893	1.5875
50.45542	-0.5125
54.85868	-1.9125
59.25871	-2.3125
63.6555	58.1875
68.04907	63.1875
72.43941	63.4875
76.82654	64.5875
81.21044	70.4875
85.59113	68.3875
89.96862	77.9875
94.34289	76.9875
98.71396	78.6875
103.08183	83.5875
107.4465	87.1875
111.80798	83.6875
116.16626	91.2875
120.52136	92.9875
124.87327	96.8875
129.222	98.4875
133.56755	106.5875
137.90993	112.3875
142.24913	121.1875
146.58517	132.8875
150.91804	157.4875
155.24774	185.4875
159.57429	229.2875
163.89768	291.6875
168.21792	385.8875
172.53501	523.2875
176.84895	733.1875
181.15975	1040.3875
185.46741	1439.6875
189.77193	2003.8875
194.07331	2687.9875
198.37157	3457.0875
202.6667	4288.9875
206.9587	5089.8875
211.24758	5888.0875
215.53334	6670.6875
219.81599	7519.1875
224.09553	8398.6875
228.37195	9385.1875
232.64527	10480.3875
236.91549	11655.6875
241.18261	12823.9875
245.44663	13973.9875
249.70755	15029.4875
253.96539	15954.4875
258.22014	16718.8875
262.4718	17371.3875
266.72039	17833.7875
270.96589	18079.5875
275.20832	18126.8875
279.44768	18085.6875
283.68397	17882.8875
287.91719	17728.2875
292.14735	17598.5875
296.37445	17556.7875
300.59849	17597.7875
304.81948	17590.6875
309.03742	17567.8875
313.25231	17371.3875
317.46415	17136.8875
321.67296	16813.6875
325.87872	16587.6875
330.08145	16464.1875
334.28114	16456.9875
338.47781	16560.3875
342.67145	16714.3875
346.86207	16932.1875
351.04966	17153.1875
355.23424	17455.3875
359.4158	17680.6875
363.59435	17848.0875
367.76989	17996.6875
371.94243	18146.1875
376.11196	18264.0875
380.27849	18371.4875
384.44203	18443.0875
388.60257	18619.3875
392.76012	18763.4875
396.91468	18990.9875
401.06626	19166.1875
405.21485	19327.6875
409.36047	19261.1875
413.50311	19097.0875
417.64277	19061.2875
421.77947	19087.4875
425.9132	19194.0875
430.04396	19362.9875
434.17176	19436.0875
438.2966	19580.7875
442.41849	19823.2875
446.53742	20211.5875
450.6534	20694.5875
454.76644	20995.8875
458.87653	21075.9875
462.98368	21038.4875
467.08789	20982.2875
471.18916	20815.6875
475.2875	20729.7875
479.38291	20683.2875
483.4754	20634.1875
487.56496	20486.9875
491.6516	20213.4875
495.73531	19936.3875
499.81612	19683.5875
503.89401	19694.3875
507.96899	19734.7875
512.04106	19725.7875
516.11023	19691.6875
520.1765	19515.1875
524.23987	19397.3875
528.30034	19345.9875
532.35792	19229.8875
536.41261	19078.0875
540.46441	18993.6875
544.51333	18977.9875
548.55936	19161.6875
552.60252	19489.9875
556.64279	19854.9875
560.6802	20168.0875
564.71473	20354.7875
568.7464	20598.7875
572.7752	21103.6875
576.80114	21530.4875
580.82422	21876.0875
584.84444	22150.1875
588.86181	22732.6875
592.87633	23251.8875
596.888	23138.4875
600.89682	22373.5875
604.9028	22068.7875
608.90594	22864.9875
612.90624	23918.1875
616.90371	22952.0875
620.89834	20504.1875
624.89015	19386.0875
628.87913	19250.3875
632.86528	19381.0875
636.84862	19461.7875
640.82913	19290.8875
644.80683	19056.0875
648.78172	18852.9875
652.75379	18840.7875
656.72306	18937.6875
660.68952	19081.2875
664.65319	19025.9875
668.61405	18817.9875
672.57211	18778.8875
676.52738	18890.8875
680.47986	18929.9875
684.42955	18907.3875
688.37646	18832.4875
692.32058	18852.3875
696.26192	19007.0875
700.20048	19184.6875
704.13626	19281.9875
708.06928	19340.3875
711.99952	19333.1875
715.927	19281.1875
719.85171	19289.5875
723.77365	19222.0875
727.69284	19063.3875
731.60928	18909.8875
735.52295	18847.2875
739.43388	18838.5875
743.34206	18855.6875
747.24749	18952.5875
751.15017	19068.4875
755.05012	19263.4875
758.94733	19592.5875
762.8418	20238.0875
766.73354	21125.2875
770.62254	21916.0875
774.50882	22117.0875
778.39237	21488.7875
782.27321	20480.2875
786.15132	19647.1875
790.02671	19148.2875
793.89938	18890.1875
797.76935	18757.1875
801.6366	18691.4875
805.50115	18674.6875
809.36299	18618.0875
813.22213	18538.1875
817.07857	18520.7875
820.93231	18500.1875
824.78336	18439.0875
828.63172	18374.1875
832.47738	18280.2875
836.32036	18256.4875
840.16066	18249.2875
843.99827	18286.7875
847.8332	18266.5875
851.66546	18292.6875
855.49504	18288.7875
859.32195	18300.8875
863.1462	18277.9875
866.96777	18265.4875
870.78668	18245.1875
874.60293	18262.1875
878.41652	18297.6875
882.22745	18310.7875
886.03573	18341.2875
889.84136	18362.5875
893.64433	18287.2875
897.44466	18304.6875
901.24235	18231.0875
905.0374	18176.4875
908.8298	18135.9875
912.61957	18135.3875
916.40671	18227.2875
920.19121	18359.5875
923.97308	18489.3875
927.75233	18456.3875
931.52895	18315.4875
935.30295	18088.7875
939.07433	17940.1875
942.84309	17753.3875
946.60924	17624.3875
950.37278	17588.2875
954.13371	17564.5875
957.89203	17570.0875
961.64774	17549.7875
965.40086	17530.3875
969.15137	17510.7875
972.89929	17377.9875
976.64461	17305.7875
980.38733	17237.5875
984.12747	17264.7875
987.86502	17307.5875
991.59999	17387.9875
995.33237	17451.0875
999.06217	17581.4875
1002.78939	17771.9875
1006.51404	17961.0875
1010.23611	18183.7875
1013.95561	18346.4875
1017.67255	18421.5875
1021.38692	18331.2875
1025.09872	18157.2875
1028.80796	17967.9875
1032.51465	17844.4875
1036.21877	17842.4875
1039.92035	17892.0875
1043.61937	17916.9875
1047.31584	17939.4875
1051.00976	17993.7875
1054.70114	18033.4875
1058.38998	18140.8875
1062.07627	18237.4875
1065.76003	18405.4875
1069.44126	18480.3875
1073.11995	18648.3875
1076.79611	18793.6875
1080.46974	18856.3875
1084.14085	18958.3875
1087.80943	19024.4875
1091.47549	19191.4875
1095.13903	19215.7875
1098.80005	19079.5875
1102.45857	18837.3875
1106.11456	18634.1875
1109.76805	18489.9875
1113.41903	18514.6875
1117.06751	18580.3875
1120.71348	18730.7875
1124.35696	18880.7875
1127.99793	19095.3875
1131.63641	19229.7875
1135.2724	19147.1875
1138.90589	19003.8875
1142.5369	19028.2875
1146.16542	19155.7875
1149.79145	19281.2875
1153.415	19408.5875
1157.03607	19595.5875
1160.65467	20019.4875
1164.27079	20706.1875
1167.88443	21463.9875
1171.49561	22310.0875
1175.10432	23348.3875
1178.71056	24599.6875
1182.31434	25797.5875
1185.91565	26423.4875
1189.51451	26401.5875
1193.11091	25969.9875
1196.70485	25413.4875
1200.29634	24688.4875
1203.88538	24207.5875
1207.47197	23889.6875
1211.05612	23577.9875
1214.63782	23168.5875
1218.21708	22725.0875
1221.79391	22184.7875
1225.36829	21849.6875
1228.94024	21643.4875
1232.50976	21461.5875
1236.07685	21176.3875
1239.6415	21088.1875
1243.20374	21088.3875
1246.76355	21178.1875
1250.32093	21358.0875
1253.8759	21598.0875
1257.42845	21984.1875
1260.97859	22406.7875
1264.52631	22913.1875
1268.07163	23332.9875
1271.61453	23683.4875
1275.15503	24127.7875
1278.69312	24635.2875
1282.22882	25178.0875
1285.76211	25893.8875
1289.29301	26803.6875
1292.82151	27858.8875
1296.34761	29206.6875
1299.87133	30619.6875
1303.39266	31984.3875
1306.9116	33083.1875
1310.42815	33998.5875
1313.94233	34526.4875
1317.45412	34470.4875
1320.96354	34011.1875
1324.47058	33592.6875
1327.97525	33174.0875
1331.47754	32938.0875
1334.97747	32702.2875
1338.47502	32482.5875
1341.97022	32216.0875
1345.46305	31874.6875
1348.95352	31656.0875
1352.44163	31647.3875
1355.92738	32022.5875
1359.41078	32700.8875
1362.89183	33230.2875
1366.37053	32726.2875
1369.84688	30683.8875
1373.32088	28098.9875
1376.79254	26374.4875
1380.26186	25820.9875
1383.72883	25951.1875
1387.19347	26048.6875
1390.65578	26022.1875
1394.11575	26028.5875
1397.57339	26246.3875
1401.0287	26506.4875
1404.48168	26664.5875
1407.93234	26438.4875
1411.38068	25797.4875
1414.82669	25054.4875
1418.27039	24121.2875
1421.71177	23260.0875
1425.15083	22488.5875
1428.58758	22178.4875
1432.02203	22307.6875
1435.45416	22745.3875
1438.88399	23270.0875
1442.31151	23802.1875
1445.73673	24068.7875
1449.15965	24225.5875
1452.58027	24406.4875
1455.9986	24388.4875
1459.41463	24513.5875
1462.82837	24653.5875
1466.23982	24917.4875
1469.64898	25113.2875
1473.05586	25241.7875
1476.46045	25146.1875
1479.86276	24965.3875
1483.26279	24724.2875
1486.66054	24558.0875
1490.05602	24601.4875
1493.44922	24783.5875
1496.84016	25088.7875
1500.22882	25562.5875
1503.61521	26150.4875
1506.99934	26923.7875
1510.38121	27510.7875
1513.76081	27702.4875
1517.13816	27289.3875
1520.51324	26662.9875
1523.88607	26259.8875
1527.25665	26132.7875
1530.62498	26167.9875
1533.99105	26143.1875
1537.35488	25932.3875
1540.71647	25498.0875
1544.07581	24925.3875
1547.4329	24353.3875
1550.78776	23787.6875
1554.14038	23374.3875
1557.49077	23203.9875
1560.83892	23067.6875
1564.18484	23059.3875
1567.52853	23115.0875
1570.86999	23353.5875
1574.20922	23789.2875
1577.54624	24227.1875
1580.88103	24446.6875
1584.2136	24626.9875
1587.54395	25026.8875
1590.87208	25764.4875
1594.19801	26720.7875
1597.52172	27591.8875
1600.84321	27748.1875
1604.16251	26923.7875
1607.47959	25369.8875
1610.79447	23657.1875
1614.10715	22073.1875
1617.41763	20788.3875
1620.7259	19894.3875
1624.03199	19431.4875
1627.33587	19379.1875
1630.63757	19771.9875
1633.93707	20745.7875
1637.23439	22376.9875
1640.52951	24681.9875
1643.82246	27363.9875
1647.11321	29459.0875
1650.40179	29810.7875
1653.68819	27950.5875
1656.97241	24833.7875
1660.25446	21736.4875
1663.53433	19561.4875
1666.81203	18122.7875
1670.08756	17223.4875
1673.36092	16676.5875
1676.63211	16338.3875
1679.90115	16027.7875
1683.16801	15848.4875
1686.43272	15673.4875
1689.69527	15572.5875
1692.95567	15464.7875
1696.2139	15439.6875
1699.46999	15409.1875
1702.72392	15334.0875
1705.97571	15283.3875
1709.22535	15216.5875
1712.47284	15199.6875
1715.71819	15202.9875
1718.96139	15114.8875
1722.20246	15061.0875
1725.44139	15011.3875
1728.67818	14933.0875
1731.91284	14881.3875
1735.14537	14775.7875
1738.37576	14721.9875
1741.60403	14656.1875
1744.83017	14640.1875
1748.05418	14622.6875
1751.27607	14598.5875
1754.49584	14573.7875
1757.71349	14570.0875
1760.92903	14554.3875
1764.14244	14541.3875
1767.35375	14507.2875
1770.56294	14489.2875
1773.77002	14472.4875
1776.97499	14427.7875
1780.17785	14413.9875
1783.37861	14358.6875
1786.57727	14327.2875
1789.77382	14300.1875
1792.96828	14262.4875
1796.16064	14250.0875
1799.3509	14199.7875
1802.53907	14155.0875
1805.72514	14134.8875
1808.90913	14065.5875
1812.09102	14055.8875
1815.27083	14031.6875
1818.44856	13995.5875
1821.6242	13935.7875
1824.79776	13953.4875
1827.96924	13923.7875
1831.13864	13927.8875
1834.30597	13892.1875
1837.47122	13872.5875
1840.6344	13861.1875
1843.7955	13858.2875
1846.95454	13852.7875
1850.11151	13829.9875
1853.26642	13797.7875
1856.41926	13800.9875
1859.57004	13769.4875
1862.71876	13768.0875
1865.86542	13744.5875
1869.01003	13735.4875
1872.15258	13691.7875
1875.29308	13694.8875
1878.43152	13666.2875
1881.56792	13649.5875
1884.70227	13639.4875
1887.83457	13642.7875
1890.96482	13571.4875
1894.09304	13526.7875
1897.21921	13517.9875
1900.34335	13527.7875
1903.46544	13558.2875
1906.58551	13501.8875
1909.70353	13479.3875
1912.81953	13441.3875
1915.93349	13424.9875
1919.04543	13410.4875
1922.15534	13343.2875
1925.26322	13319.1875
1928.36908	13325.9875
1931.47292	13334.9875
1934.57473	13248.9875
1937.67453	13216.3875
1940.77232	13171.0875
1943.86808	13145.7875
1946.96184	13113.0875
1950.05358	13065.5875
1953.14331	13028.4875
1956.23103	12984.7875
1959.31675	12937.3875
1962.40046	12910.0875
1965.48217	12853.0875
1968.56188	12827.9875
1971.63959	12776.5875
1974.7153	12720.1875
1977.78901	12706.0875
1980.86073	12659.0875
1983.93046	12628.2875
1986.99819	12576.5875
1990.06394	12544.9875
1993.1277	12516.5875
1996.18947	12461.7875
1999.24925	12427.8875
2002.30706	12386.5875
2005.36288	12310.9875
2008.41672	12314.2875
2011.46859	12268.9875
2014.51848	12221.3875
2017.56639	12181.4875
2020.61233	12164.5875
2023.6563	12152.6875
2026.6983	12085.5875
2029.73833	12089.6875
2032.7764	12038.9875
2035.8125	12000.5875
2038.84664	11949.4875
2041.87881	11922.0875
2044.90903	11881.4875
2047.93729	11871.6875
2050.96359	11866.6875
2053.98794	11854.8875
2057.01034	11841.6875
2060.03078	11802.3875
2063.04927	11785.9875
2066.06582	11783.7875
2069.08042	11806.7875
2072.09307	11792.1875
2075.10378	11780.8875
2078.11255	11768.0875
2081.11938	11766.3875
2084.12426	11736.4875
2087.12722	11732.3875
2090.12824	11717.1875
2093.12732	11720.7875
2096.12447	11713.0875
2099.11969	11694.4875
2102.11299	11693.5875
2105.10435	11702.0875
2108.09379	11709.1875
2111.08131	11695.6875
2114.0669	11689.1875
2117.05057	11694.3875
2120.03233	11682.5875
2123.01216	11711.1875
2125.99008	11722.1875
2128.96609	11748.3875
2131.94018	11773.0875
2134.91236	11762.3875
2137.88263	11760.2875
2140.851	11733.4875
2143.81746	11764.5875
2146.78201	11761.4875
2149.74466	11754.9875
2152.7054	11742.8875
2155.66425	11738.4875
2158.6212	11711.7875
2161.57625	11708.5875
2164.52941	11686.0875
2167.48067	11675.2875
2170.43004	11675.9875
2173.37752	11680.2875
2176.32311	11666.9875
2179.26681	11662.6875
2182.20863	11676.5875
2185.14856	11632.2875
2188.08661	11658.7875
2191.02278	11640.6875
2193.95707	11644.9875
2196.88948	11622.5875
2199.82001	11610.9875
2202.74867	11584.4875
2205.67545	11575.0875
2208.60037	11563.1875
2211.52341	11538.7875
2214.44458	11524.5875
2217.36388	11499.4875
2220.28132	11468.4875
2223.1969	11419.6875
2226.11061	11404.4875
2229.02246	11369.7875
2231.93245	11343.8875
2234.84058	11365.3875
2237.74686	11318.6875
2240.65128	11303.5875
2243.55385	11274.1875
2246.45456	11241.6875
2249.35343	11234.1875
2252.25044	11235.3875
2255.14561	11198.7875
2258.03893	11175.0875
2260.93041	11146.4875
2263.82004	11097.8875
2266.70783	11096.2875
2269.59378	11056.5875
2272.4779	11011.0875
2275.36017	10967.7875
2278.24061	10986.3875
2281.11922	10942.0875
2283.996	10935.9875
2286.87094	10934.4875
2289.74405	10906.1875
2292.61534	10887.5875
2295.4848	10885.7875
2298.35243	10864.9875
2301.21824	10818.1875
2304.08223	10849.0875
2306.94439	10846.7875
2309.80474	10809.0875
2312.66327	10812.0875
2315.51999	10807.4875
2318.37489	10787.0875
2321.22797	10756.5875
2324.07925	10741.6875
2326.92871	10715.0875
2329.77637	10704.8875
2332.62222	10664.5875
2335.46626	10639.9875
2338.3085	10621.6875
2341.14893	10623.7875
2343.98756	10606.3875
2346.8244	10601.8875
2349.65943	10601.8875
2352.49267	10591.4875
2355.32411	10593.8875
2358.15376	10565.6875
2360.98161	10577.0875
2363.80768	10547.8875
2366.63195	10540.3875
2369.45444	10554.4875
2372.27514	10524.1875
2375.09405	10529.8875
2377.91118	10509.4875
2380.72652	10447.5875
2383.54009	10431.5875
2386.35187	10432.9875
2389.16188	10385.4875
2391.97011	10365.0875
2394.77657	10351.6875
2397.58125	10313.6875
2400.38416	10310.8875
2403.18529	10287.7875
2405.98466	10290.2875
2408.78226	10249.6875
2411.57809	10235.5875
2414.37216	10207.7875
2417.16446	10207.9875
2419.955	10181.8875
2422.74378	10172.8875
2425.5308	10158.6875
2428.31606	10163.6875
2431.09956	10145.7875
2433.88131	10133.1875
2436.6613	10127.7875
2439.43954	10122.8875
2442.21603	10081.1875
2444.99077	10058.1875
2447.76377	10082.9875
2450.53501	10086.1875
2453.30451	10075.9875
2456.07226	10050.2875
2458.83827	10020.6875
2461.60254	10039.8875
2464.36507	10018.6875
2467.12586	10012.5875
2469.88492	9970.2875
2472.64224	9979.8875
2475.39782	9968.0875
2478.15167	9973.2875
2480.90379	9966.8875
2483.65417	10000.3875
2486.40283	9967.1875
2489.14976	9959.3875
2491.89497	9965.4875
2494.63845	9949.8875
2497.3802	9917.9875
2500.12024	9903.6875
2502.85855	9911.7875
2505.59514	9909.4875
2508.33002	9887.8875
2511.06318	9890.5875
2513.79462	9861.5875
2516.52435	9847.2875
2519.25237	9822.2875
2521.97867	9808.4875
2524.70327	9806.9875
2527.42616	9815.4875
2530.14734	9787.0875
2532.86681	9777.1875
2535.58458	9778.2875
2538.30065	9792.0875
2541.01501	9753.5875
2543.72768	9744.3875
2546.43864	9745.5875
2549.14791	9711.7875
2551.85548	9694.0875
2554.56136	9688.6875
2557.26554	9642.6875
2559.96803	9629.4875
2562.66883	9616.9875
2565.36794	9577.3875
2568.06536	9570.1875
2570.7611	9554.5875
2573.45514	9522.6875
2576.14751	9507.5875
2578.83819	9494.8875
2581.52719	9480.6875
2584.21451	9488.7875
2586.90015	9460.0875
2589.58411	9436.8875
2592.2664	9419.3875
2594.94701	9407.9875
2597.62594	9415.1875
2600.30321	9406.7875
2602.9788	9365.3875
2605.65273	9361.1875
2608.32498	9346.7875
2610.99557	9357.2875
2613.66449	9340.9875
2616.33175	9334.4875
2618.99734	9344.2875
2621.66128	9305.6875
2624.32355	9291.5875
2626.98416	9296.7875
2629.64311	9280.0875
2632.30041	9243.1875
2634.95605	9231.8875
2637.61004	9219.2875
2640.26238	9186.7875
2642.91306	9219.3875
2645.56209	9210.3875
2648.20948	9212.7875
2650.85521	9185.1875
2653.4993	9197.9875
2656.14175	9209.0875
2658.78255	9202.6875
2661.42171	9175.8875
2664.05923	9196.8875
2666.6951	9182.8875
2669.32934	9185.9875
2671.96194	9187.2875
2674.59291	9178.1875
2677.22224	9162.2875
2679.84993	9172.0875
2682.476	9155.8875
2685.10043	9148.5875
2687.72324	9143.0875
2690.34441	9153.0875
2692.96396	9162.7875
2695.58188	9155.7875
2698.19818	9145.8875
2700.81285	9141.2875
2703.4259	9137.1875
2706.03733	9145.4875
2708.64714	9146.9875
2711.25533	9156.9875
2713.86191	9124.6875
2716.46687	9133.0875
2719.07021	9138.9875
2721.67194	9158.4875
2724.27206	9140.2875
2726.87057	9136.2875
2729.46747	9146.1875
2732.06276	9150.0875
2734.65644	9153.4875
2737.24852	9158.2875
2739.83899	9114.0875
2742.42786	9150.1875
2745.01513	9095.5875
2747.60079	9099.6875
2750.18486	9047.5875
2752.76733	9052.6875
2755.3482	9053.6875
2757.92747	9061.5875
2760.50515	9039.8875
2763.08123	9022.8875
2765.65573	9007.5875
2768.22863	9001.2875
2770.79994	8972.7875
2773.36967	8975.2875
2775.9378	8943.1875
2778.50435	8964.2875
2781.06932	8972.8875
2783.6327	8939.5875
2786.1945	8946.9875
2788.75471	8924.9875
2791.31335	8896.1875
2793.87041	8878.6875
2796.42589	8867.7875
2798.97979	8861.4875
2801.53212	8844.8875
2804.08288	8834.6875
2806.63206	8811.6875
2809.17967	8761.8875
2811.72571	8739.9875
2814.27018	8749.1875
2816.81308	8715.5875
2819.35442	8700.9875
2821.89419	8670.6875
2824.43239	8670.1875
2826.96904	8658.4875
2829.50412	8653.2875
2832.03763	8616.0875
2834.56959	8614.8875
2837.1	8636.6875
2839.62884	8628.9875
2842.15613	8653.6875
2844.68186	8654.6875
2847.20604	8682.7875
2849.72867	8682.4875
2852.24974	8679.7875
2854.76927	8659.4875
2857.28724	8647.6875
2859.80367	8606.9875
2862.31855	8614.9875
2864.83189	8593.7875
2867.34368	8586.7875
2869.85393	8550.8875
2872.36264	8545.3875
2874.8698	8544.0875
2877.37543	8556.5875
2879.87952	8522.3875
2882.38207	8510.6875
2884.88308	8505.7875
2887.38256	8528.1875
2889.88051	8507.7875
2892.37692	8516.2875
2894.8718	8513.1875
2897.36515	8519.7875
2899.85698	8511.0875
2902.34727	8524.4875
2904.83604	8539.5875
2907.32328	8562.1875
2909.809	8531.8875
2912.29319	8522.7875
2914.77587	8527.2875
2917.25702	8515.2875
2919.73665	8504.5875
2922.21476	8501.9875
2924.69136	8486.4875
2927.16644	8500.3875
2929.64	8491.2875
2932.11205	8497.9875
2934.58258	8466.8875
2937.05161	8486.6875
2939.51912	8475.6875
2941.98513	8450.9875
2944.44962	8432.8875
2946.91261	8394.9875
2949.37409	8406.0875
2951.83407	8392.3875
2954.29254	8361.4875
2956.74951	8370.7875
2959.20498	8358.3875
2961.65895	8340.3875
2964.11142	8329.8875
2966.56239	8329.6875
2969.01186	8332.2875
2971.45984	8303.4875
2973.90632	8280.3875
2976.35131	8282.0875
2978.7948	8240.9875
2981.23681	8208.4875
2983.67732	8203.7875
2986.11635	8178.5875
2988.55388	8159.3875
2990.98993	8134.1875
2993.4245	8095.6875
2995.85758	8050.2875
2998.28917	8064.4875
3000.71928	8050.4875
3003.14791	8013.3875
3005.57506	7997.8875
3008.00073	7985.3875
3010.42493	7975.1875
3012.84764	7956.2875
3015.26888	7919.8875
3017.68865	7927.2875
3020.10694	7926.5875
3022.52376	7907.8875
3024.9391	7885.3875
3027.35298	7900.3875
3029.76539	7864.5875
3032.17632	7872.7875
3034.5858	7886.5875
3036.9938	7865.1875
3039.40034	7859.8875
3041.80542	7841.5875
3044.20903	7828.3875
3046.61118	7824.0875
3049.01187	7801.0875
3051.4111	7809.7875
3053.80888	7778.0875
3056.20519	7753.0875
3058.60005	7735.2875
3060.99345	7710.2875
3063.3854	7693.5875
3065.7759	7657.6875
3068.16494	7660.7875
3070.55254	7640.9875
3072.93868	7627.7875
3075.32338	7600.1875
3077.70662	7594.9875
3080.08842	7576.7875
3082.46878	7575.2875
3084.84769	7561.6875
3087.22515	7536.9875
3089.60118	7550.1875
3091.97576	7546.6875
3094.3489	7510.4875
3096.72061	7537.9875
3099.09087	7518.5875
3101.4597	7531.8875
3103.82709	7489.5875
3106.19305	7509.1875
3108.55757	7492.3875
3110.92066	7472.5875
3113.28232	7465.3875
3115.64255	7460.2875
3118.00134	7447.1875
3120.35871	7428.5875
3122.71466	7442.2875
3125.06917	7413.2875
3127.42226	7376.7875
3129.77393	7386.7875
3132.12417	7384.1875
3134.47299	7356.8875
3136.82039	7362.1875
3139.16636	7349.1875
3141.51092	7371.4875
3143.85406	7352.2875
3146.19579	7369.8875
3148.53609	7350.7875
3150.87499	7351.0875
3153.21246	7378.4875
3155.54853	7398.3875
3157.88318	7386.6875
3160.21642	7368.9875
3162.54826	7351.4875
3164.87868	7379.6875
3167.2077	7360.9875
3169.5353	7390.2875
3171.86151	7372.4875
3174.18631	7354.8875
3176.5097	7365.7875
3178.83169	7355.5875
3181.15228	7350.0875
3183.47147	7343.9875
3185.78926	7338.5875
3188.10565	7329.9875
3190.42065	7341.7875
3192.73424	7286.1875
3195.04645	7280.3875
3197.35725	7315.6875
3199.66667	7296.4875
3201.97469	7295.5875
3204.28132	7284.2875
3206.58656	7304.7875
3208.8904	7303.5875
3211.19287	7304.2875
3213.49394	7282.8875
3215.79363	7293.0875
3218.09193	7294.8875
3220.38884	7301.8875
3222.68438	7291.8875
3224.97853	7283.8875
3227.2713	7265.8875
3229.56269	7255.2875
3231.8527	7235.2875
3234.14133	7232.0875
3236.42858	7230.1875
3238.71446	7230.3875
3240.99896	7184.9875
3243.28209	7179.2875
3245.56384	7178.2875
3247.84423	7181.9875
3250.12324	7184.2875
3252.40088	7162.6875
3254.67715	7153.7875
3256.95205	7145.2875
3259.22558	7138.2875
3261.49775	7099.4875
3263.76855	7102.2875
3266.03799	7083.8875
3268.30606	7093.6875
3270.57277	7080.3875
3272.83812	7042.9875
3275.10211	7019.7875
3277.36474	7008.9875
3279.62601	7001.4875
3281.88593	7010.3875
3284.14448	7000.9875
3286.40168	6977.2875
3288.65753	7009.2875
3290.91202	6988.5875
3293.16516	6978.4875
3295.41695	6958.1875
3297.66738	6924.2875
3299.91647	6893.2875
3302.16421	6833.0875
3304.4106	6776.2875
3306.65564	6744.7875
3308.89933	6701.3875
3311.14169	6637.8875
3313.38269	6582.3875
3315.62236	6548.7875
3317.86068	6477.2875
3320.09766	6423.3875
3322.3333	6395.9875
3324.5676	6369.2875
3326.80056	6270.6875
3329.03219	6211.8875
3331.26248	3.1875
3333.49143	1.6875
3335.71905	-1.3125
