Data from AgNP_FTO_APTES_UA_10uM_CRN_5uM_R6G_10uM_NaF_0.1M_Addition_RamanShift__5__14-48-10-637.txt Node

Date: Thu Feb 10 14:48:10 GMT 2022
User: TCL
Spectrometer: QEP01345
Trigger mode: 4
Integration Time (sec): 7.000000E0
Scans to average: 10
Electric dark correction enabled: true
Nonlinearity correction enabled: false
Boxcar width: 0
XAxis mode: Raman Shifts
Number of Pixels in Spectrum: 1044
>>>>>Begin Spectral Data<<<<<
46.04893	0.0875
50.45542	-0.5125
54.85868	-1.7125
59.25871	-2.6125
63.6555	77.5875
68.04907	77.4875
72.43941	83.6875
76.82654	81.9875
81.21044	87.1875
85.59113	87.2875
89.96862	94.5875
94.34289	95.3875
98.71396	97.0875
103.08183	103.9875
107.4465	105.9875
111.80798	104.4875
116.16626	107.6875
120.52136	117.5875
124.87327	123.1875
129.222	125.1875
133.56755	137.0875
137.90993	144.1875
142.24913	156.4875
146.58517	175.6875
150.91804	206.3875
155.24774	247.5875
159.57429	306.3875
163.89768	395.4875
168.21792	522.0875
172.53501	718.3875
176.84895	1002.5875
181.15975	1408.3875
185.46741	1965.6875
189.77193	2721.3875
194.07331	3603.3875
198.37157	4647.2875
202.6667	5728.2875
206.9587	6790.1875
211.24758	7866.5875
215.53334	8915.7875
219.81599	10064.6875
224.09553	11321.5875
228.37195	12682.2875
232.64527	14220.3875
236.91549	15783.6875
241.18261	17356.8875
245.44663	18747.1875
249.70755	20023.9875
253.96539	21177.9875
258.22014	22127.5875
262.4718	22887.7875
266.72039	23422.1875
270.96589	23736.1875
275.20832	23761.1875
279.44768	23615.0875
283.68397	23381.3875
287.91719	23175.4875
292.14735	23090.3875
296.37445	23110.1875
300.59849	23156.1875
304.81948	23303.3875
309.03742	23327.1875
313.25231	23176.9875
317.46415	22915.4875
321.67296	22420.4875
325.87872	21996.6875
330.08145	21770.3875
334.28114	21747.9875
338.47781	21870.6875
342.67145	22177.4875
346.86207	22595.5875
351.04966	23015.4875
355.23424	23446.4875
359.4158	23781.4875
363.59435	24053.5875
367.76989	24236.2875
371.94243	24400.9875
376.11196	24504.2875
380.27849	24598.1875
384.44203	24779.4875
388.60257	24950.4875
392.76012	25255.9875
396.91468	25552.2875
401.06626	25917.8875
405.21485	26134.2875
409.36047	26035.6875
413.50311	25848.3875
417.64277	25804.3875
421.77947	26003.0875
425.9132	26233.2875
430.04396	26410.8875
434.17176	26484.6875
438.2966	26584.8875
442.41849	26994.1875
446.53742	27840.6875
450.6534	28745.1875
454.76644	29376.1875
458.87653	29475.1875
462.98368	29143.7875
467.08789	28676.1875
471.18916	28020.3875
475.2875	27380.4875
479.38291	26989.7875
483.4754	26706.0875
487.56496	26407.3875
491.6516	26015.9875
495.73531	25760.4875
499.81612	25653.1875
503.89401	25832.8875
507.96899	26009.3875
512.04106	26021.6875
516.11023	25772.6875
520.1765	25477.1875
524.23987	25244.7875
528.30034	25020.5875
532.35792	24764.3875
536.41261	24448.4875
540.46441	24116.0875
544.51333	24070.8875
548.55936	24328.1875
552.60252	24913.6875
556.64279	25619.2875
560.6802	26172.3875
564.71473	26436.8875
568.7464	26809.0875
572.7752	27681.4875
576.80114	28683.4875
580.82422	29818.7875
584.84444	31323.2875
588.86181	33166.7875
592.87633	34488.9875
596.888	33923.9875
600.89682	31869.9875
604.9028	31023.4875
608.90594	32517.0875
612.90624	34173.4875
616.90371	31798.5875
620.89834	27214.9875
624.89015	25323.2875
628.87913	25066.8875
632.86528	25098.7875
636.84862	24937.6875
640.82913	24431.8875
644.80683	23796.1875
648.78172	23506.7875
652.75379	23524.6875
656.72306	23836.6875
660.68952	24109.5875
664.65319	23984.3875
668.61405	23573.7875
672.57211	23503.8875
676.52738	23656.3875
680.47986	23609.7875
684.42955	23375.5875
688.37646	23337.4875
692.32058	23557.8875
696.26192	24011.6875
700.20048	24449.6875
704.13626	24602.6875
708.06928	24550.1875
711.99952	24384.0875
715.927	24381.8875
719.85171	24565.3875
723.77365	24461.7875
727.69284	23992.5875
731.60928	23607.3875
735.52295	23527.8875
739.43388	23477.5875
743.34206	23600.2875
747.24749	23767.6875
751.15017	24051.5875
755.05012	24528.9875
758.94733	25258.8875
762.8418	26459.8875
766.73354	28197.3875
770.62254	29622.9875
774.50882	29648.6875
778.39237	28282.7875
782.27321	26521.5875
786.15132	25096.9875
790.02671	24302.8875
793.89938	23843.3875
797.76935	23721.6875
801.6366	23688.5875
805.50115	23676.6875
809.36299	23514.5875
813.22213	23279.4875
817.07857	23103.4875
820.93231	22955.0875
824.78336	22803.1875
828.63172	22713.2875
832.47738	22680.0875
836.32036	22709.9875
840.16066	22786.7875
843.99827	22833.5875
847.8332	22814.3875
851.66546	22798.6875
855.49504	22818.9875
859.32195	22821.7875
863.1462	22737.6875
866.96777	22624.9875
870.78668	22576.0875
874.60293	22605.1875
878.41652	22619.3875
882.22745	22715.8875
886.03573	22734.9875
889.84136	22706.1875
893.64433	22613.5875
897.44466	22532.9875
901.24235	22468.3875
905.0374	22379.2875
908.8298	22331.3875
912.61957	22398.1875
916.40671	22577.9875
920.19121	22946.2875
923.97308	23318.7875
927.75233	23396.1875
931.52895	23125.1875
935.30295	22733.2875
939.07433	22342.6875
942.84309	22083.3875
946.60924	21970.1875
950.37278	21948.1875
954.13371	21936.5875
957.89203	21880.9875
961.64774	21860.9875
965.40086	21886.8875
969.15137	21818.6875
972.89929	21744.2875
976.64461	21696.6875
980.38733	21724.5875
984.12747	21804.6875
987.86502	21985.0875
991.59999	22243.7875
995.33237	22601.6875
999.06217	23217.9875
1002.78939	23991.6875
1006.51404	24621.3875
1010.23611	25101.8875
1013.95561	25426.2875
1017.67255	25429.7875
1021.38692	25077.9875
1025.09872	24595.4875
1028.80796	24502.8875
1032.51465	24905.2875
1036.21877	25505.8875
1039.92035	25682.0875
1043.61937	25481.8875
1047.31584	24989.6875
1051.00976	24452.3875
1054.70114	24129.7875
1058.38998	24123.3875
1062.07627	24310.9875
1065.76003	24459.1875
1069.44126	24732.4875
1073.11995	25130.8875
1076.79611	25517.6875
1080.46974	25781.0875
1084.14085	25988.8875
1087.80943	26270.8875
1091.47549	26500.3875
1095.13903	26455.8875
1098.80005	26093.7875
1102.45857	25526.8875
1106.11456	25062.2875
1109.76805	24933.1875
1113.41903	24907.9875
1117.06751	25016.6875
1120.71348	25174.5875
1124.35696	25408.9875
1127.99793	25659.7875
1131.63641	25830.5875
1135.2724	25824.4875
1138.90589	25829.3875
1142.5369	25924.1875
1146.16542	26167.1875
1149.79145	26313.5875
1153.415	26603.4875
1157.03607	27102.2875
1160.65467	28016.9875
1164.27079	29562.2875
1167.88443	31339.3875
1171.49561	33206.3875
1175.10432	35384.0875
1178.71056	38307.1875
1182.31434	41129.3875
1185.91565	42461.6875
1189.51451	42037.5875
1193.11091	40646.8875
1196.70485	39082.5875
1200.29634	37690.3875
1203.88538	36731.6875
1207.47197	36391.0875
1211.05612	36062.0875
1214.63782	35403.3875
1218.21708	34454.7875
1221.79391	33544.4875
1225.36829	32917.8875
1228.94024	32408.7875
1232.50976	31753.3875
1236.07685	31067.3875
1239.6415	30627.6875
1243.20374	30541.4875
1246.76355	30841.5875
1250.32093	31432.7875
1253.8759	32219.7875
1257.42845	33173.5875
1260.97859	34197.9875
1264.52631	35403.7875
1268.07163	36714.9875
1271.61453	37982.6875
1275.15503	39187.7875
1278.69312	40358.3875
1282.22882	41456.6875
1285.76211	42809.7875
1289.29301	44397.9875
1292.82151	46510.1875
1296.34761	49263.2875
1299.87133	52735.1875
1303.39266	56575.6875
1306.9116	60088.8875
1310.42815	62687.1875
1313.94233	63760.4875
1317.45412	62874.1875
1320.96354	61183.1875
1324.47058	59854.1875
1327.97525	58916.6875
1331.47754	58497.5875
1334.97747	58118.7875
1338.47502	57556.4875
1341.97022	56570.7875
1345.46305	55150.2875
1348.95352	54053.8875
1352.44163	53740.4875
1355.92738	54950.2875
1359.41078	57337.5875
1362.89183	58979.9875
1366.37053	57607.4875
1369.84688	52933.4875
1373.32088	47098.4875
1376.79254	43178.9875
1380.26186	41967.2875
1383.72883	42252.5875
1387.19347	42451.1875
1390.65578	42136.8875
1394.11575	42194.1875
1397.57339	42962.1875
1401.0287	44036.5875
1404.48168	44956.7875
1407.93234	45123.6875
1411.38068	44472.5875
1414.82669	43043.9875
1418.27039	41109.3875
1421.71177	39120.6875
1425.15083	37500.2875
1428.58758	36879.2875
1432.02203	37550.9875
1435.45416	38903.4875
1438.88399	40484.2875
1442.31151	41568.1875
1445.73673	41990.6875
1449.15965	42063.7875
1452.58027	41855.0875
1455.9986	41590.6875
1459.41463	41776.9875
1462.82837	42514.9875
1466.23982	43441.0875
1469.64898	44249.5875
1473.05586	44723.1875
1476.46045	44650.7875
1479.86276	44148.2875
1483.26279	43338.4875
1486.66054	42952.1875
1490.05602	42932.5875
1493.44922	42991.8875
1496.84016	43137.4875
1500.22882	43419.9875
1503.61521	44135.0875
1506.99934	44965.2875
1510.38121	45635.6875
1513.76081	45433.6875
1517.13816	44567.2875
1520.51324	43441.4875
1523.88607	42763.6875
1527.25665	42898.0875
1530.62498	43308.8875
1533.99105	43606.0875
1537.35488	43280.7875
1540.71647	42579.2875
1544.07581	41436.7875
1547.4329	40142.1875
1550.78776	39014.4875
1554.14038	38164.4875
1557.49077	37598.0875
1560.83892	37158.6875
1564.18484	36886.4875
1567.52853	36878.4875
1570.86999	37102.9875
1574.20922	37841.0875
1577.54624	38508.2875
1580.88103	38979.8875
1584.2136	39826.7875
1587.54395	41766.9875
1590.87208	44777.1875
1594.19801	48361.7875
1597.52172	51730.9875
1600.84321	52488.7875
1604.16251	49835.2875
1607.47959	44981.0875
1610.79447	40025.9875
1614.10715	35787.4875
1617.41763	32597.6875
1620.7259	30541.5875
1624.03199	29697.5875
1627.33587	29892.4875
1630.63757	31090.8875
1633.93707	33609.3875
1637.23439	37674.3875
1640.52951	43477.6875
1643.82246	50117.7875
1647.11321	54728.0875
1650.40179	54401.6875
1653.68819	48829.8875
1656.97241	41066.4875
1660.25446	34249.9875
1663.53433	29556.0875
1666.81203	26664.9875
1670.08756	24900.3875
1673.36092	23750.8875
1676.63211	23016.5875
1679.90115	22503.2875
1683.16801	22103.4875
1686.43272	21836.3875
1689.69527	21622.5875
1692.95567	21470.9875
1696.2139	21391.1875
1699.46999	21269.9875
1702.72392	21221.9875
1705.97571	21124.2875
1709.22535	21080.4875
1712.47284	20992.3875
1715.71819	20986.0875
1718.96139	20903.3875
1722.20246	20832.5875
1725.44139	20700.1875
1728.67818	20576.7875
1731.91284	20457.6875
1735.14537	20327.8875
1738.37576	20232.2875
1741.60403	20181.0875
1744.83017	20070.8875
1748.05418	20004.3875
1751.27607	19975.7875
1754.49584	19957.2875
1757.71349	19992.5875
1760.92903	19942.1875
1764.14244	19954.7875
1767.35375	19911.3875
1770.56294	19848.3875
1773.77002	19840.5875
1776.97499	19786.0875
1780.17785	19712.2875
1783.37861	19680.1875
1786.57727	19660.5875
1789.77382	19635.1875
1792.96828	19549.5875
1796.16064	19547.8875
1799.3509	19497.5875
1802.53907	19502.1875
1805.72514	19425.3875
1808.90913	19355.8875
1812.09102	19356.7875
1815.27083	19296.9875
1818.44856	19256.7875
1821.6242	19238.0875
1824.79776	19233.3875
1827.96924	19233.8875
1831.13864	19182.1875
1834.30597	19226.0875
1837.47122	19209.5875
1840.6344	19222.0875
1843.7955	19269.8875
1846.95454	19247.6875
1850.11151	19225.0875
1853.26642	19195.6875
1856.41926	19200.6875
1859.57004	19165.5875
1862.71876	19171.2875
1865.86542	19112.4875
1869.01003	19090.9875
1872.15258	19082.7875
1875.29308	19094.6875
1878.43152	19029.5875
1881.56792	19061.8875
1884.70227	19050.5875
1887.83457	19060.0875
1890.96482	18966.6875
1894.09304	18978.3875
1897.21921	18919.9875
1900.34335	18919.9875
1903.46544	18940.8875
1906.58551	18823.6875
1909.70353	18811.4875
1912.81953	18811.7875
1915.93349	18805.8875
1919.04543	18726.8875
1922.15534	18702.2875
1925.26322	18673.1875
1928.36908	18643.5875
1931.47292	18620.8875
1934.57473	18565.2875
1937.67453	18532.3875
1940.77232	18482.9875
1943.86808	18409.4875
1946.96184	18362.8875
1950.05358	18292.7875
1953.14331	18262.0875
1956.23103	18175.1875
1959.31675	18150.2875
1962.40046	18096.1875
1965.48217	18036.8875
1968.56188	17972.8875
1971.63959	17933.2875
1974.7153	17896.5875
1977.78901	17856.6875
1980.86073	17771.0875
1983.93046	17746.9875
1986.99819	17707.0875
1990.06394	17668.2875
1993.1277	17617.3875
1996.18947	17548.9875
1999.24925	17499.7875
2002.30706	17449.2875
2005.36288	17383.5875
2008.41672	17393.5875
2011.46859	17291.4875
2014.51848	17288.8875
2017.56639	17249.2875
2020.61233	17216.6875
2023.6563	17171.3875
2026.6983	17179.5875
2029.73833	17157.8875
2032.7764	17131.3875
2035.8125	17096.5875
2038.84664	16995.8875
2041.87881	17004.7875
2044.90903	16989.9875
2047.93729	16968.6875
2050.96359	16948.3875
2053.98794	16915.7875
2057.01034	16913.6875
2060.03078	16884.2875
2063.04927	16878.3875
2066.06582	16872.5875
2069.08042	16865.9875
2072.09307	16867.6875
2075.10378	16854.4875
2078.11255	16799.6875
2081.11938	16798.4875
2084.12426	16788.6875
2087.12722	16787.3875
2090.12824	16760.7875
2093.12732	16782.0875
2096.12447	16800.6875
2099.11969	16783.3875
2102.11299	16793.9875
2105.10435	16760.4875
2108.09379	16790.8875
2111.08131	16805.0875
2114.0669	16804.4875
2117.05057	16822.5875
2120.03233	16811.7875
2123.01216	16843.5875
2125.99008	16871.1875
2128.96609	16863.8875
2131.94018	16896.6875
2134.91236	16916.7875
2137.88263	16915.7875
2140.851	16903.5875
2143.81746	16896.2875
2146.78201	16948.2875
2149.74466	16912.8875
2152.7054	16917.5875
2155.66425	16875.2875
2158.6212	16897.4875
2161.57625	16908.8875
2164.52941	16912.9875
2167.48067	16911.8875
2170.43004	16901.0875
2173.37752	16904.2875
2176.32311	16870.3875
2179.26681	16872.2875
2182.20863	16906.5875
2185.14856	16894.9875
2188.08661	16922.6875
2191.02278	16938.2875
2193.95707	16916.6875
2196.88948	16907.1875
2199.82001	16885.2875
2202.74867	16868.6875
2205.67545	16811.7875
2208.60037	16845.6875
2211.52341	16827.5875
2214.44458	16824.3875
2217.36388	16793.0875
2220.28132	16746.2875
2223.1969	16717.5875
2226.11061	16720.5875
2229.02246	16690.6875
2231.93245	16646.1875
2234.84058	16650.0875
2237.74686	16624.7875
2240.65128	16629.7875
2243.55385	16594.0875
2246.45456	16536.6875
2249.35343	16539.7875
2252.25044	16497.6875
2255.14561	16491.4875
2258.03893	16477.0875
2260.93041	16424.1875
2263.82004	16361.4875
2266.70783	16340.9875
2269.59378	16245.7875
2272.4779	16211.6875
2275.36017	16161.3875
2278.24061	16133.3875
2281.11922	16156.9875
2283.996	16129.4875
2286.87094	16118.9875
2289.74405	16124.3875
2292.61534	16130.1875
2295.4848	16143.5875
2298.35243	16130.5875
2301.21824	16128.4875
2304.08223	16157.8875
2306.94439	16161.7875
2309.80474	16147.7875
2312.66327	16161.4875
2315.51999	16132.0875
2318.37489	16169.3875
2321.22797	16116.8875
2324.07925	16081.3875
2326.92871	16091.5875
2329.77637	16092.4875
2332.62222	16098.1875
2335.46626	16084.3875
2338.3085	16079.4875
2341.14893	16073.1875
2343.98756	16114.4875
2346.8244	16114.4875
2349.65943	16089.8875
2352.49267	16081.4875
2355.32411	16035.7875
2358.15376	16068.6875
2360.98161	16066.0875
2363.80768	16041.4875
2366.63195	16055.9875
2369.45444	16002.2875
2372.27514	15953.8875
2375.09405	15943.3875
2377.91118	15888.7875
2380.72652	15897.1875
2383.54009	15853.7875
2386.35187	15841.3875
2389.16188	15814.7875
2391.97011	15754.6875
2394.77657	15740.6875
2397.58125	15751.6875
2400.38416	15748.6875
2403.18529	15724.0875
2405.98466	15677.3875
2408.78226	15643.8875
2411.57809	15627.6875
2414.37216	15636.1875
2417.16446	15638.0875
2419.955	15619.9875
2422.74378	15581.6875
2425.5308	15553.3875
2428.31606	15589.9875
2431.09956	15555.7875
2433.88131	15569.6875
2436.6613	15569.7875
2439.43954	15571.2875
2442.21603	15604.2875
2444.99077	15567.3875
2447.76377	15554.6875
2450.53501	15553.0875
2453.30451	15511.3875
2456.07226	15521.8875
2458.83827	15539.3875
2461.60254	15570.9875
2464.36507	15557.2875
2467.12586	15567.0875
2469.88492	15536.5875
2472.64224	15539.2875
2475.39782	15560.5875
2478.15167	15581.0875
2480.90379	15593.4875
2483.65417	15622.9875
2486.40283	15667.8875
2489.14976	15646.8875
2491.89497	15618.8875
2494.63845	15636.4875
2497.3802	15631.4875
2500.12024	15646.2875
2502.85855	15608.6875
2505.59514	15598.8875
2508.33002	15577.5875
2511.06318	15579.6875
2513.79462	15580.2875
2516.52435	15570.0875
2519.25237	15591.5875
2521.97867	15577.2875
2524.70327	15558.9875
2527.42616	15558.6875
2530.14734	15595.9875
2532.86681	15555.6875
2535.58458	15567.0875
2538.30065	15554.3875
2541.01501	15552.8875
2543.72768	15547.2875
2546.43864	15557.5875
2549.14791	15565.1875
2551.85548	15535.7875
2554.56136	15516.5875
2557.26554	15539.8875
2559.96803	15522.6875
2562.66883	15488.9875
2565.36794	15475.3875
2568.06536	15448.9875
2570.7611	15434.7875
2573.45514	15460.9875
2576.14751	15465.3875
2578.83819	15416.2875
2581.52719	15434.9875
2584.21451	15432.0875
2586.90015	15421.8875
2589.58411	15436.2875
2592.2664	15424.4875
2594.94701	15421.1875
2597.62594	15401.7875
2600.30321	15397.3875
2602.9788	15415.7875
2605.65273	15441.9875
2608.32498	15440.1875
2610.99557	15399.4875
2613.66449	15451.5875
2616.33175	15451.4875
2618.99734	15442.3875
2621.66128	15481.2875
2624.32355	15434.7875
2626.98416	15417.7875
2629.64311	15415.3875
2632.30041	15406.1875
2634.95605	15378.4875
2637.61004	15358.6875
2640.26238	15349.0875
2642.91306	15351.2875
2645.56209	15360.3875
2648.20948	15353.7875
2650.85521	15351.2875
2653.4993	15378.5875
2656.14175	15371.9875
2658.78255	15400.7875
2661.42171	15416.7875
2664.05923	15440.2875
2666.6951	15440.2875
2669.32934	15444.9875
2671.96194	15445.6875
2674.59291	15480.1875
2677.22224	15477.2875
2679.84993	15496.6875
2682.476	15396.6875
2685.10043	15460.1875
2687.72324	15394.4875
2690.34441	15424.1875
2692.96396	15443.0875
2695.58188	15446.5875
2698.19818	15410.7875
2700.81285	15444.2875
2703.4259	15435.0875
2706.03733	15509.9875
2708.64714	15492.8875
2711.25533	15514.0875
2713.86191	15508.2875
2716.46687	15486.9875
2719.07021	15516.2875
2721.67194	15557.4875
2724.27206	15546.6875
2726.87057	15558.7875
2729.46747	15536.3875
2732.06276	15578.5875
2734.65644	15572.6875
2737.24852	15590.6875
2739.83899	15605.3875
2742.42786	15613.4875
2745.01513	15546.8875
2747.60079	15560.6875
2750.18486	15546.2875
2752.76733	15556.5875
2755.3482	15513.1875
2757.92747	15531.0875
2760.50515	15549.7875
2763.08123	15547.7875
2765.65573	15510.6875
2768.22863	15541.5875
2770.79994	15511.1875
2773.36967	15555.2875
2775.9378	15555.9875
2778.50435	15540.1875
2781.06932	15508.7875
2783.6327	15542.4875
2786.1945	15558.1875
2788.75471	15522.0875
2791.31335	15489.3875
2793.87041	15503.2875
2796.42589	15463.8875
2798.97979	15497.0875
2801.53212	15428.5875
2804.08288	15432.7875
2806.63206	15421.8875
2809.17967	15387.3875
2811.72571	15346.1875
2814.27018	15352.4875
2816.81308	15293.2875
2819.35442	15222.5875
2821.89419	15208.0875
2824.43239	15196.6875
2826.96904	15164.4875
2829.50412	15177.2875
2832.03763	15151.9875
2834.56959	15139.3875
2837.1	15130.7875
2839.62884	15169.8875
2842.15613	15145.8875
2844.68186	15199.9875
2847.20604	15163.7875
2849.72867	15174.7875
2852.24974	15164.7875
2854.76927	15150.0875
2857.28724	15117.9875
2859.80367	15081.5875
2862.31855	15061.9875
2864.83189	15072.5875
2867.34368	15026.9875
2869.85393	15069.7875
2872.36264	15047.2875
2874.8698	15045.7875
2877.37543	15042.0875
2879.87952	15044.7875
2882.38207	15067.5875
2884.88308	15012.2875
2887.38256	15040.3875
2889.88051	15087.3875
2892.37692	15041.0875
2894.8718	15107.8875
2897.36515	15126.3875
2899.85698	15164.1875
2902.34727	15191.6875
2904.83604	15197.7875
2907.32328	15209.0875
2909.809	15196.9875
2912.29319	15211.3875
2914.77587	15211.1875
2917.25702	15188.8875
2919.73665	15171.1875
2922.21476	15206.3875
2924.69136	15184.9875
2927.16644	15163.0875
2929.64	15155.0875
2932.11205	15142.7875
2934.58258	15095.4875
2937.05161	15137.5875
2939.51912	15114.5875
2941.98513	15101.9875
2944.44962	15064.1875
2946.91261	15007.5875
2949.37409	15068.0875
2951.83407	15037.6875
2954.29254	15027.1875
2956.74951	15009.2875
2959.20498	14999.9875
2961.65895	15000.9875
2964.11142	15038.2875
2966.56239	14990.3875
2969.01186	14999.1875
2971.45984	14915.8875
2973.90632	14950.7875
2976.35131	14898.8875
2978.7948	14866.0875
2981.23681	14850.3875
2983.67732	14821.0875
2986.11635	14741.9875
2988.55388	14708.4875
2990.98993	14693.3875
2993.4245	14668.8875
2995.85758	14649.2875
2998.28917	14585.9875
3000.71928	14602.5875
3003.14791	14559.7875
3005.57506	14570.4875
3008.00073	14519.3875
3010.42493	14349.1875
3012.84764	14435.6875
3015.26888	14403.6875
3017.68865	14397.4875
3020.10694	14360.9875
3022.52376	14324.9875
3024.9391	14327.1875
3027.35298	14288.4875
3029.76539	14317.8875
3032.17632	14340.4875
3034.5858	14301.7875
3036.9938	14307.0875
3039.40034	14285.4875
3041.80542	14290.8875
3044.20903	14291.3875
3046.61118	14295.0875
3049.01187	14217.0875
3051.4111	14236.2875
3053.80888	14199.8875
3056.20519	14181.9875
3058.60005	14143.8875
3060.99345	14118.2875
3063.3854	14046.2875
3065.7759	14004.7875
3068.16494	14010.2875
3070.55254	13978.0875
3072.93868	13937.1875
3075.32338	13842.1875
3077.70662	13840.4875
3080.08842	13817.9875
3082.46878	13800.1875
3084.84769	13812.7875
3087.22515	13792.5875
3089.60118	13810.6875
3091.97576	13756.2875
3094.3489	13755.8875
3096.72061	13769.8875
3099.09087	13765.5875
3101.4597	13722.3875
3103.82709	13734.3875
3106.19305	13734.3875
3108.55757	13711.9875
3110.92066	13670.8875
3113.28232	13665.3875
3115.64255	13639.3875
3118.00134	13581.6875
3120.35871	13581.6875
3122.71466	13526.9875
3125.06917	13510.9875
3127.42226	13487.9875
3129.77393	13491.4875
3132.12417	13467.0875
3134.47299	13438.7875
3136.82039	13449.7875
3139.16636	13450.6875
3141.51092	13454.6875
3143.85406	13434.3875
3146.19579	13422.1875
3148.53609	13427.7875
3150.87499	13399.5875
3153.21246	13441.8875
3155.54853	13427.9875
3157.88318	13426.3875
3160.21642	13434.5875
3162.54826	13437.6875
3164.87868	13440.1875
3167.2077	13443.3875
3169.5353	13443.9875
3171.86151	13453.4875
3174.18631	13418.6875
3176.5097	13398.3875
3178.83169	13366.1875
3181.15228	13376.8875
3183.47147	13360.3875
3185.78926	13368.0875
3188.10565	13318.0875
3190.42065	13320.9875
3192.73424	13323.3875
3195.04645	13315.8875
3197.35725	13322.9875
3199.66667	13320.0875
3201.97469	13321.8875
3204.28132	13301.8875
3206.58656	13320.2875
3208.8904	13323.7875
3211.19287	13278.5875
3213.49394	13310.3875
3215.79363	13297.7875
3218.09193	13320.2875
3220.38884	13308.0875
3222.68438	13317.2875
3224.97853	13307.8875
3227.2713	13294.7875
3229.56269	13292.1875
3231.8527	13276.0875
3234.14133	13227.6875
3236.42858	13240.4875
3238.71446	13203.5875
3240.99896	13185.0875
3243.28209	13183.7875
3245.56384	13172.6875
3247.84423	13174.5875
3250.12324	13144.6875
3252.40088	13120.7875
3254.67715	13090.9875
3256.95205	13063.4875
3259.22558	13041.3875
3261.49775	13032.4875
3263.76855	13036.6875
3266.03799	13017.4875
3268.30606	12991.5875
3270.57277	12958.9875
3272.83812	12950.6875
3275.10211	12931.1875
3277.36474	12904.7875
3279.62601	12897.6875
3281.88593	12893.3875
3284.14448	12893.2875
3286.40168	12872.1875
3288.65753	12929.9875
3290.91202	12887.3875
3293.16516	12859.1875
3295.41695	12867.5875
3297.66738	12795.3875
3299.91647	12688.9875
3302.16421	12620.0875
3304.4106	12535.1875
3306.65564	12479.1875
3308.89933	12388.7875
3311.14169	12293.7875
3313.38269	12190.7875
3315.62236	12118.1875
3317.86068	12010.2875
3320.09766	11919.2875
3322.3333	11833.2875
3324.5676	11798.3875
3326.80056	11622.5875
3329.03219	11555.9875
3331.26248	5.9875
3333.49143	0.8875
3335.71905	-0.9125
