Data from AgNP_FTO_APTES_UA_10uM_CRN_5uM_R6G_10uM_NaF_0.1M_Addition_RamanShift__8__14-51-40-642.txt Node

Date: Thu Feb 10 14:51:40 GMT 2022
User: TCL
Spectrometer: QEP01345
Trigger mode: 4
Integration Time (sec): 7.000000E0
Scans to average: 10
Electric dark correction enabled: true
Nonlinearity correction enabled: false
Boxcar width: 0
XAxis mode: Raman Shifts
Number of Pixels in Spectrum: 1044
>>>>>Begin Spectral Data<<<<<
46.04893	-0.6625
50.45542	0.8375
54.85868	-1.9625
59.25871	-0.9625
63.6555	76.2375
68.04907	77.9375
72.43941	86.8375
76.82654	83.7375
81.21044	90.4375
85.59113	89.4375
89.96862	95.6375
94.34289	96.5375
98.71396	98.6375
103.08183	106.2375
107.4465	107.9375
111.80798	109.8375
116.16626	114.4375
120.52136	118.2375
124.87327	125.6375
129.222	130.7375
133.56755	139.8375
137.90993	148.2375
142.24913	164.2375
146.58517	183.8375
150.91804	214.5375
155.24774	258.0375
159.57429	325.6375
163.89768	410.4375
168.21792	556.1375
172.53501	747.9375
176.84895	1050.0375
181.15975	1467.9375
185.46741	2055.5375
189.77193	2854.1375
194.07331	3795.6375
198.37157	4888.8375
202.6667	6046.9375
206.9587	7164.9375
211.24758	8276.1375
215.53334	9397.5375
219.81599	10588.7375
224.09553	11864.1375
228.37195	13306.9375
232.64527	14886.9375
236.91549	16541.9375
241.18261	18199.1375
245.44663	19733.1375
249.70755	21129.7375
253.96539	22279.8375
258.22014	23302.4375
262.4718	24124.9375
266.72039	24681.2375
270.96589	24948.6375
275.20832	25024.1375
279.44768	24865.2375
283.68397	24704.9375
287.91719	24479.8375
292.14735	24288.3375
296.37445	24342.5375
300.59849	24385.7375
304.81948	24548.7375
309.03742	24550.3375
313.25231	24465.0375
317.46415	24114.3375
321.67296	23628.5375
325.87872	23216.1375
330.08145	22988.0375
334.28114	22959.6375
338.47781	23105.2375
342.67145	23408.7375
346.86207	23756.1375
351.04966	24194.5375
355.23424	24557.8375
359.4158	24886.7375
363.59435	25140.9375
367.76989	25300.4375
371.94243	25472.6375
376.11196	25517.0375
380.27849	25571.3375
384.44203	25730.6375
388.60257	25941.9375
392.76012	26192.2375
396.91468	26607.8375
401.06626	27013.1375
405.21485	27237.7375
409.36047	27124.7375
413.50311	26909.1375
417.64277	26879.2375
421.77947	27076.7375
425.9132	27304.7375
430.04396	27492.9375
434.17176	27545.9375
438.2966	27601.8375
442.41849	27916.8375
446.53742	28607.0375
450.6534	29366.7375
454.76644	29910.1375
458.87653	30018.3375
462.98368	29899.4375
467.08789	29507.6375
471.18916	29008.4375
475.2875	28503.7375
479.38291	28221.8375
483.4754	27990.6375
487.56496	27699.6375
491.6516	27312.9375
495.73531	26907.2375
499.81612	26759.4375
503.89401	26951.1375
507.96899	27141.4375
512.04106	27179.7375
516.11023	27014.8375
520.1765	26681.0375
524.23987	26388.4375
528.30034	26079.1375
532.35792	25796.0375
536.41261	25485.9375
540.46441	25250.6375
544.51333	25213.9375
548.55936	25514.6375
552.60252	26052.2375
556.64279	26655.6375
560.6802	27235.8375
564.71473	27521.7375
568.7464	28049.0375
572.7752	29100.0375
576.80114	30314.3375
580.82422	31629.0375
584.84444	33118.5375
588.86181	35029.7375
592.87633	36569.7375
596.888	36029.4375
600.89682	33692.4375
604.9028	32448.8375
608.90594	33391.7375
612.90624	34618.0375
616.90371	32238.9375
620.89834	28040.7375
624.89015	26344.7375
628.87913	26249.1375
632.86528	26428.6375
636.84862	26373.8375
640.82913	25868.7375
644.80683	25244.0375
648.78172	24780.0375
652.75379	24813.4375
656.72306	25090.7375
660.68952	25368.9375
664.65319	25241.8375
668.61405	24855.1375
672.57211	24819.2375
676.52738	24955.3375
680.47986	24943.7375
684.42955	24739.4375
688.37646	24648.6375
692.32058	24827.3375
696.26192	25254.8375
700.20048	25668.5375
704.13626	25840.4375
708.06928	25923.9375
711.99952	25805.8375
715.927	25780.1375
719.85171	25817.4375
723.77365	25645.9375
727.69284	25221.8375
731.60928	24787.7375
735.52295	24624.8375
739.43388	24620.7375
743.34206	24724.6375
747.24749	24864.7375
751.15017	25194.2375
755.05012	25737.4375
758.94733	26487.7375
762.8418	27681.0375
766.73354	29340.5375
770.62254	30780.3375
774.50882	30734.7375
778.39237	29367.3375
782.27321	27644.6375
786.15132	26274.6375
790.02671	25474.3375
793.89938	25027.5375
797.76935	24775.7375
801.6366	24766.2375
805.50115	24649.5375
809.36299	24532.2375
813.22213	24347.4375
817.07857	24206.8375
820.93231	24093.5375
824.78336	23973.5375
828.63172	23800.8375
832.47738	23767.6375
836.32036	23731.2375
840.16066	23735.7375
843.99827	23733.2375
847.8332	23745.8375
851.66546	23789.3375
855.49504	23858.2375
859.32195	23864.7375
863.1462	23788.4375
866.96777	23769.9375
870.78668	23710.2375
874.60293	23738.9375
878.41652	23764.8375
882.22745	23804.7375
886.03573	23832.5375
889.84136	23808.1375
893.64433	23738.0375
897.44466	23657.8375
901.24235	23583.3375
905.0374	23526.1375
908.8298	23490.2375
912.61957	23576.1375
916.40671	23814.6375
920.19121	24173.6375
923.97308	24470.4375
927.75233	24473.8375
931.52895	24143.4375
935.30295	23708.0375
939.07433	23312.9375
942.84309	23003.8375
946.60924	22822.3375
950.37278	22846.5375
954.13371	22881.5375
957.89203	22844.8375
961.64774	22838.3375
965.40086	22845.7375
969.15137	22798.8375
972.89929	22736.4375
976.64461	22674.2375
980.38733	22597.7375
984.12747	22633.8375
987.86502	22762.8375
991.59999	22887.2375
995.33237	23105.2375
999.06217	23480.0375
1002.78939	23982.6375
1006.51404	24521.2375
1010.23611	25039.2375
1013.95561	25390.8375
1017.67255	25432.7375
1021.38692	25132.2375
1025.09872	24642.2375
1028.80796	24326.3375
1032.51465	24258.0375
1036.21877	24391.3375
1039.92035	24527.1375
1043.61937	24533.8375
1047.31584	24491.3375
1051.00976	24387.9375
1054.70114	24469.8375
1058.38998	24642.5375
1062.07627	24882.9375
1065.76003	25242.7375
1069.44126	25630.6375
1073.11995	26050.3375
1076.79611	26409.1375
1080.46974	26621.0375
1084.14085	26793.4375
1087.80943	27071.3375
1091.47549	27351.2375
1095.13903	27370.5375
1098.80005	27051.3375
1102.45857	26383.2375
1106.11456	25850.2375
1109.76805	25589.9375
1113.41903	25569.9375
1117.06751	25642.6375
1120.71348	25834.0375
1124.35696	26077.7375
1127.99793	26328.7375
1131.63641	26519.6375
1135.2724	26531.4375
1138.90589	26524.5375
1142.5369	26664.6375
1146.16542	26918.1375
1149.79145	27226.9375
1153.415	27499.2375
1157.03607	27905.5375
1160.65467	28796.3375
1164.27079	30239.0375
1167.88443	31887.0375
1171.49561	33557.7375
1175.10432	35437.7375
1178.71056	37915.2375
1182.31434	40280.3375
1185.91565	41443.8375
1189.51451	41270.9375
1193.11091	40400.6375
1196.70485	39150.6375
1200.29634	37899.9375
1203.88538	37027.3375
1207.47197	36784.8375
1211.05612	36719.3375
1214.63782	36132.6375
1218.21708	35002.0375
1221.79391	33782.0375
1225.36829	32893.3375
1228.94024	32400.7375
1232.50976	31956.8375
1236.07685	31470.7375
1239.6415	31129.1375
1243.20374	30993.4375
1246.76355	31214.2375
1250.32093	31726.0375
1253.8759	32415.7375
1257.42845	33294.0375
1260.97859	34270.2375
1264.52631	35409.9375
1268.07163	36550.2375
1271.61453	37637.7375
1275.15503	38659.3375
1278.69312	39723.0375
1282.22882	40914.9375
1285.76211	42401.5375
1289.29301	44082.8375
1292.82151	46217.0375
1296.34761	48825.3375
1299.87133	51950.9375
1303.39266	55152.9375
1306.9116	57796.1375
1310.42815	59699.1375
1313.94233	60381.9375
1317.45412	59734.8375
1320.96354	58602.0375
1324.47058	57869.8375
1327.97525	57535.4375
1331.47754	57475.5375
1334.97747	57411.7375
1338.47502	57052.3375
1341.97022	56416.7375
1345.46305	55620.9375
1348.95352	54627.5375
1352.44163	53950.4375
1355.92738	54330.3375
1359.41078	55733.7375
1362.89183	56816.9375
1366.37053	55696.3375
1369.84688	51697.8375
1373.32088	46569.7375
1376.79254	43024.5375
1380.26186	41899.1375
1383.72883	42188.7375
1387.19347	42536.3375
1390.65578	42341.8375
1394.11575	42367.0375
1397.57339	42929.3375
1401.0287	43769.7375
1404.48168	44462.4375
1407.93234	44366.1375
1411.38068	43500.9375
1414.82669	41883.6375
1418.27039	40006.7375
1421.71177	38167.2375
1425.15083	36768.9375
1428.58758	36313.5375
1432.02203	36911.3375
1435.45416	38177.0375
1438.88399	39599.1375
1442.31151	40533.3375
1445.73673	40939.1375
1449.15965	41064.2375
1452.58027	40985.5375
1455.9986	40945.4375
1459.41463	41218.0375
1462.82837	41875.3375
1466.23982	42590.1375
1469.64898	43133.2375
1473.05586	43366.5375
1476.46045	43304.4375
1479.86276	42806.6375
1483.26279	42133.5375
1486.66054	41846.5375
1490.05602	41944.2375
1493.44922	42177.9375
1496.84016	42604.8375
1500.22882	43204.4375
1503.61521	44093.9375
1506.99934	44995.8375
1510.38121	45670.2375
1513.76081	45582.1375
1517.13816	44920.2375
1520.51324	44199.1375
1523.88607	43900.0375
1527.25665	44205.2375
1530.62498	44590.2375
1533.99105	44579.7375
1537.35488	43947.0375
1540.71647	42901.2375
1544.07581	41531.7375
1547.4329	40154.5375
1550.78776	38975.2375
1554.14038	38191.3375
1557.49077	37669.9375
1560.83892	37344.3375
1564.18484	37108.4375
1567.52853	37072.3375
1570.86999	37416.3375
1574.20922	38174.3375
1577.54624	38967.5375
1580.88103	39420.4375
1584.2136	40107.1375
1587.54395	41776.1375
1590.87208	44198.2375
1594.19801	47166.5375
1597.52172	49728.6375
1600.84321	50103.3375
1604.16251	47524.4375
1607.47959	43478.0375
1610.79447	39333.1375
1614.10715	35682.8375
1617.41763	32803.8375
1620.7259	30833.3375
1624.03199	29896.5375
1627.33587	29985.2375
1630.63757	31043.5375
1633.93707	33442.3375
1637.23439	37391.4375
1640.52951	43109.4375
1643.82246	49689.4375
1647.11321	54386.3375
1650.40179	54376.3375
1653.68819	49303.5375
1656.97241	41762.1375
1660.25446	35066.7375
1663.53433	30323.1375
1666.81203	27356.5375
1670.08756	25481.4375
1673.36092	24314.0375
1676.63211	23582.2375
1679.90115	23049.7375
1683.16801	22613.4375
1686.43272	22323.5375
1689.69527	22118.1375
1692.95567	21940.1375
1696.2139	21803.1375
1699.46999	21754.5375
1702.72392	21640.6375
1705.97571	21558.6375
1709.22535	21479.1375
1712.47284	21426.6375
1715.71819	21382.8375
1718.96139	21299.1375
1722.20246	21253.0375
1725.44139	21153.6375
1728.67818	20988.2375
1731.91284	20831.2375
1735.14537	20717.6375
1738.37576	20610.7375
1741.60403	20521.8375
1744.83017	20440.2375
1748.05418	20398.1375
1751.27607	20344.2375
1754.49584	20339.8375
1757.71349	20320.8375
1760.92903	20287.3375
1764.14244	20300.4375
1767.35375	20276.5375
1770.56294	20188.6375
1773.77002	20171.9375
1776.97499	20101.2375
1780.17785	20074.2375
1783.37861	20030.4375
1786.57727	19984.2375
1789.77382	19911.2375
1792.96828	19878.0375
1796.16064	19827.4375
1799.3509	19792.0375
1802.53907	19777.1375
1805.72514	19692.7375
1808.90913	19627.9375
1812.09102	19651.9375
1815.27083	19592.9375
1818.44856	19516.2375
1821.6242	19510.1375
1824.79776	19503.6375
1827.96924	19468.1375
1831.13864	19486.0375
1834.30597	19475.4375
1837.47122	19471.2375
1840.6344	19461.5375
1843.7955	19502.3375
1846.95454	19489.7375
1850.11151	19440.8375
1853.26642	19416.5375
1856.41926	19465.9375
1859.57004	19426.4375
1862.71876	19410.1375
1865.86542	19326.5375
1869.01003	19301.3375
1872.15258	19262.6375
1875.29308	19258.3375
1878.43152	19238.8375
1881.56792	19207.1375
1884.70227	19166.9375
1887.83457	19164.7375
1890.96482	19150.5375
1894.09304	19091.1375
1897.21921	19088.3375
1900.34335	19046.9375
1903.46544	19011.2375
1906.58551	19000.9375
1909.70353	18934.1375
1912.81953	18941.5375
1915.93349	18911.1375
1919.04543	18890.8375
1922.15534	18815.4375
1925.26322	18764.6375
1928.36908	18750.0375
1931.47292	18689.9375
1934.57473	18661.3375
1937.67453	18589.7375
1940.77232	18545.8375
1943.86808	18498.8375
1946.96184	18426.4375
1950.05358	18388.7375
1953.14331	18316.3375
1956.23103	18292.5375
1959.31675	18238.9375
1962.40046	18181.7375
1965.48217	18120.9375
1968.56188	18070.8375
1971.63959	18006.5375
1974.7153	17947.8375
1977.78901	17894.2375
1980.86073	17843.5375
1983.93046	17784.2375
1986.99819	17734.8375
1990.06394	17688.1375
1993.1277	17637.2375
1996.18947	17608.6375
1999.24925	17527.4375
2002.30706	17471.6375
2005.36288	17414.9375
2008.41672	17360.9375
2011.46859	17327.1375
2014.51848	17296.9375
2017.56639	17289.6375
2020.61233	17215.4375
2023.6563	17166.7375
2026.6983	17134.9375
2029.73833	17099.4375
2032.7764	17062.2375
2035.8125	17037.8375
2038.84664	16972.6375
2041.87881	16949.2375
2044.90903	16913.5375
2047.93729	16886.8375
2050.96359	16880.8375
2053.98794	16858.6375
2057.01034	16854.1375
2060.03078	16850.3375
2063.04927	16812.5375
2066.06582	16788.8375
2069.08042	16783.7375
2072.09307	16762.6375
2075.10378	16750.9375
2078.11255	16732.9375
2081.11938	16730.0375
2084.12426	16700.7375
2087.12722	16736.2375
2090.12824	16696.8375
2093.12732	16663.2375
2096.12447	16672.7375
2099.11969	16680.3375
2102.11299	16706.0375
2105.10435	16678.4375
2108.09379	16678.0375
2111.08131	16726.7375
2114.0669	16687.0375
2117.05057	16708.1375
2120.03233	16716.4375
2123.01216	16725.0375
2125.99008	16728.5375
2128.96609	16766.3375
2131.94018	16773.3375
2134.91236	16756.4375
2137.88263	16770.4375
2140.851	16767.9375
2143.81746	16791.5375
2146.78201	16765.6375
2149.74466	16781.8375
2152.7054	16770.5375
2155.66425	16748.3375
2158.6212	16740.2375
2161.57625	16729.5375
2164.52941	16762.6375
2167.48067	16740.1375
2170.43004	16742.7375
2173.37752	16669.5375
2176.32311	16678.0375
2179.26681	16709.8375
2182.20863	16682.9375
2185.14856	16717.6375
2188.08661	16676.3375
2191.02278	16723.0375
2193.95707	16717.0375
2196.88948	16652.4375
2199.82001	16642.5375
2202.74867	16599.0375
2205.67545	16599.6375
2208.60037	16557.2375
2211.52341	16576.1375
2214.44458	16524.7375
2217.36388	16510.8375
2220.28132	16434.4375
2223.1969	16410.9375
2226.11061	16418.6375
2229.02246	16431.0375
2231.93245	16377.8375
2234.84058	16326.1375
2237.74686	16325.7375
2240.65128	16343.1375
2243.55385	16292.3375
2246.45456	16253.4375
2249.35343	16214.5375
2252.25044	16196.9375
2255.14561	16174.8375
2258.03893	16148.9375
2260.93041	16092.4375
2263.82004	16018.5375
2266.70783	16007.0375
2269.59378	15933.3375
2272.4779	15872.6375
2275.36017	15856.6375
2278.24061	15835.8375
2281.11922	15811.5375
2283.996	15778.8375
2286.87094	15783.3375
2289.74405	15758.2375
2292.61534	15750.0375
2295.4848	15743.2375
2298.35243	15751.4375
2301.21824	15739.2375
2304.08223	15732.9375
2306.94439	15706.0375
2309.80474	15705.6375
2312.66327	15701.6375
2315.51999	15662.6375
2318.37489	15674.3375
2321.22797	15638.6375
2324.07925	15612.7375
2326.92871	15595.1375
2329.77637	15632.3375
2332.62222	15574.8375
2335.46626	15569.2375
2338.3085	15567.3375
2341.14893	15554.7375
2343.98756	15558.9375
2346.8244	15530.4375
2349.65943	15530.1375
2352.49267	15493.1375
2355.32411	15523.4375
2358.15376	15522.1375
2360.98161	15512.5375
2363.80768	15522.5375
2366.63195	15509.2375
2369.45444	15497.2375
2372.27514	15450.5375
2375.09405	15409.7375
2377.91118	15381.6375
2380.72652	15362.9375
2383.54009	15324.5375
2386.35187	15315.5375
2389.16188	15255.0375
2391.97011	15227.8375
2394.77657	15213.4375
2397.58125	15183.1375
2400.38416	15173.9375
2403.18529	15161.2375
2405.98466	15125.0375
2408.78226	15094.3375
2411.57809	15108.9375
2414.37216	15076.0375
2417.16446	15090.9375
2419.955	15068.3375
2422.74378	15059.2375
2425.5308	15038.4375
2428.31606	15040.2375
2431.09956	15033.2375
2433.88131	15015.6375
2436.6613	15002.0375
2439.43954	15008.6375
2442.21603	14983.1375
2444.99077	14982.0375
2447.76377	14967.7375
2450.53501	14992.0375
2453.30451	14951.3375
2456.07226	14951.6375
2458.83827	14931.3375
2461.60254	14974.2375
2464.36507	14939.4375
2467.12586	14938.4375
2469.88492	14904.3375
2472.64224	14927.6375
2475.39782	14944.3375
2478.15167	14983.3375
2480.90379	14977.2375
2483.65417	14965.5375
2486.40283	14983.7375
2489.14976	14982.5375
2491.89497	14937.0375
2494.63845	14971.4375
2497.3802	14958.9375
2500.12024	14952.9375
2502.85855	14909.5375
2505.59514	14911.4375
2508.33002	14882.0375
2511.06318	14903.1375
2513.79462	14901.0375
2516.52435	14876.8375
2519.25237	14860.4375
2521.97867	14879.6375
2524.70327	14887.4375
2527.42616	14863.7375
2530.14734	14837.7375
2532.86681	14828.7375
2535.58458	14823.0375
2538.30065	14826.3375
2541.01501	14819.5375
2543.72768	14803.0375
2546.43864	14786.9375
2549.14791	14812.7375
2551.85548	14784.3375
2554.56136	14760.0375
2557.26554	14713.5375
2559.96803	14713.4375
2562.66883	14693.4375
2565.36794	14689.4375
2568.06536	14641.9375
2570.7611	14658.2375
2573.45514	14636.7375
2576.14751	14664.2375
2578.83819	14591.5375
2581.52719	14599.1375
2584.21451	14584.7375
2586.90015	14589.2375
2589.58411	14569.8375
2592.2664	14576.9375
2594.94701	14561.4375
2597.62594	14562.7375
2600.30321	14547.0375
2602.9788	14541.3375
2605.65273	14537.0375
2608.32498	14532.3375
2610.99557	14528.4375
2613.66449	14514.2375
2616.33175	14534.6375
2618.99734	14546.2375
2621.66128	14534.4375
2624.32355	14500.3375
2626.98416	14464.0375
2629.64311	14467.4375
2632.30041	14427.3375
2634.95605	14408.9375
2637.61004	14432.4375
2640.26238	14394.2375
2642.91306	14394.9375
2645.56209	14408.8375
2648.20948	14430.7375
2650.85521	14424.1375
2653.4993	14443.1375
2656.14175	14468.6375
2658.78255	14478.2375
2661.42171	14468.1375
2664.05923	14500.7375
2666.6951	14508.2375
2669.32934	14489.6375
2671.96194	14494.7375
2674.59291	14557.1375
2677.22224	14530.5375
2679.84993	14519.7375
2682.476	14496.2375
2685.10043	14499.5375
2687.72324	14476.2375
2690.34441	14496.4375
2692.96396	14494.9375
2695.58188	14507.3375
2698.19818	14490.9375
2700.81285	14511.0375
2703.4259	14523.2375
2706.03733	14545.6375
2708.64714	14530.8375
2711.25533	14543.7375
2713.86191	14529.5375
2716.46687	14571.5375
2719.07021	14555.3375
2721.67194	14580.5375
2724.27206	14575.2375
2726.87057	14592.1375
2729.46747	14599.2375
2732.06276	14629.8375
2734.65644	14592.9375
2737.24852	14609.1375
2739.83899	14598.5375
2742.42786	14619.6375
2745.01513	14558.9375
2747.60079	14564.5375
2750.18486	14540.9375
2752.76733	14534.6375
2755.3482	14539.9375
2757.92747	14543.3375
2760.50515	14537.4375
2763.08123	14496.0375
2765.65573	14503.6375
2768.22863	14527.0375
2770.79994	14506.9375
2773.36967	14489.4375
2775.9378	14515.9375
2778.50435	14512.9375
2781.06932	14493.5375
2783.6327	14484.6375
2786.1945	14508.3375
2788.75471	14485.8375
2791.31335	14433.9375
2793.87041	14411.9375
2796.42589	14384.9375
2798.97979	14397.9375
2801.53212	14354.1375
2804.08288	14346.7375
2806.63206	14343.1375
2809.17967	14320.3375
2811.72571	14277.5375
2814.27018	14250.4375
2816.81308	14189.3375
2819.35442	14164.7375
2821.89419	14135.1375
2824.43239	14130.0375
2826.96904	14102.3375
2829.50412	14115.0375
2832.03763	14052.7375
2834.56959	14060.3375
2837.1	14054.4375
2839.62884	14085.4375
2842.15613	14067.4375
2844.68186	14059.7375
2847.20604	14078.6375
2849.72867	14061.5375
2852.24974	14046.5375
2854.76927	14048.9375
2857.28724	14028.2375
2859.80367	13991.2375
2862.31855	13985.3375
2864.83189	13941.2375
2867.34368	13913.0375
2869.85393	13911.2375
2872.36264	13942.2375
2874.8698	13897.1375
2877.37543	13880.2375
2879.87952	13887.5375
2882.38207	13910.7375
2884.88308	13896.7375
2887.38256	13906.5375
2889.88051	13876.7375
2892.37692	13882.4375
2894.8718	13891.9375
2897.36515	13922.3375
2899.85698	13923.9375
2902.34727	13964.4375
2904.83604	13977.0375
2907.32328	13992.9375
2909.809	13961.8375
2912.29319	13984.4375
2914.77587	13970.2375
2917.25702	13945.4375
2919.73665	13935.0375
2922.21476	13948.2375
2924.69136	13945.2375
2927.16644	13942.3375
2929.64	13904.8375
2932.11205	13889.8375
2934.58258	13897.2375
2937.05161	13886.0375
2939.51912	13857.5375
2941.98513	13846.3375
2944.44962	13845.7375
2946.91261	13799.7375
2949.37409	13829.8375
2951.83407	13780.8375
2954.29254	13791.3375
2956.74951	13773.1375
2959.20498	13762.4375
2961.65895	13730.6375
2964.11142	13752.5375
2966.56239	13702.2375
2969.01186	13723.6375
2971.45984	13706.0375
2973.90632	13707.6375
2976.35131	13643.6375
2978.7948	13610.5375
2981.23681	13584.5375
2983.67732	13527.5375
2986.11635	13510.0375
2988.55388	13455.4375
2990.98993	13412.3375
2993.4245	13409.4375
2995.85758	13380.4375
2998.28917	13341.2375
3000.71928	13308.2375
3003.14791	13303.2375
3005.57506	13281.2375
3008.00073	13236.7375
3010.42493	13082.2375
3012.84764	13154.0375
3015.26888	13138.8375
3017.68865	13103.4375
3020.10694	13109.1375
3022.52376	13052.5375
3024.9391	13040.7375
3027.35298	13036.1375
3029.76539	13020.3375
3032.17632	13040.1375
3034.5858	12985.9375
3036.9938	13011.3375
3039.40034	12990.3375
3041.80542	12990.8375
3044.20903	12966.5375
3046.61118	12983.8375
3049.01187	12949.7375
3051.4111	12912.1375
3053.80888	12880.3375
3056.20519	12860.0375
3058.60005	12821.8375
3060.99345	12789.8375
3063.3854	12779.6375
3065.7759	12706.4375
3068.16494	12695.2375
3070.55254	12643.0375
3072.93868	12603.6375
3075.32338	12549.7375
3077.70662	12513.2375
3080.08842	12518.9375
3082.46878	12486.6375
3084.84769	12448.6375
3087.22515	12458.8375
3089.60118	12486.5375
3091.97576	12443.4375
3094.3489	12425.6375
3096.72061	12437.4375
3099.09087	12451.5375
3101.4597	12398.6375
3103.82709	12400.5375
3106.19305	12395.6375
3108.55757	12378.7375
3110.92066	12330.3375
3113.28232	12297.4375
3115.64255	12257.5375
3118.00134	12238.3375
3120.35871	12222.7375
3122.71466	12179.5375
3125.06917	12163.3375
3127.42226	12134.1375
3129.77393	12130.4375
3132.12417	12120.6375
3134.47299	12076.9375
3136.82039	12089.5375
3139.16636	12077.1375
3141.51092	12099.3375
3143.85406	12060.1375
3146.19579	12049.8375
3148.53609	12040.0375
3150.87499	12030.3375
3153.21246	12022.1375
3155.54853	12029.0375
3157.88318	12021.6375
3160.21642	12037.3375
3162.54826	12051.4375
3164.87868	12042.3375
3167.2077	12043.0375
3169.5353	12039.2375
3171.86151	12027.5375
3174.18631	12010.3375
3176.5097	12020.5375
3178.83169	12001.1375
3181.15228	11984.1375
3183.47147	11946.2375
3185.78926	11966.6375
3188.10565	11906.5375
3190.42065	11913.4375
3192.73424	11879.5375
3195.04645	11882.5375
3197.35725	11870.5375
3199.66667	11837.0375
3201.97469	11857.4375
3204.28132	11852.0375
3206.58656	11872.2375
3208.8904	11848.0375
3211.19287	11859.5375
3213.49394	11843.2375
3215.79363	11835.4375
3218.09193	11828.4375
3220.38884	11840.6375
3222.68438	11822.5375
3224.97853	11831.9375
3227.2713	11838.9375
3229.56269	11801.4375
3231.8527	11824.8375
3234.14133	11757.6375
3236.42858	11773.8375
3238.71446	11728.7375
3240.99896	11713.6375
3243.28209	11702.7375
3245.56384	11709.7375
3247.84423	11671.7375
3250.12324	11645.4375
3252.40088	11623.5375
3254.67715	11608.2375
3256.95205	11587.9375
3259.22558	11552.6375
3261.49775	11527.3375
3263.76855	11509.0375
3266.03799	11507.0375
3268.30606	11467.2375
3270.57277	11463.4375
3272.83812	11443.0375
3275.10211	11435.6375
3277.36474	11420.3375
3279.62601	11418.8375
3281.88593	11357.4375
3284.14448	11380.8375
3286.40168	11372.3375
3288.65753	11369.5375
3290.91202	11376.7375
3293.16516	11350.8375
3295.41695	11337.4375
3297.66738	11252.9375
3299.91647	11215.7375
3302.16421	11145.4375
3304.4106	11037.5375
3306.65564	10983.4375
3308.89933	10889.0375
3311.14169	10810.8375
3313.38269	10710.9375
3315.62236	10671.5375
3317.86068	10559.1375
3320.09766	10470.7375
3322.3333	10420.6375
3324.5676	10358.2375
3326.80056	10189.9375
3329.03219	10124.1375
3331.26248	4.5375
3333.49143	0.1375
3335.71905	-1.0625
