Data from AgNP_FTO_APTES_UA_10uM_CRN_10uM_R6G_10uM_NaF_0.1M_Addition_RamanShift__13__15-39-30-701.txt Node

Date: Thu Feb 10 15:39:30 GMT 2022
User: TCL
Spectrometer: QEP01345
Trigger mode: 4
Integration Time (sec): 7.000000E0
Scans to average: 10
Electric dark correction enabled: true
Nonlinearity correction enabled: false
Boxcar width: 0
XAxis mode: Raman Shifts
Number of Pixels in Spectrum: 1044
>>>>>Begin Spectral Data<<<<<
46.04893	-0.4625
50.45542	0.0375
54.85868	-1.6625
59.25871	-1.5625
63.6555	72.2375
68.04907	74.2375
72.43941	80.9375
76.82654	76.4375
81.21044	85.6375
85.59113	86.2375
89.96862	93.5375
94.34289	93.8375
98.71396	97.4375
103.08183	98.4375
107.4465	103.4375
111.80798	105.4375
116.16626	108.8375
120.52136	111.7375
124.87327	121.8375
129.222	122.8375
133.56755	129.9375
137.90993	138.5375
142.24913	150.0375
146.58517	170.7375
150.91804	202.8375
155.24774	244.0375
159.57429	301.1375
163.89768	384.6375
168.21792	515.4375
172.53501	693.7375
176.84895	971.4375
181.15975	1369.1375
185.46741	1922.4375
189.77193	2662.5375
194.07331	3566.2375
198.37157	4582.9375
202.6667	5692.8375
206.9587	6781.1375
211.24758	7804.2375
215.53334	8845.7375
219.81599	9934.8375
224.09553	11119.4375
228.37195	12408.9375
232.64527	13873.5375
236.91549	15398.6375
241.18261	16946.6375
245.44663	18456.7375
249.70755	19795.4375
253.96539	21020.3375
258.22014	22032.8375
262.4718	22820.1375
266.72039	23374.9375
270.96589	23669.9375
275.20832	23744.8375
279.44768	23693.2375
283.68397	23562.6375
287.91719	23359.9375
292.14735	23253.7375
296.37445	23230.4375
300.59849	23239.8375
304.81948	23273.4375
309.03742	23208.3375
313.25231	23028.6375
317.46415	22697.7375
321.67296	22255.1375
325.87872	21931.0375
330.08145	21751.3375
334.28114	21751.1375
338.47781	21916.6375
342.67145	22123.9375
346.86207	22376.6375
351.04966	22645.6375
355.23424	22927.7375
359.4158	23176.5375
363.59435	23411.7375
367.76989	23551.9375
371.94243	23680.9375
376.11196	23760.0375
380.27849	23826.2375
384.44203	23913.9375
388.60257	24068.6375
392.76012	24359.1375
396.91468	24683.9375
401.06626	25066.8375
405.21485	25300.0375
409.36047	25264.8375
413.50311	25052.0375
417.64277	24936.4375
421.77947	24975.3375
425.9132	25164.4375
430.04396	25340.9375
434.17176	25442.8375
438.2966	25564.1375
442.41849	25776.2375
446.53742	26224.4375
450.6534	26675.9375
454.76644	27029.4375
458.87653	27194.5375
462.98368	27247.0375
467.08789	27123.1375
471.18916	26992.9375
475.2875	26731.5375
479.38291	26667.0375
483.4754	26521.8375
487.56496	26334.6375
491.6516	26115.9375
495.73531	25769.3375
499.81612	25553.8375
503.89401	25602.7375
507.96899	25682.6375
512.04106	25769.6375
516.11023	25711.5375
520.1765	25477.5375
524.23987	25293.9375
528.30034	25024.6375
532.35792	24806.0375
536.41261	24609.3375
540.46441	24429.3375
544.51333	24515.6375
548.55936	24777.5375
552.60252	25149.6375
556.64279	25590.8375
560.6802	25922.9375
564.71473	26254.5375
568.7464	26752.0375
572.7752	27531.0375
576.80114	28539.9375
580.82422	29454.5375
584.84444	30100.5375
588.86181	30622.1375
592.87633	31049.5375
596.888	30794.7375
600.89682	30002.7375
604.9028	29699.9375
608.90594	30592.2375
612.90624	31402.1375
616.90371	29615.3375
620.89834	26561.1375
624.89015	25346.8375
628.87913	25357.3375
632.86528	25585.1375
636.84862	25592.2375
640.82913	25280.6375
644.80683	24773.9375
648.78172	24393.9375
652.75379	24293.4375
656.72306	24400.3375
660.68952	24697.5375
664.65319	24654.4375
668.61405	24468.2375
672.57211	24480.2375
676.52738	24525.8375
680.47986	24512.3375
684.42955	24428.9375
688.37646	24337.1375
692.32058	24436.4375
696.26192	24636.5375
700.20048	24900.1375
704.13626	25070.8375
708.06928	25248.2375
711.99952	25158.8375
715.927	25041.9375
719.85171	24946.5375
723.77365	24781.6375
727.69284	24547.0375
731.60928	24254.1375
735.52295	24093.5375
739.43388	24029.3375
743.34206	24074.5375
747.24749	24178.1375
751.15017	24473.1375
755.05012	24792.4375
758.94733	25394.6375
762.8418	26334.1375
766.73354	27635.9375
770.62254	28772.8375
774.50882	28760.0375
778.39237	27781.1375
782.27321	26435.0375
786.15132	25399.9375
790.02671	24680.3375
793.89938	24285.0375
797.76935	24067.5375
801.6366	23901.6375
805.50115	23847.7375
809.36299	23775.0375
813.22213	23661.1375
817.07857	23640.1375
820.93231	23633.4375
824.78336	23549.0375
828.63172	23459.2375
832.47738	23405.5375
836.32036	23334.4375
840.16066	23318.8375
843.99827	23333.5375
847.8332	23350.4375
851.66546	23388.5375
855.49504	23436.9375
859.32195	23481.5375
863.1462	23391.4375
866.96777	23336.7375
870.78668	23326.3375
874.60293	23336.6375
878.41652	23385.4375
882.22745	23377.6375
886.03573	23429.3375
889.84136	23428.2375
893.64433	23334.2375
897.44466	23279.0375
901.24235	23310.1375
905.0374	23251.1375
908.8298	23267.2375
912.61957	23337.1375
916.40671	23518.2375
920.19121	23788.3375
923.97308	24001.7375
927.75233	23886.0375
931.52895	23581.4375
935.30295	23302.7375
939.07433	22956.5375
942.84309	22725.6375
946.60924	22551.9375
950.37278	22535.7375
954.13371	22525.1375
957.89203	22507.5375
961.64774	22508.2375
965.40086	22467.1375
969.15137	22461.0375
972.89929	22377.5375
976.64461	22310.0375
980.38733	22256.0375
984.12747	22241.5375
987.86502	22284.5375
991.59999	22376.4375
995.33237	22481.9375
999.06217	22702.7375
1002.78939	23027.0375
1006.51404	23322.2375
1010.23611	23671.7375
1013.95561	23895.8375
1017.67255	23921.3375
1021.38692	23715.4375
1025.09872	23472.6375
1028.80796	23214.7375
1032.51465	23104.7375
1036.21877	23152.8375
1039.92035	23210.7375
1043.61937	23330.8375
1047.31584	23396.0375
1051.00976	23503.0375
1054.70114	23685.8375
1058.38998	23819.7375
1062.07627	24133.8375
1065.76003	24435.3375
1069.44126	24717.7375
1073.11995	25028.5375
1076.79611	25316.7375
1080.46974	25400.3375
1084.14085	25509.7375
1087.80943	25681.3375
1091.47549	25906.4375
1095.13903	25987.6375
1098.80005	25816.6375
1102.45857	25318.7375
1106.11456	24815.5375
1109.76805	24515.5375
1113.41903	24445.1375
1117.06751	24485.9375
1120.71348	24617.2375
1124.35696	24815.1375
1127.99793	25033.9375
1131.63641	25168.4375
1135.2724	25189.1375
1138.90589	25229.1375
1142.5369	25256.0375
1146.16542	25398.9375
1149.79145	25613.1375
1153.415	25898.1375
1157.03607	26222.0375
1160.65467	26778.1375
1164.27079	27655.2375
1167.88443	28674.3375
1171.49561	29826.9375
1175.10432	31154.8375
1178.71056	32732.1375
1182.31434	34265.5375
1185.91565	35275.9375
1189.51451	35763.3375
1193.11091	35554.3375
1196.70485	34862.1375
1200.29634	33795.5375
1203.88538	32981.0375
1207.47197	32592.3375
1211.05612	32374.8375
1214.63782	31960.7375
1218.21708	31159.1375
1221.79391	30204.9375
1225.36829	29478.6375
1228.94024	29056.1375
1232.50976	28827.2375
1236.07685	28693.3375
1239.6415	28635.4375
1243.20374	28627.2375
1246.76355	28733.5375
1250.32093	29062.8375
1253.8759	29533.7375
1257.42845	30248.0375
1260.97859	30946.4375
1264.52631	31713.5375
1268.07163	32410.2375
1271.61453	33144.5375
1275.15503	33871.1375
1278.69312	34611.3375
1282.22882	35344.0375
1285.76211	36279.9375
1289.29301	37261.2375
1292.82151	38553.9375
1296.34761	40002.8375
1299.87133	41657.0375
1303.39266	43337.4375
1306.9116	44652.7375
1310.42815	45562.3375
1313.94233	45903.4375
1317.45412	45860.6375
1320.96354	45644.6375
1324.47058	45724.4375
1327.97525	45901.2375
1331.47754	46201.6375
1334.97747	46572.9375
1338.47502	47001.6375
1341.97022	47381.1375
1345.46305	47492.8375
1348.95352	47267.1375
1352.44163	46463.2375
1355.92738	45717.0375
1359.41078	45406.4375
1362.89183	45174.3375
1366.37053	44092.0375
1369.84688	41713.6375
1373.32088	38982.6375
1376.79254	36900.7375
1380.26186	36084.9375
1383.72883	36056.3375
1387.19347	36164.1375
1390.65578	36004.6375
1394.11575	35853.6375
1397.57339	35926.4375
1401.0287	36194.6375
1404.48168	36267.6375
1407.93234	36041.8375
1411.38068	35389.8375
1414.82669	34399.7375
1418.27039	33165.9375
1421.71177	32043.3375
1425.15083	31223.3375
1428.58758	30834.8375
1432.02203	31062.9375
1435.45416	31670.6375
1438.88399	32384.1375
1442.31151	33005.8375
1445.73673	33423.9375
1449.15965	33771.9375
1452.58027	34060.6375
1455.9986	34356.1375
1459.41463	34705.4375
1462.82837	35144.5375
1466.23982	35675.7375
1469.64898	36045.0375
1473.05586	36175.0375
1476.46045	36161.2375
1479.86276	35910.8375
1483.26279	35670.3375
1486.66054	35637.4375
1490.05602	35670.5375
1493.44922	36042.5375
1496.84016	36528.7375
1500.22882	37362.5375
1503.61521	38235.8375
1506.99934	39153.4375
1510.38121	39761.4375
1513.76081	39777.3375
1517.13816	39377.5375
1520.51324	38827.5375
1523.88607	38593.7375
1527.25665	38579.8375
1530.62498	38561.9375
1533.99105	38380.3375
1537.35488	37792.2375
1540.71647	36895.6375
1544.07581	35875.6375
1547.4329	34879.6375
1550.78776	34174.7375
1554.14038	33716.3375
1557.49077	33441.0375
1560.83892	33253.0375
1564.18484	33210.5375
1567.52853	33187.8375
1570.86999	33410.8375
1574.20922	33837.1375
1577.54624	34330.3375
1580.88103	34534.8375
1584.2136	34815.5375
1587.54395	35476.0375
1590.87208	36570.3375
1594.19801	37890.2375
1597.52172	39073.2375
1600.84321	39102.1375
1604.16251	37681.7375
1607.47959	35643.5375
1610.79447	33491.1375
1614.10715	31335.5375
1617.41763	29433.7375
1620.7259	28015.4375
1624.03199	27272.9375
1627.33587	27110.0375
1630.63757	27718.3375
1633.93707	29156.5375
1637.23439	31537.1375
1640.52951	34986.4375
1643.82246	38934.4375
1647.11321	41860.1375
1650.40179	42323.7375
1653.68819	39914.9375
1656.97241	35576.8375
1660.25446	31243.9375
1663.53433	27817.2375
1666.81203	25452.3375
1670.08756	23952.2375
1673.36092	22992.1375
1676.63211	22370.9375
1679.90115	21922.1375
1683.16801	21614.1375
1686.43272	21326.8375
1689.69527	21139.1375
1692.95567	21014.3375
1696.2139	20926.6375
1699.46999	20859.8375
1702.72392	20761.4375
1705.97571	20683.4375
1709.22535	20594.9375
1712.47284	20522.3375
1715.71819	20465.6375
1718.96139	20386.9375
1722.20246	20350.8375
1725.44139	20268.7375
1728.67818	20122.3375
1731.91284	20032.2375
1735.14537	19921.7375
1738.37576	19844.8375
1741.60403	19765.6375
1744.83017	19687.1375
1748.05418	19631.9375
1751.27607	19595.9375
1754.49584	19542.2375
1757.71349	19529.8375
1760.92903	19535.1375
1764.14244	19478.9375
1767.35375	19485.3375
1770.56294	19452.3375
1773.77002	19417.1375
1776.97499	19351.1375
1780.17785	19292.2375
1783.37861	19265.9375
1786.57727	19182.8375
1789.77382	19169.3375
1792.96828	19146.6375
1796.16064	19114.9375
1799.3509	19071.4375
1802.53907	19029.9375
1805.72514	18986.2375
1808.90913	18927.9375
1812.09102	18858.5375
1815.27083	18834.7375
1818.44856	18820.1375
1821.6242	18795.3375
1824.79776	18768.3375
1827.96924	18753.5375
1831.13864	18748.7375
1834.30597	18736.1375
1837.47122	18713.7375
1840.6344	18737.1375
1843.7955	18762.1375
1846.95454	18704.7375
1850.11151	18704.9375
1853.26642	18686.0375
1856.41926	18672.8375
1859.57004	18631.1375
1862.71876	18611.8375
1865.86542	18543.8375
1869.01003	18556.3375
1872.15258	18546.7375
1875.29308	18503.8375
1878.43152	18453.8375
1881.56792	18437.1375
1884.70227	18394.3375
1887.83457	18353.3375
1890.96482	18301.6375
1894.09304	18315.6375
1897.21921	18241.1375
1900.34335	18236.5375
1903.46544	18187.8375
1906.58551	18165.2375
1909.70353	18144.6375
1912.81953	18097.9375
1915.93349	18088.2375
1919.04543	18031.0375
1922.15534	18005.2375
1925.26322	17953.3375
1928.36908	17911.9375
1931.47292	17871.1375
1934.57473	17812.4375
1937.67453	17781.1375
1940.77232	17733.3375
1943.86808	17679.6375
1946.96184	17660.3375
1950.05358	17574.8375
1953.14331	17509.5375
1956.23103	17450.8375
1959.31675	17411.6375
1962.40046	17360.9375
1965.48217	17313.1375
1968.56188	17253.2375
1971.63959	17205.3375
1974.7153	17127.0375
1977.78901	17077.9375
1980.86073	17026.4375
1983.93046	16972.8375
1986.99819	16953.1375
1990.06394	16905.8375
1993.1277	16848.3375
1996.18947	16769.9375
1999.24925	16719.2375
2002.30706	16640.1375
2005.36288	16619.4375
2008.41672	16546.0375
2011.46859	16505.2375
2014.51848	16453.0375
2017.56639	16422.5375
2020.61233	16412.6375
2023.6563	16342.7375
2026.6983	16299.0375
2029.73833	16267.2375
2032.7764	16187.3375
2035.8125	16180.3375
2038.84664	16122.0375
2041.87881	16053.7375
2044.90903	16034.4375
2047.93729	15998.1375
2050.96359	15969.3375
2053.98794	15940.0375
2057.01034	15932.7375
2060.03078	15933.3375
2063.04927	15869.9375
2066.06582	15900.6375
2069.08042	15875.9375
2072.09307	15882.8375
2075.10378	15869.2375
2078.11255	15872.6375
2081.11938	15839.6375
2084.12426	15834.0375
2087.12722	15816.6375
2090.12824	15816.2375
2093.12732	15783.0375
2096.12447	15778.0375
2099.11969	15769.4375
2102.11299	15769.9375
2105.10435	15758.6375
2108.09379	15793.4375
2111.08131	15795.7375
2114.0669	15780.7375
2117.05057	15795.8375
2120.03233	15804.7375
2123.01216	15845.6375
2125.99008	15844.8375
2128.96609	15845.4375
2131.94018	15857.6375
2134.91236	15857.7375
2137.88263	15870.5375
2140.851	15863.3375
2143.81746	15846.4375
2146.78201	15848.7375
2149.74466	15839.9375
2152.7054	15832.4375
2155.66425	15819.0375
2158.6212	15822.8375
2161.57625	15827.4375
2164.52941	15817.3375
2167.48067	15805.9375
2170.43004	15798.6375
2173.37752	15756.7375
2176.32311	15777.8375
2179.26681	15761.8375
2182.20863	15749.0375
2185.14856	15769.8375
2188.08661	15722.3375
2191.02278	15746.7375
2193.95707	15757.3375
2196.88948	15721.8375
2199.82001	15690.8375
2202.74867	15649.8375
2205.67545	15616.9375
2208.60037	15613.0375
2211.52341	15572.9375
2214.44458	15543.9375
2217.36388	15549.7375
2220.28132	15517.7375
2223.1969	15446.6375
2226.11061	15442.1375
2229.02246	15404.1375
2231.93245	15371.2375
2234.84058	15336.8375
2237.74686	15320.7375
2240.65128	15326.9375
2243.55385	15253.9375
2246.45456	15233.6375
2249.35343	15206.4375
2252.25044	15217.5375
2255.14561	15149.8375
2258.03893	15127.3375
2260.93041	15085.0375
2263.82004	15064.2375
2266.70783	15027.9375
2269.59378	14951.0375
2272.4779	14936.6375
2275.36017	14862.2375
2278.24061	14845.4375
2281.11922	14831.9375
2283.996	14797.1375
2286.87094	14779.3375
2289.74405	14768.8375
2292.61534	14721.1375
2295.4848	14707.9375
2298.35243	14716.0375
2301.21824	14654.4375
2304.08223	14688.1375
2306.94439	14659.9375
2309.80474	14648.5375
2312.66327	14666.5375
2315.51999	14600.7375
2318.37489	14622.3375
2321.22797	14553.1375
2324.07925	14546.6375
2326.92871	14503.8375
2329.77637	14494.7375
2332.62222	14491.7375
2335.46626	14432.9375
2338.3085	14429.6375
2341.14893	14402.5375
2343.98756	14390.5375
2346.8244	14430.1375
2349.65943	14405.3375
2352.49267	14367.2375
2355.32411	14409.2375
2358.15376	14378.5375
2360.98161	14400.1375
2363.80768	14396.5375
2366.63195	14373.7375
2369.45444	14357.3375
2372.27514	14318.8375
2375.09405	14295.7375
2377.91118	14283.9375
2380.72652	14224.9375
2383.54009	14214.9375
2386.35187	14195.0375
2389.16188	14125.7375
2391.97011	14099.0375
2394.77657	14105.0375
2397.58125	14059.4375
2400.38416	14053.2375
2403.18529	14011.8375
2405.98466	14016.9375
2408.78226	13959.0375
2411.57809	13940.7375
2414.37216	13939.9375
2417.16446	13935.5375
2419.955	13906.1375
2422.74378	13927.2375
2425.5308	13874.9375
2428.31606	13896.4375
2431.09956	13884.6375
2433.88131	13850.9375
2436.6613	13860.4375
2439.43954	13837.9375
2442.21603	13842.7375
2444.99077	13804.8375
2447.76377	13789.4375
2450.53501	13787.1375
2453.30451	13781.0375
2456.07226	13767.8375
2458.83827	13719.1375
2461.60254	13758.9375
2464.36507	13713.8375
2467.12586	13699.7375
2469.88492	13671.5375
2472.64224	13678.7375
2475.39782	13684.9375
2478.15167	13691.7375
2480.90379	13685.9375
2483.65417	13694.9375
2486.40283	13663.9375
2489.14976	13684.8375
2491.89497	13672.6375
2494.63845	13656.7375
2497.3802	13642.8375
2500.12024	13663.9375
2502.85855	13641.3375
2505.59514	13587.5375
2508.33002	13607.5375
2511.06318	13572.3375
2513.79462	13596.6375
2516.52435	13564.5375
2519.25237	13544.1375
2521.97867	13519.2375
2524.70327	13543.2375
2527.42616	13497.0375
2530.14734	13478.3375
2532.86681	13486.7375
2535.58458	13445.4375
2538.30065	13456.8375
2541.01501	13462.6375
2543.72768	13462.3375
2546.43864	13414.1375
2549.14791	13414.1375
2551.85548	13400.9375
2554.56136	13398.1375
2557.26554	13377.4375
2559.96803	13309.8375
2562.66883	13310.2375
2565.36794	13271.3375
2568.06536	13267.5375
2570.7611	13242.3375
2573.45514	13227.1375
2576.14751	13217.9375
2578.83819	13201.0375
2581.52719	13178.8375
2584.21451	13168.8375
2586.90015	13144.5375
2589.58411	13126.9375
2592.2664	13093.8375
2594.94701	13106.0375
2597.62594	13080.7375
2600.30321	13039.3375
2602.9788	13031.8375
2605.65273	13014.3375
2608.32498	13032.2375
2610.99557	13036.5375
2613.66449	13019.8375
2616.33175	12994.9375
2618.99734	13009.3375
2621.66128	12963.9375
2624.32355	12934.8375
2626.98416	12932.1375
2629.64311	12922.2375
2632.30041	12903.5375
2634.95605	12871.0375
2637.61004	12882.0375
2640.26238	12881.8375
2642.91306	12839.6375
2645.56209	12845.1375
2648.20948	12857.2375
2650.85521	12868.4375
2653.4993	12872.8375
2656.14175	12831.7375
2658.78255	12858.0375
2661.42171	12859.9375
2664.05923	12871.3375
2666.6951	12885.2375
2669.32934	12895.4375
2671.96194	12879.8375
2674.59291	12909.8375
2677.22224	12871.8375
2679.84993	12893.0375
2682.476	12859.0375
2685.10043	12882.8375
2687.72324	12870.0375
2690.34441	12857.1375
2692.96396	12847.0375
2695.58188	12853.7375
2698.19818	12839.1375
2700.81285	12843.7375
2703.4259	12848.2375
2706.03733	12866.2375
2708.64714	12859.3375
2711.25533	12856.2375
2713.86191	12821.2375
2716.46687	12860.7375
2719.07021	12859.3375
2721.67194	12878.7375
2724.27206	12879.9375
2726.87057	12871.9375
2729.46747	12900.7375
2732.06276	12924.7375
2734.65644	12897.5375
2737.24852	12873.3375
2739.83899	12845.0375
2742.42786	12860.3375
2745.01513	12812.5375
2747.60079	12804.8375
2750.18486	12818.3375
2752.76733	12762.1375
2755.3482	12788.5375
2757.92747	12773.4375
2760.50515	12761.0375
2763.08123	12742.3375
2765.65573	12739.6375
2768.22863	12724.7375
2770.79994	12713.6375
2773.36967	12698.7375
2775.9378	12733.5375
2778.50435	12697.4375
2781.06932	12705.3375
2783.6327	12680.8375
2786.1945	12662.8375
2788.75471	12636.1375
2791.31335	12605.3375
2793.87041	12597.2375
2796.42589	12584.1375
2798.97979	12586.1375
2801.53212	12547.4375
2804.08288	12539.8375
2806.63206	12503.7375
2809.17967	12484.0375
2811.72571	12444.6375
2814.27018	12439.0375
2816.81308	12383.8375
2819.35442	12367.3375
2821.89419	12303.8375
2824.43239	12318.3375
2826.96904	12303.0375
2829.50412	12286.2375
2832.03763	12275.3375
2834.56959	12241.9375
2837.1	12220.9375
2839.62884	12238.5375
2842.15613	12258.1375
2844.68186	12200.8375
2847.20604	12215.7375
2849.72867	12203.4375
2852.24974	12194.8375
2854.76927	12189.7375
2857.28724	12166.2375
2859.80367	12123.5375
2862.31855	12132.7375
2864.83189	12093.0375
2867.34368	12071.2375
2869.85393	12076.7375
2872.36264	12055.3375
2874.8698	12037.2375
2877.37543	12019.8375
2879.87952	12024.0375
2882.38207	12024.1375
2884.88308	12026.1375
2887.38256	12001.9375
2889.88051	12007.9375
2892.37692	12007.7375
2894.8718	12005.5375
2897.36515	12024.8375
2899.85698	12015.2375
2902.34727	12047.2375
2904.83604	12011.9375
2907.32328	12052.2375
2909.809	12059.3375
2912.29319	12027.7375
2914.77587	12001.1375
2917.25702	12003.8375
2919.73665	12017.7375
2922.21476	12001.4375
2924.69136	12025.1375
2927.16644	12003.9375
2929.64	11987.5375
2932.11205	11973.4375
2934.58258	11909.5375
2937.05161	11958.8375
2939.51912	11920.6375
2941.98513	11901.7375
2944.44962	11877.2375
2946.91261	11868.6375
2949.37409	11861.9375
2951.83407	11893.1375
2954.29254	11873.0375
2956.74951	11860.8375
2959.20498	11814.2375
2961.65895	11807.4375
2964.11142	11795.4375
2966.56239	11824.2375
2969.01186	11802.0375
2971.45984	11771.3375
2973.90632	11781.8375
2976.35131	11717.8375
2978.7948	11731.9375
2981.23681	11698.4375
2983.67732	11672.1375
2986.11635	11641.3375
2988.55388	11617.2375
2990.98993	11576.2375
2993.4245	11549.2375
2995.85758	11512.7375
2998.28917	11482.6375
3000.71928	11433.6375
3003.14791	11446.0375
3005.57506	11411.2375
3008.00073	11343.6375
3010.42493	11192.6375
3012.84764	11312.7375
3015.26888	11303.3375
3017.68865	11262.2375
3020.10694	11241.8375
3022.52376	11231.1375
3024.9391	11220.0375
3027.35298	11221.4375
3029.76539	11175.6375
3032.17632	11189.6375
3034.5858	11162.7375
3036.9938	11157.5375
3039.40034	11182.4375
3041.80542	11179.1375
3044.20903	11140.7375
3046.61118	11126.3375
3049.01187	11080.7375
3051.4111	11068.2375
3053.80888	11029.9375
3056.20519	10979.7375
3058.60005	10973.2375
3060.99345	10973.1375
3063.3854	10929.3375
3065.7759	10890.1375
3068.16494	10878.0375
3070.55254	10840.1375
3072.93868	10816.5375
3075.32338	10770.1375
3077.70662	10770.9375
3080.08842	10729.4375
3082.46878	10710.1375
3084.84769	10695.0375
3087.22515	10691.4375
3089.60118	10697.0375
3091.97576	10687.2375
3094.3489	10643.6375
3096.72061	10663.3375
3099.09087	10655.0375
3101.4597	10666.6375
3103.82709	10617.5375
3106.19305	10590.0375
3108.55757	10585.4375
3110.92066	10594.3375
3113.28232	10559.1375
3115.64255	10513.6375
3118.00134	10503.8375
3120.35871	10472.7375
3122.71466	10452.4375
3125.06917	10445.1375
3127.42226	10414.7375
3129.77393	10418.4375
3132.12417	10392.3375
3134.47299	10362.1375
3136.82039	10346.4375
3139.16636	10367.3375
3141.51092	10363.7375
3143.85406	10328.2375
3146.19579	10338.4375
3148.53609	10323.4375
3150.87499	10339.6375
3153.21246	10318.9375
3155.54853	10348.3375
3157.88318	10314.8375
3160.21642	10347.8375
3162.54826	10312.5375
3164.87868	10344.0375
3167.2077	10333.9375
3169.5353	10350.3375
3171.86151	10368.1375
3174.18631	10327.9375
3176.5097	10297.0375
3178.83169	10274.2375
3181.15228	10285.4375
3183.47147	10230.4375
3185.78926	10268.7375
3188.10565	10225.6375
3190.42065	10203.9375
3192.73424	10197.5375
3195.04645	10181.3375
3197.35725	10161.2375
3199.66667	10162.8375
3201.97469	10151.0375
3204.28132	10154.4375
3206.58656	10168.9375
3208.8904	10166.2375
3211.19287	10150.1375
3213.49394	10132.6375
3215.79363	10151.6375
3218.09193	10149.8375
3220.38884	10152.9375
3222.68438	10146.3375
3224.97853	10122.3375
3227.2713	10085.3375
3229.56269	10085.8375
3231.8527	10081.4375
3234.14133	10040.2375
3236.42858	10040.7375
3238.71446	10017.9375
3240.99896	9998.3375
3243.28209	9990.1375
3245.56384	9971.5375
3247.84423	9983.4375
3250.12324	9939.6375
3252.40088	9937.1375
3254.67715	9910.9375
3256.95205	9894.6375
3259.22558	9921.2375
3261.49775	9896.0375
3263.76855	9889.5375
3266.03799	9849.2375
3268.30606	9827.8375
3270.57277	9816.8375
3272.83812	9781.1375
3275.10211	9779.0375
3277.36474	9734.5375
3279.62601	9732.1375
3281.88593	9706.4375
3284.14448	9688.5375
3286.40168	9692.0375
3288.65753	9713.6375
3290.91202	9696.2375
3293.16516	9674.8375
3295.41695	9631.3375
3297.66738	9594.7375
3299.91647	9549.0375
3302.16421	9477.7375
3304.4106	9400.2375
3306.65564	9357.0375
3308.89933	9280.1375
3311.14169	9206.3375
3313.38269	9137.4375
3315.62236	9049.0375
3317.86068	8977.2375
3320.09766	8904.7375
3322.3333	8852.4375
3324.5676	8791.4375
3326.80056	8658.5375
3329.03219	8609.9375
3331.26248	3.7375
3333.49143	0.4375
3335.71905	-0.4625
