Data from AgNP_FTO_APTES_UA_10uM_CRN_1000uM_R6G_10uM_NaF_0.1M_Addition_RamanShift__16__19-39-50-997.txt Node

Date: Thu Feb 10 19:39:50 GMT 2022
User: TCL
Spectrometer: QEP01345
Trigger mode: 4
Integration Time (sec): 7.000000E0
Scans to average: 10
Electric dark correction enabled: true
Nonlinearity correction enabled: false
Boxcar width: 0
XAxis mode: Raman Shifts
Number of Pixels in Spectrum: 1044
>>>>>Begin Spectral Data<<<<<
46.04893	1.1125
50.45542	0.3125
54.85868	-1.3875
59.25871	-1.6875
63.6555	54.5125
68.04907	58.7125
72.43941	64.1125
76.82654	60.3125
81.21044	67.2125
85.59113	70.0125
89.96862	70.9125
94.34289	74.7125
98.71396	74.7125
103.08183	79.4125
107.4465	80.6125
111.80798	77.9125
116.16626	85.7125
120.52136	89.0125
124.87327	95.5125
129.222	96.1125
133.56755	102.8125
137.90993	107.1125
142.24913	117.2125
146.58517	130.9125
150.91804	154.9125
155.24774	181.7125
159.57429	233.8125
163.89768	293.4125
168.21792	388.0125
172.53501	530.0125
176.84895	743.2125
181.15975	1045.9125
185.46741	1466.8125
189.77193	2040.3125
194.07331	2720.2125
198.37157	3522.9125
202.6667	4363.5125
206.9587	5219.9125
211.24758	6014.7125
215.53334	6813.0125
219.81599	7674.4125
224.09553	8600.0125
228.37195	9607.8125
232.64527	10729.2125
236.91549	11890.0125
241.18261	13112.1125
245.44663	14254.3125
249.70755	15314.3125
253.96539	16232.0125
258.22014	17014.6125
262.4718	17628.5125
266.72039	18102.7125
270.96589	18371.9125
275.20832	18444.3125
279.44768	18359.2125
283.68397	18197.4125
287.91719	18017.2125
292.14735	17978.0125
296.37445	17914.2125
300.59849	17950.9125
304.81948	17943.9125
309.03742	17878.9125
313.25231	17637.5125
317.46415	17286.4125
321.67296	16902.0125
325.87872	16557.4125
330.08145	16411.7125
334.28114	16428.7125
338.47781	16528.9125
342.67145	16747.1125
346.86207	16926.1125
351.04966	17223.3125
355.23424	17498.0125
359.4158	17828.7125
363.59435	18012.8125
367.76989	18140.1125
371.94243	18283.6125
376.11196	18441.0125
380.27849	18554.1125
384.44203	18679.8125
388.60257	18790.6125
392.76012	18899.1125
396.91468	19069.6125
401.06626	19303.8125
405.21485	19460.6125
409.36047	19397.6125
413.50311	19186.1125
417.64277	19026.1125
421.77947	18997.9125
425.9132	19116.4125
430.04396	19239.6125
434.17176	19352.5125
438.2966	19520.4125
442.41849	19819.0125
446.53742	20258.4125
450.6534	20707.9125
454.76644	21068.3125
458.87653	21197.7125
462.98368	21135.0125
467.08789	21036.0125
471.18916	20886.7125
475.2875	20793.3125
479.38291	20791.9125
483.4754	20772.2125
487.56496	20577.5125
491.6516	20271.2125
495.73531	19988.4125
499.81612	19752.6125
503.89401	19752.5125
507.96899	19733.9125
512.04106	19747.7125
516.11023	19654.0125
520.1765	19584.5125
524.23987	19435.1125
528.30034	19288.3125
532.35792	19192.4125
536.41261	19065.6125
540.46441	18968.5125
544.51333	18983.9125
548.55936	19161.2125
552.60252	19461.7125
556.64279	19884.1125
560.6802	20191.8125
564.71473	20394.1125
568.7464	20753.1125
572.7752	21175.2125
576.80114	21458.9125
580.82422	21498.0125
584.84444	21557.6125
588.86181	21709.4125
592.87633	21935.2125
596.888	21959.0125
600.89682	21664.4125
604.9028	21890.1125
608.90594	23092.7125
612.90624	24557.6125
616.90371	23542.5125
620.89834	20710.8125
624.89015	19395.4125
628.87913	19219.5125
632.86528	19336.3125
636.84862	19360.1125
640.82913	19272.3125
644.80683	18982.6125
648.78172	18740.7125
652.75379	18694.5125
656.72306	18803.3125
660.68952	19010.2125
664.65319	18945.0125
668.61405	18708.0125
672.57211	18688.0125
676.52738	18737.4125
680.47986	18783.5125
684.42955	18792.0125
688.37646	18713.7125
692.32058	18717.4125
696.26192	18822.5125
700.20048	18971.5125
704.13626	19061.4125
708.06928	19087.1125
711.99952	19023.8125
715.927	18923.1125
719.85171	18963.8125
723.77365	18959.4125
727.69284	18799.5125
731.60928	18674.3125
735.52295	18636.8125
739.43388	18607.1125
743.34206	18594.4125
747.24749	18664.2125
751.15017	18753.9125
755.05012	18935.4125
758.94733	19293.9125
762.8418	19959.7125
766.73354	21017.3125
770.62254	22070.2125
774.50882	22370.0125
778.39237	21652.3125
782.27321	20486.1125
786.15132	19505.1125
790.02671	18889.2125
793.89938	18560.6125
797.76935	18463.6125
801.6366	18397.3125
805.50115	18371.6125
809.36299	18308.9125
813.22213	18217.6125
817.07857	18201.8125
820.93231	18147.4125
824.78336	18107.5125
828.63172	18026.6125
832.47738	17995.0125
836.32036	17947.1125
840.16066	17968.6125
843.99827	17993.2125
847.8332	17994.9125
851.66546	17985.7125
855.49504	17960.0125
859.32195	18029.2125
863.1462	17994.3125
866.96777	17956.8125
870.78668	17952.9125
874.60293	17937.1125
878.41652	17921.4125
882.22745	17968.7125
886.03573	17991.7125
889.84136	18006.4125
893.64433	17950.9125
897.44466	17931.2125
901.24235	17834.4125
905.0374	17779.1125
908.8298	17727.9125
912.61957	17671.1125
916.40671	17793.8125
920.19121	17898.3125
923.97308	18005.6125
927.75233	18005.9125
931.52895	17927.3125
935.30295	17767.5125
939.07433	17546.1125
942.84309	17359.0125
946.60924	17224.7125
950.37278	17159.9125
954.13371	17124.9125
957.89203	17092.2125
961.64774	17090.2125
965.40086	17077.4125
969.15137	17035.3125
972.89929	16946.1125
976.64461	16905.5125
980.38733	16844.2125
984.12747	16849.1125
987.86502	16890.5125
991.59999	17031.9125
995.33237	17169.4125
999.06217	17380.4125
1002.78939	17651.8125
1006.51404	17796.7125
1010.23611	17921.0125
1013.95561	18068.7125
1017.67255	18126.9125
1021.38692	17993.4125
1025.09872	17889.3125
1028.80796	17780.0125
1032.51465	17825.1125
1036.21877	17965.5125
1039.92035	18013.2125
1043.61937	17934.0125
1047.31584	17841.3125
1051.00976	17738.6125
1054.70114	17732.5125
1058.38998	17800.5125
1062.07627	17900.2125
1065.76003	17974.2125
1069.44126	18048.6125
1073.11995	18124.6125
1076.79611	18269.9125
1080.46974	18337.5125
1084.14085	18435.7125
1087.80943	18585.8125
1091.47549	18683.5125
1095.13903	18740.5125
1098.80005	18583.9125
1102.45857	18391.3125
1106.11456	18178.2125
1109.76805	18150.4125
1113.41903	18148.9125
1117.06751	18265.7125
1120.71348	18424.8125
1124.35696	18576.3125
1127.99793	18759.0125
1131.63641	18902.8125
1135.2724	18813.5125
1138.90589	18673.9125
1142.5369	18606.5125
1146.16542	18637.7125
1149.79145	18734.4125
1153.415	18859.2125
1157.03607	19045.8125
1160.65467	19456.7125
1164.27079	20053.4125
1167.88443	20842.7125
1171.49561	21789.4125
1175.10432	22947.0125
1178.71056	24472.2125
1182.31434	25896.9125
1185.91565	26676.1125
1189.51451	26707.3125
1193.11091	26300.1125
1196.70485	25538.7125
1200.29634	24702.5125
1203.88538	24064.5125
1207.47197	23585.3125
1211.05612	23115.6125
1214.63782	22651.6125
1218.21708	22321.1125
1221.79391	22045.0125
1225.36829	21810.8125
1228.94024	21571.3125
1232.50976	21203.9125
1236.07685	20899.7125
1239.6415	20794.7125
1243.20374	20808.7125
1246.76355	20863.9125
1250.32093	21035.6125
1253.8759	21329.3125
1257.42845	21769.0125
1260.97859	22175.1125
1264.52631	22650.3125
1268.07163	23087.8125
1271.61453	23525.9125
1275.15503	23994.0125
1278.69312	24478.7125
1282.22882	24954.2125
1285.76211	25467.6125
1289.29301	26165.0125
1292.82151	27117.3125
1296.34761	28306.9125
1299.87133	29685.4125
1303.39266	31081.0125
1306.9116	32503.0125
1310.42815	33785.6125
1313.94233	34673.5125
1317.45412	34722.4125
1320.96354	34281.9125
1324.47058	33838.6125
1327.97525	33383.6125
1331.47754	33058.4125
1334.97747	32951.9125
1338.47502	32943.1125
1341.97022	32914.1125
1345.46305	32679.4125
1348.95352	32294.9125
1352.44163	32001.6125
1355.92738	31983.0125
1359.41078	32516.5125
1362.89183	33198.9125
1366.37053	32629.2125
1369.84688	30393.6125
1373.32088	27864.3125
1376.79254	26121.5125
1380.26186	25451.0125
1383.72883	25499.8125
1387.19347	25625.7125
1390.65578	25702.0125
1394.11575	25812.0125
1397.57339	26111.1125
1401.0287	26474.0125
1404.48168	26711.7125
1407.93234	26657.3125
1411.38068	26175.8125
1414.82669	25364.2125
1418.27039	24396.4125
1421.71177	23415.9125
1425.15083	22649.5125
1428.58758	22223.9125
1432.02203	22251.0125
1435.45416	22619.6125
1438.88399	23095.1125
1442.31151	23627.3125
1445.73673	23969.9125
1449.15965	24341.2125
1452.58027	24633.7125
1455.9986	24856.0125
1459.41463	25044.1125
1462.82837	25234.7125
1466.23982	25469.1125
1469.64898	25601.4125
1473.05586	25636.7125
1476.46045	25496.2125
1479.86276	25238.8125
1483.26279	24933.7125
1486.66054	24761.2125
1490.05602	24749.7125
1493.44922	24838.2125
1496.84016	25040.0125
1500.22882	25458.6125
1503.61521	26097.9125
1506.99934	26981.9125
1510.38121	27769.6125
1513.76081	28073.8125
1517.13816	27606.5125
1520.51324	26684.9125
1523.88607	25860.9125
1527.25665	25477.6125
1530.62498	25387.9125
1533.99105	25341.4125
1537.35488	25275.7125
1540.71647	25065.0125
1544.07581	24672.5125
1547.4329	24227.9125
1550.78776	23799.0125
1554.14038	23516.4125
1557.49077	23432.4125
1560.83892	23312.0125
1564.18484	23323.1125
1567.52853	23365.9125
1570.86999	23559.5125
1574.20922	23918.6125
1577.54624	24233.6125
1580.88103	24373.6125
1584.2136	24492.7125
1587.54395	24902.4125
1590.87208	25565.8125
1594.19801	26598.6125
1597.52172	27641.9125
1600.84321	27955.4125
1604.16251	27144.5125
1607.47959	25642.6125
1610.79447	23933.4125
1614.10715	22223.4125
1617.41763	20854.7125
1620.7259	19829.4125
1624.03199	19206.5125
1627.33587	19098.3125
1630.63757	19458.6125
1633.93707	20303.4125
1637.23439	21781.4125
1640.52951	23831.5125
1643.82246	26251.2125
1647.11321	28124.0125
1650.40179	28600.2125
1653.68819	27164.7125
1656.97241	24378.0125
1660.25446	21482.7125
1663.53433	19302.2125
1666.81203	17853.7125
1670.08756	16906.2125
1673.36092	16324.7125
1676.63211	15898.7125
1679.90115	15640.1125
1683.16801	15428.1125
1686.43272	15257.5125
1689.69527	15162.0125
1692.95567	15090.5125
1696.2139	15050.9125
1699.46999	14984.9125
1702.72392	14909.9125
1705.97571	14862.3125
1709.22535	14807.1125
1712.47284	14760.7125
1715.71819	14738.1125
1718.96139	14671.7125
1722.20246	14642.4125
1725.44139	14560.9125
1728.67818	14530.8125
1731.91284	14453.2125
1735.14537	14388.7125
1738.37576	14332.3125
1741.60403	14270.7125
1744.83017	14238.1125
1748.05418	14215.2125
1751.27607	14210.0125
1754.49584	14200.2125
1757.71349	14182.7125
1760.92903	14168.9125
1764.14244	14130.8125
1767.35375	14123.8125
1770.56294	14058.6125
1773.77002	14052.5125
1776.97499	14015.1125
1780.17785	13978.1125
1783.37861	13944.5125
1786.57727	13883.6125
1789.77382	13870.4125
1792.96828	13848.5125
1796.16064	13831.2125
1799.3509	13769.5125
1802.53907	13745.3125
1805.72514	13707.7125
1808.90913	13649.5125
1812.09102	13620.6125
1815.27083	13586.3125
1818.44856	13583.3125
1821.6242	13525.3125
1824.79776	13519.2125
1827.96924	13494.4125
1831.13864	13486.4125
1834.30597	13459.6125
1837.47122	13436.5125
1840.6344	13439.7125
1843.7955	13420.6125
1846.95454	13396.6125
1850.11151	13393.6125
1853.26642	13381.4125
1856.41926	13365.5125
1859.57004	13360.8125
1862.71876	13356.2125
1865.86542	13346.4125
1869.01003	13307.1125
1872.15258	13274.7125
1875.29308	13304.2125
1878.43152	13258.8125
1881.56792	13252.4125
1884.70227	13253.4125
1887.83457	13259.9125
1890.96482	13215.8125
1894.09304	13179.1125
1897.21921	13155.0125
1900.34335	13170.2125
1903.46544	13140.8125
1906.58551	13137.5125
1909.70353	13103.1125
1912.81953	13101.3125
1915.93349	13080.6125
1919.04543	13040.3125
1922.15534	13002.2125
1925.26322	12968.3125
1928.36908	12954.3125
1931.47292	12936.1125
1934.57473	12911.8125
1937.67453	12867.5125
1940.77232	12829.3125
1943.86808	12795.0125
1946.96184	12756.4125
1950.05358	12736.3125
1953.14331	12689.0125
1956.23103	12628.0125
1959.31675	12612.8125
1962.40046	12575.9125
1965.48217	12513.4125
1968.56188	12477.4125
1971.63959	12448.2125
1974.7153	12412.2125
1977.78901	12376.8125
1980.86073	12330.4125
1983.93046	12290.0125
1986.99819	12273.3125
1990.06394	12210.3125
1993.1277	12193.8125
1996.18947	12125.6125
1999.24925	12071.3125
2002.30706	12061.8125
2005.36288	12028.9125
2008.41672	11974.4125
2011.46859	11976.1125
2014.51848	11950.5125
2017.56639	11902.4125
2020.61233	11875.6125
2023.6563	11859.9125
2026.6983	11805.9125
2029.73833	11773.1125
2032.7764	11768.0125
2035.8125	11739.4125
2038.84664	11684.1125
2041.87881	11644.9125
2044.90903	11603.0125
2047.93729	11618.9125
2050.96359	11615.0125
2053.98794	11585.9125
2057.01034	11570.4125
2060.03078	11537.4125
2063.04927	11517.8125
2066.06582	11522.0125
2069.08042	11541.3125
2072.09307	11527.9125
2075.10378	11494.3125
2078.11255	11494.2125
2081.11938	11484.2125
2084.12426	11502.0125
2087.12722	11489.4125
2090.12824	11445.1125
2093.12732	11469.5125
2096.12447	11461.4125
2099.11969	11442.1125
2102.11299	11457.6125
2105.10435	11437.1125
2108.09379	11471.2125
2111.08131	11456.3125
2114.0669	11468.4125
2117.05057	11448.5125
2120.03233	11461.7125
2123.01216	11475.8125
2125.99008	11478.6125
2128.96609	11495.6125
2131.94018	11529.7125
2134.91236	11533.6125
2137.88263	11502.3125
2140.851	11516.1125
2143.81746	11510.0125
2146.78201	11518.3125
2149.74466	11499.5125
2152.7054	11509.3125
2155.66425	11516.7125
2158.6212	11502.0125
2161.57625	11488.0125
2164.52941	11488.8125
2167.48067	11480.1125
2170.43004	11477.9125
2173.37752	11462.0125
2176.32311	11469.4125
2179.26681	11456.4125
2182.20863	11439.6125
2185.14856	11472.8125
2188.08661	11450.1125
2191.02278	11456.7125
2193.95707	11440.5125
2196.88948	11436.7125
2199.82001	11417.9125
2202.74867	11385.4125
2205.67545	11394.5125
2208.60037	11388.8125
2211.52341	11372.6125
2214.44458	11351.5125
2217.36388	11329.1125
2220.28132	11293.9125
2223.1969	11243.0125
2226.11061	11253.2125
2229.02246	11211.8125
2231.93245	11191.8125
2234.84058	11161.4125
2237.74686	11127.3125
2240.65128	11123.7125
2243.55385	11080.7125
2246.45456	11075.8125
2249.35343	11061.6125
2252.25044	11046.2125
2255.14561	11039.9125
2258.03893	11003.9125
2260.93041	11006.4125
2263.82004	10972.3125
2266.70783	10934.5125
2269.59378	10914.8125
2272.4779	10861.1125
2275.36017	10828.5125
2278.24061	10836.9125
2281.11922	10780.2125
2283.996	10815.5125
2286.87094	10790.5125
2289.74405	10776.4125
2292.61534	10733.1125
2295.4848	10743.9125
2298.35243	10741.5125
2301.21824	10734.6125
2304.08223	10709.6125
2306.94439	10710.6125
2309.80474	10730.5125
2312.66327	10698.1125
2315.51999	10677.3125
2318.37489	10684.0125
2321.22797	10664.5125
2324.07925	10622.5125
2326.92871	10626.9125
2329.77637	10592.8125
2332.62222	10563.0125
2335.46626	10581.3125
2338.3085	10561.6125
2341.14893	10531.0125
2343.98756	10554.1125
2346.8244	10552.1125
2349.65943	10527.3125
2352.49267	10502.0125
2355.32411	10515.2125
2358.15376	10509.6125
2360.98161	10497.4125
2363.80768	10501.3125
2366.63195	10481.7125
2369.45444	10456.5125
2372.27514	10458.7125
2375.09405	10457.9125
2377.91118	10420.0125
2380.72652	10392.7125
2383.54009	10358.9125
2386.35187	10335.0125
2389.16188	10308.4125
2391.97011	10301.1125
2394.77657	10243.9125
2397.58125	10249.2125
2400.38416	10233.6125
2403.18529	10233.2125
2405.98466	10210.5125
2408.78226	10180.4125
2411.57809	10155.9125
2414.37216	10162.8125
2417.16446	10137.0125
2419.955	10146.1125
2422.74378	10082.1125
2425.5308	10108.7125
2428.31606	10098.3125
2431.09956	10079.8125
2433.88131	10083.9125
2436.6613	10074.2125
2439.43954	10078.5125
2442.21603	10052.2125
2444.99077	10030.6125
2447.76377	10011.3125
2450.53501	10026.8125
2453.30451	10024.1125
2456.07226	9999.6125
2458.83827	10000.4125
2461.60254	9983.7125
2464.36507	9976.9125
2467.12586	9971.6125
2469.88492	9938.9125
2472.64224	9938.9125
2475.39782	9967.9125
2478.15167	9969.9125
2480.90379	9968.6125
2483.65417	9945.1125
2486.40283	9966.5125
2489.14976	9950.0125
2491.89497	9951.5125
2494.63845	9953.4125
2497.3802	9904.8125
2500.12024	9927.0125
2502.85855	9918.7125
2505.59514	9911.7125
2508.33002	9907.5125
2511.06318	9890.2125
2513.79462	9860.1125
2516.52435	9862.3125
2519.25237	9821.3125
2521.97867	9826.8125
2524.70327	9845.1125
2527.42616	9803.6125
2530.14734	9801.0125
2532.86681	9776.7125
2535.58458	9794.5125
2538.30065	9815.0125
2541.01501	9790.5125
2543.72768	9764.2125
2546.43864	9748.5125
2549.14791	9713.3125
2551.85548	9710.8125
2554.56136	9693.4125
2557.26554	9647.3125
2559.96803	9654.8125
2562.66883	9654.4125
2565.36794	9625.0125
2568.06536	9585.0125
2570.7611	9591.0125
2573.45514	9569.9125
2576.14751	9574.0125
2578.83819	9555.5125
2581.52719	9523.9125
2584.21451	9535.0125
2586.90015	9524.1125
2589.58411	9493.6125
2592.2664	9498.7125
2594.94701	9459.9125
2597.62594	9474.3125
2600.30321	9450.3125
2602.9788	9458.1125
2605.65273	9419.2125
2608.32498	9434.3125
2610.99557	9419.0125
2613.66449	9410.5125
2616.33175	9416.9125
2618.99734	9403.5125
2621.66128	9393.2125
2624.32355	9376.3125
2626.98416	9362.5125
2629.64311	9372.6125
2632.30041	9371.0125
2634.95605	9326.3125
2637.61004	9329.0125
2640.26238	9325.4125
2642.91306	9314.7125
2645.56209	9303.3125
2648.20948	9299.6125
2650.85521	9289.5125
2653.4993	9297.3125
2656.14175	9292.6125
2658.78255	9286.5125
2661.42171	9291.8125
2664.05923	9306.3125
2666.6951	9311.3125
2669.32934	9293.9125
2671.96194	9287.8125
2674.59291	9314.0125
2677.22224	9277.4125
2679.84993	9284.1125
2682.476	9279.0125
2685.10043	9268.5125
2687.72324	9245.7125
2690.34441	9275.8125
2692.96396	9266.8125
2695.58188	9275.4125
2698.19818	9225.1125
2700.81285	9234.7125
2703.4259	9251.4125
2706.03733	9282.3125
2708.64714	9255.1125
2711.25533	9287.3125
2713.86191	9238.3125
2716.46687	9280.2125
2719.07021	9252.2125
2721.67194	9279.4125
2724.27206	9266.2125
2726.87057	9255.9125
2729.46747	9255.1125
2732.06276	9249.9125
2734.65644	9249.7125
2737.24852	9265.4125
2739.83899	9260.6125
2742.42786	9248.9125
2745.01513	9210.3125
2747.60079	9226.7125
2750.18486	9201.0125
2752.76733	9196.2125
2755.3482	9200.4125
2757.92747	9176.4125
2760.50515	9148.3125
2763.08123	9142.2125
2765.65573	9147.0125
2768.22863	9145.0125
2770.79994	9116.0125
2773.36967	9111.8125
2775.9378	9115.8125
2778.50435	9106.0125
2781.06932	9105.2125
2783.6327	9099.3125
2786.1945	9091.6125
2788.75471	9111.4125
2791.31335	9077.7125
2793.87041	9080.9125
2796.42589	9047.6125
2798.97979	9030.2125
2801.53212	9005.4125
2804.08288	9016.5125
2806.63206	8988.5125
2809.17967	8936.9125
2811.72571	8931.7125
2814.27018	8917.9125
2816.81308	8910.0125
2819.35442	8888.9125
2821.89419	8874.3125
2824.43239	8857.7125
2826.96904	8841.6125
2829.50412	8830.5125
2832.03763	8833.7125
2834.56959	8822.4125
2837.1	8846.6125
2839.62884	8846.0125
2842.15613	8828.5125
2844.68186	8837.4125
2847.20604	8853.8125
2849.72867	8896.8125
2852.24974	8889.2125
2854.76927	8862.0125
2857.28724	8824.7125
2859.80367	8827.3125
2862.31855	8803.8125
2864.83189	8792.7125
2867.34368	8770.6125
2869.85393	8770.4125
2872.36264	8744.3125
2874.8698	8748.6125
2877.37543	8783.5125
2879.87952	8752.3125
2882.38207	8763.9125
2884.88308	8742.4125
2887.38256	8747.9125
2889.88051	8730.3125
2892.37692	8750.9125
2894.8718	8757.0125
2897.36515	8766.4125
2899.85698	8770.2125
2902.34727	8797.2125
2904.83604	8777.5125
2907.32328	8801.3125
2909.809	8809.4125
2912.29319	8801.9125
2914.77587	8810.5125
2917.25702	8776.5125
2919.73665	8780.5125
2922.21476	8790.6125
2924.69136	8771.0125
2927.16644	8770.9125
2929.64	8748.2125
2932.11205	8776.6125
2934.58258	8741.0125
2937.05161	8758.5125
2939.51912	8752.9125
2941.98513	8725.4125
2944.44962	8737.9125
2946.91261	8685.3125
2949.37409	8702.0125
2951.83407	8683.6125
2954.29254	8659.5125
2956.74951	8645.9125
2959.20498	8637.2125
2961.65895	8635.8125
2964.11142	8641.4125
2966.56239	8623.1125
2969.01186	8622.8125
2971.45984	8598.2125
2973.90632	8578.9125
2976.35131	8535.4125
2978.7948	8537.6125
2981.23681	8498.2125
2983.67732	8463.2125
2986.11635	8444.0125
2988.55388	8440.8125
2990.98993	8415.3125
2993.4245	8395.8125
2995.85758	8366.6125
2998.28917	8353.6125
3000.71928	8331.9125
3003.14791	8318.5125
3005.57506	8316.2125
3008.00073	8277.6125
3010.42493	8267.8125
3012.84764	8266.2125
3015.26888	8235.7125
3017.68865	8229.6125
3020.10694	8214.3125
3022.52376	8206.9125
3024.9391	8205.6125
3027.35298	8183.6125
3029.76539	8165.1125
3032.17632	8163.6125
3034.5858	8177.2125
3036.9938	8175.0125
3039.40034	8176.5125
3041.80542	8142.6125
3044.20903	8133.1125
3046.61118	8137.9125
3049.01187	8119.0125
3051.4111	8120.1125
3053.80888	8088.4125
3056.20519	8065.0125
3058.60005	8025.1125
3060.99345	8018.9125
3063.3854	8005.9125
3065.7759	7981.3125
3068.16494	7959.8125
3070.55254	7963.8125
3072.93868	7969.1125
3075.32338	7943.8125
3077.70662	7922.4125
3080.08842	7895.8125
3082.46878	7874.1125
3084.84769	7860.8125
3087.22515	7870.2125
3089.60118	7877.2125
3091.97576	7873.1125
3094.3489	7858.6125
3096.72061	7859.8125
3099.09087	7854.1125
3101.4597	7851.3125
3103.82709	7845.7125
3106.19305	7858.1125
3108.55757	7860.9125
3110.92066	7824.4125
3113.28232	7805.8125
3115.64255	7792.4125
3118.00134	7780.2125
3120.35871	7789.2125
3122.71466	7763.7125
3125.06917	7751.8125
3127.42226	7726.7125
3129.77393	7726.2125
3132.12417	7726.4125
3134.47299	7738.1125
3136.82039	7716.8125
3139.16636	7706.2125
3141.51092	7703.4125
3143.85406	7723.9125
3146.19579	7711.2125
3148.53609	7725.4125
3150.87499	7718.8125
3153.21246	7698.6125
3155.54853	7730.4125
3157.88318	7748.3125
3160.21642	7724.9125
3162.54826	7746.4125
3164.87868	7742.5125
3167.2077	7740.4125
3169.5353	7727.2125
3171.86151	7746.5125
3174.18631	7740.0125
3176.5097	7725.2125
3178.83169	7724.3125
3181.15228	7727.4125
3183.47147	7708.4125
3185.78926	7730.8125
3188.10565	7701.5125
3190.42065	7699.1125
3192.73424	7686.9125
3195.04645	7692.3125
3197.35725	7682.5125
3199.66667	7670.4125
3201.97469	7703.7125
3204.28132	7695.3125
3206.58656	7701.3125
3208.8904	7687.6125
3211.19287	7678.7125
3213.49394	7685.0125
3215.79363	7694.0125
3218.09193	7688.1125
3220.38884	7711.2125
3222.68438	7700.1125
3224.97853	7676.4125
3227.2713	7684.3125
3229.56269	7664.4125
3231.8527	7655.6125
3234.14133	7650.6125
3236.42858	7650.3125
3238.71446	7640.4125
3240.99896	7611.5125
3243.28209	7583.3125
3245.56384	7600.7125
3247.84423	7589.6125
3250.12324	7589.0125
3252.40088	7578.2125
3254.67715	7562.1125
3256.95205	7538.3125
3259.22558	7545.1125
3261.49775	7525.0125
3263.76855	7533.1125
3266.03799	7504.6125
3268.30606	7499.7125
3270.57277	7486.6125
3272.83812	7473.9125
3275.10211	7450.2125
3277.36474	7441.4125
3279.62601	7435.0125
3281.88593	7427.7125
3284.14448	7434.1125
3286.40168	7423.1125
3288.65753	7440.5125
3290.91202	7436.5125
3293.16516	7415.3125
3295.41695	7417.4125
3297.66738	7345.1125
3299.91647	7329.3125
3302.16421	7267.4125
3304.4106	7223.1125
3306.65564	7183.2125
3308.89933	7134.6125
3311.14169	7070.7125
3313.38269	6996.9125
3315.62236	6970.8125
3317.86068	6910.5125
3320.09766	6878.7125
3322.3333	6813.8125
3324.5676	6786.7125
3326.80056	6668.5125
3329.03219	6641.5125
3331.26248	3.6125
3333.49143	-0.3875
3335.71905	-1.7875
