Data from AgNP_FTO_APTES_UA_10uM_CRN_10uM_R6G_10uM_NaF_0.1M_Addition_RamanShift__14__15-40-40-703.txt Node

Date: Thu Feb 10 15:40:40 GMT 2022
User: TCL
Spectrometer: QEP01345
Trigger mode: 4
Integration Time (sec): 7.000000E0
Scans to average: 10
Electric dark correction enabled: true
Nonlinearity correction enabled: false
Boxcar width: 0
XAxis mode: Raman Shifts
Number of Pixels in Spectrum: 1044
>>>>>Begin Spectral Data<<<<<
46.04893	-0.4
50.45542	-0.8
54.85868	-1.7
59.25871	-1.3
63.6555	73.6
68.04907	73.5
72.43941	79.1
76.82654	78.8
81.21044	85.1
85.59113	84.6
89.96862	88.6
94.34289	92.6
98.71396	94.9
103.08183	95.1
107.4465	102.8
111.80798	101.9
116.16626	106.4
120.52136	114.9
124.87327	118.3
129.222	123.3
133.56755	132.3
137.90993	139.2
142.24913	150.2
146.58517	175.2
150.91804	201.4
155.24774	243.2
159.57429	304.2
163.89768	384
168.21792	517.3
172.53501	706.2
176.84895	987.5
181.15975	1382.2
185.46741	1941.4
189.77193	2682.4
194.07331	3583.5
198.37157	4625.8
202.6667	5736.1
206.9587	6822
211.24758	7876.3
215.53334	8924.4
219.81599	10023.4
224.09553	11229.2
228.37195	12563.3
232.64527	14018.8
236.91549	15579.8
241.18261	17149.3
245.44663	18623.8
249.70755	20017.5
253.96539	21234.1
258.22014	22263.8
262.4718	23053.3
266.72039	23667.1
270.96589	24001.3
275.20832	24114.9
279.44768	24056.4
283.68397	23919.2
287.91719	23761.8
292.14735	23608.2
296.37445	23569
300.59849	23600.3
304.81948	23661.3
309.03742	23562.2
313.25231	23336.3
317.46415	22879
321.67296	22414.8
325.87872	22003.5
330.08145	21801.7
334.28114	21805
338.47781	21960.8
342.67145	22224.9
346.86207	22498.9
351.04966	22843.9
355.23424	23173.3
359.4158	23458.6
363.59435	23676.4
367.76989	23865.6
371.94243	23987.5
376.11196	24106.6
380.27849	24183.2
384.44203	24292.4
388.60257	24425.6
392.76012	24703.6
396.91468	25054.9
401.06626	25389.1
405.21485	25620
409.36047	25554
413.50311	25278.5
417.64277	25139
421.77947	25079.7
425.9132	25234.3
430.04396	25431
434.17176	25491.1
438.2966	25570.1
442.41849	25857.3
446.53742	26298
450.6534	26807.5
454.76644	27217.6
458.87653	27439
462.98368	27456.4
467.08789	27393.1
471.18916	27190.4
475.2875	26961.4
479.38291	26856.9
483.4754	26711
487.56496	26538.9
491.6516	26185.4
495.73531	25834.4
499.81612	25669.3
503.89401	25762.7
507.96899	25868.9
512.04106	25891.4
516.11023	25837.6
520.1765	25640
524.23987	25406
528.30034	25125.5
532.35792	24951.1
536.41261	24718.2
540.46441	24554.3
544.51333	24651.2
548.55936	24890.6
552.60252	25304.7
556.64279	25769.7
560.6802	26160.5
564.71473	26452.1
568.7464	26886.1
572.7752	27584.9
576.80114	28399.5
580.82422	29124.9
584.84444	29599.8
588.86181	29962.6
592.87633	30129.1
596.888	29865.1
600.89682	29298.4
604.9028	29397
608.90594	30795.2
612.90624	32090.5
616.90371	30290.1
620.89834	26781.2
624.89015	25346.7
628.87913	25184
632.86528	25445.8
636.84862	25489.3
640.82913	25200.1
644.80683	24764.4
648.78172	24402.9
652.75379	24287.4
656.72306	24469.8
660.68952	24759.3
664.65319	24689.4
668.61405	24433.3
672.57211	24439.6
676.52738	24541.9
680.47986	24519.7
684.42955	24376.1
688.37646	24353
692.32058	24410
696.26192	24656.9
700.20048	24876.6
704.13626	25083.2
708.06928	25200.3
711.99952	25084.7
715.927	24997.5
719.85171	24940.9
723.77365	24815
727.69284	24636.5
731.60928	24334
735.52295	24169.1
739.43388	24132.5
743.34206	24167.6
747.24749	24282.7
751.15017	24514.4
755.05012	24859.8
758.94733	25459.2
762.8418	26446.8
766.73354	27899.9
770.62254	29124.8
774.50882	29234.1
778.39237	28185.7
782.27321	26713.1
786.15132	25549.3
790.02671	24802.9
793.89938	24371.7
797.76935	24190.3
801.6366	24049.3
805.50115	23961.6
809.36299	23865.2
813.22213	23747.4
817.07857	23719.1
820.93231	23704
824.78336	23664.4
828.63172	23524.2
832.47738	23468.4
836.32036	23462.5
840.16066	23449.9
843.99827	23403.8
847.8332	23405.7
851.66546	23440.6
855.49504	23476.2
859.32195	23506.6
863.1462	23450.1
866.96777	23412.4
870.78668	23349.7
874.60293	23361.1
878.41652	23412.7
882.22745	23436.6
886.03573	23507.9
889.84136	23487.6
893.64433	23385.4
897.44466	23378.8
901.24235	23324.9
905.0374	23299.3
908.8298	23274.2
912.61957	23324.2
916.40671	23521.8
920.19121	23787.7
923.97308	23938.3
927.75233	23826.2
931.52895	23572.3
935.30295	23277.4
939.07433	23021.3
942.84309	22758.4
946.60924	22599.9
950.37278	22575
954.13371	22558.8
957.89203	22536.9
961.64774	22532.5
965.40086	22515.3
969.15137	22509
972.89929	22427.8
976.64461	22338
980.38733	22292.5
984.12747	22335.4
987.86502	22393.9
991.59999	22477.4
995.33237	22589.4
999.06217	22825.2
1002.78939	23122.8
1006.51404	23440.2
1010.23611	23764.9
1013.95561	24009.4
1017.67255	23998
1021.38692	23842.8
1025.09872	23575.6
1028.80796	23360.6
1032.51465	23298.3
1036.21877	23303.8
1039.92035	23436.4
1043.61937	23511
1047.31584	23540.7
1051.00976	23593.8
1054.70114	23714.5
1058.38998	23918.8
1062.07627	24176.8
1065.76003	24478
1069.44126	24698
1073.11995	24980.3
1076.79611	25253.7
1080.46974	25362.6
1084.14085	25527.1
1087.80943	25701.4
1091.47549	25969.4
1095.13903	26028.9
1098.80005	25811.4
1102.45857	25353.3
1106.11456	24918.9
1109.76805	24657.3
1113.41903	24558.3
1117.06751	24656.2
1120.71348	24784.7
1124.35696	24993.8
1127.99793	25208.2
1131.63641	25346.6
1135.2724	25308.2
1138.90589	25289.5
1142.5369	25366.4
1146.16542	25399.4
1149.79145	25630.5
1153.415	25883.6
1157.03607	26233.1
1160.65467	26754.2
1164.27079	27677.5
1167.88443	28772.5
1171.49561	30022.9
1175.10432	31505.9
1178.71056	33278.4
1182.31434	35009.2
1185.91565	36075.4
1189.51451	36435.7
1193.11091	36167.3
1196.70485	35319.8
1200.29634	34157.4
1203.88538	33272.9
1207.47197	32743.9
1211.05612	32387.4
1214.63782	31881.3
1218.21708	31112.9
1221.79391	30243
1225.36829	29582.7
1228.94024	29223.7
1232.50976	28936.5
1236.07685	28801.4
1239.6415	28744.3
1243.20374	28771.2
1246.76355	28914.9
1250.32093	29250.8
1253.8759	29715.7
1257.42845	30334.2
1260.97859	31071.2
1264.52631	31798.6
1268.07163	32503.4
1271.61453	33208.4
1275.15503	33929.1
1278.69312	34643.6
1282.22882	35285.3
1285.76211	36169.7
1289.29301	37142.8
1292.82151	38483.8
1296.34761	39940
1299.87133	41641
1303.39266	43399.3
1306.9116	44930.7
1310.42815	46049.8
1313.94233	46660.3
1317.45412	46593.6
1320.96354	46437.8
1324.47058	46377.9
1327.97525	46578.1
1331.47754	46808.8
1334.97747	47105.2
1338.47502	47498.6
1341.97022	47815.4
1345.46305	47800.2
1348.95352	47349.7
1352.44163	46677
1355.92738	46082.4
1359.41078	46046
1362.89183	46163.2
1366.37053	44940.3
1369.84688	42322
1373.32088	39242.8
1376.79254	37057.9
1380.26186	36181.5
1383.72883	36176.7
1387.19347	36258.2
1390.65578	36108.6
1394.11575	36051.9
1397.57339	36132
1401.0287	36376.6
1404.48168	36549.4
1407.93234	36452.7
1411.38068	35787.3
1414.82669	34740.5
1418.27039	33521.7
1421.71177	32317.8
1425.15083	31463.4
1428.58758	31063.7
1432.02203	31261.4
1435.45416	31812.5
1438.88399	32709.6
1442.31151	33290.8
1445.73673	33720
1449.15965	34084.7
1452.58027	34371.7
1455.9986	34555.9
1459.41463	34929.8
1462.82837	35364.7
1466.23982	35774.3
1469.64898	36139.5
1473.05586	36317.4
1476.46045	36163.7
1479.86276	35930.5
1483.26279	35697.3
1486.66054	35588.2
1490.05602	35680.9
1493.44922	36039.7
1496.84016	36574
1500.22882	37426.5
1503.61521	38540.1
1506.99934	39666.6
1510.38121	40453.1
1513.76081	40544.7
1517.13816	39938
1520.51324	39111.8
1523.88607	38457
1527.25665	38161.3
1530.62498	38130.8
1533.99105	38009.9
1537.35488	37531.8
1540.71647	36777
1544.07581	35863.4
1547.4329	34950.9
1550.78776	34351.9
1554.14038	33811.5
1557.49077	33578.1
1560.83892	33413
1564.18484	33386.4
1567.52853	33437.1
1570.86999	33670.2
1574.20922	34132
1577.54624	34612.1
1580.88103	34795
1584.2136	34956.9
1587.54395	35564.7
1590.87208	36677.6
1594.19801	38008.3
1597.52172	39259.6
1600.84321	39403.4
1604.16251	38039.9
1607.47959	35935.5
1610.79447	33750.9
1614.10715	31528
1617.41763	29572.5
1620.7259	28110.8
1624.03199	27316.1
1627.33587	27133.2
1630.63757	27694.4
1633.93707	29108.6
1637.23439	31473.6
1640.52951	34847.7
1643.82246	38545.7
1647.11321	41402.2
1650.40179	41907.3
1653.68819	39541
1656.97241	35318.2
1660.25446	31093.3
1663.53433	27740.6
1666.81203	25434.2
1670.08756	23892.6
1673.36092	22931.5
1676.63211	22331.9
1679.90115	21889.6
1683.16801	21530.6
1686.43272	21263.2
1689.69527	21128.1
1692.95567	20989.4
1696.2139	20866.6
1699.46999	20817.3
1702.72392	20734.4
1705.97571	20646.7
1709.22535	20582.2
1712.47284	20509.8
1715.71819	20451.7
1718.96139	20396.8
1722.20246	20337.1
1725.44139	20227.3
1728.67818	20106.2
1731.91284	20000.3
1735.14537	19892.6
1738.37576	19845
1741.60403	19775.4
1744.83017	19678.6
1748.05418	19617.3
1751.27607	19590
1754.49584	19560.1
1757.71349	19549.8
1760.92903	19535.1
1764.14244	19468.2
1767.35375	19477.3
1770.56294	19448.1
1773.77002	19402.6
1776.97499	19329.4
1780.17785	19264.8
1783.37861	19244.5
1786.57727	19205.1
1789.77382	19150.9
1792.96828	19161.4
1796.16064	19101.9
1799.3509	19086.5
1802.53907	19049
1805.72514	18966.4
1808.90913	18917.8
1812.09102	18919.4
1815.27083	18834.9
1818.44856	18848.6
1821.6242	18783.8
1824.79776	18760.4
1827.96924	18785.3
1831.13864	18736.6
1834.30597	18729.5
1837.47122	18743
1840.6344	18750.8
1843.7955	18746.4
1846.95454	18715.7
1850.11151	18712.9
1853.26642	18697.1
1856.41926	18683.4
1859.57004	18660.1
1862.71876	18623
1865.86542	18586.4
1869.01003	18555.5
1872.15258	18537.7
1875.29308	18524.8
1878.43152	18478.6
1881.56792	18460.6
1884.70227	18379.8
1887.83457	18349.6
1890.96482	18341.7
1894.09304	18298.2
1897.21921	18275.1
1900.34335	18264.9
1903.46544	18195.4
1906.58551	18203.6
1909.70353	18177
1912.81953	18131.9
1915.93349	18109.1
1919.04543	18070.6
1922.15534	18031.7
1925.26322	17986.4
1928.36908	17922.7
1931.47292	17922.6
1934.57473	17829.4
1937.67453	17841.2
1940.77232	17789
1943.86808	17720
1946.96184	17658
1950.05358	17593.7
1953.14331	17518.6
1956.23103	17505.4
1959.31675	17462.1
1962.40046	17397
1965.48217	17344.6
1968.56188	17316.7
1971.63959	17209.2
1974.7153	17170.1
1977.78901	17100.8
1980.86073	17057.1
1983.93046	17062.5
1986.99819	16985.1
1990.06394	16934
1993.1277	16860.5
1996.18947	16813.1
1999.24925	16771.8
2002.30706	16743.9
2005.36288	16639.7
2008.41672	16606.1
2011.46859	16557.1
2014.51848	16507.5
2017.56639	16497.1
2020.61233	16443.6
2023.6563	16403.4
2026.6983	16340.4
2029.73833	16298.4
2032.7764	16272.9
2035.8125	16223.1
2038.84664	16167.4
2041.87881	16117.4
2044.90903	16085.2
2047.93729	16046.6
2050.96359	16035.1
2053.98794	16017
2057.01034	16001.3
2060.03078	15992.7
2063.04927	15945
2066.06582	15962.3
2069.08042	15967.7
2072.09307	15960.6
2075.10378	15922.3
2078.11255	15886
2081.11938	15909.2
2084.12426	15893.2
2087.12722	15881.4
2090.12824	15882.1
2093.12732	15882
2096.12447	15880.9
2099.11969	15860
2102.11299	15853.8
2105.10435	15856.4
2108.09379	15860.5
2111.08131	15860.2
2114.0669	15843.3
2117.05057	15857.3
2120.03233	15881.6
2123.01216	15916.1
2125.99008	15947.4
2128.96609	15918.7
2131.94018	15933.1
2134.91236	15966.7
2137.88263	15945.9
2140.851	15915.9
2143.81746	15951.1
2146.78201	15918.6
2149.74466	15934.6
2152.7054	15926.8
2155.66425	15919.7
2158.6212	15947.9
2161.57625	15947.1
2164.52941	15895.1
2167.48067	15890.6
2170.43004	15875.6
2173.37752	15871.5
2176.32311	15883.9
2179.26681	15872.9
2182.20863	15833.3
2185.14856	15865.2
2188.08661	15841.3
2191.02278	15853.4
2193.95707	15899.8
2196.88948	15857
2199.82001	15773.2
2202.74867	15767.6
2205.67545	15738.3
2208.60037	15706.1
2211.52341	15695.6
2214.44458	15674.7
2217.36388	15636.3
2220.28132	15597.8
2223.1969	15574.6
2226.11061	15555.3
2229.02246	15520.2
2231.93245	15444.9
2234.84058	15416.7
2237.74686	15410.7
2240.65128	15432.2
2243.55385	15351.2
2246.45456	15302.4
2249.35343	15304.9
2252.25044	15297.6
2255.14561	15259.2
2258.03893	15246.9
2260.93041	15226.8
2263.82004	15179.1
2266.70783	15152.8
2269.59378	15076.7
2272.4779	15024.4
2275.36017	15002.7
2278.24061	14971.5
2281.11922	14965.2
2283.996	14923.2
2286.87094	14918.1
2289.74405	14876.5
2292.61534	14827.7
2295.4848	14843.6
2298.35243	14835.7
2301.21824	14802.6
2304.08223	14784.9
2306.94439	14747.7
2309.80474	14775
2312.66327	14787.9
2315.51999	14736.6
2318.37489	14725.4
2321.22797	14730.2
2324.07925	14699.4
2326.92871	14654.5
2329.77637	14621.9
2332.62222	14622.6
2335.46626	14591.9
2338.3085	14577.3
2341.14893	14536.2
2343.98756	14524
2346.8244	14557.6
2349.65943	14546.1
2352.49267	14537.2
2355.32411	14513.2
2358.15376	14528.9
2360.98161	14547.2
2363.80768	14529.2
2366.63195	14518.3
2369.45444	14466.6
2372.27514	14477
2375.09405	14454.2
2377.91118	14443.4
2380.72652	14359.7
2383.54009	14369.4
2386.35187	14322.9
2389.16188	14260.6
2391.97011	14234.2
2394.77657	14218.5
2397.58125	14196.7
2400.38416	14160.2
2403.18529	14158.1
2405.98466	14118.6
2408.78226	14104.8
2411.57809	14089.2
2414.37216	14101.7
2417.16446	14065.4
2419.955	14037.5
2422.74378	14024.4
2425.5308	14013.8
2428.31606	14038.9
2431.09956	14040.2
2433.88131	13975.6
2436.6613	14004.7
2439.43954	13971.7
2442.21603	13975.9
2444.99077	13957
2447.76377	13945.9
2450.53501	13894
2453.30451	13932.3
2456.07226	13897.2
2458.83827	13885.5
2461.60254	13914.9
2464.36507	13862.5
2467.12586	13836.7
2469.88492	13802.1
2472.64224	13789.3
2475.39782	13840.5
2478.15167	13845.4
2480.90379	13816.8
2483.65417	13841.3
2486.40283	13826.2
2489.14976	13798.5
2491.89497	13798.4
2494.63845	13808.2
2497.3802	13815.3
2500.12024	13805.1
2502.85855	13767.2
2505.59514	13775.4
2508.33002	13748.6
2511.06318	13755.2
2513.79462	13716.3
2516.52435	13699.4
2519.25237	13661.3
2521.97867	13659
2524.70327	13653
2527.42616	13663.4
2530.14734	13641.9
2532.86681	13632.8
2535.58458	13613.5
2538.30065	13602.4
2541.01501	13590.2
2543.72768	13567.5
2546.43864	13573.9
2549.14791	13538.5
2551.85548	13559.3
2554.56136	13502.1
2557.26554	13489.2
2559.96803	13452.7
2562.66883	13431.4
2565.36794	13405.1
2568.06536	13393.3
2570.7611	13363.8
2573.45514	13357.3
2576.14751	13334.1
2578.83819	13299.1
2581.52719	13310.4
2584.21451	13301
2586.90015	13254.9
2589.58411	13238.4
2592.2664	13241
2594.94701	13211.3
2597.62594	13206.1
2600.30321	13178.3
2602.9788	13202.6
2605.65273	13147.4
2608.32498	13156.8
2610.99557	13164.5
2613.66449	13155.3
2616.33175	13139.6
2618.99734	13114.8
2621.66128	13118.5
2624.32355	13076.7
2626.98416	13072.7
2629.64311	13052
2632.30041	13027.9
2634.95605	13041.2
2637.61004	12991.1
2640.26238	13015.2
2642.91306	12976.1
2645.56209	12970.5
2648.20948	13001.5
2650.85521	12996
2653.4993	12991
2656.14175	12990.7
2658.78255	13012.8
2661.42171	12990.3
2664.05923	13026.8
2666.6951	13010.5
2669.32934	13005.4
2671.96194	13009.7
2674.59291	12995.7
2677.22224	13011.4
2679.84993	13036.6
2682.476	12986.2
2685.10043	13009.1
2687.72324	12973.9
2690.34441	13000.2
2692.96396	12986.9
2695.58188	12975.4
2698.19818	12974.4
2700.81285	13001.6
2703.4259	12988.1
2706.03733	12994.8
2708.64714	12990.7
2711.25533	12980
2713.86191	12995.7
2716.46687	12976.6
2719.07021	12977.6
2721.67194	12994.5
2724.27206	13016.1
2726.87057	13028.1
2729.46747	13021.3
2732.06276	13015.9
2734.65644	13005.8
2737.24852	13003.8
2739.83899	12985.8
2742.42786	13003.3
2745.01513	12979.7
2747.60079	12952.1
2750.18486	12946.5
2752.76733	12937.4
2755.3482	12908.7
2757.92747	12919.8
2760.50515	12887.5
2763.08123	12889.7
2765.65573	12859.2
2768.22863	12855.1
2770.79994	12831.4
2773.36967	12858.6
2775.9378	12835.1
2778.50435	12821.9
2781.06932	12815.1
2783.6327	12813.9
2786.1945	12788.6
2788.75471	12785.5
2791.31335	12749.1
2793.87041	12734.6
2796.42589	12723.6
2798.97979	12709.7
2801.53212	12695.2
2804.08288	12698
2806.63206	12655.3
2809.17967	12606.1
2811.72571	12588.3
2814.27018	12549.7
2816.81308	12513.1
2819.35442	12489
2821.89419	12482.3
2824.43239	12465.6
2826.96904	12423.3
2829.50412	12442.9
2832.03763	12386.7
2834.56959	12373.1
2837.1	12391
2839.62884	12379.2
2842.15613	12360.2
2844.68186	12364.8
2847.20604	12369.3
2849.72867	12395.3
2852.24974	12320.1
2854.76927	12330
2857.28724	12291.1
2859.80367	12299.5
2862.31855	12259.1
2864.83189	12252.3
2867.34368	12196.8
2869.85393	12195.5
2872.36264	12205.4
2874.8698	12196.2
2877.37543	12188
2879.87952	12178.4
2882.38207	12165
2884.88308	12149.1
2887.38256	12175.1
2889.88051	12181.2
2892.37692	12141.8
2894.8718	12157.5
2897.36515	12209.6
2899.85698	12169.5
2902.34727	12172.6
2904.83604	12184.6
2907.32328	12209.7
2909.809	12158.8
2912.29319	12216.8
2914.77587	12189.2
2917.25702	12165.5
2919.73665	12155.5
2922.21476	12197
2924.69136	12142.2
2927.16644	12158
2929.64	12117.3
2932.11205	12115.2
2934.58258	12069.5
2937.05161	12070.6
2939.51912	12083.9
2941.98513	12046
2944.44962	12036.4
2946.91261	11985
2949.37409	12022.5
2951.83407	12008.5
2954.29254	12008.3
2956.74951	11991.3
2959.20498	11977.5
2961.65895	11966.5
2964.11142	11950.1
2966.56239	11959.3
2969.01186	11957.2
2971.45984	11922.6
2973.90632	11895.8
2976.35131	11921.9
2978.7948	11877.5
2981.23681	11834.9
2983.67732	11795.5
2986.11635	11780.5
2988.55388	11738.8
2990.98993	11728.9
2993.4245	11694.3
2995.85758	11653.7
2998.28917	11640.9
3000.71928	11622.4
3003.14791	11576.8
3005.57506	11548.7
3008.00073	11509.8
3010.42493	11359.2
3012.84764	11453.2
3015.26888	11448.9
3017.68865	11382.1
3020.10694	11415.3
3022.52376	11381.7
3024.9391	11378
3027.35298	11352.4
3029.76539	11364.7
3032.17632	11337.5
3034.5858	11351.7
3036.9938	11331.1
3039.40034	11327.7
3041.80542	11321.6
3044.20903	11289.7
3046.61118	11278.6
3049.01187	11250
3051.4111	11223.4
3053.80888	11178.4
3056.20519	11166.4
3058.60005	11144.1
3060.99345	11105.3
3063.3854	11095.6
3065.7759	11043.3
3068.16494	11026.3
3070.55254	11007.8
3072.93868	10983.8
3075.32338	10929.1
3077.70662	10899.4
3080.08842	10896.4
3082.46878	10903.4
3084.84769	10893.5
3087.22515	10851.1
3089.60118	10860.2
3091.97576	10828
3094.3489	10813.8
3096.72061	10826.1
3099.09087	10853.3
3101.4597	10808
3103.82709	10775.3
3106.19305	10758.3
3108.55757	10767.6
3110.92066	10742.3
3113.28232	10716.9
3115.64255	10706
3118.00134	10663.8
3120.35871	10674.8
3122.71466	10611.5
3125.06917	10602.1
3127.42226	10575.3
3129.77393	10556.7
3132.12417	10545.1
3134.47299	10534
3136.82039	10536.1
3139.16636	10526.8
3141.51092	10527.3
3143.85406	10538.6
3146.19579	10489.6
3148.53609	10495.9
3150.87499	10506.6
3153.21246	10476.9
3155.54853	10526.9
3157.88318	10504.9
3160.21642	10514.7
3162.54826	10499.6
3164.87868	10525.5
3167.2077	10502.9
3169.5353	10524.2
3171.86151	10524.6
3174.18631	10491.9
3176.5097	10458.3
3178.83169	10469.2
3181.15228	10451
3183.47147	10433.8
3185.78926	10417.4
3188.10565	10396.3
3190.42065	10377.6
3192.73424	10364.4
3195.04645	10374.8
3197.35725	10348.5
3199.66667	10346.1
3201.97469	10352.1
3204.28132	10312.2
3206.58656	10347
3208.8904	10346.2
3211.19287	10344.7
3213.49394	10331.6
3215.79363	10340.7
3218.09193	10331.3
3220.38884	10330.1
3222.68438	10323
3224.97853	10320.8
3227.2713	10301.2
3229.56269	10260.3
3231.8527	10273.5
3234.14133	10258.3
3236.42858	10225.6
3238.71446	10225.8
3240.99896	10201.5
3243.28209	10199.1
3245.56384	10163.6
3247.84423	10162
3250.12324	10156.6
3252.40088	10131.2
3254.67715	10109.5
3256.95205	10092.4
3259.22558	10121.8
3261.49775	10091.6
3263.76855	10065.6
3266.03799	10047.8
3268.30606	10035.4
3270.57277	9988.6
3272.83812	9984.4
3275.10211	9978.4
3277.36474	9941.3
3279.62601	9928.6
3281.88593	9903.4
3284.14448	9901.5
3286.40168	9881.1
3288.65753	9897.6
3290.91202	9898.7
3293.16516	9868.8
3295.41695	9809.1
3297.66738	9787.5
3299.91647	9754.2
3302.16421	9677.4
3304.4106	9621.2
3306.65564	9516.1
3308.89933	9465.3
3311.14169	9416.5
3313.38269	9303.8
3315.62236	9254.7
3317.86068	9165.4
3320.09766	9088.9
3322.3333	9043.6
3324.5676	8985.5
3326.80056	8841.6
3329.03219	8784.5
3331.26248	3.9
3333.49143	0.4
3335.71905	-0.8
