Data from AgNP_FTO_APTES_UA_10uM_CRN_5uM_R6G_10uM_NaF_0.1M_Addition_RamanShift__22__15-08-00-662.txt Node

Date: Thu Feb 10 15:08:00 GMT 2022
User: TCL
Spectrometer: QEP01345
Trigger mode: 4
Integration Time (sec): 7.000000E0
Scans to average: 10
Electric dark correction enabled: true
Nonlinearity correction enabled: false
Boxcar width: 0
XAxis mode: Raman Shifts
Number of Pixels in Spectrum: 1044
>>>>>Begin Spectral Data<<<<<
46.04893	-0.8125
50.45542	-0.2125
54.85868	-2.2125
59.25871	-0.7125
63.6555	76.7875
68.04907	79.5875
72.43941	84.9875
76.82654	82.1875
81.21044	90.2875
85.59113	90.3875
89.96862	95.2875
94.34289	99.6875
98.71396	103.4875
103.08183	104.2875
107.4465	109.9875
111.80798	107.7875
116.16626	114.2875
120.52136	116.6875
124.87327	126.5875
129.222	131.6875
133.56755	139.7875
137.90993	147.4875
142.24913	163.5875
146.58517	184.0875
150.91804	211.5875
155.24774	254.2875
159.57429	320.3875
163.89768	408.2875
168.21792	539.0875
172.53501	737.5875
176.84895	1022.0875
181.15975	1441.4875
185.46741	2022.6875
189.77193	2780.0875
194.07331	3719.9875
198.37157	4794.7875
202.6667	5899.6875
206.9587	6997.4875
211.24758	8109.1875
215.53334	9178.7875
219.81599	10364.9875
224.09553	11665.3875
228.37195	13128.2875
232.64527	14710.8875
236.91549	16386.5875
241.18261	18029.4875
245.44663	19534.7875
249.70755	20857.9875
253.96539	22057.2875
258.22014	23119.3875
262.4718	24018.8875
266.72039	24649.5875
270.96589	25071.6875
275.20832	25183.3875
279.44768	25122.9875
283.68397	24998.4875
287.91719	24888.3875
292.14735	24837.7875
296.37445	24887.6875
300.59849	25007.6875
304.81948	25136.3875
309.03742	25077.9875
313.25231	24702.6875
317.46415	23980.3875
321.67296	23107.7875
325.87872	22432.3875
330.08145	22131.2875
334.28114	22112.5875
338.47781	22334.1875
342.67145	22655.9875
346.86207	23134.0875
351.04966	23728.3875
355.23424	24347.3875
359.4158	24808.0875
363.59435	25155.4875
367.76989	25361.0875
371.94243	25490.6875
376.11196	25550.5875
380.27849	25654.3875
384.44203	25727.1875
388.60257	25842.5875
392.76012	26056.6875
396.91468	26386.0875
401.06626	26812.3875
405.21485	27167.0875
409.36047	27015.0875
413.50311	26492.9875
417.64277	26101.8875
421.77947	26021.5875
425.9132	26168.0875
430.04396	26340.4875
434.17176	26562.2875
438.2966	26760.9875
442.41849	27270.8875
446.53742	28002.7875
450.6534	28891.2875
454.76644	29568.2875
458.87653	29846.7875
462.98368	29711.8875
467.08789	29327.4875
471.18916	28848.0875
475.2875	28384.2875
479.38291	28175.7875
483.4754	27906.5875
487.56496	27542.6875
491.6516	27019.5875
495.73531	26651.5875
499.81612	26432.0875
503.89401	26519.9875
507.96899	26621.4875
512.04106	26561.7875
516.11023	26469.0875
520.1765	26288.6875
524.23987	26095.4875
528.30034	25842.8875
532.35792	25508.0875
536.41261	25162.5875
540.46441	24864.9875
544.51333	24892.2875
548.55936	25242.3875
552.60252	25883.2875
556.64279	26519.9875
560.6802	26914.3875
564.71473	27173.7875
568.7464	27660.1875
572.7752	28316.3875
576.80114	28641.5875
580.82422	28838.0875
584.84444	29078.3875
588.86181	29338.5875
592.87633	29679.1875
596.888	29982.5875
600.89682	30180.6875
604.9028	31467.5875
608.90594	34827.7875
612.90624	38298.1875
616.90371	35743.8875
620.89834	29304.4875
624.89015	26755.0875
628.87913	26513.4875
632.86528	26397.7875
636.84862	26157.5875
640.82913	25603.6875
644.80683	24809.1875
648.78172	24284.0875
652.75379	24218.1875
656.72306	24611.8875
660.68952	25104.6875
664.65319	25027.9875
668.61405	24557.0875
672.57211	24301.8875
676.52738	24333.1875
680.47986	24289.6875
684.42955	24214.5875
688.37646	24205.5875
692.32058	24310.4875
696.26192	24616.9875
700.20048	24904.9875
704.13626	25145.0875
708.06928	25003.0875
711.99952	24755.4875
715.927	24659.9875
719.85171	24706.7875
723.77365	24586.2875
727.69284	24344.3875
731.60928	24067.8875
735.52295	24011.9875
739.43388	24061.4875
743.34206	24174.6875
747.24749	24307.4875
751.15017	24576.6875
755.05012	25071.8875
758.94733	25920.6875
762.8418	27512.1875
766.73354	29905.2875
770.62254	32145.8875
774.50882	32616.2875
778.39237	30870.2875
782.27321	28199.1875
786.15132	26134.3875
790.02671	24916.8875
793.89938	24319.8875
797.76935	24169.9875
801.6366	24116.6875
805.50115	24038.4875
809.36299	23875.8875
813.22213	23699.7875
817.07857	23640.8875
820.93231	23589.9875
824.78336	23548.7875
828.63172	23490.4875
832.47738	23540.8875
836.32036	23585.9875
840.16066	23700.8875
843.99827	23771.5875
847.8332	23699.5875
851.66546	23555.7875
855.49504	23481.5875
859.32195	23448.0875
863.1462	23305.2875
866.96777	23152.6875
870.78668	23097.8875
874.60293	23067.2875
878.41652	23100.2875
882.22745	23167.1875
886.03573	23226.5875
889.84136	23196.5875
893.64433	23105.7875
897.44466	22988.1875
901.24235	22902.4875
905.0374	22838.5875
908.8298	22839.6875
912.61957	22908.2875
916.40671	23144.3875
920.19121	23485.2875
923.97308	23859.9875
927.75233	23977.5875
931.52895	23894.3875
935.30295	23551.9875
939.07433	23078.1875
942.84309	22718.3875
946.60924	22544.9875
950.37278	22499.4875
954.13371	22337.1875
957.89203	22185.2875
961.64774	22098.1875
965.40086	22077.3875
969.15137	21990.6875
972.89929	21868.7875
976.64461	21816.0875
980.38733	21836.0875
984.12747	22005.1875
987.86502	22276.3875
991.59999	22654.5875
995.33237	23214.5875
999.06217	24155.7875
1002.78939	25201.7875
1006.51404	25813.3875
1010.23611	26078.4875
1013.95561	26262.5875
1017.67255	26200.7875
1021.38692	25842.0875
1025.09872	25641.6875
1028.80796	26064.5875
1032.51465	27158.8875
1036.21877	28152.0875
1039.92035	28265.3875
1043.61937	27683.9875
1047.31584	26633.3875
1051.00976	25599.8875
1054.70114	25055.9875
1058.38998	24944.2875
1062.07627	25019.1875
1065.76003	25122.7875
1069.44126	25191.6875
1073.11995	25415.1875
1076.79611	25703.8875
1080.46974	25905.5875
1084.14085	26180.7875
1087.80943	26483.8875
1091.47549	26658.6875
1095.13903	26473.7875
1098.80005	26078.1875
1102.45857	25513.0875
1106.11456	25228.7875
1109.76805	25180.8875
1113.41903	25355.3875
1117.06751	25626.2875
1120.71348	25991.2875
1124.35696	26307.2875
1127.99793	26605.7875
1131.63641	26699.8875
1135.2724	26524.4875
1138.90589	26225.1875
1142.5369	26039.0875
1146.16542	25982.7875
1149.79145	26034.7875
1153.415	26225.1875
1157.03607	26640.2875
1160.65467	27333.6875
1164.27079	28505.2875
1167.88443	30080.4875
1171.49561	32201.6875
1175.10432	35078.6875
1178.71056	38632.5875
1182.31434	41934.5875
1185.91565	43750.9875
1189.51451	43693.7875
1193.11091	42204.3875
1196.70485	39982.8875
1200.29634	37959.6875
1203.88538	36305.1875
1207.47197	35031.0875
1211.05612	34025.9875
1214.63782	33355.4875
1218.21708	33041.4875
1221.79391	33106.7875
1225.36829	33088.8875
1228.94024	32723.6875
1232.50976	32050.1875
1236.07685	31612.8875
1239.6415	31341.8875
1243.20374	31218.5875
1246.76355	31376.5875
1250.32093	31890.1875
1253.8759	32754.1875
1257.42845	33829.3875
1260.97859	34884.3875
1264.52631	35798.9875
1268.07163	36825.3875
1271.61453	38062.6875
1275.15503	39348.7875
1278.69312	40707.2875
1282.22882	41716.5875
1285.76211	42592.8875
1289.29301	43418.2875
1292.82151	44675.9875
1296.34761	46419.0875
1299.87133	48961.4875
1303.39266	52204.0875
1306.9116	56077.6875
1310.42815	60023.1875
1313.94233	62634.7875
1317.45412	62750.1875
1320.96354	61285.9875
1324.47058	59589.9875
1327.97525	57856.9875
1331.47754	56785.4875
1334.97747	56557.5875
1338.47502	56869.0875
1341.97022	57178.5875
1345.46305	56764.5875
1348.95352	55719.1875
1352.44163	54794.6875
1355.92738	55265.0875
1359.41078	57674.2875
1362.89183	59945.7875
1366.37053	58310.9875
1369.84688	52897.8875
1373.32088	47092.3875
1376.79254	43336.6875
1380.26186	41784.4875
1383.72883	41397.4875
1387.19347	41199.0875
1390.65578	40906.9875
1394.11575	40986.9875
1397.57339	41639.7875
1401.0287	42652.6875
1404.48168	43739.1875
1407.93234	44358.7875
1411.38068	44412.1875
1414.82669	43450.0875
1418.27039	41670.4875
1421.71177	39800.4875
1425.15083	38071.1875
1428.58758	37141.3875
1432.02203	37059.9875
1435.45416	37605.8875
1438.88399	38427.6875
1442.31151	39211.3875
1445.73673	39928.1875
1449.15965	40540.0875
1452.58027	40952.0875
1455.9986	41198.3875
1459.41463	41525.9875
1462.82837	42200.8875
1466.23982	43076.6875
1469.64898	43904.8875
1473.05586	44327.8875
1476.46045	44417.4875
1479.86276	44168.9875
1483.26279	43797.6875
1486.66054	43696.6875
1490.05602	43821.5875
1493.44922	44066.0875
1496.84016	44318.9875
1500.22882	44887.2875
1503.61521	45993.6875
1506.99934	47681.4875
1510.38121	49406.9875
1513.76081	50128.7875
1517.13816	49172.1875
1520.51324	47011.6875
1523.88607	44824.3875
1527.25665	43406.8875
1530.62498	42720.3875
1533.99105	42305.4875
1537.35488	42032.3875
1540.71647	41774.2875
1544.07581	41236.8875
1547.4329	40591.2875
1550.78776	40005.1875
1554.14038	39638.1875
1557.49077	39448.9875
1560.83892	39384.6875
1564.18484	39294.9875
1567.52853	39134.9875
1570.86999	39066.3875
1574.20922	39415.6875
1577.54624	39714.5875
1580.88103	39644.0875
1584.2136	39852.5875
1587.54395	40966.0875
1590.87208	43157.7875
1594.19801	46234.5875
1597.52172	49339.5875
1600.84321	50401.1875
1604.16251	48311.4875
1607.47959	44557.8875
1610.79447	40427.4875
1614.10715	36633.8875
1617.41763	33594.7875
1620.7259	31489.4875
1624.03199	30463.3875
1627.33587	30498.7875
1630.63757	31527.6875
1633.93707	33646.3875
1637.23439	36809.8875
1640.52951	40742.4875
1643.82246	44880.9875
1647.11321	47850.8875
1650.40179	48128.5875
1653.68819	44773.8875
1656.97241	39084.8875
1660.25446	33485.8875
1663.53433	29310.2875
1666.81203	26594.0875
1670.08756	24907.9875
1673.36092	23856.8875
1676.63211	23103.0875
1679.90115	22609.5875
1683.16801	22205.9875
1686.43272	21990.3875
1689.69527	21776.0875
1692.95567	21603.0875
1696.2139	21506.6875
1699.46999	21467.3875
1702.72392	21389.5875
1705.97571	21307.7875
1709.22535	21249.8875
1712.47284	21172.6875
1715.71819	21149.4875
1718.96139	21097.7875
1722.20246	21051.2875
1725.44139	20931.6875
1728.67818	20827.8875
1731.91284	20679.5875
1735.14537	20594.5875
1738.37576	20444.0875
1741.60403	20384.5875
1744.83017	20311.2875
1748.05418	20285.8875
1751.27607	20240.4875
1754.49584	20221.7875
1757.71349	20233.2875
1760.92903	20198.5875
1764.14244	20165.7875
1767.35375	20178.9875
1770.56294	20150.0875
1773.77002	20109.9875
1776.97499	20050.3875
1780.17785	20005.5875
1783.37861	19989.7875
1786.57727	19909.7875
1789.77382	19923.7875
1792.96828	19856.9875
1796.16064	19818.9875
1799.3509	19793.5875
1802.53907	19772.4875
1805.72514	19729.5875
1808.90913	19677.2875
1812.09102	19670.4875
1815.27083	19632.4875
1818.44856	19584.7875
1821.6242	19567.6875
1824.79776	19534.3875
1827.96924	19536.1875
1831.13864	19542.9875
1834.30597	19546.6875
1837.47122	19520.2875
1840.6344	19521.5875
1843.7955	19550.8875
1846.95454	19550.3875
1850.11151	19517.6875
1853.26642	19542.2875
1856.41926	19580.1875
1859.57004	19587.8875
1862.71876	19562.3875
1865.86542	19542.4875
1869.01003	19547.6875
1872.15258	19533.6875
1875.29308	19560.3875
1878.43152	19550.6875
1881.56792	19573.8875
1884.70227	19579.3875
1887.83457	19595.0875
1890.96482	19604.7875
1894.09304	19550.5875
1897.21921	19587.2875
1900.34335	19602.7875
1903.46544	19570.8875
1906.58551	19578.1875
1909.70353	19553.9875
1912.81953	19524.2875
1915.93349	19538.3875
1919.04543	19496.3875
1922.15534	19471.7875
1925.26322	19364.9875
1928.36908	19319.8875
1931.47292	19293.4875
1934.57473	19204.8875
1937.67453	19125.2875
1940.77232	19066.0875
1943.86808	18975.5875
1946.96184	18896.9875
1950.05358	18815.8875
1953.14331	18717.3875
1956.23103	18674.6875
1959.31675	18589.1875
1962.40046	18560.5875
1965.48217	18511.3875
1968.56188	18441.1875
1971.63959	18414.5875
1974.7153	18348.4875
1977.78901	18309.2875
1980.86073	18174.2875
1983.93046	18169.4875
1986.99819	18090.3875
1990.06394	18056.6875
1993.1277	18008.8875
1996.18947	17961.0875
1999.24925	17892.5875
2002.30706	17850.3875
2005.36288	17784.6875
2008.41672	17723.2875
2011.46859	17722.8875
2014.51848	17687.3875
2017.56639	17651.4875
2020.61233	17573.5875
2023.6563	17564.9875
2026.6983	17527.4875
2029.73833	17503.6875
2032.7764	17482.0875
2035.8125	17421.5875
2038.84664	17398.6875
2041.87881	17391.0875
2044.90903	17375.4875
2047.93729	17346.1875
2050.96359	17348.4875
2053.98794	17323.8875
2057.01034	17278.4875
2060.03078	17259.3875
2063.04927	17277.4875
2066.06582	17271.4875
2069.08042	17230.8875
2072.09307	17220.8875
2075.10378	17197.5875
2078.11255	17177.4875
2081.11938	17195.1875
2084.12426	17100.3875
2087.12722	17116.5875
2090.12824	17109.5875
2093.12732	17071.2875
2096.12447	17084.0875
2099.11969	17077.2875
2102.11299	17086.3875
2105.10435	17105.8875
2108.09379	17092.9875
2111.08131	17115.4875
2114.0669	17114.3875
2117.05057	17122.2875
2120.03233	17137.7875
2123.01216	17137.5875
2125.99008	17179.7875
2128.96609	17169.4875
2131.94018	17205.3875
2134.91236	17210.7875
2137.88263	17215.0875
2140.851	17218.2875
2143.81746	17242.0875
2146.78201	17250.0875
2149.74466	17242.7875
2152.7054	17248.3875
2155.66425	17202.4875
2158.6212	17220.3875
2161.57625	17230.7875
2164.52941	17225.4875
2167.48067	17180.3875
2170.43004	17180.7875
2173.37752	17176.0875
2176.32311	17163.3875
2179.26681	17184.5875
2182.20863	17195.8875
2185.14856	17186.1875
2188.08661	17227.1875
2191.02278	17214.3875
2193.95707	17241.2875
2196.88948	17216.3875
2199.82001	17206.5875
2202.74867	17160.7875
2205.67545	17206.0875
2208.60037	17192.7875
2211.52341	17210.6875
2214.44458	17174.5875
2217.36388	17181.4875
2220.28132	17133.7875
2223.1969	17084.8875
2226.11061	17104.7875
2229.02246	17072.0875
2231.93245	17034.5875
2234.84058	16963.0875
2237.74686	16914.5875
2240.65128	16928.7875
2243.55385	16899.1875
2246.45456	16879.2875
2249.35343	16840.0875
2252.25044	16847.5875
2255.14561	16810.3875
2258.03893	16843.4875
2260.93041	16751.1875
2263.82004	16708.3875
2266.70783	16685.2875
2269.59378	16606.0875
2272.4779	16527.1875
2275.36017	16511.0875
2278.24061	16488.6875
2281.11922	16490.4875
2283.996	16460.3875
2286.87094	16443.1875
2289.74405	16458.9875
2292.61534	16445.8875
2295.4848	16436.2875
2298.35243	16478.7875
2301.21824	16478.7875
2304.08223	16478.7875
2306.94439	16489.0875
2309.80474	16500.0875
2312.66327	16511.7875
2315.51999	16544.0875
2318.37489	16545.7875
2321.22797	16545.8875
2324.07925	16520.6875
2326.92871	16518.0875
2329.77637	16494.2875
2332.62222	16513.4875
2335.46626	16516.1875
2338.3085	16524.8875
2341.14893	16535.8875
2343.98756	16559.0875
2346.8244	16569.9875
2349.65943	16583.2875
2352.49267	16562.5875
2355.32411	16558.1875
2358.15376	16576.3875
2360.98161	16540.3875
2363.80768	16490.0875
2366.63195	16513.3875
2369.45444	16467.0875
2372.27514	16417.7875
2375.09405	16370.2875
2377.91118	16309.4875
2380.72652	16292.4875
2383.54009	16241.0875
2386.35187	16223.6875
2389.16188	16177.6875
2391.97011	16144.4875
2394.77657	16135.7875
2397.58125	16124.7875
2400.38416	16116.9875
2403.18529	16041.9875
2405.98466	16024.0875
2408.78226	15995.6875
2411.57809	15929.2875
2414.37216	15951.2875
2417.16446	15924.6875
2419.955	15863.9875
2422.74378	15862.8875
2425.5308	15850.1875
2428.31606	15827.6875
2431.09956	15858.6875
2433.88131	15815.8875
2436.6613	15841.5875
2439.43954	15835.1875
2442.21603	15824.6875
2444.99077	15826.8875
2447.76377	15820.7875
2450.53501	15778.8875
2453.30451	15780.5875
2456.07226	15794.0875
2458.83827	15796.4875
2461.60254	15790.3875
2464.36507	15790.3875
2467.12586	15777.6875
2469.88492	15809.5875
2472.64224	15812.7875
2475.39782	15820.3875
2478.15167	15880.1875
2480.90379	15899.0875
2483.65417	15900.6875
2486.40283	15945.8875
2489.14976	15942.7875
2491.89497	15945.1875
2494.63845	15973.1875
2497.3802	15968.4875
2500.12024	15985.6875
2502.85855	15926.1875
2505.59514	15945.4875
2508.33002	15895.3875
2511.06318	15872.5875
2513.79462	15869.2875
2516.52435	15873.6875
2519.25237	15873.6875
2521.97867	15824.1875
2524.70327	15821.6875
2527.42616	15837.3875
2530.14734	15856.9875
2532.86681	15782.3875
2535.58458	15806.1875
2538.30065	15825.0875
2541.01501	15797.8875
2543.72768	15804.0875
2546.43864	15795.0875
2549.14791	15794.2875
2551.85548	15800.5875
2554.56136	15778.5875
2557.26554	15731.6875
2559.96803	15704.2875
2562.66883	15694.9875
2565.36794	15715.8875
2568.06536	15695.4875
2570.7611	15650.9875
2573.45514	15666.0875
2576.14751	15670.1875
2578.83819	15660.8875
2581.52719	15655.6875
2584.21451	15649.4875
2586.90015	15679.3875
2589.58411	15679.1875
2592.2664	15679.5875
2594.94701	15694.4875
2597.62594	15702.3875
2600.30321	15688.1875
2602.9788	15670.8875
2605.65273	15687.2875
2608.32498	15656.7875
2610.99557	15678.3875
2613.66449	15702.6875
2616.33175	15686.6875
2618.99734	15733.8875
2621.66128	15734.5875
2624.32355	15742.1875
2626.98416	15753.6875
2629.64311	15738.3875
2632.30041	15742.6875
2634.95605	15701.4875
2637.61004	15722.4875
2640.26238	15693.8875
2642.91306	15648.1875
2645.56209	15673.8875
2648.20948	15650.0875
2650.85521	15637.0875
2653.4993	15624.5875
2656.14175	15607.7875
2658.78255	15634.2875
2661.42171	15650.1875
2664.05923	15657.8875
2666.6951	15689.3875
2669.32934	15689.4875
2671.96194	15676.7875
2674.59291	15700.5875
2677.22224	15708.9875
2679.84993	15705.9875
2682.476	15683.5875
2685.10043	15676.4875
2687.72324	15659.0875
2690.34441	15647.7875
2692.96396	15614.7875
2695.58188	15600.4875
2698.19818	15592.6875
2700.81285	15611.6875
2703.4259	15622.3875
2706.03733	15668.7875
2708.64714	15627.9875
2711.25533	15646.4875
2713.86191	15655.3875
2716.46687	15643.1875
2719.07021	15626.1875
2721.67194	15664.7875
2724.27206	15680.5875
2726.87057	15673.4875
2729.46747	15677.0875
2732.06276	15684.4875
2734.65644	15679.3875
2737.24852	15694.3875
2739.83899	15661.3875
2742.42786	15690.1875
2745.01513	15637.5875
2747.60079	15700.9875
2750.18486	15661.0875
2752.76733	15654.4875
2755.3482	15628.2875
2757.92747	15671.8875
2760.50515	15630.7875
2763.08123	15582.8875
2765.65573	15602.0875
2768.22863	15616.4875
2770.79994	15617.0875
2773.36967	15627.9875
2775.9378	15632.9875
2778.50435	15643.9875
2781.06932	15642.1875
2783.6327	15634.9875
2786.1945	15615.8875
2788.75471	15625.0875
2791.31335	15595.6875
2793.87041	15558.7875
2796.42589	15560.7875
2798.97979	15555.0875
2801.53212	15509.4875
2804.08288	15519.6875
2806.63206	15496.5875
2809.17967	15454.1875
2811.72571	15453.0875
2814.27018	15389.6875
2816.81308	15390.0875
2819.35442	15338.4875
2821.89419	15348.8875
2824.43239	15299.3875
2826.96904	15299.3875
2829.50412	15343.3875
2832.03763	15294.8875
2834.56959	15310.0875
2837.1	15262.5875
2839.62884	15281.9875
2842.15613	15285.4875
2844.68186	15280.6875
2847.20604	15292.9875
2849.72867	15265.7875
2852.24974	15267.7875
2854.76927	15267.2875
2857.28724	15247.5875
2859.80367	15201.8875
2862.31855	15209.9875
2864.83189	15196.1875
2867.34368	15163.4875
2869.85393	15157.6875
2872.36264	15150.3875
2874.8698	15136.2875
2877.37543	15171.4875
2879.87952	15187.6875
2882.38207	15187.8875
2884.88308	15171.6875
2887.38256	15180.1875
2889.88051	15183.3875
2892.37692	15197.2875
2894.8718	15211.7875
2897.36515	15241.4875
2899.85698	15251.7875
2902.34727	15259.1875
2904.83604	15283.5875
2907.32328	15338.9875
2909.809	15317.8875
2912.29319	15311.5875
2914.77587	15284.6875
2917.25702	15302.8875
2919.73665	15305.6875
2922.21476	15318.3875
2924.69136	15262.9875
2927.16644	15264.7875
2929.64	15218.5875
2932.11205	15212.0875
2934.58258	15178.2875
2937.05161	15195.9875
2939.51912	15141.0875
2941.98513	15156.1875
2944.44962	15101.5875
2946.91261	15065.0875
2949.37409	15099.4875
2951.83407	15092.6875
2954.29254	15046.3875
2956.74951	15061.4875
2959.20498	15067.8875
2961.65895	15049.5875
2964.11142	15036.4875
2966.56239	14993.6875
2969.01186	14976.3875
2971.45984	14976.1875
2973.90632	14968.8875
2976.35131	14921.9875
2978.7948	14868.5875
2981.23681	14812.8875
2983.67732	14801.3875
2986.11635	14723.5875
2988.55388	14711.4875
2990.98993	14690.9875
2993.4245	14671.7875
2995.85758	14607.7875
2998.28917	14573.8875
3000.71928	14583.5875
3003.14791	14571.4875
3005.57506	14544.9875
3008.00073	14468.5875
3010.42493	14378.5875
3012.84764	14411.4875
3015.26888	14385.8875
3017.68865	14348.9875
3020.10694	14328.6875
3022.52376	14281.5875
3024.9391	14293.1875
3027.35298	14284.8875
3029.76539	14317.2875
3032.17632	14275.5875
3034.5858	14259.1875
3036.9938	14261.0875
3039.40034	14250.0875
3041.80542	14228.1875
3044.20903	14234.8875
3046.61118	14217.5875
3049.01187	14169.2875
3051.4111	14177.8875
3053.80888	14134.1875
3056.20519	14099.1875
3058.60005	14069.9875
3060.99345	14041.5875
3063.3854	14018.6875
3065.7759	13962.9875
3068.16494	13918.1875
3070.55254	13892.6875
3072.93868	13858.1875
3075.32338	13790.7875
3077.70662	13791.0875
3080.08842	13757.9875
3082.46878	13727.6875
3084.84769	13726.1875
3087.22515	13712.7875
3089.60118	13703.9875
3091.97576	13717.7875
3094.3489	13670.5875
3096.72061	13694.7875
3099.09087	13665.3875
3101.4597	13651.3875
3103.82709	13646.3875
3106.19305	13636.3875
3108.55757	13632.2875
3110.92066	13604.6875
3113.28232	13564.2875
3115.64255	13525.6875
3118.00134	13500.7875
3120.35871	13492.3875
3122.71466	13439.4875
3125.06917	13444.1875
3127.42226	13430.9875
3129.77393	13408.1875
3132.12417	13360.3875
3134.47299	13357.8875
3136.82039	13325.9875
3139.16636	13359.2875
3141.51092	13342.6875
3143.85406	13342.7875
3146.19579	13349.7875
3148.53609	13351.0875
3150.87499	13339.4875
3153.21246	13335.4875
3155.54853	13342.1875
3157.88318	13355.9875
3160.21642	13370.3875
3162.54826	13361.0875
3164.87868	13372.2875
3167.2077	13376.9875
3169.5353	13348.2875
3171.86151	13366.3875
3174.18631	13332.8875
3176.5097	13333.6875
3178.83169	13325.7875
3181.15228	13309.2875
3183.47147	13281.6875
3185.78926	13292.8875
3188.10565	13245.4875
3190.42065	13223.9875
3192.73424	13249.6875
3195.04645	13259.2875
3197.35725	13222.4875
3199.66667	13255.5875
3201.97469	13225.8875
3204.28132	13262.2875
3206.58656	13267.1875
3208.8904	13291.1875
3211.19287	13276.9875
3213.49394	13256.6875
3215.79363	13281.2875
3218.09193	13271.2875
3220.38884	13264.5875
3222.68438	13322.0875
3224.97853	13263.8875
3227.2713	13291.2875
3229.56269	13282.1875
3231.8527	13278.3875
3234.14133	13233.2875
3236.42858	13192.8875
3238.71446	13198.5875
3240.99896	13149.1875
3243.28209	13167.6875
3245.56384	13159.6875
3247.84423	13116.1875
3250.12324	13094.2875
3252.40088	13126.1875
3254.67715	13080.8875
3256.95205	13067.0875
3259.22558	13036.7875
3261.49775	13018.9875
3263.76855	13021.6875
3266.03799	13020.6875
3268.30606	13022.1875
3270.57277	12955.7875
3272.83812	12930.2875
3275.10211	12948.2875
3277.36474	12911.4875
3279.62601	12932.1875
3281.88593	12908.3875
3284.14448	12890.2875
3286.40168	12880.6875
3288.65753	12898.4875
3290.91202	12865.0875
3293.16516	12860.2875
3295.41695	12833.3875
3297.66738	12770.9875
3299.91647	12695.2875
3302.16421	12634.6875
3304.4106	12553.4875
3306.65564	12462.1875
3308.89933	12392.8875
3311.14169	12318.4875
3313.38269	12226.7875
3315.62236	12139.9875
3317.86068	12034.8875
3320.09766	11980.2875
3322.3333	11868.3875
3324.5676	11788.8875
3326.80056	11628.3875
3329.03219	11570.2875
3331.26248	4.5875
3333.49143	0.2875
3335.71905	-0.9125
