Data from AgNP_FTO_APTES_UA_10uM_CRN_500uM_R6G_10uM_NaF_0.1M_Addition_RamanShift__8__18-49-40-936.txt Node

Date: Thu Feb 10 18:49:40 GMT 2022
User: TCL
Spectrometer: QEP01345
Trigger mode: 4
Integration Time (sec): 7.000000E0
Scans to average: 10
Electric dark correction enabled: true
Nonlinearity correction enabled: false
Boxcar width: 0
XAxis mode: Raman Shifts
Number of Pixels in Spectrum: 1044
>>>>>Begin Spectral Data<<<<<
46.04893	0.9625
50.45542	-1.7375
54.85868	-1.7375
59.25871	-0.7375
63.6555	54.5625
68.04907	54.7625
72.43941	60.4625
76.82654	59.7625
81.21044	69.8625
85.59113	65.9625
89.96862	71.6625
94.34289	72.6625
98.71396	74.1625
103.08183	75.8625
107.4465	81.1625
111.80798	78.7625
116.16626	82.9625
120.52136	87.4625
124.87327	92.2625
129.222	93.4625
133.56755	98.7625
137.90993	100.9625
142.24913	109.3625
146.58517	123.9625
150.91804	147.3625
155.24774	171.7625
159.57429	211.3625
163.89768	267.3625
168.21792	354.0625
172.53501	477.4625
176.84895	665.1625
181.15975	936.1625
185.46741	1309.4625
189.77193	1821.5625
194.07331	2432.2625
198.37157	3147.9625
202.6667	3897.0625
206.9587	4632.6625
211.24758	5351.9625
215.53334	6078.1625
219.81599	6833.4625
224.09553	7636.4625
228.37195	8511.0625
232.64527	9509.0625
236.91549	10587.2625
241.18261	11649.7625
245.44663	12708.2625
249.70755	13676.4625
253.96539	14515.6625
258.22014	15217.7625
262.4718	15792.7625
266.72039	16194.5625
270.96589	16461.4625
275.20832	16490.7625
279.44768	16487.8625
283.68397	16310.2625
287.91719	16198.5625
292.14735	16093.2625
296.37445	16036.3625
300.59849	16069.3625
304.81948	16075.5625
309.03742	15999.9625
313.25231	15843.2625
317.46415	15609.9625
321.67296	15310.6625
325.87872	15085.2625
330.08145	14979.6625
334.28114	14977.1625
338.47781	15075.9625
342.67145	15228.4625
346.86207	15397.7625
351.04966	15628.0625
355.23424	15862.8625
359.4158	16059.5625
363.59435	16220.9625
367.76989	16352.6625
371.94243	16491.5625
376.11196	16559.3625
380.27849	16649.7625
384.44203	16757.9625
388.60257	16879.2625
392.76012	17053.7625
396.91468	17215.6625
401.06626	17407.5625
405.21485	17564.6625
409.36047	17571.4625
413.50311	17395.8625
417.64277	17299.5625
421.77947	17315.9625
425.9132	17408.4625
430.04396	17575.5625
434.17176	17619.3625
438.2966	17697.3625
442.41849	17900.7625
446.53742	18213.7625
450.6534	18521.2625
454.76644	18835.0625
458.87653	18948.7625
462.98368	18975.6625
467.08789	18902.8625
471.18916	18851.4625
475.2875	18726.2625
479.38291	18676.0625
483.4754	18644.7625
487.56496	18488.7625
491.6516	18224.5625
495.73531	17984.9625
499.81612	17819.6625
503.89401	17847.8625
507.96899	17927.9625
512.04106	17910.4625
516.11023	17899.2625
520.1765	17800.0625
524.23987	17689.4625
528.30034	17547.4625
532.35792	17469.2625
536.41261	17371.6625
540.46441	17310.5625
544.51333	17286.2625
548.55936	17441.5625
552.60252	17684.9625
556.64279	18008.1625
560.6802	18279.3625
564.71473	18405.2625
568.7464	18586.3625
572.7752	18997.6625
576.80114	19390.4625
580.82422	19661.4625
584.84444	19947.0625
588.86181	20381.0625
592.87633	20721.1625
596.888	20608.4625
600.89682	20095.2625
604.9028	19897.8625
608.90594	20706.0625
612.90624	21629.1625
616.90371	20788.8625
620.89834	18612.9625
624.89015	17625.0625
628.87913	17527.0625
632.86528	17592.4625
636.84862	17698.3625
640.82913	17576.1625
644.80683	17362.2625
648.78172	17178.6625
652.75379	17157.4625
656.72306	17258.6625
660.68952	17391.9625
664.65319	17335.5625
668.61405	17146.0625
672.57211	17145.2625
676.52738	17207.8625
680.47986	17238.7625
684.42955	17177.2625
688.37646	17112.1625
692.32058	17187.1625
696.26192	17300.9625
700.20048	17432.1625
704.13626	17553.1625
708.06928	17538.0625
711.99952	17583.0625
715.927	17542.7625
719.85171	17544.2625
723.77365	17488.0625
727.69284	17327.0625
731.60928	17192.7625
735.52295	17144.7625
739.43388	17110.7625
743.34206	17147.1625
747.24749	17216.4625
751.15017	17300.5625
755.05012	17478.8625
758.94733	17787.2625
762.8418	18338.8625
766.73354	19165.3625
770.62254	19912.1625
774.50882	20127.3625
778.39237	19541.0625
782.27321	18661.0625
786.15132	17885.1625
790.02671	17427.9625
793.89938	17154.9625
797.76935	17068.8625
801.6366	17000.2625
805.50115	16972.1625
809.36299	16929.0625
813.22213	16871.2625
817.07857	16871.2625
820.93231	16852.3625
824.78336	16791.9625
828.63172	16747.3625
832.47738	16718.5625
836.32036	16657.9625
840.16066	16656.5625
843.99827	16653.6625
847.8332	16651.6625
851.66546	16688.0625
855.49504	16716.4625
859.32195	16732.3625
863.1462	16673.8625
866.96777	16669.4625
870.78668	16650.0625
874.60293	16675.1625
878.41652	16661.8625
882.22745	16708.9625
886.03573	16706.0625
889.84136	16708.0625
893.64433	16678.1625
897.44466	16686.7625
901.24235	16642.7625
905.0374	16579.8625
908.8298	16541.8625
912.61957	16557.4625
916.40671	16584.8625
920.19121	16764.1625
923.97308	16878.6625
927.75233	16801.8625
931.52895	16674.8625
935.30295	16530.5625
939.07433	16333.4625
942.84309	16211.2625
946.60924	16096.9625
950.37278	16056.3625
954.13371	16014.8625
957.89203	16034.6625
961.64774	16045.7625
965.40086	15995.4625
969.15137	15973.4625
972.89929	15911.0625
976.64461	15823.8625
980.38733	15798.5625
984.12747	15795.9625
987.86502	15847.3625
991.59999	15854.4625
995.33237	15911.4625
999.06217	16045.2625
1002.78939	16183.9625
1006.51404	16345.2625
1010.23611	16517.4625
1013.95561	16655.9625
1017.67255	16724.5625
1021.38692	16676.2625
1025.09872	16535.3625
1028.80796	16352.2625
1032.51465	16286.9625
1036.21877	16272.8625
1039.92035	16310.0625
1043.61937	16337.4625
1047.31584	16386.0625
1051.00976	16432.2625
1054.70114	16500.7625
1058.38998	16556.9625
1062.07627	16680.3625
1065.76003	16780.6625
1069.44126	16920.4625
1073.11995	17049.0625
1076.79611	17164.7625
1080.46974	17232.8625
1084.14085	17273.2625
1087.80943	17374.6625
1091.47549	17496.6625
1095.13903	17552.3625
1098.80005	17432.3625
1102.45857	17190.9625
1106.11456	16987.5625
1109.76805	16857.0625
1113.41903	16825.0625
1117.06751	16910.7625
1120.71348	17026.3625
1124.35696	17210.9625
1127.99793	17379.2625
1131.63641	17487.1625
1135.2724	17382.9625
1138.90589	17303.9625
1142.5369	17303.3625
1146.16542	17358.3625
1149.79145	17440.4625
1153.415	17592.4625
1157.03607	17729.5625
1160.65467	18080.1625
1164.27079	18615.5625
1167.88443	19271.2625
1171.49561	20005.7625
1175.10432	20884.2625
1178.71056	21957.1625
1182.31434	23043.0625
1185.91565	23620.3625
1189.51451	23672.1625
1193.11091	23365.4625
1196.70485	22830.2625
1200.29634	22215.2625
1203.88538	21701.6625
1207.47197	21377.0625
1211.05612	21106.0625
1214.63782	20809.5625
1218.21708	20321.6625
1221.79391	19926.5625
1225.36829	19546.0625
1228.94024	19334.7625
1232.50976	19132.9625
1236.07685	19023.1625
1239.6415	18985.2625
1243.20374	19003.0625
1246.76355	19047.1625
1250.32093	19184.1625
1253.8759	19443.2625
1257.42845	19813.4625
1260.97859	20184.5625
1264.52631	20564.4625
1268.07163	20931.3625
1271.61453	21304.5625
1275.15503	21613.2625
1278.69312	22034.3625
1282.22882	22456.4625
1285.76211	23021.6625
1289.29301	23690.7625
1292.82151	24625.8625
1296.34761	25704.6625
1299.87133	26856.4625
1303.39266	28019.9625
1306.9116	29003.7625
1310.42815	29742.4625
1313.94233	30180.2625
1317.45412	30089.2625
1320.96354	29779.7625
1324.47058	29458.2625
1327.97525	29194.8625
1331.47754	29009.8625
1334.97747	28854.9625
1338.47502	28677.5625
1341.97022	28556.5625
1345.46305	28381.1625
1348.95352	28241.3625
1352.44163	28211.1625
1355.92738	28477.1625
1359.41078	29037.7625
1362.89183	29477.3625
1366.37053	28956.2625
1369.84688	27158.0625
1373.32088	24974.5625
1376.79254	23511.5625
1380.26186	23020.5625
1383.72883	23055.9625
1387.19347	23119.6625
1390.65578	23054.2625
1394.11575	22982.2625
1397.57339	23136.9625
1401.0287	23305.1625
1404.48168	23420.4625
1407.93234	23258.7625
1411.38068	22755.0625
1414.82669	22036.2625
1418.27039	21291.0625
1421.71177	20561.7625
1425.15083	19993.1625
1428.58758	19695.1625
1432.02203	19806.3625
1435.45416	20177.6625
1438.88399	20605.2625
1442.31151	20962.2625
1445.73673	21148.6625
1449.15965	21372.7625
1452.58027	21506.0625
1455.9986	21589.3625
1459.41463	21691.1625
1462.82837	21871.6625
1466.23982	22067.4625
1469.64898	22290.4625
1473.05586	22386.2625
1476.46045	22336.0625
1479.86276	22194.0625
1483.26279	21970.5625
1486.66054	21900.5625
1490.05602	21961.1625
1493.44922	22132.8625
1496.84016	22416.1625
1500.22882	22937.1625
1503.61521	23552.4625
1506.99934	24284.6625
1510.38121	24871.8625
1513.76081	25025.1625
1517.13816	24631.2625
1520.51324	24077.4625
1523.88607	23641.1625
1527.25665	23481.6625
1530.62498	23475.4625
1533.99105	23378.7625
1537.35488	23193.1625
1540.71647	22820.3625
1544.07581	22348.9625
1547.4329	21877.5625
1550.78776	21396.3625
1554.14038	21032.7625
1557.49077	20840.9625
1560.83892	20777.7625
1564.18484	20754.1625
1567.52853	20804.2625
1570.86999	21055.7625
1574.20922	21372.2625
1577.54624	21707.6625
1580.88103	21856.4625
1584.2136	22015.0625
1587.54395	22298.5625
1590.87208	22875.0625
1594.19801	23582.3625
1597.52172	24311.3625
1600.84321	24501.1625
1604.16251	23784.6625
1607.47959	22535.1625
1610.79447	21157.2625
1614.10715	19855.7625
1617.41763	18737.9625
1620.7259	18003.7625
1624.03199	17525.3625
1627.33587	17469.2625
1630.63757	17753.6625
1633.93707	18529.0625
1637.23439	19819.3625
1640.52951	21700.8625
1643.82246	23955.1625
1647.11321	25784.1625
1650.40179	26152.8625
1653.68819	24701.1625
1656.97241	22137.0625
1660.25446	19623.3625
1663.53433	17749.4625
1666.81203	16492.4625
1670.08756	15682.6625
1673.36092	15185.1625
1676.63211	14879.4625
1679.90115	14624.1625
1683.16801	14429.8625
1686.43272	14300.2625
1689.69527	14159.5625
1692.95567	14112.3625
1696.2139	14049.7625
1699.46999	14050.0625
1702.72392	13991.9625
1705.97571	13934.0625
1709.22535	13888.1625
1712.47284	13862.4625
1715.71819	13829.0625
1718.96139	13797.8625
1722.20246	13762.3625
1725.44139	13705.0625
1728.67818	13673.2625
1731.91284	13551.3625
1735.14537	13514.5625
1738.37576	13431.7625
1741.60403	13394.5625
1744.83017	13363.7625
1748.05418	13330.0625
1751.27607	13352.8625
1754.49584	13324.1625
1757.71349	13331.5625
1760.92903	13293.9625
1764.14244	13286.8625
1767.35375	13257.8625
1770.56294	13260.1625
1773.77002	13213.9625
1776.97499	13173.2625
1780.17785	13124.6625
1783.37861	13097.4625
1786.57727	13072.6625
1789.77382	13040.3625
1792.96828	13020.2625
1796.16064	12991.5625
1799.3509	12971.9625
1802.53907	12926.4625
1805.72514	12909.9625
1808.90913	12890.7625
1812.09102	12849.5625
1815.27083	12809.9625
1818.44856	12792.8625
1821.6242	12778.7625
1824.79776	12755.5625
1827.96924	12714.4625
1831.13864	12707.1625
1834.30597	12718.7625
1837.47122	12654.9625
1840.6344	12701.9625
1843.7955	12700.8625
1846.95454	12643.1625
1850.11151	12632.2625
1853.26642	12632.1625
1856.41926	12618.6625
1859.57004	12587.6625
1862.71876	12586.8625
1865.86542	12543.7625
1869.01003	12531.9625
1872.15258	12542.4625
1875.29308	12515.1625
1878.43152	12527.4625
1881.56792	12492.0625
1884.70227	12442.2625
1887.83457	12434.2625
1890.96482	12398.2625
1894.09304	12406.5625
1897.21921	12386.3625
1900.34335	12377.2625
1903.46544	12351.9625
1906.58551	12316.7625
1909.70353	12313.4625
1912.81953	12295.6625
1915.93349	12284.7625
1919.04543	12252.9625
1922.15534	12207.6625
1925.26322	12159.7625
1928.36908	12169.1625
1931.47292	12155.6625
1934.57473	12089.0625
1937.67453	12083.2625
1940.77232	12039.7625
1943.86808	11995.1625
1946.96184	11965.3625
1950.05358	11943.5625
1953.14331	11901.9625
1956.23103	11866.3625
1959.31675	11822.1625
1962.40046	11830.7625
1965.48217	11747.1625
1968.56188	11726.3625
1971.63959	11661.5625
1974.7153	11639.1625
1977.78901	11631.5625
1980.86073	11575.0625
1983.93046	11542.6625
1986.99819	11506.7625
1990.06394	11470.6625
1993.1277	11451.8625
1996.18947	11385.6625
1999.24925	11358.7625
2002.30706	11319.1625
2005.36288	11277.2625
2008.41672	11251.7625
2011.46859	11205.0625
2014.51848	11187.6625
2017.56639	11161.0625
2020.61233	11126.9625
2023.6563	11106.1625
2026.6983	11080.8625
2029.73833	11037.2625
2032.7764	11009.9625
2035.8125	10989.8625
2038.84664	10944.8625
2041.87881	10919.5625
2044.90903	10881.1625
2047.93729	10861.7625
2050.96359	10853.8625
2053.98794	10853.4625
2057.01034	10828.6625
2060.03078	10833.3625
2063.04927	10780.2625
2066.06582	10822.7625
2069.08042	10808.7625
2072.09307	10785.0625
2075.10378	10769.5625
2078.11255	10784.2625
2081.11938	10770.4625
2084.12426	10743.9625
2087.12722	10725.9625
2090.12824	10742.5625
2093.12732	10713.0625
2096.12447	10707.2625
2099.11969	10691.8625
2102.11299	10698.5625
2105.10435	10690.0625
2108.09379	10702.4625
2111.08131	10694.6625
2114.0669	10687.6625
2117.05057	10715.8625
2120.03233	10705.9625
2123.01216	10726.1625
2125.99008	10717.8625
2128.96609	10746.6625
2131.94018	10749.6625
2134.91236	10741.3625
2137.88263	10725.6625
2140.851	10736.6625
2143.81746	10753.0625
2146.78201	10743.9625
2149.74466	10749.2625
2152.7054	10744.0625
2155.66425	10718.4625
2158.6212	10725.8625
2161.57625	10709.1625
2164.52941	10698.4625
2167.48067	10684.2625
2170.43004	10691.4625
2173.37752	10666.7625
2176.32311	10661.6625
2179.26681	10677.5625
2182.20863	10662.3625
2185.14856	10668.0625
2188.08661	10656.7625
2191.02278	10662.8625
2193.95707	10666.8625
2196.88948	10654.6625
2199.82001	10618.1625
2202.74867	10604.5625
2205.67545	10573.8625
2208.60037	10559.7625
2211.52341	10557.7625
2214.44458	10515.2625
2217.36388	10504.3625
2220.28132	10494.0625
2223.1969	10482.4625
2226.11061	10445.8625
2229.02246	10425.1625
2231.93245	10416.4625
2234.84058	10349.8625
2237.74686	10370.0625
2240.65128	10361.3625
2243.55385	10320.0625
2246.45456	10305.4625
2249.35343	10284.2625
2252.25044	10268.0625
2255.14561	10234.6625
2258.03893	10248.0625
2260.93041	10221.8625
2263.82004	10184.9625
2266.70783	10173.3625
2269.59378	10110.9625
2272.4779	10071.0625
2275.36017	10049.2625
2278.24061	10047.1625
2281.11922	10010.0625
2283.996	10017.3625
2286.87094	10041.5625
2289.74405	9989.1625
2292.61534	9956.4625
2295.4848	9970.8625
2298.35243	9968.1625
2301.21824	9953.9625
2304.08223	9925.9625
2306.94439	9934.3625
2309.80474	9908.2625
2312.66327	9900.4625
2315.51999	9865.2625
2318.37489	9893.1625
2321.22797	9832.5625
2324.07925	9842.4625
2326.92871	9822.9625
2329.77637	9798.3625
2332.62222	9764.4625
2335.46626	9758.1625
2338.3085	9755.1625
2341.14893	9743.0625
2343.98756	9740.2625
2346.8244	9714.4625
2349.65943	9699.8625
2352.49267	9682.0625
2355.32411	9673.0625
2358.15376	9708.3625
2360.98161	9693.0625
2363.80768	9689.9625
2366.63195	9694.9625
2369.45444	9691.5625
2372.27514	9635.6625
2375.09405	9649.0625
2377.91118	9623.0625
2380.72652	9593.1625
2383.54009	9584.4625
2386.35187	9548.8625
2389.16188	9514.1625
2391.97011	9491.1625
2394.77657	9470.5625
2397.58125	9446.0625
2400.38416	9427.9625
2403.18529	9425.1625
2405.98466	9420.7625
2408.78226	9398.5625
2411.57809	9391.4625
2414.37216	9383.3625
2417.16446	9378.8625
2419.955	9329.5625
2422.74378	9337.6625
2425.5308	9322.4625
2428.31606	9318.0625
2431.09956	9309.7625
2433.88131	9292.3625
2436.6613	9267.8625
2439.43954	9264.6625
2442.21603	9250.3625
2444.99077	9217.8625
2447.76377	9247.6625
2450.53501	9225.2625
2453.30451	9222.9625
2456.07226	9209.4625
2458.83827	9208.7625
2461.60254	9197.3625
2464.36507	9207.7625
2467.12586	9170.4625
2469.88492	9147.7625
2472.64224	9164.0625
2475.39782	9157.1625
2478.15167	9183.9625
2480.90379	9152.0625
2483.65417	9168.0625
2486.40283	9152.9625
2489.14976	9124.6625
2491.89497	9139.3625
2494.63845	9134.9625
2497.3802	9104.3625
2500.12024	9091.5625
2502.85855	9068.2625
2505.59514	9076.7625
2508.33002	9063.5625
2511.06318	9070.8625
2513.79462	9055.3625
2516.52435	9015.7625
2519.25237	9024.5625
2521.97867	9001.8625
2524.70327	9003.6625
2527.42616	8978.5625
2530.14734	8954.5625
2532.86681	8953.2625
2535.58458	8981.0625
2538.30065	8940.4625
2541.01501	8931.0625
2543.72768	8903.6625
2546.43864	8895.8625
2549.14791	8899.8625
2551.85548	8880.3625
2554.56136	8864.4625
2557.26554	8840.7625
2559.96803	8802.0625
2562.66883	8796.9625
2565.36794	8787.0625
2568.06536	8756.6625
2570.7611	8738.9625
2573.45514	8740.1625
2576.14751	8718.2625
2578.83819	8689.9625
2581.52719	8682.8625
2584.21451	8677.1625
2586.90015	8671.1625
2589.58411	8644.2625
2592.2664	8638.1625
2594.94701	8623.9625
2597.62594	8616.6625
2600.30321	8586.2625
2602.9788	8587.1625
2605.65273	8552.6625
2608.32498	8579.2625
2610.99557	8556.0625
2613.66449	8573.9625
2616.33175	8556.3625
2618.99734	8543.6625
2621.66128	8508.2625
2624.32355	8507.8625
2626.98416	8489.0625
2629.64311	8473.4625
2632.30041	8445.7625
2634.95605	8465.2625
2637.61004	8425.4625
2640.26238	8426.1625
2642.91306	8433.3625
2645.56209	8412.1625
2648.20948	8421.6625
2650.85521	8418.1625
2653.4993	8387.2625
2656.14175	8393.3625
2658.78255	8403.1625
2661.42171	8425.9625
2664.05923	8406.4625
2666.6951	8401.0625
2669.32934	8398.1625
2671.96194	8401.4625
2674.59291	8373.0625
2677.22224	8393.2625
2679.84993	8405.4625
2682.476	8366.5625
2685.10043	8378.9625
2687.72324	8368.5625
2690.34441	8369.1625
2692.96396	8373.5625
2695.58188	8373.6625
2698.19818	8366.7625
2700.81285	8360.8625
2703.4259	8364.6625
2706.03733	8378.7625
2708.64714	8362.7625
2711.25533	8343.9625
2713.86191	8356.3625
2716.46687	8361.9625
2719.07021	8358.9625
2721.67194	8383.5625
2724.27206	8361.1625
2726.87057	8373.0625
2729.46747	8361.0625
2732.06276	8362.1625
2734.65644	8352.4625
2737.24852	8355.4625
2739.83899	8345.5625
2742.42786	8327.7625
2745.01513	8319.0625
2747.60079	8317.3625
2750.18486	8310.6625
2752.76733	8302.6625
2755.3482	8287.2625
2757.92747	8255.9625
2760.50515	8206.9625
2763.08123	8215.1625
2765.65573	8211.6625
2768.22863	8221.8625
2770.79994	8208.2625
2773.36967	8208.9625
2775.9378	8192.1625
2778.50435	8181.6625
2781.06932	8174.6625
2783.6327	8171.4625
2786.1945	8154.9625
2788.75471	8142.0625
2791.31335	8134.8625
2793.87041	8093.9625
2796.42589	8103.5625
2798.97979	8083.7625
2801.53212	8073.9625
2804.08288	8073.6625
2806.63206	8065.5625
2809.17967	8027.5625
2811.72571	8016.1625
2814.27018	7989.3625
2816.81308	7951.2625
2819.35442	7940.2625
2821.89419	7920.7625
2824.43239	7909.8625
2826.96904	7911.9625
2829.50412	7921.8625
2832.03763	7887.7625
2834.56959	7903.3625
2837.1	7874.7625
2839.62884	7888.6625
2842.15613	7897.8625
2844.68186	7917.3625
2847.20604	7951.5625
2849.72867	7925.9625
2852.24974	7935.0625
2854.76927	7902.9625
2857.28724	7897.1625
2859.80367	7860.8625
2862.31855	7869.8625
2864.83189	7840.4625
2867.34368	7822.4625
2869.85393	7817.7625
2872.36264	7820.9625
2874.8698	7805.6625
2877.37543	7778.6625
2879.87952	7779.6625
2882.38207	7781.7625
2884.88308	7760.8625
2887.38256	7749.3625
2889.88051	7750.1625
2892.37692	7770.7625
2894.8718	7775.2625
2897.36515	7788.1625
2899.85698	7775.3625
2902.34727	7789.4625
2904.83604	7770.9625
2907.32328	7804.7625
2909.809	7797.1625
2912.29319	7793.6625
2914.77587	7770.4625
2917.25702	7782.9625
2919.73665	7773.7625
2922.21476	7792.9625
2924.69136	7746.1625
2927.16644	7788.3625
2929.64	7748.9625
2932.11205	7743.7625
2934.58258	7743.3625
2937.05161	7745.9625
2939.51912	7745.7625
2941.98513	7714.6625
2944.44962	7692.7625
2946.91261	7670.2625
2949.37409	7661.0625
2951.83407	7657.5625
2954.29254	7641.3625
2956.74951	7641.3625
2959.20498	7641.9625
2961.65895	7631.0625
2964.11142	7623.1625
2966.56239	7603.3625
2969.01186	7618.3625
2971.45984	7577.3625
2973.90632	7577.8625
2976.35131	7552.7625
2978.7948	7535.3625
2981.23681	7504.7625
2983.67732	7490.2625
2986.11635	7470.9625
2988.55388	7475.4625
2990.98993	7449.5625
2993.4245	7431.5625
2995.85758	7406.2625
2998.28917	7384.2625
3000.71928	7374.9625
3003.14791	7359.9625
3005.57506	7378.4625
3008.00073	7340.9625
3010.42493	7346.2625
3012.84764	7306.1625
3015.26888	7285.7625
3017.68865	7268.7625
3020.10694	7248.6625
3022.52376	7257.8625
3024.9391	7247.7625
3027.35298	7240.3625
3029.76539	7222.5625
3032.17632	7219.6625
3034.5858	7213.8625
3036.9938	7213.2625
3039.40034	7195.9625
3041.80542	7191.7625
3044.20903	7171.6625
3046.61118	7174.1625
3049.01187	7161.0625
3051.4111	7165.2625
3053.80888	7136.3625
3056.20519	7116.2625
3058.60005	7117.4625
3060.99345	7092.5625
3063.3854	7067.5625
3065.7759	7050.5625
3068.16494	7047.5625
3070.55254	7036.7625
3072.93868	7020.7625
3075.32338	7004.1625
3077.70662	6977.6625
3080.08842	6950.7625
3082.46878	6944.7625
3084.84769	6961.1625
3087.22515	6947.0625
3089.60118	6948.7625
3091.97576	6950.4625
3094.3489	6945.3625
3096.72061	6935.3625
3099.09087	6913.0625
3101.4597	6913.7625
3103.82709	6922.4625
3106.19305	6909.0625
3108.55757	6915.5625
3110.92066	6887.1625
3113.28232	6887.4625
3115.64255	6885.3625
3118.00134	6873.5625
3120.35871	6856.7625
3122.71466	6836.5625
3125.06917	6823.1625
3127.42226	6814.4625
3129.77393	6802.2625
3132.12417	6808.5625
3134.47299	6801.8625
3136.82039	6807.4625
3139.16636	6805.8625
3141.51092	6807.9625
3143.85406	6796.7625
3146.19579	6791.0625
3148.53609	6789.3625
3150.87499	6803.3625
3153.21246	6808.9625
3155.54853	6807.7625
3157.88318	6805.5625
3160.21642	6799.2625
3162.54826	6828.9625
3164.87868	6816.6625
3167.2077	6804.4625
3169.5353	6816.9625
3171.86151	6820.9625
3174.18631	6806.5625
3176.5097	6797.9625
3178.83169	6819.9625
3181.15228	6800.4625
3183.47147	6783.0625
3185.78926	6785.3625
3188.10565	6777.4625
3190.42065	6785.0625
3192.73424	6752.7625
3195.04645	6753.8625
3197.35725	6740.6625
3199.66667	6727.3625
3201.97469	6744.1625
3204.28132	6735.0625
3206.58656	6753.4625
3208.8904	6744.5625
3211.19287	6739.7625
3213.49394	6739.3625
3215.79363	6773.5625
3218.09193	6768.8625
3220.38884	6752.6625
3222.68438	6748.7625
3224.97853	6731.9625
3227.2713	6741.9625
3229.56269	6719.6625
3231.8527	6717.2625
3234.14133	6711.4625
3236.42858	6719.4625
3238.71446	6677.9625
3240.99896	6648.6625
3243.28209	6659.0625
3245.56384	6640.4625
3247.84423	6642.3625
3250.12324	6644.2625
3252.40088	6619.6625
3254.67715	6633.2625
3256.95205	6618.9625
3259.22558	6612.6625
3261.49775	6606.0625
3263.76855	6578.3625
3266.03799	6574.2625
3268.30606	6571.1625
3270.57277	6564.2625
3272.83812	6537.4625
3275.10211	6514.6625
3277.36474	6521.8625
3279.62601	6500.1625
3281.88593	6474.8625
3284.14448	6475.2625
3286.40168	6472.0625
3288.65753	6486.1625
3290.91202	6466.1625
3293.16516	6466.6625
3295.41695	6436.7625
3297.66738	6408.4625
3299.91647	6371.0625
3302.16421	6348.7625
3304.4106	6303.3625
3306.65564	6255.7625
3308.89933	6214.3625
3311.14169	6166.6625
3313.38269	6092.2625
3315.62236	6071.4625
3317.86068	6010.4625
3320.09766	5971.5625
3322.3333	5911.2625
3324.5676	5885.6625
3326.80056	5806.0625
3329.03219	5781.1625
3331.26248	3.0625
3333.49143	-0.4375
3335.71905	-0.1375
