Data from AgNP_FTO_APTES_UA_10uM_CRN_5uM_R6G_10uM_NaF_0.1M_Addition_RamanShift__27__15-13-50-669.txt Node

Date: Thu Feb 10 15:13:50 GMT 2022
User: TCL
Spectrometer: QEP01345
Trigger mode: 4
Integration Time (sec): 7.000000E0
Scans to average: 10
Electric dark correction enabled: true
Nonlinearity correction enabled: false
Boxcar width: 0
XAxis mode: Raman Shifts
Number of Pixels in Spectrum: 1044
>>>>>Begin Spectral Data<<<<<
46.04893	-0.7375
50.45542	0.0625
54.85868	-2.0375
59.25871	-0.9375
63.6555	63.4625
68.04907	69.9625
72.43941	72.4625
76.82654	74.3625
81.21044	79.1625
85.59113	77.5625
89.96862	82.6625
94.34289	83.9625
98.71396	87.1625
103.08183	91.8625
107.4465	93.7625
111.80798	92.3625
116.16626	98.9625
120.52136	103.4625
124.87327	108.0625
129.222	107.8625
133.56755	119.8625
137.90993	125.1625
142.24913	131.7625
146.58517	147.9625
150.91804	172.9625
155.24774	211.2625
159.57429	254.9625
163.89768	332.1625
168.21792	435.8625
172.53501	593.6625
176.84895	819.6625
181.15975	1148.7625
185.46741	1600.9625
189.77193	2205.3625
194.07331	2951.2625
198.37157	3786.2625
202.6667	4684.5625
206.9587	5544.6625
211.24758	6427.5625
215.53334	7316.6625
219.81599	8292.8625
224.09553	9384.0625
228.37195	10614.7625
232.64527	11950.0625
236.91549	13335.8625
241.18261	14625.6625
245.44663	15767.0625
249.70755	16759.4625
253.96539	17616.2625
258.22014	18400.2625
262.4718	19051.9625
266.72039	19605.8625
270.96589	19947.6625
275.20832	20065.4625
279.44768	20082.5625
283.68397	19910.0625
287.91719	19835.3625
292.14735	19898.4625
296.37445	20117.5625
300.59849	20413.5625
304.81948	20807.1625
309.03742	20957.7625
313.25231	20702.9625
317.46415	19887.9625
321.67296	18769.1625
325.87872	17902.4625
330.08145	17488.4625
334.28114	17409.1625
338.47781	17666.3625
342.67145	18063.4625
346.86207	18585.2625
351.04966	19388.3625
355.23424	20179.8625
359.4158	20856.7625
363.59435	21156.8625
367.76989	21286.0625
371.94243	21297.9625
376.11196	21279.0625
380.27849	21231.8625
384.44203	21136.6625
388.60257	21044.7625
392.76012	21096.5625
396.91468	21382.7625
401.06626	21883.6625
405.21485	22209.1625
409.36047	21978.9625
413.50311	21267.1625
417.64277	20622.8625
421.77947	20341.8625
425.9132	20297.2625
430.04396	20431.9625
434.17176	20529.8625
438.2966	20771.6625
442.41849	21142.0625
446.53742	21757.1625
450.6534	22436.2625
454.76644	22903.7625
458.87653	23093.1625
462.98368	22945.4625
467.08789	22704.6625
471.18916	22268.9625
475.2875	21829.1625
479.38291	21501.7625
483.4754	21244.1625
487.56496	20956.5625
491.6516	20610.5625
495.73531	20377.0625
499.81612	20321.0625
503.89401	20471.8625
507.96899	20566.4625
512.04106	20667.2625
516.11023	20737.9625
520.1765	20725.8625
524.23987	20605.6625
528.30034	20314.0625
532.35792	19950.0625
536.41261	19639.0625
540.46441	19340.3625
544.51333	19339.5625
548.55936	19565.1625
552.60252	20096.2625
556.64279	20657.2625
560.6802	20957.5625
564.71473	21179.6625
568.7464	21774.7625
572.7752	22308.3625
576.80114	22206.3625
580.82422	21964.1625
584.84444	21879.7625
588.86181	21889.2625
592.87633	21984.9625
596.888	22238.9625
600.89682	22766.5625
604.9028	24564.6625
608.90594	29110.8625
612.90624	34476.3625
616.90371	32378.2625
620.89834	24491.1625
624.89015	21232.6625
628.87913	20709.0625
632.86528	20686.1625
636.84862	20619.9625
640.82913	20179.2625
644.80683	19435.4625
648.78172	18927.2625
652.75379	18952.5625
656.72306	19520.0625
660.68952	20183.0625
664.65319	20115.1625
668.61405	19470.7625
672.57211	19154.5625
676.52738	19131.3625
680.47986	19125.6625
684.42955	19035.7625
688.37646	18972.2625
692.32058	19129.1625
696.26192	19325.0625
700.20048	19589.4625
704.13626	19787.9625
708.06928	19750.3625
711.99952	19552.0625
715.927	19449.1625
719.85171	19440.3625
723.77365	19389.0625
727.69284	19146.5625
731.60928	18921.4625
735.52295	18885.1625
739.43388	18932.2625
743.34206	19012.6625
747.24749	19130.6625
751.15017	19403.9625
755.05012	19838.2625
758.94733	20719.2625
762.8418	22470.2625
766.73354	25227.2625
770.62254	27942.9625
774.50882	28819.7625
778.39237	27142.8625
782.27321	24128.1625
786.15132	21564.1625
790.02671	20076.3625
793.89938	19427.4625
797.76935	19164.1625
801.6366	19055.0625
805.50115	18941.5625
809.36299	18793.5625
813.22213	18701.7625
817.07857	18655.5625
820.93231	18666.5625
824.78336	18696.4625
828.63172	18745.9625
832.47738	18758.5625
836.32036	18785.1625
840.16066	18814.2625
843.99827	18835.6625
847.8332	18765.2625
851.66546	18660.2625
855.49504	18644.5625
859.32195	18615.5625
863.1462	18449.1625
866.96777	18388.5625
870.78668	18339.4625
874.60293	18368.4625
878.41652	18370.1625
882.22745	18457.4625
886.03573	18519.8625
889.84136	18480.9625
893.64433	18325.4625
897.44466	18288.6625
901.24235	18274.5625
905.0374	18272.9625
908.8298	18247.8625
912.61957	18289.3625
916.40671	18487.9625
920.19121	18744.6625
923.97308	19030.2625
927.75233	19186.2625
931.52895	19174.1625
935.30295	18940.9625
939.07433	18455.4625
942.84309	18063.8625
946.60924	17875.8625
950.37278	17809.4625
954.13371	17633.0625
957.89203	17560.3625
961.64774	17496.0625
965.40086	17435.2625
969.15137	17388.1625
972.89929	17303.7625
976.64461	17278.7625
980.38733	17294.4625
984.12747	17386.6625
987.86502	17544.6625
991.59999	17789.2625
995.33237	18191.0625
999.06217	18907.2625
1002.78939	19717.7625
1006.51404	20235.8625
1010.23611	20575.9625
1013.95561	20767.5625
1017.67255	20757.3625
1021.38692	20498.1625
1025.09872	20323.8625
1028.80796	20609.6625
1032.51465	21333.8625
1036.21877	22013.0625
1039.92035	22034.4625
1043.61937	21569.5625
1047.31584	20888.8625
1051.00976	20205.6625
1054.70114	19856.1625
1058.38998	19803.7625
1062.07627	19885.4625
1065.76003	19974.8625
1069.44126	20069.3625
1073.11995	20257.4625
1076.79611	20472.9625
1080.46974	20637.5625
1084.14085	20919.9625
1087.80943	21307.9625
1091.47549	21469.7625
1095.13903	21217.8625
1098.80005	20707.5625
1102.45857	20190.0625
1106.11456	19902.9625
1109.76805	19936.7625
1113.41903	20190.0625
1117.06751	20546.2625
1120.71348	21011.5625
1124.35696	21503.8625
1127.99793	21964.5625
1131.63641	22006.6625
1135.2724	21534.0625
1138.90589	21033.4625
1142.5369	20684.8625
1146.16542	20460.5625
1149.79145	20414.6625
1153.415	20543.4625
1157.03607	20842.5625
1160.65467	21339.8625
1164.27079	22138.7625
1167.88443	23286.7625
1171.49561	24988.3625
1175.10432	27557.7625
1178.71056	30901.3625
1182.31434	33704.6625
1185.91565	35003.8625
1189.51451	34762.8625
1193.11091	33186.4625
1196.70485	31005.0625
1200.29634	29199.9625
1203.88538	27749.4625
1207.47197	26395.2625
1211.05612	25323.3625
1214.63782	24744.5625
1218.21708	24641.0625
1221.79391	24739.5625
1225.36829	24914.2625
1228.94024	24862.8625
1232.50976	24672.5625
1236.07685	24488.5625
1239.6415	24371.5625
1243.20374	24305.1625
1246.76355	24428.4625
1250.32093	24861.1625
1253.8759	25559.4625
1257.42845	26402.6625
1260.97859	27203.5625
1264.52631	27906.8625
1268.07163	28654.5625
1271.61453	29466.7625
1275.15503	30294.4625
1278.69312	31094.6625
1282.22882	31719.5625
1285.76211	32340.9625
1289.29301	33044.9625
1292.82151	33848.6625
1296.34761	34918.2625
1299.87133	36612.4625
1303.39266	39076.5625
1306.9116	42582.7625
1310.42815	46418.4625
1313.94233	49088.1625
1317.45412	49149.2625
1320.96354	47272.8625
1324.47058	45107.7625
1327.97525	43144.1625
1331.47754	41814.7625
1334.97747	41477.3625
1338.47502	41745.8625
1341.97022	42224.4625
1345.46305	42451.3625
1348.95352	42493.3625
1352.44163	42858.8625
1355.92738	44459.7625
1359.41078	48070.9625
1362.89183	51705.1625
1366.37053	50312.1625
1369.84688	44387.0625
1373.32088	38417.9625
1376.79254	34614.4625
1380.26186	32911.0625
1383.72883	32192.1625
1387.19347	31593.0625
1390.65578	31074.4625
1394.11575	30844.6625
1397.57339	31035.4625
1401.0287	31632.9625
1404.48168	32297.5625
1407.93234	33007.8625
1411.38068	33196.6625
1414.82669	32872.3625
1418.27039	31828.2625
1421.71177	30528.7625
1425.15083	29400.1625
1428.58758	28706.1625
1432.02203	28598.9625
1435.45416	28786.6625
1438.88399	29083.5625
1442.31151	29401.7625
1445.73673	29767.7625
1449.15965	30098.5625
1452.58027	30251.7625
1455.9986	30270.0625
1459.41463	30460.2625
1462.82837	30844.0625
1466.23982	31452.0625
1469.64898	32072.6625
1473.05586	32504.9625
1476.46045	32676.9625
1479.86276	32964.0625
1483.26279	33140.2625
1486.66054	33542.2625
1490.05602	34129.7625
1493.44922	34783.2625
1496.84016	35685.6625
1500.22882	37151.4625
1503.61521	39137.8625
1506.99934	41704.5625
1510.38121	44534.4625
1513.76081	45993.1625
1517.13816	45026.5625
1520.51324	41911.1625
1523.88607	38472.3625
1527.25665	35965.8625
1530.62498	34436.2625
1533.99105	33444.5625
1537.35488	32863.2625
1540.71647	32445.0625
1544.07581	32101.2625
1547.4329	31702.2625
1550.78776	31413.4625
1554.14038	31230.2625
1557.49077	31260.2625
1560.83892	31531.5625
1564.18484	31798.9625
1567.52853	31964.5625
1570.86999	31957.3625
1574.20922	32102.4625
1577.54624	32045.8625
1580.88103	31450.3625
1584.2136	30780.8625
1587.54395	31065.9625
1590.87208	32436.6625
1594.19801	34666.3625
1597.52172	37159.9625
1600.84321	37994.4625
1604.16251	36585.5625
1607.47959	33777.0625
1610.79447	30773.9625
1614.10715	28109.3625
1617.41763	26028.1625
1620.7259	24620.3625
1624.03199	23961.5625
1627.33587	24010.1625
1630.63757	24745.7625
1633.93707	26254.4625
1637.23439	28376.2625
1640.52951	30948.7625
1643.82246	33863.1625
1647.11321	36547.1625
1650.40179	37718.7625
1653.68819	36096.6625
1656.97241	31827.3625
1660.25446	27167.4625
1663.53433	23729.9625
1666.81203	21575.2625
1670.08756	20229.8625
1673.36092	19407.7625
1676.63211	18862.9625
1679.90115	18519.0625
1683.16801	18190.9625
1686.43272	18036.4625
1689.69527	17837.7625
1692.95567	17761.7625
1696.2139	17701.6625
1699.46999	17668.4625
1702.72392	17623.7625
1705.97571	17543.3625
1709.22535	17553.5625
1712.47284	17485.7625
1715.71819	17490.3625
1718.96139	17424.7625
1722.20246	17426.8625
1725.44139	17347.3625
1728.67818	17227.7625
1731.91284	17122.2625
1735.14537	17026.4625
1738.37576	16947.3625
1741.60403	16918.1625
1744.83017	16816.9625
1748.05418	16790.0625
1751.27607	16788.7625
1754.49584	16756.3625
1757.71349	16764.7625
1760.92903	16738.5625
1764.14244	16761.4625
1767.35375	16753.3625
1770.56294	16671.4625
1773.77002	16662.4625
1776.97499	16622.8625
1780.17785	16567.8625
1783.37861	16548.4625
1786.57727	16547.6625
1789.77382	16552.9625
1792.96828	16498.4625
1796.16064	16466.1625
1799.3509	16422.0625
1802.53907	16456.6625
1805.72514	16417.1625
1808.90913	16350.8625
1812.09102	16335.9625
1815.27083	16298.6625
1818.44856	16281.9625
1821.6242	16247.1625
1824.79776	16194.9625
1827.96924	16207.8625
1831.13864	16226.9625
1834.30597	16207.1625
1837.47122	16217.2625
1840.6344	16183.7625
1843.7955	16209.6625
1846.95454	16210.9625
1850.11151	16189.0625
1853.26642	16208.7625
1856.41926	16246.8625
1859.57004	16248.2625
1862.71876	16246.7625
1865.86542	16269.0625
1869.01003	16277.1625
1872.15258	16280.7625
1875.29308	16281.3625
1878.43152	16306.4625
1881.56792	16320.0625
1884.70227	16323.2625
1887.83457	16323.8625
1890.96482	16321.6625
1894.09304	16313.0625
1897.21921	16355.7625
1900.34335	16332.9625
1903.46544	16356.1625
1906.58551	16363.7625
1909.70353	16377.2625
1912.81953	16348.5625
1915.93349	16380.3625
1919.04543	16347.9625
1922.15534	16317.7625
1925.26322	16289.9625
1928.36908	16218.3625
1931.47292	16212.6625
1934.57473	16131.5625
1937.67453	16042.4625
1940.77232	15975.8625
1943.86808	15884.0625
1946.96184	15828.2625
1950.05358	15736.7625
1953.14331	15664.5625
1956.23103	15611.5625
1959.31675	15551.9625
1962.40046	15502.4625
1965.48217	15487.9625
1968.56188	15411.5625
1971.63959	15376.0625
1974.7153	15342.8625
1977.78901	15293.4625
1980.86073	15244.7625
1983.93046	15161.6625
1986.99819	15128.0625
1990.06394	15096.3625
1993.1277	15065.6625
1996.18947	15027.2625
1999.24925	14970.7625
2002.30706	14950.2625
2005.36288	14896.7625
2008.41672	14829.9625
2011.46859	14823.8625
2014.51848	14781.5625
2017.56639	14753.6625
2020.61233	14693.3625
2023.6563	14661.6625
2026.6983	14643.1625
2029.73833	14604.3625
2032.7764	14603.4625
2035.8125	14567.1625
2038.84664	14526.0625
2041.87881	14518.2625
2044.90903	14493.5625
2047.93729	14496.0625
2050.96359	14489.5625
2053.98794	14467.9625
2057.01034	14446.0625
2060.03078	14425.8625
2063.04927	14396.5625
2066.06582	14412.6625
2069.08042	14399.9625
2072.09307	14382.1625
2075.10378	14362.4625
2078.11255	14331.6625
2081.11938	14335.5625
2084.12426	14306.2625
2087.12722	14292.9625
2090.12824	14292.3625
2093.12732	14282.6625
2096.12447	14265.4625
2099.11969	14272.0625
2102.11299	14271.2625
2105.10435	14267.1625
2108.09379	14272.1625
2111.08131	14284.8625
2114.0669	14313.4625
2117.05057	14311.8625
2120.03233	14310.8625
2123.01216	14333.7625
2125.99008	14326.3625
2128.96609	14373.8625
2131.94018	14356.0625
2134.91236	14379.3625
2137.88263	14385.8625
2140.851	14380.9625
2143.81746	14390.7625
2146.78201	14416.5625
2149.74466	14408.4625
2152.7054	14394.0625
2155.66425	14373.2625
2158.6212	14377.4625
2161.57625	14376.3625
2164.52941	14393.7625
2167.48067	14373.0625
2170.43004	14361.9625
2173.37752	14367.7625
2176.32311	14356.5625
2179.26681	14340.0625
2182.20863	14353.4625
2185.14856	14394.2625
2188.08661	14389.7625
2191.02278	14375.9625
2193.95707	14370.0625
2196.88948	14379.2625
2199.82001	14354.2625
2202.74867	14358.8625
2205.67545	14364.8625
2208.60037	14341.8625
2211.52341	14342.9625
2214.44458	14323.4625
2217.36388	14334.8625
2220.28132	14285.6625
2223.1969	14286.6625
2226.11061	14248.5625
2229.02246	14225.1625
2231.93245	14189.1625
2234.84058	14161.3625
2237.74686	14118.6625
2240.65128	14112.7625
2243.55385	14090.2625
2246.45456	14092.4625
2249.35343	14070.9625
2252.25044	14069.7625
2255.14561	14066.3625
2258.03893	14044.8625
2260.93041	14043.7625
2263.82004	13966.5625
2266.70783	13941.7625
2269.59378	13885.2625
2272.4779	13849.6625
2275.36017	13808.6625
2278.24061	13791.6625
2281.11922	13775.1625
2283.996	13759.3625
2286.87094	13785.4625
2289.74405	13772.1625
2292.61534	13743.6625
2295.4848	13766.9625
2298.35243	13773.4625
2301.21824	13768.8625
2304.08223	13761.2625
2306.94439	13779.0625
2309.80474	13775.6625
2312.66327	13789.7625
2315.51999	13812.8625
2318.37489	13795.3625
2321.22797	13782.5625
2324.07925	13757.1625
2326.92871	13744.4625
2329.77637	13746.0625
2332.62222	13763.9625
2335.46626	13757.5625
2338.3085	13778.4625
2341.14893	13828.4625
2343.98756	13836.9625
2346.8244	13830.9625
2349.65943	13837.6625
2352.49267	13830.0625
2355.32411	13825.2625
2358.15376	13811.1625
2360.98161	13776.5625
2363.80768	13806.6625
2366.63195	13804.9625
2369.45444	13747.1625
2372.27514	13713.9625
2375.09405	13688.9625
2377.91118	13655.9625
2380.72652	13624.8625
2383.54009	13585.4625
2386.35187	13551.8625
2389.16188	13499.9625
2391.97011	13498.7625
2394.77657	13489.0625
2397.58125	13447.0625
2400.38416	13429.3625
2403.18529	13401.1625
2405.98466	13385.9625
2408.78226	13347.8625
2411.57809	13304.6625
2414.37216	13273.7625
2417.16446	13271.1625
2419.955	13241.2625
2422.74378	13240.2625
2425.5308	13203.4625
2428.31606	13219.2625
2431.09956	13226.9625
2433.88131	13203.4625
2436.6613	13190.4625
2439.43954	13202.2625
2442.21603	13194.8625
2444.99077	13202.8625
2447.76377	13196.8625
2450.53501	13166.9625
2453.30451	13168.8625
2456.07226	13167.6625
2458.83827	13171.7625
2461.60254	13176.5625
2464.36507	13175.8625
2467.12586	13179.6625
2469.88492	13164.5625
2472.64224	13157.3625
2475.39782	13195.7625
2478.15167	13229.3625
2480.90379	13231.1625
2483.65417	13261.1625
2486.40283	13296.5625
2489.14976	13300.7625
2491.89497	13290.9625
2494.63845	13342.7625
2497.3802	13326.8625
2500.12024	13339.5625
2502.85855	13286.2625
2505.59514	13273.4625
2508.33002	13228.4625
2511.06318	13208.9625
2513.79462	13228.4625
2516.52435	13166.1625
2519.25237	13190.5625
2521.97867	13150.8625
2524.70327	13134.2625
2527.42616	13139.2625
2530.14734	13152.5625
2532.86681	13119.8625
2535.58458	13134.2625
2538.30065	13166.5625
2541.01501	13109.0625
2543.72768	13084.5625
2546.43864	13106.7625
2549.14791	13105.4625
2551.85548	13102.9625
2554.56136	13085.2625
2557.26554	13068.7625
2559.96803	13073.2625
2562.66883	13031.6625
2565.36794	13015.3625
2568.06536	13007.0625
2570.7611	12969.8625
2573.45514	12973.6625
2576.14751	12960.7625
2578.83819	12960.0625
2581.52719	12963.6625
2584.21451	12949.4625
2586.90015	13006.0625
2589.58411	12963.1625
2592.2664	12985.6625
2594.94701	12966.8625
2597.62594	12955.7625
2600.30321	12969.6625
2602.9788	12948.4625
2605.65273	12946.3625
2608.32498	12962.1625
2610.99557	12948.8625
2613.66449	12944.2625
2616.33175	12974.7625
2618.99734	12995.4625
2621.66128	13001.2625
2624.32355	12993.4625
2626.98416	12981.2625
2629.64311	13008.9625
2632.30041	12971.5625
2634.95605	12957.7625
2637.61004	12925.0625
2640.26238	12920.7625
2642.91306	12899.6625
2645.56209	12904.5625
2648.20948	12899.3625
2650.85521	12850.5625
2653.4993	12907.2625
2656.14175	12850.8625
2658.78255	12873.5625
2661.42171	12886.3625
2664.05923	12884.4625
2666.6951	12910.7625
2669.32934	12934.3625
2671.96194	12942.6625
2674.59291	12951.2625
2677.22224	12971.8625
2679.84993	12969.6625
2682.476	12948.0625
2685.10043	12927.7625
2687.72324	12891.8625
2690.34441	12918.8625
2692.96396	12906.1625
2695.58188	12908.2625
2698.19818	12880.5625
2700.81285	12880.6625
2703.4259	12901.8625
2706.03733	12889.7625
2708.64714	12885.3625
2711.25533	12898.0625
2713.86191	12886.8625
2716.46687	12894.7625
2719.07021	12891.0625
2721.67194	12902.4625
2724.27206	12912.7625
2726.87057	12919.8625
2729.46747	12938.4625
2732.06276	12926.1625
2734.65644	12925.5625
2737.24852	12963.1625
2739.83899	12898.1625
2742.42786	12916.5625
2745.01513	12913.4625
2747.60079	12879.9625
2750.18486	12886.0625
2752.76733	12874.2625
2755.3482	12878.5625
2757.92747	12865.2625
2760.50515	12847.7625
2763.08123	12841.8625
2765.65573	12806.8625
2768.22863	12819.8625
2770.79994	12807.0625
2773.36967	12815.7625
2775.9378	12817.3625
2778.50435	12825.9625
2781.06932	12821.4625
2783.6327	12811.2625
2786.1945	12850.0625
2788.75471	12828.8625
2791.31335	12761.2625
2793.87041	12796.5625
2796.42589	12763.2625
2798.97979	12806.3625
2801.53212	12759.4625
2804.08288	12736.2625
2806.63206	12724.1625
2809.17967	12679.8625
2811.72571	12684.0625
2814.27018	12655.6625
2816.81308	12655.1625
2819.35442	12630.2625
2821.89419	12618.9625
2824.43239	12625.0625
2826.96904	12604.0625
2829.50412	12632.8625
2832.03763	12593.7625
2834.56959	12622.6625
2837.1	12595.8625
2839.62884	12596.3625
2842.15613	12593.8625
2844.68186	12648.5625
2847.20604	12616.1625
2849.72867	12652.8625
2852.24974	12640.4625
2854.76927	12637.8625
2857.28724	12611.6625
2859.80367	12580.7625
2862.31855	12558.7625
2864.83189	12571.6625
2867.34368	12515.7625
2869.85393	12534.0625
2872.36264	12537.3625
2874.8698	12526.6625
2877.37543	12514.9625
2879.87952	12546.6625
2882.38207	12543.4625
2884.88308	12523.9625
2887.38256	12534.4625
2889.88051	12510.4625
2892.37692	12516.8625
2894.8718	12525.9625
2897.36515	12544.5625
2899.85698	12553.9625
2902.34727	12595.4625
2904.83604	12594.5625
2907.32328	12630.4625
2909.809	12606.3625
2912.29319	12631.4625
2914.77587	12607.2625
2917.25702	12613.1625
2919.73665	12551.3625
2922.21476	12596.5625
2924.69136	12565.9625
2927.16644	12563.3625
2929.64	12518.7625
2932.11205	12520.1625
2934.58258	12476.5625
2937.05161	12488.5625
2939.51912	12467.2625
2941.98513	12450.9625
2944.44962	12452.7625
2946.91261	12379.4625
2949.37409	12406.4625
2951.83407	12400.8625
2954.29254	12359.5625
2956.74951	12362.1625
2959.20498	12347.5625
2961.65895	12359.5625
2964.11142	12341.9625
2966.56239	12330.0625
2969.01186	12309.4625
2971.45984	12286.9625
2973.90632	12282.0625
2976.35131	12230.8625
2978.7948	12217.9625
2981.23681	12165.8625
2983.67732	12140.8625
2986.11635	12119.8625
2988.55388	12086.2625
2990.98993	12057.2625
2993.4245	12047.1625
2995.85758	12047.1625
2998.28917	11987.2625
3000.71928	11975.4625
3003.14791	11957.4625
3005.57506	11949.8625
3008.00073	11893.1625
3010.42493	11771.2625
3012.84764	11848.3625
3015.26888	11847.2625
3017.68865	11808.8625
3020.10694	11813.8625
3022.52376	11787.1625
3024.9391	11752.7625
3027.35298	11745.8625
3029.76539	11755.0625
3032.17632	11750.7625
3034.5858	11741.6625
3036.9938	11694.1625
3039.40034	11691.7625
3041.80542	11698.5625
3044.20903	11684.5625
3046.61118	11654.6625
3049.01187	11631.7625
3051.4111	11621.7625
3053.80888	11593.2625
3056.20519	11564.9625
3058.60005	11529.4625
3060.99345	11519.9625
3063.3854	11506.6625
3065.7759	11443.3625
3068.16494	11415.8625
3070.55254	11391.9625
3072.93868	11358.8625
3075.32338	11326.0625
3077.70662	11296.9625
3080.08842	11264.3625
3082.46878	11242.7625
3084.84769	11228.3625
3087.22515	11216.7625
3089.60118	11261.9625
3091.97576	11212.4625
3094.3489	11237.3625
3096.72061	11225.1625
3099.09087	11230.8625
3101.4597	11196.9625
3103.82709	11196.0625
3106.19305	11166.5625
3108.55757	11157.5625
3110.92066	11157.5625
3113.28232	11107.0625
3115.64255	11092.1625
3118.00134	11079.8625
3120.35871	11063.6625
3122.71466	11060.3625
3125.06917	11010.6625
3127.42226	11018.1625
3129.77393	10998.5625
3132.12417	10982.8625
3134.47299	10963.5625
3136.82039	10965.4625
3139.16636	10959.8625
3141.51092	10974.5625
3143.85406	10958.1625
3146.19579	10953.1625
3148.53609	10936.5625
3150.87499	10968.9625
3153.21246	10975.2625
3155.54853	10961.3625
3157.88318	10969.9625
3160.21642	10991.6625
3162.54826	10956.3625
3164.87868	11002.9625
3167.2077	10998.8625
3169.5353	11001.5625
3171.86151	10981.0625
3174.18631	10955.8625
3176.5097	10980.3625
3178.83169	10954.2625
3181.15228	10951.7625
3183.47147	10927.5625
3185.78926	10929.7625
3188.10565	10904.7625
3190.42065	10894.6625
3192.73424	10929.8625
3195.04645	10893.7625
3197.35725	10902.4625
3199.66667	10897.5625
3201.97469	10933.0625
3204.28132	10910.0625
3206.58656	10937.8625
3208.8904	10937.8625
3211.19287	10912.9625
3213.49394	10933.1625
3215.79363	10943.7625
3218.09193	10928.1625
3220.38884	10933.3625
3222.68438	10956.3625
3224.97853	10949.9625
3227.2713	10920.0625
3229.56269	10929.6625
3231.8527	10940.3625
3234.14133	10865.0625
3236.42858	10875.4625
3238.71446	10848.9625
3240.99896	10826.8625
3243.28209	10833.9625
3245.56384	10829.2625
3247.84423	10829.8625
3250.12324	10798.5625
3252.40088	10775.3625
3254.67715	10763.9625
3256.95205	10767.4625
3259.22558	10747.2625
3261.49775	10738.5625
3263.76855	10724.2625
3266.03799	10719.9625
3268.30606	10718.6625
3270.57277	10701.7625
3272.83812	10669.4625
3275.10211	10659.4625
3277.36474	10641.3625
3279.62601	10631.7625
3281.88593	10612.7625
3284.14448	10629.3625
3286.40168	10622.3625
3288.65753	10636.0625
3290.91202	10636.3625
3293.16516	10595.7625
3295.41695	10570.8625
3297.66738	10530.1625
3299.91647	10446.7625
3302.16421	10391.8625
3304.4106	10352.9625
3306.65564	10280.9625
3308.89933	10214.2625
3311.14169	10141.1625
3313.38269	10073.9625
3315.62236	9994.0625
3317.86068	9933.0625
3320.09766	9850.4625
3322.3333	9792.8625
3324.5676	9754.8625
3326.80056	9590.2625
3329.03219	9532.1625
3331.26248	3.9625
3333.49143	0.0625
3335.71905	-0.6375
