Data from AgNP_FTO_APTES_UA_10uM_CRN_0uM_R6G_10uM_NaF_0.1M_Addition_RamanShift__33__12-46-50-482.txt Node

Date: Thu Feb 10 12:46:50 GMT 2022
User: TCL
Spectrometer: QEP01345
Trigger mode: 4
Integration Time (sec): 7.000000E0
Scans to average: 10
Electric dark correction enabled: true
Nonlinearity correction enabled: false
Boxcar width: 0
XAxis mode: Raman Shifts
Number of Pixels in Spectrum: 1044
>>>>>Begin Spectral Data<<<<<
46.04893	-0.6625
50.45542	0.0375
54.85868	-1.7625
59.25871	-0.5625
63.6555	57.7375
68.04907	58.8375
72.43941	63.2375
76.82654	62.0375
81.21044	70.8375
85.59113	69.2375
89.96862	74.6375
94.34289	78.3375
98.71396	77.8375
103.08183	81.5375
107.4465	87.2375
111.80798	79.4375
116.16626	86.9375
120.52136	86.1375
124.87327	93.2375
129.222	96.7375
133.56755	98.9375
137.90993	105.2375
142.24913	112.5375
146.58517	125.5375
150.91804	142.5375
155.24774	168.2375
159.57429	207.8375
163.89768	263.7375
168.21792	346.3375
172.53501	469.1375
176.84895	651.2375
181.15975	910.2375
185.46741	1270.9375
189.77193	1770.5375
194.07331	2359.1375
198.37157	3040.9375
202.6667	3765.1375
206.9587	4484.0375
211.24758	5202.0375
215.53334	5911.4375
219.81599	6683.2375
224.09553	7516.8375
228.37195	8448.6375
232.64527	9465.6375
236.91549	10519.0375
241.18261	11573.6375
245.44663	12520.7375
249.70755	13321.5375
253.96539	14086.1375
258.22014	14710.9375
262.4718	15279.2375
266.72039	15694.9375
270.96589	15904.4375
275.20832	15896.1375
279.44768	15768.3375
283.68397	15513.9375
287.91719	15299.1375
292.14735	15201.0375
296.37445	15220.9375
300.59849	15355.3375
304.81948	15565.6375
309.03742	15733.5375
313.25231	15688.2375
317.46415	15361.3375
321.67296	14871.1375
325.87872	14516.2375
330.08145	14339.2375
334.28114	14378.2375
338.47781	14546.9375
342.67145	14752.9375
346.86207	15050.9375
351.04966	15425.4375
355.23424	15898.9375
359.4158	16351.6375
363.59435	16600.1375
367.76989	16856.1375
371.94243	16945.1375
376.11196	17055.1375
380.27849	17118.6375
384.44203	17149.7375
388.60257	17180.3375
392.76012	17204.3375
396.91468	17348.2375
401.06626	17599.4375
405.21485	17822.8375
409.36047	17758.7375
413.50311	17418.5375
417.64277	17085.2375
421.77947	16912.4375
425.9132	16918.7375
430.04396	17043.0375
434.17176	17183.4375
438.2966	17410.6375
442.41849	17878.6375
446.53742	18605.7375
450.6534	19345.3375
454.76644	19828.5375
458.87653	19889.3375
462.98368	19535.8375
467.08789	19039.1375
471.18916	18639.3375
475.2875	18219.6375
479.38291	17940.8375
483.4754	17720.3375
487.56496	17506.5375
491.6516	17338.6375
495.73531	17210.1375
499.81612	17118.0375
503.89401	17222.9375
507.96899	17240.8375
512.04106	17224.5375
516.11023	17287.6375
520.1765	17352.8375
524.23987	17443.7375
528.30034	17437.3375
532.35792	17306.7375
536.41261	17036.7375
540.46441	16784.0375
544.51333	16688.4375
548.55936	16734.5375
552.60252	16998.2375
556.64279	17334.7375
560.6802	17572.2375
564.71473	17719.5375
568.7464	17968.6375
572.7752	18196.5375
576.80114	18146.9375
580.82422	18117.9375
584.84444	18334.4375
588.86181	18876.0375
592.87633	19737.1375
596.888	20326.7375
600.89682	20268.5375
604.9028	20746.0375
608.90594	22979.2375
612.90624	25803.8375
616.90371	24676.1375
620.89834	20288.2375
624.89015	18307.9375
628.87913	18078.9375
632.86528	17937.6375
636.84862	17711.6375
640.82913	17404.4375
644.80683	16954.4375
648.78172	16652.6375
652.75379	16660.9375
656.72306	17003.3375
660.68952	17503.8375
664.65319	17431.1375
668.61405	17051.4375
672.57211	16894.4375
676.52738	16906.6375
680.47986	16822.9375
684.42955	16743.9375
688.37646	16728.1375
692.32058	16839.1375
696.26192	17049.0375
700.20048	17250.1375
704.13626	17321.9375
708.06928	17236.1375
711.99952	17085.7375
715.927	17104.6375
719.85171	17179.0375
723.77365	17157.8375
727.69284	16977.9375
731.60928	16827.4375
735.52295	16829.3375
739.43388	16871.1375
743.34206	16945.3375
747.24749	17007.7375
751.15017	17100.3375
755.05012	17241.7375
758.94733	17660.3375
762.8418	18417.5375
766.73354	19801.4375
770.62254	21302.2375
774.50882	22127.6375
778.39237	21577.4375
782.27321	20068.2375
786.15132	18606.7375
790.02671	17674.4375
793.89938	17288.1375
797.76935	17172.2375
801.6366	17110.7375
805.50115	17091.6375
809.36299	17000.2375
813.22213	16955.6375
817.07857	16870.8375
820.93231	16902.6375
824.78336	16856.1375
828.63172	16927.3375
832.47738	17005.6375
836.32036	17075.1375
840.16066	17151.0375
843.99827	17140.0375
847.8332	17121.6375
851.66546	17039.8375
855.49504	17015.0375
859.32195	16981.6375
863.1462	16926.9375
866.96777	16862.2375
870.78668	16823.4375
874.60293	16842.0375
878.41652	16831.1375
882.22745	16954.5375
886.03573	17034.1375
889.84136	17002.9375
893.64433	16961.8375
897.44466	16875.5375
901.24235	16798.0375
905.0374	16748.8375
908.8298	16706.4375
912.61957	16722.8375
916.40671	16775.5375
920.19121	16912.0375
923.97308	17117.3375
927.75233	17286.2375
931.52895	17407.6375
935.30295	17292.8375
939.07433	16992.1375
942.84309	16714.9375
946.60924	16626.5375
950.37278	16626.8375
954.13371	16547.4375
957.89203	16441.3375
961.64774	16355.8375
965.40086	16313.6375
969.15137	16287.7375
972.89929	16254.8375
976.64461	16256.1375
980.38733	16347.1375
984.12747	16472.5375
987.86502	16691.9375
991.59999	16975.5375
995.33237	17286.7375
999.06217	17759.3375
1002.78939	18345.4375
1006.51404	18597.5375
1010.23611	18677.4375
1013.95561	18818.3375
1017.67255	18798.2375
1021.38692	18580.7375
1025.09872	18386.9375
1028.80796	18518.5375
1032.51465	19075.1375
1036.21877	19575.3375
1039.92035	19637.3375
1043.61937	19308.1375
1047.31584	18831.2375
1051.00976	18309.7375
1054.70114	18053.5375
1058.38998	17989.6375
1062.07627	17923.7375
1065.76003	17886.7375
1069.44126	17882.1375
1073.11995	18075.8375
1076.79611	18280.5375
1080.46974	18497.3375
1084.14085	18745.9375
1087.80943	18993.6375
1091.47549	19127.3375
1095.13903	18956.5375
1098.80005	18639.5375
1102.45857	18326.8375
1106.11456	18255.3375
1109.76805	18334.6375
1113.41903	18488.5375
1117.06751	18677.7375
1120.71348	18955.8375
1124.35696	19199.1375
1127.99793	19426.2375
1131.63641	19497.3375
1135.2724	19162.4375
1138.90589	18823.2375
1142.5369	18573.1375
1146.16542	18435.6375
1149.79145	18383.4375
1153.415	18380.3375
1157.03607	18406.0375
1160.65467	18633.2375
1164.27079	19156.1375
1167.88443	19942.1375
1171.49561	21056.5375
1175.10432	22809.5375
1178.71056	24989.9375
1182.31434	27098.6375
1185.91565	28126.4375
1189.51451	27810.0375
1193.11091	26511.0375
1196.70485	24940.9375
1200.29634	23593.9375
1203.88538	22603.2375
1207.47197	21850.9375
1211.05612	21275.5375
1214.63782	20938.5375
1218.21708	21024.8375
1221.79391	21333.3375
1225.36829	21607.4375
1228.94024	21423.2375
1232.50976	20954.1375
1236.07685	20513.5375
1239.6415	20299.1375
1243.20374	20268.7375
1246.76355	20374.7375
1250.32093	20628.2375
1253.8759	21074.5375
1257.42845	21663.7375
1260.97859	22261.2375
1264.52631	22878.2375
1268.07163	23485.3375
1271.61453	24060.3375
1275.15503	24563.1375
1278.69312	25082.1375
1282.22882	25571.8375
1285.76211	26014.2375
1289.29301	26560.1375
1292.82151	27158.1375
1296.34761	27985.6375
1299.87133	29229.4375
1303.39266	30963.6375
1306.9116	33402.2375
1310.42815	36157.0375
1313.94233	38014.7375
1317.45412	37923.9375
1320.96354	36251.2375
1324.47058	34138.1375
1327.97525	32150.1375
1331.47754	30838.2375
1334.97747	30257.6375
1338.47502	30063.4375
1341.97022	29941.1375
1345.46305	29762.0375
1348.95352	30002.9375
1352.44163	31053.4375
1355.92738	32986.3375
1359.41078	35838.8375
1362.89183	38432.0375
1366.37053	38175.7375
1369.84688	34546.2375
1373.32088	30121.7375
1376.79254	27155.4375
1380.26186	25863.0375
1383.72883	25437.1375
1387.19347	24984.9375
1390.65578	24393.1375
1394.11575	24012.8375
1397.57339	24082.3375
1401.0287	24408.3375
1404.48168	24830.4375
1407.93234	25088.3375
1411.38068	25089.9375
1414.82669	24843.9375
1418.27039	24260.1375
1421.71177	23608.5375
1425.15083	22956.1375
1428.58758	22673.4375
1432.02203	22856.6375
1435.45416	23203.2375
1438.88399	23536.5375
1442.31151	23744.9375
1445.73673	23932.7375
1449.15965	24070.1375
1452.58027	24062.1375
1455.9986	23841.0375
1459.41463	23739.0375
1462.82837	24039.0375
1466.23982	24531.1375
1469.64898	25124.7375
1473.05586	25539.6375
1476.46045	25741.8375
1479.86276	25946.7375
1483.26279	26013.1375
1486.66054	26146.5375
1490.05602	26362.0375
1493.44922	26576.5375
1496.84016	26788.0375
1500.22882	27268.8375
1503.61521	28194.6375
1506.99934	29576.8375
1510.38121	30982.5375
1513.76081	31541.2375
1517.13816	30691.5375
1520.51324	28722.0375
1523.88607	26790.7375
1527.25665	25556.3375
1530.62498	24983.1375
1533.99105	24738.5375
1537.35488	24536.7375
1540.71647	24393.4375
1544.07581	24177.1375
1547.4329	23968.0375
1550.78776	23700.8375
1554.14038	23356.9375
1557.49077	23132.5375
1560.83892	23041.5375
1564.18484	23116.3375
1567.52853	23337.8375
1570.86999	23581.5375
1574.20922	23875.5375
1577.54624	23986.0375
1580.88103	23699.9375
1584.2136	23358.4375
1587.54395	23615.8375
1590.87208	24663.5375
1594.19801	26520.4375
1597.52172	28690.5375
1600.84321	29886.3375
1604.16251	29169.4375
1607.47959	27017.9375
1610.79447	24403.7375
1614.10715	22121.4375
1617.41763	20534.9375
1620.7259	19690.2375
1624.03199	19358.4375
1627.33587	19464.4375
1630.63757	19992.5375
1633.93707	20969.9375
1637.23439	22474.7375
1640.52951	24669.0375
1643.82246	27365.5375
1647.11321	29736.1375
1650.40179	30349.7375
1653.68819	28549.6375
1656.97241	25108.4375
1660.25446	21814.8375
1663.53433	19594.9375
1666.81203	18288.3375
1670.08756	17522.5375
1673.36092	17079.8375
1676.63211	16763.8375
1679.90115	16574.3375
1683.16801	16372.3375
1686.43272	16261.5375
1689.69527	16192.2375
1692.95567	16121.1375
1696.2139	16060.4375
1699.46999	16080.4375
1702.72392	16032.2375
1705.97571	16046.4375
1709.22535	16017.4375
1712.47284	16008.8375
1715.71819	16011.9375
1718.96139	15964.7375
1722.20246	15926.9375
1725.44139	15909.1375
1728.67818	15828.0375
1731.91284	15739.4375
1735.14537	15690.7375
1738.37576	15643.6375
1741.60403	15629.5375
1744.83017	15598.5375
1748.05418	15537.0375
1751.27607	15542.6375
1754.49584	15493.0375
1757.71349	15517.5375
1760.92903	15482.3375
1764.14244	15483.4375
1767.35375	15515.2375
1770.56294	15479.1375
1773.77002	15457.9375
1776.97499	15439.7375
1780.17785	15423.4375
1783.37861	15386.6375
1786.57727	15359.8375
1789.77382	15349.0375
1792.96828	15347.5375
1796.16064	15336.5375
1799.3509	15301.2375
1802.53907	15285.2375
1805.72514	15270.1375
1808.90913	15203.2375
1812.09102	15183.3375
1815.27083	15177.6375
1818.44856	15127.7375
1821.6242	15085.6375
1824.79776	15082.5375
1827.96924	15038.9375
1831.13864	15080.4375
1834.30597	15059.3375
1837.47122	15032.0375
1840.6344	15009.2375
1843.7955	15038.0375
1846.95454	15045.4375
1850.11151	15015.2375
1853.26642	15024.8375
1856.41926	15052.2375
1859.57004	15058.9375
1862.71876	15024.7375
1865.86542	15049.0375
1869.01003	15046.7375
1872.15258	15037.3375
1875.29308	15047.5375
1878.43152	15008.2375
1881.56792	15018.3375
1884.70227	15036.7375
1887.83457	15045.8375
1890.96482	15012.7375
1894.09304	14993.1375
1897.21921	15005.1375
1900.34335	14997.1375
1903.46544	14999.5375
1906.58551	14979.2375
1909.70353	14963.6375
1912.81953	14963.1375
1915.93349	14975.7375
1919.04543	14948.1375
1922.15534	14912.5375
1925.26322	14884.5375
1928.36908	14851.4375
1931.47292	14841.6375
1934.57473	14804.9375
1937.67453	14751.2375
1940.77232	14740.2375
1943.86808	14683.5375
1946.96184	14640.0375
1950.05358	14587.4375
1953.14331	14559.4375
1956.23103	14528.7375
1959.31675	14502.4375
1962.40046	14454.2375
1965.48217	14402.0375
1968.56188	14369.6375
1971.63959	14298.7375
1974.7153	14290.3375
1977.78901	14247.3375
1980.86073	14182.5375
1983.93046	14184.2375
1986.99819	14150.6375
1990.06394	14140.3375
1993.1277	14077.0375
1996.18947	14015.3375
1999.24925	13979.3375
2002.30706	13959.4375
2005.36288	13957.0375
2008.41672	13897.8375
2011.46859	13871.8375
2014.51848	13830.8375
2017.56639	13804.9375
2020.61233	13773.2375
2023.6563	13745.8375
2026.6983	13736.2375
2029.73833	13673.7375
2032.7764	13635.7375
2035.8125	13637.7375
2038.84664	13593.1375
2041.87881	13619.0375
2044.90903	13602.6375
2047.93729	13565.4375
2050.96359	13569.0375
2053.98794	13537.4375
2057.01034	13550.7375
2060.03078	13524.4375
2063.04927	13509.5375
2066.06582	13509.5375
2069.08042	13531.8375
2072.09307	13523.1375
2075.10378	13492.4375
2078.11255	13476.1375
2081.11938	13484.5375
2084.12426	13456.2375
2087.12722	13459.8375
2090.12824	13478.2375
2093.12732	13492.1375
2096.12447	13493.9375
2099.11969	13474.7375
2102.11299	13497.2375
2105.10435	13487.9375
2108.09379	13498.1375
2111.08131	13513.2375
2114.0669	13518.0375
2117.05057	13545.5375
2120.03233	13575.2375
2123.01216	13562.8375
2125.99008	13570.4375
2128.96609	13580.3375
2131.94018	13600.6375
2134.91236	13621.4375
2137.88263	13649.1375
2140.851	13624.5375
2143.81746	13642.3375
2146.78201	13605.9375
2149.74466	13616.3375
2152.7054	13622.2375
2155.66425	13631.3375
2158.6212	13628.9375
2161.57625	13654.2375
2164.52941	13661.5375
2167.48067	13617.0375
2170.43004	13636.7375
2173.37752	13613.6375
2176.32311	13647.9375
2179.26681	13652.6375
2182.20863	13644.4375
2185.14856	13654.9375
2188.08661	13632.1375
2191.02278	13649.5375
2193.95707	13679.2375
2196.88948	13676.5375
2199.82001	13656.1375
2202.74867	13616.5375
2205.67545	13638.1375
2208.60037	13637.6375
2211.52341	13645.2375
2214.44458	13625.9375
2217.36388	13615.4375
2220.28132	13586.7375
2223.1969	13515.6375
2226.11061	13518.1375
2229.02246	13519.7375
2231.93245	13481.2375
2234.84058	13450.3375
2237.74686	13437.5375
2240.65128	13437.6375
2243.55385	13401.6375
2246.45456	13395.8375
2249.35343	13371.2375
2252.25044	13347.7375
2255.14561	13366.1375
2258.03893	13358.1375
2260.93041	13311.8375
2263.82004	13279.9375
2266.70783	13229.7375
2269.59378	13215.1375
2272.4779	13171.5375
2275.36017	13175.1375
2278.24061	13158.7375
2281.11922	13144.6375
2283.996	13134.1375
2286.87094	13110.5375
2289.74405	13082.1375
2292.61534	13098.0375
2295.4848	13086.9375
2298.35243	13092.1375
2301.21824	13082.6375
2304.08223	13085.8375
2306.94439	13080.9375
2309.80474	13121.1375
2312.66327	13114.1375
2315.51999	13108.0375
2318.37489	13089.9375
2321.22797	13066.7375
2324.07925	13073.0375
2326.92871	13036.5375
2329.77637	13025.2375
2332.62222	13036.9375
2335.46626	13018.6375
2338.3085	13042.9375
2341.14893	13040.0375
2343.98756	13031.2375
2346.8244	13052.5375
2349.65943	13031.3375
2352.49267	13042.0375
2355.32411	12995.1375
2358.15376	12996.7375
2360.98161	13040.1375
2363.80768	13005.1375
2366.63195	12998.5375
2369.45444	12968.8375
2372.27514	12931.4375
2375.09405	12937.8375
2377.91118	12894.7375
2380.72652	12901.6375
2383.54009	12838.8375
2386.35187	12841.4375
2389.16188	12819.2375
2391.97011	12799.2375
2394.77657	12760.6375
2397.58125	12710.1375
2400.38416	12710.6375
2403.18529	12704.5375
2405.98466	12692.2375
2408.78226	12621.5375
2411.57809	12621.6375
2414.37216	12615.3375
2417.16446	12580.5375
2419.955	12559.7375
2422.74378	12575.1375
2425.5308	12542.7375
2428.31606	12558.5375
2431.09956	12587.2375
2433.88131	12555.8375
2436.6613	12546.2375
2439.43954	12556.7375
2442.21603	12539.1375
2444.99077	12526.9375
2447.76377	12527.3375
2450.53501	12492.2375
2453.30451	12523.8375
2456.07226	12520.2375
2458.83827	12501.5375
2461.60254	12499.0375
2464.36507	12465.0375
2467.12586	12476.8375
2469.88492	12480.1375
2472.64224	12498.6375
2475.39782	12531.2375
2478.15167	12521.4375
2480.90379	12518.1375
2483.65417	12520.5375
2486.40283	12528.7375
2489.14976	12533.2375
2491.89497	12526.7375
2494.63845	12538.2375
2497.3802	12499.8375
2500.12024	12489.1375
2502.85855	12500.4375
2505.59514	12485.7375
2508.33002	12489.1375
2511.06318	12434.9375
2513.79462	12410.1375
2516.52435	12405.6375
2519.25237	12413.5375
2521.97867	12396.5375
2524.70327	12388.4375
2527.42616	12375.0375
2530.14734	12371.0375
2532.86681	12337.3375
2535.58458	12344.4375
2538.30065	12356.6375
2541.01501	12364.8375
2543.72768	12327.8375
2546.43864	12342.8375
2549.14791	12299.2375
2551.85548	12359.8375
2554.56136	12333.1375
2557.26554	12286.9375
2559.96803	12271.1375
2562.66883	12233.1375
2565.36794	12255.1375
2568.06536	12226.7375
2570.7611	12237.9375
2573.45514	12186.0375
2576.14751	12188.3375
2578.83819	12156.7375
2581.52719	12134.7375
2584.21451	12169.3375
2586.90015	12168.7375
2589.58411	12144.2375
2592.2664	12141.4375
2594.94701	12117.3375
2597.62594	12145.3375
2600.30321	12090.2375
2602.9788	12099.0375
2605.65273	12082.5375
2608.32498	12078.9375
2610.99557	12075.2375
2613.66449	12075.6375
2616.33175	12032.3375
2618.99734	12034.3375
2621.66128	12048.8375
2624.32355	12052.5375
2626.98416	12024.5375
2629.64311	12023.5375
2632.30041	11999.5375
2634.95605	11990.4375
2637.61004	11991.2375
2640.26238	11971.3375
2642.91306	11995.8375
2645.56209	11959.4375
2648.20948	11937.9375
2650.85521	11919.0375
2653.4993	11937.1375
2656.14175	11919.3375
2658.78255	11932.7375
2661.42171	11927.2375
2664.05923	11916.0375
2666.6951	11961.3375
2669.32934	11954.9375
2671.96194	11969.0375
2674.59291	11963.2375
2677.22224	11970.7375
2679.84993	11970.7375
2682.476	11940.0375
2685.10043	11953.2375
2687.72324	11933.2375
2690.34441	11918.8375
2692.96396	11906.8375
2695.58188	11883.4375
2698.19818	11905.2375
2700.81285	11908.0375
2703.4259	11916.3375
2706.03733	11899.5375
2708.64714	11900.2375
2711.25533	11922.2375
2713.86191	11924.8375
2716.46687	11929.7375
2719.07021	11969.1375
2721.67194	12002.9375
2724.27206	11993.5375
2726.87057	11988.2375
2729.46747	11966.3375
2732.06276	12003.2375
2734.65644	12053.2375
2737.24852	11985.3375
2739.83899	11972.0375
2742.42786	11973.7375
2745.01513	11944.2375
2747.60079	11946.9375
2750.18486	11927.5375
2752.76733	11921.5375
2755.3482	11907.7375
2757.92747	11882.3375
2760.50515	11865.4375
2763.08123	11860.5375
2765.65573	11844.8375
2768.22863	11860.8375
2770.79994	11859.9375
2773.36967	11842.5375
2775.9378	11846.7375
2778.50435	11820.8375
2781.06932	11819.6375
2783.6327	11817.9375
2786.1945	11813.2375
2788.75471	11820.7375
2791.31335	11803.6375
2793.87041	11780.3375
2796.42589	11785.5375
2798.97979	11744.7375
2801.53212	11738.5375
2804.08288	11730.5375
2806.63206	11701.7375
2809.17967	11656.7375
2811.72571	11638.4375
2814.27018	11622.9375
2816.81308	11604.3375
2819.35442	11605.1375
2821.89419	11616.3375
2824.43239	11619.3375
2826.96904	11603.0375
2829.50412	11606.9375
2832.03763	11608.2375
2834.56959	11593.6375
2837.1	11619.0375
2839.62884	11612.4375
2842.15613	11624.0375
2844.68186	11648.7375
2847.20604	11696.0375
2849.72867	11699.7375
2852.24974	11715.5375
2854.76927	11712.1375
2857.28724	11695.1375
2859.80367	11646.0375
2862.31855	11643.3375
2864.83189	11641.1375
2867.34368	11629.7375
2869.85393	11626.1375
2872.36264	11606.4375
2874.8698	11612.9375
2877.37543	11610.9375
2879.87952	11597.1375
2882.38207	11622.6375
2884.88308	11638.6375
2887.38256	11636.1375
2889.88051	11630.0375
2892.37692	11666.2375
2894.8718	11641.3375
2897.36515	11663.9375
2899.85698	11660.2375
2902.34727	11719.5375
2904.83604	11684.1375
2907.32328	11709.2375
2909.809	11710.3375
2912.29319	11676.4375
2914.77587	11695.1375
2917.25702	11685.8375
2919.73665	11688.1375
2922.21476	11683.6375
2924.69136	11687.1375
2927.16644	11673.2375
2929.64	11649.9375
2932.11205	11610.5375
2934.58258	11562.4375
2937.05161	11602.8375
2939.51912	11622.9375
2941.98513	11587.6375
2944.44962	11543.1375
2946.91261	11478.8375
2949.37409	11493.8375
2951.83407	11476.0375
2954.29254	11501.6375
2956.74951	11460.2375
2959.20498	11466.9375
2961.65895	11452.6375
2964.11142	11433.5375
2966.56239	11422.1375
2969.01186	11410.8375
2971.45984	11378.5375
2973.90632	11369.4375
2976.35131	11355.0375
2978.7948	11317.6375
2981.23681	11296.7375
2983.67732	11259.4375
2986.11635	11252.6375
2988.55388	11210.8375
2990.98993	11209.3375
2993.4245	11174.3375
2995.85758	11156.3375
2998.28917	11138.5375
3000.71928	11138.9375
3003.14791	11112.3375
3005.57506	11079.1375
3008.00073	11055.6375
3010.42493	11038.1375
3012.84764	11043.5375
3015.26888	11017.2375
3017.68865	10989.0375
3020.10694	10965.4375
3022.52376	10961.4375
3024.9391	10958.2375
3027.35298	10966.6375
3029.76539	10941.3375
3032.17632	10926.2375
3034.5858	10945.4375
3036.9938	10957.7375
3039.40034	10944.4375
3041.80542	10946.2375
3044.20903	10937.6375
3046.61118	10922.0375
3049.01187	10900.3375
3051.4111	10920.2375
3053.80888	10866.0375
3056.20519	10859.0375
3058.60005	10819.4375
3060.99345	10848.3375
3063.3854	10824.3375
3065.7759	10789.7375
3068.16494	10759.7375
3070.55254	10743.3375
3072.93868	10752.7375
3075.32338	10723.0375
3077.70662	10699.1375
3080.08842	10679.5375
3082.46878	10682.0375
3084.84769	10645.0375
3087.22515	10640.1375
3089.60118	10657.6375
3091.97576	10641.4375
3094.3489	10646.5375
3096.72061	10659.5375
3099.09087	10645.4375
3101.4597	10621.3375
3103.82709	10643.7375
3106.19305	10614.6375
3108.55757	10602.3375
3110.92066	10595.1375
3113.28232	10585.0375
3115.64255	10566.4375
3118.00134	10545.4375
3120.35871	10542.1375
3122.71466	10526.6375
3125.06917	10519.9375
3127.42226	10519.8375
3129.77393	10548.5375
3132.12417	10515.0375
3134.47299	10507.1375
3136.82039	10486.7375
3139.16636	10504.7375
3141.51092	10507.3375
3143.85406	10475.7375
3146.19579	10478.9375
3148.53609	10488.9375
3150.87499	10492.2375
3153.21246	10506.8375
3155.54853	10505.4375
3157.88318	10511.9375
3160.21642	10526.0375
3162.54826	10516.9375
3164.87868	10544.7375
3167.2077	10540.5375
3169.5353	10574.9375
3171.86151	10557.4375
3174.18631	10553.3375
3176.5097	10524.8375
3178.83169	10512.7375
3181.15228	10516.0375
3183.47147	10503.4375
3185.78926	10502.1375
3188.10565	10488.6375
3190.42065	10500.4375
3192.73424	10514.3375
3195.04645	10521.9375
3197.35725	10489.3375
3199.66667	10513.5375
3201.97469	10474.9375
3204.28132	10493.1375
3206.58656	10511.9375
3208.8904	10508.5375
3211.19287	10525.6375
3213.49394	10551.0375
3215.79363	10535.3375
3218.09193	10532.1375
3220.38884	10548.0375
3222.68438	10553.9375
3224.97853	10556.7375
3227.2713	10568.4375
3229.56269	10537.3375
3231.8527	10534.0375
3234.14133	10503.3375
3236.42858	10468.4375
3238.71446	10483.3375
3240.99896	10463.0375
3243.28209	10439.0375
3245.56384	10436.1375
3247.84423	10446.5375
3250.12324	10437.1375
3252.40088	10442.8375
3254.67715	10457.4375
3256.95205	10426.6375
3259.22558	10410.9375
3261.49775	10440.5375
3263.76855	10425.7375
3266.03799	10393.1375
3268.30606	10400.0375
3270.57277	10372.6375
3272.83812	10338.1375
3275.10211	10335.5375
3277.36474	10309.4375
3279.62601	10320.3375
3281.88593	10292.1375
3284.14448	10312.6375
3286.40168	10301.1375
3288.65753	10307.9375
3290.91202	10289.8375
3293.16516	10284.5375
3295.41695	10273.0375
3297.66738	10251.4375
3299.91647	10176.1375
3302.16421	10108.2375
3304.4106	10072.7375
3306.65564	10018.2375
3308.89933	9964.5375
3311.14169	9894.5375
3313.38269	9824.1375
3315.62236	9754.7375
3317.86068	9669.7375
3320.09766	9612.6375
3322.3333	9530.3375
3324.5676	9487.4375
3326.80056	9334.1375
3329.03219	9299.1375
3331.26248	4.5375
3333.49143	0.4375
3335.71905	-1.2625
