Data from AgNP_FTO_APTES_UA_10uM_CRN_20uM_R6G_10uM_NaF_0.1M_Addition_RamanShift__26__16-33-10-767.txt Node

Date: Thu Feb 10 16:33:10 GMT 2022
User: TCL
Spectrometer: QEP01345
Trigger mode: 4
Integration Time (sec): 7.000000E0
Scans to average: 10
Electric dark correction enabled: true
Nonlinearity correction enabled: false
Boxcar width: 0
XAxis mode: Raman Shifts
Number of Pixels in Spectrum: 1044
>>>>>Begin Spectral Data<<<<<
46.04893	-0.1125
50.45542	0.1875
54.85868	-2.8125
59.25871	-1.7125
63.6555	69.0875
68.04907	67.9875
72.43941	76.3875
76.82654	73.3875
81.21044	79.3875
85.59113	81.1875
89.96862	83.7875
94.34289	88.5875
98.71396	93.4875
103.08183	93.3875
107.4465	101.4875
111.80798	96.4875
116.16626	102.3875
120.52136	103.9875
124.87327	107.9875
129.222	114.2875
133.56755	120.0875
137.90993	130.2875
142.24913	141.9875
146.58517	157.1875
150.91804	187.7875
155.24774	219.2875
159.57429	271.3875
163.89768	349.1875
168.21792	468.8875
172.53501	630.6875
176.84895	881.0875
181.15975	1232.5875
185.46741	1726.1875
189.77193	2389.1875
194.07331	3198.2875
198.37157	4114.8875
202.6667	5072.6875
206.9587	6036.0875
211.24758	6973.5875
215.53334	7932.6875
219.81599	8955.3875
224.09553	10092.7875
228.37195	11370.4875
232.64527	12753.9875
236.91549	14232.6875
241.18261	15650.4875
245.44663	16878.2875
249.70755	18047.0875
253.96539	19014.3875
258.22014	19932.6875
262.4718	20653.9875
266.72039	21264.0875
270.96589	21646.1875
275.20832	21842.4875
279.44768	21835.8875
283.68397	21742.8875
287.91719	21678.1875
292.14735	21667.9875
296.37445	21827.7875
300.59849	22071.2875
304.81948	22279.1875
309.03742	22240.6875
313.25231	21916.4875
317.46415	21188.9875
321.67296	20177.4875
325.87872	19416.9875
330.08145	19056.5875
334.28114	19082.8875
338.47781	19221.7875
342.67145	19578.3875
346.86207	20104.1875
351.04966	20744.3875
355.23424	21491.0875
359.4158	22044.6875
363.59435	22353.1875
367.76989	22503.2875
371.94243	22562.4875
376.11196	22605.9875
380.27849	22615.3875
384.44203	22585.5875
388.60257	22580.2875
392.76012	22613.3875
396.91468	22870.0875
401.06626	23327.9875
405.21485	23635.7875
409.36047	23464.9875
413.50311	22848.3875
417.64277	22243.3875
421.77947	21974.4875
425.9132	21962.3875
430.04396	22077.4875
434.17176	22243.8875
438.2966	22496.8875
442.41849	22947.3875
446.53742	23488.0875
450.6534	24152.9875
454.76644	24630.2875
458.87653	24853.1875
462.98368	24797.7875
467.08789	24575.9875
471.18916	24210.3875
475.2875	23897.0875
479.38291	23644.0875
483.4754	23391.1875
487.56496	23052.4875
491.6516	22640.8875
495.73531	22346.8875
499.81612	22257.1875
503.89401	22311.6875
507.96899	22407.9875
512.04106	22442.5875
516.11023	22471.7875
520.1765	22462.3875
524.23987	22363.6875
528.30034	22092.7875
532.35792	21837.1875
536.41261	21540.5875
540.46441	21292.2875
544.51333	21283.9875
548.55936	21636.1875
552.60252	22169.1875
556.64279	22722.4875
560.6802	22966.2875
564.71473	23165.2875
568.7464	23604.4875
572.7752	24041.3875
576.80114	23982.1875
580.82422	23754.2875
584.84444	23678.5875
588.86181	23650.9875
592.87633	23788.8875
596.888	24032.2875
600.89682	24479.8875
604.9028	26039.2875
608.90594	29918.1875
612.90624	34449.8875
616.90371	32564.7875
620.89834	25706.8875
624.89015	22740.5875
628.87913	22312.1875
632.86528	22334.2875
636.84862	22315.7875
640.82913	21989.2875
644.80683	21264.9875
648.78172	20784.1875
652.75379	20770.7875
656.72306	21229.4875
660.68952	21827.3875
664.65319	21727.5875
668.61405	21204.7875
672.57211	20965.6875
676.52738	20958.3875
680.47986	20971.1875
684.42955	20870.8875
688.37646	20843.9875
692.32058	20954.2875
696.26192	21154.9875
700.20048	21407.4875
704.13626	21521.8875
708.06928	21555.7875
711.99952	21348.4875
715.927	21220.5875
719.85171	21246.4875
723.77365	21186.8875
727.69284	21043.8875
731.60928	20833.9875
735.52295	20768.4875
739.43388	20758.3875
743.34206	20865.0875
747.24749	21007.8875
751.15017	21231.5875
755.05012	21573.9875
758.94733	22416.5875
762.8418	23948.4875
766.73354	26375.5875
770.62254	28753.3875
774.50882	29603.7875
778.39237	28078.8875
782.27321	25294.1875
786.15132	22983.0875
790.02671	21692.3875
793.89938	21079.7875
797.76935	20809.2875
801.6366	20728.5875
805.50115	20608.7875
809.36299	20520.9875
813.22213	20426.7875
817.07857	20417.1875
820.93231	20453.1875
824.78336	20406.0875
828.63172	20389.7875
832.47738	20438.9875
836.32036	20491.4875
840.16066	20477.6875
843.99827	20487.7875
847.8332	20403.8875
851.66546	20313.4875
855.49504	20337.8875
859.32195	20253.9875
863.1462	20167.0875
866.96777	20072.8875
870.78668	20034.3875
874.60293	20035.5875
878.41652	20095.8875
882.22745	20131.9875
886.03573	20152.2875
889.84136	20123.1875
893.64433	20029.4875
897.44466	19997.9875
901.24235	19969.6875
905.0374	19928.8875
908.8298	19956.8875
912.61957	19970.8875
916.40671	20172.0875
920.19121	20402.0875
923.97308	20574.9875
927.75233	20641.8875
931.52895	20639.7875
935.30295	20362.0875
939.07433	19968.9875
942.84309	19611.8875
946.60924	19438.9875
950.37278	19383.5875
954.13371	19245.3875
957.89203	19165.2875
961.64774	19122.4875
965.40086	19097.0875
969.15137	19015.7875
972.89929	18996.9875
976.64461	18902.1875
980.38733	18887.8875
984.12747	18980.9875
987.86502	19137.6875
991.59999	19349.8875
995.33237	19688.1875
999.06217	20257.5875
1002.78939	20946.8875
1006.51404	21369.8875
1010.23611	21620.2875
1013.95561	21838.4875
1017.67255	21823.4875
1021.38692	21620.9875
1025.09872	21434.2875
1028.80796	21584.8875
1032.51465	22130.3875
1036.21877	22610.7875
1039.92035	22676.8875
1043.61937	22375.2875
1047.31584	21880.9875
1051.00976	21380.4875
1054.70114	21177.7875
1058.38998	21169.5875
1062.07627	21266.7875
1065.76003	21393.8875
1069.44126	21470.2875
1073.11995	21566.3875
1076.79611	21732.0875
1080.46974	21867.8875
1084.14085	22123.6875
1087.80943	22484.5875
1091.47549	22648.0875
1095.13903	22453.1875
1098.80005	22076.4875
1102.45857	21623.2875
1106.11456	21370.5875
1109.76805	21363.0875
1113.41903	21581.6875
1117.06751	21904.4875
1120.71348	22344.3875
1124.35696	22756.6875
1127.99793	23110.8875
1131.63641	23162.8875
1135.2724	22734.8875
1138.90589	22301.9875
1142.5369	21989.6875
1146.16542	21881.5875
1149.79145	21896.0875
1153.415	22063.4875
1157.03607	22333.3875
1160.65467	22819.9875
1164.27079	23626.8875
1167.88443	24746.3875
1171.49561	26295.5875
1175.10432	28627.5875
1178.71056	31567.3875
1182.31434	34072.7875
1185.91565	35276.8875
1189.51451	35183.1875
1193.11091	33932.7875
1196.70485	32102.8875
1200.29634	30486.3875
1203.88538	29171.4875
1207.47197	27968.1875
1211.05612	26942.3875
1214.63782	26310.9875
1218.21708	26066.2875
1221.79391	26050.2875
1225.36829	26060.4875
1228.94024	25947.0875
1232.50976	25735.2875
1236.07685	25649.2875
1239.6415	25603.1875
1243.20374	25620.7875
1246.76355	25816.2875
1250.32093	26169.5875
1253.8759	26782.5875
1257.42845	27618.3875
1260.97859	28316.2875
1264.52631	28934.1875
1268.07163	29586.6875
1271.61453	30296.9875
1275.15503	31039.1875
1278.69312	31756.3875
1282.22882	32239.9875
1285.76211	32787.0875
1289.29301	33405.5875
1292.82151	34270.9875
1296.34761	35340.9875
1299.87133	36973.4875
1303.39266	39199.6875
1306.9116	42192.3875
1310.42815	45453.6875
1313.94233	47645.3875
1317.45412	47780.4875
1320.96354	46619.6875
1324.47058	45007.3875
1327.97525	43555.0875
1331.47754	42573.4875
1334.97747	42349.0875
1338.47502	42713.3875
1341.97022	43269.0875
1345.46305	43418.2875
1348.95352	43265.3875
1352.44163	43330.2875
1355.92738	44308.7875
1359.41078	47176.3875
1362.89183	50071.1875
1366.37053	48712.5875
1369.84688	43529.3875
1373.32088	38336.1875
1376.79254	34944.7875
1380.26186	33443.8875
1383.72883	32922.3875
1387.19347	32574.8875
1390.65578	32240.9875
1394.11575	32077.3875
1397.57339	32327.6875
1401.0287	32892.1875
1404.48168	33562.2875
1407.93234	34078.7875
1411.38068	34242.8875
1414.82669	33765.5875
1418.27039	32583.5875
1421.71177	31269.1875
1425.15083	30072.8875
1428.58758	29384.5875
1432.02203	29271.3875
1435.45416	29505.6875
1438.88399	29889.6875
1442.31151	30271.8875
1445.73673	30663.0875
1449.15965	31097.8875
1452.58027	31377.1875
1455.9986	31565.6875
1459.41463	31794.3875
1462.82837	32240.4875
1466.23982	32838.3875
1469.64898	33394.4875
1473.05586	33727.3875
1476.46045	33832.9875
1479.86276	33915.5875
1483.26279	34016.7875
1486.66054	34187.3875
1490.05602	34558.8875
1493.44922	35077.0875
1496.84016	35798.7875
1500.22882	36942.2875
1503.61521	38657.2875
1506.99934	40869.7875
1510.38121	43272.8875
1513.76081	44581.4875
1517.13816	43741.7875
1520.51324	41138.3875
1523.88607	38289.6875
1527.25665	36211.5875
1530.62498	34944.9875
1533.99105	34230.9875
1537.35488	33796.9875
1540.71647	33416.2875
1544.07581	33036.0875
1547.4329	32635.3875
1550.78776	32236.2875
1554.14038	32087.5875
1557.49077	32115.6875
1560.83892	32320.2875
1564.18484	32532.4875
1567.52853	32660.4875
1570.86999	32719.5875
1574.20922	32824.2875
1577.54624	32881.4875
1580.88103	32425.5875
1584.2136	31976.1875
1587.54395	32234.9875
1590.87208	33418.1875
1594.19801	35315.6875
1597.52172	37516.9875
1600.84321	38209.4875
1604.16251	36846.7875
1607.47959	34358.3875
1610.79447	31645.7875
1614.10715	29183.4875
1617.41763	27172.8875
1620.7259	25781.3875
1624.03199	25040.1875
1627.33587	24984.3875
1630.63757	25602.2875
1633.93707	26908.7875
1637.23439	28895.7875
1640.52951	31362.4875
1643.82246	34201.6875
1647.11321	36713.1875
1650.40179	37854.2875
1653.68819	36320.4875
1656.97241	32274.3875
1660.25446	27957.7875
1663.53433	24713.1875
1666.81203	22616.7875
1670.08756	21287.2875
1673.36092	20451.9875
1676.63211	19908.7875
1679.90115	19552.7875
1683.16801	19255.3875
1686.43272	19054.0875
1689.69527	18886.6875
1692.95567	18765.0875
1696.2139	18719.8875
1699.46999	18685.9875
1702.72392	18613.3875
1705.97571	18543.0875
1709.22535	18519.6875
1712.47284	18444.4875
1715.71819	18423.0875
1718.96139	18408.0875
1722.20246	18343.1875
1725.44139	18307.3875
1728.67818	18183.0875
1731.91284	18075.3875
1735.14537	17988.2875
1738.37576	17919.8875
1741.60403	17831.0875
1744.83017	17767.2875
1748.05418	17748.5875
1751.27607	17720.9875
1754.49584	17708.5875
1757.71349	17692.2875
1760.92903	17698.7875
1764.14244	17649.0875
1767.35375	17621.8875
1770.56294	17605.9875
1773.77002	17614.9875
1776.97499	17557.6875
1780.17785	17531.5875
1783.37861	17471.2875
1786.57727	17458.6875
1789.77382	17421.7875
1792.96828	17413.8875
1796.16064	17395.7875
1799.3509	17372.4875
1802.53907	17355.0875
1805.72514	17287.1875
1808.90913	17249.0875
1812.09102	17223.6875
1815.27083	17126.4875
1818.44856	17177.0875
1821.6242	17120.4875
1824.79776	17116.6875
1827.96924	17081.9875
1831.13864	17079.7875
1834.30597	17057.4875
1837.47122	17081.2875
1840.6344	17066.0875
1843.7955	17088.9875
1846.95454	17062.3875
1850.11151	17040.8875
1853.26642	17055.1875
1856.41926	17065.9875
1859.57004	17090.8875
1862.71876	17050.2875
1865.86542	17064.8875
1869.01003	17046.5875
1872.15258	17029.3875
1875.29308	17056.8875
1878.43152	17065.0875
1881.56792	17102.3875
1884.70227	17068.7875
1887.83457	17079.6875
1890.96482	17067.8875
1894.09304	17047.7875
1897.21921	17043.9875
1900.34335	17032.2875
1903.46544	17034.7875
1906.58551	17071.8875
1909.70353	17079.2875
1912.81953	17048.5875
1915.93349	17044.1875
1919.04543	17026.5875
1922.15534	16969.4875
1925.26322	16945.1875
1928.36908	16904.2875
1931.47292	16852.1875
1934.57473	16806.4875
1937.67453	16759.8875
1940.77232	16702.5875
1943.86808	16607.7875
1946.96184	16531.3875
1950.05358	16473.6875
1953.14331	16394.8875
1956.23103	16347.2875
1959.31675	16308.1875
1962.40046	16252.4875
1965.48217	16252.4875
1968.56188	16176.8875
1971.63959	16113.0875
1974.7153	16077.2875
1977.78901	16016.4875
1980.86073	15966.6875
1983.93046	15921.5875
1986.99819	15861.5875
1990.06394	15808.1875
1993.1277	15786.4875
1996.18947	15742.6875
1999.24925	15660.4875
2002.30706	15640.7875
2005.36288	15594.4875
2008.41672	15589.1875
2011.46859	15522.7875
2014.51848	15489.2875
2017.56639	15446.1875
2020.61233	15404.3875
2023.6563	15372.2875
2026.6983	15332.3875
2029.73833	15289.9875
2032.7764	15265.8875
2035.8125	15260.1875
2038.84664	15203.8875
2041.87881	15154.7875
2044.90903	15149.3875
2047.93729	15109.1875
2050.96359	15119.0875
2053.98794	15074.8875
2057.01034	15085.8875
2060.03078	15042.9875
2063.04927	15057.6875
2066.06582	15055.0875
2069.08042	15065.0875
2072.09307	15009.8875
2075.10378	15001.7875
2078.11255	15005.6875
2081.11938	14996.1875
2084.12426	14942.7875
2087.12722	14945.2875
2090.12824	14962.0875
2093.12732	14923.4875
2096.12447	14926.0875
2099.11969	14938.5875
2102.11299	14903.5875
2105.10435	14927.0875
2108.09379	14903.8875
2111.08131	14954.7875
2114.0669	14937.7875
2117.05057	14907.3875
2120.03233	14959.7875
2123.01216	14981.4875
2125.99008	14992.1875
2128.96609	15023.8875
2131.94018	15020.1875
2134.91236	14997.7875
2137.88263	15055.7875
2140.851	15045.7875
2143.81746	15050.1875
2146.78201	15046.9875
2149.74466	15042.2875
2152.7054	15042.3875
2155.66425	15053.9875
2158.6212	15059.3875
2161.57625	15049.8875
2164.52941	15052.8875
2167.48067	15015.9875
2170.43004	15016.7875
2173.37752	14987.8875
2176.32311	15012.1875
2179.26681	15021.3875
2182.20863	15024.5875
2185.14856	15018.1875
2188.08661	15014.1875
2191.02278	15025.0875
2193.95707	15015.9875
2196.88948	14991.6875
2199.82001	14984.9875
2202.74867	14957.6875
2205.67545	14983.0875
2208.60037	14979.8875
2211.52341	14971.5875
2214.44458	14946.1875
2217.36388	14926.9875
2220.28132	14913.6875
2223.1969	14889.1875
2226.11061	14887.3875
2229.02246	14813.1875
2231.93245	14792.3875
2234.84058	14747.0875
2237.74686	14714.4875
2240.65128	14743.5875
2243.55385	14696.8875
2246.45456	14679.3875
2249.35343	14652.0875
2252.25044	14643.6875
2255.14561	14608.8875
2258.03893	14596.1875
2260.93041	14584.9875
2263.82004	14565.4875
2266.70783	14521.3875
2269.59378	14460.5875
2272.4779	14411.3875
2275.36017	14367.3875
2278.24061	14349.6875
2281.11922	14342.0875
2283.996	14347.9875
2286.87094	14329.5875
2289.74405	14291.5875
2292.61534	14281.3875
2295.4848	14278.7875
2298.35243	14302.8875
2301.21824	14269.1875
2304.08223	14312.7875
2306.94439	14307.6875
2309.80474	14317.5875
2312.66327	14347.8875
2315.51999	14301.2875
2318.37489	14309.9875
2321.22797	14297.5875
2324.07925	14268.1875
2326.92871	14230.1875
2329.77637	14224.1875
2332.62222	14226.4875
2335.46626	14208.2875
2338.3085	14195.9875
2341.14893	14232.8875
2343.98756	14253.4875
2346.8244	14246.4875
2349.65943	14256.5875
2352.49267	14254.9875
2355.32411	14273.7875
2358.15376	14273.8875
2360.98161	14261.1875
2363.80768	14241.0875
2366.63195	14251.7875
2369.45444	14210.9875
2372.27514	14161.9875
2375.09405	14168.4875
2377.91118	14125.4875
2380.72652	14084.2875
2383.54009	14068.6875
2386.35187	14014.1875
2389.16188	13948.0875
2391.97011	13937.0875
2394.77657	13902.7875
2397.58125	13899.8875
2400.38416	13865.3875
2403.18529	13846.1875
2405.98466	13781.9875
2408.78226	13779.2875
2411.57809	13746.9875
2414.37216	13736.7875
2417.16446	13699.8875
2419.955	13700.2875
2422.74378	13679.8875
2425.5308	13650.8875
2428.31606	13667.3875
2431.09956	13671.6875
2433.88131	13656.3875
2436.6613	13655.8875
2439.43954	13637.3875
2442.21603	13663.2875
2444.99077	13659.3875
2447.76377	13652.4875
2450.53501	13636.3875
2453.30451	13622.0875
2456.07226	13605.0875
2458.83827	13601.8875
2461.60254	13626.1875
2464.36507	13610.6875
2467.12586	13542.9875
2469.88492	13547.5875
2472.64224	13548.7875
2475.39782	13602.2875
2478.15167	13609.8875
2480.90379	13621.6875
2483.65417	13640.2875
2486.40283	13684.1875
2489.14976	13671.5875
2491.89497	13676.3875
2494.63845	13697.0875
2497.3802	13688.5875
2500.12024	13663.9875
2502.85855	13660.2875
2505.59514	13672.2875
2508.33002	13622.8875
2511.06318	13598.7875
2513.79462	13582.1875
2516.52435	13568.4875
2519.25237	13549.1875
2521.97867	13510.2875
2524.70327	13525.1875
2527.42616	13499.4875
2530.14734	13503.2875
2532.86681	13486.6875
2535.58458	13505.4875
2538.30065	13503.0875
2541.01501	13483.0875
2543.72768	13483.7875
2546.43864	13450.7875
2549.14791	13446.2875
2551.85548	13455.4875
2554.56136	13438.5875
2557.26554	13409.6875
2559.96803	13408.5875
2562.66883	13367.4875
2565.36794	13346.6875
2568.06536	13339.9875
2570.7611	13343.1875
2573.45514	13330.2875
2576.14751	13329.1875
2578.83819	13287.9875
2581.52719	13277.6875
2584.21451	13303.0875
2586.90015	13289.5875
2589.58411	13315.0875
2592.2664	13290.5875
2594.94701	13291.3875
2597.62594	13290.2875
2600.30321	13254.8875
2602.9788	13257.7875
2605.65273	13238.0875
2608.32498	13248.1875
2610.99557	13267.1875
2613.66449	13274.1875
2616.33175	13270.9875
2618.99734	13290.0875
2621.66128	13287.8875
2624.32355	13255.6875
2626.98416	13246.8875
2629.64311	13254.9875
2632.30041	13273.0875
2634.95605	13243.6875
2637.61004	13213.9875
2640.26238	13211.3875
2642.91306	13184.6875
2645.56209	13136.8875
2648.20948	13157.2875
2650.85521	13147.3875
2653.4993	13140.3875
2656.14175	13125.0875
2658.78255	13146.1875
2661.42171	13144.8875
2664.05923	13161.0875
2666.6951	13191.5875
2669.32934	13219.8875
2671.96194	13255.9875
2674.59291	13240.7875
2677.22224	13218.2875
2679.84993	13249.7875
2682.476	13234.5875
2685.10043	13209.9875
2687.72324	13182.3875
2690.34441	13213.7875
2692.96396	13186.7875
2695.58188	13188.1875
2698.19818	13169.8875
2700.81285	13167.4875
2703.4259	13186.8875
2706.03733	13196.9875
2708.64714	13159.1875
2711.25533	13193.6875
2713.86191	13178.4875
2716.46687	13205.1875
2719.07021	13190.4875
2721.67194	13240.6875
2724.27206	13211.8875
2726.87057	13196.8875
2729.46747	13226.0875
2732.06276	13250.5875
2734.65644	13211.6875
2737.24852	13225.4875
2739.83899	13185.8875
2742.42786	13232.7875
2745.01513	13185.1875
2747.60079	13173.6875
2750.18486	13161.3875
2752.76733	13144.3875
2755.3482	13151.5875
2757.92747	13174.3875
2760.50515	13124.4875
2763.08123	13159.2875
2765.65573	13109.5875
2768.22863	13098.0875
2770.79994	13097.6875
2773.36967	13120.6875
2775.9378	13144.1875
2778.50435	13125.5875
2781.06932	13119.6875
2783.6327	13129.0875
2786.1945	13114.2875
2788.75471	13114.5875
2791.31335	13074.3875
2793.87041	13067.6875
2796.42589	13078.6875
2798.97979	13033.1875
2801.53212	13003.8875
2804.08288	13002.2875
2806.63206	12988.7875
2809.17967	12962.2875
2811.72571	12943.2875
2814.27018	12944.6875
2816.81308	12899.2875
2819.35442	12905.3875
2821.89419	12870.3875
2824.43239	12872.6875
2826.96904	12861.0875
2829.50412	12848.1875
2832.03763	12845.0875
2834.56959	12858.7875
2837.1	12839.6875
2839.62884	12866.5875
2842.15613	12819.8875
2844.68186	12868.3875
2847.20604	12838.0875
2849.72867	12850.9875
2852.24974	12863.6875
2854.76927	12850.1875
2857.28724	12821.5875
2859.80367	12813.8875
2862.31855	12791.1875
2864.83189	12765.0875
2867.34368	12753.3875
2869.85393	12785.9875
2872.36264	12752.2875
2874.8698	12743.3875
2877.37543	12745.8875
2879.87952	12728.1875
2882.38207	12762.8875
2884.88308	12754.2875
2887.38256	12749.8875
2889.88051	12756.4875
2892.37692	12760.0875
2894.8718	12752.8875
2897.36515	12777.7875
2899.85698	12768.0875
2902.34727	12795.2875
2904.83604	12830.1875
2907.32328	12800.0875
2909.809	12825.9875
2912.29319	12803.9875
2914.77587	12802.2875
2917.25702	12821.9875
2919.73665	12791.8875
2922.21476	12805.0875
2924.69136	12794.5875
2927.16644	12792.0875
2929.64	12793.9875
2932.11205	12741.9875
2934.58258	12702.5875
2937.05161	12707.1875
2939.51912	12710.0875
2941.98513	12652.3875
2944.44962	12630.2875
2946.91261	12602.8875
2949.37409	12637.5875
2951.83407	12640.0875
2954.29254	12628.1875
2956.74951	12585.9875
2959.20498	12596.3875
2961.65895	12590.6875
2964.11142	12599.0875
2966.56239	12546.4875
2969.01186	12579.1875
2971.45984	12526.7875
2973.90632	12511.3875
2976.35131	12458.0875
2978.7948	12454.3875
2981.23681	12446.2875
2983.67732	12418.9875
2986.11635	12374.2875
2988.55388	12338.9875
2990.98993	12339.2875
2993.4245	12315.6875
2995.85758	12274.9875
2998.28917	12244.4875
3000.71928	12204.5875
3003.14791	12192.4875
3005.57506	12195.2875
3008.00073	12137.2875
3010.42493	12121.1875
3012.84764	12095.2875
3015.26888	12062.7875
3017.68865	12053.1875
3020.10694	12036.2875
3022.52376	12010.2875
3024.9391	12007.8875
3027.35298	11999.0875
3029.76539	12030.0875
3032.17632	11994.2875
3034.5858	11985.4875
3036.9938	11966.7875
3039.40034	11974.5875
3041.80542	11978.4875
3044.20903	11939.5875
3046.61118	11950.0875
3049.01187	11924.1875
3051.4111	11920.5875
3053.80888	11839.3875
3056.20519	11823.9875
3058.60005	11787.2875
3060.99345	11793.5875
3063.3854	11760.5875
3065.7759	11694.3875
3068.16494	11697.2875
3070.55254	11642.5875
3072.93868	11619.9875
3075.32338	11545.0875
3077.70662	11544.6875
3080.08842	11503.2875
3082.46878	11522.5875
3084.84769	11503.5875
3087.22515	11500.6875
3089.60118	11500.1875
3091.97576	11476.1875
3094.3489	11479.1875
3096.72061	11464.7875
3099.09087	11482.4875
3101.4597	11478.9875
3103.82709	11463.7875
3106.19305	11437.5875
3108.55757	11443.0875
3110.92066	11399.3875
3113.28232	11372.1875
3115.64255	11387.1875
3118.00134	11329.2875
3120.35871	11325.7875
3122.71466	11315.4875
3125.06917	11274.9875
3127.42226	11256.3875
3129.77393	11269.7875
3132.12417	11233.0875
3134.47299	11223.4875
3136.82039	11237.1875
3139.16636	11240.5875
3141.51092	11228.5875
3143.85406	11214.2875
3146.19579	11219.8875
3148.53609	11204.4875
3150.87499	11225.9875
3153.21246	11190.1875
3155.54853	11229.7875
3157.88318	11224.5875
3160.21642	11267.7875
3162.54826	11245.5875
3164.87868	11237.6875
3167.2077	11250.9875
3169.5353	11245.6875
3171.86151	11239.9875
3174.18631	11249.6875
3176.5097	11211.6875
3178.83169	11214.0875
3181.15228	11200.8875
3183.47147	11177.4875
3185.78926	11160.9875
3188.10565	11160.2875
3190.42065	11171.4875
3192.73424	11166.0875
3195.04645	11141.5875
3197.35725	11149.4875
3199.66667	11132.9875
3201.97469	11165.1875
3204.28132	11135.4875
3206.58656	11182.3875
3208.8904	11156.4875
3211.19287	11172.2875
3213.49394	11147.4875
3215.79363	11156.1875
3218.09193	11193.9875
3220.38884	11187.4875
3222.68438	11167.4875
3224.97853	11179.1875
3227.2713	11147.8875
3229.56269	11145.6875
3231.8527	11143.5875
3234.14133	11095.5875
3236.42858	11096.6875
3238.71446	11079.9875
3240.99896	11057.3875
3243.28209	11026.0875
3245.56384	11031.8875
3247.84423	11058.8875
3250.12324	11006.0875
3252.40088	10985.5875
3254.67715	10975.0875
3256.95205	10994.1875
3259.22558	10998.0875
3261.49775	10989.4875
3263.76855	10969.5875
3266.03799	10949.9875
3268.30606	10925.7875
3270.57277	10933.1875
3272.83812	10914.7875
3275.10211	10879.3875
3277.36474	10879.8875
3279.62601	10848.2875
3281.88593	10827.0875
3284.14448	10809.6875
3286.40168	10839.8875
3288.65753	10834.5875
3290.91202	10831.8875
3293.16516	10763.7875
3295.41695	10739.5875
3297.66738	10722.1875
3299.91647	10679.6875
3302.16421	10600.5875
3304.4106	10527.3875
3306.65564	10513.9875
3308.89933	10382.0875
3311.14169	10317.4875
3313.38269	10219.0875
3315.62236	10176.8875
3317.86068	10105.5875
3320.09766	10017.7875
3322.3333	9922.8875
3324.5676	9902.1875
3326.80056	9745.5875
3329.03219	9724.1875
3331.26248	4.0875
3333.49143	0.3875
3335.71905	-0.0125
