Data from AgNP_FTO_APTES_UA_10uM_CRN_5uM_R6G_10uM_NaF_0.1M_Addition_RamanShift__29__15-16-10-672.txt Node

Date: Thu Feb 10 15:16:10 GMT 2022
User: TCL
Spectrometer: QEP01345
Trigger mode: 4
Integration Time (sec): 7.000000E0
Scans to average: 10
Electric dark correction enabled: true
Nonlinearity correction enabled: false
Boxcar width: 0
XAxis mode: Raman Shifts
Number of Pixels in Spectrum: 1044
>>>>>Begin Spectral Data<<<<<
46.04893	0.3
50.45542	-0.6
54.85868	-1.8
59.25871	-0.4
63.6555	55.4
68.04907	57
72.43941	61.3
76.82654	59.8
81.21044	63.4
85.59113	65
89.96862	67.9
94.34289	73.8
98.71396	74.7
103.08183	76.8
107.4465	79.9
111.80798	78
116.16626	79.8
120.52136	86.3
124.87327	92.9
129.222	90.2
133.56755	98.8
137.90993	99.2
142.24913	105.2
146.58517	117.2
150.91804	139.9
155.24774	160.4
159.57429	193.5
163.89768	246
168.21792	324
172.53501	442.5
176.84895	601.4
181.15975	838.3
185.46741	1166.1
189.77193	1620
194.07331	2159.5
198.37157	2777.5
202.6667	3397.8
206.9587	4041.9
211.24758	4690.1
215.53334	5361
219.81599	6086.9
224.09553	6922.4
228.37195	7839.7
232.64527	8865.8
236.91549	9878.9
241.18261	10840.7
245.44663	11636.2
249.70755	12268.5
253.96539	12904.3
258.22014	13432.7
262.4718	13902.9
266.72039	14269.6
270.96589	14557.1
275.20832	14637.2
279.44768	14599.5
283.68397	14527.4
287.91719	14487.3
292.14735	14537.3
296.37445	14738.5
300.59849	15092.2
304.81948	15481.6
309.03742	15758.6
313.25231	15619.8
317.46415	14898.3
321.67296	13891.5
325.87872	13118.1
330.08145	12732.8
334.28114	12721.2
338.47781	12907
342.67145	13238.5
346.86207	13730.1
351.04966	14432.8
355.23424	15184
359.4158	15776.7
363.59435	16017.5
367.76989	16103.5
371.94243	16066.6
376.11196	15989.9
380.27849	15916.9
384.44203	15774.3
388.60257	15657.5
392.76012	15652.4
396.91468	15839.8
401.06626	16273.5
405.21485	16602.4
409.36047	16359.1
413.50311	15698.3
417.64277	15087.2
421.77947	14756.4
425.9132	14668.3
430.04396	14716.2
434.17176	14788.9
438.2966	14987
442.41849	15220.2
446.53742	15654.9
450.6534	16074.6
454.76644	16381.2
458.87653	16450.2
462.98368	16363.4
467.08789	16107.6
471.18916	15822.8
475.2875	15457.3
479.38291	15184.7
483.4754	14976.5
487.56496	14801.2
491.6516	14629.2
495.73531	14553.6
499.81612	14586
503.89401	14714.2
507.96899	14852.1
512.04106	14960.6
516.11023	15073.4
520.1765	15156.6
524.23987	15048.9
528.30034	14809
532.35792	14532.2
536.41261	14249.5
540.46441	13990.7
544.51333	13943.1
548.55936	14138.5
552.60252	14511.7
556.64279	14905.1
560.6802	15083.6
564.71473	15227.8
568.7464	15729.9
572.7752	16162.1
576.80114	15947.7
580.82422	15712.9
584.84444	15587.2
588.86181	15491.4
592.87633	15457.4
596.888	15584
600.89682	16051.8
604.9028	17638.9
608.90594	21722.9
612.90624	26844.4
616.90371	25386.5
620.89834	18484.2
624.89015	15440.5
628.87913	14944.9
632.86528	15013.9
636.84862	15070
640.82913	14786.7
644.80683	14173.9
648.78172	13799.7
652.75379	13871.8
656.72306	14383.7
660.68952	15023.5
664.65319	14933.9
668.61405	14303.6
672.57211	14013.2
676.52738	14013.2
680.47986	13952.1
684.42955	13901.7
688.37646	13855.4
692.32058	13950.8
696.26192	14115.3
700.20048	14322.8
704.13626	14491.5
708.06928	14475.9
711.99952	14372.4
715.927	14273.1
719.85171	14267.6
723.77365	14232.4
727.69284	14038
731.60928	13886.2
735.52295	13862
739.43388	13902.9
743.34206	13999.2
747.24749	14106.2
751.15017	14278.8
755.05012	14622.1
758.94733	15325.9
762.8418	16737
766.73354	19156.1
770.62254	21600.5
774.50882	22480.1
778.39237	21271
782.27321	18628
786.15132	16316.5
790.02671	14968.3
793.89938	14386.2
797.76935	14136.6
801.6366	14002.6
805.50115	13933.6
809.36299	13856.3
813.22213	13777.5
817.07857	13759
820.93231	13792.2
824.78336	13774.6
828.63172	13850
832.47738	13907.7
836.32036	13908.7
840.16066	13834.8
843.99827	13832.8
847.8332	13789.8
851.66546	13757.1
855.49504	13733.9
859.32195	13730.9
863.1462	13632.4
866.96777	13581.9
870.78668	13548.6
874.60293	13585.2
878.41652	13599.6
882.22745	13687.6
886.03573	13729.6
889.84136	13656.5
893.64433	13632.2
897.44466	13586.3
901.24235	13580
905.0374	13585.4
908.8298	13545.6
912.61957	13589.7
916.40671	13721.9
920.19121	13868.5
923.97308	14041.9
927.75233	14139.5
931.52895	14180.8
935.30295	13982.4
939.07433	13605
942.84309	13324.6
946.60924	13179.9
950.37278	13104.7
954.13371	13020.1
957.89203	12925.8
961.64774	12909.2
965.40086	12899
969.15137	12821.8
972.89929	12795.7
976.64461	12777.1
980.38733	12786
984.12747	12835.2
987.86502	12920.7
991.59999	13052.2
995.33237	13260.2
999.06217	13651.1
1002.78939	14128
1006.51404	14491.8
1010.23611	14775.3
1013.95561	14981.6
1017.67255	14952
1021.38692	14731.4
1025.09872	14546.2
1028.80796	14625.4
1032.51465	14945.4
1036.21877	15255.1
1039.92035	15329.3
1043.61937	15157
1047.31584	14867
1051.00976	14629.2
1054.70114	14517.6
1058.38998	14498.7
1062.07627	14611.9
1065.76003	14715.1
1069.44126	14826.7
1073.11995	14972.6
1076.79611	15103.8
1080.46974	15241.2
1084.14085	15487.9
1087.80943	15817.2
1091.47549	15953.9
1095.13903	15728.2
1098.80005	15290.9
1102.45857	14863.7
1106.11456	14599.2
1109.76805	14665.2
1113.41903	14850.8
1117.06751	15170.4
1120.71348	15624.4
1124.35696	16129.1
1127.99793	16562.8
1131.63641	16586.3
1135.2724	16066.4
1138.90589	15529.2
1142.5369	15229.1
1146.16542	14937.9
1149.79145	14870.6
1153.415	14890.7
1157.03607	15097.3
1160.65467	15409.2
1164.27079	15971.6
1167.88443	16751.2
1171.49561	17983.7
1175.10432	19939.9
1178.71056	22525.1
1182.31434	24515.7
1185.91565	25123.4
1189.51451	24697.4
1193.11091	23410.2
1196.70485	21730.8
1200.29634	20434.2
1203.88538	19428.9
1207.47197	18425.2
1211.05612	17522.4
1214.63782	17058.6
1218.21708	16967
1221.79391	17019.8
1225.36829	17181.1
1228.94024	17292.3
1232.50976	17318.8
1236.07685	17371
1239.6415	17343.2
1243.20374	17313.9
1246.76355	17405.7
1250.32093	17647.5
1253.8759	18082.7
1257.42845	18634
1260.97859	19250.5
1264.52631	19709.3
1268.07163	20231.2
1271.61453	20682.2
1275.15503	21196.2
1278.69312	21536.6
1282.22882	21878.2
1285.76211	22297
1289.29301	22854.6
1292.82151	23424.2
1296.34761	24089.2
1299.87133	25140.1
1303.39266	26857.1
1306.9116	29457.2
1310.42815	32456.2
1313.94233	34389.2
1317.45412	34147.7
1320.96354	32531.8
1324.47058	30573.9
1327.97525	28856.5
1331.47754	27832.5
1334.97747	27572.4
1338.47502	27742.7
1341.97022	28266.7
1345.46305	28736.6
1348.95352	29328.4
1352.44163	30240.5
1355.92738	32030.2
1359.41078	35518.2
1362.89183	38865.2
1366.37053	37791.7
1369.84688	32848.9
1373.32088	27901.2
1376.79254	24804.2
1380.26186	23281.7
1383.72883	22544.6
1387.19347	21975.6
1390.65578	21437.9
1394.11575	21009.7
1397.57339	20842.9
1401.0287	21014.6
1404.48168	21424.3
1407.93234	21860.8
1411.38068	22149.5
1414.82669	22114.9
1418.27039	21578.1
1421.71177	20939.8
1425.15083	20284.2
1428.58758	19878.3
1432.02203	19882.2
1435.45416	19979.1
1438.88399	20088.8
1442.31151	20156.9
1445.73673	20257.1
1449.15965	20402.5
1452.58027	20465
1455.9986	20307.3
1459.41463	20355.2
1462.82837	20512.5
1466.23982	20904.9
1469.64898	21332.9
1473.05586	21659.2
1476.46045	21897.4
1479.86276	22204.1
1483.26279	22659.1
1486.66054	23134.6
1490.05602	23763.3
1493.44922	24572.4
1496.84016	25775.3
1500.22882	27505.2
1503.61521	29717.7
1506.99934	32401.6
1510.38121	34976.4
1513.76081	36342.7
1517.13816	35132.4
1520.51324	31979
1523.88607	28626.1
1527.25665	26212
1530.62498	24707.7
1533.99105	23798.1
1537.35488	23188.7
1540.71647	22817.5
1544.07581	22575.5
1547.4329	22341.6
1550.78776	22158.5
1554.14038	22058.9
1557.49077	22148.3
1560.83892	22439.8
1564.18484	22896.2
1567.52853	23208.1
1570.86999	23407.7
1574.20922	23519.6
1577.54624	23358.8
1580.88103	22578.7
1584.2136	21625.7
1587.54395	21421
1590.87208	22083.4
1594.19801	23502
1597.52172	25143.7
1600.84321	25784.9
1604.16251	24840
1607.47959	23094.5
1610.79447	21231.7
1614.10715	19523.3
1617.41763	18208.2
1620.7259	17408.5
1624.03199	17002.4
1627.33587	17077.7
1630.63757	17520.7
1633.93707	18482
1637.23439	19822.4
1640.52951	21525.2
1643.82246	23562.1
1647.11321	25663.1
1650.40179	27001.2
1653.68819	26136.4
1656.97241	23129
1660.25446	19722
1663.53433	17225.5
1666.81203	15671.4
1670.08756	14809.4
1673.36092	14204.6
1676.63211	13850.7
1679.90115	13592.8
1683.16801	13387.6
1686.43272	13259
1689.69527	13171.2
1692.95567	13094.3
1696.2139	13075.4
1699.46999	13057
1702.72392	13042.4
1705.97571	12992.7
1709.22535	12939.6
1712.47284	12935
1715.71819	12905.9
1718.96139	12934.5
1722.20246	12915.2
1725.44139	12874.9
1728.67818	12774.4
1731.91284	12702.4
1735.14537	12607.9
1738.37576	12548.8
1741.60403	12496
1744.83017	12464.9
1748.05418	12437.5
1751.27607	12414.6
1754.49584	12391.6
1757.71349	12425.8
1760.92903	12424.9
1764.14244	12399.2
1767.35375	12398.5
1770.56294	12352.2
1773.77002	12356.5
1776.97499	12288.8
1780.17785	12248.2
1783.37861	12231.2
1786.57727	12199.3
1789.77382	12205.2
1792.96828	12190.7
1796.16064	12169.7
1799.3509	12171.4
1802.53907	12160.5
1805.72514	12105.3
1808.90913	12062.5
1812.09102	12039.8
1815.27083	12025
1818.44856	11988.5
1821.6242	12007.1
1824.79776	11971.5
1827.96924	11946.5
1831.13864	11949.3
1834.30597	11964.7
1837.47122	11930.2
1840.6344	11937.5
1843.7955	11928.3
1846.95454	11924.9
1850.11151	11961.3
1853.26642	11945.6
1856.41926	11969.4
1859.57004	11995.7
1862.71876	12006.9
1865.86542	11975.2
1869.01003	11988.4
1872.15258	12007.9
1875.29308	11989.5
1878.43152	11989.7
1881.56792	12019.2
1884.70227	12021.3
1887.83457	12027.8
1890.96482	12038.6
1894.09304	12028.2
1897.21921	12037.7
1900.34335	12077.3
1903.46544	12048
1906.58551	12074.7
1909.70353	12084.8
1912.81953	12066.8
1915.93349	12101.4
1919.04543	12080.8
1922.15534	12069.1
1925.26322	12013.9
1928.36908	12000.6
1931.47292	11952.9
1934.57473	11918.9
1937.67453	11841.9
1940.77232	11797.6
1943.86808	11710.4
1946.96184	11658.3
1950.05358	11587.6
1953.14331	11550.4
1956.23103	11500.9
1959.31675	11460.3
1962.40046	11409.4
1965.48217	11391.7
1968.56188	11332.6
1971.63959	11316.7
1974.7153	11307.9
1977.78901	11230.2
1980.86073	11209
1983.93046	11176.7
1986.99819	11149.9
1990.06394	11109.1
1993.1277	11091.4
1996.18947	11052.3
1999.24925	10997.6
2002.30706	10993
2005.36288	10941.3
2008.41672	10919.9
2011.46859	10881.9
2014.51848	10854.9
2017.56639	10855.5
2020.61233	10804.8
2023.6563	10792.4
2026.6983	10754.7
2029.73833	10726.4
2032.7764	10718
2035.8125	10678.6
2038.84664	10631
2041.87881	10650.9
2044.90903	10619.8
2047.93729	10627.2
2050.96359	10610.6
2053.98794	10603.5
2057.01034	10576.2
2060.03078	10535.7
2063.04927	10589.9
2066.06582	10554.4
2069.08042	10543.9
2072.09307	10517.5
2075.10378	10518.6
2078.11255	10498.7
2081.11938	10490.9
2084.12426	10483
2087.12722	10488.5
2090.12824	10465
2093.12732	10453.9
2096.12447	10452.9
2099.11969	10458.3
2102.11299	10461.8
2105.10435	10456.2
2108.09379	10447.5
2111.08131	10466.3
2114.0669	10475.2
2117.05057	10497.5
2120.03233	10491.3
2123.01216	10500.6
2125.99008	10498.6
2128.96609	10503.6
2131.94018	10516.8
2134.91236	10536
2137.88263	10519.8
2140.851	10536.3
2143.81746	10529.9
2146.78201	10517.7
2149.74466	10536.9
2152.7054	10524.7
2155.66425	10502.7
2158.6212	10527.3
2161.57625	10536.9
2164.52941	10510.6
2167.48067	10499.3
2170.43004	10484.1
2173.37752	10489.4
2176.32311	10509.3
2179.26681	10492.5
2182.20863	10488.2
2185.14856	10515.1
2188.08661	10497.9
2191.02278	10502.8
2193.95707	10490.4
2196.88948	10468.4
2199.82001	10482.4
2202.74867	10460.6
2205.67545	10449.3
2208.60037	10413.3
2211.52341	10423.9
2214.44458	10435.2
2217.36388	10414.7
2220.28132	10397.2
2223.1969	10366
2226.11061	10364.3
2229.02246	10312.8
2231.93245	10317.6
2234.84058	10273.1
2237.74686	10266.3
2240.65128	10245.9
2243.55385	10225
2246.45456	10219.6
2249.35343	10242.5
2252.25044	10219
2255.14561	10216.3
2258.03893	10216.9
2260.93041	10200.7
2263.82004	10166.9
2266.70783	10143
2269.59378	10102.3
2272.4779	10076.6
2275.36017	10049.8
2278.24061	10000.7
2281.11922	10008.7
2283.996	9980.9
2286.87094	10007.1
2289.74405	9962.3
2292.61534	9970.5
2295.4848	9949.1
2298.35243	9962.9
2301.21824	9965.7
2304.08223	9952
2306.94439	9978.7
2309.80474	9971.1
2312.66327	9957.7
2315.51999	9957.5
2318.37489	9950.7
2321.22797	9940.9
2324.07925	9933.3
2326.92871	9922.7
2329.77637	9902.9
2332.62222	9919.5
2335.46626	9891.2
2338.3085	9895.3
2341.14893	9926.4
2343.98756	9932.9
2346.8244	9943.9
2349.65943	9906.9
2352.49267	9916.4
2355.32411	9928.9
2358.15376	9949.8
2360.98161	9940.7
2363.80768	9963.3
2366.63195	9930.9
2369.45444	9903.3
2372.27514	9897.5
2375.09405	9900.2
2377.91118	9866.3
2380.72652	9827.8
2383.54009	9796.1
2386.35187	9763.6
2389.16188	9738.2
2391.97011	9689.7
2394.77657	9675.3
2397.58125	9653.8
2400.38416	9650
2403.18529	9625.7
2405.98466	9601.8
2408.78226	9569.2
2411.57809	9561.5
2414.37216	9546.1
2417.16446	9539.9
2419.955	9511.9
2422.74378	9507.8
2425.5308	9498.4
2428.31606	9523.7
2431.09956	9503.4
2433.88131	9496.4
2436.6613	9471
2439.43954	9466.7
2442.21603	9496.9
2444.99077	9480.4
2447.76377	9498.8
2450.53501	9461.3
2453.30451	9483.9
2456.07226	9465.3
2458.83827	9458.5
2461.60254	9477.7
2464.36507	9443.3
2467.12586	9461.4
2469.88492	9440.1
2472.64224	9430
2475.39782	9478.8
2478.15167	9474.5
2480.90379	9473.6
2483.65417	9510.2
2486.40283	9481.5
2489.14976	9505.3
2491.89497	9513.1
2494.63845	9554
2497.3802	9553.5
2500.12024	9541.2
2502.85855	9505.4
2505.59514	9507.6
2508.33002	9483.8
2511.06318	9445.4
2513.79462	9421.3
2516.52435	9415
2519.25237	9377
2521.97867	9359.8
2524.70327	9338
2527.42616	9348.2
2530.14734	9335.6
2532.86681	9315.7
2535.58458	9328.1
2538.30065	9327.1
2541.01501	9307.5
2543.72768	9294.8
2546.43864	9298.3
2549.14791	9307
2551.85548	9295.5
2554.56136	9308.7
2557.26554	9241.3
2559.96803	9252
2562.66883	9263.2
2565.36794	9217.6
2568.06536	9213.5
2570.7611	9189.3
2573.45514	9183
2576.14751	9157.5
2578.83819	9167.8
2581.52719	9157.5
2584.21451	9163
2586.90015	9150.8
2589.58411	9142
2592.2664	9175.4
2594.94701	9133.6
2597.62594	9128.5
2600.30321	9132
2602.9788	9130.7
2605.65273	9111.5
2608.32498	9125.4
2610.99557	9106.3
2613.66449	9126.7
2616.33175	9152.1
2618.99734	9136
2621.66128	9131
2624.32355	9130.9
2626.98416	9108.1
2629.64311	9115.2
2632.30041	9118
2634.95605	9077.2
2637.61004	9078.5
2640.26238	9060.9
2642.91306	9051.8
2645.56209	9042.4
2648.20948	9041.6
2650.85521	9022.3
2653.4993	9019.9
2656.14175	9006.3
2658.78255	9016.9
2661.42171	9000.5
2664.05923	9047.5
2666.6951	9040.8
2669.32934	9071.7
2671.96194	9062.5
2674.59291	9058.7
2677.22224	9070.2
2679.84993	9075.1
2682.476	9078.4
2685.10043	9049.8
2687.72324	9036
2690.34441	9050.8
2692.96396	9048.5
2695.58188	9047.1
2698.19818	9008.3
2700.81285	9039.7
2703.4259	9063.1
2706.03733	9062.9
2708.64714	9033.1
2711.25533	9050.7
2713.86191	9044.7
2716.46687	9045
2719.07021	9054.9
2721.67194	9067.1
2724.27206	9048.7
2726.87057	9047.3
2729.46747	9059.8
2732.06276	9086
2734.65644	9068.8
2737.24852	9076.6
2739.83899	9043.1
2742.42786	9040.6
2745.01513	9008.7
2747.60079	9020.2
2750.18486	8990.5
2752.76733	8982.9
2755.3482	8955.5
2757.92747	8969.8
2760.50515	8949.4
2763.08123	8948.1
2765.65573	8937.3
2768.22863	8936.5
2770.79994	8929.4
2773.36967	8928.9
2775.9378	8932.8
2778.50435	8918
2781.06932	8905.1
2783.6327	8923.2
2786.1945	8918.9
2788.75471	8936.1
2791.31335	8897.4
2793.87041	8891.4
2796.42589	8871.8
2798.97979	8857.5
2801.53212	8848
2804.08288	8853.9
2806.63206	8810.5
2809.17967	8831.5
2811.72571	8811
2814.27018	8805.1
2816.81308	8789.7
2819.35442	8779.7
2821.89419	8771
2824.43239	8766.9
2826.96904	8769.8
2829.50412	8791.4
2832.03763	8748.9
2834.56959	8757.9
2837.1	8758
2839.62884	8774.2
2842.15613	8790.6
2844.68186	8783.1
2847.20604	8808.3
2849.72867	8827.5
2852.24974	8864.8
2854.76927	8841.3
2857.28724	8817.7
2859.80367	8802.2
2862.31855	8776.7
2864.83189	8747.3
2867.34368	8756.5
2869.85393	8752.2
2872.36264	8740.3
2874.8698	8726.9
2877.37543	8743.4
2879.87952	8743.8
2882.38207	8723.9
2884.88308	8711.4
2887.38256	8719.7
2889.88051	8729.4
2892.37692	8745.7
2894.8718	8706.1
2897.36515	8719.8
2899.85698	8737.9
2902.34727	8765.1
2904.83604	8775.6
2907.32328	8781.7
2909.809	8779.1
2912.29319	8754.7
2914.77587	8756.3
2917.25702	8746
2919.73665	8731.5
2922.21476	8728.8
2924.69136	8716.8
2927.16644	8723.3
2929.64	8715.5
2932.11205	8687.1
2934.58258	8636.4
2937.05161	8658.7
2939.51912	8634.4
2941.98513	8611.5
2944.44962	8590.7
2946.91261	8551.3
2949.37409	8579.5
2951.83407	8538.4
2954.29254	8540
2956.74951	8509.4
2959.20498	8530
2961.65895	8492
2964.11142	8521
2966.56239	8502.2
2969.01186	8473.9
2971.45984	8450.7
2973.90632	8474.1
2976.35131	8437.3
2978.7948	8387.2
2981.23681	8356.2
2983.67732	8385.2
2986.11635	8355.6
2988.55388	8295.7
2990.98993	8289.5
2993.4245	8280.9
2995.85758	8268.8
2998.28917	8249.5
3000.71928	8252.2
3003.14791	8213.1
3005.57506	8212.8
3008.00073	8189.8
3010.42493	8067.9
3012.84764	8132.2
3015.26888	8127.9
3017.68865	8110.6
3020.10694	8120.9
3022.52376	8074.7
3024.9391	8083
3027.35298	8066.1
3029.76539	8077.3
3032.17632	8060.1
3034.5858	8032.5
3036.9938	8049.5
3039.40034	8021.9
3041.80542	8037.2
3044.20903	8007
3046.61118	7995.8
3049.01187	7985.5
3051.4111	7965.9
3053.80888	7951.9
3056.20519	7933.7
3058.60005	7901.3
3060.99345	7926.3
3063.3854	7859.4
3065.7759	7843.1
3068.16494	7843.2
3070.55254	7799.8
3072.93868	7794.1
3075.32338	7751.6
3077.70662	7750.6
3080.08842	7720.5
3082.46878	7719.4
3084.84769	7705.3
3087.22515	7703.4
3089.60118	7701.3
3091.97576	7674.5
3094.3489	7679.5
3096.72061	7690.2
3099.09087	7677
3101.4597	7648.7
3103.82709	7673.8
3106.19305	7646.1
3108.55757	7653.5
3110.92066	7621.9
3113.28232	7614.6
3115.64255	7607.2
3118.00134	7593
3120.35871	7582.8
3122.71466	7542.7
3125.06917	7535.3
3127.42226	7543
3129.77393	7535.3
3132.12417	7527
3134.47299	7534.5
3136.82039	7500.3
3139.16636	7521.4
3141.51092	7519.2
3143.85406	7513.5
3146.19579	7528.5
3148.53609	7513.4
3150.87499	7495.1
3153.21246	7515.1
3155.54853	7528.8
3157.88318	7527.8
3160.21642	7541.2
3162.54826	7528.7
3164.87868	7542.3
3167.2077	7556.4
3169.5353	7543.9
3171.86151	7532.7
3174.18631	7543.1
3176.5097	7511
3178.83169	7474.6
3181.15228	7522.1
3183.47147	7509.5
3185.78926	7498.2
3188.10565	7490.4
3190.42065	7485.7
3192.73424	7450.7
3195.04645	7466.3
3197.35725	7478.9
3199.66667	7491.9
3201.97469	7495.9
3204.28132	7495.9
3206.58656	7500.5
3208.8904	7489.3
3211.19287	7501.4
3213.49394	7480.4
3215.79363	7492.1
3218.09193	7524.8
3220.38884	7507.5
3222.68438	7517.5
3224.97853	7522.7
3227.2713	7489.2
3229.56269	7482.8
3231.8527	7488.3
3234.14133	7485.3
3236.42858	7432.5
3238.71446	7439.4
3240.99896	7402.7
3243.28209	7415.2
3245.56384	7413.2
3247.84423	7402.9
3250.12324	7407.5
3252.40088	7371.2
3254.67715	7381
3256.95205	7371.6
3259.22558	7365.1
3261.49775	7349.4
3263.76855	7348.6
3266.03799	7347
3268.30606	7320.7
3270.57277	7305.8
3272.83812	7299.5
3275.10211	7280.1
3277.36474	7282.5
3279.62601	7265.3
3281.88593	7249.8
3284.14448	7253.9
3286.40168	7262.6
3288.65753	7245.1
3290.91202	7266.9
3293.16516	7227.2
3295.41695	7209.1
3297.66738	7169.4
3299.91647	7152
3302.16421	7093.7
3304.4106	7041.7
3306.65564	7021.2
3308.89933	6969.9
3311.14169	6907.8
3313.38269	6858.3
3315.62236	6808.9
3317.86068	6761.2
3320.09766	6702.6
3322.3333	6653.4
3324.5676	6620.7
3326.80056	6528.3
3329.03219	6472.8
3331.26248	3.6
3333.49143	0.5
3335.71905	-1.1
