Data from AgNP_FTO_APTES_UA_10uM_CRN_500uM_R6G_10uM_NaF_0.1M_Addition_RamanShift__9__18-50-50-937.txt Node

Date: Thu Feb 10 18:50:50 GMT 2022
User: TCL
Spectrometer: QEP01345
Trigger mode: 4
Integration Time (sec): 7.000000E0
Scans to average: 10
Electric dark correction enabled: true
Nonlinearity correction enabled: false
Boxcar width: 0
XAxis mode: Raman Shifts
Number of Pixels in Spectrum: 1044
>>>>>Begin Spectral Data<<<<<
46.04893	0.0375
50.45542	-1.1625
54.85868	-1.7625
59.25871	-0.9625
63.6555	54.6375
68.04907	53.2375
72.43941	62.4375
76.82654	59.2375
81.21044	67.2375
85.59113	64.2375
89.96862	67.9375
94.34289	68.9375
98.71396	73.2375
103.08183	78.1375
107.4465	81.1375
111.80798	75.3375
116.16626	79.1375
120.52136	83.4375
124.87327	84.7375
129.222	87.4375
133.56755	94.2375
137.90993	101.6375
142.24913	106.9375
146.58517	117.9375
150.91804	142.0375
155.24774	166.9375
159.57429	207.9375
163.89768	258.3375
168.21792	341.3375
172.53501	465.0375
176.84895	651.5375
181.15975	913.3375
185.46741	1279.3375
189.77193	1778.5375
194.07331	2375.7375
198.37157	3069.8375
202.6667	3806.9375
206.9587	4532.8375
211.24758	5228.0375
215.53334	5948.6375
219.81599	6677.1375
224.09553	7467.2375
228.37195	8331.7375
232.64527	9311.8375
236.91549	10356.7375
241.18261	11398.5375
245.44663	12445.5375
249.70755	13362.6375
253.96539	14191.5375
258.22014	14860.2375
262.4718	15479.9375
266.72039	15871.7375
270.96589	16108.4375
275.20832	16151.1375
279.44768	16087.0375
283.68397	16004.6375
287.91719	15859.8375
292.14735	15768.3375
296.37445	15702.7375
300.59849	15727.4375
304.81948	15739.5375
309.03742	15661.8375
313.25231	15511.1375
317.46415	15260.0375
321.67296	14959.2375
325.87872	14774.5375
330.08145	14642.0375
334.28114	14629.1375
338.47781	14733.9375
342.67145	14884.1375
346.86207	15042.6375
351.04966	15251.7375
355.23424	15490.5375
359.4158	15679.3375
363.59435	15847.4375
367.76989	15997.5375
371.94243	16114.0375
376.11196	16192.0375
380.27849	16294.6375
384.44203	16357.7375
388.60257	16481.5375
392.76012	16663.8375
396.91468	16783.9375
401.06626	17005.1375
405.21485	17157.3375
409.36047	17119.0375
413.50311	16982.9375
417.64277	16885.4375
421.77947	16894.3375
425.9132	16924.2375
430.04396	17106.3375
434.17176	17175.2375
438.2966	17265.3375
442.41849	17421.2375
446.53742	17738.2375
450.6534	18068.5375
454.76644	18322.2375
458.87653	18418.5375
462.98368	18493.4375
467.08789	18426.2375
471.18916	18359.4375
475.2875	18279.4375
479.38291	18250.0375
483.4754	18212.3375
487.56496	18023.3375
491.6516	17783.9375
495.73531	17567.3375
499.81612	17395.8375
503.89401	17448.2375
507.96899	17510.2375
512.04106	17484.2375
516.11023	17494.8375
520.1765	17384.9375
524.23987	17277.6375
528.30034	17145.0375
532.35792	17041.5375
536.41261	16963.5375
540.46441	16894.4375
544.51333	16948.2375
548.55936	17041.9375
552.60252	17330.9375
556.64279	17629.4375
560.6802	17825.2375
564.71473	17993.5375
568.7464	18177.6375
572.7752	18586.1375
576.80114	18944.6375
580.82422	19267.7375
584.84444	19459.0375
588.86181	19781.2375
592.87633	20080.9375
596.888	19983.4375
600.89682	19509.6375
604.9028	19441.3375
608.90594	20150.1375
612.90624	21107.9375
616.90371	20306.0375
620.89834	18203.3375
624.89015	17244.2375
628.87913	17117.5375
632.86528	17232.3375
636.84862	17308.0375
640.82913	17235.7375
644.80683	16969.6375
648.78172	16792.4375
652.75379	16773.9375
656.72306	16852.9375
660.68952	16996.0375
664.65319	16935.1375
668.61405	16808.6375
672.57211	16768.2375
676.52738	16802.0375
680.47986	16860.4375
684.42955	16818.0375
688.37646	16766.9375
692.32058	16800.9375
696.26192	16914.9375
700.20048	17054.4375
704.13626	17110.8375
708.06928	17198.4375
711.99952	17168.5375
715.927	17180.5375
719.85171	17124.4375
723.77365	17046.9375
727.69284	16946.2375
731.60928	16816.8375
735.52295	16757.5375
739.43388	16736.3375
743.34206	16764.1375
747.24749	16800.2375
751.15017	16901.7375
755.05012	17076.2375
758.94733	17394.7375
762.8418	17918.9375
766.73354	18710.4375
770.62254	19482.2375
774.50882	19705.3375
778.39237	19096.7375
782.27321	18225.1375
786.15132	17483.3375
790.02671	17019.6375
793.89938	16795.9375
797.76935	16670.1375
801.6366	16644.1375
805.50115	16611.5375
809.36299	16557.9375
813.22213	16500.9375
817.07857	16508.8375
820.93231	16479.3375
824.78336	16432.6375
828.63172	16405.6375
832.47738	16335.3375
836.32036	16302.6375
840.16066	16303.3375
843.99827	16288.2375
847.8332	16259.8375
851.66546	16308.6375
855.49504	16302.5375
859.32195	16336.7375
863.1462	16322.5375
866.96777	16307.8375
870.78668	16291.9375
874.60293	16318.0375
878.41652	16293.8375
882.22745	16319.5375
886.03573	16353.5375
889.84136	16345.5375
893.64433	16311.9375
897.44466	16259.0375
901.24235	16263.2375
905.0374	16225.6375
908.8298	16165.9375
912.61957	16176.5375
916.40671	16236.5375
920.19121	16397.9375
923.97308	16469.5375
927.75233	16426.5375
931.52895	16299.8375
935.30295	16172.3375
939.07433	15988.7375
942.84309	15837.1375
946.60924	15747.8375
950.37278	15710.8375
954.13371	15682.5375
957.89203	15636.8375
961.64774	15641.3375
965.40086	15636.8375
969.15137	15618.3375
972.89929	15496.4375
976.64461	15480.2375
980.38733	15400.8375
984.12747	15443.5375
987.86502	15460.3375
991.59999	15505.4375
995.33237	15554.7375
999.06217	15653.3375
1002.78939	15811.9375
1006.51404	15933.9375
1010.23611	16108.2375
1013.95561	16236.1375
1017.67255	16282.3375
1021.38692	16254.3375
1025.09872	16104.3375
1028.80796	15987.0375
1032.51465	15897.7375
1036.21877	15888.1375
1039.92035	15904.4375
1043.61937	15939.4375
1047.31584	15985.1375
1051.00976	16061.0375
1054.70114	16136.4375
1058.38998	16217.2375
1062.07627	16297.2375
1065.76003	16435.3375
1069.44126	16566.6375
1073.11995	16641.4375
1076.79611	16776.1375
1080.46974	16824.0375
1084.14085	16835.7375
1087.80943	16937.4375
1091.47549	17030.0375
1095.13903	17100.4375
1098.80005	17004.1375
1102.45857	16777.3375
1106.11456	16560.5375
1109.76805	16443.4375
1113.41903	16441.2375
1117.06751	16521.8375
1120.71348	16616.3375
1124.35696	16772.4375
1127.99793	16932.4375
1131.63641	17013.2375
1135.2724	16992.5375
1138.90589	16872.3375
1142.5369	16856.4375
1146.16542	16934.4375
1149.79145	17004.4375
1153.415	17104.9375
1157.03607	17294.4375
1160.65467	17578.7375
1164.27079	18095.0375
1167.88443	18738.2375
1171.49561	19466.2375
1175.10432	20284.8375
1178.71056	21326.6375
1182.31434	22368.6375
1185.91565	22954.6375
1189.51451	23048.0375
1193.11091	22742.9375
1196.70485	22244.7375
1200.29634	21573.5375
1203.88538	21095.3375
1207.47197	20810.6375
1211.05612	20522.6375
1214.63782	20196.4375
1218.21708	19790.1375
1221.79391	19305.6375
1225.36829	18950.2375
1228.94024	18766.7375
1232.50976	18599.4375
1236.07685	18521.2375
1239.6415	18456.5375
1243.20374	18497.4375
1246.76355	18552.5375
1250.32093	18684.0375
1253.8759	18914.7375
1257.42845	19243.7375
1260.97859	19586.5375
1264.52631	19961.5375
1268.07163	20333.9375
1271.61453	20664.6375
1275.15503	20972.3375
1278.69312	21384.5375
1282.22882	21765.5375
1285.76211	22333.2375
1289.29301	22925.7375
1292.82151	23781.6375
1296.34761	24803.4375
1299.87133	25944.0375
1303.39266	26993.0375
1306.9116	27878.8375
1310.42815	28567.1375
1313.94233	29003.2375
1317.45412	28952.2375
1320.96354	28645.4375
1324.47058	28325.8375
1327.97525	28114.7375
1331.47754	27983.5375
1334.97747	27835.8375
1338.47502	27753.0375
1341.97022	27669.9375
1345.46305	27522.2375
1348.95352	27442.3375
1352.44163	27413.9375
1355.92738	27595.8375
1359.41078	28088.9375
1362.89183	28486.1375
1366.37053	27999.6375
1369.84688	26298.2375
1373.32088	24185.2375
1376.79254	22788.7375
1380.26186	22271.7375
1383.72883	22331.3375
1387.19347	22414.5375
1390.65578	22300.3375
1394.11575	22246.1375
1397.57339	22334.5375
1401.0287	22471.1375
1404.48168	22547.7375
1407.93234	22315.1375
1411.38068	21879.6375
1414.82669	21207.2375
1418.27039	20510.3375
1421.71177	19835.7375
1425.15083	19264.3375
1428.58758	19035.6375
1432.02203	19126.3375
1435.45416	19447.9375
1438.88399	19834.9375
1442.31151	20176.5375
1445.73673	20404.9375
1449.15965	20562.8375
1452.58027	20662.1375
1455.9986	20803.0375
1459.41463	20934.8375
1462.82837	21031.4375
1466.23982	21259.0375
1469.64898	21449.5375
1473.05586	21549.3375
1476.46045	21454.0375
1479.86276	21326.4375
1483.26279	21167.1375
1486.66054	21125.1375
1490.05602	21170.3375
1493.44922	21361.2375
1496.84016	21702.1375
1500.22882	22168.4375
1503.61521	22853.4375
1506.99934	23606.2375
1510.38121	24235.2375
1513.76081	24329.4375
1517.13816	23979.6375
1520.51324	23404.3375
1523.88607	22965.7375
1527.25665	22798.6375
1530.62498	22775.9375
1533.99105	22677.3375
1537.35488	22488.6375
1540.71647	22059.2375
1544.07581	21664.1375
1547.4329	21175.1375
1550.78776	20753.5375
1554.14038	20409.4375
1557.49077	20244.7375
1560.83892	20145.0375
1564.18484	20132.3375
1567.52853	20208.8375
1570.86999	20452.1375
1574.20922	20764.4375
1577.54624	21078.3375
1580.88103	21216.8375
1584.2136	21257.6375
1587.54395	21562.1375
1590.87208	22020.2375
1594.19801	22699.9375
1597.52172	23365.7375
1600.84321	23524.1375
1604.16251	22845.7375
1607.47959	21686.4375
1610.79447	20441.5375
1614.10715	19192.1375
1617.41763	18180.2375
1620.7259	17432.1375
1624.03199	16983.3375
1627.33587	16911.1375
1630.63757	17230.5375
1633.93707	17903.7375
1637.23439	19090.0375
1640.52951	20874.5375
1643.82246	22958.5375
1647.11321	24667.4375
1650.40179	25069.0375
1653.68819	23742.8375
1656.97241	21372.9375
1660.25446	18960.9375
1663.53433	17209.6375
1666.81203	15976.2375
1670.08756	15209.9375
1673.36092	14729.0375
1676.63211	14405.2375
1679.90115	14204.6375
1683.16801	14004.3375
1686.43272	13876.8375
1689.69527	13765.7375
1692.95567	13671.4375
1696.2139	13646.9375
1699.46999	13621.1375
1702.72392	13589.9375
1705.97571	13527.5375
1709.22535	13483.2375
1712.47284	13432.7375
1715.71819	13403.6375
1718.96139	13377.6375
1722.20246	13351.0375
1725.44139	13287.1375
1728.67818	13260.6375
1731.91284	13172.9375
1735.14537	13079.9375
1738.37576	13038.9375
1741.60403	12989.0375
1744.83017	12963.1375
1748.05418	12964.0375
1751.27607	12931.6375
1754.49584	12904.1375
1757.71349	12924.9375
1760.92903	12904.6375
1764.14244	12878.4375
1767.35375	12872.5375
1770.56294	12856.3375
1773.77002	12791.8375
1776.97499	12793.0375
1780.17785	12740.8375
1783.37861	12717.4375
1786.57727	12682.9375
1789.77382	12640.2375
1792.96828	12637.8375
1796.16064	12621.9375
1799.3509	12547.5375
1802.53907	12554.4375
1805.72514	12521.1375
1808.90913	12500.3375
1812.09102	12452.6375
1815.27083	12419.8375
1818.44856	12371.3375
1821.6242	12352.4375
1824.79776	12359.0375
1827.96924	12340.4375
1831.13864	12306.1375
1834.30597	12312.4375
1837.47122	12295.5375
1840.6344	12256.6375
1843.7955	12279.0375
1846.95454	12256.6375
1850.11151	12248.9375
1853.26642	12230.9375
1856.41926	12227.4375
1859.57004	12215.2375
1862.71876	12185.0375
1865.86542	12158.5375
1869.01003	12154.5375
1872.15258	12128.3375
1875.29308	12127.7375
1878.43152	12097.5375
1881.56792	12088.5375
1884.70227	12085.6375
1887.83457	12047.6375
1890.96482	12033.6375
1894.09304	12001.1375
1897.21921	11992.6375
1900.34335	11976.4375
1903.46544	11978.9375
1906.58551	11958.5375
1909.70353	11925.8375
1912.81953	11882.1375
1915.93349	11886.9375
1919.04543	11865.9375
1922.15534	11810.5375
1925.26322	11774.1375
1928.36908	11751.0375
1931.47292	11769.2375
1934.57473	11713.6375
1937.67453	11690.9375
1940.77232	11683.1375
1943.86808	11602.5375
1946.96184	11608.3375
1950.05358	11562.3375
1953.14331	11523.1375
1956.23103	11510.8375
1959.31675	11454.1375
1962.40046	11446.8375
1965.48217	11396.5375
1968.56188	11351.4375
1971.63959	11310.4375
1974.7153	11286.4375
1977.78901	11226.6375
1980.86073	11205.9375
1983.93046	11156.8375
1986.99819	11152.8375
1990.06394	11093.3375
1993.1277	11080.5375
1996.18947	11028.0375
1999.24925	10994.2375
2002.30706	10962.4375
2005.36288	10903.1375
2008.41672	10901.8375
2011.46859	10861.3375
2014.51848	10847.4375
2017.56639	10802.4375
2020.61233	10791.5375
2023.6563	10726.7375
2026.6983	10688.3375
2029.73833	10684.9375
2032.7764	10662.3375
2035.8125	10630.0375
2038.84664	10581.7375
2041.87881	10564.1375
2044.90903	10533.7375
2047.93729	10522.2375
2050.96359	10510.2375
2053.98794	10474.4375
2057.01034	10460.5375
2060.03078	10468.8375
2063.04927	10432.0375
2066.06582	10465.1375
2069.08042	10459.3375
2072.09307	10430.8375
2075.10378	10449.8375
2078.11255	10387.3375
2081.11938	10415.1375
2084.12426	10385.2375
2087.12722	10384.1375
2090.12824	10385.3375
2093.12732	10348.9375
2096.12447	10355.5375
2099.11969	10356.6375
2102.11299	10359.1375
2105.10435	10336.2375
2108.09379	10338.5375
2111.08131	10356.1375
2114.0669	10331.8375
2117.05057	10342.1375
2120.03233	10349.8375
2123.01216	10350.2375
2125.99008	10362.6375
2128.96609	10361.9375
2131.94018	10379.8375
2134.91236	10386.6375
2137.88263	10354.5375
2140.851	10359.3375
2143.81746	10363.2375
2146.78201	10373.7375
2149.74466	10372.8375
2152.7054	10376.9375
2155.66425	10368.3375
2158.6212	10366.9375
2161.57625	10357.7375
2164.52941	10327.6375
2167.48067	10321.3375
2170.43004	10317.2375
2173.37752	10315.6375
2176.32311	10319.8375
2179.26681	10313.2375
2182.20863	10291.3375
2185.14856	10314.5375
2188.08661	10283.7375
2191.02278	10314.0375
2193.95707	10302.0375
2196.88948	10293.7375
2199.82001	10279.6375
2202.74867	10252.4375
2205.67545	10218.5375
2208.60037	10174.4375
2211.52341	10192.5375
2214.44458	10181.3375
2217.36388	10152.5375
2220.28132	10121.2375
2223.1969	10082.1375
2226.11061	10118.2375
2229.02246	10056.9375
2231.93245	10017.9375
2234.84058	10013.1375
2237.74686	9997.1375
2240.65128	9987.3375
2243.55385	9976.7375
2246.45456	9925.4375
2249.35343	9936.9375
2252.25044	9914.9375
2255.14561	9891.3375
2258.03893	9871.4375
2260.93041	9867.5375
2263.82004	9821.3375
2266.70783	9797.7375
2269.59378	9770.0375
2272.4779	9736.0375
2275.36017	9712.2375
2278.24061	9705.0375
2281.11922	9662.2375
2283.996	9685.9375
2286.87094	9651.8375
2289.74405	9630.4375
2292.61534	9633.4375
2295.4848	9587.0375
2298.35243	9598.3375
2301.21824	9582.0375
2304.08223	9579.4375
2306.94439	9559.5375
2309.80474	9550.2375
2312.66327	9526.0375
2315.51999	9534.6375
2318.37489	9523.7375
2321.22797	9495.3375
2324.07925	9486.2375
2326.92871	9486.1375
2329.77637	9463.9375
2332.62222	9413.5375
2335.46626	9410.9375
2338.3085	9387.3375
2341.14893	9415.0375
2343.98756	9385.3375
2346.8244	9379.3375
2349.65943	9337.2375
2352.49267	9340.3375
2355.32411	9335.4375
2358.15376	9335.4375
2360.98161	9338.8375
2363.80768	9343.4375
2366.63195	9346.1375
2369.45444	9343.1375
2372.27514	9289.6375
2375.09405	9287.3375
2377.91118	9255.8375
2380.72652	9228.5375
2383.54009	9223.8375
2386.35187	9190.5375
2389.16188	9149.6375
2391.97011	9147.5375
2394.77657	9117.6375
2397.58125	9119.4375
2400.38416	9073.6375
2403.18529	9063.6375
2405.98466	9057.9375
2408.78226	9050.2375
2411.57809	9051.1375
2414.37216	9026.6375
2417.16446	9012.8375
2419.955	9000.9375
2422.74378	9009.2375
2425.5308	8973.1375
2428.31606	8985.1375
2431.09956	8982.0375
2433.88131	8955.3375
2436.6613	8942.2375
2439.43954	8942.4375
2442.21603	8911.3375
2444.99077	8888.7375
2447.76377	8891.6375
2450.53501	8889.9375
2453.30451	8884.3375
2456.07226	8874.8375
2458.83827	8878.0375
2461.60254	8852.7375
2464.36507	8843.5375
2467.12586	8847.1375
2469.88492	8834.1375
2472.64224	8807.5375
2475.39782	8818.8375
2478.15167	8823.8375
2480.90379	8813.1375
2483.65417	8800.5375
2486.40283	8812.4375
2489.14976	8802.1375
2491.89497	8786.0375
2494.63845	8782.8375
2497.3802	8752.0375
2500.12024	8770.2375
2502.85855	8759.4375
2505.59514	8751.1375
2508.33002	8732.7375
2511.06318	8728.2375
2513.79462	8714.8375
2516.52435	8688.4375
2519.25237	8679.6375
2521.97867	8657.4375
2524.70327	8667.2375
2527.42616	8633.9375
2530.14734	8621.2375
2532.86681	8608.6375
2535.58458	8614.8375
2538.30065	8612.0375
2541.01501	8593.1375
2543.72768	8578.8375
2546.43864	8545.0375
2549.14791	8551.9375
2551.85548	8538.5375
2554.56136	8502.2375
2557.26554	8505.7375
2559.96803	8468.5375
2562.66883	8478.9375
2565.36794	8441.7375
2568.06536	8420.4375
2570.7611	8401.0375
2573.45514	8391.3375
2576.14751	8401.0375
2578.83819	8370.8375
2581.52719	8357.5375
2584.21451	8337.1375
2586.90015	8327.2375
2589.58411	8311.1375
2592.2664	8297.6375
2594.94701	8278.0375
2597.62594	8258.0375
2600.30321	8256.0375
2602.9788	8263.8375
2605.65273	8221.2375
2608.32498	8226.1375
2610.99557	8228.0375
2613.66449	8226.8375
2616.33175	8192.8375
2618.99734	8205.5375
2621.66128	8191.9375
2624.32355	8182.9375
2626.98416	8175.2375
2629.64311	8162.6375
2632.30041	8139.5375
2634.95605	8128.2375
2637.61004	8092.4375
2640.26238	8092.7375
2642.91306	8089.2375
2645.56209	8082.4375
2648.20948	8073.2375
2650.85521	8060.9375
2653.4993	8066.6375
2656.14175	8045.5375
2658.78255	8060.8375
2661.42171	8085.7375
2664.05923	8081.7375
2666.6951	8075.5375
2669.32934	8059.4375
2671.96194	8048.2375
2674.59291	8048.7375
2677.22224	8063.2375
2679.84993	8054.8375
2682.476	8056.2375
2685.10043	8055.6375
2687.72324	8031.4375
2690.34441	8029.8375
2692.96396	8030.3375
2695.58188	8009.5375
2698.19818	8013.9375
2700.81285	8030.6375
2703.4259	8023.8375
2706.03733	8041.6375
2708.64714	8030.4375
2711.25533	8023.2375
2713.86191	8018.1375
2716.46687	8038.2375
2719.07021	8017.6375
2721.67194	8035.2375
2724.27206	8022.2375
2726.87057	8038.3375
2729.46747	8005.0375
2732.06276	8024.5375
2734.65644	8008.5375
2737.24852	8026.4375
2739.83899	8011.2375
2742.42786	7996.2375
2745.01513	7970.6375
2747.60079	7978.3375
2750.18486	7943.5375
2752.76733	7955.6375
2755.3482	7924.6375
2757.92747	7920.2375
2760.50515	7897.1375
2763.08123	7882.8375
2765.65573	7879.8375
2768.22863	7875.0375
2770.79994	7871.3375
2773.36967	7870.8375
2775.9378	7840.5375
2778.50435	7840.7375
2781.06932	7835.6375
2783.6327	7820.3375
2786.1945	7805.5375
2788.75471	7795.5375
2791.31335	7797.2375
2793.87041	7787.1375
2796.42589	7783.8375
2798.97979	7767.6375
2801.53212	7756.4375
2804.08288	7734.3375
2806.63206	7702.5375
2809.17967	7669.0375
2811.72571	7655.4375
2814.27018	7656.4375
2816.81308	7619.3375
2819.35442	7609.8375
2821.89419	7606.3375
2824.43239	7574.6375
2826.96904	7548.8375
2829.50412	7555.1375
2832.03763	7568.0375
2834.56959	7554.0375
2837.1	7553.1375
2839.62884	7566.6375
2842.15613	7576.4375
2844.68186	7583.0375
2847.20604	7600.8375
2849.72867	7618.6375
2852.24974	7593.2375
2854.76927	7564.8375
2857.28724	7562.0375
2859.80367	7534.4375
2862.31855	7523.1375
2864.83189	7528.1375
2867.34368	7492.9375
2869.85393	7486.6375
2872.36264	7463.6375
2874.8698	7485.9375
2877.37543	7477.5375
2879.87952	7471.3375
2882.38207	7467.6375
2884.88308	7448.0375
2887.38256	7435.3375
2889.88051	7431.2375
2892.37692	7429.7375
2894.8718	7447.5375
2897.36515	7449.9375
2899.85698	7460.2375
2902.34727	7445.5375
2904.83604	7471.4375
2907.32328	7477.0375
2909.809	7460.6375
2912.29319	7473.7375
2914.77587	7467.2375
2917.25702	7456.9375
2919.73665	7440.7375
2922.21476	7452.0375
2924.69136	7414.4375
2927.16644	7448.6375
2929.64	7424.0375
2932.11205	7424.0375
2934.58258	7413.7375
2937.05161	7418.9375
2939.51912	7417.2375
2941.98513	7379.5375
2944.44962	7379.2375
2946.91261	7348.5375
2949.37409	7348.2375
2951.83407	7350.6375
2954.29254	7319.1375
2956.74951	7324.6375
2959.20498	7301.8375
2961.65895	7322.5375
2964.11142	7302.9375
2966.56239	7277.8375
2969.01186	7273.9375
2971.45984	7270.2375
2973.90632	7250.4375
2976.35131	7231.3375
2978.7948	7222.0375
2981.23681	7192.0375
2983.67732	7169.3375
2986.11635	7146.2375
2988.55388	7155.2375
2990.98993	7135.6375
2993.4245	7109.9375
2995.85758	7062.7375
2998.28917	7049.6375
3000.71928	7059.5375
3003.14791	7036.4375
3005.57506	7045.8375
3008.00073	7021.6375
3010.42493	7008.3375
3012.84764	6986.8375
3015.26888	6984.2375
3017.68865	6943.5375
3020.10694	6951.1375
3022.52376	6936.5375
3024.9391	6919.6375
3027.35298	6928.4375
3029.76539	6893.1375
3032.17632	6893.3375
3034.5858	6886.9375
3036.9938	6897.7375
3039.40034	6903.1375
3041.80542	6893.5375
3044.20903	6850.6375
3046.61118	6894.7375
3049.01187	6843.6375
3051.4111	6867.9375
3053.80888	6838.7375
3056.20519	6829.6375
3058.60005	6810.8375
3060.99345	6797.0375
3063.3854	6756.7375
3065.7759	6742.9375
3068.16494	6750.3375
3070.55254	6715.8375
3072.93868	6721.4375
3075.32338	6691.7375
3077.70662	6674.7375
3080.08842	6652.2375
3082.46878	6644.5375
3084.84769	6653.8375
3087.22515	6642.1375
3089.60118	6648.7375
3091.97576	6639.8375
3094.3489	6649.6375
3096.72061	6641.4375
3099.09087	6634.7375
3101.4597	6622.5375
3103.82709	6620.3375
3106.19305	6624.8375
3108.55757	6621.0375
3110.92066	6595.1375
3113.28232	6601.1375
3115.64255	6581.8375
3118.00134	6563.7375
3120.35871	6567.0375
3122.71466	6558.2375
3125.06917	6527.2375
3127.42226	6521.3375
3129.77393	6513.9375
3132.12417	6531.8375
3134.47299	6521.2375
3136.82039	6511.6375
3139.16636	6518.9375
3141.51092	6534.8375
3143.85406	6507.6375
3146.19579	6518.2375
3148.53609	6530.1375
3150.87499	6528.5375
3153.21246	6525.8375
3155.54853	6535.1375
3157.88318	6525.4375
3160.21642	6538.1375
3162.54826	6512.4375
3164.87868	6508.7375
3167.2077	6536.6375
3169.5353	6546.0375
3171.86151	6529.3375
3174.18631	6530.3375
3176.5097	6519.8375
3178.83169	6522.2375
3181.15228	6529.7375
3183.47147	6504.9375
3185.78926	6496.8375
3188.10565	6501.9375
3190.42065	6477.5375
3192.73424	6473.4375
3195.04645	6462.3375
3197.35725	6458.2375
3199.66667	6455.8375
3201.97469	6463.0375
3204.28132	6463.3375
3206.58656	6454.3375
3208.8904	6455.4375
3211.19287	6459.8375
3213.49394	6475.1375
3215.79363	6485.6375
3218.09193	6470.8375
3220.38884	6472.1375
3222.68438	6456.1375
3224.97853	6472.3375
3227.2713	6455.0375
3229.56269	6456.8375
3231.8527	6433.8375
3234.14133	6439.6375
3236.42858	6411.7375
3238.71446	6414.4375
3240.99896	6375.4375
3243.28209	6381.1375
3245.56384	6389.4375
3247.84423	6373.9375
3250.12324	6361.1375
3252.40088	6363.2375
3254.67715	6363.3375
3256.95205	6335.6375
3259.22558	6340.1375
3261.49775	6320.6375
3263.76855	6323.0375
3266.03799	6291.4375
3268.30606	6310.7375
3270.57277	6293.4375
3272.83812	6272.6375
3275.10211	6253.5375
3277.36474	6231.7375
3279.62601	6229.3375
3281.88593	6215.4375
3284.14448	6206.2375
3286.40168	6211.9375
3288.65753	6221.1375
3290.91202	6211.0375
3293.16516	6188.5375
3295.41695	6156.4375
3297.66738	6147.9375
3299.91647	6126.8375
3302.16421	6070.4375
3304.4106	6049.4375
3306.65564	6002.0375
3308.89933	5960.7375
3311.14169	5913.2375
3313.38269	5872.1375
3315.62236	5800.1375
3317.86068	5759.3375
3320.09766	5714.2375
3322.3333	5670.0375
3324.5676	5657.0375
3326.80056	5562.2375
3329.03219	5522.4375
3331.26248	2.5375
3333.49143	0.4375
3335.71905	0.3375
