Data from AgNP_FTO_APTES_UA_10uM_CRN_0uM_R6G_10uM_NaF_0.1M_Addition_RamanShift__9__11-19-20-364.txt Node

Date: Thu Feb 10 11:19:20 GMT 2022
User: TCL
Spectrometer: QEP01345
Trigger mode: 4
Integration Time (sec): 7.000000E0
Scans to average: 10
Electric dark correction enabled: true
Nonlinearity correction enabled: false
Boxcar width: 0
XAxis mode: Raman Shifts
Number of Pixels in Spectrum: 1044
>>>>>Begin Spectral Data<<<<<
46.04893	-0.9125
50.45542	-0.2125
54.85868	-1.8125
59.25871	-1.1125
63.6555	93.1875
68.04907	95.0875
72.43941	103.3875
76.82654	104.2875
81.21044	104.4875
85.59113	111.1875
89.96862	114.5875
94.34289	119.2875
98.71396	120.3875
103.08183	127.1875
107.4465	129.7875
111.80798	131.4875
116.16626	135.9875
120.52136	145.0875
124.87327	155.5875
129.222	166.2875
133.56755	180.0875
137.90993	195.7875
142.24913	212.3875
146.58517	241.6875
150.91804	295.6875
155.24774	352.9875
159.57429	450.1875
163.89768	583.6875
168.21792	786.1875
172.53501	1079.3875
176.84895	1514.8875
181.15975	2142.7875
185.46741	3029.9875
189.77193	4196.6875
194.07331	5653.8875
198.37157	7346.5875
202.6667	9139.3875
206.9587	10919.9875
211.24758	12652.3875
215.53334	14396.2875
219.81599	16256.9875
224.09553	18311.3875
228.37195	20553.0875
232.64527	22996.5875
236.91549	25747.2875
241.18261	28636.4875
245.44663	31410.0875
249.70755	33930.0875
253.96539	36239.1875
258.22014	38060.7875
262.4718	39365.0875
266.72039	40112.5875
270.96589	40328.0875
275.20832	39929.3875
279.44768	39074.6875
283.68397	38063.6875
287.91719	37024.9875
292.14735	36166.0875
296.37445	35448.8875
300.59849	34900.2875
304.81948	34464.6875
309.03742	34100.6875
313.25231	33560.1875
317.46415	33003.0875
321.67296	32448.0875
325.87872	32023.3875
330.08145	31869.1875
334.28114	31975.3875
338.47781	32230.0875
342.67145	32509.6875
346.86207	32833.5875
351.04966	33347.0875
355.23424	33795.7875
359.4158	34252.5875
363.59435	34694.7875
367.76989	35000.5875
371.94243	35235.5875
376.11196	35406.7875
380.27849	35479.0875
384.44203	35567.6875
388.60257	35651.3875
392.76012	35818.1875
396.91468	36100.8875
401.06626	36393.6875
405.21485	36550.7875
409.36047	36402.6875
413.50311	36071.9875
417.64277	35760.4875
421.77947	35694.9875
425.9132	35806.0875
430.04396	35961.6875
434.17176	36093.8875
438.2966	36352.4875
442.41849	36651.3875
446.53742	36989.3875
450.6534	37365.1875
454.76644	37668.5875
458.87653	37827.2875
462.98368	38011.1875
467.08789	38036.1875
471.18916	37985.7875
475.2875	37734.4875
479.38291	37629.7875
483.4754	37514.7875
487.56496	37440.8875
491.6516	37408.1875
495.73531	37280.3875
499.81612	37211.2875
503.89401	37379.3875
507.96899	37647.7875
512.04106	37779.5875
516.11023	38001.6875
520.1765	38013.2875
524.23987	38108.5875
528.30034	38117.9875
532.35792	38210.0875
536.41261	38176.7875
540.46441	38233.7875
544.51333	38255.6875
548.55936	38555.3875
552.60252	38997.3875
556.64279	39458.1875
560.6802	39892.8875
564.71473	40288.8875
568.7464	40570.3875
572.7752	40749.3875
576.80114	40821.9875
580.82422	40727.7875
584.84444	40620.7875
588.86181	40549.7875
592.87633	40519.0875
596.888	40479.3875
600.89682	40688.5875
604.9028	41836.4875
608.90594	44646.0875
612.90624	47842.6875
616.90371	47200.1875
620.89834	43375.1875
624.89015	41291.2875
628.87913	40588.6875
632.86528	40354.7875
636.84862	40165.5875
640.82913	39697.7875
644.80683	39137.0875
648.78172	38643.8875
652.75379	38550.5875
656.72306	38834.0875
660.68952	39260.2875
664.65319	39400.4875
668.61405	39152.9875
672.57211	39170.5875
676.52738	39496.8875
680.47986	39737.8875
684.42955	39784.3875
688.37646	39796.2875
692.32058	39916.3875
696.26192	40093.4875
700.20048	40220.8875
704.13626	40300.2875
708.06928	40367.1875
711.99952	40315.3875
715.927	40149.5875
719.85171	40054.1875
723.77365	39977.9875
727.69284	39828.9875
731.60928	39624.5875
735.52295	39565.0875
739.43388	39541.5875
743.34206	39636.3875
747.24749	39698.0875
751.15017	39712.7875
755.05012	39960.8875
758.94733	40349.4875
762.8418	41238.9875
766.73354	42696.2875
770.62254	44239.8875
774.50882	45126.7875
778.39237	44754.6875
782.27321	43476.4875
786.15132	42152.3875
790.02671	41175.0875
793.89938	40637.9875
797.76935	40306.3875
801.6366	40142.5875
805.50115	40134.1875
809.36299	40143.0875
813.22213	40143.2875
817.07857	40067.9875
820.93231	40065.7875
824.78336	40122.9875
828.63172	40041.4875
832.47738	40036.4875
836.32036	40082.4875
840.16066	40055.7875
843.99827	40105.3875
847.8332	40210.2875
851.66546	40283.5875
855.49504	40453.9875
859.32195	40575.0875
863.1462	40608.2875
866.96777	40747.3875
870.78668	40898.8875
874.60293	41122.9875
878.41652	41258.9875
882.22745	41450.7875
886.03573	41705.4875
889.84136	41914.1875
893.64433	42202.2875
897.44466	42445.3875
901.24235	42835.9875
905.0374	43201.4875
908.8298	43613.2875
912.61957	44013.3875
916.40671	44333.8875
920.19121	44498.7875
923.97308	44658.9875
927.75233	44717.7875
931.52895	44580.6875
935.30295	44251.5875
939.07433	43744.6875
942.84309	43316.3875
946.60924	42829.3875
950.37278	42446.2875
954.13371	42205.8875
957.89203	41999.6875
961.64774	41764.4875
965.40086	41602.9875
969.15137	41422.1875
972.89929	41244.2875
976.64461	41120.5875
980.38733	41115.1875
984.12747	41077.0875
987.86502	41032.5875
991.59999	41066.9875
995.33237	41180.6875
999.06217	41305.4875
1002.78939	41541.7875
1006.51404	41767.1875
1010.23611	42103.5875
1013.95561	42347.3875
1017.67255	42498.3875
1021.38692	42426.4875
1025.09872	42345.5875
1028.80796	42307.9875
1032.51465	42251.7875
1036.21877	42325.9875
1039.92035	42481.0875
1043.61937	42693.7875
1047.31584	42820.1875
1051.00976	42949.9875
1054.70114	43094.2875
1058.38998	43084.1875
1062.07627	43135.6875
1065.76003	43138.8875
1069.44126	43104.9875
1073.11995	43212.7875
1076.79611	43417.0875
1080.46974	43574.1875
1084.14085	43536.3875
1087.80943	43593.3875
1091.47549	43639.2875
1095.13903	43526.3875
1098.80005	43491.6875
1102.45857	43297.0875
1106.11456	43147.3875
1109.76805	42844.8875
1113.41903	42704.2875
1117.06751	42688.7875
1120.71348	42823.9875
1124.35696	42920.0875
1127.99793	43168.2875
1131.63641	43323.0875
1135.2724	43063.0875
1138.90589	42734.9875
1142.5369	42551.3875
1146.16542	42352.9875
1149.79145	42363.5875
1153.415	42284.2875
1157.03607	42359.4875
1160.65467	42579.0875
1164.27079	43128.4875
1167.88443	43903.1875
1171.49561	44964.1875
1175.10432	46293.0875
1178.71056	48163.5875
1182.31434	49821.3875
1185.91565	50975.4875
1189.51451	51531.9875
1193.11091	51392.7875
1196.70485	50719.4875
1200.29634	49722.3875
1203.88538	48816.2875
1207.47197	48071.7875
1211.05612	47294.2875
1214.63782	46699.0875
1218.21708	46004.3875
1221.79391	45440.1875
1225.36829	45032.6875
1228.94024	44809.7875
1232.50976	44830.6875
1236.07685	44850.9875
1239.6415	44932.5875
1243.20374	45066.7875
1246.76355	45061.6875
1250.32093	45149.3875
1253.8759	45503.2875
1257.42845	46025.9875
1260.97859	46554.2875
1264.52631	47160.0875
1268.07163	47869.5875
1271.61453	48375.6875
1275.15503	48901.4875
1278.69312	49410.3875
1282.22882	49671.8875
1285.76211	50023.4875
1289.29301	50485.5875
1292.82151	51268.5875
1296.34761	52150.4875
1299.87133	53281.8875
1303.39266	54559.8875
1306.9116	55973.0875
1310.42815	57513.6875
1313.94233	58328.3875
1317.45412	58308.3875
1320.96354	57913.0875
1324.47058	57304.7875
1327.97525	56631.8875
1331.47754	56062.8875
1334.97747	55867.4875
1338.47502	56028.8875
1341.97022	56590.1875
1345.46305	57601.8875
1348.95352	58596.1875
1352.44163	59127.9875
1355.92738	59512.0875
1359.41078	60085.5875
1362.89183	60967.3875
1366.37053	60248.9875
1369.84688	57335.0875
1373.32088	53865.1875
1376.79254	51466.8875
1380.26186	50258.1875
1383.72883	49716.0875
1387.19347	49371.3875
1390.65578	48972.2875
1394.11575	48658.3875
1397.57339	48498.3875
1401.0287	48438.7875
1404.48168	48369.0875
1407.93234	48037.3875
1411.38068	47623.6875
1414.82669	47140.4875
1418.27039	46506.9875
1421.71177	45914.8875
1425.15083	45558.9875
1428.58758	45154.5875
1432.02203	45112.8875
1435.45416	45302.6875
1438.88399	45439.6875
1442.31151	45625.3875
1445.73673	45761.5875
1449.15965	45986.1875
1452.58027	46040.7875
1455.9986	46071.1875
1459.41463	46152.9875
1462.82837	46244.2875
1466.23982	46444.2875
1469.64898	46555.7875
1473.05586	46652.5875
1476.46045	46699.7875
1479.86276	46723.0875
1483.26279	46851.5875
1486.66054	47003.2875
1490.05602	47338.1875
1493.44922	47976.5875
1496.84016	48925.2875
1500.22882	50495.2875
1503.61521	52344.3875
1506.99934	54308.0875
1510.38121	55827.5875
1513.76081	56183.4875
1517.13816	55168.9875
1520.51324	53373.3875
1523.88607	51570.1875
1527.25665	50222.6875
1530.62498	49485.3875
1533.99105	48981.1875
1537.35488	48627.9875
1540.71647	48088.1875
1544.07581	47592.9875
1547.4329	47284.0875
1550.78776	47064.3875
1554.14038	46815.8875
1557.49077	46850.7875
1560.83892	46989.8875
1564.18484	47242.4875
1567.52853	47586.5875
1570.86999	48053.0875
1574.20922	48455.1875
1577.54624	48672.9875
1580.88103	48550.4875
1584.2136	48190.5875
1587.54395	47974.8875
1590.87208	48166.7875
1594.19801	48643.1875
1597.52172	49270.2875
1600.84321	49353.2875
1604.16251	48543.9875
1607.47959	47429.7875
1610.79447	46263.9875
1614.10715	44858.1875
1617.41763	43442.7875
1620.7259	42327.0875
1624.03199	41781.5875
1627.33587	41815.2875
1630.63757	42176.7875
1633.93707	43127.6875
1637.23439	44402.4875
1640.52951	46209.5875
1643.82246	48416.0875
1647.11321	50277.7875
1650.40179	50902.6875
1653.68819	49610.8875
1656.97241	46536.5875
1660.25446	43398.9875
1663.53433	40939.4875
1666.81203	39413.7875
1670.08756	38423.4875
1673.36092	37847.3875
1676.63211	37420.8875
1679.90115	37048.0875
1683.16801	36724.7875
1686.43272	36606.9875
1689.69527	36467.2875
1692.95567	36271.7875
1696.2139	36163.9875
1699.46999	36157.2875
1702.72392	36123.4875
1705.97571	36092.7875
1709.22535	36057.3875
1712.47284	36042.7875
1715.71819	36040.9875
1718.96139	36087.2875
1722.20246	36068.9875
1725.44139	36039.1875
1728.67818	35966.3875
1731.91284	35950.9875
1735.14537	35946.4875
1738.37576	35977.5875
1741.60403	35993.9875
1744.83017	35975.3875
1748.05418	35961.2875
1751.27607	36032.7875
1754.49584	36100.8875
1757.71349	36197.3875
1760.92903	36344.6875
1764.14244	36376.7875
1767.35375	36497.4875
1770.56294	36440.3875
1773.77002	36321.2875
1776.97499	36256.6875
1780.17785	36200.2875
1783.37861	36134.0875
1786.57727	35976.6875
1789.77382	35805.9875
1792.96828	35576.5875
1796.16064	35383.3875
1799.3509	35233.9875
1802.53907	35074.7875
1805.72514	34886.2875
1808.90913	34695.4875
1812.09102	34568.5875
1815.27083	34400.5875
1818.44856	34327.6875
1821.6242	34272.6875
1824.79776	34124.9875
1827.96924	34034.8875
1831.13864	33966.9875
1834.30597	33922.4875
1837.47122	33919.4875
1840.6344	33914.0875
1843.7955	33916.0875
1846.95454	33832.3875
1850.11151	33696.6875
1853.26642	33704.0875
1856.41926	33698.7875
1859.57004	33704.2875
1862.71876	33621.1875
1865.86542	33521.4875
1869.01003	33553.7875
1872.15258	33504.8875
1875.29308	33499.9875
1878.43152	33450.3875
1881.56792	33420.1875
1884.70227	33281.2875
1887.83457	33213.2875
1890.96482	33179.1875
1894.09304	33069.4875
1897.21921	33060.9875
1900.34335	32947.4875
1903.46544	32938.8875
1906.58551	32910.7875
1909.70353	32898.9875
1912.81953	32793.9875
1915.93349	32766.2875
1919.04543	32749.9875
1922.15534	32708.4875
1925.26322	32627.0875
1928.36908	32607.9875
1931.47292	32608.2875
1934.57473	32578.6875
1937.67453	32516.9875
1940.77232	32410.4875
1943.86808	32327.5875
1946.96184	32273.2875
1950.05358	32185.9875
1953.14331	32056.5875
1956.23103	31907.5875
1959.31675	31802.8875
1962.40046	31708.0875
1965.48217	31627.4875
1968.56188	31531.8875
1971.63959	31440.1875
1974.7153	31320.0875
1977.78901	31176.2875
1980.86073	31073.6875
1983.93046	30952.6875
1986.99819	30815.9875
1990.06394	30738.3875
1993.1277	30641.5875
1996.18947	30448.4875
1999.24925	30435.8875
2002.30706	30286.7875
2005.36288	30193.7875
2008.41672	30186.9875
2011.46859	30083.5875
2014.51848	29928.5875
2017.56639	29877.4875
2020.61233	29807.6875
2023.6563	29783.8875
2026.6983	29672.2875
2029.73833	29633.3875
2032.7764	29556.8875
2035.8125	29515.0875
2038.84664	29418.7875
2041.87881	29450.7875
2044.90903	29428.1875
2047.93729	29368.1875
2050.96359	29356.9875
2053.98794	29392.0875
2057.01034	29464.5875
2060.03078	29411.5875
2063.04927	29383.9875
2066.06582	29429.7875
2069.08042	29453.0875
2072.09307	29492.6875
2075.10378	29503.9875
2078.11255	29470.4875
2081.11938	29510.9875
2084.12426	29512.7875
2087.12722	29503.2875
2090.12824	29482.8875
2093.12732	29465.6875
2096.12447	29386.7875
2099.11969	29422.6875
2102.11299	29379.1875
2105.10435	29334.7875
2108.09379	29308.4875
2111.08131	29220.3875
2114.0669	29177.5875
2117.05057	29152.4875
2120.03233	29133.6875
2123.01216	29055.6875
2125.99008	29096.5875
2128.96609	29100.3875
2131.94018	29085.2875
2134.91236	29072.2875
2137.88263	29058.5875
2140.851	29057.8875
2143.81746	29000.6875
2146.78201	28999.6875
2149.74466	28928.6875
2152.7054	28928.7875
2155.66425	28907.6875
2158.6212	28886.6875
2161.57625	28854.1875
2164.52941	28852.0875
2167.48067	28834.9875
2170.43004	28821.8875
2173.37752	28765.8875
2176.32311	28728.0875
2179.26681	28718.7875
2182.20863	28683.3875
2185.14856	28695.6875
2188.08661	28668.9875
2191.02278	28690.3875
2193.95707	28669.6875
2196.88948	28618.2875
2199.82001	28668.4875
2202.74867	28565.9875
2205.67545	28610.5875
2208.60037	28502.9875
2211.52341	28462.6875
2214.44458	28376.6875
2217.36388	28348.2875
2220.28132	28258.1875
2223.1969	28147.9875
2226.11061	28108.9875
2229.02246	28043.9875
2231.93245	27948.6875
2234.84058	27869.0875
2237.74686	27859.5875
2240.65128	27795.7875
2243.55385	27732.2875
2246.45456	27724.7875
2249.35343	27645.3875
2252.25044	27608.6875
2255.14561	27616.3875
2258.03893	27617.6875
2260.93041	27587.1875
2263.82004	27441.8875
2266.70783	27411.5875
2269.59378	27309.8875
2272.4779	27262.1875
2275.36017	27187.2875
2278.24061	27135.5875
2281.11922	27102.5875
2283.996	27020.4875
2286.87094	26940.2875
2289.74405	26950.0875
2292.61534	26947.0875
2295.4848	26923.0875
2298.35243	26920.2875
2301.21824	26829.1875
2304.08223	26792.9875
2306.94439	26771.2875
2309.80474	26772.6875
2312.66327	26735.4875
2315.51999	26719.5875
2318.37489	26606.2875
2321.22797	26531.2875
2324.07925	26493.7875
2326.92871	26442.3875
2329.77637	26388.6875
2332.62222	26291.2875
2335.46626	26259.4875
2338.3085	26220.5875
2341.14893	26283.2875
2343.98756	26206.9875
2346.8244	26123.9875
2349.65943	26063.6875
2352.49267	26100.3875
2355.32411	26093.4875
2358.15376	26103.9875
2360.98161	26063.6875
2363.80768	26057.9875
2366.63195	26014.6875
2369.45444	25948.3875
2372.27514	25928.9875
2375.09405	25882.6875
2377.91118	25920.4875
2380.72652	25868.0875
2383.54009	25777.8875
2386.35187	25745.4875
2389.16188	25669.5875
2391.97011	25639.5875
2394.77657	25588.3875
2397.58125	25549.7875
2400.38416	25521.2875
2403.18529	25423.1875
2405.98466	25348.9875
2408.78226	25291.1875
2411.57809	25301.9875
2414.37216	25273.8875
2417.16446	25255.4875
2419.955	25142.0875
2422.74378	25084.8875
2425.5308	25023.4875
2428.31606	25083.8875
2431.09956	25064.1875
2433.88131	25073.9875
2436.6613	25120.7875
2439.43954	25029.9875
2442.21603	24979.2875
2444.99077	24865.0875
2447.76377	24918.4875
2450.53501	24903.3875
2453.30451	24852.3875
2456.07226	24795.0875
2458.83827	24772.3875
2461.60254	24696.7875
2464.36507	24660.8875
2467.12586	24642.5875
2469.88492	24619.7875
2472.64224	24573.5875
2475.39782	24565.3875
2478.15167	24562.6875
2480.90379	24601.3875
2483.65417	24609.3875
2486.40283	24545.0875
2489.14976	24497.3875
2491.89497	24501.3875
2494.63845	24514.4875
2497.3802	24497.8875
2500.12024	24484.6875
2502.85855	24498.0875
2505.59514	24457.9875
2508.33002	24372.1875
2511.06318	24267.5875
2513.79462	24250.2875
2516.52435	24159.0875
2519.25237	24153.9875
2521.97867	24167.7875
2524.70327	24134.6875
2527.42616	24023.8875
2530.14734	23970.4875
2532.86681	23927.6875
2535.58458	23922.8875
2538.30065	23866.7875
2541.01501	23872.5875
2543.72768	23878.7875
2546.43864	23884.7875
2549.14791	23864.5875
2551.85548	23835.4875
2554.56136	23760.3875
2557.26554	23720.9875
2559.96803	23635.4875
2562.66883	23546.1875
2565.36794	23463.5875
2568.06536	23386.8875
2570.7611	23393.9875
2573.45514	23370.7875
2576.14751	23351.0875
2578.83819	23317.0875
2581.52719	23240.6875
2584.21451	23152.8875
2586.90015	23134.9875
2589.58411	23062.9875
2592.2664	23056.0875
2594.94701	23012.6875
2597.62594	23021.3875
2600.30321	22951.8875
2602.9788	22950.1875
2605.65273	22890.2875
2608.32498	22876.1875
2610.99557	22861.7875
2613.66449	22856.4875
2616.33175	22779.4875
2618.99734	22734.4875
2621.66128	22681.2875
2624.32355	22592.7875
2626.98416	22609.6875
2629.64311	22543.6875
2632.30041	22517.7875
2634.95605	22474.2875
2637.61004	22428.7875
2640.26238	22414.6875
2642.91306	22367.4875
2645.56209	22359.1875
2648.20948	22290.3875
2650.85521	22292.1875
2653.4993	22287.0875
2656.14175	22268.8875
2658.78255	22249.4875
2661.42171	22225.5875
2664.05923	22277.9875
2666.6951	22307.9875
2669.32934	22310.5875
2671.96194	22287.6875
2674.59291	22318.2875
2677.22224	22268.1875
2679.84993	22262.8875
2682.476	22258.5875
2685.10043	22280.6875
2687.72324	22259.7875
2690.34441	22267.3875
2692.96396	22222.7875
2695.58188	22218.9875
2698.19818	22170.8875
2700.81285	22197.1875
2703.4259	22146.8875
2706.03733	22079.9875
2708.64714	22052.7875
2711.25533	22127.8875
2713.86191	22146.1875
2716.46687	22216.2875
2719.07021	22223.9875
2721.67194	22257.3875
2724.27206	22183.0875
2726.87057	22180.3875
2729.46747	22183.2875
2732.06276	22173.1875
2734.65644	22139.6875
2737.24852	22189.6875
2739.83899	22109.5875
2742.42786	22128.8875
2745.01513	22093.3875
2747.60079	22080.1875
2750.18486	22005.3875
2752.76733	22007.8875
2755.3482	21931.3875
2757.92747	21939.1875
2760.50515	21860.3875
2763.08123	21813.0875
2765.65573	21782.7875
2768.22863	21790.3875
2770.79994	21764.4875
2773.36967	21756.5875
2775.9378	21696.1875
2778.50435	21632.1875
2781.06932	21607.8875
2783.6327	21608.9875
2786.1945	21555.5875
2788.75471	21567.4875
2791.31335	21506.4875
2793.87041	21502.9875
2796.42589	21474.7875
2798.97979	21330.7875
2801.53212	21286.5875
2804.08288	21264.8875
2806.63206	21185.6875
2809.17967	21168.8875
2811.72571	21119.7875
2814.27018	21057.7875
2816.81308	20956.5875
2819.35442	20950.8875
2821.89419	20931.4875
2824.43239	20895.0875
2826.96904	20817.0875
2829.50412	20789.2875
2832.03763	20742.2875
2834.56959	20786.4875
2837.1	20759.8875
2839.62884	20782.8875
2842.15613	20812.1875
2844.68186	20851.6875
2847.20604	20883.7875
2849.72867	20958.1875
2852.24974	20997.1875
2854.76927	20925.9875
2857.28724	20896.6875
2859.80367	20905.1875
2862.31855	20911.5875
2864.83189	20904.2875
2867.34368	20831.8875
2869.85393	20821.1875
2872.36264	20781.2875
2874.8698	20764.0875
2877.37543	20815.2875
2879.87952	20751.6875
2882.38207	20757.9875
2884.88308	20777.7875
2887.38256	20733.0875
2889.88051	20742.9875
2892.37692	20804.8875
2894.8718	20802.6875
2897.36515	20838.8875
2899.85698	20828.1875
2902.34727	20848.1875
2904.83604	20871.6875
2907.32328	20938.8875
2909.809	20952.6875
2912.29319	21032.2875
2914.77587	21026.6875
2917.25702	21046.3875
2919.73665	20996.1875
2922.21476	21038.1875
2924.69136	21016.1875
2927.16644	20970.6875
2929.64	20887.6875
2932.11205	20865.8875
2934.58258	20713.5875
2937.05161	20745.3875
2939.51912	20665.2875
2941.98513	20616.2875
2944.44962	20570.1875
2946.91261	20473.2875
2949.37409	20403.3875
2951.83407	20420.4875
2954.29254	20409.8875
2956.74951	20323.9875
2959.20498	20323.4875
2961.65895	20290.8875
2964.11142	20318.6875
2966.56239	20304.1875
2969.01186	20296.5875
2971.45984	20185.0875
2973.90632	20178.2875
2976.35131	20137.0875
2978.7948	20123.9875
2981.23681	20069.5875
2983.67732	20014.0875
2986.11635	19959.9875
2988.55388	19888.3875
2990.98993	19913.6875
2993.4245	19879.5875
2995.85758	19756.8875
2998.28917	19724.8875
3000.71928	19702.7875
3003.14791	19650.1875
3005.57506	19646.4875
3008.00073	19587.8875
3010.42493	19567.0875
3012.84764	19522.7875
3015.26888	19528.4875
3017.68865	19479.7875
3020.10694	19483.5875
3022.52376	19402.3875
3024.9391	19354.2875
3027.35298	19344.0875
3029.76539	19337.4875
3032.17632	19307.0875
3034.5858	19270.6875
3036.9938	19271.9875
3039.40034	19262.5875
3041.80542	19254.0875
3044.20903	19186.0875
3046.61118	19231.1875
3049.01187	19175.0875
3051.4111	19117.8875
3053.80888	19085.0875
3056.20519	19032.6875
3058.60005	19045.3875
3060.99345	19017.4875
3063.3854	18932.2875
3065.7759	18925.7875
3068.16494	18925.6875
3070.55254	18854.9875
3072.93868	18863.1875
3075.32338	18810.2875
3077.70662	18789.6875
3080.08842	18739.9875
3082.46878	18759.8875
3084.84769	18758.4875
3087.22515	18738.2875
3089.60118	18699.6875
3091.97576	18719.7875
3094.3489	18729.1875
3096.72061	18753.6875
3099.09087	18719.9875
3101.4597	18739.6875
3103.82709	18761.5875
3106.19305	18770.1875
3108.55757	18797.3875
3110.92066	18750.0875
3113.28232	18807.8875
3115.64255	18745.3875
3118.00134	18709.6875
3120.35871	18698.2875
3122.71466	18655.2875
3125.06917	18585.6875
3127.42226	18552.5875
3129.77393	18587.0875
3132.12417	18568.3875
3134.47299	18585.6875
3136.82039	18547.0875
3139.16636	18602.1875
3141.51092	18632.2875
3143.85406	18611.8875
3146.19579	18621.0875
3148.53609	18618.2875
3150.87499	18646.8875
3153.21246	18679.4875
3155.54853	18736.9875
3157.88318	18766.1875
3160.21642	18796.4875
3162.54826	18765.9875
3164.87868	18811.9875
3167.2077	18828.4875
3169.5353	18882.8875
3171.86151	18896.2875
3174.18631	18928.6875
3176.5097	18900.3875
3178.83169	18896.7875
3181.15228	18929.1875
3183.47147	18906.8875
3185.78926	18889.0875
3188.10565	18825.0875
3190.42065	18791.6875
3192.73424	18758.3875
3195.04645	18738.3875
3197.35725	18753.4875
3199.66667	18761.8875
3201.97469	18774.9875
3204.28132	18742.4875
3206.58656	18841.6875
3208.8904	18881.1875
3211.19287	18854.4875
3213.49394	18854.3875
3215.79363	18876.7875
3218.09193	18858.6875
3220.38884	18868.5875
3222.68438	18871.2875
3224.97853	18837.5875
3227.2713	18875.8875
3229.56269	18829.1875
3231.8527	18859.2875
3234.14133	18857.1875
3236.42858	18782.9875
3238.71446	18753.7875
3240.99896	18684.7875
3243.28209	18702.4875
3245.56384	18645.5875
3247.84423	18680.6875
3250.12324	18661.9875
3252.40088	18646.5875
3254.67715	18576.8875
3256.95205	18604.8875
3259.22558	18609.9875
3261.49775	18594.9875
3263.76855	18630.5875
3266.03799	18603.8875
3268.30606	18616.9875
3270.57277	18568.2875
3272.83812	18532.8875
3275.10211	18482.8875
3277.36474	18453.6875
3279.62601	18391.2875
3281.88593	18321.2875
3284.14448	18328.5875
3286.40168	18298.0875
3288.65753	18346.7875
3290.91202	18296.9875
3293.16516	18211.8875
3295.41695	18211.3875
3297.66738	18113.2875
3299.91647	18023.4875
3302.16421	17885.8875
3304.4106	17701.1875
3306.65564	17582.3875
3308.89933	17484.5875
3311.14169	17348.4875
3313.38269	17234.0875
3315.62236	17156.2875
3317.86068	16975.9875
3320.09766	16846.7875
3322.3333	16736.9875
3324.5676	16632.1875
3326.80056	16417.4875
3329.03219	16287.3875
3331.26248	5.5875
3333.49143	-0.4125
3335.71905	-0.7125
