Data from AgNP_FTO_APTES_UA_10uM_CRN_200uM_R6G_10uM_NaF_0.1M_Addition_RamanShift__15__18-18-10-897.txt Node

Date: Thu Feb 10 18:18:10 GMT 2022
User: TCL
Spectrometer: QEP01345
Trigger mode: 4
Integration Time (sec): 7.000000E0
Scans to average: 10
Electric dark correction enabled: true
Nonlinearity correction enabled: false
Boxcar width: 0
XAxis mode: Raman Shifts
Number of Pixels in Spectrum: 1044
>>>>>Begin Spectral Data<<<<<
46.04893	-0.5125
50.45542	-0.1125
54.85868	-1.7125
59.25871	-0.5125
63.6555	55.3875
68.04907	60.6875
72.43941	64.2875
76.82654	62.8875
81.21044	70.0875
85.59113	69.8875
89.96862	71.3875
94.34289	73.5875
98.71396	81.2875
103.08183	78.2875
107.4465	87.7875
111.80798	83.5875
116.16626	87.6875
120.52136	87.1875
124.87327	94.8875
129.222	94.6875
133.56755	104.1875
137.90993	104.8875
142.24913	113.1875
146.58517	131.0875
150.91804	151.6875
155.24774	184.8875
159.57429	221.1875
163.89768	278.8875
168.21792	369.6875
172.53501	505.5875
176.84895	694.7875
181.15975	993.7875
185.46741	1391.0875
189.77193	1934.7875
194.07331	2583.4875
198.37157	3341.8875
202.6667	4139.7875
206.9587	4931.9875
211.24758	5706.1875
215.53334	6478.2875
219.81599	7255.5875
224.09553	8126.1875
228.37195	9056.1875
232.64527	10136.2875
236.91549	11260.5875
241.18261	12415.6875
245.44663	13523.4875
249.70755	14562.0875
253.96539	15504.4875
258.22014	16246.0875
262.4718	16967.8875
266.72039	17370.7875
270.96589	17601.9875
275.20832	17711.6875
279.44768	17621.3875
283.68397	17459.5875
287.91719	17314.1875
292.14735	17192.7875
296.37445	17140.1875
300.59849	17143.8875
304.81948	17139.4875
309.03742	17036.1875
313.25231	16895.0875
317.46415	16620.9875
321.67296	16269.3875
325.87872	16036.2875
330.08145	15904.2875
334.28114	15994.5875
338.47781	16142.7875
342.67145	16303.3875
346.86207	16515.5875
351.04966	16763.9875
355.23424	17002.4875
359.4158	17271.2875
363.59435	17461.8875
367.76989	17631.2875
371.94243	17775.0875
376.11196	17894.0875
380.27849	17993.6875
384.44203	18100.7875
388.60257	18218.4875
392.76012	18343.8875
396.91468	18504.0875
401.06626	18731.8875
405.21485	18886.7875
409.36047	18830.4875
413.50311	18689.9875
417.64277	18512.4875
421.77947	18483.9875
425.9132	18520.9875
430.04396	18614.7875
434.17176	18699.3875
438.2966	18824.5875
442.41849	18996.1875
446.53742	19204.6875
450.6534	19455.3875
454.76644	19661.8875
458.87653	19789.3875
462.98368	19852.9875
467.08789	19840.4875
471.18916	19803.1875
475.2875	19710.8875
479.38291	19685.5875
483.4754	19582.7875
487.56496	19515.7875
491.6516	19366.4875
495.73531	19223.2875
499.81612	19171.2875
503.89401	19254.5875
507.96899	19322.7875
512.04106	19356.2875
516.11023	19391.2875
520.1765	19347.0875
524.23987	19229.6875
528.30034	19138.1875
532.35792	19063.3875
536.41261	18997.3875
540.46441	18931.7875
544.51333	18952.5875
548.55936	19047.3875
552.60252	19245.7875
556.64279	19533.0875
560.6802	19651.5875
564.71473	19725.5875
568.7464	19876.4875
572.7752	20114.7875
576.80114	20324.2875
580.82422	20473.1875
584.84444	20548.1875
588.86181	20604.7875
592.87633	20563.7875
596.888	20514.2875
600.89682	20554.0875
604.9028	20957.7875
608.90594	22076.9875
612.90624	23403.9875
616.90371	22701.7875
620.89834	20440.8875
624.89015	19440.7875
628.87913	19325.9875
632.86528	19410.1875
636.84862	19532.7875
640.82913	19454.4875
644.80683	19269.5875
648.78172	19061.0875
652.75379	19061.1875
656.72306	19189.0875
660.68952	19383.7875
664.65319	19407.3875
668.61405	19200.0875
672.57211	19181.3875
676.52738	19280.6875
680.47986	19276.8875
684.42955	19261.5875
688.37646	19215.3875
692.32058	19219.4875
696.26192	19304.9875
700.20048	19392.1875
704.13626	19499.8875
708.06928	19559.9875
711.99952	19554.2875
715.927	19450.6875
719.85171	19440.9875
723.77365	19428.6875
727.69284	19340.4875
731.60928	19231.6875
735.52295	19198.1875
739.43388	19153.2875
743.34206	19151.3875
747.24749	19209.2875
751.15017	19238.5875
755.05012	19387.6875
758.94733	19644.1875
762.8418	20168.8875
766.73354	20988.7875
770.62254	21869.3875
774.50882	22181.1875
778.39237	21748.9875
782.27321	20836.2875
786.15132	20047.9875
790.02671	19530.6875
793.89938	19253.7875
797.76935	19162.4875
801.6366	19086.4875
805.50115	19044.8875
809.36299	19029.8875
813.22213	18973.3875
817.07857	18947.6875
820.93231	18931.3875
824.78336	18928.4875
828.63172	18924.6875
832.47738	18909.3875
836.32036	18891.3875
840.16066	18875.2875
843.99827	18879.8875
847.8332	18868.5875
851.66546	18898.1875
855.49504	18892.3875
859.32195	18912.0875
863.1462	18915.7875
866.96777	18886.0875
870.78668	18888.0875
874.60293	18895.8875
878.41652	18911.3875
882.22745	18913.2875
886.03573	18970.5875
889.84136	18973.4875
893.64433	18979.5875
897.44466	18954.9875
901.24235	18916.6875
905.0374	18839.9875
908.8298	18779.4875
912.61957	18795.7875
916.40671	18846.3875
920.19121	18948.5875
923.97308	18989.8875
927.75233	18963.8875
931.52895	18896.8875
935.30295	18829.9875
939.07433	18661.7875
942.84309	18543.0875
946.60924	18431.4875
950.37278	18370.8875
954.13371	18309.7875
957.89203	18311.7875
961.64774	18313.8875
965.40086	18227.0875
969.15137	18199.5875
972.89929	18193.5875
976.64461	18168.7875
980.38733	18157.1875
984.12747	18150.9875
987.86502	18199.3875
991.59999	18243.9875
995.33237	18332.4875
999.06217	18432.9875
1002.78939	18504.9875
1006.51404	18617.1875
1010.23611	18722.3875
1013.95561	18814.9875
1017.67255	18835.2875
1021.38692	18808.3875
1025.09872	18752.8875
1028.80796	18682.0875
1032.51465	18635.1875
1036.21877	18688.2875
1039.92035	18709.4875
1043.61937	18762.7875
1047.31584	18751.8875
1051.00976	18807.1875
1054.70114	18822.8875
1058.38998	18909.3875
1062.07627	19035.9875
1065.76003	19144.3875
1069.44126	19263.2875
1073.11995	19372.5875
1076.79611	19462.3875
1080.46974	19531.7875
1084.14085	19573.1875
1087.80943	19637.9875
1091.47549	19743.2875
1095.13903	19762.5875
1098.80005	19690.8875
1102.45857	19510.5875
1106.11456	19326.2875
1109.76805	19182.5875
1113.41903	19215.5875
1117.06751	19247.9875
1120.71348	19357.9875
1124.35696	19477.0875
1127.99793	19650.3875
1131.63641	19728.5875
1135.2724	19648.4875
1138.90589	19467.4875
1142.5369	19349.5875
1146.16542	19297.6875
1149.79145	19324.1875
1153.415	19352.7875
1157.03607	19452.7875
1160.65467	19672.1875
1164.27079	20021.9875
1167.88443	20465.6875
1171.49561	20970.3875
1175.10432	21721.8875
1178.71056	22687.5875
1182.31434	23597.8875
1185.91565	24197.6875
1189.51451	24323.8875
1193.11091	24156.4875
1196.70485	23667.0875
1200.29634	23109.7875
1203.88538	22547.6875
1207.47197	22153.5875
1211.05612	21723.6875
1214.63782	21395.1875
1218.21708	21080.2875
1221.79391	20806.8875
1225.36829	20585.4875
1228.94024	20465.7875
1232.50976	20359.9875
1236.07685	20355.0875
1239.6415	20333.2875
1243.20374	20388.6875
1246.76355	20495.3875
1250.32093	20616.3875
1253.8759	20808.6875
1257.42845	21052.4875
1260.97859	21347.9875
1264.52631	21665.2875
1268.07163	21926.1875
1271.61453	22205.7875
1275.15503	22393.6875
1278.69312	22605.4875
1282.22882	22806.4875
1285.76211	23038.9875
1289.29301	23398.8875
1292.82151	23851.2875
1296.34761	24414.7875
1299.87133	25063.2875
1303.39266	25839.4875
1306.9116	26631.2875
1310.42815	27318.5875
1313.94233	27693.0875
1317.45412	27593.2875
1320.96354	27344.1875
1324.47058	27075.6875
1327.97525	26837.4875
1331.47754	26700.8875
1334.97747	26701.5875
1338.47502	26818.1875
1341.97022	27073.9875
1345.46305	27334.3875
1348.95352	27491.0875
1352.44163	27617.2875
1355.92738	27787.9875
1359.41078	28186.5875
1362.89183	28694.7875
1366.37053	28178.4875
1369.84688	26551.8875
1373.32088	24762.5875
1376.79254	23499.2875
1380.26186	22867.0875
1383.72883	22645.0875
1387.19347	22517.8875
1390.65578	22349.5875
1394.11575	22166.2875
1397.57339	22077.2875
1401.0287	22011.7875
1404.48168	21960.5875
1407.93234	21858.0875
1411.38068	21659.6875
1414.82669	21355.5875
1418.27039	20976.9875
1421.71177	20592.4875
1425.15083	20289.1875
1428.58758	20092.3875
1432.02203	20102.6875
1435.45416	20215.7875
1438.88399	20411.9875
1442.31151	20563.8875
1445.73673	20688.8875
1449.15965	20829.9875
1452.58027	20982.1875
1455.9986	21030.9875
1459.41463	21154.6875
1462.82837	21356.2875
1466.23982	21482.8875
1469.64898	21692.4875
1473.05586	21820.9875
1476.46045	21818.9875
1479.86276	21842.7875
1483.26279	21836.8875
1486.66054	21910.1875
1490.05602	22039.8875
1493.44922	22278.9875
1496.84016	22753.6875
1500.22882	23444.6875
1503.61521	24368.4875
1506.99934	25363.6875
1510.38121	26111.0875
1513.76081	26234.4875
1517.13816	25730.0875
1520.51324	24804.3875
1523.88607	23989.8875
1527.25665	23464.4875
1530.62498	23194.1875
1533.99105	23020.7875
1537.35488	22816.7875
1540.71647	22582.3875
1544.07581	22290.0875
1547.4329	21968.3875
1550.78776	21775.4875
1554.14038	21648.7875
1557.49077	21596.2875
1560.83892	21613.1875
1564.18484	21707.9875
1567.52853	21813.6875
1570.86999	21940.6875
1574.20922	22099.8875
1577.54624	22216.9875
1580.88103	22086.6875
1584.2136	21906.7875
1587.54395	21800.4875
1590.87208	21954.1875
1594.19801	22320.3875
1597.52172	22892.1875
1600.84321	23104.3875
1604.16251	22710.2875
1607.47959	22060.4875
1610.79447	21409.2875
1614.10715	20633.4875
1617.41763	19842.4875
1620.7259	19219.4875
1624.03199	18842.0875
1627.33587	18691.6875
1630.63757	18787.8875
1633.93707	19156.5875
1637.23439	19803.1875
1640.52951	20845.5875
1643.82246	22155.4875
1647.11321	23340.6875
1650.40179	23904.4875
1653.68819	23439.7875
1656.97241	21990.9875
1660.25446	20368.0875
1663.53433	19074.7875
1666.81203	18115.4875
1670.08756	17501.2875
1673.36092	17078.2875
1676.63211	16801.3875
1679.90115	16565.5875
1683.16801	16432.3875
1686.43272	16316.6875
1689.69527	16248.6875
1692.95567	16165.3875
1696.2139	16140.1875
1699.46999	16119.1875
1702.72392	16077.5875
1705.97571	16052.3875
1709.22535	15999.4875
1712.47284	15966.4875
1715.71819	15984.8875
1718.96139	15949.9875
1722.20246	15934.9875
1725.44139	15885.5875
1728.67818	15816.2875
1731.91284	15735.7875
1735.14537	15651.4875
1738.37576	15618.6875
1741.60403	15603.3875
1744.83017	15575.1875
1748.05418	15561.0875
1751.27607	15500.4875
1754.49584	15498.9875
1757.71349	15513.9875
1760.92903	15513.2875
1764.14244	15450.2875
1767.35375	15459.9875
1770.56294	15397.5875
1773.77002	15440.6875
1776.97499	15379.6875
1780.17785	15337.1875
1783.37861	15309.0875
1786.57727	15257.9875
1789.77382	15262.0875
1792.96828	15195.1875
1796.16064	15150.4875
1799.3509	15154.9875
1802.53907	15118.9875
1805.72514	15100.5875
1808.90913	15032.7875
1812.09102	15032.4875
1815.27083	14975.8875
1818.44856	14975.2875
1821.6242	14938.5875
1824.79776	14904.5875
1827.96924	14874.7875
1831.13864	14907.0875
1834.30597	14857.5875
1837.47122	14839.0875
1840.6344	14796.9875
1843.7955	14801.7875
1846.95454	14802.1875
1850.11151	14761.2875
1853.26642	14760.4875
1856.41926	14782.0875
1859.57004	14802.6875
1862.71876	14703.1875
1865.86542	14722.4875
1869.01003	14714.0875
1872.15258	14659.1875
1875.29308	14672.2875
1878.43152	14657.6875
1881.56792	14615.1875
1884.70227	14613.9875
1887.83457	14569.6875
1890.96482	14546.1875
1894.09304	14500.5875
1897.21921	14483.3875
1900.34335	14447.8875
1903.46544	14431.1875
1906.58551	14443.1875
1909.70353	14434.9875
1912.81953	14411.8875
1915.93349	14379.5875
1919.04543	14370.5875
1922.15534	14306.1875
1925.26322	14264.3875
1928.36908	14258.9875
1931.47292	14240.7875
1934.57473	14218.1875
1937.67453	14154.5875
1940.77232	14146.7875
1943.86808	14086.5875
1946.96184	14045.6875
1950.05358	14027.8875
1953.14331	13985.1875
1956.23103	13911.7875
1959.31675	13858.6875
1962.40046	13855.8875
1965.48217	13800.0875
1968.56188	13750.9875
1971.63959	13709.8875
1974.7153	13679.7875
1977.78901	13645.2875
1980.86073	13567.7875
1983.93046	13557.4875
1986.99819	13518.2875
1990.06394	13498.2875
1993.1277	13470.1875
1996.18947	13393.8875
1999.24925	13344.3875
2002.30706	13327.5875
2005.36288	13265.1875
2008.41672	13231.5875
2011.46859	13180.3875
2014.51848	13167.5875
2017.56639	13124.3875
2020.61233	13104.1875
2023.6563	13050.1875
2026.6983	13019.4875
2029.73833	12965.3875
2032.7764	12911.7875
2035.8125	12892.1875
2038.84664	12860.8875
2041.87881	12851.6875
2044.90903	12826.0875
2047.93729	12754.8875
2050.96359	12771.9875
2053.98794	12727.6875
2057.01034	12731.2875
2060.03078	12692.8875
2063.04927	12690.8875
2066.06582	12718.7875
2069.08042	12697.9875
2072.09307	12690.8875
2075.10378	12670.6875
2078.11255	12680.0875
2081.11938	12672.8875
2084.12426	12642.9875
2087.12722	12656.8875
2090.12824	12629.1875
2093.12732	12614.7875
2096.12447	12644.1875
2099.11969	12633.3875
2102.11299	12618.7875
2105.10435	12609.0875
2108.09379	12587.0875
2111.08131	12623.7875
2114.0669	12618.5875
2117.05057	12626.3875
2120.03233	12618.5875
2123.01216	12638.6875
2125.99008	12649.7875
2128.96609	12642.4875
2131.94018	12670.6875
2134.91236	12702.5875
2137.88263	12667.7875
2140.851	12684.3875
2143.81746	12681.9875
2146.78201	12667.4875
2149.74466	12705.4875
2152.7054	12666.0875
2155.66425	12669.8875
2158.6212	12668.4875
2161.57625	12656.7875
2164.52941	12664.8875
2167.48067	12631.7875
2170.43004	12624.5875
2173.37752	12619.5875
2176.32311	12605.6875
2179.26681	12642.8875
2182.20863	12614.4875
2185.14856	12635.2875
2188.08661	12616.6875
2191.02278	12590.3875
2193.95707	12604.4875
2196.88948	12587.1875
2199.82001	12617.5875
2202.74867	12562.5875
2205.67545	12542.0875
2208.60037	12510.7875
2211.52341	12482.0875
2214.44458	12465.6875
2217.36388	12425.9875
2220.28132	12429.8875
2223.1969	12379.4875
2226.11061	12377.2875
2229.02246	12315.0875
2231.93245	12287.4875
2234.84058	12299.7875
2237.74686	12251.7875
2240.65128	12227.3875
2243.55385	12202.3875
2246.45456	12174.5875
2249.35343	12172.1875
2252.25044	12160.5875
2255.14561	12138.6875
2258.03893	12132.2875
2260.93041	12086.0875
2263.82004	12078.1875
2266.70783	12052.5875
2269.59378	12016.0875
2272.4779	11963.7875
2275.36017	11938.4875
2278.24061	11924.0875
2281.11922	11883.2875
2283.996	11900.9875
2286.87094	11887.3875
2289.74405	11862.9875
2292.61534	11832.0875
2295.4848	11814.4875
2298.35243	11801.6875
2301.21824	11793.3875
2304.08223	11785.3875
2306.94439	11794.8875
2309.80474	11772.1875
2312.66327	11758.9875
2315.51999	11699.1875
2318.37489	11695.5875
2321.22797	11691.1875
2324.07925	11647.2875
2326.92871	11652.1875
2329.77637	11624.9875
2332.62222	11620.4875
2335.46626	11605.9875
2338.3085	11576.8875
2341.14893	11553.7875
2343.98756	11552.4875
2346.8244	11541.3875
2349.65943	11501.3875
2352.49267	11500.1875
2355.32411	11510.8875
2358.15376	11498.2875
2360.98161	11499.7875
2363.80768	11475.7875
2366.63195	11453.6875
2369.45444	11462.8875
2372.27514	11446.0875
2375.09405	11403.4875
2377.91118	11442.1875
2380.72652	11388.8875
2383.54009	11340.4875
2386.35187	11323.6875
2389.16188	11274.7875
2391.97011	11259.0875
2394.77657	11225.0875
2397.58125	11184.8875
2400.38416	11195.7875
2403.18529	11164.2875
2405.98466	11163.5875
2408.78226	11138.8875
2411.57809	11082.5875
2414.37216	11068.4875
2417.16446	11079.4875
2419.955	11061.2875
2422.74378	11047.8875
2425.5308	11055.8875
2428.31606	11039.7875
2431.09956	11022.7875
2433.88131	11012.2875
2436.6613	11006.7875
2439.43954	10974.2875
2442.21603	10995.5875
2444.99077	10968.0875
2447.76377	10984.9875
2450.53501	10945.9875
2453.30451	10919.7875
2456.07226	10903.5875
2458.83827	10915.3875
2461.60254	10915.9875
2464.36507	10895.1875
2467.12586	10838.4875
2469.88492	10843.3875
2472.64224	10832.8875
2475.39782	10837.6875
2478.15167	10826.4875
2480.90379	10815.1875
2483.65417	10821.9875
2486.40283	10828.6875
2489.14976	10799.0875
2491.89497	10822.8875
2494.63845	10811.3875
2497.3802	10745.8875
2500.12024	10765.2875
2502.85855	10733.4875
2505.59514	10745.8875
2508.33002	10703.1875
2511.06318	10689.8875
2513.79462	10667.7875
2516.52435	10646.3875
2519.25237	10675.1875
2521.97867	10606.8875
2524.70327	10622.8875
2527.42616	10588.5875
2530.14734	10619.6875
2532.86681	10592.2875
2535.58458	10602.2875
2538.30065	10579.7875
2541.01501	10547.3875
2543.72768	10531.2875
2546.43864	10496.6875
2549.14791	10512.8875
2551.85548	10475.4875
2554.56136	10474.2875
2557.26554	10446.4875
2559.96803	10407.9875
2562.66883	10370.2875
2565.36794	10343.5875
2568.06536	10343.8875
2570.7611	10304.8875
2573.45514	10276.5875
2576.14751	10288.0875
2578.83819	10262.3875
2581.52719	10231.8875
2584.21451	10219.8875
2586.90015	10201.0875
2589.58411	10177.7875
2592.2664	10201.0875
2594.94701	10134.4875
2597.62594	10122.6875
2600.30321	10109.0875
2602.9788	10092.4875
2605.65273	10044.8875
2608.32498	10041.4875
2610.99557	10039.3875
2613.66449	10028.3875
2616.33175	10017.0875
2618.99734	9978.1875
2621.66128	9954.9875
2624.32355	9941.5875
2626.98416	9939.6875
2629.64311	9942.7875
2632.30041	9929.4875
2634.95605	9882.5875
2637.61004	9857.1875
2640.26238	9862.9875
2642.91306	9852.4875
2645.56209	9856.2875
2648.20948	9842.4875
2650.85521	9834.7875
2653.4993	9821.0875
2656.14175	9819.4875
2658.78255	9813.3875
2661.42171	9814.7875
2664.05923	9813.6875
2666.6951	9821.5875
2669.32934	9823.3875
2671.96194	9794.0875
2674.59291	9796.7875
2677.22224	9793.5875
2679.84993	9815.4875
2682.476	9799.8875
2685.10043	9794.5875
2687.72324	9744.5875
2690.34441	9765.7875
2692.96396	9786.8875
2695.58188	9770.3875
2698.19818	9729.8875
2700.81285	9763.6875
2703.4259	9748.1875
2706.03733	9788.1875
2708.64714	9758.0875
2711.25533	9770.0875
2713.86191	9747.4875
2716.46687	9753.5875
2719.07021	9753.6875
2721.67194	9766.0875
2724.27206	9729.7875
2726.87057	9732.2875
2729.46747	9746.2875
2732.06276	9740.2875
2734.65644	9737.6875
2737.24852	9715.1875
2739.83899	9688.9875
2742.42786	9706.6875
2745.01513	9659.6875
2747.60079	9663.3875
2750.18486	9616.4875
2752.76733	9609.6875
2755.3482	9622.9875
2757.92747	9617.5875
2760.50515	9561.4875
2763.08123	9564.9875
2765.65573	9539.5875
2768.22863	9532.5875
2770.79994	9521.2875
2773.36967	9510.7875
2775.9378	9505.6875
2778.50435	9469.4875
2781.06932	9468.2875
2783.6327	9470.0875
2786.1945	9484.9875
2788.75471	9440.8875
2791.31335	9452.0875
2793.87041	9414.2875
2796.42589	9388.7875
2798.97979	9392.9875
2801.53212	9377.8875
2804.08288	9334.4875
2806.63206	9306.0875
2809.17967	9281.7875
2811.72571	9236.3875
2814.27018	9249.5875
2816.81308	9193.9875
2819.35442	9191.4875
2821.89419	9158.1875
2824.43239	9177.3875
2826.96904	9141.6875
2829.50412	9133.4875
2832.03763	9127.2875
2834.56959	9137.7875
2837.1	9100.1875
2839.62884	9104.6875
2842.15613	9111.4875
2844.68186	9126.9875
2847.20604	9139.3875
2849.72867	9146.2875
2852.24974	9123.1875
2854.76927	9119.2875
2857.28724	9084.6875
2859.80367	9085.5875
2862.31855	9064.1875
2864.83189	9059.7875
2867.34368	9017.0875
2869.85393	9016.7875
2872.36264	9005.2875
2874.8698	9014.5875
2877.37543	8989.6875
2879.87952	8993.0875
2882.38207	9000.4875
2884.88308	8989.7875
2887.38256	8992.3875
2889.88051	8985.6875
2892.37692	8948.8875
2894.8718	8953.7875
2897.36515	8984.8875
2899.85698	8974.7875
2902.34727	8976.2875
2904.83604	8965.6875
2907.32328	9004.6875
2909.809	8964.8875
2912.29319	8968.9875
2914.77587	8968.1875
2917.25702	8969.4875
2919.73665	8953.2875
2922.21476	8958.2875
2924.69136	8933.8875
2927.16644	8957.4875
2929.64	8934.8875
2932.11205	8914.0875
2934.58258	8899.6875
2937.05161	8903.1875
2939.51912	8901.0875
2941.98513	8889.8875
2944.44962	8855.3875
2946.91261	8844.2875
2949.37409	8833.7875
2951.83407	8830.2875
2954.29254	8838.1875
2956.74951	8809.3875
2959.20498	8811.0875
2961.65895	8809.5875
2964.11142	8783.2875
2966.56239	8756.2875
2969.01186	8771.2875
2971.45984	8756.7875
2973.90632	8742.3875
2976.35131	8702.9875
2978.7948	8721.2875
2981.23681	8681.1875
2983.67732	8693.4875
2986.11635	8669.9875
2988.55388	8645.1875
2990.98993	8623.1875
2993.4245	8609.1875
2995.85758	8576.2875
2998.28917	8554.3875
3000.71928	8536.0875
3003.14791	8521.9875
3005.57506	8513.4875
3008.00073	8501.1875
3010.42493	8488.4875
3012.84764	8492.1875
3015.26888	8465.1875
3017.68865	8444.3875
3020.10694	8445.3875
3022.52376	8414.4875
3024.9391	8413.2875
3027.35298	8383.8875
3029.76539	8392.3875
3032.17632	8384.1875
3034.5858	8374.4875
3036.9938	8386.7875
3039.40034	8366.1875
3041.80542	8340.9875
3044.20903	8321.7875
3046.61118	8333.9875
3049.01187	8307.0875
3051.4111	8318.1875
3053.80888	8281.8875
3056.20519	8259.1875
3058.60005	8247.4875
3060.99345	8239.3875
3063.3854	8208.8875
3065.7759	8199.6875
3068.16494	8198.1875
3070.55254	8179.2875
3072.93868	8172.0875
3075.32338	8113.5875
3077.70662	8144.0875
3080.08842	8111.8875
3082.46878	8096.6875
3084.84769	8072.1875
3087.22515	8096.2875
3089.60118	8087.5875
3091.97576	8100.5875
3094.3489	8088.2875
3096.72061	8075.3875
3099.09087	8080.7875
3101.4597	8071.8875
3103.82709	8073.3875
3106.19305	8054.2875
3108.55757	8054.6875
3110.92066	8042.9875
3113.28232	8045.0875
3115.64255	8017.8875
3118.00134	7993.2875
3120.35871	7999.6875
3122.71466	7959.1875
3125.06917	7953.9875
3127.42226	7925.8875
3129.77393	7925.9875
3132.12417	7931.6875
3134.47299	7927.4875
3136.82039	7911.8875
3139.16636	7940.4875
3141.51092	7940.2875
3143.85406	7932.1875
3146.19579	7929.1875
3148.53609	7904.6875
3150.87499	7908.5875
3153.21246	7946.8875
3155.54853	7940.9875
3157.88318	7941.8875
3160.21642	7957.0875
3162.54826	7950.5875
3164.87868	7956.0875
3167.2077	7951.0875
3169.5353	7944.4875
3171.86151	7944.3875
3174.18631	7942.8875
3176.5097	7945.8875
3178.83169	7937.0875
3181.15228	7927.5875
3183.47147	7904.6875
3185.78926	7893.8875
3188.10565	7897.1875
3190.42065	7886.6875
3192.73424	7859.3875
3195.04645	7860.5875
3197.35725	7850.9875
3199.66667	7835.2875
3201.97469	7861.7875
3204.28132	7890.5875
3206.58656	7887.5875
3208.8904	7857.9875
3211.19287	7888.1875
3213.49394	7883.0875
3215.79363	7888.9875
3218.09193	7912.2875
3220.38884	7885.0875
3222.68438	7867.1875
3224.97853	7847.3875
3227.2713	7835.3875
3229.56269	7837.4875
3231.8527	7838.7875
3234.14133	7827.7875
3236.42858	7830.4875
3238.71446	7802.5875
3240.99896	7784.2875
3243.28209	7761.9875
3245.56384	7764.9875
3247.84423	7764.9875
3250.12324	7758.6875
3252.40088	7741.1875
3254.67715	7723.2875
3256.95205	7690.7875
3259.22558	7711.7875
3261.49775	7697.3875
3263.76855	7692.1875
3266.03799	7663.6875
3268.30606	7662.9875
3270.57277	7651.7875
3272.83812	7651.2875
3275.10211	7621.5875
3277.36474	7614.5875
3279.62601	7620.8875
3281.88593	7565.6875
3284.14448	7574.4875
3286.40168	7574.3875
3288.65753	7583.8875
3290.91202	7572.3875
3293.16516	7568.3875
3295.41695	7520.1875
3297.66738	7486.7875
3299.91647	7433.1875
3302.16421	7373.3875
3304.4106	7363.4875
3306.65564	7337.7875
3308.89933	7279.9875
3311.14169	7221.3875
3313.38269	7160.6875
3315.62236	7122.2875
3317.86068	7031.4875
3320.09766	6994.9875
3322.3333	6951.8875
3324.5676	6922.4875
3326.80056	6792.0875
3329.03219	6751.0875
3331.26248	3.3875
3333.49143	0.4875
3335.71905	-0.9125
