Data from AgNP_FTO_APTES_UA_10uM_CRN_100uM_R6G_10uM_NaF_0.1M_Addition_RamanShift__3__17-28-00-835.txt Node

Date: Thu Feb 10 17:28:00 GMT 2022
User: TCL
Spectrometer: QEP01345
Trigger mode: 4
Integration Time (sec): 7.000000E0
Scans to average: 10
Electric dark correction enabled: true
Nonlinearity correction enabled: false
Boxcar width: 0
XAxis mode: Raman Shifts
Number of Pixels in Spectrum: 1044
>>>>>Begin Spectral Data<<<<<
46.04893	-1.6625
50.45542	-0.3625
54.85868	-1.2625
59.25871	-0.3625
63.6555	57.2375
68.04907	63.9375
72.43941	67.8375
76.82654	69.7375
81.21044	69.6375
85.59113	71.5375
89.96862	76.0375
94.34289	79.0375
98.71396	83.5375
103.08183	85.7375
107.4465	89.1375
111.80798	90.7375
116.16626	91.2375
120.52136	95.3375
124.87327	98.0375
129.222	101.7375
133.56755	108.5375
137.90993	115.6375
142.24913	121.2375
146.58517	141.9375
150.91804	163.2375
155.24774	193.5375
159.57429	234.7375
163.89768	300.8375
168.21792	390.8375
172.53501	539.4375
176.84895	750.2375
181.15975	1037.7375
185.46741	1472.2375
189.77193	2045.2375
194.07331	2713.8375
198.37157	3507.4375
202.6667	4328.6375
206.9587	5137.4375
211.24758	5942.8375
215.53334	6748.8375
219.81599	7571.9375
224.09553	8496.8375
228.37195	9499.9375
232.64527	10589.2375
236.91549	11780.1375
241.18261	12941.5375
245.44663	14127.7375
249.70755	15169.0375
253.96539	16097.0375
258.22014	16921.5375
262.4718	17584.9375
266.72039	18026.0375
270.96589	18271.8375
275.20832	18313.8375
279.44768	18231.0375
283.68397	18089.4375
287.91719	17927.3375
292.14735	17802.5375
296.37445	17777.7375
300.59849	17810.0375
304.81948	17844.9375
309.03742	17754.7375
313.25231	17609.2375
317.46415	17352.1375
321.67296	17017.7375
325.87872	16734.5375
330.08145	16622.9375
334.28114	16627.9375
338.47781	16710.8375
342.67145	16913.8375
346.86207	17128.5375
351.04966	17357.7375
355.23424	17649.8375
359.4158	17888.2375
363.59435	18072.6375
367.76989	18266.1375
371.94243	18389.2375
376.11196	18509.8375
380.27849	18585.8375
384.44203	18687.9375
388.60257	18868.1375
392.76012	19019.8375
396.91468	19246.9375
401.06626	19482.3375
405.21485	19658.1375
409.36047	19628.0375
413.50311	19524.0375
417.64277	19390.4375
421.77947	19428.6375
425.9132	19496.6375
430.04396	19621.1375
434.17176	19700.5375
438.2966	19815.9375
442.41849	20030.9375
446.53742	20435.3375
450.6534	20913.5375
454.76644	21276.0375
458.87653	21443.8375
462.98368	21329.5375
467.08789	21176.1375
471.18916	20978.3375
475.2875	20806.1375
479.38291	20736.9375
483.4754	20625.5375
487.56496	20411.5375
491.6516	20145.7375
495.73531	19883.2375
499.81612	19750.5375
503.89401	19813.0375
507.96899	19950.6375
512.04106	19887.9375
516.11023	19835.4375
520.1765	19646.9375
524.23987	19519.6375
528.30034	19348.4375
532.35792	19227.0375
536.41261	19071.7375
540.46441	18978.8375
544.51333	19018.2375
548.55936	19216.0375
552.60252	19515.0375
556.64279	19856.5375
560.6802	20087.3375
564.71473	20242.5375
568.7464	20514.3375
572.7752	20949.8375
576.80114	21419.5375
580.82422	21891.4375
584.84444	22446.1375
588.86181	23060.5375
592.87633	23459.6375
596.888	23236.1375
600.89682	22575.3375
604.9028	22505.2375
608.90594	23485.2375
612.90624	24588.1375
616.90371	23312.1375
620.89834	20710.7375
624.89015	19601.3375
628.87913	19491.9375
632.86528	19605.6375
636.84862	19613.9375
640.82913	19355.0375
644.80683	19088.4375
648.78172	18853.4375
652.75379	18866.9375
656.72306	18978.2375
660.68952	19158.9375
664.65319	19081.0375
668.61405	18838.1375
672.57211	18833.0375
676.52738	18894.2375
680.47986	18917.6375
684.42955	18848.4375
688.37646	18821.6375
692.32058	18894.5375
696.26192	19056.0375
700.20048	19262.2375
704.13626	19420.0375
708.06928	19399.9375
711.99952	19324.8375
715.927	19336.1375
719.85171	19346.9375
723.77365	19303.2375
727.69284	19183.0375
731.60928	18951.4375
735.52295	18875.1375
739.43388	18880.5375
743.34206	18893.6375
747.24749	19009.7375
751.15017	19129.2375
755.05012	19406.1375
758.94733	19801.0375
762.8418	20484.1375
766.73354	21457.1375
770.62254	22290.2375
774.50882	22479.2375
778.39237	21672.0375
782.27321	20575.3375
786.15132	19733.2375
790.02671	19179.7375
793.89938	18952.4375
797.76935	18804.2375
801.6366	18798.7375
805.50115	18745.3375
809.36299	18684.5375
813.22213	18581.4375
817.07857	18497.0375
820.93231	18476.0375
824.78336	18435.9375
828.63172	18366.4375
832.47738	18408.1375
836.32036	18359.9375
840.16066	18385.7375
843.99827	18462.3375
847.8332	18427.8375
851.66546	18379.0375
855.49504	18418.1375
859.32195	18430.2375
863.1462	18393.5375
866.96777	18327.7375
870.78668	18314.6375
874.60293	18360.8375
878.41652	18350.7375
882.22745	18361.6375
886.03573	18396.8375
889.84136	18377.9375
893.64433	18342.3375
897.44466	18307.7375
901.24235	18241.8375
905.0374	18198.0375
908.8298	18189.4375
912.61957	18236.7375
916.40671	18379.2375
920.19121	18554.8375
923.97308	18671.2375
927.75233	18620.5375
931.52895	18543.1375
935.30295	18300.5375
939.07433	18049.2375
942.84309	17866.7375
946.60924	17807.1375
950.37278	17809.5375
954.13371	17771.8375
957.89203	17758.0375
961.64774	17709.9375
965.40086	17715.3375
969.15137	17658.6375
972.89929	17605.0375
976.64461	17545.0375
980.38733	17556.2375
984.12747	17576.9375
987.86502	17669.1375
991.59999	17743.7375
995.33237	17907.0375
999.06217	18172.6375
1002.78939	18429.3375
1006.51404	18682.3375
1010.23611	18843.6375
1013.95561	18985.5375
1017.67255	19012.2375
1021.38692	18882.3375
1025.09872	18670.3375
1028.80796	18641.4375
1032.51465	18808.3375
1036.21877	19028.9375
1039.92035	19137.2375
1043.61937	19053.0375
1047.31584	18885.6375
1051.00976	18756.9375
1054.70114	18724.1375
1058.38998	18757.3375
1062.07627	18884.8375
1065.76003	18993.6375
1069.44126	19135.2375
1073.11995	19349.9375
1076.79611	19486.6375
1080.46974	19574.8375
1084.14085	19649.1375
1087.80943	19774.6375
1091.47549	19918.9375
1095.13903	19904.6375
1098.80005	19762.1375
1102.45857	19503.6375
1106.11456	19233.1375
1109.76805	19142.0375
1113.41903	19127.9375
1117.06751	19171.1375
1120.71348	19310.0375
1124.35696	19411.9375
1127.99793	19567.7375
1131.63641	19686.1375
1135.2724	19657.5375
1138.90589	19610.9375
1142.5369	19625.7375
1146.16542	19742.4375
1149.79145	19845.8375
1153.415	19992.3375
1157.03607	20231.5375
1160.65467	20763.1375
1164.27079	21527.9375
1167.88443	22438.2375
1171.49561	23326.0375
1175.10432	24386.1375
1178.71056	25730.7375
1182.31434	26996.4375
1185.91565	27634.2375
1189.51451	27523.7375
1193.11091	27017.3375
1196.70485	26257.9375
1200.29634	25544.9375
1203.88538	25171.6375
1207.47197	24947.8375
1211.05612	24714.2375
1214.63782	24284.9375
1218.21708	23671.5375
1221.79391	23064.5375
1225.36829	22638.0375
1228.94024	22282.0375
1232.50976	22067.9375
1236.07685	21839.2375
1239.6415	21776.2375
1243.20374	21862.5375
1246.76355	22024.7375
1250.32093	22300.7375
1253.8759	22631.0375
1257.42845	23085.3375
1260.97859	23554.2375
1264.52631	24042.9375
1268.07163	24566.1375
1271.61453	25110.3375
1275.15503	25685.4375
1278.69312	26257.4375
1282.22882	26850.0375
1285.76211	27533.5375
1289.29301	28425.0375
1292.82151	29520.7375
1296.34761	31041.9375
1299.87133	32645.7375
1303.39266	34264.9375
1306.9116	35713.0375
1310.42815	36724.8375
1313.94233	37120.8375
1317.45412	36815.6375
1320.96354	36318.2375
1324.47058	35951.0375
1327.97525	35637.7375
1331.47754	35356.9375
1334.97747	35136.8375
1338.47502	34901.1375
1341.97022	34528.8375
1345.46305	34041.6375
1348.95352	33690.6375
1352.44163	33572.0375
1355.92738	34068.1375
1359.41078	35044.6375
1362.89183	35712.6375
1366.37053	35055.6375
1369.84688	32693.5375
1373.32088	29789.3375
1376.79254	27872.9375
1380.26186	27285.9375
1383.72883	27400.4375
1387.19347	27517.8375
1390.65578	27378.7375
1394.11575	27348.3375
1397.57339	27549.5375
1401.0287	28020.5375
1404.48168	28319.5375
1407.93234	28239.9375
1411.38068	27709.1375
1414.82669	26832.1375
1418.27039	25809.5375
1421.71177	24835.0375
1425.15083	23985.8375
1428.58758	23588.3375
1432.02203	23726.3375
1435.45416	24266.0375
1438.88399	24920.7375
1442.31151	25478.1375
1445.73673	25811.1375
1449.15965	26005.4375
1452.58027	26061.3375
1455.9986	26048.7375
1459.41463	26139.1375
1462.82837	26407.9375
1466.23982	26809.5375
1469.64898	27142.8375
1473.05586	27409.0375
1476.46045	27445.1375
1479.86276	27278.1375
1483.26279	27028.7375
1486.66054	26783.0375
1490.05602	26829.4375
1493.44922	26925.1375
1496.84016	27170.8375
1500.22882	27521.9375
1503.61521	28145.0375
1506.99934	28875.6375
1510.38121	29436.2375
1513.76081	29589.2375
1517.13816	29182.1375
1520.51324	28571.6375
1523.88607	28103.5375
1527.25665	27960.7375
1530.62498	28041.9375
1533.99105	28021.5375
1537.35488	27729.0375
1540.71647	27232.4375
1544.07581	26597.8375
1547.4329	25955.5375
1550.78776	25381.5375
1554.14038	24995.9375
1557.49077	24809.0375
1560.83892	24650.6375
1564.18484	24597.3375
1567.52853	24632.2375
1570.86999	24837.7375
1574.20922	25306.5375
1577.54624	25733.5375
1580.88103	25974.6375
1584.2136	26316.5375
1587.54395	26988.2375
1590.87208	28144.5375
1594.19801	29481.0375
1597.52172	30621.5375
1600.84321	30758.2375
1604.16251	29435.5375
1607.47959	27448.8375
1610.79447	25405.6375
1614.10715	23624.5375
1617.41763	22221.0375
1620.7259	21297.6375
1624.03199	20795.8375
1627.33587	20838.5375
1630.63757	21393.7375
1633.93707	22488.1375
1637.23439	24258.1375
1640.52951	26808.8375
1643.82246	29770.1375
1647.11321	32046.1375
1650.40179	32252.1375
1653.68819	30122.7375
1656.97241	26655.6375
1660.25446	23350.1375
1663.53433	20958.2375
1666.81203	19367.5375
1670.08756	18416.2375
1673.36092	17773.4375
1676.63211	17363.0375
1679.90115	17072.3375
1683.16801	16863.8375
1686.43272	16693.3375
1689.69527	16574.6375
1692.95567	16466.8375
1696.2139	16406.5375
1699.46999	16349.6375
1702.72392	16316.8375
1705.97571	16280.0375
1709.22535	16210.5375
1712.47284	16202.1375
1715.71819	16180.8375
1718.96139	16155.7375
1722.20246	16115.6375
1725.44139	16073.9375
1728.67818	15972.0375
1731.91284	15865.5375
1735.14537	15825.7375
1738.37576	15760.2375
1741.60403	15691.5375
1744.83017	15671.9375
1748.05418	15617.7375
1751.27607	15597.2375
1754.49584	15588.0375
1757.71349	15595.9375
1760.92903	15566.3375
1764.14244	15533.0375
1767.35375	15531.4375
1770.56294	15488.4375
1773.77002	15484.4375
1776.97499	15498.3375
1780.17785	15430.9375
1783.37861	15419.1375
1786.57727	15379.8375
1789.77382	15325.0375
1792.96828	15303.5375
1796.16064	15257.7375
1799.3509	15271.2375
1802.53907	15243.1375
1805.72514	15197.5375
1808.90913	15161.2375
1812.09102	15143.0375
1815.27083	15115.3375
1818.44856	15085.7375
1821.6242	15048.2375
1824.79776	15014.8375
1827.96924	15044.4375
1831.13864	15034.5375
1834.30597	15013.2375
1837.47122	15007.1375
1840.6344	15035.0375
1843.7955	15024.1375
1846.95454	14965.7375
1850.11151	14954.3375
1853.26642	14950.6375
1856.41926	14962.5375
1859.57004	14966.7375
1862.71876	14916.8375
1865.86542	14910.1375
1869.01003	14879.7375
1872.15258	14881.1375
1875.29308	14854.3375
1878.43152	14823.4375
1881.56792	14818.6375
1884.70227	14820.4375
1887.83457	14786.5375
1890.96482	14757.7375
1894.09304	14718.7375
1897.21921	14727.8375
1900.34335	14693.0375
1903.46544	14676.4375
1906.58551	14661.8375
1909.70353	14650.2375
1912.81953	14626.4375
1915.93349	14612.6375
1919.04543	14552.0375
1922.15534	14508.6375
1925.26322	14514.0375
1928.36908	14498.0375
1931.47292	14495.4375
1934.57473	14456.3375
1937.67453	14418.8375
1940.77232	14407.2375
1943.86808	14343.6375
1946.96184	14283.9375
1950.05358	14252.9375
1953.14331	14251.7375
1956.23103	14212.9375
1959.31675	14116.8375
1962.40046	14119.2375
1965.48217	14050.4375
1968.56188	14014.1375
1971.63959	13978.8375
1974.7153	13934.5375
1977.78901	13887.1375
1980.86073	13863.4375
1983.93046	13850.5375
1986.99819	13808.8375
1990.06394	13720.6375
1993.1277	13740.4375
1996.18947	13685.3375
1999.24925	13655.2375
2002.30706	13593.4375
2005.36288	13542.8375
2008.41672	13527.6375
2011.46859	13485.5375
2014.51848	13472.3375
2017.56639	13416.2375
2020.61233	13389.0375
2023.6563	13345.8375
2026.6983	13343.3375
2029.73833	13291.5375
2032.7764	13249.0375
2035.8125	13246.0375
2038.84664	13200.3375
2041.87881	13194.9375
2044.90903	13160.9375
2047.93729	13121.1375
2050.96359	13123.2375
2053.98794	13090.5375
2057.01034	13088.1375
2060.03078	13084.7375
2063.04927	13065.1375
2066.06582	13058.4375
2069.08042	13060.5375
2072.09307	13066.4375
2075.10378	13004.8375
2078.11255	12983.8375
2081.11938	13018.5375
2084.12426	12991.9375
2087.12722	12974.3375
2090.12824	12980.7375
2093.12732	12952.0375
2096.12447	12961.4375
2099.11969	12966.3375
2102.11299	13002.0375
2105.10435	12996.8375
2108.09379	13010.2375
2111.08131	13027.9375
2114.0669	12998.4375
2117.05057	13026.4375
2120.03233	13012.6375
2123.01216	13039.3375
2125.99008	13067.2375
2128.96609	13046.3375
2131.94018	13060.7375
2134.91236	13079.3375
2137.88263	13094.8375
2140.851	13091.1375
2143.81746	13107.7375
2146.78201	13123.6375
2149.74466	13118.0375
2152.7054	13117.4375
2155.66425	13065.6375
2158.6212	13120.7375
2161.57625	13103.2375
2164.52941	13082.4375
2167.48067	13080.5375
2170.43004	13074.4375
2173.37752	13063.5375
2176.32311	13071.6375
2179.26681	13075.8375
2182.20863	13076.4375
2185.14856	13031.3375
2188.08661	13055.9375
2191.02278	13067.8375
2193.95707	13059.8375
2196.88948	13088.2375
2199.82001	13054.9375
2202.74867	13019.1375
2205.67545	12994.3375
2208.60037	12999.0375
2211.52341	12960.0375
2214.44458	12970.4375
2217.36388	12940.3375
2220.28132	12933.5375
2223.1969	12879.5375
2226.11061	12902.4375
2229.02246	12843.7375
2231.93245	12827.6375
2234.84058	12815.9375
2237.74686	12800.1375
2240.65128	12775.9375
2243.55385	12766.9375
2246.45456	12736.2375
2249.35343	12706.2375
2252.25044	12709.5375
2255.14561	12704.9375
2258.03893	12681.4375
2260.93041	12633.5375
2263.82004	12595.7375
2266.70783	12569.6375
2269.59378	12543.6375
2272.4779	12487.6375
2275.36017	12475.2375
2278.24061	12456.3375
2281.11922	12450.0375
2283.996	12427.5375
2286.87094	12413.1375
2289.74405	12367.8375
2292.61534	12392.4375
2295.4848	12352.6375
2298.35243	12353.8375
2301.21824	12346.9375
2304.08223	12362.9375
2306.94439	12358.4375
2309.80474	12340.8375
2312.66327	12370.2375
2315.51999	12315.1375
2318.37489	12353.0375
2321.22797	12346.7375
2324.07925	12300.0375
2326.92871	12262.4375
2329.77637	12239.8375
2332.62222	12258.6375
2335.46626	12238.8375
2338.3085	12216.4375
2341.14893	12237.8375
2343.98756	12225.0375
2346.8244	12206.7375
2349.65943	12176.6375
2352.49267	12175.6375
2355.32411	12188.8375
2358.15376	12208.4375
2360.98161	12190.7375
2363.80768	12179.8375
2366.63195	12179.5375
2369.45444	12111.4375
2372.27514	12094.9375
2375.09405	12107.1375
2377.91118	12058.5375
2380.72652	12058.0375
2383.54009	12050.9375
2386.35187	12015.2375
2389.16188	11974.1375
2391.97011	11959.4375
2394.77657	11930.0375
2397.58125	11899.5375
2400.38416	11904.7375
2403.18529	11875.1375
2405.98466	11867.3375
2408.78226	11857.8375
2411.57809	11860.9375
2414.37216	11825.5375
2417.16446	11807.0375
2419.955	11825.0375
2422.74378	11838.4375
2425.5308	11780.1375
2428.31606	11802.1375
2431.09956	11784.5375
2433.88131	11773.3375
2436.6613	11767.1375
2439.43954	11786.4375
2442.21603	11765.8375
2444.99077	11721.4375
2447.76377	11735.2375
2450.53501	11700.0375
2453.30451	11729.4375
2456.07226	11690.4375
2458.83827	11707.4375
2461.60254	11697.0375
2464.36507	11672.5375
2467.12586	11683.6375
2469.88492	11661.7375
2472.64224	11677.5375
2475.39782	11692.1375
2478.15167	11667.2375
2480.90379	11668.1375
2483.65417	11715.5375
2486.40283	11680.9375
2489.14976	11665.5375
2491.89497	11654.5375
2494.63845	11676.7375
2497.3802	11681.8375
2500.12024	11675.7375
2502.85855	11650.7375
2505.59514	11648.7375
2508.33002	11637.4375
2511.06318	11613.5375
2513.79462	11580.1375
2516.52435	11584.7375
2519.25237	11608.7375
2521.97867	11584.0375
2524.70327	11589.7375
2527.42616	11552.6375
2530.14734	11576.4375
2532.86681	11540.0375
2535.58458	11546.7375
2538.30065	11561.7375
2541.01501	11545.4375
2543.72768	11535.2375
2546.43864	11532.2375
2549.14791	11506.5375
2551.85548	11496.4375
2554.56136	11489.6375
2557.26554	11447.9375
2559.96803	11421.8375
2562.66883	11419.8375
2565.36794	11420.3375
2568.06536	11407.1375
2570.7611	11384.6375
2573.45514	11382.4375
2576.14751	11364.1375
2578.83819	11333.5375
2581.52719	11328.0375
2584.21451	11325.6375
2586.90015	11344.6375
2589.58411	11308.3375
2592.2664	11305.4375
2594.94701	11300.3375
2597.62594	11275.7375
2600.30321	11254.2375
2602.9788	11237.9375
2605.65273	11213.3375
2608.32498	11231.0375
2610.99557	11204.5375
2613.66449	11196.8375
2616.33175	11208.7375
2618.99734	11212.8375
2621.66128	11184.1375
2624.32355	11204.0375
2626.98416	11186.6375
2629.64311	11165.8375
2632.30041	11126.8375
2634.95605	11120.0375
2637.61004	11149.1375
2640.26238	11112.0375
2642.91306	11102.9375
2645.56209	11104.1375
2648.20948	11086.4375
2650.85521	11092.5375
2653.4993	11093.2375
2656.14175	11091.0375
2658.78255	11114.4375
2661.42171	11091.5375
2664.05923	11126.4375
2666.6951	11138.5375
2669.32934	11120.3375
2671.96194	11105.1375
2674.59291	11105.3375
2677.22224	11114.8375
2679.84993	11140.9375
2682.476	11127.5375
2685.10043	11093.3375
2687.72324	11081.6375
2690.34441	11102.8375
2692.96396	11083.7375
2695.58188	11094.9375
2698.19818	11059.5375
2700.81285	11079.7375
2703.4259	11089.5375
2706.03733	11102.7375
2708.64714	11097.5375
2711.25533	11121.4375
2713.86191	11098.2375
2716.46687	11129.8375
2719.07021	11139.9375
2721.67194	11144.0375
2724.27206	11110.0375
2726.87057	11141.7375
2729.46747	11142.6375
2732.06276	11132.8375
2734.65644	11156.0375
2737.24852	11141.1375
2739.83899	11114.0375
2742.42786	11126.9375
2745.01513	11077.6375
2747.60079	11081.4375
2750.18486	11076.3375
2752.76733	11054.7375
2755.3482	11051.3375
2757.92747	11073.0375
2760.50515	11060.5375
2763.08123	11040.3375
2765.65573	11027.4375
2768.22863	11018.2375
2770.79994	11028.3375
2773.36967	11037.5375
2775.9378	11028.4375
2778.50435	11039.2375
2781.06932	11031.8375
2783.6327	11019.6375
2786.1945	11023.1375
2788.75471	11016.1375
2791.31335	10984.2375
2793.87041	10964.0375
2796.42589	10952.1375
2798.97979	10945.3375
2801.53212	10904.0375
2804.08288	10901.5375
2806.63206	10865.6375
2809.17967	10853.0375
2811.72571	10816.3375
2814.27018	10794.4375
2816.81308	10781.3375
2819.35442	10755.7375
2821.89419	10742.9375
2824.43239	10741.5375
2826.96904	10696.6375
2829.50412	10723.8375
2832.03763	10725.2375
2834.56959	10712.5375
2837.1	10668.6375
2839.62884	10687.3375
2842.15613	10695.9375
2844.68186	10702.0375
2847.20604	10714.2375
2849.72867	10734.2375
2852.24974	10705.7375
2854.76927	10694.1375
2857.28724	10678.1375
2859.80367	10647.8375
2862.31855	10634.4375
2864.83189	10634.4375
2867.34368	10623.6375
2869.85393	10612.5375
2872.36264	10611.8375
2874.8698	10584.4375
2877.37543	10589.6375
2879.87952	10602.7375
2882.38207	10585.9375
2884.88308	10568.9375
2887.38256	10571.7375
2889.88051	10583.5375
2892.37692	10606.1375
2894.8718	10585.5375
2897.36515	10614.0375
2899.85698	10628.5375
2902.34727	10643.5375
2904.83604	10653.3375
2907.32328	10664.8375
2909.809	10654.9375
2912.29319	10640.9375
2914.77587	10640.8375
2917.25702	10628.3375
2919.73665	10637.3375
2922.21476	10662.1375
2924.69136	10633.7375
2927.16644	10617.0375
2929.64	10599.8375
2932.11205	10586.2375
2934.58258	10572.0375
2937.05161	10596.7375
2939.51912	10598.9375
2941.98513	10596.2375
2944.44962	10574.0375
2946.91261	10513.5375
2949.37409	10520.0375
2951.83407	10529.4375
2954.29254	10518.9375
2956.74951	10490.2375
2959.20498	10491.3375
2961.65895	10502.3375
2964.11142	10513.1375
2966.56239	10484.5375
2969.01186	10498.1375
2971.45984	10451.6375
2973.90632	10441.2375
2976.35131	10458.3375
2978.7948	10426.2375
2981.23681	10392.9375
2983.67732	10381.5375
2986.11635	10371.0375
2988.55388	10336.5375
2990.98993	10348.8375
2993.4245	10312.6375
2995.85758	10275.6375
2998.28917	10273.9375
3000.71928	10241.8375
3003.14791	10225.4375
3005.57506	10225.6375
3008.00073	10192.6375
3010.42493	10148.7375
3012.84764	10177.4375
3015.26888	10151.3375
3017.68865	10123.4375
3020.10694	10126.8375
3022.52376	10136.2375
3024.9391	10082.5375
3027.35298	10077.1375
3029.76539	10060.9375
3032.17632	10093.0375
3034.5858	10075.2375
3036.9938	10054.3375
3039.40034	10050.2375
3041.80542	10045.4375
3044.20903	10008.6375
3046.61118	10017.8375
3049.01187	10016.8375
3051.4111	9973.2375
3053.80888	9999.5375
3056.20519	9977.2375
3058.60005	9932.7375
3060.99345	9914.3375
3063.3854	9893.7375
3065.7759	9872.9375
3068.16494	9886.3375
3070.55254	9830.3375
3072.93868	9814.2375
3075.32338	9804.6375
3077.70662	9757.1375
3080.08842	9773.7375
3082.46878	9735.4375
3084.84769	9742.7375
3087.22515	9727.0375
3089.60118	9761.0375
3091.97576	9744.1375
3094.3489	9731.2375
3096.72061	9735.5375
3099.09087	9726.8375
3101.4597	9727.5375
3103.82709	9719.4375
3106.19305	9715.6375
3108.55757	9716.8375
3110.92066	9689.1375
3113.28232	9688.4375
3115.64255	9660.8375
3118.00134	9644.1375
3120.35871	9638.3375
3122.71466	9620.9375
3125.06917	9600.3375
3127.42226	9577.1375
3129.77393	9571.6375
3132.12417	9566.9375
3134.47299	9576.1375
3136.82039	9571.9375
3139.16636	9550.6375
3141.51092	9571.4375
3143.85406	9561.3375
3146.19579	9550.7375
3148.53609	9560.7375
3150.87499	9596.2375
3153.21246	9548.8375
3155.54853	9574.3375
3157.88318	9581.1375
3160.21642	9591.5375
3162.54826	9581.3375
3164.87868	9592.7375
3167.2077	9609.1375
3169.5353	9604.4375
3171.86151	9601.7375
3174.18631	9607.0375
3176.5097	9593.7375
3178.83169	9577.8375
3181.15228	9573.3375
3183.47147	9568.3375
3185.78926	9548.0375
3188.10565	9541.6375
3190.42065	9530.2375
3192.73424	9493.1375
3195.04645	9500.4375
3197.35725	9501.2375
3199.66667	9527.9375
3201.97469	9520.1375
3204.28132	9515.9375
3206.58656	9546.7375
3208.8904	9501.6375
3211.19287	9501.1375
3213.49394	9513.4375
3215.79363	9543.8375
3218.09193	9557.3375
3220.38884	9543.2375
3222.68438	9539.9375
3224.97853	9544.9375
3227.2713	9512.8375
3229.56269	9517.5375
3231.8527	9531.4375
3234.14133	9471.3375
3236.42858	9470.7375
3238.71446	9447.9375
3240.99896	9412.3375
3243.28209	9425.0375
3245.56384	9410.5375
3247.84423	9417.8375
3250.12324	9398.2375
3252.40088	9385.9375
3254.67715	9385.7375
3256.95205	9359.7375
3259.22558	9388.7375
3261.49775	9372.1375
3263.76855	9337.4375
3266.03799	9350.6375
3268.30606	9324.5375
3270.57277	9294.4375
3272.83812	9295.3375
3275.10211	9270.9375
3277.36474	9247.5375
3279.62601	9258.0375
3281.88593	9210.7375
3284.14448	9225.9375
3286.40168	9258.0375
3288.65753	9250.6375
3290.91202	9249.0375
3293.16516	9236.1375
3295.41695	9205.4375
3297.66738	9169.1375
3299.91647	9120.8375
3302.16421	9054.5375
3304.4106	9018.7375
3306.65564	8963.9375
3308.89933	8889.9375
3311.14169	8826.5375
3313.38269	8752.1375
3315.62236	8691.4375
3317.86068	8635.8375
3320.09766	8554.2375
3322.3333	8500.6375
3324.5676	8435.5375
3326.80056	8310.7375
3329.03219	8239.2375
3331.26248	3.3375
3333.49143	0.1375
3335.71905	-0.3625
