Data from AgNP_FTO_APTES_UA_10uM_CRN_500uM_R6G_10uM_NaF_0.1M_Addition_RamanShift__13__18-55-30-943.txt Node

Date: Thu Feb 10 18:55:30 GMT 2022
User: TCL
Spectrometer: QEP01345
Trigger mode: 4
Integration Time (sec): 7.000000E0
Scans to average: 10
Electric dark correction enabled: true
Nonlinearity correction enabled: false
Boxcar width: 0
XAxis mode: Raman Shifts
Number of Pixels in Spectrum: 1044
>>>>>Begin Spectral Data<<<<<
46.04893	1.1625
50.45542	-1.4375
54.85868	-1.3375
59.25871	-1.2375
63.6555	47.7625
68.04907	50.6625
72.43941	55.1625
76.82654	53.6625
81.21044	61.4625
85.59113	58.1625
89.96862	62.2625
94.34289	64.3625
98.71396	65.3625
103.08183	69.9625
107.4465	72.6625
111.80798	69.0625
116.16626	74.6625
120.52136	74.9625
124.87327	80.7625
129.222	82.7625
133.56755	88.4625
137.90993	90.7625
142.24913	94.6625
146.58517	103.7625
150.91804	125.9625
155.24774	144.8625
159.57429	179.7625
163.89768	226.8625
168.21792	298.1625
172.53501	407.5625
176.84895	558.0625
181.15975	787.2625
185.46741	1100.7625
189.77193	1525.9625
194.07331	2033.6625
198.37157	2645.8625
202.6667	3280.2625
206.9587	3909.0625
211.24758	4510.0625
215.53334	5117.3625
219.81599	5756.2625
224.09553	6428.0625
228.37195	7185.8625
232.64527	8011.7625
236.91549	8905.1625
241.18261	9837.7625
245.44663	10704.9625
249.70755	11517.5625
253.96539	12251.4625
258.22014	12830.8625
262.4718	13311.9625
266.72039	13659.1625
270.96589	13849.4625
275.20832	13893.1625
279.44768	13858.7625
283.68397	13747.6625
287.91719	13658.8625
292.14735	13581.6625
296.37445	13507.6625
300.59849	13501.4625
304.81948	13499.3625
309.03742	13419.4625
313.25231	13331.8625
317.46415	13102.2625
321.67296	12874.7625
325.87872	12707.2625
330.08145	12622.3625
334.28114	12648.5625
338.47781	12701.6625
342.67145	12833.2625
346.86207	12995.6625
351.04966	13173.6625
355.23424	13311.1625
359.4158	13455.4625
363.59435	13594.6625
367.76989	13709.6625
371.94243	13784.0625
376.11196	13877.1625
380.27849	13951.1625
384.44203	14024.4625
388.60257	14149.8625
392.76012	14223.7625
396.91468	14381.5625
401.06626	14583.2625
405.21485	14695.9625
409.36047	14719.5625
413.50311	14588.7625
417.64277	14529.4625
421.77947	14522.5625
425.9132	14584.1625
430.04396	14681.2625
434.17176	14783.2625
438.2966	14861.9625
442.41849	14980.0625
446.53742	15208.0625
450.6534	15421.8625
454.76644	15641.0625
458.87653	15720.9625
462.98368	15777.7625
467.08789	15779.0625
471.18916	15723.8625
475.2875	15657.2625
479.38291	15599.8625
483.4754	15570.4625
487.56496	15472.1625
491.6516	15366.1625
495.73531	15244.7625
499.81612	15137.3625
503.89401	15154.3625
507.96899	15222.9625
512.04106	15218.2625
516.11023	15241.7625
520.1765	15182.9625
524.23987	15103.2625
528.30034	15028.0625
532.35792	14944.3625
536.41261	14871.7625
540.46441	14810.3625
544.51333	14851.1625
548.55936	14969.7625
552.60252	15187.3625
556.64279	15368.6625
560.6802	15512.8625
564.71473	15602.0625
568.7464	15765.8625
572.7752	16071.2625
576.80114	16379.5625
580.82422	16637.1625
584.84444	16779.2625
588.86181	16886.1625
592.87633	16941.9625
596.888	16919.6625
600.89682	16801.5625
604.9028	16896.7625
608.90594	17432.7625
612.90624	18124.8625
616.90371	17482.7625
620.89834	15956.1625
624.89015	15250.8625
628.87913	15216.2625
632.86528	15329.4625
636.84862	15409.5625
640.82913	15324.9625
644.80683	15137.2625
648.78172	15007.4625
652.75379	14945.8625
656.72306	15030.4625
660.68952	15129.4625
664.65319	15100.4625
668.61405	15035.0625
672.57211	14999.1625
676.52738	15072.7625
680.47986	15085.6625
684.42955	15068.4625
688.37646	15055.3625
692.32058	15055.7625
696.26192	15148.7625
700.20048	15243.3625
704.13626	15305.4625
708.06928	15368.0625
711.99952	15364.7625
715.927	15337.2625
719.85171	15326.2625
723.77365	15249.2625
727.69284	15146.5625
731.60928	15045.4625
735.52295	14958.5625
739.43388	14968.3625
743.34206	14979.9625
747.24749	15013.4625
751.15017	15083.4625
755.05012	15234.5625
758.94733	15441.9625
762.8418	15884.8625
766.73354	16509.9625
770.62254	17185.0625
774.50882	17317.0625
778.39237	16872.5625
782.27321	16218.1625
786.15132	15637.4625
790.02671	15263.8625
793.89938	15035.0625
797.76935	14947.9625
801.6366	14902.7625
805.50115	14855.1625
809.36299	14816.8625
813.22213	14788.2625
817.07857	14756.2625
820.93231	14802.2625
824.78336	14791.0625
828.63172	14722.9625
832.47738	14760.1625
836.32036	14682.0625
840.16066	14691.0625
843.99827	14680.0625
847.8332	14680.0625
851.66546	14727.5625
855.49504	14759.4625
859.32195	14743.5625
863.1462	14709.0625
866.96777	14711.2625
870.78668	14722.9625
874.60293	14753.0625
878.41652	14750.4625
882.22745	14752.0625
886.03573	14763.6625
889.84136	14761.6625
893.64433	14776.0625
897.44466	14733.1625
901.24235	14721.0625
905.0374	14716.1625
908.8298	14700.6625
912.61957	14683.0625
916.40671	14760.3625
920.19121	14863.2625
923.97308	14903.2625
927.75233	14879.5625
931.52895	14794.1625
935.30295	14656.8625
939.07433	14495.3625
942.84309	14407.7625
946.60924	14295.5625
950.37278	14240.0625
954.13371	14224.7625
957.89203	14207.7625
961.64774	14226.1625
965.40086	14183.2625
969.15137	14158.6625
972.89929	14133.7625
976.64461	14078.4625
980.38733	14048.6625
984.12747	14067.3625
987.86502	14065.7625
991.59999	14098.8625
995.33237	14112.3625
999.06217	14200.5625
1002.78939	14281.6625
1006.51404	14402.6625
1010.23611	14499.9625
1013.95561	14610.1625
1017.67255	14630.0625
1021.38692	14636.4625
1025.09872	14549.9625
1028.80796	14432.5625
1032.51465	14397.1625
1036.21877	14351.3625
1039.92035	14414.7625
1043.61937	14433.8625
1047.31584	14510.9625
1051.00976	14541.6625
1054.70114	14616.0625
1058.38998	14704.8625
1062.07627	14753.3625
1065.76003	14905.2625
1069.44126	14970.5625
1073.11995	15042.6625
1076.79611	15169.3625
1080.46974	15212.9625
1084.14085	15245.0625
1087.80943	15296.2625
1091.47549	15369.4625
1095.13903	15427.3625
1098.80005	15405.7625
1102.45857	15247.1625
1106.11456	15070.4625
1109.76805	14918.4625
1113.41903	14874.6625
1117.06751	14937.4625
1120.71348	14980.7625
1124.35696	15119.1625
1127.99793	15208.0625
1131.63641	15312.4625
1135.2724	15280.0625
1138.90589	15194.9625
1142.5369	15162.8625
1146.16542	15170.3625
1149.79145	15206.4625
1153.415	15289.4625
1157.03607	15366.2625
1160.65467	15587.6625
1164.27079	15904.4625
1167.88443	16324.9625
1171.49561	16732.4625
1175.10432	17354.2625
1178.71056	18013.0625
1182.31434	18723.6625
1185.91565	19266.7625
1189.51451	19533.2625
1193.11091	19499.6625
1196.70485	19211.2625
1200.29634	18837.8625
1203.88538	18413.0625
1207.47197	18063.3625
1211.05612	17781.2625
1214.63782	17531.2625
1218.21708	17240.2625
1221.79391	16934.7625
1225.36829	16647.4625
1228.94024	16479.5625
1232.50976	16374.6625
1236.07685	16317.5625
1239.6415	16344.9625
1243.20374	16377.1625
1246.76355	16416.5625
1250.32093	16511.9625
1253.8759	16657.9625
1257.42845	16894.7625
1260.97859	17139.2625
1264.52631	17411.0625
1268.07163	17697.4625
1271.61453	17922.9625
1275.15503	18147.9625
1278.69312	18392.2625
1282.22882	18646.6625
1285.76211	18906.1625
1289.29301	19235.7625
1292.82151	19701.2625
1296.34761	20277.5625
1299.87133	20929.5625
1303.39266	21536.6625
1306.9116	22127.3625
1310.42815	22572.8625
1313.94233	22845.0625
1317.45412	22804.7625
1320.96354	22641.8625
1324.47058	22513.9625
1327.97525	22441.5625
1331.47754	22413.8625
1334.97747	22489.4625
1338.47502	22686.6625
1341.97022	22920.9625
1345.46305	23115.2625
1348.95352	23262.7625
1352.44163	23287.4625
1355.92738	23177.8625
1359.41078	23217.4625
1362.89183	23243.9625
1366.37053	22819.4625
1369.84688	21627.8625
1373.32088	20288.1625
1376.79254	19280.9625
1380.26186	18845.6625
1383.72883	18704.0625
1387.19347	18672.4625
1390.65578	18571.2625
1394.11575	18528.3625
1397.57339	18443.1625
1401.0287	18467.4625
1404.48168	18442.5625
1407.93234	18301.3625
1411.38068	18042.2625
1414.82669	17668.0625
1418.27039	17243.7625
1421.71177	16827.3625
1425.15083	16470.3625
1428.58758	16258.7625
1432.02203	16224.0625
1435.45416	16372.8625
1438.88399	16545.4625
1442.31151	16704.0625
1445.73673	16847.8625
1449.15965	17001.6625
1452.58027	17127.5625
1455.9986	17269.9625
1459.41463	17412.7625
1462.82837	17537.7625
1466.23982	17734.4625
1469.64898	17888.1625
1473.05586	18026.5625
1476.46045	18010.1625
1479.86276	17969.9625
1483.26279	17944.2625
1486.66054	17975.0625
1490.05602	18041.9625
1493.44922	18208.6625
1496.84016	18534.1625
1500.22882	19066.8625
1503.61521	19677.6625
1506.99934	20269.6625
1510.38121	20752.1625
1513.76081	20825.6625
1517.13816	20456.4625
1520.51324	20063.4625
1523.88607	19698.7625
1527.25665	19517.4625
1530.62498	19431.3625
1533.99105	19321.9625
1537.35488	19129.3625
1540.71647	18886.5625
1544.07581	18537.8625
1547.4329	18261.1625
1550.78776	17910.4625
1554.14038	17683.4625
1557.49077	17602.2625
1560.83892	17533.4625
1564.18484	17547.4625
1567.52853	17599.0625
1570.86999	17660.7625
1574.20922	17819.6625
1577.54624	17908.6625
1580.88103	17918.1625
1584.2136	17825.5625
1587.54395	17889.8625
1590.87208	18124.3625
1594.19801	18480.1625
1597.52172	18954.3625
1600.84321	19097.3625
1604.16251	18804.0625
1607.47959	18213.3625
1610.79447	17495.8625
1614.10715	16757.5625
1617.41763	16019.3625
1620.7259	15421.6625
1624.03199	15043.6625
1627.33587	14875.8625
1630.63757	14968.1625
1633.93707	15274.4625
1637.23439	15917.7625
1640.52951	16921.9625
1643.82246	18146.2625
1647.11321	19305.7625
1650.40179	19865.9625
1653.68819	19512.1625
1656.97241	18225.5625
1660.25446	16752.9625
1663.53433	15481.5625
1666.81203	14497.2625
1670.08756	13815.4625
1673.36092	13386.4625
1676.63211	13092.5625
1679.90115	12904.8625
1683.16801	12763.6625
1686.43272	12622.8625
1689.69527	12545.2625
1692.95567	12483.0625
1696.2139	12429.8625
1699.46999	12432.2625
1702.72392	12387.3625
1705.97571	12358.3625
1709.22535	12308.3625
1712.47284	12262.6625
1715.71819	12240.7625
1718.96139	12230.3625
1722.20246	12174.4625
1725.44139	12139.1625
1728.67818	12101.4625
1731.91284	12034.2625
1735.14537	11998.8625
1738.37576	11912.8625
1741.60403	11908.0625
1744.83017	11883.1625
1748.05418	11882.7625
1751.27607	11832.6625
1754.49584	11831.2625
1757.71349	11811.8625
1760.92903	11822.0625
1764.14244	11804.7625
1767.35375	11795.4625
1770.56294	11741.2625
1773.77002	11750.5625
1776.97499	11682.8625
1780.17785	11671.0625
1783.37861	11642.7625
1786.57727	11616.3625
1789.77382	11582.0625
1792.96828	11567.7625
1796.16064	11516.3625
1799.3509	11498.1625
1802.53907	11473.9625
1805.72514	11456.5625
1808.90913	11438.0625
1812.09102	11405.5625
1815.27083	11359.2625
1818.44856	11329.3625
1821.6242	11315.6625
1824.79776	11314.7625
1827.96924	11297.8625
1831.13864	11259.6625
1834.30597	11263.0625
1837.47122	11252.6625
1840.6344	11212.0625
1843.7955	11210.1625
1846.95454	11216.5625
1850.11151	11199.9625
1853.26642	11199.6625
1856.41926	11175.1625
1859.57004	11164.1625
1862.71876	11130.8625
1865.86542	11117.5625
1869.01003	11109.3625
1872.15258	11108.9625
1875.29308	11069.9625
1878.43152	11059.5625
1881.56792	11041.6625
1884.70227	11035.5625
1887.83457	11005.0625
1890.96482	10986.5625
1894.09304	10949.6625
1897.21921	10940.5625
1900.34335	10932.3625
1903.46544	10916.9625
1906.58551	10884.4625
1909.70353	10871.1625
1912.81953	10845.7625
1915.93349	10842.6625
1919.04543	10815.4625
1922.15534	10793.4625
1925.26322	10748.5625
1928.36908	10776.9625
1931.47292	10736.5625
1934.57473	10727.1625
1937.67453	10662.6625
1940.77232	10654.6625
1943.86808	10591.9625
1946.96184	10576.0625
1950.05358	10540.2625
1953.14331	10516.8625
1956.23103	10475.5625
1959.31675	10440.2625
1962.40046	10442.1625
1965.48217	10402.2625
1968.56188	10361.3625
1971.63959	10339.8625
1974.7153	10298.4625
1977.78901	10249.5625
1980.86073	10197.0625
1983.93046	10175.2625
1986.99819	10162.2625
1990.06394	10138.9625
1993.1277	10108.2625
1996.18947	10061.5625
1999.24925	10022.2625
2002.30706	9972.3625
2005.36288	9971.8625
2008.41672	9926.5625
2011.46859	9889.0625
2014.51848	9873.8625
2017.56639	9845.4625
2020.61233	9817.1625
2023.6563	9784.6625
2026.6983	9764.4625
2029.73833	9748.9625
2032.7764	9722.5625
2035.8125	9691.5625
2038.84664	9630.2625
2041.87881	9604.1625
2044.90903	9581.9625
2047.93729	9544.7625
2050.96359	9549.6625
2053.98794	9533.1625
2057.01034	9518.0625
2060.03078	9503.6625
2063.04927	9492.4625
2066.06582	9489.0625
2069.08042	9491.3625
2072.09307	9487.1625
2075.10378	9476.0625
2078.11255	9468.2625
2081.11938	9451.6625
2084.12426	9449.5625
2087.12722	9427.8625
2090.12824	9444.8625
2093.12732	9413.9625
2096.12447	9419.4625
2099.11969	9397.5625
2102.11299	9413.4625
2105.10435	9406.4625
2108.09379	9402.8625
2111.08131	9414.8625
2114.0669	9412.1625
2117.05057	9419.3625
2120.03233	9392.8625
2123.01216	9414.6625
2125.99008	9423.5625
2128.96609	9444.8625
2131.94018	9429.9625
2134.91236	9429.2625
2137.88263	9415.8625
2140.851	9422.8625
2143.81746	9440.4625
2146.78201	9413.5625
2149.74466	9432.6625
2152.7054	9429.7625
2155.66425	9420.9625
2158.6212	9412.4625
2161.57625	9386.1625
2164.52941	9408.1625
2167.48067	9380.5625
2170.43004	9373.5625
2173.37752	9382.7625
2176.32311	9360.2625
2179.26681	9352.8625
2182.20863	9341.3625
2185.14856	9350.1625
2188.08661	9353.2625
2191.02278	9350.8625
2193.95707	9339.4625
2196.88948	9345.3625
2199.82001	9315.5625
2202.74867	9293.7625
2205.67545	9254.5625
2208.60037	9261.2625
2211.52341	9239.4625
2214.44458	9259.7625
2217.36388	9198.8625
2220.28132	9199.5625
2223.1969	9181.8625
2226.11061	9154.5625
2229.02246	9138.3625
2231.93245	9090.3625
2234.84058	9084.2625
2237.74686	9067.6625
2240.65128	9060.9625
2243.55385	9037.9625
2246.45456	9011.1625
2249.35343	9001.9625
2252.25044	8999.6625
2255.14561	8977.6625
2258.03893	8972.0625
2260.93041	8942.3625
2263.82004	8897.0625
2266.70783	8895.8625
2269.59378	8849.6625
2272.4779	8817.2625
2275.36017	8804.2625
2278.24061	8779.9625
2281.11922	8776.7625
2283.996	8771.8625
2286.87094	8760.1625
2289.74405	8736.6625
2292.61534	8707.1625
2295.4848	8716.3625
2298.35243	8710.7625
2301.21824	8698.8625
2304.08223	8656.9625
2306.94439	8675.8625
2309.80474	8634.1625
2312.66327	8656.5625
2315.51999	8627.7625
2318.37489	8630.5625
2321.22797	8593.1625
2324.07925	8587.0625
2326.92871	8564.1625
2329.77637	8558.9625
2332.62222	8520.6625
2335.46626	8481.4625
2338.3085	8497.2625
2341.14893	8496.6625
2343.98756	8456.0625
2346.8244	8445.1625
2349.65943	8449.9625
2352.49267	8457.9625
2355.32411	8424.0625
2358.15376	8450.3625
2360.98161	8422.2625
2363.80768	8435.6625
2366.63195	8425.6625
2369.45444	8394.8625
2372.27514	8379.8625
2375.09405	8376.5625
2377.91118	8363.4625
2380.72652	8347.9625
2383.54009	8308.7625
2386.35187	8292.6625
2389.16188	8241.1625
2391.97011	8244.8625
2394.77657	8230.8625
2397.58125	8221.2625
2400.38416	8196.4625
2403.18529	8185.4625
2405.98466	8162.0625
2408.78226	8173.8625
2411.57809	8141.6625
2414.37216	8148.5625
2417.16446	8145.7625
2419.955	8099.9625
2422.74378	8099.0625
2425.5308	8089.8625
2428.31606	8072.6625
2431.09956	8073.4625
2433.88131	8060.7625
2436.6613	8063.7625
2439.43954	8048.7625
2442.21603	7998.6625
2444.99077	7987.5625
2447.76377	8016.3625
2450.53501	7990.7625
2453.30451	7967.5625
2456.07226	7974.3625
2458.83827	7982.2625
2461.60254	7968.5625
2464.36507	7965.3625
2467.12586	7927.5625
2469.88492	7921.4625
2472.64224	7910.8625
2475.39782	7892.8625
2478.15167	7926.5625
2480.90379	7905.8625
2483.65417	7911.4625
2486.40283	7903.7625
2489.14976	7873.0625
2491.89497	7865.0625
2494.63845	7878.6625
2497.3802	7835.0625
2500.12024	7830.0625
2502.85855	7819.9625
2505.59514	7816.1625
2508.33002	7792.6625
2511.06318	7808.4625
2513.79462	7786.3625
2516.52435	7792.2625
2519.25237	7755.2625
2521.97867	7742.7625
2524.70327	7739.7625
2527.42616	7718.8625
2530.14734	7711.5625
2532.86681	7683.3625
2535.58458	7703.5625
2538.30065	7669.3625
2541.01501	7688.4625
2543.72768	7650.4625
2546.43864	7634.2625
2549.14791	7630.3625
2551.85548	7633.1625
2554.56136	7589.6625
2557.26554	7573.2625
2559.96803	7545.5625
2562.66883	7537.6625
2565.36794	7511.8625
2568.06536	7515.9625
2570.7611	7471.7625
2573.45514	7474.6625
2576.14751	7460.8625
2578.83819	7448.1625
2581.52719	7442.5625
2584.21451	7425.8625
2586.90015	7421.7625
2589.58411	7376.4625
2592.2664	7381.8625
2594.94701	7355.5625
2597.62594	7316.8625
2600.30321	7328.1625
2602.9788	7317.8625
2605.65273	7293.7625
2608.32498	7298.0625
2610.99557	7292.2625
2613.66449	7268.3625
2616.33175	7275.3625
2618.99734	7265.2625
2621.66128	7242.1625
2624.32355	7233.4625
2626.98416	7232.3625
2629.64311	7209.3625
2632.30041	7191.9625
2634.95605	7171.4625
2637.61004	7163.4625
2640.26238	7165.1625
2642.91306	7154.0625
2645.56209	7153.7625
2648.20948	7144.9625
2650.85521	7120.5625
2653.4993	7118.8625
2656.14175	7126.7625
2658.78255	7132.1625
2661.42171	7120.8625
2664.05923	7139.9625
2666.6951	7126.8625
2669.32934	7118.2625
2671.96194	7094.6625
2674.59291	7103.9625
2677.22224	7101.1625
2679.84993	7120.1625
2682.476	7090.0625
2685.10043	7095.1625
2687.72324	7083.2625
2690.34441	7083.6625
2692.96396	7079.9625
2695.58188	7086.3625
2698.19818	7098.3625
2700.81285	7061.5625
2703.4259	7075.0625
2706.03733	7078.1625
2708.64714	7069.6625
2711.25533	7047.8625
2713.86191	7062.0625
2716.46687	7075.6625
2719.07021	7062.0625
2721.67194	7080.0625
2724.27206	7062.9625
2726.87057	7046.7625
2729.46747	7067.1625
2732.06276	7062.5625
2734.65644	7043.9625
2737.24852	7055.6625
2739.83899	7028.3625
2742.42786	7036.3625
2745.01513	7008.8625
2747.60079	7010.1625
2750.18486	6996.7625
2752.76733	6985.3625
2755.3482	6950.0625
2757.92747	6941.8625
2760.50515	6932.0625
2763.08123	6928.4625
2765.65573	6911.0625
2768.22863	6902.7625
2770.79994	6895.3625
2773.36967	6900.1625
2775.9378	6873.3625
2778.50435	6878.1625
2781.06932	6876.4625
2783.6327	6868.4625
2786.1945	6836.3625
2788.75471	6819.3625
2791.31335	6823.2625
2793.87041	6803.7625
2796.42589	6813.4625
2798.97979	6788.3625
2801.53212	6763.2625
2804.08288	6775.4625
2806.63206	6745.6625
2809.17967	6717.1625
2811.72571	6696.7625
2814.27018	6684.5625
2816.81308	6666.8625
2819.35442	6639.8625
2821.89419	6637.4625
2824.43239	6610.2625
2826.96904	6608.1625
2829.50412	6612.7625
2832.03763	6598.7625
2834.56959	6604.7625
2837.1	6591.4625
2839.62884	6583.3625
2842.15613	6606.9625
2844.68186	6629.1625
2847.20604	6610.1625
2849.72867	6649.8625
2852.24974	6627.1625
2854.76927	6599.9625
2857.28724	6594.8625
2859.80367	6574.1625
2862.31855	6553.3625
2864.83189	6572.4625
2867.34368	6525.2625
2869.85393	6526.9625
2872.36264	6525.0625
2874.8698	6531.4625
2877.37543	6521.0625
2879.87952	6509.1625
2882.38207	6501.7625
2884.88308	6480.4625
2887.38256	6501.3625
2889.88051	6481.1625
2892.37692	6471.7625
2894.8718	6479.8625
2897.36515	6488.7625
2899.85698	6481.3625
2902.34727	6490.3625
2904.83604	6468.0625
2907.32328	6504.5625
2909.809	6482.2625
2912.29319	6479.0625
2914.77587	6500.0625
2917.25702	6460.8625
2919.73665	6464.1625
2922.21476	6471.6625
2924.69136	6473.4625
2927.16644	6483.8625
2929.64	6473.5625
2932.11205	6451.4625
2934.58258	6427.9625
2937.05161	6459.0625
2939.51912	6442.9625
2941.98513	6437.6625
2944.44962	6394.2625
2946.91261	6375.0625
2949.37409	6388.8625
2951.83407	6371.4625
2954.29254	6352.4625
2956.74951	6348.9625
2959.20498	6340.6625
2961.65895	6347.6625
2964.11142	6360.6625
2966.56239	6329.5625
2969.01186	6322.3625
2971.45984	6309.3625
2973.90632	6294.0625
2976.35131	6281.8625
2978.7948	6258.3625
2981.23681	6247.6625
2983.67732	6242.8625
2986.11635	6225.1625
2988.55388	6199.9625
2990.98993	6188.0625
2993.4245	6175.5625
2995.85758	6132.3625
2998.28917	6132.0625
3000.71928	6129.2625
3003.14791	6106.9625
3005.57506	6125.4625
3008.00073	6096.6625
3010.42493	6103.3625
3012.84764	6059.7625
3015.26888	6057.8625
3017.68865	6034.4625
3020.10694	6041.4625
3022.52376	6036.8625
3024.9391	6022.5625
3027.35298	6018.6625
3029.76539	5992.0625
3032.17632	5992.6625
3034.5858	5991.5625
3036.9938	5995.7625
3039.40034	5995.8625
3041.80542	5981.8625
3044.20903	5962.6625
3046.61118	5962.1625
3049.01187	5958.9625
3051.4111	5951.0625
3053.80888	5938.0625
3056.20519	5920.3625
3058.60005	5902.8625
3060.99345	5905.0625
3063.3854	5881.3625
3065.7759	5857.9625
3068.16494	5856.6625
3070.55254	5856.2625
3072.93868	5843.7625
3075.32338	5806.8625
3077.70662	5816.5625
3080.08842	5783.7625
3082.46878	5795.6625
3084.84769	5775.1625
3087.22515	5796.3625
3089.60118	5794.7625
3091.97576	5770.3625
3094.3489	5775.8625
3096.72061	5797.7625
3099.09087	5757.6625
3101.4597	5762.9625
3103.82709	5755.8625
3106.19305	5764.1625
3108.55757	5770.3625
3110.92066	5755.5625
3113.28232	5755.4625
3115.64255	5730.4625
3118.00134	5726.9625
3120.35871	5718.8625
3122.71466	5698.0625
3125.06917	5685.2625
3127.42226	5678.7625
3129.77393	5675.4625
3132.12417	5684.0625
3134.47299	5653.0625
3136.82039	5681.0625
3139.16636	5691.9625
3141.51092	5690.7625
3143.85406	5693.4625
3146.19579	5701.3625
3148.53609	5688.9625
3150.87499	5702.0625
3153.21246	5680.0625
3155.54853	5713.7625
3157.88318	5698.8625
3160.21642	5721.7625
3162.54826	5697.7625
3164.87868	5691.1625
3167.2077	5703.7625
3169.5353	5714.3625
3171.86151	5717.9625
3174.18631	5711.1625
3176.5097	5685.8625
3178.83169	5690.4625
3181.15228	5696.9625
3183.47147	5681.7625
3185.78926	5678.7625
3188.10565	5659.5625
3190.42065	5678.8625
3192.73424	5655.3625
3195.04645	5646.6625
3197.35725	5655.9625
3199.66667	5627.1625
3201.97469	5651.7625
3204.28132	5639.5625
3206.58656	5666.0625
3208.8904	5663.9625
3211.19287	5655.3625
3213.49394	5648.7625
3215.79363	5658.5625
3218.09193	5674.1625
3220.38884	5673.4625
3222.68438	5655.4625
3224.97853	5639.1625
3227.2713	5652.9625
3229.56269	5642.9625
3231.8527	5627.0625
3234.14133	5624.6625
3236.42858	5624.8625
3238.71446	5598.4625
3240.99896	5575.5625
3243.28209	5576.3625
3245.56384	5584.0625
3247.84423	5563.4625
3250.12324	5561.1625
3252.40088	5564.3625
3254.67715	5545.5625
3256.95205	5550.8625
3259.22558	5552.8625
3261.49775	5538.7625
3263.76855	5538.7625
3266.03799	5506.8625
3268.30606	5507.5625
3270.57277	5494.6625
3272.83812	5482.4625
3275.10211	5458.1625
3277.36474	5448.0625
3279.62601	5445.2625
3281.88593	5431.2625
3284.14448	5419.6625
3286.40168	5434.2625
3288.65753	5438.6625
3290.91202	5420.5625
3293.16516	5405.0625
3295.41695	5393.1625
3297.66738	5365.5625
3299.91647	5344.8625
3302.16421	5306.4625
3304.4106	5270.5625
3306.65564	5234.6625
3308.89933	5197.1625
3311.14169	5146.3625
3313.38269	5129.1625
3315.62236	5091.0625
3317.86068	5054.8625
3320.09766	4992.4625
3322.3333	4958.6625
3324.5676	4942.5625
3326.80056	4862.2625
3329.03219	4835.2625
3331.26248	2.8625
3333.49143	-0.0375
3335.71905	0.1625
