Data from AgNP_FTO_APTES_UA_10uM_CRN_500uM_R6G_10uM_NaF_0.1M_Addition_RamanShift__10__18-52-00-939.txt Node

Date: Thu Feb 10 18:52:00 GMT 2022
User: TCL
Spectrometer: QEP01345
Trigger mode: 4
Integration Time (sec): 7.000000E0
Scans to average: 10
Electric dark correction enabled: true
Nonlinearity correction enabled: false
Boxcar width: 0
XAxis mode: Raman Shifts
Number of Pixels in Spectrum: 1044
>>>>>Begin Spectral Data<<<<<
46.04893	0.5375
50.45542	-0.8625
54.85868	-1.8625
59.25871	-0.7625
63.6555	55.1375
68.04907	55.3375
72.43941	58.9375
76.82654	58.1375
81.21044	64.9375
85.59113	64.2375
89.96862	67.7375
94.34289	74.6375
98.71396	77.2375
103.08183	79.8375
107.4465	78.4375
111.80798	76.9375
116.16626	80.7375
120.52136	83.5375
124.87327	88.7375
129.222	89.6375
133.56755	95.9375
137.90993	99.8375
142.24913	108.4375
146.58517	120.2375
150.91804	141.2375
155.24774	164.9375
159.57429	202.6375
163.89768	254.1375
168.21792	337.7375
172.53501	461.2375
176.84895	648.4375
181.15975	905.5375
185.46741	1266.3375
189.77193	1757.9375
194.07331	2348.6375
198.37157	3041.8375
202.6667	3758.6375
206.9587	4473.2375
211.24758	5174.0375
215.53334	5870.7375
219.81599	6606.8375
224.09553	7377.2375
228.37195	8262.7375
232.64527	9201.0375
236.91549	10245.9375
241.18261	11272.9375
245.44663	12291.3375
249.70755	13220.4375
253.96539	14044.0375
258.22014	14743.9375
262.4718	15319.1375
266.72039	15696.3375
270.96589	15949.0375
275.20832	15974.7375
279.44768	15934.2375
283.68397	15794.0375
287.91719	15684.2375
292.14735	15608.3375
296.37445	15582.7375
300.59849	15577.0375
304.81948	15613.6375
309.03742	15529.2375
313.25231	15404.0375
317.46415	15153.9375
321.67296	14841.1375
325.87872	14628.0375
330.08145	14494.9375
334.28114	14519.7375
338.47781	14591.9375
342.67145	14744.0375
346.86207	14928.4375
351.04966	15147.7375
355.23424	15363.6375
359.4158	15516.8375
363.59435	15674.0375
367.76989	15835.7375
371.94243	15927.0375
376.11196	15997.0375
380.27849	16111.2375
384.44203	16150.3375
388.60257	16277.0375
392.76012	16469.4375
396.91468	16607.8375
401.06626	16805.8375
405.21485	16959.3375
409.36047	16932.0375
413.50311	16779.8375
417.64277	16702.5375
421.77947	16768.6375
425.9132	16795.2375
430.04396	16893.5375
434.17176	17024.0375
438.2966	17093.1375
442.41849	17283.5375
446.53742	17552.8375
450.6534	17859.8375
454.76644	18107.7375
458.87653	18259.5375
462.98368	18251.3375
467.08789	18234.6375
471.18916	18158.5375
475.2875	18095.8375
479.38291	18090.4375
483.4754	18037.0375
487.56496	17852.6375
491.6516	17651.6375
495.73531	17421.1375
499.81612	17310.1375
503.89401	17305.6375
507.96899	17340.1375
512.04106	17364.7375
516.11023	17370.9375
520.1765	17270.6375
524.23987	17175.5375
528.30034	17035.4375
532.35792	16986.0375
536.41261	16882.8375
540.46441	16770.7375
544.51333	16791.8375
548.55936	16945.2375
552.60252	17202.5375
556.64279	17509.3375
560.6802	17711.4375
564.71473	17841.0375
568.7464	18075.5375
572.7752	18422.8375
576.80114	18783.1375
580.82422	19110.6375
584.84444	19313.4375
588.86181	19605.7375
592.87633	19876.6375
596.888	19761.2375
600.89682	19332.0375
604.9028	19275.0375
608.90594	19981.1375
612.90624	20866.9375
616.90371	20101.3375
620.89834	18061.4375
624.89015	17124.0375
628.87913	17064.0375
632.86528	17180.2375
636.84862	17270.3375
640.82913	17141.7375
644.80683	16882.2375
648.78172	16726.7375
652.75379	16705.9375
656.72306	16795.5375
660.68952	16927.2375
664.65319	16899.0375
668.61405	16744.3375
672.57211	16745.5375
676.52738	16755.8375
680.47986	16780.0375
684.42955	16754.7375
688.37646	16722.0375
692.32058	16784.2375
696.26192	16854.7375
700.20048	16990.3375
704.13626	17088.4375
708.06928	17148.7375
711.99952	17141.4375
715.927	17104.0375
719.85171	17077.2375
723.77365	17033.6375
727.69284	16893.8375
731.60928	16752.7375
735.52295	16692.9375
739.43388	16685.4375
743.34206	16711.9375
747.24749	16747.4375
751.15017	16828.6375
755.05012	17003.7375
758.94733	17344.0375
762.8418	17850.8375
766.73354	18635.8375
770.62254	19386.9375
774.50882	19560.9375
778.39237	19006.3375
782.27321	18138.4375
786.15132	17434.3375
790.02671	16971.7375
793.89938	16732.2375
797.76935	16638.1375
801.6366	16566.7375
805.50115	16526.0375
809.36299	16504.7375
813.22213	16438.6375
817.07857	16446.8375
820.93231	16444.1375
824.78336	16388.5375
828.63172	16354.2375
832.47738	16323.1375
836.32036	16282.0375
840.16066	16273.1375
843.99827	16277.6375
847.8332	16236.2375
851.66546	16279.5375
855.49504	16300.5375
859.32195	16307.5375
863.1462	16287.0375
866.96777	16295.7375
870.78668	16303.3375
874.60293	16286.5375
878.41652	16288.8375
882.22745	16262.5375
886.03573	16310.1375
889.84136	16331.6375
893.64433	16313.2375
897.44466	16298.5375
901.24235	16253.5375
905.0374	16211.6375
908.8298	16161.5375
912.61957	16152.3375
916.40671	16292.1375
920.19121	16423.0375
923.97308	16485.0375
927.75233	16431.2375
931.52895	16305.7375
935.30295	16142.8375
939.07433	15959.9375
942.84309	15839.6375
946.60924	15737.7375
950.37278	15693.0375
954.13371	15660.4375
957.89203	15651.7375
961.64774	15637.6375
965.40086	15647.6375
969.15137	15596.9375
972.89929	15535.8375
976.64461	15473.7375
980.38733	15430.7375
984.12747	15423.2375
987.86502	15468.8375
991.59999	15495.4375
995.33237	15540.2375
999.06217	15644.9375
1002.78939	15770.7375
1006.51404	15934.2375
1010.23611	16066.0375
1013.95561	16222.7375
1017.67255	16261.7375
1021.38692	16232.8375
1025.09872	16102.6375
1028.80796	15970.8375
1032.51465	15888.6375
1036.21877	15875.3375
1039.92035	15894.9375
1043.61937	15956.0375
1047.31584	16002.6375
1051.00976	16041.4375
1054.70114	16096.7375
1058.38998	16197.3375
1062.07627	16293.9375
1065.76003	16426.4375
1069.44126	16530.8375
1073.11995	16650.7375
1076.79611	16786.2375
1080.46974	16810.6375
1084.14085	16864.7375
1087.80943	16912.1375
1091.47549	17041.4375
1095.13903	17080.5375
1098.80005	17020.0375
1102.45857	16766.2375
1106.11456	16574.8375
1109.76805	16461.0375
1113.41903	16457.6375
1117.06751	16480.5375
1120.71348	16599.0375
1124.35696	16738.7375
1127.99793	16940.4375
1131.63641	17030.9375
1135.2724	16925.9375
1138.90589	16858.3375
1142.5369	16797.0375
1146.16542	16860.7375
1149.79145	16996.0375
1153.415	17082.9375
1157.03607	17238.6375
1160.65467	17518.1375
1164.27079	18038.2375
1167.88443	18637.7375
1171.49561	19330.2375
1175.10432	20100.0375
1178.71056	21067.0375
1182.31434	22081.2375
1185.91565	22683.4375
1189.51451	22812.3375
1193.11091	22624.4375
1196.70485	22120.6375
1200.29634	21483.9375
1203.88538	20986.8375
1207.47197	20697.0375
1211.05612	20436.2375
1214.63782	20084.8375
1218.21708	19675.7375
1221.79391	19254.9375
1225.36829	18896.4375
1228.94024	18677.5375
1232.50976	18547.0375
1236.07685	18457.3375
1239.6415	18411.9375
1243.20374	18432.4375
1246.76355	18500.3375
1250.32093	18644.4375
1253.8759	18854.2375
1257.42845	19160.2375
1260.97859	19514.9375
1264.52631	19842.5375
1268.07163	20246.6375
1271.61453	20510.1375
1275.15503	20840.3375
1278.69312	21230.3375
1282.22882	21613.2375
1285.76211	22119.4375
1289.29301	22709.7375
1292.82151	23515.0375
1296.34761	24505.9375
1299.87133	25512.7375
1303.39266	26573.5375
1306.9116	27396.2375
1310.42815	28051.8375
1313.94233	28397.2375
1317.45412	28344.6375
1320.96354	28066.7375
1324.47058	27812.0375
1327.97525	27659.6375
1331.47754	27519.3375
1334.97747	27426.1375
1338.47502	27369.6375
1341.97022	27355.7375
1345.46305	27309.2375
1348.95352	27185.4375
1352.44163	27192.4375
1355.92738	27311.8375
1359.41078	27717.3375
1362.89183	28081.1375
1366.37053	27540.3375
1369.84688	25933.7375
1373.32088	23967.2375
1376.79254	22583.7375
1380.26186	22097.1375
1383.72883	22098.9375
1387.19347	22150.9375
1390.65578	22061.2375
1394.11575	22048.3375
1397.57339	22084.4375
1401.0287	22198.4375
1404.48168	22266.7375
1407.93234	22042.7375
1411.38068	21558.0375
1414.82669	20949.8375
1418.27039	20220.7375
1421.71177	19602.1375
1425.15083	19107.7375
1428.58758	18847.2375
1432.02203	18909.9375
1435.45416	19205.1375
1438.88399	19606.8375
1442.31151	19849.3375
1445.73673	20096.2375
1449.15965	20240.1375
1452.58027	20409.2375
1455.9986	20504.8375
1459.41463	20620.3375
1462.82837	20756.3375
1466.23982	20982.1375
1469.64898	21155.3375
1473.05586	21288.2375
1476.46045	21238.5375
1479.86276	21106.9375
1483.26279	20951.5375
1486.66054	20895.0375
1490.05602	20975.7375
1493.44922	21143.5375
1496.84016	21488.5375
1500.22882	22015.8375
1503.61521	22632.3375
1506.99934	23413.5375
1510.38121	23984.1375
1513.76081	24155.8375
1517.13816	23802.6375
1520.51324	23252.4375
1523.88607	22887.3375
1527.25665	22693.3375
1530.62498	22643.0375
1533.99105	22538.6375
1537.35488	22343.2375
1540.71647	21981.2375
1544.07581	21511.2375
1547.4329	21047.2375
1550.78776	20628.5375
1554.14038	20329.4375
1557.49077	20145.4375
1560.83892	20041.9375
1564.18484	20013.9375
1567.52853	20096.8375
1570.86999	20306.9375
1574.20922	20612.8375
1577.54624	20904.6375
1580.88103	20993.0375
1584.2136	21053.4375
1587.54395	21285.4375
1590.87208	21776.9375
1594.19801	22359.3375
1597.52172	22999.5375
1600.84321	23148.5375
1604.16251	22490.6375
1607.47959	21430.3375
1610.79447	20278.2375
1614.10715	19109.4375
1617.41763	18085.4375
1620.7259	17354.3375
1624.03199	16933.9375
1627.33587	16832.3375
1630.63757	17080.1375
1633.93707	17693.8375
1637.23439	18813.6375
1640.52951	20455.2375
1643.82246	22466.3375
1647.11321	24139.5375
1650.40179	24571.7375
1653.68819	23420.0375
1656.97241	21252.5375
1660.25446	18963.5375
1663.53433	17201.8375
1666.81203	15996.0375
1670.08756	15217.4375
1673.36092	14724.4375
1676.63211	14366.5375
1679.90115	14175.9375
1683.16801	14003.8375
1686.43272	13858.8375
1689.69527	13725.1375
1692.95567	13650.4375
1696.2139	13633.1375
1699.46999	13616.7375
1702.72392	13529.2375
1705.97571	13523.6375
1709.22535	13458.0375
1712.47284	13429.1375
1715.71819	13375.3375
1718.96139	13371.7375
1722.20246	13330.2375
1725.44139	13305.8375
1728.67818	13214.7375
1731.91284	13159.7375
1735.14537	13061.3375
1738.37576	13040.8375
1741.60403	12996.5375
1744.83017	12978.5375
1748.05418	12940.4375
1751.27607	12922.2375
1754.49584	12933.6375
1757.71349	12930.9375
1760.92903	12887.2375
1764.14244	12876.3375
1767.35375	12893.3375
1770.56294	12826.5375
1773.77002	12806.0375
1776.97499	12770.7375
1780.17785	12734.6375
1783.37861	12684.3375
1786.57727	12670.9375
1789.77382	12624.8375
1792.96828	12617.4375
1796.16064	12587.4375
1799.3509	12534.6375
1802.53907	12529.3375
1805.72514	12511.3375
1808.90913	12444.3375
1812.09102	12454.0375
1815.27083	12410.4375
1818.44856	12373.1375
1821.6242	12372.1375
1824.79776	12347.1375
1827.96924	12297.7375
1831.13864	12291.0375
1834.30597	12277.6375
1837.47122	12281.4375
1840.6344	12266.9375
1843.7955	12295.4375
1846.95454	12233.1375
1850.11151	12238.9375
1853.26642	12186.6375
1856.41926	12225.6375
1859.57004	12174.1375
1862.71876	12155.3375
1865.86542	12145.6375
1869.01003	12115.2375
1872.15258	12090.9375
1875.29308	12101.0375
1878.43152	12072.6375
1881.56792	12068.5375
1884.70227	12020.8375
1887.83457	12004.4375
1890.96482	11994.8375
1894.09304	11933.6375
1897.21921	11963.7375
1900.34335	11950.0375
1903.46544	11907.5375
1906.58551	11908.2375
1909.70353	11900.7375
1912.81953	11875.4375
1915.93349	11866.8375
1919.04543	11832.3375
1922.15534	11778.9375
1925.26322	11754.9375
1928.36908	11740.5375
1931.47292	11755.2375
1934.57473	11709.8375
1937.67453	11634.6375
1940.77232	11619.1375
1943.86808	11598.4375
1946.96184	11547.0375
1950.05358	11536.6375
1953.14331	11508.9375
1956.23103	11448.0375
1959.31675	11425.9375
1962.40046	11393.3375
1965.48217	11366.7375
1968.56188	11330.4375
1971.63959	11271.8375
1974.7153	11235.7375
1977.78901	11208.2375
1980.86073	11162.4375
1983.93046	11146.7375
1986.99819	11110.2375
1990.06394	11047.9375
1993.1277	11022.4375
1996.18947	10983.2375
1999.24925	10957.1375
2002.30706	10904.7375
2005.36288	10893.7375
2008.41672	10866.3375
2011.46859	10825.2375
2014.51848	10801.6375
2017.56639	10781.4375
2020.61233	10753.6375
2023.6563	10714.3375
2026.6983	10680.6375
2029.73833	10638.9375
2032.7764	10596.6375
2035.8125	10584.0375
2038.84664	10546.0375
2041.87881	10499.0375
2044.90903	10490.1375
2047.93729	10464.4375
2050.96359	10446.5375
2053.98794	10455.5375
2057.01034	10433.1375
2060.03078	10409.9375
2063.04927	10390.8375
2066.06582	10412.6375
2069.08042	10382.9375
2072.09307	10399.2375
2075.10378	10384.3375
2078.11255	10374.8375
2081.11938	10337.4375
2084.12426	10342.4375
2087.12722	10331.5375
2090.12824	10316.5375
2093.12732	10295.1375
2096.12447	10321.4375
2099.11969	10296.2375
2102.11299	10305.8375
2105.10435	10287.2375
2108.09379	10307.3375
2111.08131	10304.3375
2114.0669	10310.7375
2117.05057	10323.0375
2120.03233	10326.8375
2123.01216	10290.0375
2125.99008	10323.1375
2128.96609	10327.8375
2131.94018	10335.4375
2134.91236	10320.5375
2137.88263	10326.9375
2140.851	10323.1375
2143.81746	10333.1375
2146.78201	10332.0375
2149.74466	10320.6375
2152.7054	10338.2375
2155.66425	10330.8375
2158.6212	10303.5375
2161.57625	10314.0375
2164.52941	10287.7375
2167.48067	10277.5375
2170.43004	10292.1375
2173.37752	10269.9375
2176.32311	10255.6375
2179.26681	10270.3375
2182.20863	10251.4375
2185.14856	10220.9375
2188.08661	10232.2375
2191.02278	10249.2375
2193.95707	10234.9375
2196.88948	10207.6375
2199.82001	10196.8375
2202.74867	10177.1375
2205.67545	10159.8375
2208.60037	10120.1375
2211.52341	10150.2375
2214.44458	10137.3375
2217.36388	10102.2375
2220.28132	10075.2375
2223.1969	10065.8375
2226.11061	10057.3375
2229.02246	10016.4375
2231.93245	9976.6375
2234.84058	9944.8375
2237.74686	9948.3375
2240.65128	9935.4375
2243.55385	9879.1375
2246.45456	9894.9375
2249.35343	9878.8375
2252.25044	9834.6375
2255.14561	9821.1375
2258.03893	9849.8375
2260.93041	9796.6375
2263.82004	9756.0375
2266.70783	9730.3375
2269.59378	9691.3375
2272.4779	9683.3375
2275.36017	9639.6375
2278.24061	9632.7375
2281.11922	9632.9375
2283.996	9594.4375
2286.87094	9605.4375
2289.74405	9587.7375
2292.61534	9571.6375
2295.4848	9552.5375
2298.35243	9539.0375
2301.21824	9545.8375
2304.08223	9501.4375
2306.94439	9503.0375
2309.80474	9495.8375
2312.66327	9474.1375
2315.51999	9451.6375
2318.37489	9436.2375
2321.22797	9434.3375
2324.07925	9415.9375
2326.92871	9393.8375
2329.77637	9379.2375
2332.62222	9355.4375
2335.46626	9342.9375
2338.3085	9339.1375
2341.14893	9320.4375
2343.98756	9309.8375
2346.8244	9316.3375
2349.65943	9288.0375
2352.49267	9270.6375
2355.32411	9276.5375
2358.15376	9291.0375
2360.98161	9273.7375
2363.80768	9292.2375
2366.63195	9258.9375
2369.45444	9238.6375
2372.27514	9243.4375
2375.09405	9208.5375
2377.91118	9200.5375
2380.72652	9189.3375
2383.54009	9127.9375
2386.35187	9131.7375
2389.16188	9071.9375
2391.97011	9059.5375
2394.77657	9037.3375
2397.58125	9024.3375
2400.38416	9038.8375
2403.18529	9002.5375
2405.98466	8994.4375
2408.78226	8997.9375
2411.57809	8962.0375
2414.37216	8968.6375
2417.16446	8940.2375
2419.955	8936.5375
2422.74378	8914.4375
2425.5308	8899.2375
2428.31606	8886.5375
2431.09956	8893.7375
2433.88131	8874.7375
2436.6613	8867.3375
2439.43954	8848.6375
2442.21603	8810.3375
2444.99077	8827.7375
2447.76377	8823.1375
2450.53501	8824.3375
2453.30451	8803.6375
2456.07226	8807.3375
2458.83827	8775.9375
2461.60254	8781.9375
2464.36507	8773.6375
2467.12586	8762.9375
2469.88492	8740.7375
2472.64224	8739.6375
2475.39782	8724.2375
2478.15167	8752.5375
2480.90379	8736.4375
2483.65417	8718.5375
2486.40283	8729.4375
2489.14976	8703.7375
2491.89497	8691.1375
2494.63845	8684.2375
2497.3802	8685.3375
2500.12024	8663.7375
2502.85855	8655.7375
2505.59514	8671.3375
2508.33002	8635.9375
2511.06318	8630.6375
2513.79462	8613.4375
2516.52435	8591.8375
2519.25237	8597.0375
2521.97867	8569.5375
2524.70327	8579.3375
2527.42616	8548.5375
2530.14734	8545.5375
2532.86681	8539.5375
2535.58458	8535.4375
2538.30065	8509.8375
2541.01501	8534.9375
2543.72768	8474.1375
2546.43864	8472.2375
2549.14791	8458.6375
2551.85548	8431.8375
2554.56136	8421.6375
2557.26554	8411.0375
2559.96803	8393.6375
2562.66883	8380.8375
2565.36794	8366.5375
2568.06536	8347.3375
2570.7611	8307.7375
2573.45514	8306.5375
2576.14751	8276.0375
2578.83819	8267.3375
2581.52719	8245.7375
2584.21451	8251.4375
2586.90015	8236.9375
2589.58411	8206.6375
2592.2664	8203.4375
2594.94701	8182.5375
2597.62594	8173.1375
2600.30321	8142.3375
2602.9788	8125.3375
2605.65273	8118.6375
2608.32498	8136.1375
2610.99557	8113.8375
2613.66449	8120.6375
2616.33175	8100.4375
2618.99734	8100.3375
2621.66128	8089.1375
2624.32355	8083.8375
2626.98416	8074.7375
2629.64311	8036.7375
2632.30041	8034.1375
2634.95605	8006.5375
2637.61004	7995.1375
2640.26238	7984.8375
2642.91306	7993.5375
2645.56209	7991.4375
2648.20948	7979.6375
2650.85521	7964.2375
2653.4993	7958.9375
2656.14175	7957.6375
2658.78255	7980.3375
2661.42171	7962.9375
2664.05923	7955.0375
2666.6951	7976.9375
2669.32934	7973.3375
2671.96194	7955.8375
2674.59291	7957.7375
2677.22224	7961.0375
2679.84993	7968.1375
2682.476	7951.5375
2685.10043	7946.9375
2687.72324	7906.0375
2690.34441	7955.3375
2692.96396	7936.1375
2695.58188	7923.1375
2698.19818	7911.4375
2700.81285	7913.1375
2703.4259	7927.8375
2706.03733	7939.0375
2708.64714	7898.8375
2711.25533	7912.2375
2713.86191	7929.8375
2716.46687	7938.4375
2719.07021	7909.1375
2721.67194	7918.1375
2724.27206	7899.8375
2726.87057	7901.1375
2729.46747	7912.3375
2732.06276	7911.8375
2734.65644	7904.9375
2737.24852	7904.5375
2739.83899	7880.6375
2742.42786	7890.6375
2745.01513	7867.8375
2747.60079	7853.3375
2750.18486	7860.9375
2752.76733	7825.0375
2755.3482	7818.9375
2757.92747	7811.1375
2760.50515	7770.1375
2763.08123	7773.7375
2765.65573	7768.8375
2768.22863	7779.7375
2770.79994	7765.3375
2773.36967	7765.3375
2775.9378	7733.7375
2778.50435	7715.1375
2781.06932	7738.2375
2783.6327	7706.4375
2786.1945	7720.5375
2788.75471	7684.6375
2791.31335	7669.8375
2793.87041	7667.8375
2796.42589	7655.9375
2798.97979	7661.7375
2801.53212	7644.4375
2804.08288	7637.6375
2806.63206	7596.4375
2809.17967	7576.0375
2811.72571	7559.6375
2814.27018	7534.8375
2816.81308	7500.5375
2819.35442	7492.0375
2821.89419	7486.5375
2824.43239	7475.1375
2826.96904	7446.6375
2829.50412	7457.4375
2832.03763	7438.3375
2834.56959	7440.4375
2837.1	7429.1375
2839.62884	7455.2375
2842.15613	7449.0375
2844.68186	7468.7375
2847.20604	7479.3375
2849.72867	7491.3375
2852.24974	7478.8375
2854.76927	7460.4375
2857.28724	7444.5375
2859.80367	7405.9375
2862.31855	7422.1375
2864.83189	7396.6375
2867.34368	7376.4375
2869.85393	7388.3375
2872.36264	7376.8375
2874.8698	7369.6375
2877.37543	7358.9375
2879.87952	7346.0375
2882.38207	7354.6375
2884.88308	7323.8375
2887.38256	7338.5375
2889.88051	7310.3375
2892.37692	7318.1375
2894.8718	7303.4375
2897.36515	7353.0375
2899.85698	7337.3375
2902.34727	7351.1375
2904.83604	7354.2375
2907.32328	7340.3375
2909.809	7346.7375
2912.29319	7338.9375
2914.77587	7339.3375
2917.25702	7319.5375
2919.73665	7329.6375
2922.21476	7330.5375
2924.69136	7300.1375
2927.16644	7320.6375
2929.64	7339.7375
2932.11205	7331.5375
2934.58258	7278.7375
2937.05161	7298.4375
2939.51912	7282.2375
2941.98513	7253.9375
2944.44962	7254.3375
2946.91261	7224.0375
2949.37409	7232.2375
2951.83407	7207.1375
2954.29254	7184.9375
2956.74951	7203.8375
2959.20498	7185.4375
2961.65895	7190.8375
2964.11142	7180.3375
2966.56239	7147.3375
2969.01186	7157.2375
2971.45984	7154.4375
2973.90632	7122.8375
2976.35131	7110.2375
2978.7948	7084.3375
2981.23681	7068.2375
2983.67732	7049.5375
2986.11635	7033.0375
2988.55388	7021.3375
2990.98993	7003.2375
2993.4245	6984.4375
2995.85758	6959.8375
2998.28917	6943.6375
3000.71928	6944.4375
3003.14791	6905.4375
3005.57506	6928.4375
3008.00073	6885.6375
3010.42493	6900.2375
3012.84764	6870.4375
3015.26888	6842.2375
3017.68865	6849.2375
3020.10694	6827.4375
3022.52376	6835.0375
3024.9391	6816.0375
3027.35298	6799.7375
3029.76539	6770.5375
3032.17632	6770.9375
3034.5858	6768.9375
3036.9938	6770.8375
3039.40034	6797.0375
3041.80542	6799.1375
3044.20903	6736.4375
3046.61118	6740.5375
3049.01187	6716.9375
3051.4111	6749.8375
3053.80888	6718.8375
3056.20519	6706.9375
3058.60005	6689.8375
3060.99345	6683.3375
3063.3854	6654.9375
3065.7759	6630.5375
3068.16494	6617.2375
3070.55254	6613.6375
3072.93868	6594.1375
3075.32338	6565.0375
3077.70662	6563.1375
3080.08842	6536.0375
3082.46878	6527.1375
3084.84769	6539.3375
3087.22515	6530.7375
3089.60118	6538.3375
3091.97576	6538.4375
3094.3489	6524.5375
3096.72061	6532.4375
3099.09087	6506.9375
3101.4597	6499.8375
3103.82709	6513.1375
3106.19305	6477.7375
3108.55757	6487.9375
3110.92066	6477.3375
3113.28232	6487.1375
3115.64255	6471.1375
3118.00134	6454.1375
3120.35871	6447.1375
3122.71466	6454.0375
3125.06917	6428.3375
3127.42226	6407.7375
3129.77393	6409.2375
3132.12417	6379.9375
3134.47299	6401.2375
3136.82039	6400.9375
3139.16636	6396.6375
3141.51092	6406.2375
3143.85406	6414.2375
3146.19579	6419.9375
3148.53609	6398.2375
3150.87499	6428.1375
3153.21246	6404.2375
3155.54853	6425.2375
3157.88318	6412.0375
3160.21642	6417.6375
3162.54826	6409.2375
3164.87868	6408.1375
3167.2077	6427.9375
3169.5353	6417.6375
3171.86151	6423.3375
3174.18631	6422.8375
3176.5097	6437.3375
3178.83169	6411.0375
3181.15228	6407.2375
3183.47147	6399.3375
3185.78926	6385.1375
3188.10565	6381.3375
3190.42065	6353.8375
3192.73424	6353.8375
3195.04645	6359.2375
3197.35725	6357.0375
3199.66667	6360.7375
3201.97469	6338.2375
3204.28132	6357.8375
3206.58656	6372.1375
3208.8904	6369.3375
3211.19287	6354.5375
3213.49394	6368.8375
3215.79363	6361.7375
3218.09193	6360.6375
3220.38884	6365.5375
3222.68438	6357.8375
3224.97853	6342.7375
3227.2713	6341.9375
3229.56269	6330.0375
3231.8527	6327.8375
3234.14133	6321.2375
3236.42858	6312.9375
3238.71446	6278.1375
3240.99896	6266.0375
3243.28209	6272.8375
3245.56384	6260.2375
3247.84423	6272.1375
3250.12324	6259.8375
3252.40088	6256.8375
3254.67715	6232.5375
3256.95205	6230.8375
3259.22558	6231.4375
3261.49775	6219.2375
3263.76855	6199.3375
3266.03799	6185.0375
3268.30606	6192.6375
3270.57277	6161.0375
3272.83812	6152.7375
3275.10211	6136.5375
3277.36474	6113.2375
3279.62601	6119.3375
3281.88593	6092.2375
3284.14448	6109.2375
3286.40168	6111.2375
3288.65753	6120.1375
3290.91202	6108.4375
3293.16516	6081.7375
3295.41695	6058.0375
3297.66738	6050.2375
3299.91647	5996.6375
3302.16421	5982.2375
3304.4106	5940.2375
3306.65564	5887.8375
3308.89933	5845.9375
3311.14169	5810.3375
3313.38269	5759.0375
3315.62236	5712.9375
3317.86068	5687.2375
3320.09766	5599.8375
3322.3333	5573.1375
3324.5676	5550.5375
3326.80056	5450.0375
3329.03219	5448.0375
3331.26248	3.5375
3333.49143	0.6375
3335.71905	-0.5625
