Data from AgNP_FTO_APTES_UA_10uM_CRN_500uM_R6G_10uM_NaF_0.1M_Addition_RamanShift__3__18-43-50-929.txt Node

Date: Thu Feb 10 18:43:50 GMT 2022
User: TCL
Spectrometer: QEP01345
Trigger mode: 4
Integration Time (sec): 7.000000E0
Scans to average: 10
Electric dark correction enabled: true
Nonlinearity correction enabled: false
Boxcar width: 0
XAxis mode: Raman Shifts
Number of Pixels in Spectrum: 1044
>>>>>Begin Spectral Data<<<<<
46.04893	0.2875
50.45542	-0.2125
54.85868	-2.0125
59.25871	-1.1125
63.6555	60.7875
68.04907	61.9875
72.43941	65.4875
76.82654	67.5875
81.21044	68.8875
85.59113	68.7875
89.96862	72.8875
94.34289	80.3875
98.71396	79.1875
103.08183	81.3875
107.4465	85.9875
111.80798	84.1875
116.16626	89.2875
120.52136	90.7875
124.87327	96.1875
129.222	99.7875
133.56755	106.6875
137.90993	110.0875
142.24913	116.9875
146.58517	133.4875
150.91804	160.5875
155.24774	188.2875
159.57429	228.6875
163.89768	290.7875
168.21792	387.9875
172.53501	525.5875
176.84895	742.1875
181.15975	1033.7875
185.46741	1452.2875
189.77193	2023.6875
194.07331	2694.9875
198.37157	3469.7875
202.6667	4316.9875
206.9587	5138.0875
211.24758	5926.0875
215.53334	6726.2875
219.81599	7565.8875
224.09553	8479.8875
228.37195	9457.8875
232.64527	10612.4875
236.91549	11779.9875
241.18261	12998.9875
245.44663	14152.9875
249.70755	15177.1875
253.96539	16096.6875
258.22014	16828.1875
262.4718	17499.1875
266.72039	17960.7875
270.96589	18212.7875
275.20832	18246.7875
279.44768	18114.9875
283.68397	17954.9875
287.91719	17772.1875
292.14735	17672.0875
296.37445	17625.2875
300.59849	17659.7875
304.81948	17745.2875
309.03742	17712.4875
313.25231	17559.0875
317.46415	17312.5875
321.67296	16956.6875
325.87872	16665.8875
330.08145	16512.7875
334.28114	16501.4875
338.47781	16596.0875
342.67145	16800.3875
346.86207	17047.7875
351.04966	17325.0875
355.23424	17617.6875
359.4158	17874.5875
363.59435	18108.4875
367.76989	18256.0875
371.94243	18405.1875
376.11196	18535.7875
380.27849	18619.6875
384.44203	18709.7875
388.60257	18830.8875
392.76012	18963.6875
396.91468	19167.7875
401.06626	19376.7875
405.21485	19541.4875
409.36047	19504.5875
413.50311	19295.0875
417.64277	19088.0875
421.77947	19052.8875
425.9132	19085.3875
430.04396	19208.0875
434.17176	19322.3875
438.2966	19470.8875
442.41849	19682.0875
446.53742	20115.5875
450.6534	20517.1875
454.76644	20851.9875
458.87653	20954.1875
462.98368	20899.4875
467.08789	20777.4875
471.18916	20628.1875
475.2875	20471.3875
479.38291	20387.8875
483.4754	20324.1875
487.56496	20136.0875
491.6516	19885.0875
495.73531	19626.5875
499.81612	19482.4875
503.89401	19537.6875
507.96899	19595.6875
512.04106	19551.8875
516.11023	19559.0875
520.1765	19492.8875
524.23987	19430.4875
528.30034	19313.5875
532.35792	19204.6875
536.41261	19048.0875
540.46441	18929.3875
544.51333	18930.8875
548.55936	19032.7875
552.60252	19339.2875
556.64279	19723.5875
560.6802	19969.2875
564.71473	20095.4875
568.7464	20294.7875
572.7752	20704.3875
576.80114	20969.4875
580.82422	21162.2875
584.84444	21441.2875
588.86181	21891.1875
592.87633	22259.8875
596.888	22238.3875
600.89682	21814.8875
604.9028	21856.4875
608.90594	23116.5875
612.90624	24769.5875
616.90371	23887.1875
620.89834	20916.6875
624.89015	19489.7875
628.87913	19310.8875
632.86528	19370.6875
636.84862	19397.4875
640.82913	19273.0875
644.80683	18969.8875
648.78172	18767.1875
652.75379	18757.4875
656.72306	18875.4875
660.68952	19068.8875
664.65319	19011.9875
668.61405	18744.7875
672.57211	18715.5875
676.52738	18789.8875
680.47986	18785.9875
684.42955	18731.9875
688.37646	18672.1875
692.32058	18706.6875
696.26192	18901.7875
700.20048	19077.3875
704.13626	19170.9875
708.06928	19173.4875
711.99952	19135.1875
715.927	19126.2875
719.85171	19098.3875
723.77365	19085.0875
727.69284	18949.9875
731.60928	18765.4875
735.52295	18750.2875
739.43388	18694.4875
743.34206	18755.2875
747.24749	18793.4875
751.15017	18876.2875
755.05012	19109.7875
758.94733	19487.5875
762.8418	20145.4875
766.73354	21186.1875
770.62254	22268.3875
774.50882	22633.6875
778.39237	21980.4875
782.27321	20780.7875
786.15132	19791.0875
790.02671	19125.4875
793.89938	18842.2875
797.76935	18733.1875
801.6366	18656.1875
805.50115	18626.8875
809.36299	18523.1875
813.22213	18466.7875
817.07857	18483.4875
820.93231	18460.6875
824.78336	18406.6875
828.63172	18378.4875
832.47738	18391.0875
836.32036	18321.4875
840.16066	18369.2875
843.99827	18387.8875
847.8332	18339.9875
851.66546	18341.2875
855.49504	18352.7875
859.32195	18356.4875
863.1462	18341.7875
866.96777	18327.9875
870.78668	18281.8875
874.60293	18317.6875
878.41652	18298.3875
882.22745	18323.6875
886.03573	18360.6875
889.84136	18373.5875
893.64433	18320.8875
897.44466	18284.6875
901.24235	18222.9875
905.0374	18169.7875
908.8298	18160.1875
912.61957	18105.4875
916.40671	18220.1875
920.19121	18351.2875
923.97308	18492.4875
927.75233	18479.4875
931.52895	18414.1875
935.30295	18273.9875
939.07433	18059.7875
942.84309	17864.7875
946.60924	17740.4875
950.37278	17686.2875
954.13371	17629.4875
957.89203	17638.2875
961.64774	17601.4875
965.40086	17590.6875
969.15137	17529.3875
972.89929	17525.8875
976.64461	17432.6875
980.38733	17447.4875
984.12747	17467.3875
987.86502	17575.1875
991.59999	17620.2875
995.33237	17781.2875
999.06217	18010.1875
1002.78939	18306.4875
1006.51404	18455.4875
1010.23611	18600.3875
1013.95561	18705.6875
1017.67255	18784.2875
1021.38692	18669.7875
1025.09872	18520.3875
1028.80796	18433.7875
1032.51465	18551.7875
1036.21877	18744.1875
1039.92035	18823.2875
1043.61937	18790.2875
1047.31584	18626.6875
1051.00976	18506.0875
1054.70114	18437.0875
1058.38998	18457.4875
1062.07627	18567.4875
1065.76003	18617.6875
1069.44126	18697.2875
1073.11995	18840.4875
1076.79611	18981.8875
1080.46974	19046.4875
1084.14085	19177.8875
1087.80943	19295.7875
1091.47549	19447.9875
1095.13903	19438.6875
1098.80005	19282.5875
1102.45857	19059.8875
1106.11456	18857.2875
1109.76805	18791.5875
1113.41903	18827.3875
1117.06751	18925.3875
1120.71348	19099.7875
1124.35696	19252.3875
1127.99793	19453.4875
1131.63641	19562.8875
1135.2724	19419.1875
1138.90589	19270.0875
1142.5369	19190.0875
1146.16542	19213.7875
1149.79145	19278.7875
1153.415	19369.9875
1157.03607	19530.4875
1160.65467	19885.4875
1164.27079	20507.8875
1167.88443	21275.8875
1171.49561	22111.5875
1175.10432	23218.9875
1178.71056	24665.5875
1182.31434	26044.9875
1185.91565	26756.9875
1189.51451	26708.1875
1193.11091	26126.0875
1196.70485	25300.7875
1200.29634	24495.0875
1203.88538	23885.1875
1207.47197	23439.2875
1211.05612	23029.9875
1214.63782	22620.9875
1218.21708	22221.4875
1221.79391	21891.4875
1225.36829	21667.6875
1228.94024	21455.0875
1232.50976	21236.7875
1236.07685	21014.6875
1239.6415	20896.6875
1243.20374	20955.8875
1246.76355	21065.7875
1250.32093	21300.0875
1253.8759	21553.1875
1257.42845	21947.4875
1260.97859	22341.6875
1264.52631	22787.7875
1268.07163	23249.3875
1271.61453	23700.0875
1275.15503	24136.2875
1278.69312	24599.0875
1282.22882	25022.6875
1285.76211	25539.1875
1289.29301	26265.0875
1292.82151	27176.3875
1296.34761	28302.4875
1299.87133	29686.3875
1303.39266	31163.1875
1306.9116	32587.6875
1310.42815	33793.5875
1313.94233	34532.5875
1317.45412	34330.1875
1320.96354	33644.5875
1324.47058	32896.3875
1327.97525	32174.7875
1331.47754	31641.1875
1334.97747	31306.8875
1338.47502	31058.6875
1341.97022	30941.0875
1345.46305	30766.5875
1348.95352	30781.9875
1352.44163	31069.6875
1355.92738	31813.4875
1359.41078	33050.5875
1362.89183	34115.3875
1366.37053	33542.6875
1369.84688	31067.0875
1373.32088	28089.5875
1376.79254	26129.9875
1380.26186	25406.9875
1383.72883	25367.7875
1387.19347	25365.1875
1390.65578	25210.7875
1394.11575	25116.3875
1397.57339	25216.5875
1401.0287	25459.5875
1404.48168	25601.4875
1407.93234	25452.3875
1411.38068	25019.5875
1414.82669	24383.9875
1418.27039	23652.6875
1421.71177	22929.1875
1425.15083	22302.6875
1428.58758	21960.5875
1432.02203	22074.6875
1435.45416	22438.3875
1438.88399	22922.6875
1442.31151	23232.0875
1445.73673	23465.6875
1449.15965	23655.7875
1452.58027	23775.0875
1455.9986	23751.3875
1459.41463	23850.3875
1462.82837	24021.3875
1466.23982	24264.0875
1469.64898	24525.2875
1473.05586	24678.4875
1476.46045	24720.3875
1479.86276	24652.0875
1483.26279	24536.2875
1486.66054	24484.7875
1490.05602	24600.2875
1493.44922	24848.5875
1496.84016	25221.7875
1500.22882	25879.8875
1503.61521	26779.4875
1506.99934	27816.9875
1510.38121	28737.1875
1513.76081	28969.0875
1517.13816	28296.5875
1520.51324	27234.2875
1523.88607	26265.4875
1527.25665	25805.0875
1530.62498	25646.6875
1533.99105	25500.8875
1537.35488	25308.3875
1540.71647	24962.3875
1544.07581	24489.1875
1547.4329	24046.3875
1550.78776	23630.3875
1554.14038	23267.7875
1557.49077	23107.6875
1560.83892	23102.8875
1564.18484	23109.2875
1567.52853	23280.8875
1570.86999	23529.3875
1574.20922	23852.9875
1577.54624	24161.0875
1580.88103	24232.8875
1584.2136	24197.7875
1587.54395	24495.4875
1590.87208	25161.0875
1594.19801	26162.7875
1597.52172	27138.9875
1600.84321	27431.2875
1604.16251	26655.2875
1607.47959	25219.9875
1610.79447	23580.4875
1614.10715	22092.2875
1617.41763	20803.0875
1620.7259	20004.9875
1624.03199	19558.6875
1627.33587	19554.2875
1630.63757	19877.1875
1633.93707	20721.4875
1637.23439	22080.9875
1640.52951	24119.9875
1643.82246	26575.0875
1647.11321	28635.6875
1650.40179	29205.6875
1653.68819	27684.3875
1656.97241	24849.9875
1660.25446	21932.8875
1663.53433	19822.3875
1666.81203	18455.8875
1670.08756	17602.0875
1673.36092	17089.9875
1676.63211	16711.2875
1679.90115	16466.6875
1683.16801	16280.0875
1686.43272	16132.5875
1689.69527	16009.4875
1692.95567	15935.7875
1696.2139	15899.2875
1699.46999	15881.3875
1702.72392	15829.4875
1705.97571	15756.3875
1709.22535	15723.9875
1712.47284	15686.9875
1715.71819	15687.8875
1718.96139	15664.2875
1722.20246	15630.6875
1725.44139	15562.3875
1728.67818	15503.2875
1731.91284	15437.8875
1735.14537	15324.8875
1738.37576	15288.0875
1741.60403	15260.3875
1744.83017	15211.4875
1748.05418	15198.6875
1751.27607	15185.5875
1754.49584	15178.7875
1757.71349	15126.9875
1760.92903	15129.4875
1764.14244	15094.7875
1767.35375	15113.6875
1770.56294	15085.1875
1773.77002	15043.5875
1776.97499	15012.4875
1780.17785	14967.9875
1783.37861	14951.5875
1786.57727	14916.5875
1789.77382	14913.6875
1792.96828	14847.9875
1796.16064	14814.1875
1799.3509	14826.5875
1802.53907	14814.8875
1805.72514	14777.0875
1808.90913	14728.0875
1812.09102	14706.5875
1815.27083	14642.5875
1818.44856	14627.3875
1821.6242	14606.0875
1824.79776	14602.8875
1827.96924	14540.1875
1831.13864	14543.8875
1834.30597	14544.3875
1837.47122	14526.2875
1840.6344	14507.0875
1843.7955	14508.6875
1846.95454	14475.5875
1850.11151	14500.5875
1853.26642	14468.5875
1856.41926	14451.7875
1859.57004	14440.9875
1862.71876	14449.7875
1865.86542	14406.1875
1869.01003	14415.7875
1872.15258	14374.9875
1875.29308	14393.5875
1878.43152	14383.4875
1881.56792	14352.4875
1884.70227	14357.2875
1887.83457	14310.4875
1890.96482	14276.0875
1894.09304	14268.4875
1897.21921	14239.3875
1900.34335	14251.9875
1903.46544	14285.0875
1906.58551	14235.7875
1909.70353	14206.8875
1912.81953	14170.9875
1915.93349	14188.0875
1919.04543	14141.4875
1922.15534	14079.3875
1925.26322	14063.3875
1928.36908	14041.9875
1931.47292	14036.8875
1934.57473	14008.6875
1937.67453	13933.4875
1940.77232	13927.8875
1943.86808	13866.9875
1946.96184	13859.8875
1950.05358	13809.0875
1953.14331	13791.0875
1956.23103	13769.5875
1959.31675	13686.4875
1962.40046	13663.4875
1965.48217	13630.0875
1968.56188	13606.4875
1971.63959	13533.2875
1974.7153	13474.1875
1977.78901	13462.0875
1980.86073	13417.7875
1983.93046	13408.9875
1986.99819	13370.0875
1990.06394	13315.8875
1993.1277	13269.1875
1996.18947	13222.4875
1999.24925	13199.6875
2002.30706	13131.0875
2005.36288	13103.5875
2008.41672	13080.3875
2011.46859	13027.5875
2014.51848	13017.2875
2017.56639	12994.5875
2020.61233	12946.7875
2023.6563	12912.4875
2026.6983	12905.0875
2029.73833	12855.6875
2032.7764	12833.4875
2035.8125	12808.0875
2038.84664	12755.8875
2041.87881	12739.1875
2044.90903	12700.0875
2047.93729	12695.4875
2050.96359	12669.2875
2053.98794	12645.4875
2057.01034	12646.8875
2060.03078	12654.0875
2063.04927	12634.1875
2066.06582	12616.4875
2069.08042	12609.3875
2072.09307	12599.9875
2075.10378	12588.1875
2078.11255	12567.8875
2081.11938	12568.5875
2084.12426	12563.1875
2087.12722	12549.0875
2090.12824	12547.8875
2093.12732	12543.3875
2096.12447	12519.8875
2099.11969	12509.6875
2102.11299	12513.5875
2105.10435	12527.6875
2108.09379	12549.1875
2111.08131	12553.5875
2114.0669	12536.7875
2117.05057	12565.8875
2120.03233	12579.6875
2123.01216	12575.5875
2125.99008	12583.9875
2128.96609	12600.9875
2131.94018	12639.3875
2134.91236	12593.8875
2137.88263	12598.7875
2140.851	12593.1875
2143.81746	12625.9875
2146.78201	12642.1875
2149.74466	12625.7875
2152.7054	12636.1875
2155.66425	12636.1875
2158.6212	12595.4875
2161.57625	12609.6875
2164.52941	12613.7875
2167.48067	12599.7875
2170.43004	12597.7875
2173.37752	12597.0875
2176.32311	12599.4875
2179.26681	12594.6875
2182.20863	12594.9875
2185.14856	12577.2875
2188.08661	12583.9875
2191.02278	12596.2875
2193.95707	12604.0875
2196.88948	12570.6875
2199.82001	12572.4875
2202.74867	12511.9875
2205.67545	12504.1875
2208.60037	12504.5875
2211.52341	12475.3875
2214.44458	12464.1875
2217.36388	12459.1875
2220.28132	12454.3875
2223.1969	12399.5875
2226.11061	12418.6875
2229.02246	12375.3875
2231.93245	12332.1875
2234.84058	12294.2875
2237.74686	12284.2875
2240.65128	12304.1875
2243.55385	12248.5875
2246.45456	12239.3875
2249.35343	12209.7875
2252.25044	12212.6875
2255.14561	12204.3875
2258.03893	12159.6875
2260.93041	12177.2875
2263.82004	12066.1875
2266.70783	12087.4875
2269.59378	12035.8875
2272.4779	11991.9875
2275.36017	11981.8875
2278.24061	11954.0875
2281.11922	11935.1875
2283.996	11938.7875
2286.87094	11924.6875
2289.74405	11912.8875
2292.61534	11913.2875
2295.4848	11911.9875
2298.35243	11918.7875
2301.21824	11887.2875
2304.08223	11876.7875
2306.94439	11889.7875
2309.80474	11848.8875
2312.66327	11866.7875
2315.51999	11822.1875
2318.37489	11832.9875
2321.22797	11835.7875
2324.07925	11817.6875
2326.92871	11778.2875
2329.77637	11734.9875
2332.62222	11755.7875
2335.46626	11727.9875
2338.3085	11697.9875
2341.14893	11722.8875
2343.98756	11708.4875
2346.8244	11686.4875
2349.65943	11697.1875
2352.49267	11665.7875
2355.32411	11662.7875
2358.15376	11677.4875
2360.98161	11673.0875
2363.80768	11655.4875
2366.63195	11682.6875
2369.45444	11641.5875
2372.27514	11607.7875
2375.09405	11603.3875
2377.91118	11570.6875
2380.72652	11576.1875
2383.54009	11525.0875
2386.35187	11478.3875
2389.16188	11462.3875
2391.97011	11427.4875
2394.77657	11431.8875
2397.58125	11414.9875
2400.38416	11386.1875
2403.18529	11377.3875
2405.98466	11375.0875
2408.78226	11353.1875
2411.57809	11337.6875
2414.37216	11320.3875
2417.16446	11315.0875
2419.955	11277.4875
2422.74378	11270.8875
2425.5308	11269.1875
2428.31606	11287.0875
2431.09956	11265.0875
2433.88131	11246.0875
2436.6613	11222.7875
2439.43954	11231.2875
2442.21603	11204.5875
2444.99077	11192.5875
2447.76377	11191.8875
2450.53501	11184.2875
2453.30451	11197.2875
2456.07226	11176.1875
2458.83827	11152.9875
2461.60254	11164.7875
2464.36507	11175.1875
2467.12586	11162.9875
2469.88492	11139.5875
2472.64224	11139.6875
2475.39782	11130.3875
2478.15167	11169.1875
2480.90379	11129.6875
2483.65417	11140.5875
2486.40283	11121.7875
2489.14976	11125.0875
2491.89497	11131.3875
2494.63845	11135.1875
2497.3802	11126.9875
2500.12024	11108.1875
2502.85855	11089.9875
2505.59514	11081.6875
2508.33002	11076.5875
2511.06318	11026.4875
2513.79462	11024.0875
2516.52435	11024.6875
2519.25237	10998.7875
2521.97867	10975.1875
2524.70327	10991.1875
2527.42616	10985.0875
2530.14734	10973.6875
2532.86681	10955.8875
2535.58458	10960.4875
2538.30065	10933.9875
2541.01501	10943.1875
2543.72768	10924.8875
2546.43864	10915.2875
2549.14791	10905.9875
2551.85548	10861.1875
2554.56136	10860.4875
2557.26554	10848.4875
2559.96803	10805.6875
2562.66883	10793.6875
2565.36794	10768.7875
2568.06536	10758.7875
2570.7611	10742.1875
2573.45514	10723.9875
2576.14751	10735.7875
2578.83819	10684.7875
2581.52719	10672.7875
2584.21451	10683.9875
2586.90015	10688.8875
2589.58411	10655.8875
2592.2664	10641.6875
2594.94701	10623.8875
2597.62594	10608.0875
2600.30321	10588.7875
2602.9788	10569.1875
2605.65273	10539.0875
2608.32498	10553.2875
2610.99557	10539.8875
2613.66449	10561.0875
2616.33175	10543.0875
2618.99734	10540.6875
2621.66128	10518.0875
2624.32355	10521.2875
2626.98416	10489.1875
2629.64311	10469.5875
2632.30041	10496.5875
2634.95605	10471.5875
2637.61004	10447.8875
2640.26238	10416.5875
2642.91306	10426.9875
2645.56209	10420.6875
2648.20948	10413.0875
2650.85521	10416.2875
2653.4993	10415.1875
2656.14175	10418.6875
2658.78255	10414.8875
2661.42171	10422.4875
2664.05923	10420.8875
2666.6951	10430.2875
2669.32934	10406.3875
2671.96194	10411.2875
2674.59291	10397.7875
2677.22224	10415.2875
2679.84993	10431.4875
2682.476	10403.4875
2685.10043	10390.7875
2687.72324	10379.5875
2690.34441	10395.2875
2692.96396	10396.0875
2695.58188	10380.2875
2698.19818	10369.7875
2700.81285	10373.6875
2703.4259	10359.0875
2706.03733	10413.1875
2708.64714	10386.3875
2711.25533	10410.8875
2713.86191	10367.2875
2716.46687	10410.7875
2719.07021	10415.1875
2721.67194	10418.3875
2724.27206	10396.5875
2726.87057	10424.5875
2729.46747	10396.3875
2732.06276	10428.8875
2734.65644	10403.7875
2737.24852	10415.0875
2739.83899	10380.7875
2742.42786	10387.5875
2745.01513	10363.2875
2747.60079	10364.3875
2750.18486	10343.6875
2752.76733	10343.7875
2755.3482	10305.6875
2757.92747	10310.1875
2760.50515	10280.3875
2763.08123	10265.6875
2765.65573	10274.2875
2768.22863	10264.3875
2770.79994	10274.2875
2773.36967	10252.7875
2775.9378	10238.2875
2778.50435	10234.7875
2781.06932	10230.7875
2783.6327	10233.7875
2786.1945	10198.0875
2788.75471	10197.2875
2791.31335	10187.2875
2793.87041	10144.7875
2796.42589	10164.9875
2798.97979	10146.4875
2801.53212	10136.1875
2804.08288	10118.6875
2806.63206	10077.9875
2809.17967	10087.7875
2811.72571	10069.2875
2814.27018	10039.6875
2816.81308	10014.9875
2819.35442	9949.1875
2821.89419	9961.9875
2824.43239	9933.7875
2826.96904	9928.3875
2829.50412	9946.8875
2832.03763	9932.6875
2834.56959	9931.0875
2837.1	9927.4875
2839.62884	9929.6875
2842.15613	9931.6875
2844.68186	9976.9875
2847.20604	9971.5875
2849.72867	9964.7875
2852.24974	9970.1875
2854.76927	9912.7875
2857.28724	9935.0875
2859.80367	9910.5875
2862.31855	9906.2875
2864.83189	9909.2875
2867.34368	9857.3875
2869.85393	9864.5875
2872.36264	9852.0875
2874.8698	9846.2875
2877.37543	9849.1875
2879.87952	9813.7875
2882.38207	9833.1875
2884.88308	9835.1875
2887.38256	9823.1875
2889.88051	9830.4875
2892.37692	9845.7875
2894.8718	9812.9875
2897.36515	9871.8875
2899.85698	9858.2875
2902.34727	9879.7875
2904.83604	9875.7875
2907.32328	9894.7875
2909.809	9871.6875
2912.29319	9877.4875
2914.77587	9878.4875
2917.25702	9865.6875
2919.73665	9853.8875
2922.21476	9865.9875
2924.69136	9863.7875
2927.16644	9850.6875
2929.64	9850.7875
2932.11205	9859.8875
2934.58258	9813.2875
2937.05161	9829.2875
2939.51912	9821.7875
2941.98513	9777.8875
2944.44962	9773.6875
2946.91261	9741.6875
2949.37409	9773.8875
2951.83407	9756.2875
2954.29254	9746.2875
2956.74951	9743.3875
2959.20498	9731.8875
2961.65895	9729.0875
2964.11142	9712.6875
2966.56239	9693.1875
2969.01186	9710.8875
2971.45984	9681.4875
2973.90632	9667.3875
2976.35131	9650.3875
2978.7948	9621.8875
2981.23681	9594.5875
2983.67732	9571.2875
2986.11635	9555.9875
2988.55388	9542.3875
2990.98993	9528.7875
2993.4245	9495.1875
2995.85758	9485.4875
2998.28917	9465.5875
3000.71928	9441.2875
3003.14791	9435.8875
3005.57506	9437.6875
3008.00073	9407.6875
3010.42493	9407.7875
3012.84764	9377.1875
3015.26888	9350.5875
3017.68865	9335.2875
3020.10694	9351.0875
3022.52376	9343.1875
3024.9391	9332.5875
3027.35298	9282.6875
3029.76539	9299.7875
3032.17632	9298.9875
3034.5858	9284.4875
3036.9938	9277.3875
3039.40034	9275.5875
3041.80542	9263.9875
3044.20903	9255.2875
3046.61118	9249.7875
3049.01187	9253.6875
3051.4111	9237.7875
3053.80888	9209.9875
3056.20519	9193.0875
3058.60005	9176.1875
3060.99345	9162.3875
3063.3854	9136.0875
3065.7759	9103.5875
3068.16494	9097.0875
3070.55254	9096.5875
3072.93868	9078.2875
3075.32338	9041.5875
3077.70662	9038.2875
3080.08842	8994.7875
3082.46878	8993.7875
3084.84769	8999.9875
3087.22515	9000.9875
3089.60118	9018.6875
3091.97576	8992.2875
3094.3489	8999.0875
3096.72061	8974.8875
3099.09087	8983.8875
3101.4597	8988.5875
3103.82709	8952.1875
3106.19305	8955.0875
3108.55757	8971.0875
3110.92066	8948.8875
3113.28232	8960.8875
3115.64255	8935.6875
3118.00134	8923.0875
3120.35871	8907.9875
3122.71466	8884.9875
3125.06917	8863.8875
3127.42226	8860.0875
3129.77393	8846.1875
3132.12417	8842.6875
3134.47299	8824.8875
3136.82039	8854.6875
3139.16636	8864.2875
3141.51092	8858.2875
3143.85406	8838.9875
3146.19579	8850.1875
3148.53609	8872.0875
3150.87499	8868.8875
3153.21246	8856.0875
3155.54853	8889.8875
3157.88318	8867.7875
3160.21642	8878.7875
3162.54826	8877.4875
3164.87868	8865.0875
3167.2077	8886.3875
3169.5353	8901.0875
3171.86151	8881.9875
3174.18631	8881.9875
3176.5097	8883.4875
3178.83169	8873.7875
3181.15228	8861.8875
3183.47147	8837.4875
3185.78926	8839.7875
3188.10565	8822.1875
3190.42065	8834.0875
3192.73424	8814.8875
3195.04645	8788.5875
3197.35725	8805.7875
3199.66667	8800.3875
3201.97469	8804.9875
3204.28132	8826.5875
3206.58656	8826.6875
3208.8904	8813.1875
3211.19287	8805.6875
3213.49394	8831.7875
3215.79363	8825.4875
3218.09193	8847.8875
3220.38884	8844.8875
3222.68438	8856.9875
3224.97853	8822.3875
3227.2713	8800.7875
3229.56269	8802.2875
3231.8527	8794.1875
3234.14133	8779.8875
3236.42858	8763.5875
3238.71446	8747.9875
3240.99896	8716.7875
3243.28209	8729.0875
3245.56384	8729.0875
3247.84423	8731.9875
3250.12324	8716.4875
3252.40088	8710.1875
3254.67715	8701.1875
3256.95205	8701.0875
3259.22558	8684.2875
3261.49775	8666.0875
3263.76855	8676.7875
3266.03799	8664.1875
3268.30606	8653.2875
3270.57277	8631.4875
3272.83812	8597.3875
3275.10211	8591.0875
3277.36474	8579.5875
3279.62601	8568.6875
3281.88593	8543.3875
3284.14448	8543.9875
3286.40168	8544.5875
3288.65753	8547.0875
3290.91202	8542.7875
3293.16516	8517.1875
3295.41695	8511.9875
3297.66738	8454.5875
3299.91647	8411.7875
3302.16421	8375.1875
3304.4106	8322.7875
3306.65564	8259.6875
3308.89933	8218.5875
3311.14169	8178.1875
3313.38269	8102.1875
3315.62236	8031.3875
3317.86068	7985.7875
3320.09766	7910.0875
3322.3333	7859.7875
3324.5676	7840.6875
3326.80056	7721.8875
3329.03219	7681.4875
3331.26248	3.9875
3333.49143	-0.4125
3335.71905	-0.3125
