Data from AgNP_FTO_APTES_UA_10uM_CRN_0uM_R6G_10uM_NaF_0.1M_Addition_RamanShift__9__12-18-50-445.txt Node

Date: Thu Feb 10 12:18:50 GMT 2022
User: TCL
Spectrometer: QEP01345
Trigger mode: 4
Integration Time (sec): 7.000000E0
Scans to average: 10
Electric dark correction enabled: true
Nonlinearity correction enabled: false
Boxcar width: 0
XAxis mode: Raman Shifts
Number of Pixels in Spectrum: 1044
>>>>>Begin Spectral Data<<<<<
46.04893	1.1
50.45542	-0.8
54.85868	-2.7
59.25871	1.5
63.6555	59.1
68.04907	59.5
72.43941	66.4
76.82654	64.7
81.21044	69.3
85.59113	69.3
89.96862	74.1
94.34289	75.7
98.71396	77.1
103.08183	81.5
107.4465	81
111.80798	81.2
116.16626	91.8
120.52136	93.2
124.87327	96.6
129.222	100.6
133.56755	106.7
137.90993	113.9
142.24913	125.5
146.58517	139.3
150.91804	164.2
155.24774	200.3
159.57429	247.2
163.89768	320.7
168.21792	420
172.53501	576.2
176.84895	816.5
181.15975	1141.6
185.46741	1607.3
189.77193	2232.7
194.07331	2997.3
198.37157	3865.9
202.6667	4797.6
206.9587	5696.7
211.24758	6608
215.53334	7512.8
219.81599	8493.8
224.09553	9553
228.37195	10762.8
232.64527	12036.5
236.91549	13442.2
241.18261	14772.2
245.44663	15949.9
249.70755	17010.7
253.96539	17912.8
258.22014	18680.9
262.4718	19268.4
266.72039	19688.4
270.96589	19891.1
275.20832	19801.5
279.44768	19597.5
283.68397	19291.4
287.91719	19048
292.14735	18934.7
296.37445	18947.1
300.59849	19048.7
304.81948	19278.6
309.03742	19451.2
313.25231	19407
317.46415	19062.8
321.67296	18492.4
325.87872	17951.6
330.08145	17693.3
334.28114	17647.6
338.47781	17781.9
342.67145	18002.1
346.86207	18399.5
351.04966	18861.6
355.23424	19389.6
359.4158	19861.9
363.59435	20147.4
367.76989	20312.7
371.94243	20306.2
376.11196	20250.3
380.27849	20207.2
384.44203	20235.6
388.60257	20293
392.76012	20461.8
396.91468	20771.6
401.06626	21149.3
405.21485	21348.4
409.36047	21133.7
413.50311	20613.1
417.64277	20288.2
421.77947	20211.1
425.9132	20282.9
430.04396	20386.7
434.17176	20381.3
438.2966	20369.5
442.41849	20595
446.53742	20992.2
450.6534	21371.2
454.76644	21612.8
458.87653	21696.3
462.98368	21590
467.08789	21396.2
471.18916	21137.2
475.2875	20813.8
479.38291	20567
483.4754	20424.6
487.56496	20340
491.6516	20168.6
495.73531	20018.2
499.81612	19990
503.89401	20101.4
507.96899	20234.4
512.04106	20342.6
516.11023	20323.4
520.1765	20194.8
524.23987	20076.4
528.30034	19856.4
532.35792	19680.4
536.41261	19416.3
540.46441	19187.9
544.51333	19050.2
548.55936	19228.7
552.60252	19612.3
556.64279	20001.9
560.6802	20311.6
564.71473	20470.9
568.7464	20778.9
572.7752	21277.9
576.80114	21732.4
580.82422	22335.5
584.84444	23118.8
588.86181	24147.7
592.87633	25092.2
596.888	25155
600.89682	24101.2
604.9028	23962.7
608.90594	26214.1
612.90624	29389.3
616.90371	27941
620.89834	22662.6
624.89015	20102.4
628.87913	19681.9
632.86528	19923.1
636.84862	20074.4
640.82913	19749.7
644.80683	19182.7
648.78172	18766.9
652.75379	18769.3
656.72306	19068.2
660.68952	19491.7
664.65319	19381.3
668.61405	18878.9
672.57211	18713
676.52738	18820.5
680.47986	18768.5
684.42955	18608.4
688.37646	18459.8
692.32058	18555.9
696.26192	18776.5
700.20048	19057.8
704.13626	19266.4
708.06928	19285.6
711.99952	19233
715.927	19162
719.85171	19184.1
723.77365	19083.7
727.69284	18787.8
731.60928	18505.5
735.52295	18434.7
739.43388	18414.9
743.34206	18508.2
747.24749	18605.8
751.15017	18740.7
755.05012	19061
758.94733	19615.7
762.8418	20765.1
766.73354	22648.5
770.62254	24489.2
774.50882	24939
778.39237	23916.6
782.27321	22228.7
786.15132	20625.1
790.02671	19512.5
793.89938	18962.3
797.76935	18616.4
801.6366	18505.5
805.50115	18437.2
809.36299	18344.6
813.22213	18178.7
817.07857	18078.6
820.93231	17996
824.78336	17927.8
828.63172	17896.2
832.47738	17812.2
836.32036	17826.4
840.16066	17795
843.99827	17750.9
847.8332	17753.4
851.66546	17792.2
855.49504	17838
859.32195	17814.7
863.1462	17784.5
866.96777	17750.2
870.78668	17722.7
874.60293	17745.2
878.41652	17795.7
882.22745	17889.1
886.03573	17953.6
889.84136	17987.1
893.64433	18008.4
897.44466	17977.6
901.24235	17991.6
905.0374	17931.3
908.8298	17892.4
912.61957	17858.1
916.40671	17925.5
920.19121	18079.2
923.97308	18315.5
927.75233	18477.2
931.52895	18425.1
935.30295	18120.2
939.07433	17677.4
942.84309	17340.1
946.60924	17137.7
950.37278	17055.7
954.13371	17083.6
957.89203	17047.7
961.64774	17010.6
965.40086	16981.3
969.15137	16950.1
972.89929	16844.9
976.64461	16774.1
980.38733	16750
984.12747	16741.2
987.86502	16761.4
991.59999	16905.6
995.33237	16980
999.06217	17204.5
1002.78939	17531.9
1006.51404	17902
1010.23611	18298
1013.95561	18544.4
1017.67255	18589.6
1021.38692	18425.6
1025.09872	18098.4
1028.80796	17815
1032.51465	17654.2
1036.21877	17646.4
1039.92035	17710.9
1043.61937	17738.3
1047.31584	17795
1051.00976	17840.5
1054.70114	17924.3
1058.38998	17933.8
1062.07627	18103.2
1065.76003	18283.2
1069.44126	18533.6
1073.11995	18890.7
1076.79611	19299.4
1080.46974	19587.9
1084.14085	19840.7
1087.80943	20135.1
1091.47549	20341.2
1095.13903	20254.7
1098.80005	19926.1
1102.45857	19419.7
1106.11456	18985
1109.76805	18754.3
1113.41903	18732.2
1117.06751	18850.9
1120.71348	19139.1
1124.35696	19504.8
1127.99793	19864.4
1131.63641	20018.2
1135.2724	19813.2
1138.90589	19581.1
1142.5369	19429.9
1146.16542	19405.9
1149.79145	19406.2
1153.415	19476
1157.03607	19628
1160.65467	20139.7
1164.27079	21048.6
1167.88443	22213.1
1171.49561	23596.1
1175.10432	25411.1
1178.71056	27739.1
1182.31434	29921.3
1185.91565	31008.2
1189.51451	30891.7
1193.11091	30014.6
1196.70485	28528.8
1200.29634	26961.7
1203.88538	25749.5
1207.47197	24890.9
1211.05612	24285.4
1214.63782	23686.7
1218.21708	23093.3
1221.79391	22565.1
1225.36829	22251.8
1228.94024	22142.3
1232.50976	22003
1236.07685	21836.7
1239.6415	21665.7
1243.20374	21561.9
1246.76355	21568.8
1250.32093	21762.7
1253.8759	22160
1257.42845	22845.9
1260.97859	23729.1
1264.52631	24604.2
1268.07163	25432.4
1271.61453	26225.1
1275.15503	26818.8
1278.69312	27402.8
1282.22882	28069.6
1285.76211	28913.7
1289.29301	29934.3
1292.82151	31043.1
1296.34761	32365.3
1299.87133	33968.3
1303.39266	35915.9
1306.9116	37964.6
1310.42815	39935.8
1313.94233	41037.4
1317.45412	40579.7
1320.96354	39300.2
1324.47058	38211.5
1327.97525	37486
1331.47754	36937.7
1334.97747	36486.1
1338.47502	36138.1
1341.97022	35939.2
1345.46305	35979.6
1348.95352	36466.3
1352.44163	37063.5
1355.92738	38155.7
1359.41078	40146.9
1362.89183	42308.2
1366.37053	42090
1369.84688	38367.1
1373.32088	33415.5
1376.79254	29891
1380.26186	28295.6
1383.72883	27684.2
1387.19347	27182.4
1390.65578	26618.8
1394.11575	26314.7
1397.57339	26471.2
1401.0287	26740.8
1404.48168	26961.1
1407.93234	26892.7
1411.38068	26376.2
1414.82669	25729.4
1418.27039	25011.7
1421.71177	24299.2
1425.15083	23744.6
1428.58758	23524
1432.02203	23834.7
1435.45416	24386.6
1438.88399	24884.9
1442.31151	25146.8
1445.73673	25308.9
1449.15965	25466.5
1452.58027	25476.3
1455.9986	25492.4
1459.41463	25678.8
1462.82837	26139.5
1466.23982	26613.2
1469.64898	26978
1473.05586	27233.2
1476.46045	27243.8
1479.86276	27163.7
1483.26279	27271.4
1486.66054	27515.1
1490.05602	28059.5
1493.44922	28863.6
1496.84016	30014.5
1500.22882	31471.2
1503.61521	33400.9
1506.99934	35509.5
1510.38121	37148.2
1513.76081	37416.8
1517.13816	35981
1520.51324	33613.2
1523.88607	31534.9
1527.25665	30115.8
1530.62498	29340.6
1533.99105	28664.8
1537.35488	27980.2
1540.71647	27186.9
1544.07581	26384.9
1547.4329	25739
1550.78776	25258
1554.14038	24943.3
1557.49077	24881.7
1560.83892	24973.9
1564.18484	25252.4
1567.52853	25581.6
1570.86999	25989.3
1574.20922	26419.5
1577.54624	26662.8
1580.88103	26305
1584.2136	25932.2
1587.54395	26099.6
1590.87208	27040.1
1594.19801	28492.6
1597.52172	29930.1
1600.84321	30207.9
1604.16251	28884.5
1607.47959	26889.5
1610.79447	24886.3
1614.10715	22870.5
1617.41763	21204.2
1620.7259	20027.1
1624.03199	19466.6
1627.33587	19466.8
1630.63757	20109.3
1633.93707	21420.2
1637.23439	23764.8
1640.52951	27216
1643.82246	31490.8
1647.11321	35110
1650.40179	36231.4
1653.68819	33784
1656.97241	28892.8
1660.25446	24145.9
1663.53433	20695.8
1666.81203	18620
1670.08756	17366.7
1673.36092	16642.2
1676.63211	16171.9
1679.90115	15840.4
1683.16801	15562.9
1686.43272	15422.3
1689.69527	15289.5
1692.95567	15137.7
1696.2139	15075.2
1699.46999	15024.9
1702.72392	14965.8
1705.97571	14909.3
1709.22535	14892
1712.47284	14869.2
1715.71819	14832.7
1718.96139	14784.1
1722.20246	14737.1
1725.44139	14646.3
1728.67818	14547.8
1731.91284	14450.6
1735.14537	14383.5
1738.37576	14447.5
1741.60403	14305.7
1744.83017	14228.6
1748.05418	14141.2
1751.27607	14088.3
1754.49584	14029.2
1757.71349	14017.6
1760.92903	14012.9
1764.14244	14000.1
1767.35375	13988.6
1770.56294	13938.7
1773.77002	13899.9
1776.97499	13876.3
1780.17785	13856.5
1783.37861	13812.6
1786.57727	13795
1789.77382	13783.3
1792.96828	13724.4
1796.16064	13725.3
1799.3509	13679.9
1802.53907	13668
1805.72514	13610
1808.90913	13558.6
1812.09102	13543.7
1815.27083	13531.5
1818.44856	13500.1
1821.6242	13479.8
1824.79776	13483.2
1827.96924	13467.7
1831.13864	13448
1834.30597	13505.8
1837.47122	13509.4
1840.6344	13504.6
1843.7955	13561.5
1846.95454	13542.9
1850.11151	13495.6
1853.26642	13478.3
1856.41926	13499.2
1859.57004	13496.5
1862.71876	13453.6
1865.86542	13427.2
1869.01003	13400.8
1872.15258	13364.3
1875.29308	13333.8
1878.43152	13281.9
1881.56792	13288.9
1884.70227	13264.6
1887.83457	13215.6
1890.96482	13174.4
1894.09304	13113.5
1897.21921	13124.7
1900.34335	13097.7
1903.46544	13051
1906.58551	13022.3
1909.70353	13022.7
1912.81953	12980.2
1915.93349	12961.5
1919.04543	12922.2
1922.15534	12873.3
1925.26322	12812.9
1928.36908	12807.7
1931.47292	12751.7
1934.57473	12702.8
1937.67453	12659.9
1940.77232	12625.4
1943.86808	12601.2
1946.96184	12563.9
1950.05358	12490.1
1953.14331	12480.3
1956.23103	12437.3
1959.31675	12390.8
1962.40046	12369.3
1965.48217	12320.3
1968.56188	12288.6
1971.63959	12220.9
1974.7153	12202
1977.78901	12149.4
1980.86073	12109.2
1983.93046	12029.2
1986.99819	12043.2
1990.06394	12003.3
1993.1277	11966.1
1996.18947	11925.2
1999.24925	11874.5
2002.30706	11828.4
2005.36288	11827.8
2008.41672	11745.8
2011.46859	11721.4
2014.51848	11697.6
2017.56639	11653.2
2020.61233	11618
2023.6563	11604.2
2026.6983	11540.8
2029.73833	11501.1
2032.7764	11487.8
2035.8125	11454.3
2038.84664	11425.2
2041.87881	11397.3
2044.90903	11381.5
2047.93729	11371.1
2050.96359	11335.3
2053.98794	11318.9
2057.01034	11313.1
2060.03078	11289.8
2063.04927	11291.1
2066.06582	11289.9
2069.08042	11282.3
2072.09307	11247.1
2075.10378	11262.3
2078.11255	11255.4
2081.11938	11231.6
2084.12426	11215.3
2087.12722	11215.9
2090.12824	11221.2
2093.12732	11226.2
2096.12447	11225.2
2099.11969	11202
2102.11299	11243.5
2105.10435	11198.2
2108.09379	11228.9
2111.08131	11226.6
2114.0669	11237.9
2117.05057	11244.7
2120.03233	11240.2
2123.01216	11254.4
2125.99008	11249
2128.96609	11249.1
2131.94018	11253.4
2134.91236	11257.8
2137.88263	11263.3
2140.851	11248.4
2143.81746	11250.8
2146.78201	11222.9
2149.74466	11218
2152.7054	11205
2155.66425	11188.8
2158.6212	11173.3
2161.57625	11180.1
2164.52941	11187
2167.48067	11163.4
2170.43004	11166.5
2173.37752	11155.2
2176.32311	11140.3
2179.26681	11157.2
2182.20863	11140.5
2185.14856	11154.9
2188.08661	11121.2
2191.02278	11119.3
2193.95707	11118.7
2196.88948	11100.5
2199.82001	11064.6
2202.74867	11057.8
2205.67545	11036.8
2208.60037	11010.2
2211.52341	11021.9
2214.44458	10970.9
2217.36388	10969.1
2220.28132	10938.8
2223.1969	10903
2226.11061	10903.9
2229.02246	10856.7
2231.93245	10864
2234.84058	10834.6
2237.74686	10841.3
2240.65128	10833.9
2243.55385	10775.1
2246.45456	10773.6
2249.35343	10746.1
2252.25044	10716.1
2255.14561	10714.8
2258.03893	10699.6
2260.93041	10643
2263.82004	10657.2
2266.70783	10629.6
2269.59378	10600.7
2272.4779	10559.5
2275.36017	10528.9
2278.24061	10536.4
2281.11922	10514.1
2283.996	10494.7
2286.87094	10458.8
2289.74405	10462.6
2292.61534	10419.1
2295.4848	10390.4
2298.35243	10404.3
2301.21824	10389.3
2304.08223	10385.5
2306.94439	10381.7
2309.80474	10357.9
2312.66327	10331.9
2315.51999	10330.5
2318.37489	10321
2321.22797	10299.1
2324.07925	10294.8
2326.92871	10274.9
2329.77637	10275.3
2332.62222	10240.6
2335.46626	10224.3
2338.3085	10215.1
2341.14893	10215.2
2343.98756	10225.2
2346.8244	10207.1
2349.65943	10197.5
2352.49267	10210.4
2355.32411	10202.6
2358.15376	10188.8
2360.98161	10223.2
2363.80768	10221.3
2366.63195	10208.1
2369.45444	10192.7
2372.27514	10154.6
2375.09405	10163.3
2377.91118	10159.8
2380.72652	10114.4
2383.54009	10054.2
2386.35187	10065.3
2389.16188	10028.2
2391.97011	9979.4
2394.77657	9954.9
2397.58125	9933.9
2400.38416	9903
2403.18529	9914.7
2405.98466	9887.1
2408.78226	9880.6
2411.57809	9860.3
2414.37216	9839.1
2417.16446	9824.4
2419.955	9814.1
2422.74378	9814.1
2425.5308	9793.7
2428.31606	9826.1
2431.09956	9829
2433.88131	9802.6
2436.6613	9798.1
2439.43954	9801.4
2442.21603	9798
2444.99077	9772.2
2447.76377	9778.8
2450.53501	9755.9
2453.30451	9761.8
2456.07226	9749.9
2458.83827	9750.1
2461.60254	9735.2
2464.36507	9728.8
2467.12586	9722.5
2469.88492	9703
2472.64224	9713.8
2475.39782	9733.2
2478.15167	9742.3
2480.90379	9725.4
2483.65417	9721
2486.40283	9707.6
2489.14976	9733.3
2491.89497	9700.2
2494.63845	9686.7
2497.3802	9680.8
2500.12024	9672
2502.85855	9662.2
2505.59514	9665.3
2508.33002	9650.1
2511.06318	9626.8
2513.79462	9603.1
2516.52435	9605.5
2519.25237	9574.6
2521.97867	9537.3
2524.70327	9569.8
2527.42616	9513.1
2530.14734	9543.8
2532.86681	9513.6
2535.58458	9511.4
2538.30065	9511.9
2541.01501	9505.6
2543.72768	9499.8
2546.43864	9486.2
2549.14791	9465.1
2551.85548	9464.9
2554.56136	9442.5
2557.26554	9431.7
2559.96803	9421.5
2562.66883	9407.5
2565.36794	9385.3
2568.06536	9386.4
2570.7611	9346.8
2573.45514	9303.3
2576.14751	9326
2578.83819	9292.4
2581.52719	9290.8
2584.21451	9280.8
2586.90015	9268.6
2589.58411	9245.7
2592.2664	9248.2
2594.94701	9212.7
2597.62594	9208.3
2600.30321	9198.5
2602.9788	9205.1
2605.65273	9190.4
2608.32498	9178.1
2610.99557	9176.6
2613.66449	9157.7
2616.33175	9122.9
2618.99734	9150.8
2621.66128	9128.3
2624.32355	9137.3
2626.98416	9092.4
2629.64311	9115.8
2632.30041	9077.5
2634.95605	9066.8
2637.61004	9050.3
2640.26238	9061.4
2642.91306	9054.4
2645.56209	9039.2
2648.20948	9037.8
2650.85521	9013.2
2653.4993	9040.7
2656.14175	9062.7
2658.78255	9042.1
2661.42171	9066
2664.05923	9060.1
2666.6951	9076.3
2669.32934	9075.4
2671.96194	9074.3
2674.59291	9070
2677.22224	9052.6
2679.84993	9044.4
2682.476	9047.7
2685.10043	9057.8
2687.72324	9056.4
2690.34441	9039.7
2692.96396	9042.7
2695.58188	9034.2
2698.19818	8998.2
2700.81285	9016.8
2703.4259	8997.7
2706.03733	9008.8
2708.64714	9004
2711.25533	9003.6
2713.86191	9021.9
2716.46687	9027.1
2719.07021	9020.6
2721.67194	9062.5
2724.27206	9045.5
2726.87057	9070.6
2729.46747	9055
2732.06276	9046.5
2734.65644	9055.9
2737.24852	9037.9
2739.83899	9005
2742.42786	9054
2745.01513	9002.7
2747.60079	8994
2750.18486	8985.6
2752.76733	8976.1
2755.3482	8947.1
2757.92747	8952.4
2760.50515	8920.8
2763.08123	8921.1
2765.65573	8895.9
2768.22863	8890.2
2770.79994	8896.4
2773.36967	8888.7
2775.9378	8875.2
2778.50435	8870.5
2781.06932	8849.6
2783.6327	8845.4
2786.1945	8855.6
2788.75471	8871.4
2791.31335	8842.7
2793.87041	8850.9
2796.42589	8816.6
2798.97979	8800.4
2801.53212	8783.1
2804.08288	8760.4
2806.63206	8755.7
2809.17967	8728.5
2811.72571	8720.9
2814.27018	8716.7
2816.81308	8683.7
2819.35442	8689.4
2821.89419	8655.1
2824.43239	8647
2826.96904	8646
2829.50412	8641.1
2832.03763	8638.7
2834.56959	8635.6
2837.1	8633.4
2839.62884	8611.6
2842.15613	8618.9
2844.68186	8651.7
2847.20604	8627.8
2849.72867	8627.2
2852.24974	8627
2854.76927	8615.9
2857.28724	8605.1
2859.80367	8599.2
2862.31855	8596.1
2864.83189	8594.5
2867.34368	8576.6
2869.85393	8586.6
2872.36264	8576.3
2874.8698	8566.8
2877.37543	8575.4
2879.87952	8559.5
2882.38207	8555
2884.88308	8560.2
2887.38256	8547.8
2889.88051	8545.6
2892.37692	8562.6
2894.8718	8569.7
2897.36515	8566.5
2899.85698	8564.9
2902.34727	8567.6
2904.83604	8563.8
2907.32328	8603.6
2909.809	8587.1
2912.29319	8569.2
2914.77587	8563.8
2917.25702	8554.9
2919.73665	8559
2922.21476	8565.6
2924.69136	8551.8
2927.16644	8562.3
2929.64	8523.4
2932.11205	8505.4
2934.58258	8454.9
2937.05161	8493.8
2939.51912	8505.1
2941.98513	8477.3
2944.44962	8446.6
2946.91261	8427.1
2949.37409	8412.8
2951.83407	8400.6
2954.29254	8410.2
2956.74951	8379.5
2959.20498	8406
2961.65895	8381.7
2964.11142	8365.2
2966.56239	8380.4
2969.01186	8347.6
2971.45984	8323.4
2973.90632	8324.3
2976.35131	8289.8
2978.7948	8278.8
2981.23681	8262.6
2983.67732	8215.4
2986.11635	8194.6
2988.55388	8184.9
2990.98993	8153.8
2993.4245	8136.7
2995.85758	8129
2998.28917	8130.8
3000.71928	8116.9
3003.14791	8096.2
3005.57506	8073.2
3008.00073	8055.7
3010.42493	8021.1
3012.84764	8001.5
3015.26888	7998.8
3017.68865	7987.3
3020.10694	7950.7
3022.52376	7941.9
3024.9391	7946.5
3027.35298	7936.8
3029.76539	7914.2
3032.17632	7905.3
3034.5858	7922.5
3036.9938	7910.6
3039.40034	7889
3041.80542	7893
3044.20903	7864
3046.61118	7865.7
3049.01187	7850.9
3051.4111	7833.6
3053.80888	7809.3
3056.20519	7785.7
3058.60005	7774.4
3060.99345	7774.4
3063.3854	7736.9
3065.7759	7735.8
3068.16494	7711.6
3070.55254	7683.5
3072.93868	7682.8
3075.32338	7666.4
3077.70662	7631.3
3080.08842	7608.6
3082.46878	7606.2
3084.84769	7602.1
3087.22515	7590.8
3089.60118	7574.3
3091.97576	7567.4
3094.3489	7562.4
3096.72061	7582.3
3099.09087	7592
3101.4597	7587.6
3103.82709	7535.5
3106.19305	7554.8
3108.55757	7526.4
3110.92066	7532.3
3113.28232	7518.6
3115.64255	7504.1
3118.00134	7488.6
3120.35871	7466.8
3122.71466	7453.9
3125.06917	7439.1
3127.42226	7430
3129.77393	7451.6
3132.12417	7421.2
3134.47299	7415.3
3136.82039	7403.3
3139.16636	7416.7
3141.51092	7412.6
3143.85406	7420.8
3146.19579	7389.7
3148.53609	7385
3150.87499	7395.1
3153.21246	7399.9
3155.54853	7412
3157.88318	7403.2
3160.21642	7409.1
3162.54826	7415.5
3164.87868	7435.8
3167.2077	7427.9
3169.5353	7423.3
3171.86151	7431.2
3174.18631	7410.2
3176.5097	7416.1
3178.83169	7405.1
3181.15228	7381.8
3183.47147	7359.8
3185.78926	7383.2
3188.10565	7357.9
3190.42065	7372.9
3192.73424	7375.9
3195.04645	7364.2
3197.35725	7339.6
3199.66667	7307.4
3201.97469	7342.2
3204.28132	7320.9
3206.58656	7332.1
3208.8904	7332.8
3211.19287	7349.6
3213.49394	7357.6
3215.79363	7367.2
3218.09193	7350.4
3220.38884	7321.5
3222.68438	7328.8
3224.97853	7344
3227.2713	7343.6
3229.56269	7348
3231.8527	7330.3
3234.14133	7274.6
3236.42858	7290.1
3238.71446	7271.3
3240.99896	7271.4
3243.28209	7234.9
3245.56384	7244.8
3247.84423	7232.4
3250.12324	7244.8
3252.40088	7230.2
3254.67715	7216.2
3256.95205	7214.6
3259.22558	7215.9
3261.49775	7171.5
3263.76855	7195.6
3266.03799	7164.6
3268.30606	7154.2
3270.57277	7139.5
3272.83812	7127.3
3275.10211	7110.3
3277.36474	7092.4
3279.62601	7079.3
3281.88593	7090.1
3284.14448	7092.6
3286.40168	7091
3288.65753	7088.3
3290.91202	7093.1
3293.16516	7075.9
3295.41695	7048.3
3297.66738	7015.2
3299.91647	6995.4
3302.16421	6928.4
3304.4106	6884.2
3306.65564	6861.2
3308.89933	6802.6
3311.14169	6769.5
3313.38269	6694.5
3315.62236	6642.6
3317.86068	6574.5
3320.09766	6523.3
3322.3333	6483
3324.5676	6441.4
3326.80056	6333.3
3329.03219	6304.6
3331.26248	2.6
3333.49143	-1.1
3335.71905	-0.1
