Data from AgNP_FTO_APTES_UA_10uM_CRN_50uM_R6G_10uM_NaF_0.1M_Addition_RamanShift__29__17-16-20-821.txt Node

Date: Thu Feb 10 17:16:20 GMT 2022
User: TCL
Spectrometer: QEP01345
Trigger mode: 4
Integration Time (sec): 7.000000E0
Scans to average: 10
Electric dark correction enabled: true
Nonlinearity correction enabled: false
Boxcar width: 0
XAxis mode: Raman Shifts
Number of Pixels in Spectrum: 1044
>>>>>Begin Spectral Data<<<<<
46.04893	-0.3
50.45542	-0.5
54.85868	-1.2
59.25871	-1.1
63.6555	54
68.04907	53.6
72.43941	56.3
76.82654	59
81.21044	64.6
85.59113	61.6
89.96862	65.5
94.34289	69.6
98.71396	70.8
103.08183	77.1
107.4465	79.4
111.80798	68.8
116.16626	79.8
120.52136	79.8
124.87327	86.1
129.222	81.4
133.56755	88.9
137.90993	96.1
142.24913	98.5
146.58517	108.5
150.91804	123
155.24774	146.2
159.57429	174.9
163.89768	218
168.21792	282.8
172.53501	384.4
176.84895	531.1
181.15975	736.9
185.46741	1034.8
189.77193	1428.5
194.07331	1900.2
198.37157	2450.5
202.6667	3043.3
206.9587	3607.2
211.24758	4172.7
215.53334	4746.1
219.81599	5374.7
224.09553	6094.7
228.37195	6866
232.64527	7730.3
236.91549	8629.1
241.18261	9479.1
245.44663	10238.5
249.70755	10910.1
253.96539	11498.5
258.22014	11965
262.4718	12442.2
266.72039	12797.5
270.96589	13031.2
275.20832	13096.1
279.44768	13076.3
283.68397	12968
287.91719	12886.5
292.14735	12911.9
296.37445	13050.9
300.59849	13285.2
304.81948	13560.4
309.03742	13694
313.25231	13557.7
317.46415	13046.7
321.67296	12324.2
325.87872	11780.8
330.08145	11554.7
334.28114	11560.2
338.47781	11722.8
342.67145	11983.4
346.86207	12371.6
351.04966	12885.8
355.23424	13454.5
359.4158	13901.3
363.59435	14165.1
367.76989	14241.1
371.94243	14296.1
376.11196	14307.4
380.27849	14302.1
384.44203	14282.6
388.60257	14209
392.76012	14186.7
396.91468	14348.1
401.06626	14645
405.21485	14908.7
409.36047	14772.7
413.50311	14295.3
417.64277	13852.1
421.77947	13605.5
425.9132	13557.8
430.04396	13595.9
434.17176	13702.8
438.2966	13863.7
442.41849	14081.2
446.53742	14444
450.6534	14774
454.76644	15042.4
458.87653	15085.8
462.98368	15075.2
467.08789	14913.7
471.18916	14654.1
475.2875	14426.4
479.38291	14237.8
483.4754	14061.1
487.56496	13917.8
491.6516	13771.6
495.73531	13714.8
499.81612	13700.3
503.89401	13813.4
507.96899	13917.9
512.04106	14044.2
516.11023	14211.2
520.1765	14317.5
524.23987	14259.6
528.30034	14073.8
532.35792	13869.6
536.41261	13706.3
540.46441	13516.9
544.51333	13513.9
548.55936	13630.9
552.60252	13895.7
556.64279	14156.3
560.6802	14249.3
564.71473	14322.8
568.7464	14642.8
572.7752	14897.1
576.80114	14698.7
580.82422	14498.5
584.84444	14396
588.86181	14364.1
592.87633	14426.4
596.888	14537.6
600.89682	14909.1
604.9028	16034.6
608.90594	18948.3
612.90624	22764.6
616.90371	21888.5
620.89834	16926.6
624.89015	14711.1
628.87913	14345
632.86528	14319.9
636.84862	14381.1
640.82913	14213.3
644.80683	13856.4
648.78172	13595
652.75379	13623.9
656.72306	13968.9
660.68952	14455.2
664.65319	14387.9
668.61405	13946.7
672.57211	13757.4
676.52738	13764.3
680.47986	13777
684.42955	13739.3
688.37646	13747.9
692.32058	13802.7
696.26192	13913
700.20048	14041.2
704.13626	14131.9
708.06928	14096.7
711.99952	14033.8
715.927	13999.5
719.85171	14015.2
723.77365	13981.1
727.69284	13895
731.60928	13792.8
735.52295	13801.6
739.43388	13823.1
743.34206	13875.3
747.24749	13945.7
751.15017	14055.1
755.05012	14267
758.94733	14754.2
762.8418	15745.9
766.73354	17356.5
770.62254	19135.7
774.50882	19991.7
778.39237	19235.9
782.27321	17254.3
786.15132	15571.3
790.02671	14567.1
793.89938	14113.5
797.76935	13955.6
801.6366	13884.4
805.50115	13830.6
809.36299	13798.8
813.22213	13764.1
817.07857	13770.4
820.93231	13741.4
824.78336	13792.8
828.63172	13851.6
832.47738	13883.1
836.32036	13827.4
840.16066	13851.2
843.99827	13829.4
847.8332	13816.5
851.66546	13784.2
855.49504	13782.8
859.32195	13764.1
863.1462	13744.6
866.96777	13685.2
870.78668	13687
874.60293	13722.7
878.41652	13739.5
882.22745	13806.2
886.03573	13844.3
889.84136	13798.2
893.64433	13744.6
897.44466	13722.2
901.24235	13742.5
905.0374	13698.6
908.8298	13725.3
912.61957	13732.2
916.40671	13790.6
920.19121	13887.1
923.97308	13958.2
927.75233	14020.9
931.52895	14093.5
935.30295	14005
939.07433	13754.9
942.84309	13529.9
946.60924	13402.4
950.37278	13358.5
954.13371	13280.5
957.89203	13231.4
961.64774	13207
965.40086	13167.6
969.15137	13136.5
972.89929	13126.4
976.64461	13117.1
980.38733	13124.6
984.12747	13155.5
987.86502	13178.5
991.59999	13280.9
995.33237	13448.8
999.06217	13718.6
1002.78939	14001.9
1006.51404	14205.4
1010.23611	14405
1013.95561	14575.2
1017.67255	14580.1
1021.38692	14478.9
1025.09872	14376.6
1028.80796	14380.8
1032.51465	14579.9
1036.21877	14799.6
1039.92035	14838.9
1043.61937	14737.3
1047.31584	14547.2
1051.00976	14416.8
1054.70114	14360.4
1058.38998	14392.6
1062.07627	14424.6
1065.76003	14503
1069.44126	14546.3
1073.11995	14633.1
1076.79611	14681.9
1080.46974	14797.1
1084.14085	14976.2
1087.80943	15234
1091.47549	15304
1095.13903	15137.7
1098.80005	14849.2
1102.45857	14576.3
1106.11456	14442.6
1109.76805	14473.1
1113.41903	14655.4
1117.06751	14915.6
1120.71348	15254.5
1124.35696	15628
1127.99793	15898.9
1131.63641	15897.8
1135.2724	15517.2
1138.90589	15101.1
1142.5369	14852.2
1146.16542	14670.1
1149.79145	14601.4
1153.415	14607
1157.03607	14717.1
1160.65467	14928.3
1164.27079	15279.4
1167.88443	15820.6
1171.49561	16622.9
1175.10432	17954.5
1178.71056	19714.3
1182.31434	21059
1185.91565	21527.5
1189.51451	21244.4
1193.11091	20291
1196.70485	19144.7
1200.29634	18263.8
1203.88538	17609.4
1207.47197	16916.5
1211.05612	16335.5
1214.63782	15977.3
1218.21708	15865.4
1221.79391	15916.1
1225.36829	15979.2
1228.94024	16054.1
1232.50976	16071.7
1236.07685	16060.2
1239.6415	16166.9
1243.20374	16222.1
1246.76355	16348
1250.32093	16577.2
1253.8759	16905.7
1257.42845	17358
1260.97859	17655.8
1264.52631	17943.3
1268.07163	18237.6
1271.61453	18566.6
1275.15503	18817.7
1278.69312	19045.4
1282.22882	19165.2
1285.76211	19395.6
1289.29301	19716.4
1292.82151	20120.8
1296.34761	20582.3
1299.87133	21259.7
1303.39266	22408.7
1306.9116	24194.3
1310.42815	26223
1313.94233	27418.1
1317.45412	27141.8
1320.96354	25921
1324.47058	24517
1327.97525	23378
1331.47754	22761.5
1334.97747	22666
1338.47502	23034.6
1341.97022	23571.1
1345.46305	24046.3
1348.95352	24537.4
1352.44163	25242.1
1355.92738	26585.7
1359.41078	29034
1362.89183	31444.2
1366.37053	30621.3
1369.84688	26979.5
1373.32088	23438.2
1376.79254	21213.4
1380.26186	20063.6
1383.72883	19511.2
1387.19347	19152.5
1390.65578	18746.4
1394.11575	18391.3
1397.57339	18232.6
1401.0287	18278.3
1404.48168	18528.9
1407.93234	18865.8
1411.38068	19198.9
1414.82669	19206.4
1418.27039	18971.5
1421.71177	18528.6
1425.15083	18167
1428.58758	17901.1
1432.02203	17930.1
1435.45416	17990
1438.88399	18080.7
1442.31151	18083.8
1445.73673	18183.6
1449.15965	18238.4
1452.58027	18226.3
1455.9986	18135.8
1459.41463	18130.7
1462.82837	18243.5
1466.23982	18488
1469.64898	18836.3
1473.05586	19091.8
1476.46045	19254.7
1479.86276	19575
1483.26279	19895.9
1486.66054	20288.7
1490.05602	20701.1
1493.44922	21258.7
1496.84016	22139.8
1500.22882	23293.5
1503.61521	24904.9
1506.99934	26813.1
1510.38121	28744.9
1513.76081	29630.9
1517.13816	28691.9
1520.51324	26316.6
1523.88607	23895.7
1527.25665	22109.5
1530.62498	21091.4
1533.99105	20482.6
1537.35488	20084.7
1540.71647	19881.8
1544.07581	19803.1
1547.4329	19708.1
1550.78776	19596
1554.14038	19528
1557.49077	19602.7
1560.83892	19765.5
1564.18484	20077.1
1567.52853	20341.5
1570.86999	20534.5
1574.20922	20600.7
1577.54624	20462.1
1580.88103	19945.2
1584.2136	19239.1
1587.54395	18994.2
1590.87208	19366.9
1594.19801	20265.7
1597.52172	21441
1600.84321	21995.6
1604.16251	21478.7
1607.47959	20361.1
1610.79447	19082.8
1614.10715	17948.7
1617.41763	17022.9
1620.7259	16414.3
1624.03199	16115.1
1627.33587	16118.5
1630.63757	16336
1633.93707	16927.1
1637.23439	17745.1
1640.52951	18868.2
1643.82246	20188.2
1647.11321	21707.9
1650.40179	22718.5
1653.68819	22201.9
1656.97241	20131.1
1660.25446	17881.7
1663.53433	16182.5
1666.81203	15119.5
1670.08756	14483
1673.36092	14090.5
1676.63211	13797.9
1679.90115	13630
1683.16801	13489.2
1686.43272	13411.3
1689.69527	13328.7
1692.95567	13288.6
1696.2139	13267.1
1699.46999	13247.3
1702.72392	13225.6
1705.97571	13217.5
1709.22535	13175.4
1712.47284	13148.7
1715.71819	13097.7
1718.96139	13146.2
1722.20246	13140.8
1725.44139	13101.9
1728.67818	13025.8
1731.91284	12966.7
1735.14537	12924.3
1738.37576	12874.6
1741.60403	12867.6
1744.83017	12808.9
1748.05418	12794.9
1751.27607	12786.9
1754.49584	12779
1757.71349	12770.8
1760.92903	12753.6
1764.14244	12756.4
1767.35375	12742.5
1770.56294	12740.6
1773.77002	12721.9
1776.97499	12648.3
1780.17785	12639.9
1783.37861	12620.5
1786.57727	12609.6
1789.77382	12598.8
1792.96828	12593.4
1796.16064	12564.9
1799.3509	12558.4
1802.53907	12539.8
1805.72514	12528.8
1808.90913	12486.5
1812.09102	12457
1815.27083	12442
1818.44856	12443.3
1821.6242	12392
1824.79776	12370.5
1827.96924	12378.2
1831.13864	12376.5
1834.30597	12365.3
1837.47122	12340
1840.6344	12341.8
1843.7955	12340
1846.95454	12326.4
1850.11151	12351.9
1853.26642	12345.2
1856.41926	12338.5
1859.57004	12341.6
1862.71876	12351.4
1865.86542	12343.6
1869.01003	12321.7
1872.15258	12334.2
1875.29308	12341.2
1878.43152	12330
1881.56792	12331.3
1884.70227	12314.7
1887.83457	12309.5
1890.96482	12291.7
1894.09304	12273.9
1897.21921	12277.9
1900.34335	12267.5
1903.46544	12272
1906.58551	12263.3
1909.70353	12263.7
1912.81953	12285.5
1915.93349	12272.3
1919.04543	12232.2
1922.15534	12244.9
1925.26322	12218
1928.36908	12208.5
1931.47292	12172.5
1934.57473	12163.2
1937.67453	12140.3
1940.77232	12075.6
1943.86808	12042.9
1946.96184	11997.1
1950.05358	11949
1953.14331	11931.1
1956.23103	11889.1
1959.31675	11860.6
1962.40046	11804.9
1965.48217	11778.3
1968.56188	11754.6
1971.63959	11705.1
1974.7153	11662.4
1977.78901	11669.3
1980.86073	11615.4
1983.93046	11575.7
1986.99819	11558.1
1990.06394	11495.5
1993.1277	11492.1
1996.18947	11459.6
1999.24925	11436.8
2002.30706	11385.2
2005.36288	11365.5
2008.41672	11349
2011.46859	11300.5
2014.51848	11279
2017.56639	11249.6
2020.61233	11221.7
2023.6563	11190.8
2026.6983	11158.7
2029.73833	11150.1
2032.7764	11110.9
2035.8125	11075.6
2038.84664	11073.1
2041.87881	11018
2044.90903	11012.1
2047.93729	11003
2050.96359	10994.7
2053.98794	10985
2057.01034	10969.5
2060.03078	10978.2
2063.04927	10953.3
2066.06582	10959.4
2069.08042	10952.2
2072.09307	10928.8
2075.10378	10928.8
2078.11255	10915.5
2081.11938	10891.9
2084.12426	10894.7
2087.12722	10889.6
2090.12824	10883.9
2093.12732	10858.6
2096.12447	10865.5
2099.11969	10871.4
2102.11299	10872.5
2105.10435	10836.4
2108.09379	10898.1
2111.08131	10896.7
2114.0669	10896.7
2117.05057	10910.6
2120.03233	10910.2
2123.01216	10933.4
2125.99008	10929.7
2128.96609	10921.1
2131.94018	10934.8
2134.91236	10957.4
2137.88263	10960.4
2140.851	10979.6
2143.81746	10955.5
2146.78201	10955.6
2149.74466	10998.5
2152.7054	10978.8
2155.66425	10981.1
2158.6212	10982.4
2161.57625	10961.8
2164.52941	10951.1
2167.48067	10956.2
2170.43004	10945.9
2173.37752	10933.9
2176.32311	10949.4
2179.26681	10974.3
2182.20863	10942.7
2185.14856	10946.2
2188.08661	10937.8
2191.02278	10934.6
2193.95707	10909.4
2196.88948	10934.3
2199.82001	10949.7
2202.74867	10933
2205.67545	10915.6
2208.60037	10907.4
2211.52341	10874.9
2214.44458	10904.7
2217.36388	10861.3
2220.28132	10846
2223.1969	10834.2
2226.11061	10788.9
2229.02246	10776
2231.93245	10756.9
2234.84058	10730.6
2237.74686	10731.4
2240.65128	10692.6
2243.55385	10692.9
2246.45456	10680.7
2249.35343	10677.7
2252.25044	10658.8
2255.14561	10646.1
2258.03893	10637.4
2260.93041	10614.7
2263.82004	10585.7
2266.70783	10573.6
2269.59378	10532.1
2272.4779	10513
2275.36017	10470
2278.24061	10481.5
2281.11922	10442.6
2283.996	10455.3
2286.87094	10428
2289.74405	10405
2292.61534	10384.5
2295.4848	10389.3
2298.35243	10384.9
2301.21824	10377.9
2304.08223	10363.1
2306.94439	10383.6
2309.80474	10377.7
2312.66327	10373.6
2315.51999	10356.7
2318.37489	10368.5
2321.22797	10345.9
2324.07925	10318.1
2326.92871	10301.2
2329.77637	10319.6
2332.62222	10298.5
2335.46626	10280.7
2338.3085	10285.9
2341.14893	10258.9
2343.98756	10287.7
2346.8244	10279.3
2349.65943	10289.6
2352.49267	10267.6
2355.32411	10316.2
2358.15376	10279.9
2360.98161	10283.7
2363.80768	10270.8
2366.63195	10255.3
2369.45444	10253.1
2372.27514	10235.3
2375.09405	10241
2377.91118	10189.6
2380.72652	10148.1
2383.54009	10144.8
2386.35187	10095
2389.16188	10059.2
2391.97011	10030.7
2394.77657	10023.8
2397.58125	10028.9
2400.38416	10006.1
2403.18529	9976.5
2405.98466	9952.9
2408.78226	9934.2
2411.57809	9921.3
2414.37216	9921
2417.16446	9889.1
2419.955	9883.4
2422.74378	9877.1
2425.5308	9870.4
2428.31606	9867.9
2431.09956	9870.9
2433.88131	9858.1
2436.6613	9839
2439.43954	9836.9
2442.21603	9813.8
2444.99077	9811.4
2447.76377	9815
2450.53501	9788.6
2453.30451	9807.8
2456.07226	9796.6
2458.83827	9778.7
2461.60254	9787.6
2464.36507	9770.6
2467.12586	9757.4
2469.88492	9735.3
2472.64224	9766.1
2475.39782	9755.9
2478.15167	9767.6
2480.90379	9772.6
2483.65417	9781.6
2486.40283	9793.6
2489.14976	9796.8
2491.89497	9794.4
2494.63845	9806.7
2497.3802	9802
2500.12024	9785.4
2502.85855	9749.5
2505.59514	9736
2508.33002	9727.2
2511.06318	9688.6
2513.79462	9674.8
2516.52435	9671.7
2519.25237	9626
2521.97867	9616.6
2524.70327	9621.8
2527.42616	9617.3
2530.14734	9606.9
2532.86681	9606.6
2535.58458	9609.4
2538.30065	9597.7
2541.01501	9593.6
2543.72768	9575.6
2546.43864	9592.8
2549.14791	9567.6
2551.85548	9553
2554.56136	9534.9
2557.26554	9508.9
2559.96803	9473.9
2562.66883	9471.4
2565.36794	9444.9
2568.06536	9459.9
2570.7611	9424.6
2573.45514	9404.4
2576.14751	9392.8
2578.83819	9390.6
2581.52719	9386.2
2584.21451	9376.6
2586.90015	9365.4
2589.58411	9335.1
2592.2664	9355
2594.94701	9346.1
2597.62594	9352.2
2600.30321	9291
2602.9788	9302.7
2605.65273	9285.1
2608.32498	9293.5
2610.99557	9290.8
2613.66449	9283.6
2616.33175	9267.1
2618.99734	9273.9
2621.66128	9265.1
2624.32355	9258.2
2626.98416	9262.2
2629.64311	9264
2632.30041	9236
2634.95605	9219
2637.61004	9208.1
2640.26238	9199.6
2642.91306	9162.9
2645.56209	9178
2648.20948	9166.6
2650.85521	9151.3
2653.4993	9139.5
2656.14175	9164.5
2658.78255	9155.6
2661.42171	9155.5
2664.05923	9154.6
2666.6951	9177.9
2669.32934	9196.2
2671.96194	9156
2674.59291	9196.1
2677.22224	9197.2
2679.84993	9192.7
2682.476	9174.4
2685.10043	9179.1
2687.72324	9156.6
2690.34441	9189.9
2692.96396	9177.9
2695.58188	9174.9
2698.19818	9151.7
2700.81285	9152.1
2703.4259	9160.9
2706.03733	9170.9
2708.64714	9171.4
2711.25533	9152.3
2713.86191	9153.4
2716.46687	9184.1
2719.07021	9163
2721.67194	9165.8
2724.27206	9166.8
2726.87057	9175
2729.46747	9176.4
2732.06276	9188.1
2734.65644	9164.7
2737.24852	9173
2739.83899	9139
2742.42786	9150.1
2745.01513	9121.1
2747.60079	9117.8
2750.18486	9094
2752.76733	9089.4
2755.3482	9094.1
2757.92747	9062.1
2760.50515	9090.4
2763.08123	9065.9
2765.65573	9039.7
2768.22863	9043.6
2770.79994	9000.6
2773.36967	9014.2
2775.9378	9019.8
2778.50435	9023.3
2781.06932	9009.6
2783.6327	9009.1
2786.1945	9029.3
2788.75471	8996.8
2791.31335	8977.6
2793.87041	8975
2796.42589	8948.9
2798.97979	8916.6
2801.53212	8907.8
2804.08288	8903.2
2806.63206	8900.4
2809.17967	8861.1
2811.72571	8848.4
2814.27018	8862.2
2816.81308	8826.6
2819.35442	8844.4
2821.89419	8822.1
2824.43239	8837.2
2826.96904	8805.7
2829.50412	8818.7
2832.03763	8808.3
2834.56959	8801.4
2837.1	8780.3
2839.62884	8814.8
2842.15613	8805.7
2844.68186	8842.3
2847.20604	8842.4
2849.72867	8890.5
2852.24974	8893
2854.76927	8851.4
2857.28724	8854.5
2859.80367	8822
2862.31855	8798.7
2864.83189	8810.9
2867.34368	8791.9
2869.85393	8763.1
2872.36264	8747.3
2874.8698	8765.2
2877.37543	8748.8
2879.87952	8736.6
2882.38207	8759.7
2884.88308	8740.6
2887.38256	8754.3
2889.88051	8718.9
2892.37692	8725.6
2894.8718	8748.6
2897.36515	8747
2899.85698	8749.9
2902.34727	8767.6
2904.83604	8752.4
2907.32328	8761
2909.809	8770.8
2912.29319	8757.2
2914.77587	8745.9
2917.25702	8742.4
2919.73665	8766.9
2922.21476	8752.5
2924.69136	8730.5
2927.16644	8717.8
2929.64	8679.4
2932.11205	8695.5
2934.58258	8677.4
2937.05161	8696.5
2939.51912	8661.2
2941.98513	8681.5
2944.44962	8634.3
2946.91261	8588.8
2949.37409	8612.1
2951.83407	8556.3
2954.29254	8582
2956.74951	8563.1
2959.20498	8548.5
2961.65895	8554.2
2964.11142	8527.7
2966.56239	8538.8
2969.01186	8515.8
2971.45984	8492.5
2973.90632	8516.7
2976.35131	8459.9
2978.7948	8453.3
2981.23681	8436.2
2983.67732	8436.5
2986.11635	8406.6
2988.55388	8374.2
2990.98993	8391.5
2993.4245	8353.8
2995.85758	8340.1
2998.28917	8328.9
3000.71928	8326.3
3003.14791	8290.1
3005.57506	8280
3008.00073	8257.3
3010.42493	8242.7
3012.84764	8228.2
3015.26888	8246.2
3017.68865	8205.8
3020.10694	8193.2
3022.52376	8171.7
3024.9391	8177.5
3027.35298	8162
3029.76539	8149.3
3032.17632	8150.8
3034.5858	8132.4
3036.9938	8131.8
3039.40034	8133
3041.80542	8136.2
3044.20903	8086.8
3046.61118	8093.4
3049.01187	8075.5
3051.4111	8077.2
3053.80888	8050.8
3056.20519	8033.1
3058.60005	8018.5
3060.99345	7979.9
3063.3854	7997.5
3065.7759	7958.1
3068.16494	7952.9
3070.55254	7913.9
3072.93868	7905.7
3075.32338	7890.2
3077.70662	7866.5
3080.08842	7850.5
3082.46878	7839.8
3084.84769	7843.8
3087.22515	7827.7
3089.60118	7826.4
3091.97576	7815.7
3094.3489	7806.3
3096.72061	7823.4
3099.09087	7793.9
3101.4597	7791.4
3103.82709	7800.1
3106.19305	7810.7
3108.55757	7792.9
3110.92066	7773.5
3113.28232	7750.5
3115.64255	7753.2
3118.00134	7725.5
3120.35871	7717.5
3122.71466	7693.7
3125.06917	7691.7
3127.42226	7675.9
3129.77393	7677.8
3132.12417	7654.6
3134.47299	7687.2
3136.82039	7664.3
3139.16636	7672.5
3141.51092	7670.6
3143.85406	7672.3
3146.19579	7654.4
3148.53609	7680.7
3150.87499	7692.6
3153.21246	7681
3155.54853	7700.3
3157.88318	7677.7
3160.21642	7681.5
3162.54826	7710.7
3164.87868	7696.9
3167.2077	7710.5
3169.5353	7730.6
3171.86151	7722.2
3174.18631	7692.4
3176.5097	7674.9
3178.83169	7671.9
3181.15228	7687.7
3183.47147	7659.3
3185.78926	7661
3188.10565	7648.5
3190.42065	7648.6
3192.73424	7644.7
3195.04645	7618.5
3197.35725	7639.1
3199.66667	7647.8
3201.97469	7658.7
3204.28132	7637.6
3206.58656	7654.4
3208.8904	7653.5
3211.19287	7656.4
3213.49394	7659.9
3215.79363	7676.8
3218.09193	7690
3220.38884	7672
3222.68438	7675.8
3224.97853	7665.9
3227.2713	7671.8
3229.56269	7658.3
3231.8527	7654.4
3234.14133	7616.9
3236.42858	7621.8
3238.71446	7624.7
3240.99896	7606.2
3243.28209	7586.6
3245.56384	7574.3
3247.84423	7577.2
3250.12324	7552.4
3252.40088	7555.8
3254.67715	7547.9
3256.95205	7530.6
3259.22558	7549.4
3261.49775	7535.3
3263.76855	7563.4
3266.03799	7539.8
3268.30606	7519.5
3270.57277	7506.7
3272.83812	7498.1
3275.10211	7451.9
3277.36474	7457.2
3279.62601	7461.2
3281.88593	7410.6
3284.14448	7437.8
3286.40168	7425.3
3288.65753	7442.4
3290.91202	7439.8
3293.16516	7410.4
3295.41695	7401.6
3297.66738	7359.5
3299.91647	7336.4
3302.16421	7269.9
3304.4106	7251.6
3306.65564	7221.6
3308.89933	7154.4
3311.14169	7104.2
3313.38269	7036.6
3315.62236	6978.3
3317.86068	6947.2
3320.09766	6876.6
3322.3333	6836.9
3324.5676	6792.4
3326.80056	6704.8
3329.03219	6641.3
3331.26248	3.4
3333.49143	0.1
3335.71905	-0.7
