Data from AgNP_FTO_APTES_UA_10uM_CRN_0uM_R6G_10uM_NaF_0.1M_Addition_RamanShift__0__12-08-20-430.txt Node

Date: Thu Feb 10 12:08:20 GMT 2022
User: TCL
Spectrometer: QEP01345
Trigger mode: 4
Integration Time (sec): 7.000000E0
Scans to average: 10
Electric dark correction enabled: true
Nonlinearity correction enabled: false
Boxcar width: 0
XAxis mode: Raman Shifts
Number of Pixels in Spectrum: 1044
>>>>>Begin Spectral Data<<<<<
46.04893	0.6
50.45542	0
54.85868	-1.4
59.25871	0.9
63.6555	49.6
68.04907	52.1
72.43941	55.6
76.82654	54.8
81.21044	60.6
85.59113	60.3
89.96862	62.8
94.34289	68.3
98.71396	69.5
103.08183	71.3
107.4465	73.7
111.80798	71.7
116.16626	75.5
120.52136	76.7
124.87327	81.5
129.222	83.7
133.56755	90.8
137.90993	96.7
142.24913	103.3
146.58517	111.9
150.91804	134.1
155.24774	165.1
159.57429	200.8
163.89768	259.5
168.21792	346.9
172.53501	471
176.84895	654.8
181.15975	921.5
185.46741	1292
189.77193	1806.7
194.07331	2437
198.37157	3144.4
202.6667	3892.3
206.9587	4678.7
211.24758	5422.2
215.53334	6187.7
219.81599	7042.3
224.09553	7948.4
228.37195	8970.2
232.64527	10082.9
236.91549	11192.9
241.18261	12274.4
245.44663	13223.9
249.70755	13997.1
253.96539	14646.5
258.22014	15173.6
262.4718	15611.1
266.72039	15940.9
270.96589	16076.9
275.20832	16019.1
279.44768	15754.3
283.68397	15400.6
287.91719	15145.1
292.14735	15016.9
296.37445	15100.8
300.59849	15415.1
304.81948	15841.8
309.03742	16188.5
313.25231	16251.6
317.46415	15869.1
321.67296	15129.8
325.87872	14449.9
330.08145	14134.3
334.28114	14075.1
338.47781	14253.7
342.67145	14540.4
346.86207	14927.1
351.04966	15568.4
355.23424	16188
359.4158	16716.9
363.59435	16975.9
367.76989	17051.7
371.94243	16997.2
376.11196	16873
380.27849	16809.6
384.44203	16711.3
388.60257	16655.7
392.76012	16670.5
396.91468	16853.9
401.06626	17144.9
405.21485	17390.5
409.36047	17158.9
413.50311	16510.4
417.64277	15939.9
421.77947	15624
425.9132	15535.8
430.04396	15525
434.17176	15517.5
438.2966	15562.8
442.41849	15763.6
446.53742	16035.1
450.6534	16315
454.76644	16462.5
458.87653	16453.2
462.98368	16356
467.08789	16235.5
471.18916	16037.7
475.2875	15751.6
479.38291	15517.3
483.4754	15314.5
487.56496	15210.2
491.6516	15212.3
495.73531	15203.7
499.81612	15309.9
503.89401	15449.8
507.96899	15585.8
512.04106	15689
516.11023	15846.7
520.1765	15891.2
524.23987	15918.2
528.30034	15811.7
532.35792	15666.3
536.41261	15473.5
540.46441	15180.2
544.51333	15042.3
548.55936	15076.6
552.60252	15311.4
556.64279	15621.6
560.6802	15796
564.71473	15881.7
568.7464	16159.1
572.7752	16324.6
576.80114	16147.8
580.82422	16031.9
584.84444	16329.2
588.86181	16792.6
592.87633	17079.1
596.888	17272.1
600.89682	17254.1
604.9028	18047.8
608.90594	21260.5
612.90624	25894.4
616.90371	25288.9
620.89834	19276.6
624.89015	16144.6
628.87913	15497.2
632.86528	15668
636.84862	15898.3
640.82913	15783.1
644.80683	15279.2
648.78172	14944.2
652.75379	14955
656.72306	15308.1
660.68952	15853.6
664.65319	15762.8
668.61405	15176
672.57211	14907.1
676.52738	14954.6
680.47986	14960.7
684.42955	14838.6
688.37646	14730.3
692.32058	14693
696.26192	14872.1
700.20048	14998.7
704.13626	15136.9
708.06928	15165.4
711.99952	15049
715.927	15010.2
719.85171	15074.9
723.77365	15061.3
727.69284	14940.2
731.60928	14773.9
735.52295	14704.3
739.43388	14692.6
743.34206	14785.5
747.24749	14796.7
751.15017	14851.7
755.05012	14991.1
758.94733	15458
762.8418	16593.1
766.73354	18629.2
770.62254	20729.6
774.50882	21559
778.39237	20769.1
782.27321	18980.1
786.15132	17154.2
790.02671	15854.5
793.89938	15238.6
797.76935	14959.4
801.6366	14820.9
805.50115	14723.7
809.36299	14628.6
813.22213	14546.6
817.07857	14496
820.93231	14449
824.78336	14462.1
828.63172	14495.2
832.47738	14503.7
836.32036	14448.7
840.16066	14449.1
843.99827	14413.6
847.8332	14415.8
851.66546	14439.4
855.49504	14446.7
859.32195	14429.2
863.1462	14417.1
866.96777	14389.3
870.78668	14378.5
874.60293	14426.8
878.41652	14468.3
882.22745	14609.4
886.03573	14645.2
889.84136	14685.5
893.64433	14659.5
897.44466	14655.5
901.24235	14671.1
905.0374	14627.2
908.8298	14543.5
912.61957	14496.4
916.40671	14543.4
920.19121	14570.9
923.97308	14682.4
927.75233	14848.4
931.52895	14975.1
935.30295	14909.7
939.07433	14554.7
942.84309	14217.9
946.60924	14009.9
950.37278	13933.2
954.13371	13922.2
957.89203	13849.2
961.64774	13826.9
965.40086	13764.9
969.15137	13746.6
972.89929	13719.9
976.64461	13704.4
980.38733	13676.9
984.12747	13715
987.86502	13738.4
991.59999	13784.8
995.33237	13842.2
999.06217	13985.5
1002.78939	14205.2
1006.51404	14417.5
1010.23611	14713
1013.95561	14829.9
1017.67255	14844.6
1021.38692	14771.9
1025.09872	14583.1
1028.80796	14364.3
1032.51465	14273.2
1036.21877	14303.2
1039.92035	14352.4
1043.61937	14417.6
1047.31584	14463.5
1051.00976	14478.5
1054.70114	14512
1058.38998	14510.8
1062.07627	14534.2
1065.76003	14615
1069.44126	14695.7
1073.11995	14936.8
1076.79611	15276
1080.46974	15559.8
1084.14085	15800.3
1087.80943	16077.5
1091.47549	16204.9
1095.13903	16073.7
1098.80005	15700.4
1102.45857	15354.1
1106.11456	15145.1
1109.76805	15063.3
1113.41903	15143.3
1117.06751	15354.3
1120.71348	15704.8
1124.35696	16159.7
1127.99793	16638.3
1131.63641	16686.5
1135.2724	16209.8
1138.90589	15736.9
1142.5369	15394.5
1146.16542	15182.6
1149.79145	15001.8
1153.415	14931.3
1157.03607	14934.5
1160.65467	15170
1164.27079	15621.5
1167.88443	16317.5
1171.49561	17313.1
1175.10432	18838.7
1178.71056	20919.9
1182.31434	22592.8
1185.91565	23196.9
1189.51451	22801.3
1193.11091	21851.7
1196.70485	20607.9
1200.29634	19515.3
1203.88538	18567.6
1207.47197	17664.3
1211.05612	16884.1
1214.63782	16361
1218.21708	16036.3
1221.79391	15882.1
1225.36829	15879
1228.94024	15897.7
1232.50976	15918
1236.07685	15850.7
1239.6415	15831.1
1243.20374	15784.2
1246.76355	15799.5
1250.32093	15866.6
1253.8759	16119.9
1257.42845	16493.3
1260.97859	16998.9
1264.52631	17584.1
1268.07163	18102.4
1271.61453	18598.5
1275.15503	18879.3
1278.69312	19049.6
1282.22882	19209.6
1285.76211	19572.3
1289.29301	20039.2
1292.82151	20622.2
1296.34761	21164.4
1299.87133	21976.2
1303.39266	23275.8
1306.9116	25240.3
1310.42815	27629
1313.94233	29098
1317.45412	28653.7
1320.96354	26982.9
1324.47058	25225.5
1327.97525	23696.4
1331.47754	22632.7
1334.97747	21969.4
1338.47502	21709.5
1341.97022	21859
1345.46305	22470
1348.95352	23808.9
1352.44163	25430.6
1355.92738	27389
1359.41078	30200.7
1362.89183	33244.6
1366.37053	33128.9
1369.84688	29017.1
1373.32088	24210.9
1376.79254	21152.5
1380.26186	19672.8
1383.72883	18849.4
1387.19347	18137.8
1390.65578	17467.9
1394.11575	16989.2
1397.57339	16721.2
1401.0287	16625.7
1404.48168	16534.8
1407.93234	16502.8
1411.38068	16481.3
1414.82669	16555.6
1418.27039	16536.2
1421.71177	16570.4
1425.15083	16433.2
1428.58758	16306.1
1432.02203	16369.4
1435.45416	16579.7
1438.88399	16657.1
1442.31151	16594.5
1445.73673	16614.1
1449.15965	16622.6
1452.58027	16585
1455.9986	16496
1459.41463	16513
1462.82837	16689.5
1466.23982	17005.3
1469.64898	17356.9
1473.05586	17604.9
1476.46045	17809.8
1479.86276	17977.3
1483.26279	18224
1486.66054	18613.1
1490.05602	19180.3
1493.44922	20059.5
1496.84016	21348.9
1500.22882	23250.7
1503.61521	25850.5
1506.99934	28788.9
1510.38121	31388.2
1513.76081	32334.2
1517.13816	30604.8
1520.51324	27199.8
1523.88607	23698.8
1527.25665	21223.8
1530.62498	19775.5
1533.99105	18867.8
1537.35488	18237.7
1540.71647	17799.4
1544.07581	17435.5
1547.4329	17255.3
1550.78776	17190.8
1554.14038	17182.5
1557.49077	17352.7
1560.83892	17681.5
1564.18484	18179.4
1567.52853	18779.7
1570.86999	19292
1574.20922	19630.8
1577.54624	19593.3
1580.88103	18827.6
1584.2136	17732.2
1587.54395	17076.4
1590.87208	17106.5
1594.19801	17765.3
1597.52172	18722
1600.84321	19212.2
1604.16251	18748.9
1607.47959	17919
1610.79447	16960
1614.10715	16002.7
1617.41763	15103
1620.7259	14500.4
1624.03199	14237.6
1627.33587	14231.8
1630.63757	14502.6
1633.93707	15088.2
1637.23439	16170.2
1640.52951	17832
1643.82246	20203.4
1647.11321	22873.7
1650.40179	24755.4
1653.68819	24171.7
1656.97241	21257.5
1660.25446	17908.9
1663.53433	15554
1666.81203	14178
1670.08756	13400.9
1673.36092	12995.2
1676.63211	12721.5
1679.90115	12527.8
1683.16801	12361.4
1686.43272	12272.7
1689.69527	12175
1692.95567	12104.5
1696.2139	12077.7
1699.46999	12047.9
1702.72392	11993
1705.97571	12003.2
1709.22535	11991.4
1712.47284	11982.8
1715.71819	11959.9
1718.96139	11960.2
1722.20246	11949.3
1725.44139	11875.6
1728.67818	11805
1731.91284	11742.1
1735.14537	11664
1738.37576	11600.1
1741.60403	11562.9
1744.83017	11549.4
1748.05418	11523
1751.27607	11475.2
1754.49584	11451.6
1757.71349	11441.9
1760.92903	11423.3
1764.14244	11411.5
1767.35375	11403.3
1770.56294	11363.9
1773.77002	11326.1
1776.97499	11305.2
1780.17785	11272.7
1783.37861	11283.2
1786.57727	11248.5
1789.77382	11230.4
1792.96828	11201.8
1796.16064	11195.8
1799.3509	11182.2
1802.53907	11159.5
1805.72514	11103.7
1808.90913	11084.7
1812.09102	11057.3
1815.27083	11066.3
1818.44856	11030.9
1821.6242	10976.5
1824.79776	10958.6
1827.96924	10972.3
1831.13864	10955.2
1834.30597	10988.4
1837.47122	10943.9
1840.6344	10961.8
1843.7955	10945.5
1846.95454	10926.9
1850.11151	10938.3
1853.26642	10917.9
1856.41926	10917.5
1859.57004	10966.8
1862.71876	10897.7
1865.86542	10899
1869.01003	10866.4
1872.15258	10864.1
1875.29308	10857
1878.43152	10816
1881.56792	10807.7
1884.70227	10775.1
1887.83457	10789.4
1890.96482	10761.4
1894.09304	10702.3
1897.21921	10684
1900.34335	10701.2
1903.46544	10657.7
1906.58551	10651.8
1909.70353	10617.3
1912.81953	10621.4
1915.93349	10592.9
1919.04543	10589.5
1922.15534	10543.3
1925.26322	10518.4
1928.36908	10495.1
1931.47292	10474.1
1934.57473	10457.7
1937.67453	10402.1
1940.77232	10389.7
1943.86808	10352.4
1946.96184	10297.1
1950.05358	10281.2
1953.14331	10242.9
1956.23103	10206.1
1959.31675	10185.8
1962.40046	10174.9
1965.48217	10122.5
1968.56188	10109
1971.63959	10075.1
1974.7153	10053.2
1977.78901	10014
1980.86073	9981.1
1983.93046	9947.8
1986.99819	9902.4
1990.06394	9902.4
1993.1277	9862.6
1996.18947	9819.5
1999.24925	9818.4
2002.30706	9768.4
2005.36288	9738.2
2008.41672	9701.6
2011.46859	9681
2014.51848	9666.8
2017.56639	9629
2020.61233	9589.2
2023.6563	9579.7
2026.6983	9543
2029.73833	9525.3
2032.7764	9452.9
2035.8125	9472.2
2038.84664	9444.2
2041.87881	9450
2044.90903	9416.3
2047.93729	9409
2050.96359	9389.8
2053.98794	9368.3
2057.01034	9372.6
2060.03078	9302.2
2063.04927	9337.6
2066.06582	9337.6
2069.08042	9341.2
2072.09307	9337.5
2075.10378	9338.1
2078.11255	9326.6
2081.11938	9327.9
2084.12426	9315.2
2087.12722	9329.1
2090.12824	9329.2
2093.12732	9311.2
2096.12447	9333.3
2099.11969	9329.7
2102.11299	9330.4
2105.10435	9315.7
2108.09379	9318.8
2111.08131	9353.4
2114.0669	9370.1
2117.05057	9357.5
2120.03233	9366
2123.01216	9370.8
2125.99008	9380.6
2128.96609	9364.6
2131.94018	9400.3
2134.91236	9402.1
2137.88263	9390.8
2140.851	9379.3
2143.81746	9395
2146.78201	9371.5
2149.74466	9359.7
2152.7054	9333.1
2155.66425	9331.8
2158.6212	9310.2
2161.57625	9290.4
2164.52941	9309.2
2167.48067	9316.1
2170.43004	9300.5
2173.37752	9308.4
2176.32311	9284
2179.26681	9297.7
2182.20863	9274.4
2185.14856	9292.2
2188.08661	9273.1
2191.02278	9277.7
2193.95707	9271.1
2196.88948	9266.5
2199.82001	9254.1
2202.74867	9215.5
2205.67545	9224.2
2208.60037	9214.9
2211.52341	9193.3
2214.44458	9181.7
2217.36388	9163
2220.28132	9145.8
2223.1969	9108.5
2226.11061	9092.8
2229.02246	9076.8
2231.93245	9063.5
2234.84058	9025.4
2237.74686	9015.1
2240.65128	9040.8
2243.55385	9011.1
2246.45456	9002.3
2249.35343	8998.7
2252.25044	9006.5
2255.14561	8975.9
2258.03893	8978
2260.93041	8968.7
2263.82004	8932.8
2266.70783	8926.9
2269.59378	8889.1
2272.4779	8881.4
2275.36017	8846
2278.24061	8859
2281.11922	8847
2283.996	8820.2
2286.87094	8803.9
2289.74405	8804.4
2292.61534	8754.9
2295.4848	8760.1
2298.35243	8737.9
2301.21824	8731.6
2304.08223	8720.6
2306.94439	8724.6
2309.80474	8692.6
2312.66327	8700.8
2315.51999	8695.1
2318.37489	8668.4
2321.22797	8653.2
2324.07925	8655.3
2326.92871	8643
2329.77637	8627.3
2332.62222	8625.2
2335.46626	8596.3
2338.3085	8567.3
2341.14893	8600.6
2343.98756	8579.1
2346.8244	8605.9
2349.65943	8577.5
2352.49267	8573.8
2355.32411	8588.9
2358.15376	8598.9
2360.98161	8612.1
2363.80768	8605.2
2366.63195	8609.8
2369.45444	8593.1
2372.27514	8578.8
2375.09405	8571.5
2377.91118	8557
2380.72652	8509.6
2383.54009	8509.5
2386.35187	8490.6
2389.16188	8440
2391.97011	8405.3
2394.77657	8366.5
2397.58125	8356.7
2400.38416	8347.9
2403.18529	8337.9
2405.98466	8338.1
2408.78226	8306.2
2411.57809	8288.1
2414.37216	8264.7
2417.16446	8256.4
2419.955	8263.2
2422.74378	8276.5
2425.5308	8261.8
2428.31606	8242.9
2431.09956	8257.6
2433.88131	8272.7
2436.6613	8257.3
2439.43954	8239.9
2442.21603	8228.5
2444.99077	8223.8
2447.76377	8234.2
2450.53501	8224.6
2453.30451	8222.5
2456.07226	8220.9
2458.83827	8212.5
2461.60254	8202.5
2464.36507	8183.5
2467.12586	8181.3
2469.88492	8153.7
2472.64224	8168.6
2475.39782	8187.8
2478.15167	8189.9
2480.90379	8205.1
2483.65417	8174.9
2486.40283	8188.4
2489.14976	8192.1
2491.89497	8187.7
2494.63845	8184.8
2497.3802	8147
2500.12024	8133.2
2502.85855	8147.5
2505.59514	8140.8
2508.33002	8135.9
2511.06318	8085.7
2513.79462	8086.4
2516.52435	8064.8
2519.25237	8039.2
2521.97867	8007.3
2524.70327	8013.8
2527.42616	7975.9
2530.14734	7974.9
2532.86681	7970.2
2535.58458	7963.8
2538.30065	7965.4
2541.01501	7951
2543.72768	7931.3
2546.43864	7942.2
2549.14791	7932.9
2551.85548	7911.9
2554.56136	7894.2
2557.26554	7890.2
2559.96803	7859.2
2562.66883	7865.5
2565.36794	7844.8
2568.06536	7840.9
2570.7611	7828.1
2573.45514	7815.4
2576.14751	7790.8
2578.83819	7760.2
2581.52719	7757.9
2584.21451	7743.5
2586.90015	7737.9
2589.58411	7729.4
2592.2664	7691.4
2594.94701	7676.7
2597.62594	7675.2
2600.30321	7661.9
2602.9788	7668.4
2605.65273	7646
2608.32498	7655.4
2610.99557	7642.7
2613.66449	7619.6
2616.33175	7587
2618.99734	7613.3
2621.66128	7581.5
2624.32355	7577
2626.98416	7561.1
2629.64311	7525.5
2632.30041	7532.7
2634.95605	7512.3
2637.61004	7502.5
2640.26238	7495.9
2642.91306	7495.3
2645.56209	7491.8
2648.20948	7467.3
2650.85521	7467.7
2653.4993	7489.6
2656.14175	7470.6
2658.78255	7482.6
2661.42171	7465.9
2664.05923	7486.2
2666.6951	7500.6
2669.32934	7491.8
2671.96194	7482.3
2674.59291	7498
2677.22224	7494.3
2679.84993	7492
2682.476	7475.8
2685.10043	7476.6
2687.72324	7462.7
2690.34441	7439.1
2692.96396	7457.2
2695.58188	7466.4
2698.19818	7444.3
2700.81285	7459.3
2703.4259	7445.1
2706.03733	7437.9
2708.64714	7420.8
2711.25533	7438.1
2713.86191	7457
2716.46687	7458.5
2719.07021	7479.9
2721.67194	7480.5
2724.27206	7481.1
2726.87057	7475.7
2729.46747	7474
2732.06276	7477.3
2734.65644	7470.8
2737.24852	7461.8
2739.83899	7434.4
2742.42786	7433.3
2745.01513	7414.8
2747.60079	7402.1
2750.18486	7390.8
2752.76733	7380.6
2755.3482	7372.8
2757.92747	7378.8
2760.50515	7355.6
2763.08123	7332.9
2765.65573	7310.9
2768.22863	7291.1
2770.79994	7300.3
2773.36967	7318
2775.9378	7293.1
2778.50435	7267.6
2781.06932	7264.1
2783.6327	7257.1
2786.1945	7267.5
2788.75471	7265.5
2791.31335	7245.9
2793.87041	7240.2
2796.42589	7219.1
2798.97979	7219.1
2801.53212	7201.2
2804.08288	7179.6
2806.63206	7183.8
2809.17967	7168.4
2811.72571	7164.5
2814.27018	7131.7
2816.81308	7143.6
2819.35442	7119.5
2821.89419	7115.1
2824.43239	7127.3
2826.96904	7119.6
2829.50412	7121.4
2832.03763	7105.1
2834.56959	7103.7
2837.1	7088.7
2839.62884	7129.3
2842.15613	7130.9
2844.68186	7150.5
2847.20604	7148.6
2849.72867	7165
2852.24974	7131.6
2854.76927	7123.6
2857.28724	7118.5
2859.80367	7129.7
2862.31855	7114.6
2864.83189	7117.1
2867.34368	7119.9
2869.85393	7141
2872.36264	7120.4
2874.8698	7124.7
2877.37543	7110.8
2879.87952	7135.3
2882.38207	7137.3
2884.88308	7111.5
2887.38256	7127.7
2889.88051	7113.1
2892.37692	7127.2
2894.8718	7117.4
2897.36515	7116.1
2899.85698	7128.4
2902.34727	7131.4
2904.83604	7131.7
2907.32328	7143.3
2909.809	7154.1
2912.29319	7134.1
2914.77587	7116
2917.25702	7122.5
2919.73665	7107.9
2922.21476	7145.5
2924.69136	7132.4
2927.16644	7105.9
2929.64	7090.7
2932.11205	7077.9
2934.58258	7038
2937.05161	7065.1
2939.51912	7064.5
2941.98513	7033.4
2944.44962	7018.2
2946.91261	6956.5
2949.37409	6987.1
2951.83407	6962.7
2954.29254	6964.6
2956.74951	6966.1
2959.20498	6941.3
2961.65895	6951.2
2964.11142	6952.5
2966.56239	6918.2
2969.01186	6921.2
2971.45984	6901.6
2973.90632	6888.4
2976.35131	6879.5
2978.7948	6856.8
2981.23681	6814.4
2983.67732	6823.3
2986.11635	6799.3
2988.55388	6768.6
2990.98993	6764.8
2993.4245	6776.1
2995.85758	6742.3
2998.28917	6733.8
3000.71928	6738.5
3003.14791	6707.3
3005.57506	6697.1
3008.00073	6697.2
3010.42493	6698.9
3012.84764	6675.3
3015.26888	6659.5
3017.68865	6642.2
3020.10694	6626
3022.52376	6625.8
3024.9391	6625.2
3027.35298	6602.6
3029.76539	6601.7
3032.17632	6621.2
3034.5858	6591.6
3036.9938	6577.6
3039.40034	6572.6
3041.80542	6573.5
3044.20903	6552.7
3046.61118	6531.5
3049.01187	6515.5
3051.4111	6502.2
3053.80888	6509.6
3056.20519	6486.1
3058.60005	6484.5
3060.99345	6473.4
3063.3854	6473.7
3065.7759	6469.5
3068.16494	6432.6
3070.55254	6426
3072.93868	6418.8
3075.32338	6422.3
3077.70662	6401.8
3080.08842	6384.5
3082.46878	6366.5
3084.84769	6353
3087.22515	6372
3089.60118	6365.2
3091.97576	6376.9
3094.3489	6379.3
3096.72061	6386.5
3099.09087	6378.3
3101.4597	6361.9
3103.82709	6342.8
3106.19305	6342.7
3108.55757	6345.4
3110.92066	6343.6
3113.28232	6328.6
3115.64255	6340.5
3118.00134	6320.7
3120.35871	6320.6
3122.71466	6309.7
3125.06917	6281.1
3127.42226	6260.6
3129.77393	6290.1
3132.12417	6277.7
3134.47299	6286.4
3136.82039	6276.3
3139.16636	6271.3
3141.51092	6278.3
3143.85406	6271
3146.19579	6285.6
3148.53609	6285.9
3150.87499	6287.2
3153.21246	6292.7
3155.54853	6323.2
3157.88318	6301.4
3160.21642	6320.9
3162.54826	6319.2
3164.87868	6321.3
3167.2077	6323.7
3169.5353	6328.6
3171.86151	6340.9
3174.18631	6344.7
3176.5097	6303.7
3178.83169	6308.6
3181.15228	6303.1
3183.47147	6291.4
3185.78926	6293.2
3188.10565	6294.8
3190.42065	6289.8
3192.73424	6281.8
3195.04645	6273.9
3197.35725	6275.8
3199.66667	6273.2
3201.97469	6285.9
3204.28132	6285.2
3206.58656	6301.5
3208.8904	6293.1
3211.19287	6308.8
3213.49394	6327.5
3215.79363	6314.5
3218.09193	6313.1
3220.38884	6303.9
3222.68438	6304.1
3224.97853	6322.6
3227.2713	6319.7
3229.56269	6295.5
3231.8527	6303.3
3234.14133	6282.4
3236.42858	6274.7
3238.71446	6267.9
3240.99896	6256.1
3243.28209	6227.3
3245.56384	6233.1
3247.84423	6244.2
3250.12324	6237.6
3252.40088	6254.6
3254.67715	6227.7
3256.95205	6201.8
3259.22558	6217
3261.49775	6229.2
3263.76855	6225.7
3266.03799	6203.4
3268.30606	6203.1
3270.57277	6191.8
3272.83812	6168.7
3275.10211	6163.2
3277.36474	6145.2
3279.62601	6146.3
3281.88593	6149.1
3284.14448	6165.7
3286.40168	6142
3288.65753	6146.5
3290.91202	6156.4
3293.16516	6145.7
3295.41695	6117.4
3297.66738	6095.6
3299.91647	6064.7
3302.16421	6026.7
3304.4106	5978.2
3306.65564	5960.4
3308.89933	5927.7
3311.14169	5876.9
3313.38269	5826.9
3315.62236	5781.1
3317.86068	5743.6
3320.09766	5700.4
3322.3333	5652.8
3324.5676	5643.6
3326.80056	5532.5
3329.03219	5500.6
3331.26248	3.3
3333.49143	-0.9
3335.71905	-1
