Data from AgNP_FTO_APTES_UA_10uM_CRN_5uM_R6G_10uM_NaF_0.1M_Addition_RamanShift__19__15-04-30-658.txt Node

Date: Thu Feb 10 15:04:30 GMT 2022
User: TCL
Spectrometer: QEP01345
Trigger mode: 4
Integration Time (sec): 7.000000E0
Scans to average: 10
Electric dark correction enabled: true
Nonlinearity correction enabled: false
Boxcar width: 0
XAxis mode: Raman Shifts
Number of Pixels in Spectrum: 1044
>>>>>Begin Spectral Data<<<<<
46.04893	0.4
50.45542	-0.5
54.85868	-2
59.25871	-1.6
63.6555	71.5
68.04907	73.9
72.43941	75.7
76.82654	74
81.21044	83.3
85.59113	83.3
89.96862	89.3
94.34289	93.1
98.71396	94.5
103.08183	96.7
107.4465	99.8
111.80798	101.1
116.16626	106.8
120.52136	111.7
124.87327	114.8
129.222	120.4
133.56755	130
137.90993	135
142.24913	150.6
146.58517	167.9
150.91804	193
155.24774	233.1
159.57429	288.6
163.89768	372.9
168.21792	495.2
172.53501	671.3
176.84895	934.1
181.15975	1321.8
185.46741	1845
189.77193	2526.5
194.07331	3381.2
198.37157	4359.8
202.6667	5375.4
206.9587	6347.1
211.24758	7340
215.53334	8314.4
219.81599	9397.9
224.09553	10568.8
228.37195	11860.8
232.64527	13290.7
236.91549	14759.7
241.18261	16247.3
245.44663	17601.8
249.70755	18816.2
253.96539	19879.7
258.22014	20816.5
262.4718	21578.6
266.72039	22191.2
270.96589	22526.9
275.20832	22610.6
279.44768	22539.7
283.68397	22382
287.91719	22252.5
292.14735	22236.7
296.37445	22274.1
300.59849	22339.6
304.81948	22355.7
309.03742	22276.7
313.25231	21950.9
317.46415	21443.1
321.67296	20802
325.87872	20285.8
330.08145	19947.5
334.28114	19947.1
338.47781	20107.4
342.67145	20364.7
346.86207	20697.9
351.04966	21074.5
355.23424	21514.5
359.4158	21868.5
363.59435	22088.6
367.76989	22295.1
371.94243	22422.5
376.11196	22574.1
380.27849	22618.4
384.44203	22731.8
388.60257	22912.5
392.76012	23125.7
396.91468	23395.5
401.06626	23758.6
405.21485	23982.5
409.36047	23848.4
413.50311	23484.9
417.64277	23283.1
421.77947	23254.5
425.9132	23404
430.04396	23571.6
434.17176	23687.3
438.2966	23901.2
442.41849	24298.3
446.53742	24976
450.6534	25774.1
454.76644	26365.4
458.87653	26613.7
462.98368	26439.4
467.08789	26176.9
471.18916	25753.1
475.2875	25451.4
479.38291	25282.3
483.4754	25130.3
487.56496	24776.7
491.6516	24248.7
495.73531	23799.4
499.81612	23627.5
503.89401	23703.4
507.96899	23869.2
512.04106	23760.7
516.11023	23629.2
520.1765	23348.9
524.23987	23077.2
528.30034	22840
532.35792	22586.7
536.41261	22315.4
540.46441	22021.6
544.51333	22104.8
548.55936	22445.2
552.60252	23051.1
556.64279	23684.5
560.6802	24096.4
564.71473	24370.7
568.7464	24799.2
572.7752	25475.7
576.80114	26057.1
580.82422	26536.6
584.84444	26974.5
588.86181	27462.2
592.87633	27847.3
596.888	27922.6
600.89682	27622.3
604.9028	28210
608.90594	30386.9
612.90624	32351.8
616.90371	29975.1
620.89834	25208.9
624.89015	23315
628.87913	23151.7
632.86528	23219.6
636.84862	22948.9
640.82913	22493.3
644.80683	21873.2
648.78172	21405
652.75379	21314.1
656.72306	21569
660.68952	21883.8
664.65319	21781.7
668.61405	21407.8
672.57211	21298.7
676.52738	21305.6
680.47986	21287.9
684.42955	21192.9
688.37646	21107.4
692.32058	21305.1
696.26192	21511.7
700.20048	21870.2
704.13626	22023.5
708.06928	21992.6
711.99952	21785.4
715.927	21703.3
719.85171	21762.2
723.77365	21707.4
727.69284	21446.4
731.60928	21179.4
735.52295	21092.6
739.43388	21097.5
743.34206	21187.2
747.24749	21291.2
751.15017	21545.2
755.05012	22011.7
758.94733	22730.4
762.8418	24000
766.73354	25885.3
770.62254	27566.6
774.50882	27708
778.39237	26191.9
782.27321	24180.8
786.15132	22646.4
790.02671	21731.7
793.89938	21317.9
797.76935	21151.7
801.6366	21201
805.50115	21126
809.36299	20965.2
813.22213	20721.1
817.07857	20628.4
820.93231	20538.7
824.78336	20454.8
828.63172	20334.5
832.47738	20322.3
836.32036	20317
840.16066	20450.1
843.99827	20515.5
847.8332	20454.4
851.66546	20381.1
855.49504	20316.9
859.32195	20301.2
863.1462	20246.4
866.96777	20145.4
870.78668	20103.1
874.60293	20072.9
878.41652	20082
882.22745	20120
886.03573	20189.7
889.84136	20149.3
893.64433	20080.7
897.44466	19997.6
901.24235	19917.9
905.0374	19851
908.8298	19750.4
912.61957	19850.4
916.40671	20088.5
920.19121	20409.2
923.97308	20687.1
927.75233	20736.3
931.52895	20587.7
935.30295	20257.1
939.07433	19890.3
942.84309	19524.6
946.60924	19378.7
950.37278	19376.5
954.13371	19350.3
957.89203	19213.9
961.64774	19217.3
965.40086	19154
969.15137	19079.7
972.89929	18963.8
976.64461	18924.9
980.38733	18935.1
984.12747	19033.6
987.86502	19241.3
991.59999	19512.4
995.33237	19985.5
999.06217	20691.1
1002.78939	21493.1
1006.51404	21965.3
1010.23611	22167.6
1013.95561	22332.2
1017.67255	22315
1021.38692	22039.5
1025.09872	21741.9
1028.80796	21911.8
1032.51465	22616
1036.21877	23292.7
1039.92035	23416.8
1043.61937	22980.7
1047.31584	22374.4
1051.00976	21679.1
1054.70114	21433.4
1058.38998	21440.7
1062.07627	21598.3
1065.76003	21721.1
1069.44126	21877.5
1073.11995	22122
1076.79611	22410
1080.46974	22587.8
1084.14085	22811.4
1087.80943	23077.4
1091.47549	23324.1
1095.13903	23284.1
1098.80005	22967.7
1102.45857	22427.1
1106.11456	22083.5
1109.76805	21931.4
1113.41903	22004.8
1117.06751	22139.6
1120.71348	22372.9
1124.35696	22604
1127.99793	22852.3
1131.63641	23044.4
1135.2724	22954.2
1138.90589	22843.6
1142.5369	22853.2
1146.16542	22928.5
1149.79145	23060.5
1153.415	23304.7
1157.03607	23803.6
1160.65467	24594
1164.27079	25850.7
1167.88443	27414.3
1171.49561	29337
1175.10432	31781.9
1178.71056	34799.6
1182.31434	37647.8
1185.91565	39133.4
1189.51451	39041.4
1193.11091	37854.7
1196.70485	36054.4
1200.29634	34363.8
1203.88538	33140.1
1207.47197	32258.5
1211.05612	31595.5
1214.63782	30983.9
1218.21708	30410.9
1221.79391	30029.4
1225.36829	29787.3
1228.94024	29341.9
1232.50976	28641
1236.07685	28013
1239.6415	27704.3
1243.20374	27575.4
1246.76355	27773.7
1250.32093	28313.9
1253.8759	29028.7
1257.42845	29930.6
1260.97859	30881
1264.52631	31870.9
1268.07163	32917.6
1271.61453	34039.6
1275.15503	35270.8
1278.69312	36537.5
1282.22882	37579.8
1285.76211	38539.2
1289.29301	39577.6
1292.82151	41013.4
1296.34761	43012.4
1299.87133	45667.5
1303.39266	48788.1
1306.9116	52124.8
1310.42815	55240.4
1313.94233	57237.9
1317.45412	57312.1
1320.96354	56315.4
1324.47058	55251.8
1327.97525	54448
1331.47754	53764.2
1334.97747	53600.7
1338.47502	53532
1341.97022	53332.5
1345.46305	52491.3
1348.95352	51240.1
1352.44163	50088.6
1355.92738	50080.6
1359.41078	51362.8
1362.89183	52516.9
1366.37053	51074.5
1369.84688	46931
1373.32088	42230.4
1376.79254	39047.8
1380.26186	37953.7
1383.72883	38003.4
1387.19347	38156.4
1390.65578	38111.3
1394.11575	38219.2
1397.57339	38872.6
1401.0287	39838.6
1404.48168	40682
1407.93234	40918.4
1411.38068	40312.4
1414.82669	38851.5
1418.27039	37040.7
1421.71177	35085.9
1425.15083	33523.9
1428.58758	32749.1
1432.02203	32975.3
1435.45416	33815
1438.88399	35015.4
1442.31151	36099.7
1445.73673	36881.9
1449.15965	37450.8
1452.58027	37929.6
1455.9986	38132.2
1459.41463	38498.7
1462.82837	39205
1466.23982	39990.1
1469.64898	40699.2
1473.05586	41022.7
1476.46045	40844.4
1479.86276	40263.9
1483.26279	39506.7
1486.66054	39016.5
1490.05602	38795.3
1493.44922	38779.1
1496.84016	38852.2
1500.22882	39231.3
1503.61521	40165.9
1506.99934	41342.4
1510.38121	42345.4
1513.76081	42618.2
1517.13816	41789.3
1520.51324	40376.2
1523.88607	39214.8
1527.25665	38689.3
1530.62498	38541.7
1533.99105	38615
1537.35488	38485.9
1540.71647	38090.2
1544.07581	37376.4
1547.4329	36561
1550.78776	35829.3
1554.14038	35302.1
1557.49077	34885.2
1560.83892	34694.6
1564.18484	34484.3
1567.52853	34413.6
1570.86999	34590.9
1574.20922	35085
1577.54624	35631.1
1580.88103	35823
1584.2136	36339.4
1587.54395	37627.9
1590.87208	39725.8
1594.19801	42531
1597.52172	45300.9
1600.84321	46132.9
1604.16251	44040.8
1607.47959	40358
1610.79447	36436.5
1614.10715	32763
1617.41763	29868
1620.7259	27780.7
1624.03199	26777.1
1627.33587	26760.7
1630.63757	27718.2
1633.93707	29970.1
1637.23439	33375
1640.52951	37883.1
1643.82246	42736.3
1647.11321	45979.9
1650.40179	45862.6
1653.68819	41920.6
1656.97241	35972.3
1660.25446	30286.5
1663.53433	26176.4
1666.81203	23478.6
1670.08756	21795.2
1673.36092	20722
1676.63211	20011.6
1679.90115	19501.5
1683.16801	19097.7
1686.43272	18856.2
1689.69527	18620.5
1692.95567	18457.1
1696.2139	18362.6
1699.46999	18324.8
1702.72392	18217.1
1705.97571	18143.4
1709.22535	18047.5
1712.47284	18037.4
1715.71819	17970.1
1718.96139	17890.6
1722.20246	17831.4
1725.44139	17734.9
1728.67818	17616.3
1731.91284	17446.4
1735.14537	17379.8
1738.37576	17288.8
1741.60403	17220
1744.83017	17143.7
1748.05418	17102.2
1751.27607	17067.1
1754.49584	17040
1757.71349	17053.7
1760.92903	17018.5
1764.14244	17001.3
1767.35375	16982.3
1770.56294	16933.6
1773.77002	16909.6
1776.97499	16848.3
1780.17785	16822.5
1783.37861	16787.5
1786.57727	16743.9
1789.77382	16697.7
1792.96828	16681.5
1796.16064	16621.8
1799.3509	16594.1
1802.53907	16582.8
1805.72514	16496.3
1808.90913	16467.7
1812.09102	16450.3
1815.27083	16440.5
1818.44856	16376.4
1821.6242	16336.7
1824.79776	16346.3
1827.96924	16321.2
1831.13864	16348.2
1834.30597	16312.4
1837.47122	16334.4
1840.6344	16337.1
1843.7955	16365.8
1846.95454	16371.6
1850.11151	16358.5
1853.26642	16352.8
1856.41926	16376.3
1859.57004	16356.9
1862.71876	16284.4
1865.86542	16297.5
1869.01003	16284.4
1872.15258	16270.1
1875.29308	16276.7
1878.43152	16245.9
1881.56792	16258
1884.70227	16253.4
1887.83457	16217
1890.96482	16216.8
1894.09304	16229.7
1897.21921	16191.4
1900.34335	16150.8
1903.46544	16137.4
1906.58551	16111
1909.70353	16095.8
1912.81953	16094.4
1915.93349	16054
1919.04543	16003.8
1922.15534	15960.6
1925.26322	15905.1
1928.36908	15893.5
1931.47292	15881.3
1934.57473	15826.4
1937.67453	15734.7
1940.77232	15690.4
1943.86808	15649.4
1946.96184	15580.2
1950.05358	15483.4
1953.14331	15455.4
1956.23103	15382.5
1959.31675	15359.8
1962.40046	15318
1965.48217	15276.2
1968.56188	15205.1
1971.63959	15195.6
1974.7153	15139.4
1977.78901	15094.7
1980.86073	15018.9
1983.93046	14981.9
1986.99819	14959.9
1990.06394	14954.5
1993.1277	14889.2
1996.18947	14814
1999.24925	14776.1
2002.30706	14749.4
2005.36288	14707.8
2008.41672	14626.1
2011.46859	14607.5
2014.51848	14621.1
2017.56639	14546.3
2020.61233	14522.4
2023.6563	14485.5
2026.6983	14463.1
2029.73833	14429
2032.7764	14409.3
2035.8125	14358.5
2038.84664	14344.6
2041.87881	14349.9
2044.90903	14291.7
2047.93729	14306.3
2050.96359	14310.7
2053.98794	14266.1
2057.01034	14287.6
2060.03078	14254.9
2063.04927	14226.7
2066.06582	14218.3
2069.08042	14203.1
2072.09307	14214.3
2075.10378	14175.9
2078.11255	14153
2081.11938	14175.6
2084.12426	14105.6
2087.12722	14137.3
2090.12824	14100.1
2093.12732	14122
2096.12447	14093.6
2099.11969	14112.5
2102.11299	14126.6
2105.10435	14122
2108.09379	14142.5
2111.08131	14132.3
2114.0669	14127.7
2117.05057	14133
2120.03233	14159.2
2123.01216	14172.1
2125.99008	14159.6
2128.96609	14177.5
2131.94018	14184.6
2134.91236	14202.9
2137.88263	14213.4
2140.851	14227.4
2143.81746	14230.1
2146.78201	14221.4
2149.74466	14230
2152.7054	14212.1
2155.66425	14206
2158.6212	14230.5
2161.57625	14208.8
2164.52941	14201.6
2167.48067	14178.9
2170.43004	14190.1
2173.37752	14178.9
2176.32311	14184.4
2179.26681	14184.1
2182.20863	14157.5
2185.14856	14142.9
2188.08661	14185.5
2191.02278	14215.5
2193.95707	14202.2
2196.88948	14186.1
2199.82001	14181.5
2202.74867	14161.9
2205.67545	14158.1
2208.60037	14145.2
2211.52341	14130.6
2214.44458	14160.1
2217.36388	14126.2
2220.28132	14083.6
2223.1969	14064.8
2226.11061	14061.3
2229.02246	14034.9
2231.93245	14011.7
2234.84058	13972.3
2237.74686	13936.3
2240.65128	13914.7
2243.55385	13883.3
2246.45456	13852.4
2249.35343	13839
2252.25044	13847.7
2255.14561	13826.5
2258.03893	13819.6
2260.93041	13789.5
2263.82004	13732.4
2266.70783	13697.2
2269.59378	13656.6
2272.4779	13608.6
2275.36017	13544
2278.24061	13542.8
2281.11922	13542.6
2283.996	13522.5
2286.87094	13526.9
2289.74405	13507.4
2292.61534	13489.8
2295.4848	13535.7
2298.35243	13524.9
2301.21824	13513.4
2304.08223	13542.8
2306.94439	13521.6
2309.80474	13529.5
2312.66327	13570.2
2315.51999	13563.3
2318.37489	13565.2
2321.22797	13540.8
2324.07925	13503.4
2326.92871	13498.4
2329.77637	13514.3
2332.62222	13500.9
2335.46626	13511.8
2338.3085	13505.1
2341.14893	13536.8
2343.98756	13536.2
2346.8244	13551.9
2349.65943	13534.7
2352.49267	13550.5
2355.32411	13516.3
2358.15376	13529.7
2360.98161	13562.4
2363.80768	13483.3
2366.63195	13514.5
2369.45444	13465
2372.27514	13414.8
2375.09405	13384.6
2377.91118	13380
2380.72652	13331.6
2383.54009	13304.1
2386.35187	13298.3
2389.16188	13246
2391.97011	13237.4
2394.77657	13215
2397.58125	13212.1
2400.38416	13221.7
2403.18529	13166.6
2405.98466	13187.3
2408.78226	13116.8
2411.57809	13069.2
2414.37216	13118.6
2417.16446	13068.6
2419.955	13026
2422.74378	13045
2425.5308	13018.2
2428.31606	13017.6
2431.09956	13031.4
2433.88131	12997.2
2436.6613	13022
2439.43954	13011.3
2442.21603	13051.4
2444.99077	13024.3
2447.76377	13014.2
2450.53501	12993.5
2453.30451	13005
2456.07226	12978.7
2458.83827	12984.8
2461.60254	13004.3
2464.36507	12990.2
2467.12586	13029.7
2469.88492	13018.1
2472.64224	13012.8
2475.39782	13036.3
2478.15167	13060.8
2480.90379	13072.1
2483.65417	13092.3
2486.40283	13110.3
2489.14976	13107.8
2491.89497	13089.5
2494.63845	13120.2
2497.3802	13117.7
2500.12024	13117.5
2502.85855	13070.7
2505.59514	13048.8
2508.33002	13080.8
2511.06318	13065
2513.79462	13032.2
2516.52435	13028.4
2519.25237	13065.4
2521.97867	13042.7
2524.70327	13053.2
2527.42616	13039.5
2530.14734	13037.1
2532.86681	13011.9
2535.58458	13041.8
2538.30065	13033.5
2541.01501	13024.3
2543.72768	13006.3
2546.43864	13000
2549.14791	13020.4
2551.85548	13023
2554.56136	13034.6
2557.26554	12987.2
2559.96803	12981.3
2562.66883	12970.3
2565.36794	12953.6
2568.06536	12956.3
2570.7611	12914.1
2573.45514	12901.1
2576.14751	12927.4
2578.83819	12911.7
2581.52719	12903.5
2584.21451	12901.8
2586.90015	12943.1
2589.58411	12907.8
2592.2664	12937.8
2594.94701	12894
2597.62594	12909.5
2600.30321	12904.9
2602.9788	12892.4
2605.65273	12921.7
2608.32498	12902.7
2610.99557	12916.3
2613.66449	12949.1
2616.33175	12953
2618.99734	12969.6
2621.66128	12931.4
2624.32355	12920.1
2626.98416	12947.5
2629.64311	12922.1
2632.30041	12965.7
2634.95605	12935.3
2637.61004	12921
2640.26238	12887.6
2642.91306	12910.8
2645.56209	12914.1
2648.20948	12921.4
2650.85521	12905.9
2653.4993	12890.4
2656.14175	12901.7
2658.78255	12924.9
2661.42171	12945.6
2664.05923	12963.8
2666.6951	12968.1
2669.32934	12961.2
2671.96194	12955.5
2674.59291	12987.7
2677.22224	12954.7
2679.84993	12983.5
2682.476	12954.5
2685.10043	12938.4
2687.72324	12902.2
2690.34441	12936.4
2692.96396	12921.6
2695.58188	12910.8
2698.19818	12870.8
2700.81285	12899.7
2703.4259	12909.9
2706.03733	12944.3
2708.64714	12937.5
2711.25533	12956.2
2713.86191	12945.4
2716.46687	12952
2719.07021	12957.2
2721.67194	12999.6
2724.27206	12965.1
2726.87057	12989.6
2729.46747	12974.2
2732.06276	12995.5
2734.65644	12995.1
2737.24852	13013.9
2739.83899	12967
2742.42786	13006.6
2745.01513	12950
2747.60079	12951.5
2750.18486	12960.4
2752.76733	12934.9
2755.3482	12946.7
2757.92747	12947.4
2760.50515	12927.9
2763.08123	12945.6
2765.65573	12928.7
2768.22863	12950.8
2770.79994	12945.9
2773.36967	12945.2
2775.9378	12979.9
2778.50435	12971
2781.06932	12954.9
2783.6327	12984
2786.1945	12990.8
2788.75471	12948.9
2791.31335	12926
2793.87041	12920.9
2796.42589	12920
2798.97979	12907.4
2801.53212	12886.4
2804.08288	12886.3
2806.63206	12849.4
2809.17967	12828.1
2811.72571	12803.7
2814.27018	12770.3
2816.81308	12750.5
2819.35442	12746.4
2821.89419	12712.3
2824.43239	12708.8
2826.96904	12686.9
2829.50412	12699.3
2832.03763	12648.6
2834.56959	12673.2
2837.1	12635.6
2839.62884	12639
2842.15613	12646.4
2844.68186	12663.4
2847.20604	12648.4
2849.72867	12663
2852.24974	12659.6
2854.76927	12653.4
2857.28724	12636.1
2859.80367	12585.3
2862.31855	12583.7
2864.83189	12579.3
2867.34368	12559.3
2869.85393	12589.2
2872.36264	12575
2874.8698	12558.6
2877.37543	12543
2879.87952	12555.1
2882.38207	12545.9
2884.88308	12560.4
2887.38256	12576.8
2889.88051	12605.3
2892.37692	12574.2
2894.8718	12585.6
2897.36515	12626
2899.85698	12619.3
2902.34727	12638.6
2904.83604	12699.9
2907.32328	12733.2
2909.809	12708.1
2912.29319	12727.5
2914.77587	12700.1
2917.25702	12701.6
2919.73665	12676.5
2922.21476	12717.3
2924.69136	12666.3
2927.16644	12698.1
2929.64	12636.1
2932.11205	12637.3
2934.58258	12602.5
2937.05161	12596.2
2939.51912	12605.7
2941.98513	12589.3
2944.44962	12560.7
2946.91261	12511.4
2949.37409	12565
2951.83407	12540.3
2954.29254	12504.1
2956.74951	12470.4
2959.20498	12513.3
2961.65895	12488.6
2964.11142	12503.1
2966.56239	12479.2
2969.01186	12470.5
2971.45984	12429.4
2973.90632	12415.9
2976.35131	12387.4
2978.7948	12330.2
2981.23681	12293.6
2983.67732	12301.4
2986.11635	12241.6
2988.55388	12207.2
2990.98993	12181.5
2993.4245	12186.6
2995.85758	12151.8
2998.28917	12088.3
3000.71928	12087.9
3003.14791	12086.1
3005.57506	12078.2
3008.00073	12035.4
3010.42493	11882.7
3012.84764	11963.3
3015.26888	11937.8
3017.68865	11923.9
3020.10694	11897.5
3022.52376	11889
3024.9391	11864.8
3027.35298	11858.3
3029.76539	11875.6
3032.17632	11868.7
3034.5858	11864.2
3036.9938	11872.6
3039.40034	11854.7
3041.80542	11848
3044.20903	11825.2
3046.61118	11843.7
3049.01187	11785.1
3051.4111	11805.2
3053.80888	11747.3
3056.20519	11734.8
3058.60005	11745.7
3060.99345	11692.3
3063.3854	11679.4
3065.7759	11626.9
3068.16494	11610.7
3070.55254	11591.2
3072.93868	11567
3075.32338	11504.3
3077.70662	11491.8
3080.08842	11474.3
3082.46878	11455.5
3084.84769	11440.1
3087.22515	11429.1
3089.60118	11451.7
3091.97576	11425.2
3094.3489	11417.2
3096.72061	11412.8
3099.09087	11418.9
3101.4597	11373.7
3103.82709	11408.6
3106.19305	11412
3108.55757	11357.3
3110.92066	11365.5
3113.28232	11332.9
3115.64255	11301
3118.00134	11255.4
3120.35871	11285.4
3122.71466	11241.3
3125.06917	11237.5
3127.42226	11207.7
3129.77393	11183.2
3132.12417	11168
3134.47299	11151.4
3136.82039	11133.3
3139.16636	11154.5
3141.51092	11137.8
3143.85406	11159.3
3146.19579	11137.1
3148.53609	11129.6
3150.87499	11144.1
3153.21246	11135.1
3155.54853	11164.8
3157.88318	11136.4
3160.21642	11191
3162.54826	11156.3
3164.87868	11163.7
3167.2077	11173
3169.5353	11196
3171.86151	11187.4
3174.18631	11195.4
3176.5097	11169
3178.83169	11121.6
3181.15228	11141.3
3183.47147	11130.6
3185.78926	11109
3188.10565	11099.2
3190.42065	11081.8
3192.73424	11107.1
3195.04645	11089.6
3197.35725	11087.3
3199.66667	11082.7
3201.97469	11099.1
3204.28132	11097.4
3206.58656	11126.8
3208.8904	11090.6
3211.19287	11103.9
3213.49394	11089.7
3215.79363	11112.5
3218.09193	11131.1
3220.38884	11104.2
3222.68438	11114.3
3224.97853	11116
3227.2713	11136.3
3229.56269	11110.6
3231.8527	11120.7
3234.14133	11090.7
3236.42858	11075.2
3238.71446	11040.3
3240.99896	10991.9
3243.28209	11036.8
3245.56384	11010.7
3247.84423	11018.5
3250.12324	10987.9
3252.40088	10953.7
3254.67715	10944.5
3256.95205	10938.6
3259.22558	10909.2
3261.49775	10902
3263.76855	10893
3266.03799	10898.3
3268.30606	10896.7
3270.57277	10864.1
3272.83812	10835.9
3275.10211	10811.5
3277.36474	10796.9
3279.62601	10832.1
3281.88593	10767
3284.14448	10816.9
3286.40168	10796.5
3288.65753	10801.6
3290.91202	10759.6
3293.16516	10744.2
3295.41695	10755.1
3297.66738	10703
3299.91647	10643.3
3302.16421	10558.9
3304.4106	10533.9
3306.65564	10434.1
3308.89933	10344.7
3311.14169	10278.6
3313.38269	10221.6
3315.62236	10145
3317.86068	10087.5
3320.09766	9994.7
3322.3333	9917
3324.5676	9864.9
3326.80056	9749.6
3329.03219	9675.8
3331.26248	4.5
3333.49143	-1.5
3335.71905	0.7
