Data from AgNP_FTO_APTES_UA_10uM_CRN_50uM_R6G_10uM_NaF_0.1M_Addition_RamanShift__14__16-58-50-799.txt Node

Date: Thu Feb 10 16:58:50 GMT 2022
User: TCL
Spectrometer: QEP01345
Trigger mode: 4
Integration Time (sec): 7.000000E0
Scans to average: 10
Electric dark correction enabled: true
Nonlinearity correction enabled: false
Boxcar width: 0
XAxis mode: Raman Shifts
Number of Pixels in Spectrum: 1044
>>>>>Begin Spectral Data<<<<<
46.04893	0.9
50.45542	-0.7
54.85868	-1.2
59.25871	-1.2
63.6555	56.3
68.04907	57.3
72.43941	62.5
76.82654	58.9
81.21044	69.7
85.59113	63.1
89.96862	72.1
94.34289	70.5
98.71396	74.5
103.08183	74.6
107.4465	80.4
111.80798	77
116.16626	80.1
120.52136	83.8
124.87327	87.2
129.222	88.9
133.56755	98.8
137.90993	99.9
142.24913	108.5
146.58517	117.8
150.91804	137.5
155.24774	160.1
159.57429	199.8
163.89768	251.6
168.21792	330.4
172.53501	443.7
176.84895	619.3
181.15975	866.3
185.46741	1210.3
189.77193	1688.7
194.07331	2257.1
198.37157	2929.3
202.6667	3619
206.9587	4297
211.24758	4980.2
215.53334	5628.4
219.81599	6311.7
224.09553	7062.6
228.37195	7917.9
232.64527	8817.1
236.91549	9803.7
241.18261	10821.8
245.44663	11841.7
249.70755	12752.7
253.96539	13519.4
258.22014	14203.8
262.4718	14790.4
266.72039	15178.5
270.96589	15393.5
275.20832	15453.3
279.44768	15429.5
283.68397	15337.6
287.91719	15232.7
292.14735	15122.6
296.37445	15079.3
300.59849	15036.4
304.81948	15000.1
309.03742	14929.9
313.25231	14728.7
317.46415	14526
321.67296	14263.1
325.87872	14106
330.08145	14044.4
334.28114	14116
338.47781	14227.6
342.67145	14371.3
346.86207	14517.9
351.04966	14691.8
355.23424	14837.3
359.4158	15016
363.59435	15147
367.76989	15268.2
371.94243	15362.2
376.11196	15437.5
380.27849	15503.7
384.44203	15611.2
388.60257	15724.3
392.76012	15870.8
396.91468	16054.6
401.06626	16265
405.21485	16401.8
409.36047	16410.7
413.50311	16305.3
417.64277	16210.4
421.77947	16189.2
425.9132	16253.4
430.04396	16387.9
434.17176	16469.4
438.2966	16542.7
442.41849	16664.6
446.53742	16862.9
450.6534	17076.9
454.76644	17266.9
458.87653	17335.4
462.98368	17378
467.08789	17387.8
471.18916	17362.6
475.2875	17315.4
479.38291	17245.3
483.4754	17190.1
487.56496	17081.9
491.6516	16982.8
495.73531	16879.5
499.81612	16846
503.89401	16904.8
507.96899	16929
512.04106	16970.5
516.11023	16989.7
520.1765	16926.6
524.23987	16865.6
528.30034	16790.5
532.35792	16701.3
536.41261	16631
540.46441	16589.5
544.51333	16653.4
548.55936	16765
552.60252	16999.6
556.64279	17205.1
560.6802	17309.2
564.71473	17345.7
568.7464	17464.6
572.7752	17632.3
576.80114	17904.1
580.82422	18153
584.84444	18335.2
588.86181	18340.6
592.87633	18255.3
596.888	18209.5
600.89682	18248.9
604.9028	18570.4
608.90594	19290.8
612.90624	20068
616.90371	19349.2
620.89834	17784.9
624.89015	17085.9
628.87913	16993.2
632.86528	17098.9
636.84862	17245.5
640.82913	17133.6
644.80683	16988.3
648.78172	16806.4
652.75379	16769.6
656.72306	16861.7
660.68952	16992.7
664.65319	17028.6
668.61405	16905.3
672.57211	16937
676.52738	16977.9
680.47986	16942.5
684.42955	16916.2
688.37646	16933.2
692.32058	16960.3
696.26192	17030.9
700.20048	17156.9
704.13626	17280
708.06928	17306.9
711.99952	17247.3
715.927	17222
719.85171	17209.1
723.77365	17157
727.69284	17044.6
731.60928	16983.5
735.52295	16873.7
739.43388	16854.5
743.34206	16905.7
747.24749	16929.9
751.15017	16999
755.05012	17104.7
758.94733	17404
762.8418	17804.2
766.73354	18525.3
770.62254	19134.1
774.50882	19290.4
778.39237	18877
782.27321	18128.6
786.15132	17551.9
790.02671	17182.5
793.89938	16971
797.76935	16867.3
801.6366	16801.6
805.50115	16744.7
809.36299	16685.1
813.22213	16650.6
817.07857	16670.1
820.93231	16672.1
824.78336	16637.8
828.63172	16684
832.47738	16682.7
836.32036	16636.6
840.16066	16638.2
843.99827	16614.9
847.8332	16638.3
851.66546	16639.8
855.49504	16666.9
859.32195	16659.5
863.1462	16664.6
866.96777	16671.4
870.78668	16674.6
874.60293	16714.1
878.41652	16700.9
882.22745	16718.2
886.03573	16745
889.84136	16737.3
893.64433	16705.5
897.44466	16714
901.24235	16690.1
905.0374	16662.5
908.8298	16666.7
912.61957	16687.2
916.40671	16738.6
920.19121	16880.3
923.97308	16878.7
927.75233	16814.8
931.52895	16774.5
935.30295	16645.2
939.07433	16527.1
942.84309	16407.2
946.60924	16318.7
950.37278	16314.5
954.13371	16285.3
957.89203	16242.9
961.64774	16227.8
965.40086	16190.7
969.15137	16182
972.89929	16192.4
976.64461	16143
980.38733	16119.1
984.12747	16125.4
987.86502	16161.9
991.59999	16201.9
995.33237	16253
999.06217	16341.1
1002.78939	16404.5
1006.51404	16497.7
1010.23611	16652.8
1013.95561	16781.4
1017.67255	16766.5
1021.38692	16712.3
1025.09872	16620
1028.80796	16584.9
1032.51465	16528.6
1036.21877	16555
1039.92035	16589
1043.61937	16624.6
1047.31584	16662.8
1051.00976	16747.5
1054.70114	16857.9
1058.38998	16911.5
1062.07627	17048.6
1065.76003	17171.7
1069.44126	17298.5
1073.11995	17425.9
1076.79611	17552.3
1080.46974	17580.2
1084.14085	17583.9
1087.80943	17627.4
1091.47549	17697.6
1095.13903	17747.9
1098.80005	17704
1102.45857	17540.9
1106.11456	17333.3
1109.76805	17205.9
1113.41903	17104.1
1117.06751	17135.2
1120.71348	17214.6
1124.35696	17310.2
1127.99793	17416.3
1131.63641	17497.7
1135.2724	17460.6
1138.90589	17370.1
1142.5369	17390.3
1146.16542	17383.1
1149.79145	17392.6
1153.415	17395.1
1157.03607	17505.8
1160.65467	17702.1
1164.27079	17992.9
1167.88443	18363.7
1171.49561	18855.9
1175.10432	19381.1
1178.71056	20113.6
1182.31434	20816.1
1185.91565	21341.9
1189.51451	21594.7
1193.11091	21609.3
1196.70485	21280.2
1200.29634	20812.6
1203.88538	20307.9
1207.47197	19922.6
1211.05612	19509
1214.63782	19200.8
1218.21708	18948.5
1221.79391	18772.5
1225.36829	18522
1228.94024	18461.5
1232.50976	18426.7
1236.07685	18441.9
1239.6415	18499
1243.20374	18542.8
1246.76355	18614.4
1250.32093	18711.1
1253.8759	18907.7
1257.42845	19187.5
1260.97859	19427.7
1264.52631	19673.2
1268.07163	19939.8
1271.61453	20122
1275.15503	20257.8
1278.69312	20446.2
1282.22882	20616.3
1285.76211	20779.6
1289.29301	21016.2
1292.82151	21318.4
1296.34761	21679.5
1299.87133	22087.6
1303.39266	22556
1306.9116	23023
1310.42815	23525.6
1313.94233	23776.8
1317.45412	23813.7
1320.96354	23820.1
1324.47058	23822.6
1327.97525	23850.6
1331.47754	23903.6
1334.97747	24100.4
1338.47502	24512.7
1341.97022	24967
1345.46305	25347.3
1348.95352	25555.1
1352.44163	25555.4
1355.92738	25348.7
1359.41078	25248.3
1362.89183	25184
1366.37053	24605.1
1369.84688	23451
1373.32088	22194.2
1376.79254	21233.4
1380.26186	20748.9
1383.72883	20521.2
1387.19347	20338
1390.65578	20190.7
1394.11575	19977.7
1397.57339	19829.3
1401.0287	19751.8
1404.48168	19723.7
1407.93234	19679.7
1411.38068	19588
1414.82669	19334
1418.27039	19020
1421.71177	18708
1425.15083	18405.4
1428.58758	18218.3
1432.02203	18163.9
1435.45416	18275.6
1438.88399	18404.9
1442.31151	18513.6
1445.73673	18676.2
1449.15965	18766
1452.58027	18900.3
1455.9986	19030.7
1459.41463	19219.1
1462.82837	19467.5
1466.23982	19702.7
1469.64898	19986.3
1473.05586	20172.3
1476.46045	20279.6
1479.86276	20316.7
1483.26279	20343.9
1486.66054	20401.8
1490.05602	20494.1
1493.44922	20714.2
1496.84016	21050.5
1500.22882	21575.3
1503.61521	22268.1
1506.99934	22969.8
1510.38121	23398.8
1513.76081	23429.1
1517.13816	23049
1520.51324	22486.9
1523.88607	22037
1527.25665	21714.1
1530.62498	21486.3
1533.99105	21321.5
1537.35488	21071.8
1540.71647	20826.5
1544.07581	20515.2
1547.4329	20249.1
1550.78776	20028.4
1554.14038	19870.6
1557.49077	19851.8
1560.83892	19849.5
1564.18484	19950.6
1567.52853	19994.3
1570.86999	20019.3
1574.20922	20120.1
1577.54624	20099.9
1580.88103	20024.6
1584.2136	19818
1587.54395	19724.9
1590.87208	19890.5
1594.19801	20230.9
1597.52172	20658
1600.84321	20772.5
1604.16251	20514.9
1607.47959	20037.1
1610.79447	19540.1
1614.10715	18860.1
1617.41763	18192.6
1620.7259	17658
1624.03199	17290.1
1627.33587	17147.8
1630.63757	17186.3
1633.93707	17450.4
1637.23439	18007.7
1640.52951	18852.2
1643.82246	19921.1
1647.11321	20940.7
1650.40179	21473.9
1653.68819	21197.9
1656.97241	20123.2
1660.25446	18810.3
1663.53433	17607.2
1666.81203	16718.4
1670.08756	16101.9
1673.36092	15696
1676.63211	15406.7
1679.90115	15195.9
1683.16801	15049.3
1686.43272	14947.1
1689.69527	14884.3
1692.95567	14795.2
1696.2139	14803.3
1699.46999	14745.8
1702.72392	14721.3
1705.97571	14711.7
1709.22535	14646.6
1712.47284	14577.9
1715.71819	14574
1718.96139	14549
1722.20246	14521.6
1725.44139	14492.9
1728.67818	14416.2
1731.91284	14360.5
1735.14537	14316.9
1738.37576	14270
1741.60403	14236.3
1744.83017	14192.1
1748.05418	14190.1
1751.27607	14173.3
1754.49584	14195
1757.71349	14157.5
1760.92903	14158.1
1764.14244	14139
1767.35375	14124.3
1770.56294	14143.1
1773.77002	14083
1776.97499	14048.6
1780.17785	13997.9
1783.37861	14006.8
1786.57727	13922.5
1789.77382	13911.9
1792.96828	13906.1
1796.16064	13843.6
1799.3509	13836.4
1802.53907	13835.5
1805.72514	13801.1
1808.90913	13749.1
1812.09102	13741.5
1815.27083	13700.1
1818.44856	13721
1821.6242	13676.2
1824.79776	13635.4
1827.96924	13648
1831.13864	13646
1834.30597	13634.5
1837.47122	13608.7
1840.6344	13605.8
1843.7955	13593.5
1846.95454	13574.6
1850.11151	13589.8
1853.26642	13560.1
1856.41926	13548.9
1859.57004	13543.5
1862.71876	13528.6
1865.86542	13515.3
1869.01003	13471.6
1872.15258	13478.8
1875.29308	13456.3
1878.43152	13452.4
1881.56792	13432.2
1884.70227	13383.8
1887.83457	13348.5
1890.96482	13320
1894.09304	13288.1
1897.21921	13279.7
1900.34335	13260.9
1903.46544	13244.7
1906.58551	13251.3
1909.70353	13184.3
1912.81953	13197.2
1915.93349	13181.8
1919.04543	13113.7
1922.15534	13105.2
1925.26322	13099.6
1928.36908	13082.7
1931.47292	13068.6
1934.57473	13023.9
1937.67453	13000.6
1940.77232	12972.3
1943.86808	12914.3
1946.96184	12881.8
1950.05358	12861
1953.14331	12835.8
1956.23103	12786.1
1959.31675	12749
1962.40046	12730.2
1965.48217	12662.4
1968.56188	12599.9
1971.63959	12576
1974.7153	12536.3
1977.78901	12499.5
1980.86073	12471.7
1983.93046	12432
1986.99819	12383.9
1990.06394	12353.3
1993.1277	12333.2
1996.18947	12272.6
1999.24925	12264.1
2002.30706	12229.7
2005.36288	12165.1
2008.41672	12126.7
2011.46859	12083.1
2014.51848	12098.5
2017.56639	12069.8
2020.61233	12012.4
2023.6563	11988.3
2026.6983	11950.3
2029.73833	11878.3
2032.7764	11853.2
2035.8125	11855.3
2038.84664	11814.7
2041.87881	11765
2044.90903	11749.4
2047.93729	11717.1
2050.96359	11728.7
2053.98794	11684.8
2057.01034	11668.4
2060.03078	11658.3
2063.04927	11664.2
2066.06582	11639
2069.08042	11669.2
2072.09307	11626.7
2075.10378	11624.2
2078.11255	11609
2081.11938	11596.7
2084.12426	11607
2087.12722	11591.9
2090.12824	11580.8
2093.12732	11584.7
2096.12447	11586.2
2099.11969	11541.5
2102.11299	11562.6
2105.10435	11563.7
2108.09379	11595.6
2111.08131	11584.6
2114.0669	11566.1
2117.05057	11598.1
2120.03233	11587.5
2123.01216	11590.5
2125.99008	11589.9
2128.96609	11628.6
2131.94018	11637.8
2134.91236	11640.1
2137.88263	11636.9
2140.851	11650.6
2143.81746	11648.3
2146.78201	11661.1
2149.74466	11659.3
2152.7054	11625.3
2155.66425	11635.9
2158.6212	11649.1
2161.57625	11658.5
2164.52941	11629.1
2167.48067	11619.4
2170.43004	11612.9
2173.37752	11597.6
2176.32311	11629
2179.26681	11592.5
2182.20863	11560.7
2185.14856	11578.3
2188.08661	11576.4
2191.02278	11567
2193.95707	11575.9
2196.88948	11568.4
2199.82001	11579.5
2202.74867	11565
2205.67545	11524.1
2208.60037	11490.2
2211.52341	11464.6
2214.44458	11483.2
2217.36388	11445.6
2220.28132	11421.6
2223.1969	11384.1
2226.11061	11386
2229.02246	11336.9
2231.93245	11286.3
2234.84058	11315.2
2237.74686	11284.8
2240.65128	11270.6
2243.55385	11249.3
2246.45456	11239.2
2249.35343	11219.5
2252.25044	11216.7
2255.14561	11177.4
2258.03893	11194.2
2260.93041	11129.4
2263.82004	11099.8
2266.70783	11069.4
2269.59378	11035.7
2272.4779	11008.4
2275.36017	10963.4
2278.24061	10968.9
2281.11922	10949.7
2283.996	10922.3
2286.87094	10916.1
2289.74405	10897.8
2292.61534	10873.9
2295.4848	10841.2
2298.35243	10854.6
2301.21824	10819.6
2304.08223	10814.3
2306.94439	10805.9
2309.80474	10824.5
2312.66327	10787.7
2315.51999	10787.9
2318.37489	10785.6
2321.22797	10755.7
2324.07925	10724.7
2326.92871	10716.4
2329.77637	10711
2332.62222	10693.5
2335.46626	10679.3
2338.3085	10643.6
2341.14893	10634.5
2343.98756	10631.4
2346.8244	10622
2349.65943	10575.8
2352.49267	10573.5
2355.32411	10589.7
2358.15376	10580.8
2360.98161	10561.9
2363.80768	10574.4
2366.63195	10540.1
2369.45444	10535.6
2372.27514	10507.5
2375.09405	10496.4
2377.91118	10484.6
2380.72652	10483.1
2383.54009	10448.3
2386.35187	10405.3
2389.16188	10387.4
2391.97011	10361.1
2394.77657	10331.4
2397.58125	10316.9
2400.38416	10305.1
2403.18529	10288.9
2405.98466	10279
2408.78226	10258
2411.57809	10253
2414.37216	10252.3
2417.16446	10239.9
2419.955	10218.8
2422.74378	10200.4
2425.5308	10203
2428.31606	10211.5
2431.09956	10187
2433.88131	10164
2436.6613	10155.3
2439.43954	10149.3
2442.21603	10130.5
2444.99077	10110.1
2447.76377	10108.3
2450.53501	10073.2
2453.30451	10089.4
2456.07226	10045.9
2458.83827	10068.3
2461.60254	10052.7
2464.36507	10030.6
2467.12586	10032.8
2469.88492	10011.1
2472.64224	10004.1
2475.39782	10011.6
2478.15167	10005.1
2480.90379	9983.1
2483.65417	9983.3
2486.40283	9972.2
2489.14976	9963.6
2491.89497	9956
2494.63845	9960.6
2497.3802	9933.9
2500.12024	9948.4
2502.85855	9924.9
2505.59514	9909.1
2508.33002	9897
2511.06318	9883.3
2513.79462	9882.6
2516.52435	9862.6
2519.25237	9842
2521.97867	9841.6
2524.70327	9851.2
2527.42616	9811.9
2530.14734	9802.4
2532.86681	9774.6
2535.58458	9806.5
2538.30065	9769.5
2541.01501	9747.8
2543.72768	9763.2
2546.43864	9725.4
2549.14791	9726
2551.85548	9696.7
2554.56136	9687.4
2557.26554	9652.2
2559.96803	9627.3
2562.66883	9588.4
2565.36794	9581.5
2568.06536	9574.5
2570.7611	9552.3
2573.45514	9547.8
2576.14751	9526.2
2578.83819	9470.2
2581.52719	9458.8
2584.21451	9461
2586.90015	9475.2
2589.58411	9444.5
2592.2664	9396.5
2594.94701	9390.2
2597.62594	9381.2
2600.30321	9363.6
2602.9788	9329
2605.65273	9333.2
2608.32498	9313.3
2610.99557	9283.2
2613.66449	9269.6
2616.33175	9241.5
2618.99734	9259.9
2621.66128	9244.3
2624.32355	9241.1
2626.98416	9212.4
2629.64311	9209.8
2632.30041	9191.1
2634.95605	9180.9
2637.61004	9156.6
2640.26238	9138.4
2642.91306	9140.5
2645.56209	9130.1
2648.20948	9107.7
2650.85521	9124.7
2653.4993	9134.1
2656.14175	9114
2658.78255	9118.3
2661.42171	9106
2664.05923	9129.9
2666.6951	9128.1
2669.32934	9106.1
2671.96194	9102.6
2674.59291	9130.2
2677.22224	9102.3
2679.84993	9099.6
2682.476	9085.5
2685.10043	9093.4
2687.72324	9061.1
2690.34441	9085.2
2692.96396	9084.2
2695.58188	9072
2698.19818	9073.8
2700.81285	9077.3
2703.4259	9102.7
2706.03733	9082.2
2708.64714	9045.9
2711.25533	9070.6
2713.86191	9062.9
2716.46687	9071.4
2719.07021	9070.7
2721.67194	9071.4
2724.27206	9050.9
2726.87057	9054.4
2729.46747	9061.6
2732.06276	9061.3
2734.65644	9038.2
2737.24852	9046
2739.83899	9007.8
2742.42786	9030.6
2745.01513	8987
2747.60079	8966
2750.18486	8959.7
2752.76733	8963
2755.3482	8951.6
2757.92747	8935.3
2760.50515	8933.8
2763.08123	8893.8
2765.65573	8883.6
2768.22863	8883.2
2770.79994	8870.4
2773.36967	8846.3
2775.9378	8863.3
2778.50435	8842.4
2781.06932	8855.6
2783.6327	8844.6
2786.1945	8823
2788.75471	8803.4
2791.31335	8779.4
2793.87041	8754.5
2796.42589	8749.6
2798.97979	8723.4
2801.53212	8704.4
2804.08288	8690
2806.63206	8668.9
2809.17967	8653.5
2811.72571	8614
2814.27018	8627.2
2816.81308	8588.6
2819.35442	8596.9
2821.89419	8563
2824.43239	8547.4
2826.96904	8527.1
2829.50412	8538.2
2832.03763	8507
2834.56959	8504.3
2837.1	8492.6
2839.62884	8488.5
2842.15613	8459.7
2844.68186	8480.5
2847.20604	8479.4
2849.72867	8487
2852.24974	8456.5
2854.76927	8445.1
2857.28724	8466.8
2859.80367	8432.3
2862.31855	8408.5
2864.83189	8372.4
2867.34368	8382.3
2869.85393	8363.5
2872.36264	8342.6
2874.8698	8358.2
2877.37543	8349.9
2879.87952	8333.5
2882.38207	8330.7
2884.88308	8323.5
2887.38256	8305.7
2889.88051	8307.8
2892.37692	8305
2894.8718	8317.6
2897.36515	8317.7
2899.85698	8313.4
2902.34727	8310
2904.83604	8318.7
2907.32328	8324.7
2909.809	8326.6
2912.29319	8315.3
2914.77587	8306.4
2917.25702	8310.1
2919.73665	8301.1
2922.21476	8292
2924.69136	8266
2927.16644	8302.9
2929.64	8255.1
2932.11205	8257.4
2934.58258	8241.2
2937.05161	8237.7
2939.51912	8253
2941.98513	8250.5
2944.44962	8204.7
2946.91261	8190.1
2949.37409	8215.4
2951.83407	8187.9
2954.29254	8195.8
2956.74951	8171.5
2959.20498	8173.3
2961.65895	8154.2
2964.11142	8163.6
2966.56239	8145
2969.01186	8166.7
2971.45984	8145.1
2973.90632	8163
2976.35131	8130.2
2978.7948	8118.1
2981.23681	8095.8
2983.67732	8079
2986.11635	8070.7
2988.55388	8069.8
2990.98993	8046.5
2993.4245	8007.4
2995.85758	8013.4
2998.28917	7982.4
3000.71928	7957.4
3003.14791	7929.9
3005.57506	7945.3
3008.00073	7938.9
3010.42493	7900.5
3012.84764	7884.5
3015.26888	7896
3017.68865	7861.2
3020.10694	7844.9
3022.52376	7849.2
3024.9391	7842.8
3027.35298	7830.3
3029.76539	7829.3
3032.17632	7810.8
3034.5858	7813.6
3036.9938	7809.9
3039.40034	7778.2
3041.80542	7781.9
3044.20903	7745.2
3046.61118	7760.5
3049.01187	7722.4
3051.4111	7738.7
3053.80888	7713.7
3056.20519	7707.1
3058.60005	7686.4
3060.99345	7681.1
3063.3854	7658.9
3065.7759	7630.6
3068.16494	7645.5
3070.55254	7616.1
3072.93868	7610.1
3075.32338	7579.9
3077.70662	7576
3080.08842	7558.3
3082.46878	7544.5
3084.84769	7541.4
3087.22515	7541.4
3089.60118	7523.7
3091.97576	7520.7
3094.3489	7521.9
3096.72061	7509.2
3099.09087	7529.9
3101.4597	7536.6
3103.82709	7511.5
3106.19305	7495.3
3108.55757	7518.8
3110.92066	7487.8
3113.28232	7493.2
3115.64255	7481.6
3118.00134	7463
3120.35871	7462.2
3122.71466	7430.9
3125.06917	7411.6
3127.42226	7391.2
3129.77393	7386.5
3132.12417	7397.3
3134.47299	7393.3
3136.82039	7381.1
3139.16636	7397.6
3141.51092	7397.8
3143.85406	7383.6
3146.19579	7382.6
3148.53609	7393.5
3150.87499	7389.4
3153.21246	7399.5
3155.54853	7414.5
3157.88318	7387.1
3160.21642	7417.3
3162.54826	7400.5
3164.87868	7422
3167.2077	7442.6
3169.5353	7432.5
3171.86151	7425.3
3174.18631	7420.5
3176.5097	7385.7
3178.83169	7398.9
3181.15228	7393.7
3183.47147	7373.5
3185.78926	7376
3188.10565	7354.4
3190.42065	7346.5
3192.73424	7336.3
3195.04645	7311.6
3197.35725	7319.4
3199.66667	7318.9
3201.97469	7328.8
3204.28132	7326
3206.58656	7324.5
3208.8904	7342.5
3211.19287	7324.1
3213.49394	7344.5
3215.79363	7369.5
3218.09193	7370.5
3220.38884	7350.4
3222.68438	7379.6
3224.97853	7339
3227.2713	7322.6
3229.56269	7310.6
3231.8527	7307.2
3234.14133	7285.7
3236.42858	7298.9
3238.71446	7262
3240.99896	7237
3243.28209	7246.2
3245.56384	7219.1
3247.84423	7238.6
3250.12324	7237.9
3252.40088	7230.7
3254.67715	7202.2
3256.95205	7212.5
3259.22558	7205.9
3261.49775	7188.5
3263.76855	7202.1
3266.03799	7178.3
3268.30606	7168
3270.57277	7166.5
3272.83812	7146.6
3275.10211	7132.4
3277.36474	7113.8
3279.62601	7080.2
3281.88593	7069
3284.14448	7078.7
3286.40168	7075.1
3288.65753	7073.7
3290.91202	7066.6
3293.16516	7040.1
3295.41695	7035.6
3297.66738	6990
3299.91647	6968.6
3302.16421	6914.1
3304.4106	6887
3306.65564	6834.8
3308.89933	6801.1
3311.14169	6754.6
3313.38269	6708
3315.62236	6647.8
3317.86068	6603.4
3320.09766	6545.3
3322.3333	6486.7
3324.5676	6461.5
3326.80056	6344.6
3329.03219	6327.2
3331.26248	3.6
3333.49143	0
3335.71905	-1.2
