Data from AgNP_FTO_APTES_UA_10uM_CRN_2uM_R6G_10uM_NaF_0.1M_Addition_RamanShift__12__14-10-50-591.txt Node

Date: Thu Feb 10 14:10:50 GMT 2022
User: TCL
Spectrometer: QEP01345
Trigger mode: 4
Integration Time (sec): 7.000000E0
Scans to average: 10
Electric dark correction enabled: true
Nonlinearity correction enabled: false
Boxcar width: 0
XAxis mode: Raman Shifts
Number of Pixels in Spectrum: 1044
>>>>>Begin Spectral Data<<<<<
46.04893	0.5375
50.45542	-0.3625
54.85868	-2.0625
59.25871	-0.5625
63.6555	68.6375
68.04907	70.3375
72.43941	74.2375
76.82654	77.6375
81.21044	81.3375
85.59113	80.5375
89.96862	86.1375
94.34289	87.1375
98.71396	92.4375
103.08183	95.7375
107.4465	100.4375
111.80798	94.9375
116.16626	101.5375
120.52136	102.0375
124.87327	110.8375
129.222	115.0375
133.56755	123.1375
137.90993	130.0375
142.24913	139.8375
146.58517	157.0375
150.91804	189.1375
155.24774	222.0375
159.57429	279.2375
163.89768	354.4375
168.21792	474.4375
172.53501	647.6375
176.84895	904.7375
181.15975	1271.8375
185.46741	1793.3375
189.77193	2464.9375
194.07331	3315.1375
198.37157	4292.6375
202.6667	5306.0375
206.9587	6336.4375
211.24758	7317.5375
215.53334	8297.7375
219.81599	9343.6375
224.09553	10510.3375
228.37195	11767.4375
232.64527	13192.7375
236.91549	14654.6375
241.18261	16120.0375
245.44663	17501.9375
249.70755	18743.3375
253.96539	19781.1375
258.22014	20670.7375
262.4718	21358.8375
266.72039	21849.8375
270.96589	22131.9375
275.20832	22185.1375
279.44768	22046.1375
283.68397	21888.1375
287.91719	21706.8375
292.14735	21632.2375
296.37445	21625.1375
300.59849	21758.9375
304.81948	21894.2375
309.03742	21957.6375
313.25231	21798.3375
317.46415	21381.4375
321.67296	20796.2375
325.87872	20299.7375
330.08145	20000.8375
334.28114	20026.7375
338.47781	20162.5375
342.67145	20435.6375
346.86207	20763.0375
351.04966	21136.0375
355.23424	21496.2375
359.4158	21805.7375
363.59435	22058.1375
367.76989	22198.6375
371.94243	22268.9375
376.11196	22261.0375
380.27849	22305.7375
384.44203	22331.0375
388.60257	22469.9375
392.76012	22699.5375
396.91468	23002.1375
401.06626	23380.7375
405.21485	23640.2375
409.36047	23474.8375
413.50311	23038.8375
417.64277	22746.5375
421.77947	22712.1375
425.9132	22765.0375
430.04396	22856.4375
434.17176	22926.7375
438.2966	23018.4375
442.41849	23264.3375
446.53742	23676.4375
450.6534	24132.9375
454.76644	24494.5375
458.87653	24626.6375
462.98368	24659.2375
467.08789	24541.3375
471.18916	24372.2375
475.2875	24142.5375
479.38291	23967.1375
483.4754	23833.8375
487.56496	23631.9375
491.6516	23391.2375
495.73531	23062.3375
499.81612	22871.1375
503.89401	22957.6375
507.96899	23056.0375
512.04106	23157.7375
516.11023	23134.8375
520.1765	23016.0375
524.23987	22835.1375
528.30034	22628.7375
532.35792	22394.9375
536.41261	22176.8375
540.46441	21946.7375
544.51333	21938.2375
548.55936	22231.5375
552.60252	22590.6375
556.64279	23057.7375
560.6802	23381.0375
564.71473	23630.3375
568.7464	24065.5375
572.7752	24753.8375
576.80114	25546.0375
580.82422	26234.1375
584.84444	26698.6375
588.86181	27139.8375
592.87633	27460.0375
596.888	27323.1375
600.89682	26753.8375
604.9028	26868.8375
608.90594	28708.3375
612.90624	30895.9375
616.90371	29115.0375
620.89834	24803.3375
624.89015	22869.3375
628.87913	22634.7375
632.86528	22880.2375
636.84862	23025.6375
640.82913	22702.6375
644.80683	22139.4375
648.78172	21703.4375
652.75379	21626.8375
656.72306	21868.1375
660.68952	22253.4375
664.65319	22149.0375
668.61405	21815.6375
672.57211	21687.3375
676.52738	21739.3375
680.47986	21719.4375
684.42955	21547.7375
688.37646	21478.2375
692.32058	21580.9375
696.26192	21823.0375
700.20048	22065.0375
704.13626	22191.8375
708.06928	22311.7375
711.99952	22261.1375
715.927	22166.4375
719.85171	22116.6375
723.77365	21964.9375
727.69284	21725.8375
731.60928	21489.0375
735.52295	21340.7375
739.43388	21321.1375
743.34206	21343.5375
747.24749	21465.8375
751.15017	21664.4375
755.05012	22039.5375
758.94733	22666.6375
762.8418	23802.9375
766.73354	25572.0375
770.62254	27146.5375
774.50882	27400.1375
778.39237	26282.3375
782.27321	24624.0375
786.15132	23196.1375
790.02671	22225.7375
793.89938	21678.1375
797.76935	21444.6375
801.6366	21341.7375
805.50115	21244.5375
809.36299	21073.5375
813.22213	20988.4375
817.07857	20916.3375
820.93231	20916.4375
824.78336	20841.0375
828.63172	20783.9375
832.47738	20710.8375
836.32036	20710.4375
840.16066	20668.7375
843.99827	20643.1375
847.8332	20629.0375
851.66546	20657.4375
855.49504	20725.3375
859.32195	20732.0375
863.1462	20679.7375
866.96777	20659.6375
870.78668	20633.6375
874.60293	20657.0375
878.41652	20694.4375
882.22745	20735.3375
886.03573	20763.7375
889.84136	20788.5375
893.64433	20731.4375
897.44466	20736.1375
901.24235	20664.9375
905.0374	20630.7375
908.8298	20581.7375
912.61957	20608.4375
916.40671	20774.4375
920.19121	20971.7375
923.97308	21166.6375
927.75233	21163.2375
931.52895	21010.5375
935.30295	20734.7375
939.07433	20397.2375
942.84309	20092.4375
946.60924	19933.3375
950.37278	19844.7375
954.13371	19836.2375
957.89203	19776.7375
961.64774	19760.8375
965.40086	19770.3375
969.15137	19737.6375
972.89929	19687.1375
976.64461	19615.5375
980.38733	19555.6375
984.12747	19544.0375
987.86502	19633.3375
991.59999	19680.0375
995.33237	19819.3375
999.06217	20033.9375
1002.78939	20299.8375
1006.51404	20619.4375
1010.23611	20953.8375
1013.95561	21210.0375
1017.67255	21185.2375
1021.38692	21050.4375
1025.09872	20745.0375
1028.80796	20558.2375
1032.51465	20488.4375
1036.21877	20425.7375
1039.92035	20516.4375
1043.61937	20580.9375
1047.31584	20683.2375
1051.00976	20741.3375
1054.70114	20861.5375
1058.38998	21006.1375
1062.07627	21208.4375
1065.76003	21466.8375
1069.44126	21764.3375
1073.11995	22096.8375
1076.79611	22395.3375
1080.46974	22607.5375
1084.14085	22704.0375
1087.80943	22938.6375
1091.47549	23137.0375
1095.13903	23157.9375
1098.80005	22895.8375
1102.45857	22420.5375
1106.11456	22001.7375
1109.76805	21745.4375
1113.41903	21656.3375
1117.06751	21782.4375
1120.71348	22033.6375
1124.35696	22306.3375
1127.99793	22692.3375
1131.63641	22801.4375
1135.2724	22657.7375
1138.90589	22495.1375
1142.5369	22454.3375
1146.16542	22448.5375
1149.79145	22536.5375
1153.415	22694.0375
1157.03607	22958.1375
1160.65467	23414.6375
1164.27079	24230.1375
1167.88443	25273.7375
1171.49561	26567.5375
1175.10432	28221.3375
1178.71056	30254.1375
1182.31434	32159.0375
1185.91565	33200.5375
1189.51451	33402.7375
1193.11091	32981.2375
1196.70485	31902.1375
1200.29634	30664.9375
1203.88538	29608.3375
1207.47197	28822.1375
1211.05612	28324.8375
1214.63782	27770.0375
1218.21708	27050.6375
1221.79391	26416.4375
1225.36829	25852.8375
1228.94024	25569.0375
1232.50976	25406.3375
1236.07685	25274.8375
1239.6415	25143.6375
1243.20374	25126.3375
1246.76355	25226.1375
1250.32093	25456.3375
1253.8759	25841.4375
1257.42845	26450.4375
1260.97859	27193.5375
1264.52631	27940.4375
1268.07163	28714.9375
1271.61453	29336.3375
1275.15503	29990.1375
1278.69312	30645.7375
1282.22882	31265.9375
1285.76211	32084.6375
1289.29301	33058.2375
1292.82151	34248.3375
1296.34761	35619.8375
1299.87133	37179.0375
1303.39266	38986.3375
1306.9116	40689.9375
1310.42815	42237.9375
1313.94233	42984.1375
1317.45412	42737.4375
1320.96354	42071.0375
1324.47058	41623.5375
1327.97525	41272.0375
1331.47754	41107.2375
1334.97747	41050.7375
1338.47502	41168.0375
1341.97022	41479.1375
1345.46305	41802.1375
1348.95352	42060.6375
1352.44163	42093.6375
1355.92738	42122.7375
1359.41078	42780.9375
1362.89183	43694.7375
1366.37053	42690.6375
1369.84688	39556.3375
1373.32088	35798.0375
1376.79254	33237.8375
1380.26186	32063.8375
1383.72883	31708.5375
1387.19347	31562.9375
1390.65578	31276.4375
1394.11575	31055.4375
1397.57339	31006.6375
1401.0287	31091.4375
1404.48168	31087.1375
1407.93234	30792.3375
1411.38068	30272.9375
1414.82669	29525.3375
1418.27039	28575.7375
1421.71177	27719.0375
1425.15083	27020.3375
1428.58758	26708.6375
1432.02203	26918.0375
1435.45416	27451.6375
1438.88399	27963.4375
1442.31151	28386.3375
1445.73673	28706.2375
1449.15965	29073.4375
1452.58027	29365.3375
1455.9986	29537.2375
1459.41463	29831.1375
1462.82837	30216.8375
1466.23982	30638.5375
1469.64898	31009.6375
1473.05586	31181.0375
1476.46045	31247.1375
1479.86276	31148.3375
1483.26279	31065.0375
1486.66054	31196.7375
1490.05602	31554.9375
1493.44922	32161.7375
1496.84016	33161.5375
1500.22882	34662.1375
1503.61521	36460.7375
1506.99934	38282.0375
1510.38121	39527.1375
1513.76081	39560.5375
1517.13816	38294.7375
1520.51324	36610.3375
1523.88607	35117.5375
1527.25665	34313.1375
1530.62498	33906.8375
1533.99105	33549.0375
1537.35488	32981.8375
1540.71647	32205.5375
1544.07581	31265.2375
1547.4329	30483.7375
1550.78776	29873.2375
1554.14038	29503.9375
1557.49077	29325.0375
1560.83892	29321.8375
1564.18484	29426.2375
1567.52853	29636.5375
1570.86999	29906.4375
1574.20922	30353.3375
1577.54624	30703.4375
1580.88103	30553.8375
1584.2136	30223.4375
1587.54395	30419.3375
1590.87208	31104.5375
1594.19801	32243.0375
1597.52172	33548.7375
1600.84321	33763.1375
1604.16251	32705.3375
1607.47959	30995.2375
1610.79447	29145.3375
1614.10715	27184.5375
1617.41763	25401.5375
1620.7259	24089.1375
1624.03199	23335.5375
1627.33587	23225.1375
1630.63757	23701.9375
1633.93707	24965.8375
1637.23439	27132.2375
1640.52951	30314.3375
1643.82246	34116.0375
1647.11321	37341.2375
1650.40179	38447.4375
1653.68819	36307.5375
1656.97241	32137.5375
1660.25446	27728.4375
1663.53433	24367.4375
1666.81203	22117.8375
1670.08756	20691.7375
1673.36092	19864.9375
1676.63211	19271.8375
1679.90115	18932.2375
1683.16801	18583.0375
1686.43272	18404.9375
1689.69527	18220.2375
1692.95567	18037.3375
1696.2139	17969.8375
1699.46999	17908.3375
1702.72392	17859.5375
1705.97571	17773.3375
1709.22535	17771.7375
1712.47284	17692.2375
1715.71819	17646.9375
1718.96139	17619.1375
1722.20246	17540.9375
1725.44139	17458.5375
1728.67818	17357.1375
1731.91284	17245.3375
1735.14537	17152.6375
1738.37576	17086.8375
1741.60403	17019.0375
1744.83017	16944.8375
1748.05418	16908.1375
1751.27607	16825.4375
1754.49584	16829.2375
1757.71349	16815.5375
1760.92903	16787.9375
1764.14244	16795.8375
1767.35375	16753.0375
1770.56294	16736.7375
1773.77002	16695.0375
1776.97499	16677.7375
1780.17785	16612.6375
1783.37861	16571.8375
1786.57727	16529.8375
1789.77382	16475.1375
1792.96828	16458.3375
1796.16064	16407.2375
1799.3509	16379.3375
1802.53907	16347.3375
1805.72514	16283.8375
1808.90913	16239.9375
1812.09102	16238.5375
1815.27083	16213.7375
1818.44856	16160.7375
1821.6242	16123.0375
1824.79776	16102.4375
1827.96924	16082.3375
1831.13864	16093.0375
1834.30597	16059.6375
1837.47122	16034.9375
1840.6344	16023.2375
1843.7955	16040.8375
1846.95454	16033.4375
1850.11151	15998.6375
1853.26642	15998.3375
1856.41926	16020.5375
1859.57004	16001.5375
1862.71876	15952.0375
1865.86542	15895.7375
1869.01003	15904.8375
1872.15258	15848.4375
1875.29308	15839.6375
1878.43152	15789.0375
1881.56792	15778.6375
1884.70227	15786.0375
1887.83457	15728.6375
1890.96482	15697.4375
1894.09304	15664.4375
1897.21921	15607.5375
1900.34335	15607.0375
1903.46544	15603.9375
1906.58551	15590.6375
1909.70353	15578.2375
1912.81953	15524.5375
1915.93349	15518.0375
1919.04543	15460.9375
1922.15534	15403.9375
1925.26322	15385.3375
1928.36908	15349.1375
1931.47292	15320.7375
1934.57473	15285.4375
1937.67453	15251.2375
1940.77232	15228.5375
1943.86808	15161.0375
1946.96184	15123.2375
1950.05358	15042.1375
1953.14331	15010.4375
1956.23103	14970.2375
1959.31675	14898.0375
1962.40046	14848.3375
1965.48217	14825.1375
1968.56188	14803.0375
1971.63959	14733.9375
1974.7153	14709.5375
1977.78901	14666.7375
1980.86073	14589.3375
1983.93046	14556.3375
1986.99819	14509.9375
1990.06394	14453.2375
1993.1277	14428.4375
1996.18947	14389.3375
1999.24925	14300.3375
2002.30706	14269.1375
2005.36288	14221.1375
2008.41672	14176.5375
2011.46859	14129.8375
2014.51848	14100.6375
2017.56639	14059.3375
2020.61233	14032.2375
2023.6563	13994.9375
2026.6983	13953.3375
2029.73833	13896.2375
2032.7764	13869.0375
2035.8125	13861.3375
2038.84664	13781.9375
2041.87881	13756.8375
2044.90903	13742.5375
2047.93729	13717.5375
2050.96359	13682.5375
2053.98794	13679.8375
2057.01034	13616.5375
2060.03078	13614.8375
2063.04927	13634.0375
2066.06582	13601.4375
2069.08042	13624.2375
2072.09307	13583.7375
2075.10378	13559.4375
2078.11255	13593.5375
2081.11938	13554.5375
2084.12426	13553.7375
2087.12722	13566.0375
2090.12824	13527.1375
2093.12732	13528.0375
2096.12447	13529.8375
2099.11969	13503.7375
2102.11299	13517.8375
2105.10435	13511.1375
2108.09379	13546.4375
2111.08131	13527.7375
2114.0669	13544.2375
2117.05057	13547.0375
2120.03233	13548.5375
2123.01216	13560.6375
2125.99008	13552.4375
2128.96609	13568.8375
2131.94018	13546.5375
2134.91236	13585.8375
2137.88263	13599.8375
2140.851	13569.3375
2143.81746	13616.9375
2146.78201	13553.9375
2149.74466	13578.4375
2152.7054	13550.9375
2155.66425	13539.0375
2158.6212	13532.2375
2161.57625	13551.6375
2164.52941	13534.5375
2167.48067	13514.1375
2170.43004	13519.0375
2173.37752	13493.3375
2176.32311	13496.0375
2179.26681	13497.1375
2182.20863	13447.9375
2185.14856	13467.5375
2188.08661	13475.6375
2191.02278	13465.2375
2193.95707	13466.2375
2196.88948	13434.0375
2199.82001	13422.0375
2202.74867	13391.4375
2205.67545	13376.6375
2208.60037	13365.8375
2211.52341	13366.4375
2214.44458	13317.2375
2217.36388	13291.3375
2220.28132	13253.3375
2223.1969	13199.3375
2226.11061	13207.3375
2229.02246	13172.1375
2231.93245	13164.4375
2234.84058	13133.9375
2237.74686	13154.4375
2240.65128	13116.9375
2243.55385	13096.4375
2246.45456	13063.1375
2249.35343	13017.5375
2252.25044	13003.0375
2255.14561	13022.3375
2258.03893	12962.8375
2260.93041	12952.2375
2263.82004	12909.5375
2266.70783	12881.1375
2269.59378	12822.9375
2272.4779	12792.6375
2275.36017	12756.8375
2278.24061	12728.0375
2281.11922	12715.0375
2283.996	12702.4375
2286.87094	12678.8375
2289.74405	12635.5375
2292.61534	12637.6375
2295.4848	12635.5375
2298.35243	12643.9375
2301.21824	12584.3375
2304.08223	12558.1375
2306.94439	12557.5375
2309.80474	12547.4375
2312.66327	12535.9375
2315.51999	12554.0375
2318.37489	12536.3375
2321.22797	12523.0375
2324.07925	12470.7375
2326.92871	12477.4375
2329.77637	12432.3375
2332.62222	12418.8375
2335.46626	12410.0375
2338.3085	12390.1375
2341.14893	12390.0375
2343.98756	12365.2375
2346.8244	12363.4375
2349.65943	12366.3375
2352.49267	12338.6375
2355.32411	12347.7375
2358.15376	12337.9375
2360.98161	12368.4375
2363.80768	12365.6375
2366.63195	12339.0375
2369.45444	12350.4375
2372.27514	12305.6375
2375.09405	12300.1375
2377.91118	12239.8375
2380.72652	12232.6375
2383.54009	12223.8375
2386.35187	12163.4375
2389.16188	12126.4375
2391.97011	12087.0375
2394.77657	12068.8375
2397.58125	12067.4375
2400.38416	12050.4375
2403.18529	12031.2375
2405.98466	12000.1375
2408.78226	11985.0375
2411.57809	11963.5375
2414.37216	11961.5375
2417.16446	11957.1375
2419.955	11902.8375
2422.74378	11934.1375
2425.5308	11895.6375
2428.31606	11914.7375
2431.09956	11923.8375
2433.88131	11896.0375
2436.6613	11897.8375
2439.43954	11877.6375
2442.21603	11873.6375
2444.99077	11892.0375
2447.76377	11839.3375
2450.53501	11828.2375
2453.30451	11821.2375
2456.07226	11819.9375
2458.83827	11791.2375
2461.60254	11796.3375
2464.36507	11781.6375
2467.12586	11744.7375
2469.88492	11766.4375
2472.64224	11756.3375
2475.39782	11775.2375
2478.15167	11759.9375
2480.90379	11759.1375
2483.65417	11753.6375
2486.40283	11757.8375
2489.14976	11764.8375
2491.89497	11728.8375
2494.63845	11762.9375
2497.3802	11759.5375
2500.12024	11746.3375
2502.85855	11724.7375
2505.59514	11686.4375
2508.33002	11690.0375
2511.06318	11661.2375
2513.79462	11646.3375
2516.52435	11640.3375
2519.25237	11638.4375
2521.97867	11597.7375
2524.70327	11598.9375
2527.42616	11598.4375
2530.14734	11591.5375
2532.86681	11569.5375
2535.58458	11549.2375
2538.30065	11532.6375
2541.01501	11562.0375
2543.72768	11501.4375
2546.43864	11490.1375
2549.14791	11474.7375
2551.85548	11494.8375
2554.56136	11449.4375
2557.26554	11424.6375
2559.96803	11407.2375
2562.66883	11398.0375
2565.36794	11386.1375
2568.06536	11360.0375
2570.7611	11341.9375
2573.45514	11342.4375
2576.14751	11282.2375
2578.83819	11283.8375
2581.52719	11271.0375
2584.21451	11232.9375
2586.90015	11245.5375
2589.58411	11216.2375
2592.2664	11198.2375
2594.94701	11188.8375
2597.62594	11168.9375
2600.30321	11147.5375
2602.9788	11137.0375
2605.65273	11117.4375
2608.32498	11121.8375
2610.99557	11146.5375
2613.66449	11117.8375
2616.33175	11102.1375
2618.99734	11115.9375
2621.66128	11070.5375
2624.32355	11060.8375
2626.98416	11057.1375
2629.64311	11030.2375
2632.30041	11027.1375
2634.95605	11023.2375
2637.61004	11005.9375
2640.26238	10966.7375
2642.91306	10975.8375
2645.56209	11000.2375
2648.20948	11008.2375
2650.85521	10972.4375
2653.4993	10976.9375
2656.14175	10968.7375
2658.78255	10975.2375
2661.42171	10963.8375
2664.05923	10968.0375
2666.6951	10976.9375
2669.32934	10990.8375
2671.96194	10997.6375
2674.59291	10971.6375
2677.22224	10975.0375
2679.84993	10980.8375
2682.476	10976.3375
2685.10043	10974.6375
2687.72324	10937.5375
2690.34441	10960.2375
2692.96396	10971.3375
2695.58188	10977.3375
2698.19818	10954.5375
2700.81285	10950.9375
2703.4259	10968.3375
2706.03733	10959.1375
2708.64714	10957.8375
2711.25533	10961.1375
2713.86191	10987.2375
2716.46687	10980.6375
2719.07021	10971.7375
2721.67194	11002.1375
2724.27206	10991.8375
2726.87057	10997.3375
2729.46747	10979.7375
2732.06276	10965.3375
2734.65644	10979.2375
2737.24852	10972.8375
2739.83899	10961.9375
2742.42786	10961.0375
2745.01513	10908.4375
2747.60079	10919.3375
2750.18486	10887.9375
2752.76733	10879.2375
2755.3482	10883.4375
2757.92747	10870.4375
2760.50515	10839.0375
2763.08123	10843.6375
2765.65573	10833.8375
2768.22863	10847.1375
2770.79994	10799.3375
2773.36967	10802.9375
2775.9378	10783.8375
2778.50435	10784.2375
2781.06932	10784.0375
2783.6327	10765.8375
2786.1945	10778.2375
2788.75471	10755.9375
2791.31335	10709.1375
2793.87041	10734.1375
2796.42589	10689.6375
2798.97979	10684.2375
2801.53212	10685.9375
2804.08288	10676.6375
2806.63206	10619.5375
2809.17967	10627.5375
2811.72571	10589.7375
2814.27018	10570.1375
2816.81308	10546.5375
2819.35442	10498.6375
2821.89419	10473.1375
2824.43239	10477.2375
2826.96904	10470.7375
2829.50412	10467.7375
2832.03763	10450.1375
2834.56959	10469.4375
2837.1	10416.7375
2839.62884	10452.1375
2842.15613	10447.0375
2844.68186	10430.2375
2847.20604	10427.7375
2849.72867	10441.9375
2852.24974	10435.7375
2854.76927	10399.9375
2857.28724	10398.5375
2859.80367	10358.9375
2862.31855	10351.3375
2864.83189	10344.4375
2867.34368	10316.4375
2869.85393	10319.8375
2872.36264	10318.5375
2874.8698	10321.3375
2877.37543	10296.0375
2879.87952	10295.1375
2882.38207	10296.8375
2884.88308	10250.5375
2887.38256	10284.1375
2889.88051	10252.6375
2892.37692	10271.0375
2894.8718	10255.9375
2897.36515	10271.2375
2899.85698	10275.7375
2902.34727	10298.5375
2904.83604	10292.5375
2907.32328	10326.4375
2909.809	10299.3375
2912.29319	10311.2375
2914.77587	10277.0375
2917.25702	10261.1375
2919.73665	10290.3375
2922.21476	10290.3375
2924.69136	10267.1375
2927.16644	10277.4375
2929.64	10236.3375
2932.11205	10223.5375
2934.58258	10202.9375
2937.05161	10199.7375
2939.51912	10189.5375
2941.98513	10202.1375
2944.44962	10171.7375
2946.91261	10152.6375
2949.37409	10156.3375
2951.83407	10117.5375
2954.29254	10083.4375
2956.74951	10081.3375
2959.20498	10101.1375
2961.65895	10078.2375
2964.11142	10100.1375
2966.56239	10048.3375
2969.01186	10071.7375
2971.45984	10049.4375
2973.90632	10044.3375
2976.35131	10010.4375
2978.7948	9999.2375
2981.23681	9984.0375
2983.67732	9981.1375
2986.11635	9936.2375
2988.55388	9910.5375
2990.98993	9882.0375
2993.4245	9859.1375
2995.85758	9828.1375
2998.28917	9794.8375
3000.71928	9796.4375
3003.14791	9772.0375
3005.57506	9779.5375
3008.00073	9733.8375
3010.42493	9601.5375
3012.84764	9688.9375
3015.26888	9682.3375
3017.68865	9659.4375
3020.10694	9639.8375
3022.52376	9609.1375
3024.9391	9589.8375
3027.35298	9578.0375
3029.76539	9581.5375
3032.17632	9574.0375
3034.5858	9549.8375
3036.9938	9531.0375
3039.40034	9545.9375
3041.80542	9538.3375
3044.20903	9506.0375
3046.61118	9496.1375
3049.01187	9470.8375
3051.4111	9462.3375
3053.80888	9428.7375
3056.20519	9423.2375
3058.60005	9390.5375
3060.99345	9389.6375
3063.3854	9355.8375
3065.7759	9326.3375
3068.16494	9325.1375
3070.55254	9296.1375
3072.93868	9262.6375
3075.32338	9238.2375
3077.70662	9214.5375
3080.08842	9220.8375
3082.46878	9175.4375
3084.84769	9161.7375
3087.22515	9165.5375
3089.60118	9158.1375
3091.97576	9145.4375
3094.3489	9132.3375
3096.72061	9158.8375
3099.09087	9139.9375
3101.4597	9120.8375
3103.82709	9112.1375
3106.19305	9113.5375
3108.55757	9109.1375
3110.92066	9072.3375
3113.28232	9063.8375
3115.64255	9019.0375
3118.00134	8995.6375
3120.35871	9004.5375
3122.71466	8968.6375
3125.06917	8927.3375
3127.42226	8947.9375
3129.77393	8939.6375
3132.12417	8898.8375
3134.47299	8894.0375
3136.82039	8906.1375
3139.16636	8905.7375
3141.51092	8897.1375
3143.85406	8918.4375
3146.19579	8899.7375
3148.53609	8900.9375
3150.87499	8898.8375
3153.21246	8883.8375
3155.54853	8920.8375
3157.88318	8900.5375
3160.21642	8917.1375
3162.54826	8912.3375
3164.87868	8906.6375
3167.2077	8910.4375
3169.5353	8925.6375
3171.86151	8925.1375
3174.18631	8904.1375
3176.5097	8869.2375
3178.83169	8843.6375
3181.15228	8857.8375
3183.47147	8843.9375
3185.78926	8812.8375
3188.10565	8796.1375
3190.42065	8801.5375
3192.73424	8781.8375
3195.04645	8800.0375
3197.35725	8766.6375
3199.66667	8783.5375
3201.97469	8776.9375
3204.28132	8778.4375
3206.58656	8793.4375
3208.8904	8782.7375
3211.19287	8770.7375
3213.49394	8793.2375
3215.79363	8770.9375
3218.09193	8771.1375
3220.38884	8764.9375
3222.68438	8781.2375
3224.97853	8771.7375
3227.2713	8765.7375
3229.56269	8745.9375
3231.8527	8737.1375
3234.14133	8706.9375
3236.42858	8692.5375
3238.71446	8705.1375
3240.99896	8652.9375
3243.28209	8663.2375
3245.56384	8639.6375
3247.84423	8630.5375
3250.12324	8637.0375
3252.40088	8609.3375
3254.67715	8594.2375
3256.95205	8565.9375
3259.22558	8580.3375
3261.49775	8549.5375
3263.76855	8560.6375
3266.03799	8525.7375
3268.30606	8531.3375
3270.57277	8508.6375
3272.83812	8481.8375
3275.10211	8458.6375
3277.36474	8461.0375
3279.62601	8461.8375
3281.88593	8429.9375
3284.14448	8408.9375
3286.40168	8424.6375
3288.65753	8426.1375
3290.91202	8423.9375
3293.16516	8407.1375
3295.41695	8399.6375
3297.66738	8336.5375
3299.91647	8276.7375
3302.16421	8238.1375
3304.4106	8190.0375
3306.65564	8139.9375
3308.89933	8063.2375
3311.14169	8007.2375
3313.38269	7909.2375
3315.62236	7897.0375
3317.86068	7817.4375
3320.09766	7753.3375
3322.3333	7716.7375
3324.5676	7667.4375
3326.80056	7535.1375
3329.03219	7468.5375
3331.26248	4.2375
3333.49143	-0.5625
3335.71905	-1.3625
