Data from AgNP_FTO_APTES_UA_10uM_CRN_500uM_R6G_10uM_NaF_0.1M_Addition_RamanShift__6__18-47-20-933.txt Node

Date: Thu Feb 10 18:47:20 GMT 2022
User: TCL
Spectrometer: QEP01345
Trigger mode: 4
Integration Time (sec): 7.000000E0
Scans to average: 10
Electric dark correction enabled: true
Nonlinearity correction enabled: false
Boxcar width: 0
XAxis mode: Raman Shifts
Number of Pixels in Spectrum: 1044
>>>>>Begin Spectral Data<<<<<
46.04893	0.8875
50.45542	-1.5125
54.85868	-1.3125
59.25871	-1.5125
63.6555	60.3875
68.04907	62.2875
72.43941	66.3875
76.82654	63.7875
81.21044	69.1875
85.59113	69.4875
89.96862	75.1875
94.34289	77.1875
98.71396	77.5875
103.08183	82.5875
107.4465	85.2875
111.80798	84.3875
116.16626	90.5875
120.52136	90.8875
124.87327	93.2875
129.222	97.3875
133.56755	106.1875
137.90993	109.4875
142.24913	118.0875
146.58517	136.8875
150.91804	158.2875
155.24774	186.5875
159.57429	228.3875
163.89768	290.6875
168.21792	384.6875
172.53501	523.8875
176.84895	735.1875
181.15975	1038.0875
185.46741	1456.8875
189.77193	2008.1875
194.07331	2690.0875
198.37157	3470.3875
202.6667	4303.1875
206.9587	5126.5875
211.24758	5928.9875
215.53334	6723.3875
219.81599	7565.8875
224.09553	8464.6875
228.37195	9478.6875
232.64527	10590.2875
236.91549	11746.8875
241.18261	12933.3875
245.44663	14115.1875
249.70755	15157.4875
253.96539	16083.4875
258.22014	16852.9875
262.4718	17528.3875
266.72039	17988.4875
270.96589	18259.5875
275.20832	18313.3875
279.44768	18228.9875
283.68397	18050.6875
287.91719	17908.5875
292.14735	17771.1875
296.37445	17755.4875
300.59849	17752.6875
304.81948	17745.7875
309.03742	17654.1875
313.25231	17505.4875
317.46415	17265.9875
321.67296	16964.8875
325.87872	16734.8875
330.08145	16631.8875
334.28114	16653.2875
338.47781	16768.8875
342.67145	16897.6875
346.86207	17107.4875
351.04966	17335.3875
355.23424	17620.9875
359.4158	17872.6875
363.59435	18083.4875
367.76989	18202.0875
371.94243	18359.9875
376.11196	18463.9875
380.27849	18578.5875
384.44203	18672.3875
388.60257	18828.9875
392.76012	18977.7875
396.91468	19198.3875
401.06626	19362.6875
405.21485	19539.1875
409.36047	19500.1875
413.50311	19332.5875
417.64277	19250.9875
421.77947	19263.4875
425.9132	19360.5875
430.04396	19484.0875
434.17176	19605.3875
438.2966	19718.5875
442.41849	19972.1875
446.53742	20326.4875
450.6534	20773.0875
454.76644	21063.3875
458.87653	21217.2875
462.98368	21185.5875
467.08789	21085.7875
471.18916	20969.1875
475.2875	20817.6875
479.38291	20754.2875
483.4754	20677.3875
487.56496	20482.3875
491.6516	20203.0875
495.73531	19973.5875
499.81612	19814.0875
503.89401	19830.2875
507.96899	19923.1875
512.04106	19917.7875
516.11023	19840.6875
520.1765	19765.9875
524.23987	19652.5875
528.30034	19528.0875
532.35792	19415.7875
536.41261	19284.1875
540.46441	19216.4875
544.51333	19230.3875
548.55936	19339.7875
552.60252	19647.9875
556.64279	19984.4875
560.6802	20263.3875
564.71473	20424.8875
568.7464	20625.8875
572.7752	21013.0875
576.80114	21417.9875
580.82422	21727.1875
584.84444	22088.9875
588.86181	22635.5875
592.87633	23110.1875
596.888	22973.9875
600.89682	22353.3875
604.9028	22153.2875
608.90594	23008.4875
612.90624	24157.2875
616.90371	23251.8875
620.89834	20758.4875
624.89015	19641.1875
628.87913	19504.1875
632.86528	19610.8875
636.84862	19683.9875
640.82913	19495.6875
644.80683	19283.8875
648.78172	19097.6875
652.75379	19059.6875
656.72306	19182.4875
660.68952	19353.6875
664.65319	19249.5875
668.61405	19049.6875
672.57211	19015.7875
676.52738	19113.3875
680.47986	19111.2875
684.42955	19079.6875
688.37646	19006.1875
692.32058	19063.7875
696.26192	19226.5875
700.20048	19396.9875
704.13626	19495.7875
708.06928	19511.1875
711.99952	19485.0875
715.927	19502.7875
719.85171	19470.0875
723.77365	19439.8875
727.69284	19296.5875
731.60928	19148.3875
735.52295	19077.6875
739.43388	19059.7875
743.34206	19072.1875
747.24749	19157.4875
751.15017	19234.2875
755.05012	19455.4875
758.94733	19805.7875
762.8418	20412.8875
766.73354	21307.6875
770.62254	22179.1875
774.50882	22367.8875
778.39237	21753.0875
782.27321	20761.4875
786.15132	19910.8875
790.02671	19339.4875
793.89938	19129.0875
797.76935	18988.0875
801.6366	18967.3875
805.50115	18924.7875
809.36299	18871.1875
813.22213	18766.1875
817.07857	18751.7875
820.93231	18774.3875
824.78336	18710.6875
828.63172	18650.0875
832.47738	18612.4875
836.32036	18603.5875
840.16066	18604.5875
843.99827	18595.2875
847.8332	18595.2875
851.66546	18591.2875
855.49504	18606.1875
859.32195	18633.7875
863.1462	18625.2875
866.96777	18620.0875
870.78668	18563.4875
874.60293	18601.3875
878.41652	18594.1875
882.22745	18617.2875
886.03573	18630.9875
889.84136	18641.5875
893.64433	18577.1875
897.44466	18569.5875
901.24235	18527.2875
905.0374	18495.7875
908.8298	18417.9875
912.61957	18419.9875
916.40671	18492.2875
920.19121	18635.1875
923.97308	18766.9875
927.75233	18747.2875
931.52895	18555.3875
935.30295	18453.7875
939.07433	18232.8875
942.84309	18094.1875
946.60924	17955.5875
950.37278	17923.7875
954.13371	17878.6875
957.89203	17872.2875
961.64774	17861.7875
965.40086	17867.9875
969.15137	17801.8875
972.89929	17714.2875
976.64461	17674.7875
980.38733	17675.5875
984.12747	17659.0875
987.86502	17727.3875
991.59999	17782.9875
995.33237	17856.7875
999.06217	18011.4875
1002.78939	18237.4875
1006.51404	18422.0875
1010.23611	18578.5875
1013.95561	18706.3875
1017.67255	18823.0875
1021.38692	18738.1875
1025.09872	18562.7875
1028.80796	18377.0875
1032.51465	18307.4875
1036.21877	18376.7875
1039.92035	18460.0875
1043.61937	18453.7875
1047.31584	18449.6875
1051.00976	18436.4875
1054.70114	18487.6875
1058.38998	18519.5875
1062.07627	18640.4875
1065.76003	18763.8875
1069.44126	18851.8875
1073.11995	19019.6875
1076.79611	19121.8875
1080.46974	19199.3875
1084.14085	19227.2875
1087.80943	19379.6875
1091.47549	19505.1875
1095.13903	19545.5875
1098.80005	19423.3875
1102.45857	19147.2875
1106.11456	18980.4875
1109.76805	18877.0875
1113.41903	18828.7875
1117.06751	18945.4875
1120.71348	19077.3875
1124.35696	19248.9875
1127.99793	19408.6875
1131.63641	19523.6875
1135.2724	19428.9875
1138.90589	19347.8875
1142.5369	19311.9875
1146.16542	19364.4875
1149.79145	19523.9875
1153.415	19589.6875
1157.03607	19737.7875
1160.65467	20162.1875
1164.27079	20824.0875
1167.88443	21575.8875
1171.49561	22362.2875
1175.10432	23344.7875
1178.71056	24593.3875
1182.31434	25763.6875
1185.91565	26429.6875
1189.51451	26420.1875
1193.11091	25925.6875
1196.70485	25288.2875
1200.29634	24611.9875
1203.88538	24103.6875
1207.47197	23786.8875
1211.05612	23459.1875
1214.63782	23105.0875
1218.21708	22638.5875
1221.79391	22175.2875
1225.36829	21873.3875
1228.94024	21668.1875
1232.50976	21434.9875
1236.07685	21258.8875
1239.6415	21152.9875
1243.20374	21197.7875
1246.76355	21284.5875
1250.32093	21483.4875
1253.8759	21685.1875
1257.42845	22091.8875
1260.97859	22479.0875
1264.52631	22965.6875
1268.07163	23354.3875
1271.61453	23716.6875
1275.15503	24110.9875
1278.69312	24599.9875
1282.22882	25081.5875
1285.76211	25709.0875
1289.29301	26499.3875
1292.82151	27525.5875
1296.34761	28717.7875
1299.87133	30082.7875
1303.39266	31449.8875
1306.9116	32623.6875
1310.42815	33568.5875
1313.94233	34118.8875
1317.45412	34031.4875
1320.96354	33564.1875
1324.47058	33106.3875
1327.97525	32705.9875
1331.47754	32350.0875
1334.97747	32099.7875
1338.47502	31847.7875
1341.97022	31644.8875
1345.46305	31369.9875
1348.95352	31241.3875
1352.44163	31254.4875
1355.92738	31717.0875
1359.41078	32541.1875
1362.89183	33191.7875
1366.37053	32614.0875
1369.84688	30544.9875
1373.32088	27955.8875
1376.79254	26210.4875
1380.26186	25634.8875
1383.72883	25668.4875
1387.19347	25792.4875
1390.65578	25694.8875
1394.11575	25654.9875
1397.57339	25878.3875
1401.0287	26112.4875
1404.48168	26332.6875
1407.93234	26204.7875
1411.38068	25650.1875
1414.82669	24900.6875
1418.27039	24037.7875
1421.71177	23206.5875
1425.15083	22520.2875
1428.58758	22216.3875
1432.02203	22303.3875
1435.45416	22747.6875
1438.88399	23246.5875
1442.31151	23663.6875
1445.73673	23902.1875
1449.15965	24076.8875
1452.58027	24247.4875
1455.9986	24250.8875
1459.41463	24337.7875
1462.82837	24493.8875
1466.23982	24729.8875
1469.64898	25048.7875
1473.05586	25181.4875
1476.46045	25182.7875
1479.86276	25031.0875
1483.26279	24814.1875
1486.66054	24669.5875
1490.05602	24736.1875
1493.44922	24897.5875
1496.84016	25193.4875
1500.22882	25621.6875
1503.61521	26271.7875
1506.99934	27034.9875
1510.38121	27701.7875
1513.76081	27807.7875
1517.13816	27398.3875
1520.51324	26689.6875
1523.88607	26170.7875
1527.25665	25928.1875
1530.62498	25928.8875
1533.99105	25843.6875
1537.35488	25705.2875
1540.71647	25300.6875
1544.07581	24761.8875
1547.4329	24280.9875
1550.78776	23767.4875
1554.14038	23422.6875
1557.49077	23205.4875
1560.83892	23132.7875
1564.18484	23128.5875
1567.52853	23192.1875
1570.86999	23426.8875
1574.20922	23830.8875
1577.54624	24156.0875
1580.88103	24337.7875
1584.2136	24491.2875
1587.54395	24912.6875
1590.87208	25637.9875
1594.19801	26599.0875
1597.52172	27481.2875
1600.84321	27736.3875
1604.16251	26922.9875
1607.47959	25407.2875
1610.79447	23740.3875
1614.10715	22225.1875
1617.41763	20985.0875
1620.7259	20080.1875
1624.03199	19654.2875
1627.33587	19622.8875
1630.63757	19994.3875
1633.93707	20871.3875
1637.23439	22350.3875
1640.52951	24545.9875
1643.82246	27122.7875
1647.11321	29215.6875
1650.40179	29606.9875
1653.68819	27872.6875
1656.97241	24898.9875
1660.25446	21968.3875
1663.53433	19869.5875
1666.81203	18507.2875
1670.08756	17609.2875
1673.36092	17077.3875
1676.63211	16686.1875
1679.90115	16458.7875
1683.16801	16228.0875
1686.43272	16083.7875
1689.69527	15962.2875
1692.95567	15880.2875
1696.2139	15864.6875
1699.46999	15842.5875
1702.72392	15805.0875
1705.97571	15711.3875
1709.22535	15671.2875
1712.47284	15632.4875
1715.71819	15629.2875
1718.96139	15598.1875
1722.20246	15552.1875
1725.44139	15452.8875
1728.67818	15428.2875
1731.91284	15376.7875
1735.14537	15266.9875
1738.37576	15181.3875
1741.60403	15160.6875
1744.83017	15156.1875
1748.05418	15123.7875
1751.27607	15087.3875
1754.49584	15060.5875
1757.71349	15061.8875
1760.92903	15039.9875
1764.14244	15044.2875
1767.35375	15050.2875
1770.56294	14966.0875
1773.77002	14967.4875
1776.97499	14916.3875
1780.17785	14900.7875
1783.37861	14862.2875
1786.57727	14817.7875
1789.77382	14783.8875
1792.96828	14770.5875
1796.16064	14731.7875
1799.3509	14685.3875
1802.53907	14670.6875
1805.72514	14634.9875
1808.90913	14616.5875
1812.09102	14590.7875
1815.27083	14552.0875
1818.44856	14514.1875
1821.6242	14462.6875
1824.79776	14472.1875
1827.96924	14409.7875
1831.13864	14442.2875
1834.30597	14413.9875
1837.47122	14402.8875
1840.6344	14370.0875
1843.7955	14395.9875
1846.95454	14379.2875
1850.11151	14365.2875
1853.26642	14309.3875
1856.41926	14311.9875
1859.57004	14312.2875
1862.71876	14283.7875
1865.86542	14260.2875
1869.01003	14259.8875
1872.15258	14251.6875
1875.29308	14221.6875
1878.43152	14207.5875
1881.56792	14202.4875
1884.70227	14168.7875
1887.83457	14137.8875
1890.96482	14103.6875
1894.09304	14070.0875
1897.21921	14061.4875
1900.34335	14089.8875
1903.46544	14068.7875
1906.58551	14035.1875
1909.70353	14028.9875
1912.81953	13994.8875
1915.93349	13984.1875
1919.04543	13923.5875
1922.15534	13913.3875
1925.26322	13850.3875
1928.36908	13848.1875
1931.47292	13834.7875
1934.57473	13812.4875
1937.67453	13737.8875
1940.77232	13711.2875
1943.86808	13678.5875
1946.96184	13656.7875
1950.05358	13615.7875
1953.14331	13578.6875
1956.23103	13570.6875
1959.31675	13516.1875
1962.40046	13464.3875
1965.48217	13424.6875
1968.56188	13372.5875
1971.63959	13319.0875
1974.7153	13324.9875
1977.78901	13268.8875
1980.86073	13196.1875
1983.93046	13157.4875
1986.99819	13121.6875
1990.06394	13098.3875
1993.1277	13049.3875
1996.18947	12993.9875
1999.24925	12991.8875
2002.30706	12926.1875
2005.36288	12862.5875
2008.41672	12857.6875
2011.46859	12798.3875
2014.51848	12776.5875
2017.56639	12796.6875
2020.61233	12731.6875
2023.6563	12693.3875
2026.6983	12653.7875
2029.73833	12606.7875
2032.7764	12581.7875
2035.8125	12605.8875
2038.84664	12536.3875
2041.87881	12494.4875
2044.90903	12437.1875
2047.93729	12472.3875
2050.96359	12417.2875
2053.98794	12390.5875
2057.01034	12391.7875
2060.03078	12376.9875
2063.04927	12364.2875
2066.06582	12350.9875
2069.08042	12377.6875
2072.09307	12357.0875
2075.10378	12325.1875
2078.11255	12333.5875
2081.11938	12331.3875
2084.12426	12303.0875
2087.12722	12308.5875
2090.12824	12292.2875
2093.12732	12281.0875
2096.12447	12305.1875
2099.11969	12284.0875
2102.11299	12265.7875
2105.10435	12258.6875
2108.09379	12295.1875
2111.08131	12284.4875
2114.0669	12282.9875
2117.05057	12293.6875
2120.03233	12274.1875
2123.01216	12311.0875
2125.99008	12291.8875
2128.96609	12299.6875
2131.94018	12328.8875
2134.91236	12350.3875
2137.88263	12319.8875
2140.851	12313.8875
2143.81746	12330.8875
2146.78201	12328.9875
2149.74466	12361.2875
2152.7054	12331.8875
2155.66425	12309.7875
2158.6212	12329.6875
2161.57625	12307.0875
2164.52941	12291.5875
2167.48067	12294.8875
2170.43004	12285.4875
2173.37752	12249.9875
2176.32311	12263.0875
2179.26681	12275.7875
2182.20863	12257.4875
2185.14856	12251.1875
2188.08661	12257.5875
2191.02278	12282.7875
2193.95707	12252.2875
2196.88948	12269.2875
2199.82001	12246.5875
2202.74867	12204.6875
2205.67545	12183.8875
2208.60037	12154.2875
2211.52341	12143.1875
2214.44458	12148.0875
2217.36388	12110.8875
2220.28132	12095.6875
2223.1969	12050.8875
2226.11061	12041.1875
2229.02246	12017.8875
2231.93245	11994.4875
2234.84058	11925.8875
2237.74686	11932.5875
2240.65128	11932.2875
2243.55385	11900.7875
2246.45456	11893.8875
2249.35343	11853.5875
2252.25044	11851.4875
2255.14561	11814.9875
2258.03893	11802.5875
2260.93041	11779.8875
2263.82004	11742.4875
2266.70783	11726.3875
2269.59378	11699.0875
2272.4779	11643.5875
2275.36017	11612.0875
2278.24061	11590.9875
2281.11922	11569.0875
2283.996	11575.2875
2286.87094	11574.0875
2289.74405	11529.9875
2292.61534	11534.6875
2295.4848	11516.1875
2298.35243	11521.0875
2301.21824	11512.5875
2304.08223	11482.8875
2306.94439	11499.2875
2309.80474	11480.2875
2312.66327	11440.7875
2315.51999	11420.4875
2318.37489	11417.7875
2321.22797	11417.5875
2324.07925	11403.6875
2326.92871	11355.5875
2329.77637	11327.3875
2332.62222	11312.0875
2335.46626	11308.9875
2338.3085	11285.9875
2341.14893	11277.8875
2343.98756	11286.2875
2346.8244	11273.5875
2349.65943	11260.2875
2352.49267	11244.3875
2355.32411	11230.3875
2358.15376	11216.1875
2360.98161	11234.6875
2363.80768	11216.1875
2366.63195	11213.2875
2369.45444	11193.7875
2372.27514	11182.4875
2375.09405	11161.1875
2377.91118	11129.4875
2380.72652	11112.0875
2383.54009	11076.5875
2386.35187	11059.4875
2389.16188	11009.5875
2391.97011	10997.4875
2394.77657	10989.7875
2397.58125	10966.2875
2400.38416	10936.7875
2403.18529	10915.5875
2405.98466	10926.8875
2408.78226	10917.6875
2411.57809	10888.7875
2414.37216	10891.4875
2417.16446	10875.1875
2419.955	10827.9875
2422.74378	10837.1875
2425.5308	10817.6875
2428.31606	10822.6875
2431.09956	10816.9875
2433.88131	10811.6875
2436.6613	10782.2875
2439.43954	10781.7875
2442.21603	10744.1875
2444.99077	10745.9875
2447.76377	10756.6875
2450.53501	10708.8875
2453.30451	10712.3875
2456.07226	10685.8875
2458.83827	10687.6875
2461.60254	10711.9875
2464.36507	10703.0875
2467.12586	10691.1875
2469.88492	10657.6875
2472.64224	10663.7875
2475.39782	10647.9875
2478.15167	10663.8875
2480.90379	10674.1875
2483.65417	10673.3875
2486.40283	10657.2875
2489.14976	10638.2875
2491.89497	10632.1875
2494.63845	10622.2875
2497.3802	10620.2875
2500.12024	10590.2875
2502.85855	10590.6875
2505.59514	10590.7875
2508.33002	10577.4875
2511.06318	10559.4875
2513.79462	10568.9875
2516.52435	10525.0875
2519.25237	10469.5875
2521.97867	10473.5875
2524.70327	10492.5875
2527.42616	10501.0875
2530.14734	10455.3875
2532.86681	10435.7875
2535.58458	10447.1875
2538.30065	10429.3875
2541.01501	10419.2875
2543.72768	10409.6875
2546.43864	10404.5875
2549.14791	10387.9875
2551.85548	10367.8875
2554.56136	10357.1875
2557.26554	10311.6875
2559.96803	10298.7875
2562.66883	10273.1875
2565.36794	10242.9875
2568.06536	10228.7875
2570.7611	10221.1875
2573.45514	10211.3875
2576.14751	10184.5875
2578.83819	10193.2875
2581.52719	10161.8875
2584.21451	10187.3875
2586.90015	10152.4875
2589.58411	10117.8875
2592.2664	10099.6875
2594.94701	10082.4875
2597.62594	10083.2875
2600.30321	10059.9875
2602.9788	10061.9875
2605.65273	10026.2875
2608.32498	10046.1875
2610.99557	10036.8875
2613.66449	10028.3875
2616.33175	10010.1875
2618.99734	10010.2875
2621.66128	9996.9875
2624.32355	9973.4875
2626.98416	9943.7875
2629.64311	9950.2875
2632.30041	9942.2875
2634.95605	9916.3875
2637.61004	9890.0875
2640.26238	9894.7875
2642.91306	9879.4875
2645.56209	9886.4875
2648.20948	9892.1875
2650.85521	9869.4875
2653.4993	9855.8875
2656.14175	9878.4875
2658.78255	9880.2875
2661.42171	9885.3875
2664.05923	9883.6875
2666.6951	9871.8875
2669.32934	9867.1875
2671.96194	9877.0875
2674.59291	9866.3875
2677.22224	9855.4875
2679.84993	9853.9875
2682.476	9846.1875
2685.10043	9843.6875
2687.72324	9836.7875
2690.34441	9835.3875
2692.96396	9850.5875
2695.58188	9846.1875
2698.19818	9809.5875
2700.81285	9831.4875
2703.4259	9823.0875
2706.03733	9842.5875
2708.64714	9822.1875
2711.25533	9844.5875
2713.86191	9821.5875
2716.46687	9836.4875
2719.07021	9858.9875
2721.67194	9863.0875
2724.27206	9833.2875
2726.87057	9858.1875
2729.46747	9846.2875
2732.06276	9839.7875
2734.65644	9855.0875
2737.24852	9833.6875
2739.83899	9816.6875
2742.42786	9818.8875
2745.01513	9787.5875
2747.60079	9798.2875
2750.18486	9770.7875
2752.76733	9761.6875
2755.3482	9748.8875
2757.92747	9732.9875
2760.50515	9707.9875
2763.08123	9698.8875
2765.65573	9687.7875
2768.22863	9698.8875
2770.79994	9679.4875
2773.36967	9692.0875
2775.9378	9649.2875
2778.50435	9634.3875
2781.06932	9664.9875
2783.6327	9638.8875
2786.1945	9613.4875
2788.75471	9623.4875
2791.31335	9596.8875
2793.87041	9585.6875
2796.42589	9584.3875
2798.97979	9579.5875
2801.53212	9573.9875
2804.08288	9536.4875
2806.63206	9495.0875
2809.17967	9476.4875
2811.72571	9474.3875
2814.27018	9428.5875
2816.81308	9406.5875
2819.35442	9382.9875
2821.89419	9390.4875
2824.43239	9384.5875
2826.96904	9351.0875
2829.50412	9364.9875
2832.03763	9337.6875
2834.56959	9339.0875
2837.1	9308.5875
2839.62884	9346.5875
2842.15613	9321.6875
2844.68186	9343.8875
2847.20604	9379.8875
2849.72867	9365.2875
2852.24974	9351.4875
2854.76927	9340.4875
2857.28724	9327.9875
2859.80367	9289.3875
2862.31855	9255.1875
2864.83189	9276.4875
2867.34368	9244.5875
2869.85393	9254.6875
2872.36264	9250.9875
2874.8698	9220.9875
2877.37543	9222.4875
2879.87952	9201.4875
2882.38207	9221.0875
2884.88308	9192.9875
2887.38256	9203.6875
2889.88051	9181.1875
2892.37692	9197.9875
2894.8718	9188.6875
2897.36515	9243.9875
2899.85698	9216.6875
2902.34727	9229.3875
2904.83604	9244.6875
2907.32328	9241.8875
2909.809	9235.2875
2912.29319	9208.3875
2914.77587	9240.5875
2917.25702	9198.5875
2919.73665	9211.0875
2922.21476	9200.7875
2924.69136	9216.7875
2927.16644	9204.6875
2929.64	9182.0875
2932.11205	9195.3875
2934.58258	9158.3875
2937.05161	9179.5875
2939.51912	9172.1875
2941.98513	9134.9875
2944.44962	9116.0875
2946.91261	9085.7875
2949.37409	9107.8875
2951.83407	9118.1875
2954.29254	9073.0875
2956.74951	9081.7875
2959.20498	9078.5875
2961.65895	9082.0875
2964.11142	9056.6875
2966.56239	9035.2875
2969.01186	9040.7875
2971.45984	9011.3875
2973.90632	9020.9875
2976.35131	8969.9875
2978.7948	8981.2875
2981.23681	8928.8875
2983.67732	8897.9875
2986.11635	8900.7875
2988.55388	8895.8875
2990.98993	8869.2875
2993.4245	8827.0875
2995.85758	8801.5875
2998.28917	8774.3875
3000.71928	8788.6875
3003.14791	8759.6875
3005.57506	8743.0875
3008.00073	8743.7875
3010.42493	8729.2875
3012.84764	8706.5875
3015.26888	8704.3875
3017.68865	8650.3875
3020.10694	8668.7875
3022.52376	8654.3875
3024.9391	8622.1875
3027.35298	8614.1875
3029.76539	8615.4875
3032.17632	8605.4875
3034.5858	8591.0875
3036.9938	8582.0875
3039.40034	8604.7875
3041.80542	8579.1875
3044.20903	8569.3875
3046.61118	8577.2875
3049.01187	8540.8875
3051.4111	8535.4875
3053.80888	8528.2875
3056.20519	8510.3875
3058.60005	8475.8875
3060.99345	8460.8875
3063.3854	8431.3875
3065.7759	8426.6875
3068.16494	8400.3875
3070.55254	8368.1875
3072.93868	8366.8875
3075.32338	8344.9875
3077.70662	8316.5875
3080.08842	8309.3875
3082.46878	8318.1875
3084.84769	8281.7875
3087.22515	8295.0875
3089.60118	8287.0875
3091.97576	8298.6875
3094.3489	8279.7875
3096.72061	8284.1875
3099.09087	8275.2875
3101.4597	8260.1875
3103.82709	8273.3875
3106.19305	8251.5875
3108.55757	8251.0875
3110.92066	8235.5875
3113.28232	8244.6875
3115.64255	8212.4875
3118.00134	8182.3875
3120.35871	8179.2875
3122.71466	8171.8875
3125.06917	8145.1875
3127.42226	8126.8875
3129.77393	8130.0875
3132.12417	8119.0875
3134.47299	8118.7875
3136.82039	8109.6875
3139.16636	8141.0875
3141.51092	8119.7875
3143.85406	8106.8875
3146.19579	8134.1875
3148.53609	8130.4875
3150.87499	8132.0875
3153.21246	8127.3875
3155.54853	8147.7875
3157.88318	8120.5875
3160.21642	8131.3875
3162.54826	8142.7875
3164.87868	8146.3875
3167.2077	8137.8875
3169.5353	8136.7875
3171.86151	8151.4875
3174.18631	8143.3875
3176.5097	8128.5875
3178.83169	8108.9875
3181.15228	8125.6875
3183.47147	8080.9875
3185.78926	8085.7875
3188.10565	8077.2875
3190.42065	8070.2875
3192.73424	8060.4875
3195.04645	8053.6875
3197.35725	8022.3875
3199.66667	8024.6875
3201.97469	8054.4875
3204.28132	8033.7875
3206.58656	8060.3875
3208.8904	8066.5875
3211.19287	8060.0875
3213.49394	8045.2875
3215.79363	8066.0875
3218.09193	8056.3875
3220.38884	8056.2875
3222.68438	8054.1875
3224.97853	8026.3875
3227.2713	8036.5875
3229.56269	8027.0875
3231.8527	8023.9875
3234.14133	8007.5875
3236.42858	7991.5875
3238.71446	7986.7875
3240.99896	7936.5875
3243.28209	7944.5875
3245.56384	7961.5875
3247.84423	7964.9875
3250.12324	7928.6875
3252.40088	7935.2875
3254.67715	7929.5875
3256.95205	7892.0875
3259.22558	7891.3875
3261.49775	7863.3875
3263.76855	7868.6875
3266.03799	7851.0875
3268.30606	7851.0875
3270.57277	7859.4875
3272.83812	7807.5875
3275.10211	7776.3875
3277.36474	7787.9875
3279.62601	7768.1875
3281.88593	7761.5875
3284.14448	7751.1875
3286.40168	7763.0875
3288.65753	7757.8875
3290.91202	7762.7875
3293.16516	7736.6875
3295.41695	7703.2875
3297.66738	7681.3875
3299.91647	7629.7875
3302.16421	7579.6875
3304.4106	7538.9875
3306.65564	7489.0875
3308.89933	7440.5875
3311.14169	7384.3875
3313.38269	7305.1875
3315.62236	7271.3875
3317.86068	7210.8875
3320.09766	7155.8875
3322.3333	7105.7875
3324.5676	7070.2875
3326.80056	6984.4875
3329.03219	6918.1875
3331.26248	4.1875
3333.49143	0.1875
3335.71905	-0.9125
