Data from AgNP_FTO_APTES_UA_10uM_CRN_200uM_R6G_10uM_NaF_0.1M_Addition_RamanShift__20__18-24-00-905.txt Node

Date: Thu Feb 10 18:24:00 GMT 2022
User: TCL
Spectrometer: QEP01345
Trigger mode: 4
Integration Time (sec): 7.000000E0
Scans to average: 10
Electric dark correction enabled: true
Nonlinearity correction enabled: false
Boxcar width: 0
XAxis mode: Raman Shifts
Number of Pixels in Spectrum: 1044
>>>>>Begin Spectral Data<<<<<
46.04893	1.0375
50.45542	-0.4625
54.85868	-1.6625
59.25871	0.5375
63.6555	59.9375
68.04907	62.5375
72.43941	65.7375
76.82654	66.9375
81.21044	72.2375
85.59113	70.7375
89.96862	77.6375
94.34289	74.9375
98.71396	81.4375
103.08183	85.5375
107.4465	85.6375
111.80798	85.6375
116.16626	87.1375
120.52136	92.7375
124.87327	94.2375
129.222	100.0375
133.56755	106.5375
137.90993	111.0375
142.24913	117.4375
146.58517	136.3375
150.91804	158.0375
155.24774	183.8375
159.57429	222.7375
163.89768	287.1375
168.21792	381.6375
172.53501	516.2375
176.84895	711.4375
181.15975	1005.3375
185.46741	1403.3375
189.77193	1955.1375
194.07331	2626.5375
198.37157	3381.7375
202.6667	4180.9375
206.9587	4981.5375
211.24758	5753.0375
215.53334	6529.0375
219.81599	7319.3375
224.09553	8188.7375
228.37195	9175.0375
232.64527	10237.7375
236.91549	11392.4375
241.18261	12558.3375
245.44663	13704.2375
249.70755	14730.0375
253.96539	15639.1375
258.22014	16438.3375
262.4718	17073.9375
266.72039	17536.3375
270.96589	17779.6375
275.20832	17884.7375
279.44768	17811.5375
283.68397	17616.9375
287.91719	17516.1375
292.14735	17418.4375
296.37445	17406.0375
300.59849	17417.8375
304.81948	17406.5375
309.03742	17267.8375
313.25231	17058.6375
317.46415	16730.7375
321.67296	16368.9375
325.87872	16083.5375
330.08145	15949.7375
334.28114	15980.6375
338.47781	16090.3375
342.67145	16279.5375
346.86207	16478.3375
351.04966	16794.6375
355.23424	17040.9375
359.4158	17354.4375
363.59435	17566.5375
367.76989	17770.4375
371.94243	17898.5375
376.11196	18027.3375
380.27849	18155.0375
384.44203	18274.1375
388.60257	18443.0375
392.76012	18551.3375
396.91468	18728.9375
401.06626	18923.0375
405.21485	19104.8375
409.36047	19074.7375
413.50311	18908.0375
417.64277	18793.1375
421.77947	18756.4375
425.9132	18839.8375
430.04396	18944.8375
434.17176	19062.5375
438.2966	19257.5375
442.41849	19513.2375
446.53742	19906.3375
450.6534	20311.3375
454.76644	20705.5375
458.87653	20833.8375
462.98368	20806.2375
467.08789	20671.7375
471.18916	20481.8375
475.2875	20377.8375
479.38291	20393.2375
483.4754	20342.5375
487.56496	20132.3375
491.6516	19868.6375
495.73531	19606.0375
499.81612	19435.2375
503.89401	19463.7375
507.96899	19542.0375
512.04106	19507.7375
516.11023	19462.8375
520.1765	19345.5375
524.23987	19246.5375
528.30034	19137.5375
532.35792	19065.9375
536.41261	18926.9375
540.46441	18827.3375
544.51333	18864.3375
548.55936	19004.6375
552.60252	19267.0375
556.64279	19611.2375
560.6802	19796.7375
564.71473	19940.8375
568.7464	20183.4375
572.7752	20493.2375
576.80114	20698.9375
580.82422	20784.5375
584.84444	20947.6375
588.86181	21109.5375
592.87633	21336.3375
596.888	21431.7375
600.89682	21399.7375
604.9028	21744.6375
608.90594	22953.0375
612.90624	24338.3375
616.90371	23314.6375
620.89834	20661.9375
624.89015	19481.5375
628.87913	19437.8375
632.86528	19487.8375
636.84862	19444.8375
640.82913	19290.2375
644.80683	18964.0375
648.78172	18760.0375
652.75379	18686.2375
656.72306	18789.9375
660.68952	19027.6375
664.65319	18989.6375
668.61405	18758.4375
672.57211	18729.0375
676.52738	18783.7375
680.47986	18809.8375
684.42955	18781.5375
688.37646	18707.1375
692.32058	18750.4375
696.26192	18886.6375
700.20048	18974.2375
704.13626	19094.4375
708.06928	19112.8375
711.99952	19020.6375
715.927	18954.4375
719.85171	18981.2375
723.77365	18978.4375
727.69284	18894.8375
731.60928	18801.1375
735.52295	18753.6375
739.43388	18741.4375
743.34206	18788.5375
747.24749	18833.3375
751.15017	18936.2375
755.05012	19110.7375
758.94733	19456.3375
762.8418	20075.1375
766.73354	21062.1375
770.62254	22024.8375
774.50882	22340.1375
778.39237	21699.6375
782.27321	20513.7375
786.15132	19542.8375
790.02671	19028.2375
793.89938	18734.0375
797.76935	18654.8375
801.6366	18594.4375
805.50115	18602.4375
809.36299	18555.4375
813.22213	18452.1375
817.07857	18422.8375
820.93231	18433.7375
824.78336	18377.8375
828.63172	18353.4375
832.47738	18327.8375
836.32036	18331.1375
840.16066	18371.2375
843.99827	18431.5375
847.8332	18373.3375
851.66546	18346.6375
855.49504	18348.4375
859.32195	18369.3375
863.1462	18348.8375
866.96777	18304.7375
870.78668	18257.0375
874.60293	18275.2375
878.41652	18253.2375
882.22745	18299.2375
886.03573	18350.8375
889.84136	18315.9375
893.64433	18291.4375
897.44466	18249.0375
901.24235	18169.3375
905.0374	18114.2375
908.8298	18058.0375
912.61957	18096.6375
916.40671	18203.0375
920.19121	18310.5375
923.97308	18447.7375
927.75233	18473.5375
931.52895	18415.4375
935.30295	18306.5375
939.07433	18052.0375
942.84309	17871.7375
946.60924	17754.8375
950.37278	17724.4375
954.13371	17691.2375
957.89203	17624.2375
961.64774	17623.1375
965.40086	17538.6375
969.15137	17482.5375
972.89929	17425.5375
976.64461	17385.0375
980.38733	17366.1375
984.12747	17421.9375
987.86502	17577.2375
991.59999	17678.7375
995.33237	17906.2375
999.06217	18217.5375
1002.78939	18557.4375
1006.51404	18732.6375
1010.23611	18762.3375
1013.95561	18866.4375
1017.67255	18910.1375
1021.38692	18828.6375
1025.09872	18707.9375
1028.80796	18749.4375
1032.51465	19039.4375
1036.21877	19359.9375
1039.92035	19410.5375
1043.61937	19249.1375
1047.31584	18944.3375
1051.00976	18683.2375
1054.70114	18562.2375
1058.38998	18596.9375
1062.07627	18677.2375
1065.76003	18767.7375
1069.44126	18825.5375
1073.11995	18908.3375
1076.79611	18991.8375
1080.46974	19083.3375
1084.14085	19168.6375
1087.80943	19297.8375
1091.47549	19411.9375
1095.13903	19394.3375
1098.80005	19277.7375
1102.45857	19092.7375
1106.11456	18917.8375
1109.76805	18871.2375
1113.41903	18966.6375
1117.06751	19065.3375
1120.71348	19219.1375
1124.35696	19365.7375
1127.99793	19517.5375
1131.63641	19650.2375
1135.2724	19551.9375
1138.90589	19366.6375
1142.5369	19258.1375
1146.16542	19207.6375
1149.79145	19274.4375
1153.415	19403.6375
1157.03607	19636.5375
1160.65467	19962.2375
1164.27079	20537.6375
1167.88443	21284.1375
1171.49561	22184.1375
1175.10432	23317.6375
1178.71056	24762.9375
1182.31434	26102.4375
1185.91565	26927.8375
1189.51451	26907.5375
1193.11091	26383.7375
1196.70485	25578.3375
1200.29634	24725.3375
1203.88538	24170.3375
1207.47197	23707.5375
1211.05612	23338.3375
1214.63782	22897.3375
1218.21708	22563.8375
1221.79391	22353.9375
1225.36829	22219.7375
1228.94024	21972.0375
1232.50976	21681.9375
1236.07685	21418.3375
1239.6415	21313.4375
1243.20374	21358.8375
1246.76355	21484.5375
1250.32093	21693.7375
1253.8759	22054.6375
1257.42845	22451.6375
1260.97859	22857.9375
1264.52631	23249.4375
1268.07163	23646.6375
1271.61453	24144.3375
1275.15503	24711.2375
1278.69312	25205.4375
1282.22882	25702.4375
1285.76211	26169.4375
1289.29301	26706.2375
1292.82151	27461.4375
1296.34761	28544.6375
1299.87133	29869.3375
1303.39266	31302.2375
1306.9116	32806.1375
1310.42815	34253.9375
1313.94233	35127.5375
1317.45412	35099.0375
1320.96354	34573.5375
1324.47058	33928.0375
1327.97525	33377.3375
1331.47754	33064.7375
1334.97747	32950.6375
1338.47502	32996.3375
1341.97022	33069.0375
1345.46305	32828.7375
1348.95352	32467.7375
1352.44163	32212.0375
1355.92738	32300.7375
1359.41078	33071.8375
1362.89183	33862.2375
1366.37053	33279.2375
1369.84688	30949.9375
1373.32088	28337.1375
1376.79254	26550.5375
1380.26186	25854.0375
1383.72883	25780.5375
1387.19347	25844.3375
1390.65578	25817.9375
1394.11575	25859.9375
1397.57339	26180.7375
1401.0287	26634.9375
1404.48168	27059.0375
1407.93234	27157.2375
1411.38068	26912.5375
1414.82669	26272.0375
1418.27039	25385.3375
1421.71177	24424.3375
1425.15083	23629.9375
1428.58758	23112.9375
1432.02203	23091.4375
1435.45416	23404.7375
1438.88399	23860.7375
1442.31151	24298.9375
1445.73673	24682.5375
1449.15965	25064.4375
1452.58027	25257.9375
1455.9986	25444.0375
1459.41463	25568.2375
1462.82837	25837.3375
1466.23982	26147.6375
1469.64898	26444.7375
1473.05586	26585.2375
1476.46045	26585.9375
1479.86276	26433.4375
1483.26279	26190.0375
1486.66054	26008.0375
1490.05602	25942.7375
1493.44922	25990.2375
1496.84016	26031.5375
1500.22882	26284.2375
1503.61521	26840.5375
1506.99934	27573.4375
1510.38121	28341.5375
1513.76081	28612.5375
1517.13816	28207.3375
1520.51324	27383.4375
1523.88607	26607.6375
1527.25665	26162.4375
1530.62498	25975.6375
1533.99105	25920.6375
1537.35488	25871.0375
1540.71647	25750.8375
1544.07581	25467.6375
1547.4329	25098.1375
1550.78776	24724.2375
1554.14038	24485.1375
1557.49077	24395.9375
1560.83892	24330.9375
1564.18484	24298.2375
1567.52853	24284.2375
1570.86999	24377.7375
1574.20922	24637.9375
1577.54624	24892.8375
1580.88103	24966.7375
1584.2136	25125.6375
1587.54395	25648.8375
1590.87208	26472.5375
1594.19801	27638.7375
1597.52172	28892.0375
1600.84321	29372.8375
1604.16251	28512.9375
1607.47959	26848.6375
1610.79447	25026.0375
1614.10715	23368.8375
1617.41763	22009.0375
1620.7259	20965.4375
1624.03199	20442.4375
1627.33587	20370.3375
1630.63757	20717.8375
1633.93707	21565.4375
1637.23439	22966.0375
1640.52951	24857.3375
1643.82246	26993.2375
1647.11321	28730.9375
1650.40179	28994.4375
1653.68819	27622.7375
1656.97241	24985.1375
1660.25446	22338.0375
1663.53433	20298.1375
1666.81203	18966.6375
1670.08756	18029.8375
1673.36092	17515.8375
1676.63211	17097.8375
1679.90115	16851.2375
1683.16801	16648.6375
1686.43272	16521.8375
1689.69527	16399.2375
1692.95567	16319.4375
1696.2139	16267.9375
1699.46999	16245.0375
1702.72392	16205.3375
1705.97571	16141.0375
1709.22535	16119.4375
1712.47284	16060.9375
1715.71819	16053.3375
1718.96139	16032.7375
1722.20246	15991.5375
1725.44139	15927.9375
1728.67818	15857.6375
1731.91284	15786.6375
1735.14537	15693.3375
1738.37576	15685.3375
1741.60403	15647.8375
1744.83017	15625.4375
1748.05418	15572.0375
1751.27607	15537.8375
1754.49584	15579.3375
1757.71349	15572.2375
1760.92903	15543.5375
1764.14244	15521.6375
1767.35375	15520.0375
1770.56294	15449.1375
1773.77002	15454.0375
1776.97499	15449.1375
1780.17785	15395.5375
1783.37861	15364.3375
1786.57727	15329.9375
1789.77382	15322.8375
1792.96828	15288.6375
1796.16064	15264.2375
1799.3509	15241.1375
1802.53907	15239.7375
1805.72514	15158.4375
1808.90913	15125.7375
1812.09102	15147.6375
1815.27083	15081.9375
1818.44856	15045.3375
1821.6242	15038.9375
1824.79776	15025.2375
1827.96924	14987.4375
1831.13864	14972.1375
1834.30597	14974.2375
1837.47122	14983.9375
1840.6344	14946.7375
1843.7955	14956.7375
1846.95454	14953.9375
1850.11151	14940.7375
1853.26642	14931.5375
1856.41926	14935.3375
1859.57004	14952.0375
1862.71876	14898.0375
1865.86542	14907.5375
1869.01003	14873.1375
1872.15258	14908.6375
1875.29308	14912.2375
1878.43152	14879.8375
1881.56792	14859.5375
1884.70227	14848.1375
1887.83457	14840.7375
1890.96482	14806.8375
1894.09304	14779.5375
1897.21921	14771.7375
1900.34335	14756.6375
1903.46544	14756.7375
1906.58551	14744.6375
1909.70353	14715.2375
1912.81953	14711.7375
1915.93349	14711.9375
1919.04543	14636.3375
1922.15534	14606.5375
1925.26322	14599.4375
1928.36908	14573.3375
1931.47292	14557.6375
1934.57473	14544.0375
1937.67453	14518.6375
1940.77232	14475.6375
1943.86808	14433.1375
1946.96184	14353.4375
1950.05358	14314.8375
1953.14331	14289.1375
1956.23103	14252.9375
1959.31675	14199.7375
1962.40046	14152.8375
1965.48217	14135.9375
1968.56188	14085.5375
1971.63959	14044.1375
1974.7153	14006.8375
1977.78901	13958.3375
1980.86073	13928.7375
1983.93046	13911.0375
1986.99819	13883.4375
1990.06394	13825.5375
1993.1277	13806.5375
1996.18947	13742.7375
1999.24925	13686.2375
2002.30706	13669.1375
2005.36288	13634.6375
2008.41672	13569.0375
2011.46859	13536.5375
2014.51848	13533.1375
2017.56639	13537.1375
2020.61233	13442.9375
2023.6563	13425.0375
2026.6983	13417.3375
2029.73833	13375.3375
2032.7764	13361.2375
2035.8125	13348.0375
2038.84664	13287.5375
2041.87881	13278.5375
2044.90903	13255.3375
2047.93729	13228.6375
2050.96359	13213.6375
2053.98794	13197.0375
2057.01034	13198.1375
2060.03078	13171.0375
2063.04927	13176.5375
2066.06582	13163.3375
2069.08042	13179.6375
2072.09307	13157.7375
2075.10378	13136.5375
2078.11255	13157.4375
2081.11938	13133.8375
2084.12426	13128.5375
2087.12722	13123.3375
2090.12824	13113.4375
2093.12732	13096.0375
2096.12447	13132.3375
2099.11969	13125.5375
2102.11299	13098.8375
2105.10435	13105.3375
2108.09379	13124.7375
2111.08131	13105.0375
2114.0669	13112.1375
2117.05057	13127.9375
2120.03233	13168.9375
2123.01216	13173.1375
2125.99008	13163.4375
2128.96609	13164.1375
2131.94018	13167.5375
2134.91236	13198.6375
2137.88263	13211.9375
2140.851	13201.6375
2143.81746	13221.3375
2146.78201	13217.5375
2149.74466	13217.4375
2152.7054	13216.8375
2155.66425	13231.6375
2158.6212	13244.4375
2161.57625	13209.8375
2164.52941	13218.0375
2167.48067	13224.8375
2170.43004	13216.9375
2173.37752	13197.1375
2176.32311	13214.8375
2179.26681	13246.0375
2182.20863	13208.3375
2185.14856	13223.4375
2188.08661	13198.9375
2191.02278	13208.6375
2193.95707	13216.7375
2196.88948	13219.7375
2199.82001	13210.4375
2202.74867	13179.5375
2205.67545	13189.4375
2208.60037	13169.5375
2211.52341	13150.0375
2214.44458	13134.2375
2217.36388	13096.3375
2220.28132	13084.5375
2223.1969	13088.8375
2226.11061	13064.1375
2229.02246	13009.6375
2231.93245	13015.7375
2234.84058	12965.6375
2237.74686	12973.4375
2240.65128	12942.4375
2243.55385	12925.8375
2246.45456	12877.5375
2249.35343	12875.5375
2252.25044	12860.1375
2255.14561	12834.8375
2258.03893	12854.6375
2260.93041	12799.4375
2263.82004	12756.5375
2266.70783	12736.0375
2269.59378	12712.6375
2272.4779	12676.7375
2275.36017	12639.2375
2278.24061	12628.3375
2281.11922	12612.8375
2283.996	12609.6375
2286.87094	12605.1375
2289.74405	12604.7375
2292.61534	12579.0375
2295.4848	12578.4375
2298.35243	12560.6375
2301.21824	12562.5375
2304.08223	12577.9375
2306.94439	12578.2375
2309.80474	12529.7375
2312.66327	12571.6375
2315.51999	12549.0375
2318.37489	12541.1375
2321.22797	12490.9375
2324.07925	12494.7375
2326.92871	12490.8375
2329.77637	12470.9375
2332.62222	12447.7375
2335.46626	12435.4375
2338.3085	12428.1375
2341.14893	12444.2375
2343.98756	12438.9375
2346.8244	12439.0375
2349.65943	12436.1375
2352.49267	12418.3375
2355.32411	12419.0375
2358.15376	12428.4375
2360.98161	12423.3375
2363.80768	12412.0375
2366.63195	12402.4375
2369.45444	12346.6375
2372.27514	12325.3375
2375.09405	12338.8375
2377.91118	12319.0375
2380.72652	12292.3375
2383.54009	12268.1375
2386.35187	12226.5375
2389.16188	12208.6375
2391.97011	12196.7375
2394.77657	12166.5375
2397.58125	12156.5375
2400.38416	12106.9375
2403.18529	12105.3375
2405.98466	12103.9375
2408.78226	12060.7375
2411.57809	12029.1375
2414.37216	12000.7375
2417.16446	12010.2375
2419.955	11973.7375
2422.74378	11989.7375
2425.5308	11994.8375
2428.31606	11992.4375
2431.09956	11992.5375
2433.88131	11967.0375
2436.6613	11949.8375
2439.43954	11959.5375
2442.21603	11955.0375
2444.99077	11916.3375
2447.76377	11962.2375
2450.53501	11910.6375
2453.30451	11894.7375
2456.07226	11868.7375
2458.83827	11910.2375
2461.60254	11913.9375
2464.36507	11887.2375
2467.12586	11881.3375
2469.88492	11863.2375
2472.64224	11870.6375
2475.39782	11860.7375
2478.15167	11873.7375
2480.90379	11858.7375
2483.65417	11847.0375
2486.40283	11883.1375
2489.14976	11879.6375
2491.89497	11872.9375
2494.63845	11891.6375
2497.3802	11861.7375
2500.12024	11884.6375
2502.85855	11859.8375
2505.59514	11842.5375
2508.33002	11858.8375
2511.06318	11819.8375
2513.79462	11829.4375
2516.52435	11803.0375
2519.25237	11772.8375
2521.97867	11769.8375
2524.70327	11787.7375
2527.42616	11765.1375
2530.14734	11769.3375
2532.86681	11768.3375
2535.58458	11765.3375
2538.30065	11754.9375
2541.01501	11767.5375
2543.72768	11751.9375
2546.43864	11718.6375
2549.14791	11694.5375
2551.85548	11694.5375
2554.56136	11683.9375
2557.26554	11657.5375
2559.96803	11620.3375
2562.66883	11614.6375
2565.36794	11579.8375
2568.06536	11554.0375
2570.7611	11561.7375
2573.45514	11552.7375
2576.14751	11539.1375
2578.83819	11531.5375
2581.52719	11523.2375
2584.21451	11506.7375
2586.90015	11495.5375
2589.58411	11491.0375
2592.2664	11493.3375
2594.94701	11457.7375
2597.62594	11465.9375
2600.30321	11455.2375
2602.9788	11410.3375
2605.65273	11401.0375
2608.32498	11418.3375
2610.99557	11407.5375
2613.66449	11382.8375
2616.33175	11408.5375
2618.99734	11388.6375
2621.66128	11379.6375
2624.32355	11380.5375
2626.98416	11368.4375
2629.64311	11360.6375
2632.30041	11368.2375
2634.95605	11351.3375
2637.61004	11327.2375
2640.26238	11301.9375
2642.91306	11317.9375
2645.56209	11302.6375
2648.20948	11271.2375
2650.85521	11285.3375
2653.4993	11294.7375
2656.14175	11264.6375
2658.78255	11310.3375
2661.42171	11286.1375
2664.05923	11300.4375
2666.6951	11321.4375
2669.32934	11306.4375
2671.96194	11314.7375
2674.59291	11301.4375
2677.22224	11297.4375
2679.84993	11306.9375
2682.476	11311.7375
2685.10043	11290.5375
2687.72324	11281.7375
2690.34441	11286.6375
2692.96396	11308.8375
2695.58188	11257.3375
2698.19818	11259.3375
2700.81285	11283.5375
2703.4259	11265.6375
2706.03733	11279.7375
2708.64714	11277.4375
2711.25533	11298.1375
2713.86191	11277.9375
2716.46687	11285.8375
2719.07021	11311.3375
2721.67194	11301.0375
2724.27206	11289.5375
2726.87057	11322.6375
2729.46747	11308.4375
2732.06276	11321.0375
2734.65644	11304.2375
2737.24852	11318.2375
2739.83899	11301.6375
2742.42786	11294.0375
2745.01513	11283.5375
2747.60079	11284.4375
2750.18486	11260.7375
2752.76733	11245.8375
2755.3482	11228.8375
2757.92747	11236.3375
2760.50515	11186.8375
2763.08123	11214.4375
2765.65573	11200.8375
2768.22863	11175.8375
2770.79994	11168.3375
2773.36967	11185.3375
2775.9378	11182.8375
2778.50435	11177.4375
2781.06932	11168.3375
2783.6327	11154.9375
2786.1945	11177.2375
2788.75471	11159.6375
2791.31335	11134.9375
2793.87041	11118.0375
2796.42589	11115.7375
2798.97979	11114.0375
2801.53212	11066.4375
2804.08288	11068.8375
2806.63206	11043.3375
2809.17967	11006.0375
2811.72571	10973.4375
2814.27018	10957.4375
2816.81308	10934.3375
2819.35442	10909.4375
2821.89419	10885.4375
2824.43239	10892.2375
2826.96904	10873.2375
2829.50412	10882.3375
2832.03763	10867.6375
2834.56959	10871.0375
2837.1	10847.9375
2839.62884	10846.7375
2842.15613	10870.8375
2844.68186	10878.7375
2847.20604	10906.5375
2849.72867	10904.4375
2852.24974	10899.0375
2854.76927	10887.3375
2857.28724	10845.8375
2859.80367	10845.6375
2862.31855	10821.3375
2864.83189	10801.6375
2867.34368	10799.8375
2869.85393	10790.7375
2872.36264	10795.0375
2874.8698	10784.3375
2877.37543	10777.0375
2879.87952	10788.6375
2882.38207	10779.8375
2884.88308	10780.3375
2887.38256	10789.0375
2889.88051	10786.3375
2892.37692	10776.3375
2894.8718	10782.5375
2897.36515	10810.6375
2899.85698	10789.6375
2902.34727	10834.9375
2904.83604	10826.5375
2907.32328	10859.9375
2909.809	10853.7375
2912.29319	10857.3375
2914.77587	10855.0375
2917.25702	10864.8375
2919.73665	10860.1375
2922.21476	10863.7375
2924.69136	10835.0375
2927.16644	10829.4375
2929.64	10814.8375
2932.11205	10791.7375
2934.58258	10787.5375
2937.05161	10800.0375
2939.51912	10815.4375
2941.98513	10786.6375
2944.44962	10767.5375
2946.91261	10733.2375
2949.37409	10747.6375
2951.83407	10736.1375
2954.29254	10737.4375
2956.74951	10719.0375
2959.20498	10717.2375
2961.65895	10717.9375
2964.11142	10701.3375
2966.56239	10669.0375
2969.01186	10706.3375
2971.45984	10646.7375
2973.90632	10653.7375
2976.35131	10648.9375
2978.7948	10619.1375
2981.23681	10590.8375
2983.67732	10546.0375
2986.11635	10580.7375
2988.55388	10526.6375
2990.98993	10476.9375
2993.4245	10468.4375
2995.85758	10471.0375
2998.28917	10440.1375
3000.71928	10422.3375
3003.14791	10396.4375
3005.57506	10400.8375
3008.00073	10370.7375
3010.42493	10371.4375
3012.84764	10338.7375
3015.26888	10330.5375
3017.68865	10310.6375
3020.10694	10323.0375
3022.52376	10306.0375
3024.9391	10296.7375
3027.35298	10270.6375
3029.76539	10265.1375
3032.17632	10300.2375
3034.5858	10268.0375
3036.9938	10289.2375
3039.40034	10256.1375
3041.80542	10272.4375
3044.20903	10251.6375
3046.61118	10230.7375
3049.01187	10203.2375
3051.4111	10190.8375
3053.80888	10179.2375
3056.20519	10170.6375
3058.60005	10174.7375
3060.99345	10127.4375
3063.3854	10116.2375
3065.7759	10089.3375
3068.16494	10071.7375
3070.55254	10053.8375
3072.93868	10028.5375
3075.32338	9995.5375
3077.70662	10008.2375
3080.08842	9979.1375
3082.46878	9960.2375
3084.84769	9959.4375
3087.22515	9951.6375
3089.60118	9973.4375
3091.97576	9935.6375
3094.3489	9958.2375
3096.72061	9967.9375
3099.09087	9968.0375
3101.4597	9935.7375
3103.82709	9954.9375
3106.19305	9946.6375
3108.55757	9961.2375
3110.92066	9924.0375
3113.28232	9926.1375
3115.64255	9910.1375
3118.00134	9888.4375
3120.35871	9875.4375
3122.71466	9851.8375
3125.06917	9831.4375
3127.42226	9791.2375
3129.77393	9805.8375
3132.12417	9787.3375
3134.47299	9811.1375
3136.82039	9779.8375
3139.16636	9789.1375
3141.51092	9824.6375
3143.85406	9809.5375
3146.19579	9798.5375
3148.53609	9802.9375
3150.87499	9813.0375
3153.21246	9828.4375
3155.54853	9853.1375
3157.88318	9825.2375
3160.21642	9837.0375
3162.54826	9823.1375
3164.87868	9847.7375
3167.2077	9833.0375
3169.5353	9858.4375
3171.86151	9851.9375
3174.18631	9845.9375
3176.5097	9844.3375
3178.83169	9841.3375
3181.15228	9847.5375
3183.47147	9844.0375
3185.78926	9838.8375
3188.10565	9840.9375
3190.42065	9819.3375
3192.73424	9799.3375
3195.04645	9781.8375
3197.35725	9813.5375
3199.66667	9803.5375
3201.97469	9805.6375
3204.28132	9798.4375
3206.58656	9832.2375
3208.8904	9836.0375
3211.19287	9813.3375
3213.49394	9830.4375
3215.79363	9837.3375
3218.09193	9851.8375
3220.38884	9848.8375
3222.68438	9842.3375
3224.97853	9815.1375
3227.2713	9829.2375
3229.56269	9822.6375
3231.8527	9809.7375
3234.14133	9803.7375
3236.42858	9794.6375
3238.71446	9778.4375
3240.99896	9772.3375
3243.28209	9757.6375
3245.56384	9706.9375
3247.84423	9747.6375
3250.12324	9724.0375
3252.40088	9716.0375
3254.67715	9714.3375
3256.95205	9682.7375
3259.22558	9677.0375
3261.49775	9673.1375
3263.76855	9630.3375
3266.03799	9663.8375
3268.30606	9638.7375
3270.57277	9628.1375
3272.83812	9630.6375
3275.10211	9598.7375
3277.36474	9614.4375
3279.62601	9612.3375
3281.88593	9565.7375
3284.14448	9560.4375
3286.40168	9560.0375
3288.65753	9573.6375
3290.91202	9575.4375
3293.16516	9547.5375
3295.41695	9525.9375
3297.66738	9490.7375
3299.91647	9430.7375
3302.16421	9361.3375
3304.4106	9328.2375
3306.65564	9275.1375
3308.89933	9231.9375
3311.14169	9174.2375
3313.38269	9077.2375
3315.62236	9028.0375
3317.86068	8960.8375
3320.09766	8917.6375
3322.3333	8842.6375
3324.5676	8791.8375
3326.80056	8614.1375
3329.03219	8585.5375
3331.26248	2.6375
3333.49143	-1.1625
3335.71905	-0.9625
