Data from AgNP_FTO_APTES_UA_10uM_CRN_2uM_R6G_10uM_NaF_0.1M_Addition_RamanShift__5__14-02-40-581.txt Node

Date: Thu Feb 10 14:02:40 GMT 2022
User: TCL
Spectrometer: QEP01345
Trigger mode: 4
Integration Time (sec): 7.000000E0
Scans to average: 10
Electric dark correction enabled: true
Nonlinearity correction enabled: false
Boxcar width: 0
XAxis mode: Raman Shifts
Number of Pixels in Spectrum: 1044
>>>>>Begin Spectral Data<<<<<
46.04893	0.4875
50.45542	-1.4125
54.85868	-1.6125
59.25871	-0.3125
63.6555	66.6875
68.04907	68.8875
72.43941	78.7875
76.82654	75.5875
81.21044	81.2875
85.59113	78.6875
89.96862	87.1875
94.34289	90.1875
98.71396	91.9875
103.08183	121.0875
107.4465	101.6875
111.80798	94.1875
116.16626	102.9875
120.52136	109.7875
124.87327	107.7875
129.222	113.8875
133.56755	121.4875
137.90993	130.9875
142.24913	147.0875
146.58517	159.4875
150.91804	190.5875
155.24774	222.6875
159.57429	277.4875
163.89768	358.7875
168.21792	481.1875
172.53501	657.1875
176.84895	916.1875
181.15975	1293.8875
185.46741	1798.1875
189.77193	2505.1875
194.07331	3359.0875
198.37157	4318.4875
202.6667	5336.5875
206.9587	6347.3875
211.24758	7350.7875
215.53334	8374.3875
219.81599	9460.0875
224.09553	10641.7875
228.37195	11964.1875
232.64527	13380.0875
236.91549	14909.9875
241.18261	16336.4875
245.44663	17632.7875
249.70755	18785.6875
253.96539	19779.2875
258.22014	20615.0875
262.4718	21312.0875
266.72039	21843.2875
270.96589	22092.3875
275.20832	22109.1875
279.44768	21965.2875
283.68397	21739.2875
287.91719	21529.3875
292.14735	21532.8875
296.37445	21608.2875
300.59849	21890.8875
304.81948	22199.2875
309.03742	22369.2875
313.25231	22234.3875
317.46415	21699.7875
321.67296	20898.7875
325.87872	20200.3875
330.08145	19835.7875
334.28114	19810.3875
338.47781	19989.1875
342.67145	20283.7875
346.86207	20697.3875
351.04966	21215.4875
355.23424	21803.7875
359.4158	22216.8875
363.59435	22442.9875
367.76989	22624.9875
371.94243	22674.5875
376.11196	22735.6875
380.27849	22748.1875
384.44203	22770.4875
388.60257	22883.7875
392.76012	23065.4875
396.91468	23317.0875
401.06626	23742.2875
405.21485	23938.7875
409.36047	23729.6875
413.50311	23163.2875
417.64277	22733.2875
421.77947	22538.7875
425.9132	22572.6875
430.04396	22641.6875
434.17176	22683.8875
438.2966	22852.1875
442.41849	23204.2875
446.53742	23791.1875
450.6534	24470.0875
454.76644	24916.0875
458.87653	25078.3875
462.98368	24935.1875
467.08789	24651.8875
471.18916	24285.0875
475.2875	23902.8875
479.38291	23658.3875
483.4754	23377.8875
487.56496	23093.0875
491.6516	22782.7875
495.73531	22525.6875
499.81612	22413.0875
503.89401	22538.0875
507.96899	22672.6875
512.04106	22655.9875
516.11023	22657.4875
520.1765	22543.2875
524.23987	22414.9875
528.30034	22220.7875
532.35792	21985.6875
536.41261	21656.5875
540.46441	21354.3875
544.51333	21311.7875
548.55936	21557.8875
552.60252	22081.2875
556.64279	22688.3875
560.6802	23060.0875
564.71473	23238.8875
568.7464	23634.3875
572.7752	24287.5875
576.80114	24792.9875
580.82422	25226.5875
584.84444	25802.7875
588.86181	26462.2875
592.87633	26879.2875
596.888	26729.9875
600.89682	26162.0875
604.9028	26697.1875
608.90594	29681.0875
612.90624	33236.2875
616.90371	31291.8875
620.89834	25187.7875
624.89015	22437.2875
628.87913	22038.2875
632.86528	22144.9875
636.84862	22224.3875
640.82913	21857.3875
644.80683	21211.5875
648.78172	20734.0875
652.75379	20687.6875
656.72306	21030.1875
660.68952	21501.4875
664.65319	21362.5875
668.61405	20822.7875
672.57211	20654.7875
676.52738	20716.2875
680.47986	20724.1875
684.42955	20539.5875
688.37646	20405.5875
692.32058	20529.3875
696.26192	20865.9875
700.20048	21200.0875
704.13626	21346.1875
708.06928	21319.9875
711.99952	21173.1875
715.927	21106.4875
719.85171	21178.4875
723.77365	21164.7875
727.69284	20811.5875
731.60928	20543.0875
735.52295	20398.8875
739.43388	20430.9875
743.34206	20466.4875
747.24749	20599.8875
751.15017	20775.4875
755.05012	21162.6875
758.94733	21909.2875
762.8418	23339.0875
766.73354	25571.6875
770.62254	27750.4875
774.50882	28333.5875
778.39237	26910.1875
782.27321	24662.9875
786.15132	22707.0875
790.02671	21503.5875
793.89938	20905.7875
797.76935	20630.7875
801.6366	20512.1875
805.50115	20471.5875
809.36299	20325.7875
813.22213	20161.4875
817.07857	20041.0875
820.93231	20005.2875
824.78336	19923.4875
828.63172	19856.2875
832.47738	19817.9875
836.32036	19843.5875
840.16066	19888.1875
843.99827	19923.5875
847.8332	19875.6875
851.66546	19792.0875
855.49504	19835.7875
859.32195	19830.5875
863.1462	19731.3875
866.96777	19675.4875
870.78668	19640.3875
874.60293	19643.7875
878.41652	19663.1875
882.22745	19744.9875
886.03573	19825.9875
889.84136	19831.3875
893.64433	19770.3875
897.44466	19662.0875
901.24235	19627.0875
905.0374	19587.3875
908.8298	19518.8875
912.61957	19495.3875
916.40671	19641.4875
920.19121	19859.6875
923.97308	20117.0875
927.75233	20227.9875
931.52895	20164.4875
935.30295	19900.5875
939.07433	19497.7875
942.84309	19142.6875
946.60924	19000.4875
950.37278	18899.8875
954.13371	18844.7875
957.89203	18809.5875
961.64774	18785.8875
965.40086	18790.5875
969.15137	18739.9875
972.89929	18708.7875
976.64461	18637.3875
980.38733	18667.3875
984.12747	18736.5875
987.86502	18863.6875
991.59999	19069.5875
995.33237	19323.4875
999.06217	19759.4875
1002.78939	20302.4875
1006.51404	20677.1875
1010.23611	20969.8875
1013.95561	21237.6875
1017.67255	21291.9875
1021.38692	21032.7875
1025.09872	20727.9875
1028.80796	20658.7875
1032.51465	20975.0875
1036.21877	21433.8875
1039.92035	21593.5875
1043.61937	21523.7875
1047.31584	21210.8875
1051.00976	20841.4875
1054.70114	20612.3875
1058.38998	20631.4875
1062.07627	20693.3875
1065.76003	20870.2875
1069.44126	21060.9875
1073.11995	21353.5875
1076.79611	21725.1875
1080.46974	22029.6875
1084.14085	22288.8875
1087.80943	22634.5875
1091.47549	22861.7875
1095.13903	22783.8875
1098.80005	22335.1875
1102.45857	21810.0875
1106.11456	21459.7875
1109.76805	21310.5875
1113.41903	21361.7875
1117.06751	21542.0875
1120.71348	21881.0875
1124.35696	22292.4875
1127.99793	22673.8875
1131.63641	22811.2875
1135.2724	22527.5875
1138.90589	22173.9875
1142.5369	22030.7875
1146.16542	22008.3875
1149.79145	22044.0875
1153.415	22174.9875
1157.03607	22516.8875
1160.65467	23117.7875
1164.27079	24120.8875
1167.88443	25517.7875
1171.49561	27216.9875
1175.10432	29444.2875
1178.71056	32311.9875
1182.31434	35028.5875
1185.91565	36452.2875
1189.51451	36317.2875
1193.11091	35151.4875
1196.70485	33439.7875
1200.29634	31766.2875
1203.88538	30375.3875
1207.47197	29393.8875
1211.05612	28605.1875
1214.63782	27891.3875
1218.21708	27268.9875
1221.79391	26745.0875
1225.36829	26443.8875
1228.94024	26182.4875
1232.50976	25783.7875
1236.07685	25405.8875
1239.6415	25160.3875
1243.20374	25168.8875
1246.76355	25324.8875
1250.32093	25706.2875
1253.8759	26289.8875
1257.42845	27075.3875
1260.97859	27937.1875
1264.52631	28886.0875
1268.07163	29841.2875
1271.61453	30848.6875
1275.15503	31680.7875
1278.69312	32464.6875
1282.22882	33145.7875
1285.76211	33890.1875
1289.29301	34895.5875
1292.82151	36308.3875
1296.34761	38100.3875
1299.87133	40354.2875
1303.39266	43185.5875
1306.9116	46203.3875
1310.42815	48993.4875
1313.94233	50336.9875
1317.45412	49739.3875
1320.96354	48120.7875
1324.47058	46683.5875
1327.97525	45468.3875
1331.47754	44612.3875
1334.97747	44131.6875
1338.47502	43909.4875
1341.97022	43851.2875
1345.46305	43986.7875
1348.95352	44192.5875
1352.44163	44647.0875
1355.92738	45721.0875
1359.41078	48136.2875
1362.89183	50452.2875
1366.37053	49258.8875
1369.84688	44246.4875
1373.32088	38706.2875
1376.79254	35127.8875
1380.26186	33700.8875
1383.72883	33282.8875
1387.19347	33069.4875
1390.65578	32683.3875
1394.11575	32397.3875
1397.57339	32486.1875
1401.0287	32793.4875
1404.48168	32978.7875
1407.93234	32934.0875
1411.38068	32499.3875
1414.82669	31660.1875
1418.27039	30655.0875
1421.71177	29635.9875
1425.15083	28756.1875
1428.58758	28345.4875
1432.02203	28668.9875
1435.45416	29398.2875
1438.88399	30205.2875
1442.31151	30748.3875
1445.73673	31054.5875
1449.15965	31298.3875
1452.58027	31432.4875
1455.9986	31443.1875
1459.41463	31665.1875
1462.82837	32101.5875
1466.23982	32594.8875
1469.64898	33045.1875
1473.05586	33368.1875
1476.46045	33398.2875
1479.86276	33247.3875
1483.26279	33055.1875
1486.66054	33182.7875
1490.05602	33549.2875
1493.44922	34335.3875
1496.84016	35391.2875
1500.22882	37057.1875
1503.61521	39443.3875
1506.99934	42086.1875
1510.38121	44014.3875
1513.76081	44208.5875
1517.13816	42228.1875
1520.51324	39250.6875
1523.88607	36723.0875
1527.25665	35285.4875
1530.62498	34636.8875
1533.99105	34294.5875
1537.35488	33838.3875
1540.71647	33220.5875
1544.07581	32443.7875
1547.4329	31671.3875
1550.78776	31027.6875
1554.14038	30695.8875
1557.49077	30528.1875
1560.83892	30564.4875
1564.18484	30668.0875
1567.52853	30968.2875
1570.86999	31414.4875
1574.20922	31889.4875
1577.54624	32165.9875
1580.88103	31895.4875
1584.2136	31552.2875
1587.54395	31864.3875
1590.87208	33116.2875
1594.19801	35052.8875
1597.52172	37017.7875
1600.84321	37729.2875
1604.16251	36242.0875
1607.47959	33833.6875
1610.79447	31126.5875
1614.10715	28393.4875
1617.41763	26087.0875
1620.7259	24505.4875
1624.03199	23721.0875
1627.33587	23681.4875
1630.63757	24404.1875
1633.93707	26029.6875
1637.23439	28653.2875
1640.52951	32547.8875
1643.82246	37235.3875
1647.11321	41087.9875
1650.40179	42176.4875
1653.68819	39422.9875
1656.97241	33885.6875
1660.25446	28415.8875
1663.53433	24550.6875
1666.81203	22011.0875
1670.08756	20477.1875
1673.36092	19566.6875
1676.63211	18958.8875
1679.90115	18515.5875
1683.16801	18210.3875
1686.43272	17969.0875
1689.69527	17792.3875
1692.95567	17643.9875
1696.2139	17572.1875
1699.46999	17526.8875
1702.72392	17450.8875
1705.97571	17373.3875
1709.22535	17351.3875
1712.47284	17358.8875
1715.71819	17324.3875
1718.96139	17253.8875
1722.20246	17188.4875
1725.44139	17073.3875
1728.67818	16937.0875
1731.91284	16825.4875
1735.14537	16750.6875
1738.37576	16673.2875
1741.60403	16621.7875
1744.83017	16574.6875
1748.05418	16510.4875
1751.27607	16468.5875
1754.49584	16436.7875
1757.71349	16419.2875
1760.92903	16393.9875
1764.14244	16396.5875
1767.35375	16396.9875
1770.56294	16317.7875
1773.77002	16295.6875
1776.97499	16225.5875
1780.17785	16195.4875
1783.37861	16159.0875
1786.57727	16093.9875
1789.77382	16107.0875
1792.96828	16063.4875
1796.16064	16068.7875
1799.3509	16005.5875
1802.53907	15990.5875
1805.72514	15906.4875
1808.90913	15879.1875
1812.09102	15828.6875
1815.27083	15809.7875
1818.44856	15793.9875
1821.6242	15760.2875
1824.79776	15725.3875
1827.96924	15704.8875
1831.13864	15703.4875
1834.30597	15732.5875
1837.47122	15699.0875
1840.6344	15716.2875
1843.7955	15713.6875
1846.95454	15695.2875
1850.11151	15671.7875
1853.26642	15655.8875
1856.41926	15649.8875
1859.57004	15653.2875
1862.71876	15629.9875
1865.86542	15594.9875
1869.01003	15572.0875
1872.15258	15603.0875
1875.29308	15522.4875
1878.43152	15519.2875
1881.56792	15492.8875
1884.70227	15510.7875
1887.83457	15470.5875
1890.96482	15471.9875
1894.09304	15410.7875
1897.21921	15377.9875
1900.34335	15375.3875
1903.46544	15354.0875
1906.58551	15345.3875
1909.70353	15310.9875
1912.81953	15296.8875
1915.93349	15250.5875
1919.04543	15222.3875
1922.15534	15217.1875
1925.26322	15154.0875
1928.36908	15129.7875
1931.47292	15078.1875
1934.57473	15083.3875
1937.67453	15008.1875
1940.77232	14970.8875
1943.86808	14911.7875
1946.96184	14873.1875
1950.05358	14828.5875
1953.14331	14805.0875
1956.23103	14775.4875
1959.31675	14704.5875
1962.40046	14685.3875
1965.48217	14651.0875
1968.56188	14607.4875
1971.63959	14563.4875
1974.7153	14542.7875
1977.78901	14490.3875
1980.86073	14445.0875
1983.93046	14419.3875
1986.99819	14374.7875
1990.06394	14306.0875
1993.1277	14270.0875
1996.18947	14182.3875
1999.24925	14172.8875
2002.30706	14128.5875
2005.36288	14099.3875
2008.41672	14035.7875
2011.46859	14007.3875
2014.51848	13983.1875
2017.56639	13923.6875
2020.61233	13904.8875
2023.6563	13895.8875
2026.6983	13830.7875
2029.73833	13786.2875
2032.7764	13770.5875
2035.8125	13746.3875
2038.84664	13706.3875
2041.87881	13707.9875
2044.90903	13677.6875
2047.93729	13659.0875
2050.96359	13665.4875
2053.98794	13622.2875
2057.01034	13602.8875
2060.03078	13579.8875
2063.04927	13572.4875
2066.06582	13570.8875
2069.08042	13564.6875
2072.09307	13544.0875
2075.10378	13536.8875
2078.11255	13547.5875
2081.11938	13533.1875
2084.12426	13464.1875
2087.12722	13517.3875
2090.12824	13510.4875
2093.12732	13514.7875
2096.12447	13515.8875
2099.11969	13488.2875
2102.11299	13542.7875
2105.10435	13536.6875
2108.09379	13517.1875
2111.08131	13541.7875
2114.0669	13532.4875
2117.05057	13543.1875
2120.03233	13553.5875
2123.01216	13579.0875
2125.99008	13560.2875
2128.96609	13585.0875
2131.94018	13601.0875
2134.91236	13602.9875
2137.88263	13589.0875
2140.851	13626.0875
2143.81746	13613.0875
2146.78201	13609.9875
2149.74466	13607.0875
2152.7054	13609.4875
2155.66425	13600.9875
2158.6212	13577.9875
2161.57625	13575.8875
2164.52941	13574.2875
2167.48067	13563.2875
2170.43004	13589.3875
2173.37752	13570.3875
2176.32311	13561.1875
2179.26681	13576.5875
2182.20863	13584.4875
2185.14856	13610.0875
2188.08661	13576.5875
2191.02278	13575.4875
2193.95707	13591.4875
2196.88948	13547.9875
2199.82001	13554.6875
2202.74867	13532.4875
2205.67545	13506.6875
2208.60037	13506.4875
2211.52341	13501.7875
2214.44458	13451.6875
2217.36388	13424.4875
2220.28132	13413.7875
2223.1969	13382.0875
2226.11061	13373.8875
2229.02246	13351.3875
2231.93245	13348.3875
2234.84058	13319.1875
2237.74686	13286.6875
2240.65128	13272.1875
2243.55385	13244.0875
2246.45456	13234.8875
2249.35343	13192.8875
2252.25044	13195.4875
2255.14561	13196.1875
2258.03893	13155.3875
2260.93041	13144.6875
2263.82004	13107.7875
2266.70783	13109.8875
2269.59378	13042.7875
2272.4779	12988.8875
2275.36017	12971.5875
2278.24061	12978.2875
2281.11922	12939.8875
2283.996	12917.2875
2286.87094	12925.2875
2289.74405	12887.1875
2292.61534	12889.9875
2295.4848	12833.9875
2298.35243	12870.3875
2301.21824	12880.5875
2304.08223	12876.4875
2306.94439	12862.4875
2309.80474	12873.0875
2312.66327	12892.5875
2315.51999	12878.9875
2318.37489	12911.5875
2321.22797	12849.6875
2324.07925	12837.7875
2326.92871	12822.3875
2329.77637	12831.5875
2332.62222	12807.1875
2335.46626	12804.4875
2338.3085	12782.4875
2341.14893	12757.5875
2343.98756	12801.6875
2346.8244	12811.9875
2349.65943	12792.0875
2352.49267	12765.8875
2355.32411	12791.2875
2358.15376	12794.9875
2360.98161	12793.4875
2363.80768	12821.5875
2366.63195	12772.9875
2369.45444	12732.7875
2372.27514	12725.2875
2375.09405	12707.1875
2377.91118	12665.4875
2380.72652	12669.7875
2383.54009	12637.8875
2386.35187	12573.3875
2389.16188	12539.9875
2391.97011	12542.1875
2394.77657	12506.7875
2397.58125	12486.2875
2400.38416	12476.0875
2403.18529	12467.6875
2405.98466	12426.4875
2408.78226	12400.5875
2411.57809	12394.4875
2414.37216	12387.1875
2417.16446	12386.5875
2419.955	12335.8875
2422.74378	12351.4875
2425.5308	12362.3875
2428.31606	12349.8875
2431.09956	12325.3875
2433.88131	12341.8875
2436.6613	12335.1875
2439.43954	12330.3875
2442.21603	12327.2875
2444.99077	12321.7875
2447.76377	12315.4875
2450.53501	12335.3875
2453.30451	12332.4875
2456.07226	12306.6875
2458.83827	12303.7875
2461.60254	12315.7875
2464.36507	12304.0875
2467.12586	12334.4875
2469.88492	12295.5875
2472.64224	12316.2875
2475.39782	12310.8875
2478.15167	12361.0875
2480.90379	12339.3875
2483.65417	12360.5875
2486.40283	12354.6875
2489.14976	12366.4875
2491.89497	12368.4875
2494.63845	12361.8875
2497.3802	12343.9875
2500.12024	12342.0875
2502.85855	12324.1875
2505.59514	12281.0875
2508.33002	12280.8875
2511.06318	12276.9875
2513.79462	12272.2875
2516.52435	12247.5875
2519.25237	12246.0875
2521.97867	12212.0875
2524.70327	12217.9875
2527.42616	12210.7875
2530.14734	12213.5875
2532.86681	12223.7875
2535.58458	12223.6875
2538.30065	12198.6875
2541.01501	12208.3875
2543.72768	12163.4875
2546.43864	12167.3875
2549.14791	12172.8875
2551.85548	12161.7875
2554.56136	12180.2875
2557.26554	12146.0875
2559.96803	12119.5875
2562.66883	12100.2875
2565.36794	12069.2875
2568.06536	12079.8875
2570.7611	12068.0875
2573.45514	12065.9875
2576.14751	12046.2875
2578.83819	12043.9875
2581.52719	12031.8875
2584.21451	12034.7875
2586.90015	12010.6875
2589.58411	12003.3875
2592.2664	12008.1875
2594.94701	11980.7875
2597.62594	11977.0875
2600.30321	11977.8875
2602.9788	11956.5875
2605.65273	11941.6875
2608.32498	11981.0875
2610.99557	11961.7875
2613.66449	11972.7875
2616.33175	11954.4875
2618.99734	11964.9875
2621.66128	11937.7875
2624.32355	11925.5875
2626.98416	11926.3875
2629.64311	11883.4875
2632.30041	11895.1875
2634.95605	11876.2875
2637.61004	11871.4875
2640.26238	11869.9875
2642.91306	11856.6875
2645.56209	11874.2875
2648.20948	11857.8875
2650.85521	11871.5875
2653.4993	11842.5875
2656.14175	11857.5875
2658.78255	11879.2875
2661.42171	11874.3875
2664.05923	11884.0875
2666.6951	11913.8875
2669.32934	11918.5875
2671.96194	11895.7875
2674.59291	11917.8875
2677.22224	11877.3875
2679.84993	11875.8875
2682.476	11888.0875
2685.10043	11888.4875
2687.72324	11879.2875
2690.34441	11858.8875
2692.96396	11864.8875
2695.58188	11839.2875
2698.19818	11838.3875
2700.81285	11863.1875
2703.4259	11859.6875
2706.03733	11880.2875
2708.64714	11875.3875
2711.25533	11881.1875
2713.86191	11873.5875
2716.46687	11907.7875
2719.07021	11910.7875
2721.67194	11957.3875
2724.27206	11932.9875
2726.87057	11932.7875
2729.46747	11925.4875
2732.06276	11947.5875
2734.65644	11957.2875
2737.24852	11971.6875
2739.83899	11923.2875
2742.42786	11962.2875
2745.01513	11886.5875
2747.60079	11894.2875
2750.18486	11895.1875
2752.76733	11882.3875
2755.3482	11894.2875
2757.92747	11887.0875
2760.50515	11840.5875
2763.08123	11819.7875
2765.65573	11833.8875
2768.22863	11835.9875
2770.79994	11835.9875
2773.36967	11818.7875
2775.9378	11805.3875
2778.50435	11814.8875
2781.06932	11842.5875
2783.6327	11839.0875
2786.1945	11821.4875
2788.75471	11825.7875
2791.31335	11799.6875
2793.87041	11797.3875
2796.42589	11785.3875
2798.97979	11766.0875
2801.53212	11755.9875
2804.08288	11743.9875
2806.63206	11700.8875
2809.17967	11684.8875
2811.72571	11660.9875
2814.27018	11671.5875
2816.81308	11636.8875
2819.35442	11610.5875
2821.89419	11561.8875
2824.43239	11604.1875
2826.96904	11576.7875
2829.50412	11587.5875
2832.03763	11541.8875
2834.56959	11543.9875
2837.1	11552.4875
2839.62884	11558.2875
2842.15613	11556.7875
2844.68186	11561.1875
2847.20604	11565.7875
2849.72867	11579.8875
2852.24974	11600.2875
2854.76927	11578.6875
2857.28724	11524.7875
2859.80367	11533.2875
2862.31855	11519.1875
2864.83189	11522.6875
2867.34368	11510.8875
2869.85393	11544.4875
2872.36264	11506.6875
2874.8698	11503.0875
2877.37543	11474.2875
2879.87952	11490.1875
2882.38207	11481.2875
2884.88308	11474.9875
2887.38256	11478.7875
2889.88051	11489.3875
2892.37692	11477.3875
2894.8718	11468.3875
2897.36515	11506.8875
2899.85698	11506.9875
2902.34727	11541.8875
2904.83604	11556.7875
2907.32328	11569.0875
2909.809	11574.0875
2912.29319	11570.1875
2914.77587	11592.1875
2917.25702	11585.4875
2919.73665	11559.1875
2922.21476	11555.5875
2924.69136	11507.6875
2927.16644	11509.5875
2929.64	11484.5875
2932.11205	11495.1875
2934.58258	11454.0875
2937.05161	11457.6875
2939.51912	11459.7875
2941.98513	11453.7875
2944.44962	11416.6875
2946.91261	11338.4875
2949.37409	11380.6875
2951.83407	11380.5875
2954.29254	11388.0875
2956.74951	11357.9875
2959.20498	11374.7875
2961.65895	11378.9875
2964.11142	11388.7875
2966.56239	11327.1875
2969.01186	11334.4875
2971.45984	11292.9875
2973.90632	11328.8875
2976.35131	11289.4875
2978.7948	11259.3875
2981.23681	11245.5875
2983.67732	11227.5875
2986.11635	11189.9875
2988.55388	11172.2875
2990.98993	11160.6875
2993.4245	11127.7875
2995.85758	11072.2875
2998.28917	11078.5875
3000.71928	11081.3875
3003.14791	11042.9875
3005.57506	11037.2875
3008.00073	11000.5875
3010.42493	10893.6875
3012.84764	10960.6875
3015.26888	10954.6875
3017.68865	10905.0875
3020.10694	10901.5875
3022.52376	10886.0875
3024.9391	10878.5875
3027.35298	10849.3875
3029.76539	10856.4875
3032.17632	10855.7875
3034.5858	10841.6875
3036.9938	10816.1875
3039.40034	10833.9875
3041.80542	10818.4875
3044.20903	10802.2875
3046.61118	10789.6875
3049.01187	10778.7875
3051.4111	10769.1875
3053.80888	10724.2875
3056.20519	10706.1875
3058.60005	10685.6875
3060.99345	10678.6875
3063.3854	10669.7875
3065.7759	10628.3875
3068.16494	10595.5875
3070.55254	10578.0875
3072.93868	10571.1875
3075.32338	10538.1875
3077.70662	10512.4875
3080.08842	10511.7875
3082.46878	10465.6875
3084.84769	10468.4875
3087.22515	10476.8875
3089.60118	10443.2875
3091.97576	10443.8875
3094.3489	10416.0875
3096.72061	10426.8875
3099.09087	10432.7875
3101.4597	10444.0875
3103.82709	10430.8875
3106.19305	10438.3875
3108.55757	10436.5875
3110.92066	10408.4875
3113.28232	10387.4875
3115.64255	10358.4875
3118.00134	10306.2875
3120.35871	10294.9875
3122.71466	10298.6875
3125.06917	10267.8875
3127.42226	10252.3875
3129.77393	10273.5875
3132.12417	10235.2875
3134.47299	10219.9875
3136.82039	10228.4875
3139.16636	10228.1875
3141.51092	10228.3875
3143.85406	10226.2875
3146.19579	10196.6875
3148.53609	10192.5875
3150.87499	10209.0875
3153.21246	10224.2875
3155.54853	10256.9875
3157.88318	10270.5875
3160.21642	10266.2875
3162.54826	10250.2875
3164.87868	10249.0875
3167.2077	10268.6875
3169.5353	10296.0875
3171.86151	10275.7875
3174.18631	10258.6875
3176.5097	10251.8875
3178.83169	10191.8875
3181.15228	10207.0875
3183.47147	10233.4875
3185.78926	10213.1875
3188.10565	10194.4875
3190.42065	10177.7875
3192.73424	10161.1875
3195.04645	10154.4875
3197.35725	10128.9875
3199.66667	10127.4875
3201.97469	10138.0875
3204.28132	10169.0875
3206.58656	10156.2875
3208.8904	10167.3875
3211.19287	10182.8875
3213.49394	10164.6875
3215.79363	10158.3875
3218.09193	10170.2875
3220.38884	10165.7875
3222.68438	10169.4875
3224.97853	10176.5875
3227.2713	10185.6875
3229.56269	10147.3875
3231.8527	10146.7875
3234.14133	10134.8875
3236.42858	10102.0875
3238.71446	10079.8875
3240.99896	10061.5875
3243.28209	10044.0875
3245.56384	10022.0875
3247.84423	10016.0875
3250.12324	9985.0875
3252.40088	9980.6875
3254.67715	9977.8875
3256.95205	9988.1875
3259.22558	9990.0875
3261.49775	9955.7875
3263.76855	9984.1875
3266.03799	9934.7875
3268.30606	9960.1875
3270.57277	9921.3875
3272.83812	9888.9875
3275.10211	9901.6875
3277.36474	9858.3875
3279.62601	9866.4875
3281.88593	9848.9875
3284.14448	9885.0875
3286.40168	9861.9875
3288.65753	9877.5875
3290.91202	9843.9875
3293.16516	9841.1875
3295.41695	9830.6875
3297.66738	9762.7875
3299.91647	9700.7875
3302.16421	9599.1875
3304.4106	9586.7875
3306.65564	9542.8875
3308.89933	9466.0875
3311.14169	9404.0875
3313.38269	9336.5875
3315.62236	9251.5875
3317.86068	9188.5875
3320.09766	9112.0875
3322.3333	9059.3875
3324.5676	9018.6875
3326.80056	8903.0875
3329.03219	8823.9875
3331.26248	3.2875
3333.49143	0.0875
3335.71905	-0.8125
