Data from AgNP_FTO_APTES_UA_10uM_CRN_50uM_R6G_10uM_NaF_0.1M_Addition_RamanShift__9__16-53-00-792.txt Node

Date: Thu Feb 10 16:53:00 GMT 2022
User: TCL
Spectrometer: QEP01345
Trigger mode: 4
Integration Time (sec): 7.000000E0
Scans to average: 10
Electric dark correction enabled: true
Nonlinearity correction enabled: false
Boxcar width: 0
XAxis mode: Raman Shifts
Number of Pixels in Spectrum: 1044
>>>>>Begin Spectral Data<<<<<
46.04893	-1.1625
50.45542	-1.1625
54.85868	-1.1625
59.25871	-1.3625
63.6555	60.4375
68.04907	64.3375
72.43941	69.5375
76.82654	66.6375
81.21044	74.3375
85.59113	73.2375
89.96862	78.5375
94.34289	80.4375
98.71396	81.8375
103.08183	87.6375
107.4465	90.2375
111.80798	89.8375
116.16626	94.4375
120.52136	95.9375
124.87327	99.7375
129.222	103.5375
133.56755	113.6375
137.90993	119.2375
142.24913	129.1375
146.58517	145.9375
150.91804	166.2375
155.24774	202.8375
159.57429	246.0375
163.89768	312.9375
168.21792	421.0375
172.53501	578.9375
176.84895	798.4375
181.15975	1115.8375
185.46741	1562.1375
189.77193	2160.0375
194.07331	2872.5375
198.37157	3708.0375
202.6667	4578.7375
206.9587	5433.9375
211.24758	6266.7375
215.53334	7106.2375
219.81599	8004.1375
224.09553	8962.7375
228.37195	10029.6375
232.64527	11215.9375
236.91549	12438.2375
241.18261	13683.8375
245.44663	14895.2375
249.70755	15966.5375
253.96539	16870.4375
258.22014	17670.1375
262.4718	18356.3375
266.72039	18799.4375
270.96589	19077.1375
275.20832	19186.9375
279.44768	19162.4375
283.68397	19084.4375
287.91719	18975.4375
292.14735	18911.7375
296.37445	18927.0375
300.59849	19045.4375
304.81948	19095.0375
309.03742	19038.7375
313.25231	18824.8375
317.46415	18442.4375
321.67296	17973.7375
325.87872	17613.0375
330.08145	17451.8375
334.28114	17450.7375
338.47781	17546.6375
342.67145	17682.9375
346.86207	17900.5375
351.04966	18106.8375
355.23424	18338.7375
359.4158	18586.5375
363.59435	18758.8375
367.76989	18869.8375
371.94243	18951.4375
376.11196	18994.2375
380.27849	19101.4375
384.44203	19122.9375
388.60257	19265.2375
392.76012	19498.5375
396.91468	19814.3375
401.06626	20145.0375
405.21485	20281.8375
409.36047	20176.3375
413.50311	20014.8375
417.64277	19909.3375
421.77947	19944.3375
425.9132	20046.0375
430.04396	20161.5375
434.17176	20252.9375
438.2966	20338.1375
442.41849	20537.5375
446.53742	20943.0375
450.6534	21426.6375
454.76644	21752.0375
458.87653	21954.8375
462.98368	21928.1375
467.08789	21896.2375
471.18916	21788.1375
475.2875	21691.3375
479.38291	21682.3375
483.4754	21610.4375
487.56496	21351.2375
491.6516	20962.1375
495.73531	20557.7375
499.81612	20325.0375
503.89401	20359.8375
507.96899	20441.5375
512.04106	20457.7375
516.11023	20370.5375
520.1765	20176.2375
524.23987	19912.2375
528.30034	19717.1375
532.35792	19520.8375
536.41261	19396.3375
540.46441	19283.5375
544.51333	19374.8375
548.55936	19606.3375
552.60252	20042.7375
556.64279	20484.1375
560.6802	20802.5375
564.71473	21056.3375
568.7464	21507.6375
572.7752	22220.1375
576.80114	22996.8375
580.82422	23559.5375
584.84444	24000.9375
588.86181	24426.3375
592.87633	24711.5375
596.888	24305.7375
600.89682	23596.3375
604.9028	23525.3375
608.90594	24389.5375
612.90624	25183.7375
616.90371	23650.9375
620.89834	20865.5375
624.89015	19751.7375
628.87913	19672.5375
632.86528	19881.9375
636.84862	19940.0375
640.82913	19666.2375
644.80683	19274.1375
648.78172	19017.6375
652.75379	18947.3375
656.72306	19055.9375
660.68952	19273.2375
664.65319	19159.4375
668.61405	18982.1375
672.57211	18969.4375
676.52738	19036.9375
680.47986	19038.1375
684.42955	18980.9375
688.37646	18947.4375
692.32058	19010.1375
696.26192	19162.8375
700.20048	19411.4375
704.13626	19553.9375
708.06928	19645.3375
711.99952	19560.2375
715.927	19539.5375
719.85171	19485.1375
723.77365	19395.2375
727.69284	19167.8375
731.60928	18875.3375
735.52295	18815.0375
739.43388	18756.5375
743.34206	18810.5375
747.24749	18925.9375
751.15017	19135.2375
755.05012	19480.5375
758.94733	19971.4375
762.8418	20842.6375
766.73354	22019.7375
770.62254	22976.6375
774.50882	22923.2375
778.39237	21964.7375
782.27321	20714.6375
786.15132	19779.0375
790.02671	19166.1375
793.89938	18859.4375
797.76935	18672.5375
801.6366	18646.9375
805.50115	18612.8375
809.36299	18495.5375
813.22213	18414.7375
817.07857	18399.8375
820.93231	18398.0375
824.78336	18286.5375
828.63172	18214.8375
832.47738	18108.2375
836.32036	18111.8375
840.16066	18071.8375
843.99827	18072.3375
847.8332	18128.8375
851.66546	18087.1375
855.49504	18139.3375
859.32195	18142.2375
863.1462	18088.5375
866.96777	18052.7375
870.78668	18029.4375
874.60293	18033.5375
878.41652	18036.8375
882.22745	18041.9375
886.03573	18053.6375
889.84136	18094.8375
893.64433	18042.0375
897.44466	17995.8375
901.24235	17950.3375
905.0374	17945.4375
908.8298	17960.7375
912.61957	18053.3375
916.40671	18241.9375
920.19121	18476.9375
923.97308	18581.0375
927.75233	18486.0375
931.52895	18245.5375
935.30295	17949.0375
939.07433	17669.4375
942.84309	17505.4375
946.60924	17383.1375
950.37278	17327.9375
954.13371	17328.8375
957.89203	17355.4375
961.64774	17359.0375
965.40086	17328.7375
969.15137	17287.1375
972.89929	17160.5375
976.64461	17118.6375
980.38733	17081.2375
984.12747	17117.7375
987.86502	17148.8375
991.59999	17244.9375
995.33237	17328.4375
999.06217	17498.1375
1002.78939	17725.9375
1006.51404	17964.1375
1010.23611	18213.6375
1013.95561	18391.5375
1017.67255	18421.0375
1021.38692	18288.5375
1025.09872	18097.3375
1028.80796	17945.7375
1032.51465	17923.7375
1036.21877	17986.5375
1039.92035	18044.8375
1043.61937	18106.7375
1047.31584	18137.9375
1051.00976	18220.4375
1054.70114	18326.3375
1058.38998	18460.3375
1062.07627	18702.7375
1065.76003	18916.0375
1069.44126	19132.9375
1073.11995	19392.0375
1076.79611	19598.8375
1080.46974	19670.5375
1084.14085	19682.4375
1087.80943	19826.2375
1091.47549	20003.3375
1095.13903	20093.4375
1098.80005	19913.9375
1102.45857	19481.9375
1106.11456	19107.0375
1109.76805	18849.8375
1113.41903	18799.3375
1117.06751	18877.4375
1120.71348	18984.5375
1124.35696	19205.6375
1127.99793	19394.8375
1131.63641	19544.1375
1135.2724	19538.9375
1138.90589	19561.9375
1142.5369	19657.8375
1146.16542	19811.0375
1149.79145	20007.4375
1153.415	20255.2375
1157.03607	20555.0375
1160.65467	21131.1375
1164.27079	21999.6375
1167.88443	23102.9375
1171.49561	24173.2375
1175.10432	25383.4375
1178.71056	26816.8375
1182.31434	28220.0375
1185.91565	28990.4375
1189.51451	29113.8375
1193.11091	28802.5375
1196.70485	28060.9375
1200.29634	27171.2375
1203.88538	26614.8375
1207.47197	26346.8375
1211.05612	26162.0375
1214.63782	25768.2375
1218.21708	24932.3375
1221.79391	24040.4375
1225.36829	23327.7375
1228.94024	22934.1375
1232.50976	22625.5375
1236.07685	22497.6375
1239.6415	22510.9375
1243.20374	22600.0375
1246.76355	22773.5375
1250.32093	23090.9375
1253.8759	23493.6375
1257.42845	24062.3375
1260.97859	24665.3375
1264.52631	25253.4375
1268.07163	25864.9375
1271.61453	26473.3375
1275.15503	27095.3375
1278.69312	27807.7375
1282.22882	28614.0375
1285.76211	29566.1375
1289.29301	30677.6375
1292.82151	32156.0375
1296.34761	33797.1375
1299.87133	35551.3375
1303.39266	37077.1375
1306.9116	38251.9375
1310.42815	39018.1375
1313.94233	39279.2375
1317.45412	39216.6375
1320.96354	39092.4375
1324.47058	39106.0375
1327.97525	39288.7375
1331.47754	39390.1375
1334.97747	39482.4375
1338.47502	39398.8375
1341.97022	39203.7375
1345.46305	38822.7375
1348.95352	38248.8375
1352.44163	37604.2375
1355.92738	37323.7375
1359.41078	37566.1375
1362.89183	37749.2375
1366.37053	36886.4375
1369.84688	34625.1375
1373.32088	31953.3375
1376.79254	30060.1375
1380.26186	29518.7375
1383.72883	29764.6375
1387.19347	29987.4375
1390.65578	29944.2375
1394.11575	29786.1375
1397.57339	29929.5375
1401.0287	30125.7375
1404.48168	30217.8375
1407.93234	29882.7375
1411.38068	29078.0375
1414.82669	27958.6375
1418.27039	26674.8375
1421.71177	25598.2375
1425.15083	24755.2375
1428.58758	24353.6375
1432.02203	24573.5375
1435.45416	25266.6375
1438.88399	26026.0375
1442.31151	26632.9375
1445.73673	27088.9375
1449.15965	27453.8375
1452.58027	27675.4375
1455.9986	27854.0375
1459.41463	28042.5375
1462.82837	28331.5375
1466.23982	28648.8375
1469.64898	28925.0375
1473.05586	29039.7375
1476.46045	28954.3375
1479.86276	28694.7375
1483.26279	28319.1375
1486.66054	28189.3375
1490.05602	28250.6375
1493.44922	28527.8375
1496.84016	28996.2375
1500.22882	29560.5375
1503.61521	30379.1375
1506.99934	31302.9375
1510.38121	32031.4375
1513.76081	32166.8375
1517.13816	31942.9375
1520.51324	31520.7375
1523.88607	31348.2375
1527.25665	31370.1375
1530.62498	31491.1375
1533.99105	31318.6375
1537.35488	30779.4375
1540.71647	30020.8375
1544.07581	29049.6375
1547.4329	28093.1375
1550.78776	27327.2375
1554.14038	26856.0375
1557.49077	26548.9375
1560.83892	26408.1375
1564.18484	26407.4375
1567.52853	26416.2375
1570.86999	26749.0375
1574.20922	27277.0375
1577.54624	27891.8375
1580.88103	28271.8375
1584.2136	28644.7375
1587.54395	29321.2375
1590.87208	30274.5375
1594.19801	31445.2375
1597.52172	32392.6375
1600.84321	32222.4375
1604.16251	30694.2375
1607.47959	28628.0375
1610.79447	26617.9375
1614.10715	24697.0375
1617.41763	23119.6375
1620.7259	21939.8375
1624.03199	21351.0375
1627.33587	21366.5375
1630.63757	21888.0375
1633.93707	23202.1375
1637.23439	25337.4375
1640.52951	28408.3375
1643.82246	31909.3375
1647.11321	34549.3375
1650.40179	34891.2375
1653.68819	32556.2375
1656.97241	28635.0375
1660.25446	24767.9375
1663.53433	21833.5375
1666.81203	19784.8375
1670.08756	18495.8375
1673.36092	17706.0375
1676.63211	17163.7375
1679.90115	16783.0375
1683.16801	16487.1375
1686.43272	16304.1375
1689.69527	16177.2375
1692.95567	16034.6375
1696.2139	15958.5375
1699.46999	15912.2375
1702.72392	15869.2375
1705.97571	15770.6375
1709.22535	15701.1375
1712.47284	15639.2375
1715.71819	15607.3375
1718.96139	15561.1375
1722.20246	15479.8375
1725.44139	15428.3375
1728.67818	15319.3375
1731.91284	15220.6375
1735.14537	15137.2375
1738.37576	15069.4375
1741.60403	15033.7375
1744.83017	15004.3375
1748.05418	14933.6375
1751.27607	14923.1375
1754.49584	14926.9375
1757.71349	14945.4375
1760.92903	14888.8375
1764.14244	14867.2375
1767.35375	14857.0375
1770.56294	14843.5375
1773.77002	14797.8375
1776.97499	14723.3375
1780.17785	14683.0375
1783.37861	14677.3375
1786.57727	14627.7375
1789.77382	14580.7375
1792.96828	14549.5375
1796.16064	14505.5375
1799.3509	14478.3375
1802.53907	14455.7375
1805.72514	14385.6375
1808.90913	14371.3375
1812.09102	14345.1375
1815.27083	14305.2375
1818.44856	14305.7375
1821.6242	14287.8375
1824.79776	14236.6375
1827.96924	14239.6375
1831.13864	14216.9375
1834.30597	14265.1375
1837.47122	14238.3375
1840.6344	14222.3375
1843.7955	14209.1375
1846.95454	14201.0375
1850.11151	14178.9375
1853.26642	14167.9375
1856.41926	14157.2375
1859.57004	14178.0375
1862.71876	14123.5375
1865.86542	14104.0375
1869.01003	14076.8375
1872.15258	14081.2375
1875.29308	14054.4375
1878.43152	14018.1375
1881.56792	13998.8375
1884.70227	13989.1375
1887.83457	13938.9375
1890.96482	13914.2375
1894.09304	13881.8375
1897.21921	13866.4375
1900.34335	13835.2375
1903.46544	13826.4375
1906.58551	13817.0375
1909.70353	13773.1375
1912.81953	13725.7375
1915.93349	13747.6375
1919.04543	13699.6375
1922.15534	13660.4375
1925.26322	13620.9375
1928.36908	13627.9375
1931.47292	13584.6375
1934.57473	13566.7375
1937.67453	13529.4375
1940.77232	13504.7375
1943.86808	13435.3375
1946.96184	13387.3375
1950.05358	13368.6375
1953.14331	13348.4375
1956.23103	13295.7375
1959.31675	13272.2375
1962.40046	13189.9375
1965.48217	13166.9375
1968.56188	13109.0375
1971.63959	13075.3375
1974.7153	13006.7375
1977.78901	13008.6375
1980.86073	12961.8375
1983.93046	12912.6375
1986.99819	12866.3375
1990.06394	12854.0375
1993.1277	12794.6375
1996.18947	12791.3375
1999.24925	12703.6375
2002.30706	12672.3375
2005.36288	12663.4375
2008.41672	12602.4375
2011.46859	12561.8375
2014.51848	12568.3375
2017.56639	12522.8375
2020.61233	12472.9375
2023.6563	12459.0375
2026.6983	12410.7375
2029.73833	12380.8375
2032.7764	12355.8375
2035.8125	12330.3375
2038.84664	12283.0375
2041.87881	12254.2375
2044.90903	12213.4375
2047.93729	12188.5375
2050.96359	12203.5375
2053.98794	12186.2375
2057.01034	12175.5375
2060.03078	12154.5375
2063.04927	12125.2375
2066.06582	12130.1375
2069.08042	12137.2375
2072.09307	12108.0375
2075.10378	12093.6375
2078.11255	12066.1375
2081.11938	12070.7375
2084.12426	12065.7375
2087.12722	12047.6375
2090.12824	12040.6375
2093.12732	12046.9375
2096.12447	12028.3375
2099.11969	12034.3375
2102.11299	12043.0375
2105.10435	12039.8375
2108.09379	12049.3375
2111.08131	12056.9375
2114.0669	12052.5375
2117.05057	12050.0375
2120.03233	12040.7375
2123.01216	12079.4375
2125.99008	12070.6375
2128.96609	12067.2375
2131.94018	12109.0375
2134.91236	12091.8375
2137.88263	12096.4375
2140.851	12110.2375
2143.81746	12086.4375
2146.78201	12094.2375
2149.74466	12119.2375
2152.7054	12069.1375
2155.66425	12069.6375
2158.6212	12080.6375
2161.57625	12098.8375
2164.52941	12062.8375
2167.48067	12045.4375
2170.43004	12060.0375
2173.37752	12043.4375
2176.32311	12067.4375
2179.26681	12023.8375
2182.20863	12014.9375
2185.14856	12026.2375
2188.08661	12006.6375
2191.02278	12013.5375
2193.95707	12021.2375
2196.88948	11999.4375
2199.82001	12007.8375
2202.74867	11965.4375
2205.67545	11945.5375
2208.60037	11932.0375
2211.52341	11911.4375
2214.44458	11897.2375
2217.36388	11886.6375
2220.28132	11854.8375
2223.1969	11837.6375
2226.11061	11789.4375
2229.02246	11787.6375
2231.93245	11776.4375
2234.84058	11748.4375
2237.74686	11736.5375
2240.65128	11724.3375
2243.55385	11694.4375
2246.45456	11719.4375
2249.35343	11643.7375
2252.25044	11632.3375
2255.14561	11634.9375
2258.03893	11602.1375
2260.93041	11543.2375
2263.82004	11493.9375
2266.70783	11503.0375
2269.59378	11448.8375
2272.4779	11429.6375
2275.36017	11382.0375
2278.24061	11378.9375
2281.11922	11365.3375
2283.996	11358.4375
2286.87094	11339.2375
2289.74405	11294.1375
2292.61534	11293.5375
2295.4848	11287.1375
2298.35243	11271.6375
2301.21824	11243.2375
2304.08223	11254.4375
2306.94439	11253.1375
2309.80474	11233.4375
2312.66327	11239.1375
2315.51999	11234.9375
2318.37489	11222.7375
2321.22797	11210.8375
2324.07925	11184.2375
2326.92871	11120.5375
2329.77637	11134.1375
2332.62222	11113.7375
2335.46626	11116.0375
2338.3085	11105.7375
2341.14893	11092.0375
2343.98756	11084.1375
2346.8244	11095.8375
2349.65943	11088.2375
2352.49267	11102.3375
2355.32411	11075.3375
2358.15376	11084.7375
2360.98161	11073.8375
2363.80768	11064.3375
2366.63195	11054.6375
2369.45444	11031.4375
2372.27514	11007.0375
2375.09405	11006.7375
2377.91118	10993.6375
2380.72652	10949.4375
2383.54009	10921.4375
2386.35187	10897.2375
2389.16188	10857.2375
2391.97011	10822.7375
2394.77657	10821.8375
2397.58125	10804.1375
2400.38416	10813.6375
2403.18529	10766.4375
2405.98466	10782.8375
2408.78226	10747.4375
2411.57809	10758.2375
2414.37216	10729.1375
2417.16446	10758.1375
2419.955	10732.0375
2422.74378	10703.4375
2425.5308	10714.4375
2428.31606	10699.9375
2431.09956	10684.4375
2433.88131	10672.0375
2436.6613	10659.6375
2439.43954	10667.1375
2442.21603	10648.5375
2444.99077	10623.0375
2447.76377	10638.2375
2450.53501	10640.1375
2453.30451	10624.1375
2456.07226	10593.0375
2458.83827	10625.0375
2461.60254	10595.8375
2464.36507	10585.2375
2467.12586	10559.6375
2469.88492	10579.1375
2472.64224	10595.8375
2475.39782	10574.3375
2478.15167	10583.8375
2480.90379	10564.4375
2483.65417	10554.1375
2486.40283	10585.9375
2489.14976	10569.4375
2491.89497	10553.4375
2494.63845	10560.5375
2497.3802	10574.4375
2500.12024	10575.5375
2502.85855	10526.3375
2505.59514	10552.1375
2508.33002	10534.3375
2511.06318	10533.9375
2513.79462	10511.5375
2516.52435	10497.3375
2519.25237	10490.4375
2521.97867	10477.7375
2524.70327	10499.1375
2527.42616	10460.2375
2530.14734	10467.8375
2532.86681	10432.8375
2535.58458	10467.1375
2538.30065	10446.9375
2541.01501	10455.3375
2543.72768	10412.8375
2546.43864	10416.9375
2549.14791	10425.9375
2551.85548	10409.8375
2554.56136	10376.9375
2557.26554	10343.5375
2559.96803	10345.6375
2562.66883	10313.3375
2565.36794	10303.2375
2568.06536	10289.8375
2570.7611	10262.6375
2573.45514	10273.4375
2576.14751	10258.8375
2578.83819	10230.4375
2581.52719	10221.7375
2584.21451	10192.3375
2586.90015	10193.5375
2589.58411	10183.6375
2592.2664	10197.7375
2594.94701	10163.3375
2597.62594	10162.5375
2600.30321	10138.9375
2602.9788	10156.5375
2605.65273	10115.2375
2608.32498	10133.7375
2610.99557	10103.5375
2613.66449	10118.3375
2616.33175	10099.3375
2618.99734	10122.8375
2621.66128	10094.3375
2624.32355	10097.9375
2626.98416	10081.1375
2629.64311	10083.8375
2632.30041	10042.5375
2634.95605	10042.6375
2637.61004	10028.6375
2640.26238	10016.3375
2642.91306	10019.6375
2645.56209	10020.1375
2648.20948	10017.1375
2650.85521	10019.6375
2653.4993	10031.3375
2656.14175	10025.1375
2658.78255	10033.1375
2661.42171	10023.1375
2664.05923	10045.7375
2666.6951	10051.4375
2669.32934	10057.2375
2671.96194	10040.8375
2674.59291	10052.2375
2677.22224	10021.7375
2679.84993	10033.6375
2682.476	10008.6375
2685.10043	10011.1375
2687.72324	9985.3375
2690.34441	10015.8375
2692.96396	10016.6375
2695.58188	10012.2375
2698.19818	10004.3375
2700.81285	10010.6375
2703.4259	10040.1375
2706.03733	10036.4375
2708.64714	10010.4375
2711.25533	10018.6375
2713.86191	10005.2375
2716.46687	10029.0375
2719.07021	10039.4375
2721.67194	10052.4375
2724.27206	10054.4375
2726.87057	10051.1375
2729.46747	10087.0375
2732.06276	10083.7375
2734.65644	10047.0375
2737.24852	10064.2375
2739.83899	10035.8375
2742.42786	10050.0375
2745.01513	9989.5375
2747.60079	9994.7375
2750.18486	10007.4375
2752.76733	10006.8375
2755.3482	9978.8375
2757.92747	9962.9375
2760.50515	9933.0375
2763.08123	9936.3375
2765.65573	9932.0375
2768.22863	9921.3375
2770.79994	9929.6375
2773.36967	9943.0375
2775.9378	9914.7375
2778.50435	9941.6375
2781.06932	9938.1375
2783.6327	9910.7375
2786.1945	9932.5375
2788.75471	9888.4375
2791.31335	9887.6375
2793.87041	9875.1375
2796.42589	9849.6375
2798.97979	9869.5375
2801.53212	9821.6375
2804.08288	9816.3375
2806.63206	9786.0375
2809.17967	9764.8375
2811.72571	9742.3375
2814.27018	9732.6375
2816.81308	9721.8375
2819.35442	9696.8375
2821.89419	9680.3375
2824.43239	9656.0375
2826.96904	9653.2375
2829.50412	9642.3375
2832.03763	9627.3375
2834.56959	9640.2375
2837.1	9598.0375
2839.62884	9615.5375
2842.15613	9630.7375
2844.68186	9617.3375
2847.20604	9628.6375
2849.72867	9636.9375
2852.24974	9625.7375
2854.76927	9622.7375
2857.28724	9596.0375
2859.80367	9573.5375
2862.31855	9557.7375
2864.83189	9562.7375
2867.34368	9522.1375
2869.85393	9524.4375
2872.36264	9496.6375
2874.8698	9508.5375
2877.37543	9497.3375
2879.87952	9475.5375
2882.38207	9484.8375
2884.88308	9482.6375
2887.38256	9501.7375
2889.88051	9461.2375
2892.37692	9440.5375
2894.8718	9465.2375
2897.36515	9474.8375
2899.85698	9494.1375
2902.34727	9500.8375
2904.83604	9493.0375
2907.32328	9528.4375
2909.809	9521.4375
2912.29319	9512.2375
2914.77587	9508.0375
2917.25702	9505.7375
2919.73665	9493.6375
2922.21476	9504.6375
2924.69136	9471.3375
2927.16644	9488.8375
2929.64	9492.8375
2932.11205	9475.9375
2934.58258	9450.6375
2937.05161	9452.3375
2939.51912	9449.1375
2941.98513	9428.4375
2944.44962	9412.9375
2946.91261	9373.0375
2949.37409	9397.4375
2951.83407	9368.5375
2954.29254	9364.4375
2956.74951	9340.0375
2959.20498	9337.5375
2961.65895	9329.2375
2964.11142	9352.3375
2966.56239	9337.8375
2969.01186	9312.4375
2971.45984	9321.2375
2973.90632	9313.0375
2976.35131	9283.2375
2978.7948	9268.0375
2981.23681	9244.9375
2983.67732	9231.7375
2986.11635	9200.8375
2988.55388	9183.0375
2990.98993	9158.6375
2993.4245	9154.8375
2995.85758	9117.5375
2998.28917	9079.7375
3000.71928	9077.2375
3003.14791	9069.1375
3005.57506	9048.6375
3008.00073	9029.6375
3010.42493	8966.0375
3012.84764	8972.7375
3015.26888	8966.2375
3017.68865	8941.3375
3020.10694	8917.4375
3022.52376	8914.0375
3024.9391	8898.6375
3027.35298	8890.6375
3029.76539	8889.3375
3032.17632	8875.8375
3034.5858	8862.3375
3036.9938	8859.5375
3039.40034	8868.0375
3041.80542	8847.2375
3044.20903	8833.1375
3046.61118	8856.6375
3049.01187	8808.6375
3051.4111	8804.9375
3053.80888	8771.6375
3056.20519	8757.8375
3058.60005	8720.0375
3060.99345	8732.5375
3063.3854	8705.0375
3065.7759	8688.3375
3068.16494	8674.6375
3070.55254	8636.2375
3072.93868	8621.4375
3075.32338	8608.1375
3077.70662	8557.5375
3080.08842	8540.4375
3082.46878	8541.3375
3084.84769	8508.0375
3087.22515	8502.0375
3089.60118	8503.7375
3091.97576	8487.7375
3094.3489	8468.0375
3096.72061	8487.6375
3099.09087	8472.7375
3101.4597	8492.3375
3103.82709	8487.9375
3106.19305	8467.8375
3108.55757	8471.3375
3110.92066	8471.8375
3113.28232	8453.2375
3115.64255	8428.6375
3118.00134	8394.6375
3120.35871	8401.0375
3122.71466	8356.6375
3125.06917	8356.7375
3127.42226	8330.6375
3129.77393	8330.6375
3132.12417	8315.2375
3134.47299	8297.3375
3136.82039	8280.5375
3139.16636	8300.6375
3141.51092	8292.6375
3143.85406	8293.0375
3146.19579	8275.2375
3148.53609	8293.5375
3150.87499	8304.5375
3153.21246	8280.5375
3155.54853	8313.4375
3157.88318	8286.7375
3160.21642	8284.3375
3162.54826	8299.4375
3164.87868	8318.6375
3167.2077	8328.7375
3169.5353	8340.4375
3171.86151	8333.5375
3174.18631	8288.8375
3176.5097	8318.5375
3178.83169	8284.5375
3181.15228	8266.7375
3183.47147	8257.1375
3185.78926	8261.4375
3188.10565	8233.5375
3190.42065	8234.6375
3192.73424	8210.2375
3195.04645	8196.5375
3197.35725	8214.3375
3199.66667	8191.6375
3201.97469	8199.6375
3204.28132	8188.1375
3206.58656	8199.2375
3208.8904	8184.6375
3211.19287	8195.5375
3213.49394	8174.1375
3215.79363	8198.8375
3218.09193	8194.5375
3220.38884	8191.2375
3222.68438	8231.4375
3224.97853	8207.5375
3227.2713	8176.0375
3229.56269	8192.0375
3231.8527	8160.5375
3234.14133	8163.9375
3236.42858	8144.6375
3238.71446	8126.1375
3240.99896	8125.3375
3243.28209	8074.6375
3245.56384	8097.7375
3247.84423	8076.6375
3250.12324	8068.3375
3252.40088	8052.9375
3254.67715	8040.8375
3256.95205	8054.0375
3259.22558	8053.4375
3261.49775	8023.4375
3263.76855	8016.7375
3266.03799	7999.3375
3268.30606	7980.4375
3270.57277	7969.7375
3272.83812	7941.0375
3275.10211	7933.4375
3277.36474	7921.5375
3279.62601	7923.5375
3281.88593	7883.5375
3284.14448	7898.7375
3286.40168	7903.7375
3288.65753	7918.3375
3290.91202	7893.2375
3293.16516	7860.0375
3295.41695	7848.6375
3297.66738	7817.8375
3299.91647	7784.4375
3302.16421	7724.0375
3304.4106	7678.8375
3306.65564	7625.0375
3308.89933	7571.9375
3311.14169	7510.7375
3313.38269	7450.6375
3315.62236	7398.5375
3317.86068	7336.9375
3320.09766	7283.9375
3322.3333	7230.2375
3324.5676	7185.6375
3326.80056	7064.3375
3329.03219	6993.9375
3331.26248	3.6375
3333.49143	0.1375
3335.71905	0.0375
