Data from AgNP_FTO_APTES_UA_10uM_CRN_0uM_R6G_10uM_NaF_0.1M_Addition_RamanShift__27__12-39-50-473.txt Node

Date: Thu Feb 10 12:39:50 GMT 2022
User: TCL
Spectrometer: QEP01345
Trigger mode: 4
Integration Time (sec): 7.000000E0
Scans to average: 10
Electric dark correction enabled: true
Nonlinearity correction enabled: false
Boxcar width: 0
XAxis mode: Raman Shifts
Number of Pixels in Spectrum: 1044
>>>>>Begin Spectral Data<<<<<
46.04893	-1.1
50.45542	-0.2
54.85868	-1.6
59.25871	-0.7
63.6555	48.5
68.04907	51.9
72.43941	54.2
76.82654	56.6
81.21044	57.6
85.59113	58.4
89.96862	61.8
94.34289	65.7
98.71396	66.6
103.08183	68.1
107.4465	70.1
111.80798	69.8
116.16626	72.6
120.52136	75.8
124.87327	76.7
129.222	80.8
133.56755	86.1
137.90993	92.9
142.24913	96.3
146.58517	104.3
150.91804	124.9
155.24774	145.2
159.57429	178.7
163.89768	217.5
168.21792	288.4
172.53501	394.6
176.84895	546.8
181.15975	765.3
185.46741	1063.7
189.77193	1474.5
194.07331	1963.9
198.37157	2545.3
202.6667	3130.6
206.9587	3707.7
211.24758	4308.5
215.53334	4892.3
219.81599	5590.5
224.09553	6319.3
228.37195	7132.8
232.64527	8017
236.91549	8926.6
241.18261	9791.5
245.44663	10564.9
249.70755	11195.9
253.96539	11766.1
258.22014	12235.8
262.4718	12654.7
266.72039	12939.6
270.96589	13124.9
275.20832	13115.9
279.44768	13032.3
283.68397	12868.4
287.91719	12771.7
292.14735	12744.6
296.37445	12842.7
300.59849	13077.7
304.81948	13378.5
309.03742	13656.4
313.25231	13556.8
317.46415	13034.3
321.67296	12289.1
325.87872	11663.4
330.08145	11383.4
334.28114	11377.2
338.47781	11515.1
342.67145	11803.1
346.86207	12200.6
351.04966	12771.7
355.23424	13430.3
359.4158	13964.9
363.59435	14266.4
367.76989	14365.8
371.94243	14372.6
376.11196	14334.8
380.27849	14321.6
384.44203	14260.9
388.60257	14162.4
392.76012	14189.2
396.91468	14341.9
401.06626	14683.7
405.21485	14973.8
409.36047	14784.6
413.50311	14280.9
417.64277	13833.2
421.77947	13567.5
425.9132	13490.9
430.04396	13536.2
434.17176	13608.6
438.2966	13827.7
442.41849	14218.4
446.53742	14704.5
450.6534	15190.8
454.76644	15538.2
458.87653	15584.7
462.98368	15388.6
467.08789	15162.5
471.18916	14805.2
475.2875	14485.2
479.38291	14276.9
483.4754	14088.8
487.56496	13910.1
491.6516	13697.8
495.73531	13569.5
499.81612	13498.3
503.89401	13595.7
507.96899	13708.3
512.04106	13751.2
516.11023	13854.7
520.1765	13910.7
524.23987	13870.6
528.30034	13711.9
532.35792	13488.5
536.41261	13245
540.46441	12956.3
544.51333	12850.1
548.55936	12907.5
552.60252	13198.4
556.64279	13509.2
560.6802	13702.7
564.71473	13970.2
568.7464	14502
572.7752	14931
576.80114	14833
580.82422	14604.4
584.84444	14582.8
588.86181	14695.3
592.87633	14916.9
596.888	15157.3
600.89682	15505
604.9028	16555.9
608.90594	19594.5
612.90624	23536.7
616.90371	22529.6
620.89834	16966.6
624.89015	14372.8
628.87913	13898.4
632.86528	13954.1
636.84862	13972.6
640.82913	13715.8
644.80683	13161.9
648.78172	12766.3
652.75379	12756.8
656.72306	13129.5
660.68952	13648.6
664.65319	13596.1
668.61405	13147
672.57211	12880.5
676.52738	12850
680.47986	12794.7
684.42955	12740.1
688.37646	12741.5
692.32058	12759.8
696.26192	12885.5
700.20048	13062.8
704.13626	13171.1
708.06928	13177.8
711.99952	13050.8
715.927	12970.8
719.85171	12978.9
723.77365	12916.1
727.69284	12759.7
731.60928	12642.9
735.52295	12632.3
739.43388	12727.5
743.34206	12830.4
747.24749	12893.3
751.15017	13042.8
755.05012	13285.4
758.94733	13782.3
762.8418	14839.5
766.73354	16706.8
770.62254	18659.4
774.50882	19535.6
778.39237	18747.2
782.27321	16755.7
786.15132	14856.5
790.02671	13672.7
793.89938	13126
797.76935	12934.7
801.6366	12828.6
805.50115	12765.9
809.36299	12704.1
813.22213	12673.5
817.07857	12594.6
820.93231	12570.5
824.78336	12571.8
828.63172	12633.4
832.47738	12684.6
836.32036	12685.5
840.16066	12702.4
843.99827	12704.4
847.8332	12638.5
851.66546	12612.8
855.49504	12557.1
859.32195	12551.6
863.1462	12492.3
866.96777	12417.9
870.78668	12386.1
874.60293	12438.3
878.41652	12457.3
882.22745	12539
886.03573	12617.2
889.84136	12571.7
893.64433	12506
897.44466	12496.9
901.24235	12425.6
905.0374	12395.6
908.8298	12350.4
912.61957	12324.4
916.40671	12388.9
920.19121	12532.4
923.97308	12688.7
927.75233	12849.7
931.52895	12919.6
935.30295	12801.7
939.07433	12469.9
942.84309	12174.5
946.60924	12046.8
950.37278	11940.6
954.13371	11906.6
957.89203	11835.2
961.64774	11804.5
965.40086	11770.2
969.15137	11739
972.89929	11692.9
976.64461	11684.2
980.38733	11699.5
984.12747	11759.7
987.86502	11861.2
991.59999	12016.3
995.33237	12259.3
999.06217	12641.9
1002.78939	13190.6
1006.51404	13652.6
1010.23611	13922.6
1013.95561	14104.8
1017.67255	14095.1
1021.38692	13903.1
1025.09872	13674
1028.80796	13628.5
1032.51465	13835.9
1036.21877	14064.5
1039.92035	14122.3
1043.61937	13924.5
1047.31584	13646.5
1051.00976	13335.9
1054.70114	13185.9
1058.38998	13128.4
1062.07627	13144.3
1065.76003	13214
1069.44126	13327.2
1073.11995	13504.7
1076.79611	13650.3
1080.46974	13803.8
1084.14085	14046.4
1087.80943	14307.9
1091.47549	14435.4
1095.13903	14262.8
1098.80005	13837.9
1102.45857	13448.7
1106.11456	13249.3
1109.76805	13264.6
1113.41903	13446
1117.06751	13712.7
1120.71348	14115.2
1124.35696	14555.8
1127.99793	14969.9
1131.63641	15048.8
1135.2724	14683.2
1138.90589	14264.3
1142.5369	13956.7
1146.16542	13751.8
1149.79145	13592.4
1153.415	13650.6
1157.03607	13786.2
1160.65467	14059.7
1164.27079	14589.8
1167.88443	15342.1
1171.49561	16485.7
1175.10432	18275.2
1178.71056	20641.2
1182.31434	22706.5
1185.91565	23714.4
1189.51451	23605.5
1193.11091	22551.6
1196.70485	20945.2
1200.29634	19501
1203.88538	18354.4
1207.47197	17379.9
1211.05612	16605.6
1214.63782	16220.1
1218.21708	16260.3
1221.79391	16382.5
1225.36829	16626
1228.94024	16713.3
1232.50976	16648.1
1236.07685	16576
1239.6415	16459.2
1243.20374	16304.8
1246.76355	16248.7
1250.32093	16361.1
1253.8759	16710.9
1257.42845	17260.9
1260.97859	17826.8
1264.52631	18360
1268.07163	18961.7
1271.61453	19535.7
1275.15503	20084.5
1278.69312	20554.6
1282.22882	20923.9
1285.76211	21424.5
1289.29301	22044.3
1292.82151	22712.6
1296.34761	23479.9
1299.87133	24473.6
1303.39266	26072.4
1306.9116	28430.8
1310.42815	31157.2
1313.94233	33071.7
1317.45412	33191.3
1320.96354	32022.7
1324.47058	30364.8
1327.97525	28862.7
1331.47754	27747.9
1334.97747	27262.4
1338.47502	27237.9
1341.97022	27442.6
1345.46305	27601.2
1348.95352	27829.5
1352.44163	28483.4
1355.92738	29985
1359.41078	32624.7
1362.89183	35243.8
1366.37053	34857.4
1369.84688	31060.4
1373.32088	26788.4
1376.79254	23914.4
1380.26186	22483.5
1383.72883	21745
1387.19347	21190.2
1390.65578	20664
1394.11575	20426.2
1397.57339	20570.6
1401.0287	21028.6
1404.48168	21552.6
1407.93234	22081.7
1411.38068	22275.4
1414.82669	21994
1418.27039	21314.3
1421.71177	20481.9
1425.15083	19816.6
1428.58758	19438.9
1432.02203	19415.2
1435.45416	19523
1438.88399	19695.2
1442.31151	19774.7
1445.73673	19931.5
1449.15965	20171.4
1452.58027	20255.6
1455.9986	20177
1459.41463	20256.9
1462.82837	20548.9
1466.23982	20927.6
1469.64898	21325.4
1473.05586	21503.8
1476.46045	21574
1479.86276	21647.6
1483.26279	21855.2
1486.66054	22154
1490.05602	22642.8
1493.44922	23183.1
1496.84016	23868.3
1500.22882	24895.2
1503.61521	26346.5
1506.99934	28194.9
1510.38121	30097.7
1513.76081	30967.8
1517.13816	29955.5
1520.51324	27510.7
1523.88607	25000.3
1527.25665	23155
1530.62498	22105.4
1533.99105	21547.8
1537.35488	21211.7
1540.71647	20929.3
1544.07581	20774.9
1547.4329	20655.8
1550.78776	20449.7
1554.14038	20291.8
1557.49077	20270.7
1560.83892	20364.8
1564.18484	20537.4
1567.52853	20703.2
1570.86999	20851.1
1574.20922	21053.1
1577.54624	21029.7
1580.88103	20537.1
1584.2136	19953.3
1587.54395	19999.9
1590.87208	20883.1
1594.19801	22518.3
1597.52172	24274.5
1600.84321	25152.1
1604.16251	24408.5
1607.47959	22567.7
1610.79447	20480.1
1614.10715	18473.8
1617.41763	16982.8
1620.7259	16091
1624.03199	15718.2
1627.33587	15758.4
1630.63757	16250.5
1633.93707	17275.5
1637.23439	18816
1640.52951	20794.8
1643.82246	22990.5
1647.11321	24908.1
1650.40179	25749
1653.68819	24516
1656.97241	21464.8
1660.25446	18221
1663.53433	15798.7
1666.81203	14325.4
1670.08756	13446.6
1673.36092	12935.5
1676.63211	12617.8
1679.90115	12362.9
1683.16801	12188.4
1686.43272	12066.2
1689.69527	11982.4
1692.95567	11908.1
1696.2139	11864.3
1699.46999	11832.4
1702.72392	11797.9
1705.97571	11771.3
1709.22535	11793.2
1712.47284	11732.3
1715.71819	11761.6
1718.96139	11715.8
1722.20246	11698.7
1725.44139	11656.9
1728.67818	11577.7
1731.91284	11509.1
1735.14537	11448.2
1738.37576	11399.3
1741.60403	11344.6
1744.83017	11330.6
1748.05418	11275.9
1751.27607	11284.5
1754.49584	11244.4
1757.71349	11205.4
1760.92903	11235.2
1764.14244	11205.7
1767.35375	11230.3
1770.56294	11214.1
1773.77002	11179.2
1776.97499	11159.4
1780.17785	11125.8
1783.37861	11128.5
1786.57727	11123.2
1789.77382	11116.4
1792.96828	11087.4
1796.16064	11092.3
1799.3509	11051.4
1802.53907	11060
1805.72514	11032.9
1808.90913	10991.6
1812.09102	10966.4
1815.27083	10968.3
1818.44856	10957.4
1821.6242	10911.7
1824.79776	10904.5
1827.96924	10907.2
1831.13864	10886.8
1834.30597	10890.6
1837.47122	10900
1840.6344	10881.8
1843.7955	10899.4
1846.95454	10873.1
1850.11151	10866.6
1853.26642	10896.7
1856.41926	10927.4
1859.57004	10947.2
1862.71876	10948.1
1865.86542	10955.2
1869.01003	10957.3
1872.15258	10981.3
1875.29308	10984.7
1878.43152	10987.6
1881.56792	11011.6
1884.70227	11028.4
1887.83457	11052.2
1890.96482	11054.1
1894.09304	11064.5
1897.21921	11073.3
1900.34335	11094.2
1903.46544	11093.1
1906.58551	11100.4
1909.70353	11091.9
1912.81953	11103.2
1915.93349	11108.5
1919.04543	11111.7
1922.15534	11079.2
1925.26322	11029.5
1928.36908	10985.1
1931.47292	10964.8
1934.57473	10883.2
1937.67453	10845.4
1940.77232	10778.3
1943.86808	10701.7
1946.96184	10676.7
1950.05358	10607.9
1953.14331	10562.6
1956.23103	10497.2
1959.31675	10492.3
1962.40046	10447.5
1965.48217	10416.1
1968.56188	10351.7
1971.63959	10333.9
1974.7153	10333.7
1977.78901	10275.8
1980.86073	10252
1983.93046	10206.3
1986.99819	10176.9
1990.06394	10159.5
1993.1277	10130.1
1996.18947	10086
1999.24925	10043.3
2002.30706	10019.1
2005.36288	9992.1
2008.41672	10002.1
2011.46859	9945.3
2014.51848	9949
2017.56639	9920.4
2020.61233	9898.4
2023.6563	9860.4
2026.6983	9835.5
2029.73833	9827.7
2032.7764	9789.9
2035.8125	9797.8
2038.84664	9766
2041.87881	9744.8
2044.90903	9739.8
2047.93729	9747.7
2050.96359	9721.2
2053.98794	9714.7
2057.01034	9685.3
2060.03078	9689.5
2063.04927	9660
2066.06582	9668.4
2069.08042	9683.2
2072.09307	9644.3
2075.10378	9652.1
2078.11255	9652
2081.11938	9630.8
2084.12426	9622.7
2087.12722	9612.5
2090.12824	9601.2
2093.12732	9621.5
2096.12447	9616.2
2099.11969	9606.9
2102.11299	9613.9
2105.10435	9612.6
2108.09379	9615.4
2111.08131	9617.4
2114.0669	9613.4
2117.05057	9597.8
2120.03233	9610.6
2123.01216	9648.2
2125.99008	9639.6
2128.96609	9651.5
2131.94018	9654.9
2134.91236	9703.6
2137.88263	9662
2140.851	9658.7
2143.81746	9680.3
2146.78201	9654.7
2149.74466	9659.2
2152.7054	9662.5
2155.66425	9636.6
2158.6212	9642.1
2161.57625	9664.9
2164.52941	9633.9
2167.48067	9643.1
2170.43004	9656
2173.37752	9641.2
2176.32311	9639.9
2179.26681	9677.3
2182.20863	9636.8
2185.14856	9672.6
2188.08661	9641.2
2191.02278	9632.1
2193.95707	9650
2196.88948	9619.6
2199.82001	9647.5
2202.74867	9642.3
2205.67545	9631
2208.60037	9631.5
2211.52341	9628.8
2214.44458	9630.7
2217.36388	9591.8
2220.28132	9576.5
2223.1969	9552
2226.11061	9543.5
2229.02246	9517.8
2231.93245	9499.9
2234.84058	9466.2
2237.74686	9471.2
2240.65128	9488.7
2243.55385	9437.8
2246.45456	9424.2
2249.35343	9425.9
2252.25044	9412.8
2255.14561	9428.6
2258.03893	9406
2260.93041	9369.3
2263.82004	9353.2
2266.70783	9354.5
2269.59378	9304.8
2272.4779	9268
2275.36017	9258.6
2278.24061	9264.6
2281.11922	9243.9
2283.996	9219.8
2286.87094	9215.6
2289.74405	9188.6
2292.61534	9190.4
2295.4848	9198
2298.35243	9175
2301.21824	9214.6
2304.08223	9197.4
2306.94439	9201.5
2309.80474	9183.5
2312.66327	9209.7
2315.51999	9199.7
2318.37489	9181.7
2321.22797	9172.5
2324.07925	9188.8
2326.92871	9152.3
2329.77637	9159.8
2332.62222	9152.2
2335.46626	9148.9
2338.3085	9138.1
2341.14893	9152.1
2343.98756	9173.8
2346.8244	9164.7
2349.65943	9163
2352.49267	9176.8
2355.32411	9188.7
2358.15376	9184.8
2360.98161	9181.2
2363.80768	9170.2
2366.63195	9162
2369.45444	9146.1
2372.27514	9124
2375.09405	9109.4
2377.91118	9091.1
2380.72652	9051.6
2383.54009	9042.5
2386.35187	9030.2
2389.16188	8994.7
2391.97011	8989.5
2394.77657	8943.4
2397.58125	8941.9
2400.38416	8924.3
2403.18529	8916
2405.98466	8897
2408.78226	8875.9
2411.57809	8860.1
2414.37216	8843.4
2417.16446	8841.9
2419.955	8817.6
2422.74378	8840.3
2425.5308	8810.3
2428.31606	8803
2431.09956	8833.1
2433.88131	8798.5
2436.6613	8800.6
2439.43954	8786.5
2442.21603	8777
2444.99077	8790.2
2447.76377	8784.7
2450.53501	8759.4
2453.30451	8772.9
2456.07226	8761.3
2458.83827	8771.7
2461.60254	8788.1
2464.36507	8787.6
2467.12586	8762.4
2469.88492	8757.3
2472.64224	8762.5
2475.39782	8800.3
2478.15167	8795.3
2480.90379	8806.1
2483.65417	8802.4
2486.40283	8823
2489.14976	8842.5
2491.89497	8838.9
2494.63845	8844.5
2497.3802	8846.9
2500.12024	8855.6
2502.85855	8846.7
2505.59514	8825.2
2508.33002	8825.5
2511.06318	8798.8
2513.79462	8795.8
2516.52435	8757.6
2519.25237	8735.9
2521.97867	8723.8
2524.70327	8716.2
2527.42616	8714.6
2530.14734	8720.4
2532.86681	8693.4
2535.58458	8684
2538.30065	8699.4
2541.01501	8720.6
2543.72768	8704.4
2546.43864	8700.2
2549.14791	8705.3
2551.85548	8693.4
2554.56136	8687.3
2557.26554	8666.3
2559.96803	8661.1
2562.66883	8645.1
2565.36794	8655.6
2568.06536	8634.6
2570.7611	8634.7
2573.45514	8596.5
2576.14751	8591.8
2578.83819	8596.7
2581.52719	8576.6
2584.21451	8593.8
2586.90015	8609
2589.58411	8607.5
2592.2664	8586.2
2594.94701	8585.4
2597.62594	8592.4
2600.30321	8590.9
2602.9788	8579.6
2605.65273	8573.9
2608.32498	8574.6
2610.99557	8573.8
2613.66449	8590.1
2616.33175	8575.1
2618.99734	8588
2621.66128	8586.7
2624.32355	8567.7
2626.98416	8593.8
2629.64311	8555.8
2632.30041	8560.1
2634.95605	8547.6
2637.61004	8546.9
2640.26238	8550.2
2642.91306	8516
2645.56209	8524.4
2648.20948	8509.2
2650.85521	8491
2653.4993	8525.8
2656.14175	8516
2658.78255	8519.5
2661.42171	8498.4
2664.05923	8527.5
2666.6951	8542.1
2669.32934	8551.1
2671.96194	8551.8
2674.59291	8577
2677.22224	8552.3
2679.84993	8577.5
2682.476	8556.4
2685.10043	8558.2
2687.72324	8559.7
2690.34441	8533.4
2692.96396	8538.2
2695.58188	8518.3
2698.19818	8513
2700.81285	8525.6
2703.4259	8538.5
2706.03733	8522.7
2708.64714	8523.7
2711.25533	8541.6
2713.86191	8532.3
2716.46687	8556.6
2719.07021	8574.5
2721.67194	8577.6
2724.27206	8578.1
2726.87057	8589.9
2729.46747	8573.8
2732.06276	8615.4
2734.65644	8597.7
2737.24852	8587.6
2739.83899	8567.7
2742.42786	8587.8
2745.01513	8555.2
2747.60079	8560.7
2750.18486	8539.1
2752.76733	8525.1
2755.3482	8538.3
2757.92747	8527.4
2760.50515	8499.7
2763.08123	8513.2
2765.65573	8502.7
2768.22863	8503.7
2770.79994	8522.5
2773.36967	8525.4
2775.9378	8522.2
2778.50435	8502.6
2781.06932	8499.6
2783.6327	8506.2
2786.1945	8505.1
2788.75471	8516.8
2791.31335	8492
2793.87041	8491.4
2796.42589	8474.1
2798.97979	8470.3
2801.53212	8449.1
2804.08288	8454.3
2806.63206	8426.6
2809.17967	8399
2811.72571	8414.6
2814.27018	8395.6
2816.81308	8400
2819.35442	8360.1
2821.89419	8395.4
2824.43239	8392.2
2826.96904	8379.7
2829.50412	8392
2832.03763	8383.1
2834.56959	8418
2837.1	8406.5
2839.62884	8410
2842.15613	8440.3
2844.68186	8481.4
2847.20604	8501.1
2849.72867	8530.7
2852.24974	8574.5
2854.76927	8531.7
2857.28724	8485.6
2859.80367	8501.1
2862.31855	8464.9
2864.83189	8479.9
2867.34368	8445.4
2869.85393	8450.2
2872.36264	8459.5
2874.8698	8450.5
2877.37543	8438.1
2879.87952	8450.5
2882.38207	8438.3
2884.88308	8425.9
2887.38256	8438.1
2889.88051	8434.1
2892.37692	8437.4
2894.8718	8457.5
2897.36515	8455.2
2899.85698	8457.1
2902.34727	8477
2904.83604	8483.3
2907.32328	8503.8
2909.809	8485.1
2912.29319	8488.1
2914.77587	8461.2
2917.25702	8461.5
2919.73665	8438.8
2922.21476	8461.9
2924.69136	8463.9
2927.16644	8444.8
2929.64	8416.7
2932.11205	8414.5
2934.58258	8361.9
2937.05161	8376.5
2939.51912	8378.2
2941.98513	8349.8
2944.44962	8336.4
2946.91261	8268.7
2949.37409	8273
2951.83407	8233.1
2954.29254	8254.5
2956.74951	8216.5
2959.20498	8218.1
2961.65895	8213.8
2964.11142	8205.6
2966.56239	8166.6
2969.01186	8167.9
2971.45984	8150.6
2973.90632	8129
2976.35131	8111.2
2978.7948	8071.6
2981.23681	8067.7
2983.67732	8012.5
2986.11635	8009.6
2988.55388	8007.8
2990.98993	7981.7
2993.4245	7959.7
2995.85758	7950.6
2998.28917	7944.6
3000.71928	7931.8
3003.14791	7898.8
3005.57506	7884.2
3008.00073	7860.3
3010.42493	7858.9
3012.84764	7830.4
3015.26888	7831.8
3017.68865	7811.5
3020.10694	7779.6
3022.52376	7789.2
3024.9391	7789.7
3027.35298	7768.2
3029.76539	7752.8
3032.17632	7761
3034.5858	7755.3
3036.9938	7752
3039.40034	7720.3
3041.80542	7763.8
3044.20903	7709.7
3046.61118	7694.8
3049.01187	7686.5
3051.4111	7696.9
3053.80888	7661.3
3056.20519	7653.5
3058.60005	7643.9
3060.99345	7618.8
3063.3854	7612.7
3065.7759	7570.9
3068.16494	7562.1
3070.55254	7557.3
3072.93868	7538.1
3075.32338	7516.2
3077.70662	7487.8
3080.08842	7481
3082.46878	7459
3084.84769	7429.9
3087.22515	7436
3089.60118	7447.4
3091.97576	7445.3
3094.3489	7420.7
3096.72061	7441.3
3099.09087	7462.1
3101.4597	7423.3
3103.82709	7425.4
3106.19305	7417.3
3108.55757	7400.1
3110.92066	7389.9
3113.28232	7380.4
3115.64255	7367.8
3118.00134	7335.2
3120.35871	7358.7
3122.71466	7327.7
3125.06917	7312.6
3127.42226	7308.1
3129.77393	7316.2
3132.12417	7289.6
3134.47299	7304.1
3136.82039	7316.3
3139.16636	7306.1
3141.51092	7311.2
3143.85406	7294.3
3146.19579	7297.9
3148.53609	7323.1
3150.87499	7315.9
3153.21246	7332.8
3155.54853	7345.2
3157.88318	7316.9
3160.21642	7326.3
3162.54826	7320.1
3164.87868	7308.3
3167.2077	7318.9
3169.5353	7356.9
3171.86151	7325.2
3174.18631	7318.9
3176.5097	7303
3178.83169	7315.6
3181.15228	7339.1
3183.47147	7294.7
3185.78926	7302.4
3188.10565	7295
3190.42065	7308.7
3192.73424	7304.9
3195.04645	7307.7
3197.35725	7282.2
3199.66667	7300.9
3201.97469	7296.9
3204.28132	7305.4
3206.58656	7320.9
3208.8904	7317.8
3211.19287	7331.4
3213.49394	7342.5
3215.79363	7350.7
3218.09193	7346.3
3220.38884	7323.1
3222.68438	7323.9
3224.97853	7333.6
3227.2713	7332.5
3229.56269	7331.3
3231.8527	7329.3
3234.14133	7306.8
3236.42858	7297.3
3238.71446	7266.1
3240.99896	7283.3
3243.28209	7278.2
3245.56384	7266.8
3247.84423	7253.1
3250.12324	7251.5
3252.40088	7230.3
3254.67715	7227.1
3256.95205	7208.9
3259.22558	7213.9
3261.49775	7225
3263.76855	7222.8
3266.03799	7193.9
3268.30606	7202.9
3270.57277	7176.5
3272.83812	7163.5
3275.10211	7138.7
3277.36474	7129.7
3279.62601	7142.6
3281.88593	7120
3284.14448	7137.1
3286.40168	7131.2
3288.65753	7142.2
3290.91202	7134.8
3293.16516	7097.7
3295.41695	7081.4
3297.66738	7043.6
3299.91647	7020.3
3302.16421	6976.3
3304.4106	6932.2
3306.65564	6905.6
3308.89933	6862.3
3311.14169	6817.4
3313.38269	6749.7
3315.62236	6719.5
3317.86068	6660
3320.09766	6594.1
3322.3333	6567.5
3324.5676	6512.1
3326.80056	6421
3329.03219	6392
3331.26248	3.5
3333.49143	1.1
3335.71905	-0.8
