Data from AgNP_FTO_APTES_UA_10uM_CRN_500uM_R6G_10uM_NaF_0.1M_Addition_RamanShift__30__19-15-20-967.txt Node

Date: Thu Feb 10 19:15:20 GMT 2022
User: TCL
Spectrometer: QEP01345
Trigger mode: 4
Integration Time (sec): 7.000000E0
Scans to average: 10
Electric dark correction enabled: true
Nonlinearity correction enabled: false
Boxcar width: 0
XAxis mode: Raman Shifts
Number of Pixels in Spectrum: 1044
>>>>>Begin Spectral Data<<<<<
46.04893	0.3375
50.45542	-0.8625
54.85868	-1.7625
59.25871	0.1375
63.6555	44.4375
68.04907	46.2375
72.43941	49.8375
76.82654	47.0375
81.21044	54.8375
85.59113	53.4375
89.96862	58.7375
94.34289	59.8375
98.71396	59.3375
103.08183	64.7375
107.4465	65.9375
111.80798	61.5375
116.16626	65.2375
120.52136	70.7375
124.87327	71.2375
129.222	73.8375
133.56755	77.5375
137.90993	78.8375
142.24913	84.3375
146.58517	91.6375
150.91804	108.3375
155.24774	124.9375
159.57429	152.9375
163.89768	188.2375
168.21792	247.8375
172.53501	336.6375
176.84895	460.4375
181.15975	638.2375
185.46741	891.1375
189.77193	1234.7375
194.07331	1634.4375
198.37157	2112.6375
202.6667	2624.7375
206.9587	3107.2375
211.24758	3611.9375
215.53334	4136.1375
219.81599	4700.8375
224.09553	5340.0375
228.37195	6060.4375
232.64527	6840.8375
236.91549	7613.7375
241.18261	8355.6375
245.44663	8984.7375
249.70755	9502.1375
253.96539	9907.1375
258.22014	10264.1375
262.4718	10596.4375
266.72039	10838.1375
270.96589	11004.4375
275.20832	11031.2375
279.44768	10963.7375
283.68397	10790.9375
287.91719	10712.9375
292.14735	10734.6375
296.37445	10948.2375
300.59849	11316.9375
304.81948	11734.2375
309.03742	12069.1375
313.25231	12043.9375
317.46415	11492.8375
321.67296	10654.8375
325.87872	9993.6375
330.08145	9634.6375
334.28114	9625.2375
338.47781	9788.5375
342.67145	10052.8375
346.86207	10495.6375
351.04966	11129.2375
355.23424	11781.7375
359.4158	12310.1375
363.59435	12556.5375
367.76989	12630.7375
371.94243	12652.7375
376.11196	12605.1375
380.27849	12546.0375
384.44203	12420.4375
388.60257	12255.1375
392.76012	12146.3375
396.91468	12254.7375
401.06626	12587.2375
405.21485	12845.5375
409.36047	12642.2375
413.50311	12031.6375
417.64277	11451.6375
421.77947	11115.0375
425.9132	11000.1375
430.04396	11008.8375
434.17176	11076.9375
438.2966	11197.8375
442.41849	11445.6375
446.53742	11770.4375
450.6534	12078.6375
454.76644	12322.2375
458.87653	12324.2375
462.98368	12214.2375
467.08789	12061.9375
471.18916	11849.2375
475.2875	11563.3375
479.38291	11372.3375
483.4754	11166.4375
487.56496	11008.4375
491.6516	10878.4375
495.73531	10845.7375
499.81612	10860.6375
503.89401	11004.3375
507.96899	11158.7375
512.04106	11339.9375
516.11023	11528.6375
520.1765	11675.5375
524.23987	11675.0375
528.30034	11448.5375
532.35792	11207.7375
536.41261	10983.6375
540.46441	10795.8375
544.51333	10652.6375
548.55936	10713.0375
552.60252	10946.4375
556.64279	11268.5375
560.6802	11415.2375
564.71473	11560.5375
568.7464	12031.9375
572.7752	12360.6375
576.80114	12014.6375
580.82422	11545.0375
584.84444	11298.2375
588.86181	11256.5375
592.87633	11320.3375
596.888	11441.0375
600.89682	11733.2375
604.9028	12908.7375
608.90594	16217.0375
612.90624	20960.2375
616.90371	20589.0375
620.89834	14613.0375
624.89015	11695.5375
628.87913	11120.7375
632.86528	11188.3375
636.84862	11344.2375
640.82913	11227.2375
644.80683	10824.8375
648.78172	10543.9375
652.75379	10596.0375
656.72306	11010.5375
660.68952	11545.3375
664.65319	11447.4375
668.61405	10953.1375
672.57211	10669.3375
676.52738	10672.6375
680.47986	10701.0375
684.42955	10659.2375
688.37646	10612.1375
692.32058	10638.2375
696.26192	10749.3375
700.20048	10864.3375
704.13626	10931.0375
708.06928	10926.2375
711.99952	10843.7375
715.927	10782.4375
719.85171	10788.3375
723.77365	10757.8375
727.69284	10694.0375
731.60928	10595.2375
735.52295	10576.3375
739.43388	10603.3375
743.34206	10654.5375
747.24749	10655.4375
751.15017	10754.9375
755.05012	10925.6375
758.94733	11418.4375
762.8418	12448.8375
766.73354	14377.4375
770.62254	16441.4375
774.50882	17642.2375
778.39237	17028.7375
782.27321	14835.3375
786.15132	12723.8375
790.02671	11486.2375
793.89938	10951.5375
797.76935	10721.0375
801.6366	10640.5375
805.50115	10575.8375
809.36299	10539.2375
813.22213	10516.0375
817.07857	10492.4375
820.93231	10494.1375
824.78336	10524.9375
828.63172	10571.2375
832.47738	10606.9375
836.32036	10576.0375
840.16066	10502.5375
843.99827	10456.7375
847.8332	10426.2375
851.66546	10433.6375
855.49504	10434.1375
859.32195	10411.2375
863.1462	10374.1375
866.96777	10361.2375
870.78668	10357.3375
874.60293	10370.5375
878.41652	10385.6375
882.22745	10440.8375
886.03573	10488.6375
889.84136	10483.4375
893.64433	10399.1375
897.44466	10397.9375
901.24235	10375.2375
905.0374	10359.1375
908.8298	10325.6375
912.61957	10308.1375
916.40671	10350.8375
920.19121	10400.8375
923.97308	10501.4375
927.75233	10551.4375
931.52895	10627.9375
935.30295	10575.5375
939.07433	10311.4375
942.84309	10103.7375
946.60924	9948.0375
950.37278	9850.7375
954.13371	9800.6375
957.89203	9792.0375
961.64774	9752.9375
965.40086	9747.4375
969.15137	9722.0375
972.89929	9682.6375
976.64461	9660.0375
980.38733	9661.1375
984.12747	9675.8375
987.86502	9723.3375
991.59999	9766.7375
995.33237	9859.4375
999.06217	9974.4375
1002.78939	10188.8375
1006.51404	10365.7375
1010.23611	10576.5375
1013.95561	10708.5375
1017.67255	10725.7375
1021.38692	10559.5375
1025.09872	10422.8375
1028.80796	10319.7375
1032.51465	10324.0375
1036.21877	10405.1375
1039.92035	10478.3375
1043.61937	10516.5375
1047.31584	10542.0375
1051.00976	10506.1375
1054.70114	10500.5375
1058.38998	10523.0375
1062.07627	10557.5375
1065.76003	10621.1375
1069.44126	10649.2375
1073.11995	10701.7375
1076.79611	10824.6375
1080.46974	10973.8375
1084.14085	11227.5375
1087.80943	11512.1375
1091.47549	11635.3375
1095.13903	11469.6375
1098.80005	11098.3375
1102.45857	10830.9375
1106.11456	10740.8375
1109.76805	10778.1375
1113.41903	10998.8375
1117.06751	11331.5375
1120.71348	11754.0375
1124.35696	12220.8375
1127.99793	12582.7375
1131.63641	12531.1375
1135.2724	12025.6375
1138.90589	11476.6375
1142.5369	11176.5375
1146.16542	10965.4375
1149.79145	10884.4375
1153.415	10862.8375
1157.03607	10962.2375
1160.65467	11118.5375
1164.27079	11479.1375
1167.88443	12006.5375
1171.49561	12863.6375
1175.10432	14333.1375
1178.71056	16233.6375
1182.31434	17566.4375
1185.91565	17796.8375
1189.51451	17340.1375
1193.11091	16360.1375
1196.70485	15220.8375
1200.29634	14411.5375
1203.88538	13790.2375
1207.47197	13060.2375
1211.05612	12411.6375
1214.63782	12044.4375
1218.21708	11947.2375
1221.79391	11909.5375
1225.36829	11946.0375
1228.94024	11928.2375
1232.50976	11936.2375
1236.07685	11974.2375
1239.6415	12047.8375
1243.20374	12097.1375
1246.76355	12203.6375
1250.32093	12341.0375
1253.8759	12558.1375
1257.42845	12869.9375
1260.97859	13230.1375
1264.52631	13531.1375
1268.07163	13865.8375
1271.61453	14159.6375
1275.15503	14310.4375
1278.69312	14402.4375
1282.22882	14392.0375
1285.76211	14621.1375
1289.29301	15042.1375
1292.82151	15456.1375
1296.34761	15898.1375
1299.87133	16610.2375
1303.39266	17804.0375
1306.9116	19684.5375
1310.42815	21817.7375
1313.94233	23168.8375
1317.45412	22806.8375
1320.96354	21391.2375
1324.47058	19695.7375
1327.97525	18265.7375
1331.47754	17419.8375
1334.97747	17156.6375
1338.47502	17326.4375
1341.97022	17821.1375
1345.46305	18414.0375
1348.95352	19343.9375
1352.44163	20647.6375
1355.92738	22522.7375
1359.41078	25447.4375
1362.89183	28275.5375
1366.37053	27434.1375
1369.84688	23452.2375
1373.32088	19532.6375
1376.79254	17020.3375
1380.26186	15779.3375
1383.72883	15171.8375
1387.19347	14740.5375
1390.65578	14303.7375
1394.11575	13909.4375
1397.57339	13707.3375
1401.0287	13728.9375
1404.48168	13882.4375
1407.93234	14052.1375
1411.38068	14226.0375
1414.82669	14197.9375
1418.27039	13956.9375
1421.71177	13682.1375
1425.15083	13340.1375
1428.58758	13201.3375
1432.02203	13245.0375
1435.45416	13309.3375
1438.88399	13381.2375
1442.31151	13382.9375
1445.73673	13427.5375
1449.15965	13516.7375
1452.58027	13515.3375
1455.9986	13417.3375
1459.41463	13444.6375
1462.82837	13561.6375
1466.23982	13786.8375
1469.64898	14084.7375
1473.05586	14251.7375
1476.46045	14365.9375
1479.86276	14559.5375
1483.26279	14868.5375
1486.66054	15232.4375
1490.05602	15643.4375
1493.44922	16252.5375
1496.84016	17156.0375
1500.22882	18621.7375
1503.61521	20626.9375
1506.99934	22941.1375
1510.38121	25208.3375
1513.76081	26328.0375
1517.13816	25251.0375
1520.51324	22377.3375
1523.88607	19444.4375
1527.25665	17434.6375
1530.62498	16293.5375
1533.99105	15644.4375
1537.35488	15310.4375
1540.71647	15083.5375
1544.07581	15021.0375
1547.4329	14933.9375
1550.78776	14918.7375
1554.14038	14876.6375
1557.49077	14915.4375
1560.83892	15177.8375
1564.18484	15521.7375
1567.52853	15911.7375
1570.86999	16259.2375
1574.20922	16392.7375
1577.54624	16299.4375
1580.88103	15601.6375
1584.2136	14664.6375
1587.54395	14152.3375
1590.87208	14283.9375
1594.19801	14911.0375
1597.52172	15873.3375
1600.84321	16379.3375
1604.16251	16005.5375
1607.47959	15153.4375
1610.79447	14154.9375
1614.10715	13121.4375
1617.41763	12314.2375
1620.7259	11787.5375
1624.03199	11509.3375
1627.33587	11495.7375
1630.63757	11648.9375
1633.93707	12055.7375
1637.23439	12758.8375
1640.52951	13790.7375
1643.82246	15212.5375
1647.11321	16985.7375
1650.40179	18389.1375
1653.68819	18083.9375
1656.97241	16043.5375
1660.25446	13664.2375
1663.53433	11973.0375
1666.81203	10952.4375
1670.08756	10363.5375
1673.36092	10005.6375
1676.63211	9763.1375
1679.90115	9599.4375
1683.16801	9486.8375
1686.43272	9387.5375
1689.69527	9303.3375
1692.95567	9270.0375
1696.2139	9263.9375
1699.46999	9243.1375
1702.72392	9242.3375
1705.97571	9184.1375
1709.22535	9169.2375
1712.47284	9168.3375
1715.71819	9141.6375
1718.96139	9150.9375
1722.20246	9140.4375
1725.44139	9116.9375
1728.67818	9042.3375
1731.91284	8983.8375
1735.14537	8935.5375
1738.37576	8878.1375
1741.60403	8861.4375
1744.83017	8826.9375
1748.05418	8780.9375
1751.27607	8803.9375
1754.49584	8753.1375
1757.71349	8764.3375
1760.92903	8764.1375
1764.14244	8757.5375
1767.35375	8732.5375
1770.56294	8728.4375
1773.77002	8707.6375
1776.97499	8655.1375
1780.17785	8632.4375
1783.37861	8600.0375
1786.57727	8585.0375
1789.77382	8543.6375
1792.96828	8537.1375
1796.16064	8540.9375
1799.3509	8531.2375
1802.53907	8485.6375
1805.72514	8482.8375
1808.90913	8487.8375
1812.09102	8448.0375
1815.27083	8429.0375
1818.44856	8405.0375
1821.6242	8379.8375
1824.79776	8364.0375
1827.96924	8349.2375
1831.13864	8344.4375
1834.30597	8319.7375
1837.47122	8323.3375
1840.6344	8326.1375
1843.7955	8316.7375
1846.95454	8308.7375
1850.11151	8292.4375
1853.26642	8290.7375
1856.41926	8289.6375
1859.57004	8285.4375
1862.71876	8306.3375
1865.86542	8268.4375
1869.01003	8286.2375
1872.15258	8284.1375
1875.29308	8263.0375
1878.43152	8264.2375
1881.56792	8250.5375
1884.70227	8266.9375
1887.83457	8245.3375
1890.96482	8232.7375
1894.09304	8229.5375
1897.21921	8226.9375
1900.34335	8210.4375
1903.46544	8230.4375
1906.58551	8220.1375
1909.70353	8206.1375
1912.81953	8193.5375
1915.93349	8196.4375
1919.04543	8195.8375
1922.15534	8168.3375
1925.26322	8136.9375
1928.36908	8141.1375
1931.47292	8146.9375
1934.57473	8114.2375
1937.67453	8056.4375
1940.77232	8054.5375
1943.86808	8017.9375
1946.96184	7969.0375
1950.05358	7944.2375
1953.14331	7953.4375
1956.23103	7898.8375
1959.31675	7890.3375
1962.40046	7858.3375
1965.48217	7849.8375
1968.56188	7823.9375
1971.63959	7806.3375
1974.7153	7772.7375
1977.78901	7760.8375
1980.86073	7724.9375
1983.93046	7711.0375
1986.99819	7689.3375
1990.06394	7657.8375
1993.1277	7617.0375
1996.18947	7602.4375
1999.24925	7580.3375
2002.30706	7568.3375
2005.36288	7550.4375
2008.41672	7511.2375
2011.46859	7494.5375
2014.51848	7487.4375
2017.56639	7473.9375
2020.61233	7438.5375
2023.6563	7415.0375
2026.6983	7410.2375
2029.73833	7376.0375
2032.7764	7349.2375
2035.8125	7328.8375
2038.84664	7313.8375
2041.87881	7301.7375
2044.90903	7267.4375
2047.93729	7228.4375
2050.96359	7245.3375
2053.98794	7251.0375
2057.01034	7225.1375
2060.03078	7218.2375
2063.04927	7199.8375
2066.06582	7194.1375
2069.08042	7199.3375
2072.09307	7198.8375
2075.10378	7193.3375
2078.11255	7166.9375
2081.11938	7192.2375
2084.12426	7170.9375
2087.12722	7198.4375
2090.12824	7164.1375
2093.12732	7186.1375
2096.12447	7175.6375
2099.11969	7161.1375
2102.11299	7150.0375
2105.10435	7128.2375
2108.09379	7147.1375
2111.08131	7178.0375
2114.0669	7145.0375
2117.05057	7148.9375
2120.03233	7166.2375
2123.01216	7174.6375
2125.99008	7180.9375
2128.96609	7204.0375
2131.94018	7196.5375
2134.91236	7198.2375
2137.88263	7193.5375
2140.851	7202.4375
2143.81746	7179.9375
2146.78201	7181.2375
2149.74466	7194.2375
2152.7054	7184.3375
2155.66425	7173.8375
2158.6212	7172.4375
2161.57625	7153.5375
2164.52941	7163.0375
2167.48067	7146.2375
2170.43004	7154.3375
2173.37752	7129.3375
2176.32311	7158.3375
2179.26681	7140.2375
2182.20863	7154.7375
2185.14856	7130.1375
2188.08661	7116.9375
2191.02278	7138.7375
2193.95707	7130.3375
2196.88948	7117.0375
2199.82001	7105.2375
2202.74867	7094.7375
2205.67545	7105.5375
2208.60037	7075.9375
2211.52341	7084.3375
2214.44458	7051.7375
2217.36388	7045.3375
2220.28132	7006.5375
2223.1969	7003.5375
2226.11061	6995.9375
2229.02246	6979.2375
2231.93245	6957.1375
2234.84058	6939.1375
2237.74686	6934.6375
2240.65128	6911.0375
2243.55385	6921.1375
2246.45456	6905.8375
2249.35343	6894.3375
2252.25044	6930.7375
2255.14561	6889.0375
2258.03893	6897.9375
2260.93041	6872.3375
2263.82004	6862.9375
2266.70783	6848.1375
2269.59378	6811.9375
2272.4779	6795.6375
2275.36017	6790.4375
2278.24061	6778.0375
2281.11922	6755.5375
2283.996	6743.9375
2286.87094	6730.8375
2289.74405	6716.9375
2292.61534	6708.3375
2295.4848	6704.8375
2298.35243	6710.8375
2301.21824	6693.0375
2304.08223	6682.0375
2306.94439	6675.4375
2309.80474	6673.6375
2312.66327	6669.9375
2315.51999	6642.9375
2318.37489	6652.7375
2321.22797	6639.1375
2324.07925	6622.7375
2326.92871	6607.3375
2329.77637	6600.2375
2332.62222	6601.9375
2335.46626	6573.2375
2338.3085	6575.3375
2341.14893	6583.4375
2343.98756	6579.5375
2346.8244	6582.6375
2349.65943	6577.7375
2352.49267	6582.1375
2355.32411	6585.8375
2358.15376	6590.8375
2360.98161	6590.8375
2363.80768	6584.2375
2366.63195	6576.2375
2369.45444	6580.0375
2372.27514	6588.6375
2375.09405	6582.7375
2377.91118	6533.2375
2380.72652	6526.7375
2383.54009	6506.8375
2386.35187	6477.1375
2389.16188	6445.1375
2391.97011	6432.3375
2394.77657	6421.7375
2397.58125	6395.4375
2400.38416	6363.0375
2403.18529	6363.8375
2405.98466	6369.9375
2408.78226	6357.1375
2411.57809	6326.0375
2414.37216	6322.2375
2417.16446	6311.5375
2419.955	6309.4375
2422.74378	6296.7375
2425.5308	6282.4375
2428.31606	6291.1375
2431.09956	6290.3375
2433.88131	6283.9375
2436.6613	6282.1375
2439.43954	6265.0375
2442.21603	6267.4375
2444.99077	6250.6375
2447.76377	6267.6375
2450.53501	6258.5375
2453.30451	6263.1375
2456.07226	6256.2375
2458.83827	6266.7375
2461.60254	6236.0375
2464.36507	6251.2375
2467.12586	6217.6375
2469.88492	6215.6375
2472.64224	6222.1375
2475.39782	6213.7375
2478.15167	6262.5375
2480.90379	6227.3375
2483.65417	6243.3375
2486.40283	6256.2375
2489.14976	6248.4375
2491.89497	6275.1375
2494.63845	6266.8375
2497.3802	6247.0375
2500.12024	6234.4375
2502.85855	6229.7375
2505.59514	6202.5375
2508.33002	6192.8375
2511.06318	6164.7375
2513.79462	6151.7375
2516.52435	6137.6375
2519.25237	6118.4375
2521.97867	6082.8375
2524.70327	6104.4375
2527.42616	6060.3375
2530.14734	6081.4375
2532.86681	6046.4375
2535.58458	6078.1375
2538.30065	6050.1375
2541.01501	6028.0375
2543.72768	6050.7375
2546.43864	6037.3375
2549.14791	6005.6375
2551.85548	6011.2375
2554.56136	6026.5375
2557.26554	5992.9375
2559.96803	5973.9375
2562.66883	5969.6375
2565.36794	5950.5375
2568.06536	5938.7375
2570.7611	5934.1375
2573.45514	5922.5375
2576.14751	5901.1375
2578.83819	5903.3375
2581.52719	5892.0375
2584.21451	5893.1375
2586.90015	5871.1375
2589.58411	5866.0375
2592.2664	5848.8375
2594.94701	5835.5375
2597.62594	5830.1375
2600.30321	5814.1375
2602.9788	5812.4375
2605.65273	5807.6375
2608.32498	5813.3375
2610.99557	5812.8375
2613.66449	5819.1375
2616.33175	5792.5375
2618.99734	5794.1375
2621.66128	5778.6375
2624.32355	5780.8375
2626.98416	5766.6375
2629.64311	5773.0375
2632.30041	5762.8375
2634.95605	5741.2375
2637.61004	5725.3375
2640.26238	5728.2375
2642.91306	5706.7375
2645.56209	5700.3375
2648.20948	5704.9375
2650.85521	5700.3375
2653.4993	5679.2375
2656.14175	5701.0375
2658.78255	5706.0375
2661.42171	5700.3375
2664.05923	5716.5375
2666.6951	5713.2375
2669.32934	5706.0375
2671.96194	5705.6375
2674.59291	5726.1375
2677.22224	5707.7375
2679.84993	5714.4375
2682.476	5717.6375
2685.10043	5716.7375
2687.72324	5698.3375
2690.34441	5703.3375
2692.96396	5709.4375
2695.58188	5704.6375
2698.19818	5696.7375
2700.81285	5689.7375
2703.4259	5697.3375
2706.03733	5710.0375
2708.64714	5686.2375
2711.25533	5725.4375
2713.86191	5712.2375
2716.46687	5715.3375
2719.07021	5717.3375
2721.67194	5737.0375
2724.27206	5703.0375
2726.87057	5713.0375
2729.46747	5715.0375
2732.06276	5705.7375
2734.65644	5705.6375
2737.24852	5704.3375
2739.83899	5677.0375
2742.42786	5690.9375
2745.01513	5658.6375
2747.60079	5641.5375
2750.18486	5644.8375
2752.76733	5644.3375
2755.3482	5619.4375
2757.92747	5615.5375
2760.50515	5602.5375
2763.08123	5605.3375
2765.65573	5576.7375
2768.22863	5583.7375
2770.79994	5567.1375
2773.36967	5571.1375
2775.9378	5565.9375
2778.50435	5548.2375
2781.06932	5559.7375
2783.6327	5548.9375
2786.1945	5556.9375
2788.75471	5540.8375
2791.31335	5528.1375
2793.87041	5545.3375
2796.42589	5521.8375
2798.97979	5529.2375
2801.53212	5523.1375
2804.08288	5519.4375
2806.63206	5504.9375
2809.17967	5494.8375
2811.72571	5475.9375
2814.27018	5485.8375
2816.81308	5476.9375
2819.35442	5471.2375
2821.89419	5452.8375
2824.43239	5477.3375
2826.96904	5470.6375
2829.50412	5483.6375
2832.03763	5461.4375
2834.56959	5481.5375
2837.1	5497.7375
2839.62884	5490.2375
2842.15613	5520.5375
2844.68186	5568.2375
2847.20604	5612.0375
2849.72867	5661.4375
2852.24974	5678.7375
2854.76927	5663.5375
2857.28724	5651.0375
2859.80367	5616.7375
2862.31855	5592.9375
2864.83189	5601.9375
2867.34368	5573.0375
2869.85393	5556.5375
2872.36264	5568.3375
2874.8698	5582.3375
2877.37543	5567.7375
2879.87952	5551.3375
2882.38207	5543.0375
2884.88308	5521.2375
2887.38256	5547.7375
2889.88051	5532.0375
2892.37692	5526.6375
2894.8718	5525.0375
2897.36515	5543.2375
2899.85698	5528.8375
2902.34727	5550.2375
2904.83604	5536.3375
2907.32328	5542.0375
2909.809	5541.0375
2912.29319	5539.6375
2914.77587	5540.4375
2917.25702	5522.4375
2919.73665	5532.6375
2922.21476	5511.3375
2924.69136	5509.2375
2927.16644	5516.7375
2929.64	5503.5375
2932.11205	5510.6375
2934.58258	5456.8375
2937.05161	5473.8375
2939.51912	5452.2375
2941.98513	5432.3375
2944.44962	5384.9375
2946.91261	5343.6375
2949.37409	5331.2375
2951.83407	5323.7375
2954.29254	5309.8375
2956.74951	5312.7375
2959.20498	5268.5375
2961.65895	5277.1375
2964.11142	5278.9375
2966.56239	5252.7375
2969.01186	5252.4375
2971.45984	5228.2375
2973.90632	5214.9375
2976.35131	5199.9375
2978.7948	5181.1375
2981.23681	5158.1375
2983.67732	5146.4375
2986.11635	5145.5375
2988.55388	5118.3375
2990.98993	5113.7375
2993.4245	5083.6375
2995.85758	5078.6375
2998.28917	5088.2375
3000.71928	5068.6375
3003.14791	5058.5375
3005.57506	5050.2375
3008.00073	5044.1375
3010.42493	5055.3375
3012.84764	5022.9375
3015.26888	5037.8375
3017.68865	5018.9375
3020.10694	4992.5375
3022.52376	5015.2375
3024.9391	4989.0375
3027.35298	4993.4375
3029.76539	4976.0375
3032.17632	4974.0375
3034.5858	4957.0375
3036.9938	4967.9375
3039.40034	4951.5375
3041.80542	4958.9375
3044.20903	4941.8375
3046.61118	4937.2375
3049.01187	4931.1375
3051.4111	4931.7375
3053.80888	4917.0375
3056.20519	4904.2375
3058.60005	4884.8375
3060.99345	4874.1375
3063.3854	4877.2375
3065.7759	4855.9375
3068.16494	4854.8375
3070.55254	4825.9375
3072.93868	4836.7375
3075.32338	4807.5375
3077.70662	4797.6375
3080.08842	4792.7375
3082.46878	4776.7375
3084.84769	4770.6375
3087.22515	4763.3375
3089.60118	4774.6375
3091.97576	4757.3375
3094.3489	4759.1375
3096.72061	4778.2375
3099.09087	4760.7375
3101.4597	4762.7375
3103.82709	4740.6375
3106.19305	4753.0375
3108.55757	4751.6375
3110.92066	4716.0375
3113.28232	4727.4375
3115.64255	4723.4375
3118.00134	4708.2375
3120.35871	4715.4375
3122.71466	4716.4375
3125.06917	4706.7375
3127.42226	4688.9375
3129.77393	4695.7375
3132.12417	4702.6375
3134.47299	4696.4375
3136.82039	4682.6375
3139.16636	4713.2375
3141.51092	4686.9375
3143.85406	4707.0375
3146.19579	4686.1375
3148.53609	4702.9375
3150.87499	4710.9375
3153.21246	4709.8375
3155.54853	4727.8375
3157.88318	4720.7375
3160.21642	4704.6375
3162.54826	4713.3375
3164.87868	4722.7375
3167.2077	4722.4375
3169.5353	4721.1375
3171.86151	4739.5375
3174.18631	4733.9375
3176.5097	4726.8375
3178.83169	4727.2375
3181.15228	4718.1375
3183.47147	4717.6375
3185.78926	4726.9375
3188.10565	4706.0375
3190.42065	4712.3375
3192.73424	4689.1375
3195.04645	4703.4375
3197.35725	4695.4375
3199.66667	4697.6375
3201.97469	4706.9375
3204.28132	4706.7375
3206.58656	4727.5375
3208.8904	4728.3375
3211.19287	4720.0375
3213.49394	4731.1375
3215.79363	4733.9375
3218.09193	4736.4375
3220.38884	4729.9375
3222.68438	4740.1375
3224.97853	4719.4375
3227.2713	4724.1375
3229.56269	4710.8375
3231.8527	4712.0375
3234.14133	4706.1375
3236.42858	4707.6375
3238.71446	4673.9375
3240.99896	4681.6375
3243.28209	4672.5375
3245.56384	4663.1375
3247.84423	4665.1375
3250.12324	4668.9375
3252.40088	4669.8375
3254.67715	4647.9375
3256.95205	4640.0375
3259.22558	4633.4375
3261.49775	4635.5375
3263.76855	4626.7375
3266.03799	4616.1375
3268.30606	4631.0375
3270.57277	4606.3375
3272.83812	4590.8375
3275.10211	4586.7375
3277.36474	4595.3375
3279.62601	4574.1375
3281.88593	4552.0375
3284.14448	4576.7375
3286.40168	4568.4375
3288.65753	4572.6375
3290.91202	4558.3375
3293.16516	4559.1375
3295.41695	4537.4375
3297.66738	4519.8375
3299.91647	4486.0375
3302.16421	4452.0375
3304.4106	4449.2375
3306.65564	4399.7375
3308.89933	4380.0375
3311.14169	4343.8375
3313.38269	4323.3375
3315.62236	4279.6375
3317.86068	4243.7375
3320.09766	4209.2375
3322.3333	4192.2375
3324.5676	4162.4375
3326.80056	4101.2375
3329.03219	4076.9375
3331.26248	3.1375
3333.49143	0.8375
3335.71905	-0.7625
