Data from AgNP_FTO_APTES_UA_10uM_CRN_200uM_R6G_10uM_NaF_0.1M_Addition_RamanShift__13__18-15-50-894.txt Node

Date: Thu Feb 10 18:15:50 GMT 2022
User: TCL
Spectrometer: QEP01345
Trigger mode: 4
Integration Time (sec): 7.000000E0
Scans to average: 10
Electric dark correction enabled: true
Nonlinearity correction enabled: false
Boxcar width: 0
XAxis mode: Raman Shifts
Number of Pixels in Spectrum: 1044
>>>>>Begin Spectral Data<<<<<
46.04893	0.5
50.45542	-0.8
54.85868	-1.8
59.25871	-1.2
63.6555	51.1
68.04907	53.5
72.43941	55
76.82654	57.5
81.21044	61.6
85.59113	62.7
89.96862	65.9
94.34289	67.5
98.71396	69.2
103.08183	71.4
107.4465	75.4
111.80798	73.4
116.16626	77.7
120.52136	81.9
124.87327	81
129.222	85.1
133.56755	91.5
137.90993	93
142.24913	99.7
146.58517	112.1
150.91804	130.9
155.24774	148.9
159.57429	183
163.89768	229.3
168.21792	297.6
172.53501	399.5
176.84895	562.6
181.15975	791
185.46741	1109.9
189.77193	1542.8
194.07331	2055.7
198.37157	2668.7
202.6667	3293.6
206.9587	3932.3
211.24758	4521.7
215.53334	5136.1
219.81599	5767.9
224.09553	6453.1
228.37195	7180.6
232.64527	8028.6
236.91549	8917.2
241.18261	9844.9
245.44663	10764.7
249.70755	11560.9
253.96539	12313
258.22014	12938.6
262.4718	13414
266.72039	13741.6
270.96589	13927.6
275.20832	13969
279.44768	13937.2
283.68397	13809.8
287.91719	13717.6
292.14735	13594.3
296.37445	13571.1
300.59849	13543
304.81948	13507
309.03742	13441.3
313.25231	13352.3
317.46415	13159.5
321.67296	12965.7
325.87872	12772.6
330.08145	12698.1
334.28114	12731.2
338.47781	12851.3
342.67145	12995.3
346.86207	13140.1
351.04966	13285.1
355.23424	13437.2
359.4158	13632.2
363.59435	13780.4
367.76989	13873.7
371.94243	13975.7
376.11196	14071.4
380.27849	14136
384.44203	14231.1
388.60257	14340.7
392.76012	14471.6
396.91468	14608.7
401.06626	14781.3
405.21485	14925.8
409.36047	14896.7
413.50311	14835
417.64277	14758.2
421.77947	14765.7
425.9132	14834.7
430.04396	14920.1
434.17176	15001.2
438.2966	15072.8
442.41849	15228.7
446.53742	15395.2
450.6534	15633.5
454.76644	15802.2
458.87653	15877.1
462.98368	15935.6
467.08789	15889.2
471.18916	15820
475.2875	15783.2
479.38291	15740.1
483.4754	15693.8
487.56496	15604.5
491.6516	15488.5
495.73531	15423.7
499.81612	15364.4
503.89401	15396.1
507.96899	15427
512.04106	15462.2
516.11023	15466
520.1765	15429.3
524.23987	15365.4
528.30034	15264.4
532.35792	15199.8
536.41261	15127.1
540.46441	15088.4
544.51333	15131.4
548.55936	15239.5
552.60252	15422.2
556.64279	15621
560.6802	15708.8
564.71473	15806.8
568.7464	15929.2
572.7752	16153.5
576.80114	16431.5
580.82422	16705.8
584.84444	16894.6
588.86181	17050.7
592.87633	17129.4
596.888	17107.4
600.89682	16976.8
604.9028	17053.1
608.90594	17668.8
612.90624	18321.7
616.90371	17718.1
620.89834	16241.5
624.89015	15586.2
628.87913	15576.1
632.86528	15684.1
636.84862	15738.3
640.82913	15634.7
644.80683	15480
648.78172	15349.1
652.75379	15306.1
656.72306	15405.1
660.68952	15569.5
664.65319	15542.6
668.61405	15431.6
672.57211	15407.4
676.52738	15467.1
680.47986	15500.3
684.42955	15477.4
688.37646	15457.6
692.32058	15461.8
696.26192	15540.6
700.20048	15635.7
704.13626	15734.3
708.06928	15793.3
711.99952	15760.5
715.927	15720.8
719.85171	15685.8
723.77365	15662.2
727.69284	15560.8
731.60928	15469.3
735.52295	15413.4
739.43388	15374.5
743.34206	15384.3
747.24749	15447.6
751.15017	15498.7
755.05012	15669.3
758.94733	15901
762.8418	16274.1
766.73354	16919.1
770.62254	17479.9
774.50882	17589
778.39237	17238.4
782.27321	16608.1
786.15132	16039.9
790.02671	15709.5
793.89938	15493.2
797.76935	15394.1
801.6366	15354.4
805.50115	15321.5
809.36299	15289.5
813.22213	15250.8
817.07857	15241.3
820.93231	15247.3
824.78336	15205.3
828.63172	15203.3
832.47738	15204.4
836.32036	15205.9
840.16066	15191.6
843.99827	15195
847.8332	15189.2
851.66546	15199.3
855.49504	15220.6
859.32195	15254
863.1462	15224.9
866.96777	15201.7
870.78668	15176.7
874.60293	15187.5
878.41652	15210.8
882.22745	15236.1
886.03573	15247.1
889.84136	15269.6
893.64433	15259.2
897.44466	15266.6
901.24235	15220.8
905.0374	15218.7
908.8298	15212
912.61957	15208.3
916.40671	15271.3
920.19121	15363.8
923.97308	15425.9
927.75233	15406.8
931.52895	15321.2
935.30295	15184.7
939.07433	15042.8
942.84309	14939.1
946.60924	14853.5
950.37278	14774.7
954.13371	14773.1
957.89203	14736
961.64774	14726.9
965.40086	14715.1
969.15137	14673.7
972.89929	14666
976.64461	14643.5
980.38733	14608.3
984.12747	14610
987.86502	14645.9
991.59999	14644.8
995.33237	14688.2
999.06217	14778.1
1002.78939	14844.4
1006.51404	14973.1
1010.23611	15063.8
1013.95561	15182.9
1017.67255	15178.9
1021.38692	15173.2
1025.09872	15099
1028.80796	15024.6
1032.51465	14982.6
1036.21877	14959
1039.92035	15004.7
1043.61937	15010.6
1047.31584	15094.4
1051.00976	15154.1
1054.70114	15187.2
1058.38998	15274.3
1062.07627	15333.1
1065.76003	15479.4
1069.44126	15586
1073.11995	15691.3
1076.79611	15807.2
1080.46974	15874.6
1084.14085	15848.2
1087.80943	15948
1091.47549	15982.4
1095.13903	16037
1098.80005	16004.7
1102.45857	15844.4
1106.11456	15646.9
1109.76805	15484.9
1113.41903	15482.4
1117.06751	15486.4
1120.71348	15593.6
1124.35696	15673.3
1127.99793	15834.8
1131.63641	15895.3
1135.2724	15852.3
1138.90589	15752.7
1142.5369	15698.1
1146.16542	15689.1
1149.79145	15708.1
1153.415	15796.1
1157.03607	15869.1
1160.65467	16036.3
1164.27079	16333.1
1167.88443	16718.1
1171.49561	17146
1175.10432	17674.8
1178.71056	18352.9
1182.31434	19002.7
1185.91565	19473.2
1189.51451	19698.6
1193.11091	19648.8
1196.70485	19420
1200.29634	18990.9
1203.88538	18625.3
1207.47197	18263
1211.05612	17996.7
1214.63782	17744
1218.21708	17484.2
1221.79391	17222.8
1225.36829	16981.4
1228.94024	16803
1232.50976	16757.5
1236.07685	16739.9
1239.6415	16723.9
1243.20374	16775.5
1246.76355	16858.5
1250.32093	16943
1253.8759	17088.5
1257.42845	17305.2
1260.97859	17595.4
1264.52631	17826.1
1268.07163	18061.5
1271.61453	18261.1
1275.15503	18472.2
1278.69312	18652.2
1282.22882	18900.2
1285.76211	19164.1
1289.29301	19462.1
1292.82151	19854.1
1296.34761	20323.6
1299.87133	20905.6
1303.39266	21448.7
1306.9116	21971.4
1310.42815	22432.1
1313.94233	22638.5
1317.45412	22604.5
1320.96354	22452.3
1324.47058	22331.6
1327.97525	22255.7
1331.47754	22265.4
1334.97747	22366.2
1338.47502	22513.3
1341.97022	22747
1345.46305	22995.3
1348.95352	23132.6
1352.44163	23133.4
1355.92738	23093.3
1359.41078	23195.7
1362.89183	23272.9
1366.37053	22858.3
1369.84688	21722
1373.32088	20446.6
1376.79254	19472.8
1380.26186	19007
1383.72883	18846.5
1387.19347	18731.5
1390.65578	18602.3
1394.11575	18460.9
1397.57339	18426
1401.0287	18404.1
1404.48168	18414.5
1407.93234	18324.3
1411.38068	18114.8
1414.82669	17833.9
1418.27039	17472.5
1421.71177	17078
1425.15083	16789.8
1428.58758	16605.1
1432.02203	16607.2
1435.45416	16709.4
1438.88399	16852.5
1442.31151	16988.4
1445.73673	17115.8
1449.15965	17215.2
1452.58027	17343.4
1455.9986	17438.1
1459.41463	17553.2
1462.82837	17723
1466.23982	17924.8
1469.64898	18103.3
1473.05586	18263.4
1476.46045	18295.8
1479.86276	18340.1
1483.26279	18289.9
1486.66054	18301.3
1490.05602	18417.9
1493.44922	18642
1496.84016	18953.7
1500.22882	19447.9
1503.61521	20083.2
1506.99934	20666.9
1510.38121	21096.5
1513.76081	21098.9
1517.13816	20859
1520.51324	20394.3
1523.88607	20006.2
1527.25665	19742.2
1530.62498	19624.8
1533.99105	19484.4
1537.35488	19219
1540.71647	18992
1544.07581	18683.4
1547.4329	18435.4
1550.78776	18133.3
1554.14038	17954.5
1557.49077	17892.7
1560.83892	17872.1
1564.18484	17863.4
1567.52853	17927.8
1570.86999	18038.5
1574.20922	18144.6
1577.54624	18228.5
1580.88103	18187.2
1584.2136	18068.6
1587.54395	18096.9
1590.87208	18309
1594.19801	18714.8
1597.52172	19119.2
1600.84321	19306
1604.16251	18944.8
1607.47959	18436.7
1610.79447	17778.8
1614.10715	17052.8
1617.41763	16391.4
1620.7259	15861.1
1624.03199	15516
1627.33587	15376.3
1630.63757	15452.1
1633.93707	15759.3
1637.23439	16344.8
1640.52951	17282.6
1643.82246	18481.5
1647.11321	19561.2
1650.40179	20048.3
1653.68819	19659.6
1656.97241	18464.5
1660.25446	17068.5
1663.53433	15905.7
1666.81203	14988.4
1670.08756	14365.8
1673.36092	13985.6
1676.63211	13719.7
1679.90115	13548.1
1683.16801	13385.3
1686.43272	13305.5
1689.69527	13216
1692.95567	13142.4
1696.2139	13130.4
1699.46999	13105.6
1702.72392	13050.1
1705.97571	13055.2
1709.22535	12981.3
1712.47284	12979.1
1715.71819	12955.1
1718.96139	12920.6
1722.20246	12894.8
1725.44139	12854.1
1728.67818	12822
1731.91284	12740.1
1735.14537	12696.4
1738.37576	12645.4
1741.60403	12624.8
1744.83017	12624.9
1748.05418	12597.3
1751.27607	12534.9
1754.49584	12549.7
1757.71349	12593
1760.92903	12530.5
1764.14244	12515.3
1767.35375	12502.4
1770.56294	12484.2
1773.77002	12467.3
1776.97499	12451.6
1780.17785	12401
1783.37861	12374.6
1786.57727	12354
1789.77382	12323.8
1792.96828	12300.7
1796.16064	12253.5
1799.3509	12237.3
1802.53907	12230.3
1805.72514	12177.4
1808.90913	12138.4
1812.09102	12145.9
1815.27083	12113
1818.44856	12066.9
1821.6242	12062.8
1824.79776	12032.9
1827.96924	12048.8
1831.13864	12025.4
1834.30597	12004.2
1837.47122	12002.8
1840.6344	11979.6
1843.7955	11980
1846.95454	11941.9
1850.11151	11928.2
1853.26642	11917.6
1856.41926	11925.8
1859.57004	11927.4
1862.71876	11914.7
1865.86542	11909.9
1869.01003	11856.7
1872.15258	11850.3
1875.29308	11859.7
1878.43152	11819.5
1881.56792	11794
1884.70227	11773.3
1887.83457	11761.6
1890.96482	11701.7
1894.09304	11720.3
1897.21921	11712.8
1900.34335	11661.4
1903.46544	11649.5
1906.58551	11626.6
1909.70353	11615.5
1912.81953	11575.6
1915.93349	11578.9
1919.04543	11553.7
1922.15534	11513.2
1925.26322	11493.9
1928.36908	11474.9
1931.47292	11478.5
1934.57473	11470.1
1937.67453	11430.6
1940.77232	11377.3
1943.86808	11376.9
1946.96184	11302
1950.05358	11301.5
1953.14331	11247.3
1956.23103	11204.2
1959.31675	11178.1
1962.40046	11147.6
1965.48217	11122
1968.56188	11074.4
1971.63959	11030.4
1974.7153	11006.7
1977.78901	10996.4
1980.86073	10925.7
1983.93046	10903.9
1986.99819	10869.2
1990.06394	10862.8
1993.1277	10820.3
1996.18947	10787.2
1999.24925	10758.2
2002.30706	10726.7
2005.36288	10680.7
2008.41672	10644.8
2011.46859	10631.3
2014.51848	10593.5
2017.56639	10575.2
2020.61233	10538.2
2023.6563	10469.2
2026.6983	10447.4
2029.73833	10453.8
2032.7764	10397.4
2035.8125	10388.2
2038.84664	10349.8
2041.87881	10310.6
2044.90903	10303.5
2047.93729	10263.9
2050.96359	10240.7
2053.98794	10216.3
2057.01034	10235.2
2060.03078	10214.9
2063.04927	10183.3
2066.06582	10199.5
2069.08042	10196.4
2072.09307	10193.2
2075.10378	10191.3
2078.11255	10191.8
2081.11938	10194.1
2084.12426	10139.2
2087.12722	10162.9
2090.12824	10140.7
2093.12732	10138
2096.12447	10140.6
2099.11969	10134.8
2102.11299	10125.7
2105.10435	10130.6
2108.09379	10109.3
2111.08131	10126.5
2114.0669	10129.7
2117.05057	10139.3
2120.03233	10132.7
2123.01216	10162.5
2125.99008	10154.7
2128.96609	10141.1
2131.94018	10148.9
2134.91236	10163.5
2137.88263	10160.4
2140.851	10186.8
2143.81746	10176.5
2146.78201	10167.7
2149.74466	10160.5
2152.7054	10176.9
2155.66425	10161
2158.6212	10165.8
2161.57625	10144.5
2164.52941	10131.1
2167.48067	10144.2
2170.43004	10112
2173.37752	10102.6
2176.32311	10118.4
2179.26681	10115.8
2182.20863	10127.8
2185.14856	10121.1
2188.08661	10082.7
2191.02278	10096.8
2193.95707	10104.3
2196.88948	10125.1
2199.82001	10080.6
2202.74867	10065.2
2205.67545	10028.3
2208.60037	10015.9
2211.52341	10002.2
2214.44458	9983.9
2217.36388	9950.9
2220.28132	9923.3
2223.1969	9898.2
2226.11061	9908.3
2229.02246	9848.2
2231.93245	9830.4
2234.84058	9844.7
2237.74686	9826.8
2240.65128	9811.1
2243.55385	9766.1
2246.45456	9748
2249.35343	9753.1
2252.25044	9727.8
2255.14561	9704.9
2258.03893	9687
2260.93041	9675.7
2263.82004	9627.4
2266.70783	9599
2269.59378	9601
2272.4779	9555.5
2275.36017	9515.8
2278.24061	9528.3
2281.11922	9489.8
2283.996	9515.8
2286.87094	9485.1
2289.74405	9473.8
2292.61534	9455
2295.4848	9432.4
2298.35243	9449.3
2301.21824	9415
2304.08223	9417.9
2306.94439	9387.8
2309.80474	9400.2
2312.66327	9385.8
2315.51999	9349.8
2318.37489	9344.6
2321.22797	9305.6
2324.07925	9295.2
2326.92871	9296.1
2329.77637	9280.9
2332.62222	9254.7
2335.46626	9244.7
2338.3085	9186.7
2341.14893	9236.9
2343.98756	9216
2346.8244	9171.5
2349.65943	9178.1
2352.49267	9181.8
2355.32411	9167.4
2358.15376	9153
2360.98161	9152.4
2363.80768	9162
2366.63195	9144.5
2369.45444	9128.4
2372.27514	9091.8
2375.09405	9100.5
2377.91118	9106.9
2380.72652	9058.3
2383.54009	9048.7
2386.35187	9003.8
2389.16188	8994.6
2391.97011	8975.3
2394.77657	8956.2
2397.58125	8942
2400.38416	8914.8
2403.18529	8902.7
2405.98466	8895.5
2408.78226	8867.4
2411.57809	8855.1
2414.37216	8818.2
2417.16446	8825.2
2419.955	8808.1
2422.74378	8808.7
2425.5308	8790.8
2428.31606	8812.3
2431.09956	8794.6
2433.88131	8769.4
2436.6613	8771.5
2439.43954	8745.6
2442.21603	8741
2444.99077	8718.6
2447.76377	8738
2450.53501	8704.7
2453.30451	8700.5
2456.07226	8668.7
2458.83827	8668.7
2461.60254	8673.8
2464.36507	8656.1
2467.12586	8634
2469.88492	8625
2472.64224	8635.8
2475.39782	8604.3
2478.15167	8611.6
2480.90379	8603.8
2483.65417	8591.2
2486.40283	8601.1
2489.14976	8593.2
2491.89497	8590.6
2494.63845	8574.7
2497.3802	8524.2
2500.12024	8548.4
2502.85855	8534.5
2505.59514	8520.3
2508.33002	8496.3
2511.06318	8487.8
2513.79462	8477.1
2516.52435	8462.4
2519.25237	8466
2521.97867	8435.1
2524.70327	8421.9
2527.42616	8442.9
2530.14734	8441.3
2532.86681	8417.9
2535.58458	8399.4
2538.30065	8401.2
2541.01501	8395
2543.72768	8354.1
2546.43864	8354.6
2549.14791	8341
2551.85548	8347.6
2554.56136	8314.3
2557.26554	8270.4
2559.96803	8255
2562.66883	8249.3
2565.36794	8217.7
2568.06536	8199.5
2570.7611	8197.5
2573.45514	8176.1
2576.14751	8132.2
2578.83819	8127.9
2581.52719	8110.1
2584.21451	8102.4
2586.90015	8114.4
2589.58411	8092.5
2592.2664	8083.8
2594.94701	8048.8
2597.62594	8061.3
2600.30321	8017.2
2602.9788	7996.6
2605.65273	7984.8
2608.32498	7958.4
2610.99557	7972.1
2613.66449	7951.4
2616.33175	7942
2618.99734	7912.3
2621.66128	7913.1
2624.32355	7903.3
2626.98416	7888.2
2629.64311	7877.8
2632.30041	7854.8
2634.95605	7851.6
2637.61004	7819.2
2640.26238	7791.5
2642.91306	7823.2
2645.56209	7816.7
2648.20948	7809.9
2650.85521	7786.4
2653.4993	7808.6
2656.14175	7790.3
2658.78255	7791.3
2661.42171	7777.6
2664.05923	7783.7
2666.6951	7781.5
2669.32934	7798
2671.96194	7779.3
2674.59291	7775.5
2677.22224	7766.9
2679.84993	7784.9
2682.476	7760.7
2685.10043	7759.1
2687.72324	7745.9
2690.34441	7748
2692.96396	7762.1
2695.58188	7709
2698.19818	7716.4
2700.81285	7739.1
2703.4259	7753.4
2706.03733	7738.3
2708.64714	7724.7
2711.25533	7782.7
2713.86191	7720.8
2716.46687	7726.1
2719.07021	7720.7
2721.67194	7726.4
2724.27206	7698.5
2726.87057	7727.4
2729.46747	7723.2
2732.06276	7724.2
2734.65644	7707.9
2737.24852	7717.7
2739.83899	7682.2
2742.42786	7682.4
2745.01513	7668
2747.60079	7663.3
2750.18486	7625.1
2752.76733	7634.5
2755.3482	7607.6
2757.92747	7599.3
2760.50515	7583.5
2763.08123	7569.5
2765.65573	7565.6
2768.22863	7544.2
2770.79994	7552.8
2773.36967	7528.8
2775.9378	7532.9
2778.50435	7513.3
2781.06932	7517.3
2783.6327	7487.2
2786.1945	7504.4
2788.75471	7497.4
2791.31335	7454.3
2793.87041	7436.2
2796.42589	7442.8
2798.97979	7428.7
2801.53212	7411.1
2804.08288	7396.7
2806.63206	7386.9
2809.17967	7363.9
2811.72571	7329.4
2814.27018	7305.3
2816.81308	7297
2819.35442	7284.4
2821.89419	7258.3
2824.43239	7247.3
2826.96904	7250.2
2829.50412	7235
2832.03763	7236.9
2834.56959	7226.2
2837.1	7204.9
2839.62884	7200.4
2842.15613	7212.6
2844.68186	7229.3
2847.20604	7246
2849.72867	7246.4
2852.24974	7246.9
2854.76927	7231.8
2857.28724	7217.5
2859.80367	7185
2862.31855	7187.8
2864.83189	7172.8
2867.34368	7152.6
2869.85393	7149.3
2872.36264	7147.9
2874.8698	7142
2877.37543	7123.8
2879.87952	7126.9
2882.38207	7117.9
2884.88308	7096
2887.38256	7109.7
2889.88051	7115.4
2892.37692	7104.9
2894.8718	7069.9
2897.36515	7079.9
2899.85698	7097.7
2902.34727	7107.9
2904.83604	7102.5
2907.32328	7114.5
2909.809	7102.6
2912.29319	7096.8
2914.77587	7072.6
2917.25702	7087.8
2919.73665	7076.8
2922.21476	7082.6
2924.69136	7079.4
2927.16644	7077.7
2929.64	7067.4
2932.11205	7061.8
2934.58258	7034
2937.05161	7067.4
2939.51912	7029.4
2941.98513	7015.5
2944.44962	7012.5
2946.91261	6988
2949.37409	6998.8
2951.83407	6981.1
2954.29254	6968.2
2956.74951	6950.8
2959.20498	6956.1
2961.65895	6956.8
2964.11142	6962.7
2966.56239	6919
2969.01186	6916.4
2971.45984	6902.1
2973.90632	6909.3
2976.35131	6878.9
2978.7948	6887.2
2981.23681	6850.6
2983.67732	6842.6
2986.11635	6842
2988.55388	6816.5
2990.98993	6815.7
2993.4245	6771.9
2995.85758	6759.2
2998.28917	6746.2
3000.71928	6733.1
3003.14791	6725.5
3005.57506	6729.8
3008.00073	6714.7
3010.42493	6675.2
3012.84764	6696.8
3015.26888	6675.2
3017.68865	6671.5
3020.10694	6640.1
3022.52376	6630.2
3024.9391	6618.8
3027.35298	6609.4
3029.76539	6597.5
3032.17632	6594.4
3034.5858	6618.8
3036.9938	6590.6
3039.40034	6590.4
3041.80542	6592.4
3044.20903	6563.2
3046.61118	6552.6
3049.01187	6515.7
3051.4111	6531.1
3053.80888	6534.4
3056.20519	6524.1
3058.60005	6472
3060.99345	6475.8
3063.3854	6469.6
3065.7759	6454.1
3068.16494	6448.6
3070.55254	6431.7
3072.93868	6440.9
3075.32338	6425.6
3077.70662	6392.3
3080.08842	6391.8
3082.46878	6398.4
3084.84769	6374.7
3087.22515	6374.8
3089.60118	6369.5
3091.97576	6378
3094.3489	6354.4
3096.72061	6364.5
3099.09087	6375.5
3101.4597	6350.4
3103.82709	6374.3
3106.19305	6369.9
3108.55757	6340.6
3110.92066	6344.7
3113.28232	6336.5
3115.64255	6322.1
3118.00134	6304.4
3120.35871	6293.2
3122.71466	6282.9
3125.06917	6253.8
3127.42226	6255.3
3129.77393	6247.2
3132.12417	6256.8
3134.47299	6243.6
3136.82039	6263.8
3139.16636	6267
3141.51092	6274.4
3143.85406	6267.5
3146.19579	6258.9
3148.53609	6248.6
3150.87499	6263.8
3153.21246	6260.9
3155.54853	6256.4
3157.88318	6278.5
3160.21642	6285
3162.54826	6288.1
3164.87868	6284.1
3167.2077	6283.5
3169.5353	6287
3171.86151	6284.9
3174.18631	6296.5
3176.5097	6278
3178.83169	6268
3181.15228	6273.6
3183.47147	6257.9
3185.78926	6252.6
3188.10565	6254.7
3190.42065	6231.4
3192.73424	6224.5
3195.04645	6218.7
3197.35725	6222.3
3199.66667	6207.8
3201.97469	6226.8
3204.28132	6213
3206.58656	6230.9
3208.8904	6219.2
3211.19287	6227.8
3213.49394	6247.1
3215.79363	6241.7
3218.09193	6261.1
3220.38884	6231.5
3222.68438	6230.5
3224.97853	6211.7
3227.2713	6223.3
3229.56269	6218.4
3231.8527	6219.8
3234.14133	6198.2
3236.42858	6195.9
3238.71446	6179.1
3240.99896	6171.2
3243.28209	6140.2
3245.56384	6138.3
3247.84423	6130.9
3250.12324	6132.3
3252.40088	6111.2
3254.67715	6101.8
3256.95205	6103.7
3259.22558	6121
3261.49775	6077.6
3263.76855	6093
3266.03799	6072.9
3268.30606	6065.9
3270.57277	6053.9
3272.83812	6046.9
3275.10211	6045.6
3277.36474	6026.9
3279.62601	6001
3281.88593	5998.1
3284.14448	5993.3
3286.40168	6000.4
3288.65753	6012.2
3290.91202	6003.4
3293.16516	5956.7
3295.41695	5958.8
3297.66738	5929.3
3299.91647	5886.4
3302.16421	5836.4
3304.4106	5830.6
3306.65564	5801
3308.89933	5759.7
3311.14169	5712.8
3313.38269	5673.7
3315.62236	5622.9
3317.86068	5580.4
3320.09766	5528.8
3322.3333	5489.5
3324.5676	5470.8
3326.80056	5365.4
3329.03219	5333.1
3331.26248	2.8
3333.49143	0.1
3335.71905	-0.5
