Data from AgNP_FTO_APTES_UA_10uM_CRN_100uM_R6G_10uM_NaF_0.1M_Addition_RamanShift__12__17-38-30-848.txt Node

Date: Thu Feb 10 17:38:30 GMT 2022
User: TCL
Spectrometer: QEP01345
Trigger mode: 4
Integration Time (sec): 7.000000E0
Scans to average: 10
Electric dark correction enabled: true
Nonlinearity correction enabled: false
Boxcar width: 0
XAxis mode: Raman Shifts
Number of Pixels in Spectrum: 1044
>>>>>Begin Spectral Data<<<<<
46.04893	0.7375
50.45542	-1.7625
54.85868	-1.0625
59.25871	-1.0625
63.6555	59.9375
68.04907	58.6375
72.43941	64.0375
76.82654	60.7375
81.21044	73.3375
85.59113	67.7375
89.96862	70.4375
94.34289	77.2375
98.71396	74.4375
103.08183	81.9375
107.4465	82.3375
111.80798	81.9375
116.16626	86.0375
120.52136	94.8375
124.87327	94.8375
129.222	95.2375
133.56755	104.3375
137.90993	104.4375
142.24913	117.0375
146.58517	129.2375
150.91804	150.1375
155.24774	179.9375
159.57429	214.4375
163.89768	274.9375
168.21792	361.5375
172.53501	497.5375
176.84895	682.1375
181.15975	968.0375
185.46741	1357.1375
189.77193	1895.5375
194.07331	2521.7375
198.37157	3265.7375
202.6667	4048.0375
206.9587	4845.5375
211.24758	5595.0375
215.53334	6316.1375
219.81599	7106.5375
224.09553	7929.4375
228.37195	8831.9375
232.64527	9872.0375
236.91549	10986.9375
241.18261	12132.9375
245.44663	13221.6375
249.70755	14275.0375
253.96539	15180.3375
258.22014	15965.8375
262.4718	16618.3375
266.72039	17074.3375
270.96589	17298.9375
275.20832	17377.3375
279.44768	17325.9375
283.68397	17219.8375
287.91719	17037.7375
292.14735	16936.8375
296.37445	16871.0375
300.59849	16844.5375
304.81948	16809.6375
309.03742	16687.5375
313.25231	16531.2375
317.46415	16272.4375
321.67296	16019.1375
325.87872	15798.8375
330.08145	15719.1375
334.28114	15817.8375
338.47781	15950.3375
342.67145	16099.5375
346.86207	16322.4375
351.04966	16515.7375
355.23424	16731.0375
359.4158	16967.8375
363.59435	17134.7375
367.76989	17310.5375
371.94243	17415.7375
376.11196	17558.4375
380.27849	17645.3375
384.44203	17741.0375
388.60257	17858.7375
392.76012	17996.1375
396.91468	18188.3375
401.06626	18354.5375
405.21485	18557.3375
409.36047	18541.6375
413.50311	18435.1375
417.64277	18293.9375
421.77947	18281.7375
425.9132	18334.1375
430.04396	18415.1375
434.17176	18524.3375
438.2966	18623.8375
442.41849	18792.9375
446.53742	19033.2375
450.6534	19240.9375
454.76644	19450.3375
458.87653	19563.1375
462.98368	19596.7375
467.08789	19617.8375
471.18916	19616.0375
475.2875	19521.9375
479.38291	19504.2375
483.4754	19427.1375
487.56496	19283.6375
491.6516	19173.7375
495.73531	19109.5375
499.81612	19021.9375
503.89401	19098.1375
507.96899	19182.8375
512.04106	19188.4375
516.11023	19222.1375
520.1765	19203.2375
524.23987	19107.1375
528.30034	19024.3375
532.35792	18958.0375
536.41261	18886.6375
540.46441	18819.3375
544.51333	18869.7375
548.55936	18993.9375
552.60252	19204.4375
556.64279	19454.3375
560.6802	19546.1375
564.71473	19614.2375
568.7464	19718.7375
572.7752	19955.8375
576.80114	20087.8375
580.82422	20305.4375
584.84444	20445.2375
588.86181	20440.7375
592.87633	20379.5375
596.888	20354.7375
600.89682	20464.2375
604.9028	20853.0375
608.90594	21756.5375
612.90624	22768.1375
616.90371	22093.6375
620.89834	20223.0375
624.89015	19391.2375
628.87913	19274.6375
632.86528	19399.8375
636.84862	19498.7375
640.82913	19446.9375
644.80683	19246.7375
648.78172	19124.7375
652.75379	19017.4375
656.72306	19157.7375
660.68952	19339.5375
664.65319	19321.5375
668.61405	19208.9375
672.57211	19227.5375
676.52738	19272.6375
680.47986	19307.6375
684.42955	19266.3375
688.37646	19239.3375
692.32058	19267.1375
696.26192	19379.3375
700.20048	19474.9375
704.13626	19614.7375
708.06928	19637.5375
711.99952	19564.9375
715.927	19510.6375
719.85171	19478.7375
723.77365	19464.0375
727.69284	19395.4375
731.60928	19276.1375
735.52295	19211.7375
739.43388	19190.0375
743.34206	19243.6375
747.24749	19259.4375
751.15017	19369.1375
755.05012	19463.4375
758.94733	19745.9375
762.8418	20195.8375
766.73354	20917.4375
770.62254	21616.5375
774.50882	21887.2375
778.39237	21473.9375
782.27321	20666.3375
786.15132	20028.6375
790.02671	19545.6375
793.89938	19333.0375
797.76935	19199.5375
801.6366	19147.0375
805.50115	19137.6375
809.36299	19068.8375
813.22213	19024.6375
817.07857	18989.8375
820.93231	19010.4375
824.78336	19036.9375
828.63172	19039.9375
832.47738	19028.5375
836.32036	19028.7375
840.16066	19011.5375
843.99827	18962.4375
847.8332	18971.2375
851.66546	18990.2375
855.49504	19023.4375
859.32195	19057.3375
863.1462	19049.1375
866.96777	19051.1375
870.78668	19001.0375
874.60293	19035.2375
878.41652	19062.4375
882.22745	19085.7375
886.03573	19120.4375
889.84136	19104.6375
893.64433	19085.3375
897.44466	19065.4375
901.24235	19008.1375
905.0374	18962.7375
908.8298	19019.8375
912.61957	18995.9375
916.40671	19055.0375
920.19121	19141.2375
923.97308	19183.9375
927.75233	19117.0375
931.52895	19054.3375
935.30295	18970.3375
939.07433	18814.2375
942.84309	18715.3375
946.60924	18603.2375
950.37278	18594.4375
954.13371	18596.1375
957.89203	18490.0375
961.64774	18508.6375
965.40086	18465.0375
969.15137	18460.0375
972.89929	18423.3375
976.64461	18385.7375
980.38733	18394.6375
984.12747	18439.1375
987.86502	18468.5375
991.59999	18512.9375
995.33237	18529.8375
999.06217	18673.2375
1002.78939	18751.4375
1006.51404	18814.4375
1010.23611	18945.9375
1013.95561	19047.9375
1017.67255	19069.9375
1021.38692	19021.8375
1025.09872	18937.3375
1028.80796	18870.9375
1032.51465	18885.1375
1036.21877	18916.4375
1039.92035	18937.9375
1043.61937	18987.1375
1047.31584	18992.3375
1051.00976	19033.0375
1054.70114	19092.6375
1058.38998	19166.1375
1062.07627	19331.9375
1065.76003	19437.1375
1069.44126	19480.4375
1073.11995	19651.9375
1076.79611	19747.4375
1080.46974	19762.9375
1084.14085	19809.8375
1087.80943	19852.4375
1091.47549	19932.6375
1095.13903	19939.4375
1098.80005	19912.0375
1102.45857	19764.0375
1106.11456	19588.3375
1109.76805	19494.9375
1113.41903	19454.7375
1117.06751	19421.6375
1120.71348	19528.7375
1124.35696	19639.1375
1127.99793	19764.5375
1131.63641	19819.2375
1135.2724	19752.4375
1138.90589	19671.3375
1142.5369	19603.2375
1146.16542	19576.3375
1149.79145	19558.6375
1153.415	19595.3375
1157.03607	19659.4375
1160.65467	19880.1375
1164.27079	20192.7375
1167.88443	20588.3375
1171.49561	21090.4375
1175.10432	21710.4375
1178.71056	22490.6375
1182.31434	23259.1375
1185.91565	23841.9375
1189.51451	24024.6375
1193.11091	23936.5375
1196.70485	23562.8375
1200.29634	23049.1375
1203.88538	22583.9375
1207.47197	22193.7375
1211.05612	21809.0375
1214.63782	21457.5375
1218.21708	21218.7375
1221.79391	20911.4375
1225.36829	20711.9375
1228.94024	20627.6375
1232.50976	20568.6375
1236.07685	20584.2375
1239.6415	20580.3375
1243.20374	20656.4375
1246.76355	20732.6375
1250.32093	20857.9375
1253.8759	21027.7375
1257.42845	21278.9375
1260.97859	21527.2375
1264.52631	21807.7375
1268.07163	22037.8375
1271.61453	22262.9375
1275.15503	22414.9375
1278.69312	22656.8375
1282.22882	22812.3375
1285.76211	23009.9375
1289.29301	23256.5375
1292.82151	23621.5375
1296.34761	24108.4375
1299.87133	24618.8375
1303.39266	25249.9375
1306.9116	25899.5375
1310.42815	26444.2375
1313.94233	26773.7375
1317.45412	26780.4375
1320.96354	26613.6375
1324.47058	26435.9375
1327.97525	26360.0375
1331.47754	26282.6375
1334.97747	26335.7375
1338.47502	26569.0375
1341.97022	26886.2375
1345.46305	27186.0375
1348.95352	27418.7375
1352.44163	27442.8375
1355.92738	27443.2375
1359.41078	27666.8375
1362.89183	27835.8375
1366.37053	27380.4375
1369.84688	25988.0375
1373.32088	24489.0375
1376.79254	23421.8375
1380.26186	22839.9375
1383.72883	22603.2375
1387.19347	22462.5375
1390.65578	22297.1375
1394.11575	22142.7375
1397.57339	22026.9375
1401.0287	21959.5375
1404.48168	21896.5375
1407.93234	21838.2375
1411.38068	21695.4375
1414.82669	21388.9375
1418.27039	21062.3375
1421.71177	20699.0375
1425.15083	20436.2375
1428.58758	20237.7375
1432.02203	20220.8375
1435.45416	20306.4375
1438.88399	20451.3375
1442.31151	20584.1375
1445.73673	20717.2375
1449.15965	20827.9375
1452.58027	20961.9375
1455.9986	21047.2375
1459.41463	21183.1375
1462.82837	21385.4375
1466.23982	21590.1375
1469.64898	21843.4375
1473.05586	21961.3375
1476.46045	22032.3375
1479.86276	22078.5375
1483.26279	22061.7375
1486.66054	22093.4375
1490.05602	22212.6375
1493.44922	22448.1375
1496.84016	22752.2375
1500.22882	23408.0375
1503.61521	24188.3375
1506.99934	25072.8375
1510.38121	25645.1375
1513.76081	25712.6375
1517.13816	25270.4375
1520.51324	24572.6375
1523.88607	23966.7375
1527.25665	23550.7375
1530.62498	23344.9375
1533.99105	23161.2375
1537.35488	22956.6375
1540.71647	22691.6375
1544.07581	22421.3375
1547.4329	22183.0375
1550.78776	21939.3375
1554.14038	21818.0375
1557.49077	21789.7375
1560.83892	21778.9375
1564.18484	21836.5375
1567.52853	21912.9375
1570.86999	22004.9375
1574.20922	22126.5375
1577.54624	22209.3375
1580.88103	22082.8375
1584.2136	21884.2375
1587.54395	21817.7375
1590.87208	22000.7375
1594.19801	22363.6375
1597.52172	22809.3375
1600.84321	23005.0375
1604.16251	22697.9375
1607.47959	22191.5375
1610.79447	21573.8375
1614.10715	20883.9375
1617.41763	20150.3375
1620.7259	19614.0375
1624.03199	19222.7375
1627.33587	19059.8375
1630.63757	19135.9375
1633.93707	19456.3375
1637.23439	20031.3375
1640.52951	20936.7375
1643.82246	22044.5375
1647.11321	23053.4375
1650.40179	23581.8375
1653.68819	23270.0375
1656.97241	22044.9375
1660.25446	20653.1375
1663.53433	19414.8375
1666.81203	18553.7375
1670.08756	17912.7375
1673.36092	17522.3375
1676.63211	17232.0375
1679.90115	17031.5375
1683.16801	16899.2375
1686.43272	16801.3375
1689.69527	16722.9375
1692.95567	16652.7375
1696.2139	16605.0375
1699.46999	16588.7375
1702.72392	16558.9375
1705.97571	16508.4375
1709.22535	16496.8375
1712.47284	16472.9375
1715.71819	16447.7375
1718.96139	16407.3375
1722.20246	16397.9375
1725.44139	16364.5375
1728.67818	16313.7375
1731.91284	16212.8375
1735.14537	16151.4375
1738.37576	16120.9375
1741.60403	16102.7375
1744.83017	16068.2375
1748.05418	16042.1375
1751.27607	16024.8375
1754.49584	16001.7375
1757.71349	16019.1375
1760.92903	15999.7375
1764.14244	15968.5375
1767.35375	15944.5375
1770.56294	15936.1375
1773.77002	15919.6375
1776.97499	15872.2375
1780.17785	15820.5375
1783.37861	15813.9375
1786.57727	15787.7375
1789.77382	15762.4375
1792.96828	15717.8375
1796.16064	15650.9375
1799.3509	15675.0375
1802.53907	15628.1375
1805.72514	15592.0375
1808.90913	15557.2375
1812.09102	15546.4375
1815.27083	15501.7375
1818.44856	15479.1375
1821.6242	15469.5375
1824.79776	15438.1375
1827.96924	15447.3375
1831.13864	15414.3375
1834.30597	15396.1375
1837.47122	15377.0375
1840.6344	15370.0375
1843.7955	15359.0375
1846.95454	15325.6375
1850.11151	15286.3375
1853.26642	15305.7375
1856.41926	15311.6375
1859.57004	15298.2375
1862.71876	15282.6375
1865.86542	15259.2375
1869.01003	15225.4375
1872.15258	15197.5375
1875.29308	15202.9375
1878.43152	15169.6375
1881.56792	15155.1375
1884.70227	15119.8375
1887.83457	15087.1375
1890.96482	15058.5375
1894.09304	15026.7375
1897.21921	15008.2375
1900.34335	14977.4375
1903.46544	14972.6375
1906.58551	14968.9375
1909.70353	14909.2375
1912.81953	14893.4375
1915.93349	14907.2375
1919.04543	14866.4375
1922.15534	14818.6375
1925.26322	14798.8375
1928.36908	14787.5375
1931.47292	14760.6375
1934.57473	14746.6375
1937.67453	14723.9375
1940.77232	14672.3375
1943.86808	14596.8375
1946.96184	14560.9375
1950.05358	14538.4375
1953.14331	14511.5375
1956.23103	14487.1375
1959.31675	14401.7375
1962.40046	14394.5375
1965.48217	14326.7375
1968.56188	14276.9375
1971.63959	14222.2375
1974.7153	14184.0375
1977.78901	14141.9375
1980.86073	14106.5375
1983.93046	14065.1375
1986.99819	14037.6375
1990.06394	14007.0375
1993.1277	13948.8375
1996.18947	13905.9375
1999.24925	13868.0375
2002.30706	13836.6375
2005.36288	13765.8375
2008.41672	13740.9375
2011.46859	13700.3375
2014.51848	13668.4375
2017.56639	13666.3375
2020.61233	13613.8375
2023.6563	13555.0375
2026.6983	13520.2375
2029.73833	13496.1375
2032.7764	13434.7375
2035.8125	13415.4375
2038.84664	13352.9375
2041.87881	13344.8375
2044.90903	13298.0375
2047.93729	13290.7375
2050.96359	13286.1375
2053.98794	13237.3375
2057.01034	13224.9375
2060.03078	13204.5375
2063.04927	13185.9375
2066.06582	13204.4375
2069.08042	13164.2375
2072.09307	13179.2375
2075.10378	13156.5375
2078.11255	13127.9375
2081.11938	13148.6375
2084.12426	13107.1375
2087.12722	13138.2375
2090.12824	13093.6375
2093.12732	13101.2375
2096.12447	13099.0375
2099.11969	13086.5375
2102.11299	13075.3375
2105.10435	13096.9375
2108.09379	13108.4375
2111.08131	13139.9375
2114.0669	13120.5375
2117.05057	13136.0375
2120.03233	13140.3375
2123.01216	13140.5375
2125.99008	13143.4375
2128.96609	13158.9375
2131.94018	13154.5375
2134.91236	13160.0375
2137.88263	13190.2375
2140.851	13184.1375
2143.81746	13200.3375
2146.78201	13194.3375
2149.74466	13207.5375
2152.7054	13200.7375
2155.66425	13209.9375
2158.6212	13186.9375
2161.57625	13191.5375
2164.52941	13162.4375
2167.48067	13152.7375
2170.43004	13139.6375
2173.37752	13124.9375
2176.32311	13156.5375
2179.26681	13128.8375
2182.20863	13089.7375
2185.14856	13109.3375
2188.08661	13081.4375
2191.02278	13114.9375
2193.95707	13080.5375
2196.88948	13078.6375
2199.82001	13092.2375
2202.74867	13053.8375
2205.67545	13046.6375
2208.60037	13023.6375
2211.52341	13008.7375
2214.44458	12975.7375
2217.36388	12946.7375
2220.28132	12958.9375
2223.1969	12912.2375
2226.11061	12869.2375
2229.02246	12836.3375
2231.93245	12793.2375
2234.84058	12800.1375
2237.74686	12759.8375
2240.65128	12764.7375
2243.55385	12731.1375
2246.45456	12721.2375
2249.35343	12694.5375
2252.25044	12678.7375
2255.14561	12674.6375
2258.03893	12659.0375
2260.93041	12603.5375
2263.82004	12577.3375
2266.70783	12521.1375
2269.59378	12506.1375
2272.4779	12479.1375
2275.36017	12411.7375
2278.24061	12422.6375
2281.11922	12399.1375
2283.996	12381.9375
2286.87094	12381.7375
2289.74405	12350.9375
2292.61534	12321.6375
2295.4848	12308.2375
2298.35243	12287.5375
2301.21824	12246.6375
2304.08223	12249.9375
2306.94439	12266.6375
2309.80474	12236.3375
2312.66327	12249.5375
2315.51999	12238.6375
2318.37489	12218.6375
2321.22797	12202.9375
2324.07925	12146.5375
2326.92871	12117.4375
2329.77637	12115.4375
2332.62222	12082.5375
2335.46626	12068.8375
2338.3085	12046.0375
2341.14893	12053.0375
2343.98756	12041.6375
2346.8244	12008.8375
2349.65943	11975.8375
2352.49267	11982.3375
2355.32411	11975.5375
2358.15376	11979.4375
2360.98161	11987.6375
2363.80768	11950.6375
2366.63195	11951.5375
2369.45444	11915.2375
2372.27514	11922.1375
2375.09405	11896.7375
2377.91118	11877.1375
2380.72652	11844.1375
2383.54009	11811.8375
2386.35187	11796.9375
2389.16188	11724.8375
2391.97011	11702.0375
2394.77657	11675.9375
2397.58125	11670.3375
2400.38416	11671.1375
2403.18529	11642.3375
2405.98466	11593.2375
2408.78226	11599.0375
2411.57809	11586.8375
2414.37216	11588.0375
2417.16446	11534.2375
2419.955	11538.5375
2422.74378	11530.4375
2425.5308	11525.3375
2428.31606	11528.6375
2431.09956	11508.8375
2433.88131	11481.2375
2436.6613	11491.8375
2439.43954	11466.6375
2442.21603	11459.0375
2444.99077	11441.6375
2447.76377	11396.8375
2450.53501	11428.7375
2453.30451	11389.3375
2456.07226	11366.6375
2458.83827	11357.4375
2461.60254	11335.3375
2464.36507	11324.8375
2467.12586	11315.0375
2469.88492	11306.0375
2472.64224	11322.8375
2475.39782	11295.1375
2478.15167	11301.0375
2480.90379	11264.9375
2483.65417	11282.7375
2486.40283	11265.4375
2489.14976	11261.2375
2491.89497	11233.6375
2494.63845	11236.5375
2497.3802	11221.8375
2500.12024	11222.3375
2502.85855	11210.6375
2505.59514	11179.2375
2508.33002	11171.4375
2511.06318	11149.4375
2513.79462	11169.9375
2516.52435	11136.6375
2519.25237	11123.5375
2521.97867	11079.8375
2524.70327	11089.8375
2527.42616	11078.9375
2530.14734	11057.2375
2532.86681	11050.1375
2535.58458	11041.8375
2538.30065	11036.4375
2541.01501	11023.3375
2543.72768	10988.7375
2546.43864	10966.2375
2549.14791	10980.8375
2551.85548	10952.0375
2554.56136	10940.9375
2557.26554	10888.9375
2559.96803	10864.0375
2562.66883	10813.3375
2565.36794	10802.6375
2568.06536	10787.5375
2570.7611	10771.1375
2573.45514	10741.3375
2576.14751	10718.0375
2578.83819	10703.5375
2581.52719	10674.1375
2584.21451	10672.0375
2586.90015	10663.9375
2589.58411	10652.4375
2592.2664	10620.6375
2594.94701	10611.6375
2597.62594	10579.2375
2600.30321	10555.5375
2602.9788	10538.5375
2605.65273	10497.7375
2608.32498	10509.5375
2610.99557	10487.8375
2613.66449	10478.4375
2616.33175	10452.2375
2618.99734	10447.9375
2621.66128	10430.8375
2624.32355	10441.1375
2626.98416	10399.3375
2629.64311	10370.2375
2632.30041	10360.6375
2634.95605	10321.5375
2637.61004	10317.7375
2640.26238	10301.7375
2642.91306	10298.0375
2645.56209	10284.6375
2648.20948	10263.5375
2650.85521	10270.8375
2653.4993	10287.9375
2656.14175	10279.7375
2658.78255	10256.6375
2661.42171	10268.6375
2664.05923	10282.7375
2666.6951	10264.8375
2669.32934	10267.5375
2671.96194	10243.6375
2674.59291	10259.1375
2677.22224	10246.0375
2679.84993	10265.7375
2682.476	10223.7375
2685.10043	10228.6375
2687.72324	10187.3375
2690.34441	10208.2375
2692.96396	10212.0375
2695.58188	10208.9375
2698.19818	10189.4375
2700.81285	10206.2375
2703.4259	10222.6375
2706.03733	10201.1375
2708.64714	10189.8375
2711.25533	10180.9375
2713.86191	10177.0375
2716.46687	10180.0375
2719.07021	10200.1375
2721.67194	10202.5375
2724.27206	10191.1375
2726.87057	10182.7375
2729.46747	10193.0375
2732.06276	10174.7375
2734.65644	10164.0375
2737.24852	10158.5375
2739.83899	10151.1375
2742.42786	10130.0375
2745.01513	10073.8375
2747.60079	10075.6375
2750.18486	10064.7375
2752.76733	10034.6375
2755.3482	10033.2375
2757.92747	10024.3375
2760.50515	10035.4375
2763.08123	10014.1375
2765.65573	9991.4375
2768.22863	9977.2375
2770.79994	9987.5375
2773.36967	9962.8375
2775.9378	9947.2375
2778.50435	9947.7375
2781.06932	9945.2375
2783.6327	9917.7375
2786.1945	9920.0375
2788.75471	9889.7375
2791.31335	9870.4375
2793.87041	9840.8375
2796.42589	9834.4375
2798.97979	9824.0375
2801.53212	9793.2375
2804.08288	9769.3375
2806.63206	9752.7375
2809.17967	9700.2375
2811.72571	9683.2375
2814.27018	9678.4375
2816.81308	9662.6375
2819.35442	9627.1375
2821.89419	9607.4375
2824.43239	9562.9375
2826.96904	9553.4375
2829.50412	9580.5375
2832.03763	9548.7375
2834.56959	9551.2375
2837.1	9536.6375
2839.62884	9527.6375
2842.15613	9514.0375
2844.68186	9537.2375
2847.20604	9545.0375
2849.72867	9528.3375
2852.24974	9532.3375
2854.76927	9502.4375
2857.28724	9480.0375
2859.80367	9476.8375
2862.31855	9455.8375
2864.83189	9421.3375
2867.34368	9409.5375
2869.85393	9391.1375
2872.36264	9369.4375
2874.8698	9396.4375
2877.37543	9390.5375
2879.87952	9359.9375
2882.38207	9360.3375
2884.88308	9347.0375
2887.38256	9353.3375
2889.88051	9353.5375
2892.37692	9331.5375
2894.8718	9348.4375
2897.36515	9344.5375
2899.85698	9329.8375
2902.34727	9384.2375
2904.83604	9357.0375
2907.32328	9348.0375
2909.809	9347.4375
2912.29319	9346.6375
2914.77587	9347.6375
2917.25702	9335.4375
2919.73665	9328.7375
2922.21476	9325.6375
2924.69136	9327.8375
2927.16644	9298.4375
2929.64	9304.9375
2932.11205	9272.0375
2934.58258	9278.9375
2937.05161	9274.6375
2939.51912	9269.3375
2941.98513	9261.6375
2944.44962	9211.5375
2946.91261	9195.0375
2949.37409	9216.6375
2951.83407	9196.3375
2954.29254	9187.7375
2956.74951	9200.5375
2959.20498	9181.9375
2961.65895	9182.5375
2964.11142	9190.8375
2966.56239	9186.4375
2969.01186	9177.9375
2971.45984	9135.4375
2973.90632	9140.2375
2976.35131	9127.6375
2978.7948	9111.7375
2981.23681	9086.9375
2983.67732	9074.5375
2986.11635	9051.4375
2988.55388	9024.2375
2990.98993	9021.2375
2993.4245	8993.9375
2995.85758	8993.5375
2998.28917	8944.4375
3000.71928	8935.5375
3003.14791	8937.0375
3005.57506	8911.7375
3008.00073	8887.1375
3010.42493	8871.3375
3012.84764	8855.4375
3015.26888	8850.6375
3017.68865	8846.2375
3020.10694	8820.0375
3022.52376	8830.8375
3024.9391	8817.8375
3027.35298	8768.5375
3029.76539	8781.0375
3032.17632	8771.5375
3034.5858	8760.8375
3036.9938	8743.1375
3039.40034	8730.6375
3041.80542	8743.0375
3044.20903	8691.4375
3046.61118	8708.2375
3049.01187	8689.4375
3051.4111	8670.9375
3053.80888	8660.7375
3056.20519	8641.9375
3058.60005	8623.3375
3060.99345	8608.8375
3063.3854	8596.1375
3065.7759	8572.8375
3068.16494	8567.1375
3070.55254	8561.2375
3072.93868	8531.3375
3075.32338	8496.5375
3077.70662	8470.1375
3080.08842	8469.7375
3082.46878	8454.3375
3084.84769	8471.1375
3087.22515	8456.1375
3089.60118	8463.0375
3091.97576	8442.4375
3094.3489	8433.4375
3096.72061	8439.5375
3099.09087	8436.7375
3101.4597	8431.9375
3103.82709	8436.6375
3106.19305	8422.0375
3108.55757	8427.9375
3110.92066	8396.1375
3113.28232	8395.7375
3115.64255	8364.7375
3118.00134	8371.2375
3120.35871	8331.2375
3122.71466	8346.4375
3125.06917	8310.4375
3127.42226	8281.8375
3129.77393	8298.3375
3132.12417	8279.9375
3134.47299	8272.1375
3136.82039	8280.7375
3139.16636	8286.0375
3141.51092	8286.4375
3143.85406	8289.1375
3146.19579	8274.4375
3148.53609	8270.9375
3150.87499	8288.5375
3153.21246	8296.5375
3155.54853	8284.7375
3157.88318	8318.6375
3160.21642	8304.9375
3162.54826	8304.1375
3164.87868	8300.2375
3167.2077	8312.4375
3169.5353	8313.5375
3171.86151	8323.5375
3174.18631	8287.7375
3176.5097	8305.1375
3178.83169	8289.2375
3181.15228	8253.8375
3183.47147	8262.0375
3185.78926	8250.9375
3188.10565	8222.8375
3190.42065	8249.1375
3192.73424	8197.6375
3195.04645	8199.1375
3197.35725	8204.3375
3199.66667	8207.2375
3201.97469	8207.5375
3204.28132	8211.3375
3206.58656	8208.0375
3208.8904	8215.5375
3211.19287	8211.4375
3213.49394	8201.7375
3215.79363	8222.6375
3218.09193	8217.8375
3220.38884	8237.1375
3222.68438	8215.3375
3224.97853	8221.1375
3227.2713	8223.8375
3229.56269	8209.2375
3231.8527	8184.5375
3234.14133	8140.6375
3236.42858	8147.7375
3238.71446	8146.8375
3240.99896	8097.1375
3243.28209	8113.4375
3245.56384	8085.7375
3247.84423	8088.4375
3250.12324	8082.2375
3252.40088	8071.0375
3254.67715	8086.6375
3256.95205	8068.9375
3259.22558	8052.5375
3261.49775	8047.7375
3263.76855	8038.6375
3266.03799	8017.9375
3268.30606	8020.8375
3270.57277	8002.5375
3272.83812	7992.6375
3275.10211	7962.0375
3277.36474	7952.3375
3279.62601	7957.7375
3281.88593	7902.9375
3284.14448	7910.2375
3286.40168	7912.5375
3288.65753	7947.4375
3290.91202	7917.3375
3293.16516	7898.3375
3295.41695	7890.4375
3297.66738	7819.8375
3299.91647	7794.5375
3302.16421	7751.2375
3304.4106	7704.2375
3306.65564	7666.8375
3308.89933	7585.9375
3311.14169	7555.5375
3313.38269	7483.4375
3315.62236	7444.7375
3317.86068	7387.6375
3320.09766	7328.2375
3322.3333	7251.0375
3324.5676	7199.7375
3326.80056	7112.9375
3329.03219	7055.4375
3331.26248	3.7375
3333.49143	0.8375
3335.71905	-0.7625
