Data from AgNP_FTO_APTES_UA_10uM_CRN_50uM_R6G_10uM_NaF_0.1M_Addition_RamanShift__27__17-14-00-818.txt Node

Date: Thu Feb 10 17:14:00 GMT 2022
User: TCL
Spectrometer: QEP01345
Trigger mode: 4
Integration Time (sec): 7.000000E0
Scans to average: 10
Electric dark correction enabled: true
Nonlinearity correction enabled: false
Boxcar width: 0
XAxis mode: Raman Shifts
Number of Pixels in Spectrum: 1044
>>>>>Begin Spectral Data<<<<<
46.04893	0.8
50.45542	-1.2
54.85868	-1.5
59.25871	-1.4
63.6555	69.6
68.04907	71.5
72.43941	71.1
76.82654	74.7
81.21044	81.5
85.59113	78.9
89.96862	84.1
94.34289	87.9
98.71396	87.3
103.08183	95.2
107.4465	95.4
111.80798	97.1
116.16626	97
120.52136	101.9
124.87327	108.5
129.222	111.5
133.56755	118.8
137.90993	125.2
142.24913	138.5
146.58517	155.5
150.91804	178.4
155.24774	211
159.57429	261.3
163.89768	332.7
168.21792	440
172.53501	599.3
176.84895	830
181.15975	1173.4
185.46741	1643.4
189.77193	2281.6
194.07331	3046.1
198.37157	3914.8
202.6667	4843.9
206.9587	5770
211.24758	6663.6
215.53334	7598.5
219.81599	8559.8
224.09553	9651.1
228.37195	10846.9
232.64527	12159.1
236.91549	13573.5
241.18261	14931.5
245.44663	16181.7
249.70755	17306.7
253.96539	18265
258.22014	19117.4
262.4718	19843.9
266.72039	20431.8
270.96589	20769.3
275.20832	20846.6
279.44768	20818.8
283.68397	20608.2
287.91719	20435.3
292.14735	20428
296.37445	20552.6
300.59849	20797.9
304.81948	21035.6
309.03742	21108.7
313.25231	20835.2
317.46415	20207.9
321.67296	19276.6
325.87872	18587.5
330.08145	18305.1
334.28114	18321.9
338.47781	18564.2
342.67145	18876.9
346.86207	19386.2
351.04966	19986.7
355.23424	20675.9
359.4158	21290
363.59435	21603.6
367.76989	21777.1
371.94243	21870.9
376.11196	21942.6
380.27849	21988.5
384.44203	21998.2
388.60257	21958.7
392.76012	22007.8
396.91468	22216.9
401.06626	22611
405.21485	22931.7
409.36047	22794.7
413.50311	22216.2
417.64277	21716.7
421.77947	21455.2
425.9132	21372.1
430.04396	21479
434.17176	21628.1
438.2966	21878.7
442.41849	22259.2
446.53742	22764.2
450.6534	23322.9
454.76644	23783.7
458.87653	23938.1
462.98368	23891.9
467.08789	23643.6
471.18916	23360.3
475.2875	23028.4
479.38291	22788.7
483.4754	22594.6
487.56496	22245.8
491.6516	21941.8
495.73531	21705
499.81612	21626.2
503.89401	21761.6
507.96899	21835.8
512.04106	21981.4
516.11023	22056.9
520.1765	22164.4
524.23987	22008.5
528.30034	21757.1
532.35792	21584.5
536.41261	21389.3
540.46441	21164
544.51333	21185.5
548.55936	21361
552.60252	21702.9
556.64279	22089.7
560.6802	22299.2
564.71473	22414.1
568.7464	22789.3
572.7752	23148.7
576.80114	23024.5
580.82422	22769.2
584.84444	22723
588.86181	22754.1
592.87633	22928.4
596.888	23199
600.89682	23618.6
604.9028	24953.4
608.90594	28530.3
612.90624	32923.8
616.90371	31463.4
620.89834	25249.6
624.89015	22564.1
628.87913	22160.6
632.86528	22150.3
636.84862	22130.5
640.82913	21789.6
644.80683	21287.6
648.78172	20882.2
652.75379	20910.8
656.72306	21291.1
660.68952	21826.7
664.65319	21750.3
668.61405	21293
672.57211	21058.4
676.52738	21048
680.47986	21041
684.42955	21007.4
688.37646	20988.3
692.32058	21100.1
696.26192	21246.7
700.20048	21399.5
704.13626	21554.5
708.06928	21467.9
711.99952	21307.2
715.927	21269.4
719.85171	21310.2
723.77365	21250.8
727.69284	21142.1
731.60928	21017.8
735.52295	21001.3
739.43388	21031.1
743.34206	21087.2
747.24749	21186.8
751.15017	21323.8
755.05012	21668.7
758.94733	22230.3
762.8418	23469.8
766.73354	25549.5
770.62254	27679.9
774.50882	28573
778.39237	27497.9
782.27321	25067
786.15132	22981.7
790.02671	21775.8
793.89938	21290
797.76935	21014.6
801.6366	20969.1
805.50115	20900.5
809.36299	20807
813.22213	20753.9
817.07857	20733.1
820.93231	20771.6
824.78336	20776.5
828.63172	20815.7
832.47738	20844.1
836.32036	20870.6
840.16066	20867.9
843.99827	20877.3
847.8332	20837.5
851.66546	20773
855.49504	20776.7
859.32195	20742.9
863.1462	20663.6
866.96777	20616.8
870.78668	20567.1
874.60293	20594.9
878.41652	20614.6
882.22745	20666.7
886.03573	20695.6
889.84136	20709.3
893.64433	20590.8
897.44466	20527.5
901.24235	20540.3
905.0374	20506.6
908.8298	20466.5
912.61957	20492.7
916.40671	20659.3
920.19121	20799.7
923.97308	20923.7
927.75233	21041.7
931.52895	21090.1
935.30295	20937.4
939.07433	20593.8
942.84309	20291.1
946.60924	20162.9
950.37278	20031.6
954.13371	19942.6
957.89203	19839.8
961.64774	19798.1
965.40086	19710.5
969.15137	19651.6
972.89929	19591.3
976.64461	19609.6
980.38733	19622.9
984.12747	19681.4
987.86502	19811.5
991.59999	20016.1
995.33237	20312.2
999.06217	20781.6
1002.78939	21323.7
1006.51404	21655.7
1010.23611	21850.1
1013.95561	22056.1
1017.67255	22078.9
1021.38692	21902.5
1025.09872	21816.7
1028.80796	21982.3
1032.51465	22470.7
1036.21877	22894.2
1039.92035	22978.6
1043.61937	22651.2
1047.31584	22230.9
1051.00976	21716.3
1054.70114	21474.7
1058.38998	21444.2
1062.07627	21501.9
1065.76003	21583.6
1069.44126	21593.3
1073.11995	21689
1076.79611	21814
1080.46974	21979.9
1084.14085	22189.1
1087.80943	22445.4
1091.47549	22561.1
1095.13903	22458.8
1098.80005	22050.7
1102.45857	21739.8
1106.11456	21578.7
1109.76805	21653.7
1113.41903	21859.2
1117.06751	22175.1
1120.71348	22567.9
1124.35696	22949.6
1127.99793	23258.2
1131.63641	23301.4
1135.2724	22866.9
1138.90589	22384.4
1142.5369	22140.5
1146.16542	21945.4
1149.79145	21846.4
1153.415	21959.9
1157.03607	22128.1
1160.65467	22490
1164.27079	23065.1
1167.88443	23939.8
1171.49561	25216.2
1175.10432	27074
1178.71056	29530
1182.31434	31636.2
1185.91565	32577.4
1189.51451	32391.8
1193.11091	31173.5
1196.70485	29529.4
1200.29634	28198.2
1203.88538	27188.1
1207.47197	26259.9
1211.05612	25473.3
1214.63782	24951.1
1218.21708	24771.7
1221.79391	24766
1225.36829	24834.2
1228.94024	24722.8
1232.50976	24575.1
1236.07685	24473
1239.6415	24508.9
1243.20374	24635.2
1246.76355	24817.4
1250.32093	25166.1
1253.8759	25742.1
1257.42845	26347.7
1260.97859	26887.5
1264.52631	27327.6
1268.07163	27793.9
1271.61453	28301.1
1275.15503	28845.3
1278.69312	29396
1282.22882	29756
1285.76211	30124.8
1289.29301	30643.9
1292.82151	31294.6
1296.34761	32085.1
1299.87133	33365.4
1303.39266	35221.8
1306.9116	37758.7
1310.42815	40615.8
1313.94233	42434
1317.45412	42237.9
1320.96354	40876.9
1324.47058	39183.1
1327.97525	37716.4
1331.47754	36826.6
1334.97747	36650.3
1338.47502	37105.4
1341.97022	37754.7
1345.46305	38127.8
1348.95352	38267
1352.44163	38663.2
1355.92738	39888.7
1359.41078	42713.6
1362.89183	45572.4
1366.37053	44496.4
1369.84688	39703.7
1373.32088	34913.3
1376.79254	31829.9
1380.26186	30444.3
1383.72883	29886.7
1387.19347	29565.8
1390.65578	29121.3
1394.11575	28946
1397.57339	29029.3
1401.0287	29393
1404.48168	29920.5
1407.93234	30433.8
1411.38068	30682.3
1414.82669	30463.4
1418.27039	29753.9
1421.71177	28835.2
1425.15083	28027.1
1428.58758	27500.3
1432.02203	27427.9
1435.45416	27629.7
1438.88399	27878.2
1442.31151	28079.2
1445.73673	28340.4
1449.15965	28628
1452.58027	28721.3
1455.9986	28753.5
1459.41463	28867.5
1462.82837	29146.8
1466.23982	29617.2
1469.64898	30134.4
1473.05586	30456.2
1476.46045	30659.4
1479.86276	30819.6
1483.26279	31011.8
1486.66054	31309.4
1490.05602	31706
1493.44922	32266.6
1496.84016	32935.3
1500.22882	33952.2
1503.61521	35549.5
1506.99934	37640
1510.38121	39899.6
1513.76081	41102.1
1517.13816	40249.2
1520.51324	37598.2
1523.88607	34789.7
1527.25665	32783.1
1530.62498	31552.6
1533.99105	30883.7
1537.35488	30455.2
1540.71647	30172.9
1544.07581	30031.8
1547.4329	29769.4
1550.78776	29575.8
1554.14038	29435.2
1557.49077	29475.2
1560.83892	29683.4
1564.18484	29922.2
1567.52853	30063.6
1570.86999	30179.3
1574.20922	30289
1577.54624	30313
1580.88103	29853.3
1584.2136	29347.5
1587.54395	29426.4
1590.87208	30316.3
1594.19801	31909.2
1597.52172	33760.8
1600.84321	34497.6
1604.16251	33553.4
1607.47959	31576.9
1610.79447	29407
1614.10715	27389.7
1617.41763	25753.5
1620.7259	24673.4
1624.03199	24140.5
1627.33587	24105.6
1630.63757	24632.3
1633.93707	25625.6
1637.23439	27096.5
1640.52951	28927.7
1643.82246	31094.2
1647.11321	33194.8
1650.40179	34317.4
1653.68819	33220.2
1656.97241	30030
1660.25446	26532.3
1663.53433	23954.4
1666.81203	22268.1
1670.08756	21253.8
1673.36092	20612.1
1676.63211	20208.2
1679.90115	19892.3
1683.16801	19660.7
1686.43272	19527.8
1689.69527	19375.8
1692.95567	19280.5
1696.2139	19227.3
1699.46999	19226
1702.72392	19197
1705.97571	19134.4
1709.22535	19104.2
1712.47284	19079.3
1715.71819	19055.7
1718.96139	19044.2
1722.20246	19055.8
1725.44139	18985.7
1728.67818	18862.6
1731.91284	18789
1735.14537	18716.6
1738.37576	18609.6
1741.60403	18608.9
1744.83017	18550.8
1748.05418	18512.8
1751.27607	18485.5
1754.49584	18492.2
1757.71349	18467.4
1760.92903	18447.7
1764.14244	18465.4
1767.35375	18476.3
1770.56294	18423.3
1773.77002	18400.1
1776.97499	18384.5
1780.17785	18340
1783.37861	18285.8
1786.57727	18244.1
1789.77382	18259.5
1792.96828	18258.4
1796.16064	18222.7
1799.3509	18181
1802.53907	18198
1805.72514	18115.2
1808.90913	18095.1
1812.09102	18089.8
1815.27083	18031.7
1818.44856	18007.8
1821.6242	17991.6
1824.79776	17953.6
1827.96924	17962.2
1831.13864	17939.1
1834.30597	17963.4
1837.47122	17937.8
1840.6344	17927.9
1843.7955	17900.3
1846.95454	17888.6
1850.11151	17897.8
1853.26642	17885.4
1856.41926	17926.2
1859.57004	17910
1862.71876	17902.2
1865.86542	17848.3
1869.01003	17887.2
1872.15258	17911.7
1875.29308	17899.7
1878.43152	17893.8
1881.56792	17884.4
1884.70227	17862.4
1887.83457	17847.8
1890.96482	17809.5
1894.09304	17799.2
1897.21921	17771.1
1900.34335	17771.8
1903.46544	17837.9
1906.58551	17775.3
1909.70353	17790.7
1912.81953	17745.7
1915.93349	17764
1919.04543	17746.9
1922.15534	17709.9
1925.26322	17682.1
1928.36908	17670.1
1931.47292	17654.6
1934.57473	17621.2
1937.67453	17546
1940.77232	17530
1943.86808	17458.9
1946.96184	17375.7
1950.05358	17334.5
1953.14331	17292.4
1956.23103	17252.8
1959.31675	17189.5
1962.40046	17125.3
1965.48217	17070.9
1968.56188	17030.6
1971.63959	16971.6
1974.7153	16922.1
1977.78901	16900.5
1980.86073	16836.9
1983.93046	16824.1
1986.99819	16759.6
1990.06394	16701
1993.1277	16668.4
1996.18947	16630
1999.24925	16561.3
2002.30706	16515.3
2005.36288	16484.3
2008.41672	16460.4
2011.46859	16414.3
2014.51848	16367
2017.56639	16351.7
2020.61233	16301.8
2023.6563	16252.4
2026.6983	16196.9
2029.73833	16163.9
2032.7764	16153.6
2035.8125	16115.6
2038.84664	16059.7
2041.87881	16042.8
2044.90903	16004.5
2047.93729	15960.5
2050.96359	15985.7
2053.98794	15990.8
2057.01034	15956.9
2060.03078	15946.8
2063.04927	15942.4
2066.06582	15931.3
2069.08042	15918.7
2072.09307	15898.1
2075.10378	15879.4
2078.11255	15845
2081.11938	15876.1
2084.12426	15833.8
2087.12722	15806.6
2090.12824	15791
2093.12732	15794.2
2096.12447	15827.9
2099.11969	15806.3
2102.11299	15818
2105.10435	15810.4
2108.09379	15809.3
2111.08131	15791.3
2114.0669	15816.8
2117.05057	15854.7
2120.03233	15871.2
2123.01216	15869.8
2125.99008	15875.1
2128.96609	15934.2
2131.94018	15925.7
2134.91236	15927.7
2137.88263	15967.3
2140.851	15941.7
2143.81746	15970
2146.78201	15959.6
2149.74466	16001.8
2152.7054	15958.6
2155.66425	15955.2
2158.6212	15965.6
2161.57625	15952.9
2164.52941	15951.4
2167.48067	15930
2170.43004	15925.4
2173.37752	15935.8
2176.32311	15921.6
2179.26681	15928.7
2182.20863	15907
2185.14856	15919.9
2188.08661	15919.3
2191.02278	15948
2193.95707	15936.4
2196.88948	15948.9
2199.82001	15952.1
2202.74867	15930.8
2205.67545	15949.1
2208.60037	15920.7
2211.52341	15901.1
2214.44458	15874.4
2217.36388	15874.2
2220.28132	15836.2
2223.1969	15811.5
2226.11061	15786.4
2229.02246	15754
2231.93245	15705.9
2234.84058	15692.7
2237.74686	15668.9
2240.65128	15663.6
2243.55385	15623.6
2246.45456	15599.1
2249.35343	15565.9
2252.25044	15571.9
2255.14561	15563.6
2258.03893	15557.9
2260.93041	15522.2
2263.82004	15474.1
2266.70783	15417.4
2269.59378	15398.6
2272.4779	15326.4
2275.36017	15298.5
2278.24061	15341.7
2281.11922	15274.8
2283.996	15279
2286.87094	15213.1
2289.74405	15218.5
2292.61534	15226.7
2295.4848	15184.6
2298.35243	15190.4
2301.21824	15176.5
2304.08223	15177.7
2306.94439	15186.7
2309.80474	15184.5
2312.66327	15213
2315.51999	15237.6
2318.37489	15231.8
2321.22797	15203.8
2324.07925	15171.3
2326.92871	15152.8
2329.77637	15152.1
2332.62222	15125.5
2335.46626	15126.8
2338.3085	15127.3
2341.14893	15116.4
2343.98756	15159.6
2346.8244	15124
2349.65943	15146.8
2352.49267	15129.9
2355.32411	15149.3
2358.15376	15125.9
2360.98161	15137.6
2363.80768	15124.8
2366.63195	15103.4
2369.45444	15076.4
2372.27514	15049.2
2375.09405	15004.7
2377.91118	14955.4
2380.72652	14937.8
2383.54009	14871.5
2386.35187	14851.5
2389.16188	14807.6
2391.97011	14755.2
2394.77657	14761.7
2397.58125	14731.8
2400.38416	14708.6
2403.18529	14681.5
2405.98466	14679.1
2408.78226	14638.2
2411.57809	14631.9
2414.37216	14600.6
2417.16446	14598.4
2419.955	14551.6
2422.74378	14558.9
2425.5308	14542.3
2428.31606	14546
2431.09956	14547.3
2433.88131	14505.6
2436.6613	14489.1
2439.43954	14500.6
2442.21603	14500.1
2444.99077	14473.5
2447.76377	14479.1
2450.53501	14442
2453.30451	14455.3
2456.07226	14448.5
2458.83827	14424.4
2461.60254	14434.3
2464.36507	14431.9
2467.12586	14391.1
2469.88492	14385.3
2472.64224	14427.6
2475.39782	14424
2478.15167	14420
2480.90379	14426.4
2483.65417	14496.2
2486.40283	14481.2
2489.14976	14473.4
2491.89497	14452.7
2494.63845	14496.7
2497.3802	14477.7
2500.12024	14488
2502.85855	14434.2
2505.59514	14428.9
2508.33002	14414.7
2511.06318	14401
2513.79462	14363
2516.52435	14340.9
2519.25237	14326.3
2521.97867	14313.8
2524.70327	14318.9
2527.42616	14278.7
2530.14734	14298.8
2532.86681	14250.7
2535.58458	14269.7
2538.30065	14281.5
2541.01501	14275.1
2543.72768	14259.4
2546.43864	14255.8
2549.14791	14223.4
2551.85548	14233
2554.56136	14199.4
2557.26554	14153.5
2559.96803	14146.1
2562.66883	14125.5
2565.36794	14073.1
2568.06536	14095.3
2570.7611	14073.1
2573.45514	14036.4
2576.14751	14024.9
2578.83819	14037.8
2581.52719	14018.2
2584.21451	14026.3
2586.90015	13995.6
2589.58411	13996.4
2592.2664	13995.2
2594.94701	13957.5
2597.62594	13953.6
2600.30321	13943.8
2602.9788	13901.5
2605.65273	13914.8
2608.32498	13920.2
2610.99557	13896.1
2613.66449	13927.9
2616.33175	13916.4
2618.99734	13929.7
2621.66128	13910.3
2624.32355	13916.1
2626.98416	13904.5
2629.64311	13916.1
2632.30041	13890.1
2634.95605	13861.7
2637.61004	13825.4
2640.26238	13800.2
2642.91306	13790.7
2645.56209	13787.2
2648.20948	13768.2
2650.85521	13752.7
2653.4993	13780.2
2656.14175	13767.6
2658.78255	13765.4
2661.42171	13783.2
2664.05923	13791.9
2666.6951	13803.3
2669.32934	13818.8
2671.96194	13827.1
2674.59291	13865.2
2677.22224	13816.3
2679.84993	13810.1
2682.476	13830
2685.10043	13827.2
2687.72324	13771.8
2690.34441	13799.2
2692.96396	13773.7
2695.58188	13796.8
2698.19818	13749.5
2700.81285	13773.1
2703.4259	13810.4
2706.03733	13798.8
2708.64714	13785.6
2711.25533	13786.6
2713.86191	13784.1
2716.46687	13802.7
2719.07021	13802.5
2721.67194	13820
2724.27206	13804.2
2726.87057	13816.9
2729.46747	13814.6
2732.06276	13803.4
2734.65644	13808.5
2737.24852	13812.5
2739.83899	13771.9
2742.42786	13771.2
2745.01513	13721.2
2747.60079	13732
2750.18486	13715.9
2752.76733	13714.6
2755.3482	13715.5
2757.92747	13711.1
2760.50515	13711.3
2763.08123	13662.5
2765.65573	13661.7
2768.22863	13662.7
2770.79994	13632.8
2773.36967	13656.7
2775.9378	13631.5
2778.50435	13690.5
2781.06932	13635.1
2783.6327	13653.4
2786.1945	13667.5
2788.75471	13612
2791.31335	13596.8
2793.87041	13578.9
2796.42589	13554.4
2798.97979	13545.1
2801.53212	13524.4
2804.08288	13551.6
2806.63206	13492.8
2809.17967	13462.8
2811.72571	13432.5
2814.27018	13432.5
2816.81308	13415.7
2819.35442	13395.9
2821.89419	13372.7
2824.43239	13376.5
2826.96904	13346.6
2829.50412	13354.2
2832.03763	13336.7
2834.56959	13348.7
2837.1	13314.9
2839.62884	13325.8
2842.15613	13336.8
2844.68186	13307.6
2847.20604	13329
2849.72867	13376.3
2852.24974	13352.4
2854.76927	13339.9
2857.28724	13319.9
2859.80367	13273.5
2862.31855	13242.8
2864.83189	13258.3
2867.34368	13225.2
2869.85393	13212.9
2872.36264	13214.4
2874.8698	13219.2
2877.37543	13230.4
2879.87952	13207.3
2882.38207	13194
2884.88308	13179.5
2887.38256	13188.6
2889.88051	13199.5
2892.37692	13184.9
2894.8718	13226.8
2897.36515	13201.8
2899.85698	13231.7
2902.34727	13273.7
2904.83604	13244.4
2907.32328	13268.4
2909.809	13270.7
2912.29319	13261.6
2914.77587	13240
2917.25702	13239.7
2919.73665	13251.4
2922.21476	13234.1
2924.69136	13211.3
2927.16644	13236.4
2929.64	13200
2932.11205	13205.9
2934.58258	13164.9
2937.05161	13163.7
2939.51912	13172
2941.98513	13162.7
2944.44962	13101.7
2946.91261	13067.4
2949.37409	13095.5
2951.83407	13068.1
2954.29254	13050
2956.74951	13050.9
2959.20498	13048.3
2961.65895	13024.9
2964.11142	13038.2
2966.56239	13005.1
2969.01186	12993.7
2971.45984	12983.9
2973.90632	12982.3
2976.35131	12946
2978.7948	12935.8
2981.23681	12892.4
2983.67732	12849.3
2986.11635	12864.8
2988.55388	12851.9
2990.98993	12811.3
2993.4245	12759.2
2995.85758	12746
2998.28917	12734.3
3000.71928	12709.4
3003.14791	12689.3
3005.57506	12686.1
3008.00073	12659.6
3010.42493	12594.8
3012.84764	12595.9
3015.26888	12571.2
3017.68865	12549.8
3020.10694	12513.9
3022.52376	12527.5
3024.9391	12503.3
3027.35298	12485.8
3029.76539	12493.9
3032.17632	12490.5
3034.5858	12462.9
3036.9938	12455.4
3039.40034	12460.3
3041.80542	12432.5
3044.20903	12409.2
3046.61118	12388.9
3049.01187	12376
3051.4111	12377.3
3053.80888	12337.4
3056.20519	12320.1
3058.60005	12258.4
3060.99345	12246.1
3063.3854	12230.8
3065.7759	12186.6
3068.16494	12158.2
3070.55254	12145.5
3072.93868	12146.6
3075.32338	12067.5
3077.70662	12066.7
3080.08842	12053.4
3082.46878	12010
3084.84769	12009.9
3087.22515	11989.1
3089.60118	12001.1
3091.97576	11960.3
3094.3489	11964.6
3096.72061	11976.7
3099.09087	11954.6
3101.4597	11978.3
3103.82709	11945.1
3106.19305	11930.5
3108.55757	11943.1
3110.92066	11931.8
3113.28232	11920
3115.64255	11888.8
3118.00134	11870.7
3120.35871	11861.4
3122.71466	11830.6
3125.06917	11781.2
3127.42226	11755.7
3129.77393	11769.6
3132.12417	11751.4
3134.47299	11741.7
3136.82039	11756.8
3139.16636	11720.7
3141.51092	11724.6
3143.85406	11738.8
3146.19579	11721.5
3148.53609	11723.7
3150.87499	11729.1
3153.21246	11742.6
3155.54853	11744.8
3157.88318	11725.6
3160.21642	11762.2
3162.54826	11736.5
3164.87868	11777.9
3167.2077	11780.5
3169.5353	11785.7
3171.86151	11780.4
3174.18631	11757.5
3176.5097	11731.5
3178.83169	11756
3181.15228	11720.9
3183.47147	11695.3
3185.78926	11683
3188.10565	11678.2
3190.42065	11667.5
3192.73424	11635.9
3195.04645	11652.2
3197.35725	11656
3199.66667	11648.8
3201.97469	11674.6
3204.28132	11653.4
3206.58656	11673.7
3208.8904	11693.4
3211.19287	11682.5
3213.49394	11673.8
3215.79363	11679.2
3218.09193	11698.2
3220.38884	11698.8
3222.68438	11722.5
3224.97853	11709.7
3227.2713	11674.1
3229.56269	11678.3
3231.8527	11679.1
3234.14133	11635.6
3236.42858	11628.3
3238.71446	11589.8
3240.99896	11567.3
3243.28209	11556.3
3245.56384	11544.5
3247.84423	11547.6
3250.12324	11551.8
3252.40088	11533.1
3254.67715	11510.6
3256.95205	11493.8
3259.22558	11521.3
3261.49775	11499.8
3263.76855	11498.1
3266.03799	11480.2
3268.30606	11462.3
3270.57277	11470.4
3272.83812	11432.3
3275.10211	11402.8
3277.36474	11381.9
3279.62601	11405.5
3281.88593	11336.3
3284.14448	11370.3
3286.40168	11368.4
3288.65753	11354.9
3290.91202	11354.8
3293.16516	11319.6
3295.41695	11303.6
3297.66738	11258.7
3299.91647	11216.8
3302.16421	11140.4
3304.4106	11108.6
3306.65564	11033
3308.89933	10936.9
3311.14169	10881.8
3313.38269	10795.8
3315.62236	10712
3317.86068	10629.2
3320.09766	10526.8
3322.3333	10475.4
3324.5676	10422.8
3326.80056	10277.6
3329.03219	10202.8
3331.26248	4.7
3333.49143	-0.3
3335.71905	0.4
