Data from AgNP_FTO_APTES_UA_10uM_CRN_10uM_R6G_10uM_NaF_0.1M_Addition_RamanShift__30__15-59-20-725.txt Node

Date: Thu Feb 10 15:59:20 GMT 2022
User: TCL
Spectrometer: QEP01345
Trigger mode: 4
Integration Time (sec): 7.000000E0
Scans to average: 10
Electric dark correction enabled: true
Nonlinearity correction enabled: false
Boxcar width: 0
XAxis mode: Raman Shifts
Number of Pixels in Spectrum: 1044
>>>>>Begin Spectral Data<<<<<
46.04893	1.1625
50.45542	0.4625
54.85868	-1.8375
59.25871	-1.2375
63.6555	46.0625
68.04907	50.8625
72.43941	53.2625
76.82654	51.0625
81.21044	56.7625
85.59113	57.6625
89.96862	59.3625
94.34289	62.9625
98.71396	64.5625
103.08183	68.3625
107.4465	69.3625
111.80798	67.7625
116.16626	71.9625
120.52136	73.1625
124.87327	77.1625
129.222	76.6625
133.56755	83.7625
137.90993	85.8625
142.24913	86.5625
146.58517	96.8625
150.91804	114.0625
155.24774	137.3625
159.57429	162.9625
163.89768	200.4625
168.21792	265.4625
172.53501	358.2625
176.84895	492.1625
181.15975	682.2625
185.46741	950.1625
189.77193	1304.1625
194.07331	1748.4625
198.37157	2229.2625
202.6667	2751.5625
206.9587	3279.1625
211.24758	3791.8625
215.53334	4333.3625
219.81599	4950.5625
224.09553	5638.5625
228.37195	6413.3625
232.64527	7277.9625
236.91549	8130.3625
241.18261	8876.8625
245.44663	9473.4625
249.70755	9924.3625
253.96539	10358.8625
258.22014	10731.8625
262.4718	11117.9625
266.72039	11430.0625
270.96589	11626.8625
275.20832	11700.8625
279.44768	11644.4625
283.68397	11537.7625
287.91719	11483.1625
292.14735	11532.4625
296.37445	11806.7625
300.59849	12238.3625
304.81948	12752.7625
309.03742	13057.6625
313.25231	12957.2625
317.46415	12281.7625
321.67296	11228.5625
325.87872	10385.4625
330.08145	9964.7625
334.28114	9930.5625
338.47781	10110.8625
342.67145	10429.0625
346.86207	10905.2625
351.04966	11631.7625
355.23424	12390.5625
359.4158	12967.9625
363.59435	13204.9625
367.76989	13287.0625
371.94243	13245.1625
376.11196	13164.9625
380.27849	13087.0625
384.44203	12912.4625
388.60257	12718.2625
392.76012	12614.3625
396.91468	12727.9625
401.06626	13100.5625
405.21485	13406.5625
409.36047	13113.7625
413.50311	12348.7625
417.64277	11636.2625
421.77947	11235.7625
425.9132	11113.3625
430.04396	11098.6625
434.17176	11168.5625
438.2966	11271.6625
442.41849	11522.0625
446.53742	11818.7625
450.6534	12168.3625
454.76644	12371.7625
458.87653	12417.2625
462.98368	12305.1625
467.08789	12095.0625
471.18916	11821.1625
475.2875	11504.5625
479.38291	11281.1625
483.4754	11050.6625
487.56496	10876.9625
491.6516	10747.9625
495.73531	10716.2625
499.81612	10810.3625
503.89401	10952.1625
507.96899	11124.5625
512.04106	11281.3625
516.11023	11469.3625
520.1765	11594.8625
524.23987	11507.6625
528.30034	11248.7625
532.35792	10949.3625
536.41261	10685.9625
540.46441	10445.5625
544.51333	10324.3625
548.55936	10455.2625
552.60252	10786.1625
556.64279	11135.2625
560.6802	11274.5625
564.71473	11441.0625
568.7464	11889.1625
572.7752	12273.9625
576.80114	11957.6625
580.82422	11536.2625
584.84444	11329.2625
588.86181	11175.1625
592.87633	11147.2625
596.888	11232.3625
600.89682	11702.2625
604.9028	13295.5625
608.90594	17522.5625
612.90624	23040.5625
616.90371	21804.3625
620.89834	14660.5625
624.89015	11457.0625
628.87913	10869.6625
632.86528	10958.9625
636.84862	11162.7625
640.82913	10999.0625
644.80683	10434.8625
648.78172	10083.7625
652.75379	10171.0625
656.72306	10651.7625
660.68952	11272.7625
664.65319	11138.7625
668.61405	10493.0625
672.57211	10174.0625
676.52738	10136.2625
680.47986	10158.1625
684.42955	10096.8625
688.37646	10032.6625
692.32058	10073.4625
696.26192	10194.2625
700.20048	10367.4625
704.13626	10505.4625
708.06928	10503.8625
711.99952	10399.8625
715.927	10343.9625
719.85171	10360.7625
723.77365	10350.2625
727.69284	10226.7625
731.60928	10087.0625
735.52295	10057.4625
739.43388	10087.6625
743.34206	10153.4625
747.24749	10234.6625
751.15017	10342.4625
755.05012	10610.0625
758.94733	11227.9625
762.8418	12616.1625
766.73354	15011.7625
770.62254	17518.2625
774.50882	18703.0625
778.39237	17608.0625
782.27321	14957.5625
786.15132	12531.3625
790.02671	11132.7625
793.89938	10549.6625
797.76935	10268.9625
801.6366	10160.6625
805.50115	10073.4625
809.36299	10012.3625
813.22213	9959.8625
817.07857	9932.3625
820.93231	9907.7625
824.78336	9940.5625
828.63172	10009.1625
832.47738	10030.9625
836.32036	10000.1625
840.16066	9962.9625
843.99827	9891.8625
847.8332	9864.2625
851.66546	9850.1625
855.49504	9864.7625
859.32195	9841.9625
863.1462	9768.0625
866.96777	9698.7625
870.78668	9685.2625
874.60293	9708.3625
878.41652	9745.4625
882.22745	9829.2625
886.03573	9858.3625
889.84136	9808.6625
893.64433	9748.7625
897.44466	9735.8625
901.24235	9766.2625
905.0374	9735.1625
908.8298	9698.2625
912.61957	9727.2625
916.40671	9805.2625
920.19121	9905.7625
923.97308	9989.4625
927.75233	10073.7625
931.52895	10143.8625
935.30295	10014.6625
939.07433	9704.7625
942.84309	9422.3625
946.60924	9258.1625
950.37278	9207.6625
954.13371	9144.5625
957.89203	9091.4625
961.64774	9061.6625
965.40086	9041.6625
969.15137	9003.6625
972.89929	8999.1625
976.64461	8988.7625
980.38733	8962.7625
984.12747	8992.5625
987.86502	9045.4625
991.59999	9103.8625
995.33237	9216.4625
999.06217	9469.1625
1002.78939	9722.7625
1006.51404	10006.0625
1010.23611	10238.4625
1013.95561	10422.9625
1017.67255	10383.8625
1021.38692	10198.7625
1025.09872	10052.4625
1028.80796	9990.6625
1032.51465	10084.3625
1036.21877	10246.0625
1039.92035	10370.7625
1043.61937	10347.5625
1047.31584	10279.3625
1051.00976	10197.1625
1054.70114	10122.5625
1058.38998	10140.8625
1062.07627	10233.9625
1065.76003	10305.4625
1069.44126	10358.7625
1073.11995	10471.1625
1076.79611	10599.1625
1080.46974	10773.2625
1084.14085	11070.0625
1087.80943	11423.2625
1091.47549	11557.1625
1095.13903	11357.1625
1098.80005	10941.9625
1102.45857	10551.9625
1106.11456	10381.6625
1109.76805	10417.6625
1113.41903	10649.5625
1117.06751	11003.4625
1120.71348	11465.0625
1124.35696	11970.4625
1127.99793	12390.9625
1131.63641	12380.0625
1135.2724	11814.3625
1138.90589	11236.7625
1142.5369	10874.2625
1146.16542	10640.0625
1149.79145	10539.2625
1153.415	10560.4625
1157.03607	10685.9625
1160.65467	10957.9625
1164.27079	11411.0625
1167.88443	12081.1625
1171.49561	13155.5625
1175.10432	14946.5625
1178.71056	17348.0625
1182.31434	19013.0625
1185.91565	19395.5625
1189.51451	18769.3625
1193.11091	17443.0625
1196.70485	15884.5625
1200.29634	14794.7625
1203.88538	14004.4625
1207.47197	13093.9625
1211.05612	12337.4625
1214.63782	11887.7625
1218.21708	11742.3625
1221.79391	11745.6625
1225.36829	11853.0625
1228.94024	11925.8625
1232.50976	12031.9625
1236.07685	12068.9625
1239.6415	12107.8625
1243.20374	12068.0625
1246.76355	12171.3625
1250.32093	12378.3625
1253.8759	12702.4625
1257.42845	13152.2625
1260.97859	13629.4625
1264.52631	14081.0625
1268.07163	14512.8625
1271.61453	14893.0625
1275.15503	15172.1625
1278.69312	15311.0625
1282.22882	15376.9625
1285.76211	15637.0625
1289.29301	16112.0625
1292.82151	16615.2625
1296.34761	17128.8625
1299.87133	17977.4625
1303.39266	19471.4625
1306.9116	21835.5625
1310.42815	24562.6625
1313.94233	26256.9625
1317.45412	25922.3625
1320.96354	24258.4625
1324.47058	22283.4625
1327.97525	20536.9625
1331.47754	19450.6625
1334.97747	19071.2625
1338.47502	19231.3625
1341.97022	19645.3625
1345.46305	20324.9625
1348.95352	21311.5625
1352.44163	22727.1625
1355.92738	24961.6625
1359.41078	28672.4625
1362.89183	32398.3625
1366.37053	31576.9625
1369.84688	26546.4625
1373.32088	21606.2625
1376.79254	18478.5625
1380.26186	16991.7625
1383.72883	16258.7625
1387.19347	15691.2625
1390.65578	15070.2625
1394.11575	14576.3625
1397.57339	14302.4625
1401.0287	14328.3625
1404.48168	14502.5625
1407.93234	14808.4625
1411.38068	15022.9625
1414.82669	15025.7625
1418.27039	14756.5625
1421.71177	14397.6625
1425.15083	13977.9625
1428.58758	13674.1625
1432.02203	13654.1625
1435.45416	13783.4625
1438.88399	13861.5625
1442.31151	13883.7625
1445.73673	13956.3625
1449.15965	14123.7625
1452.58027	14103.5625
1455.9986	13961.1625
1459.41463	13957.6625
1462.82837	14103.3625
1466.23982	14367.8625
1469.64898	14726.4625
1473.05586	15029.5625
1476.46045	15240.9625
1479.86276	15558.0625
1483.26279	15972.2625
1486.66054	16476.9625
1490.05602	17064.0625
1493.44922	17880.7625
1496.84016	19123.5625
1500.22882	20999.6625
1503.61521	23527.8625
1506.99934	26544.6625
1510.38121	29472.0625
1513.76081	30975.6625
1517.13816	29675.7625
1520.51324	26225.0625
1523.88607	22485.3625
1527.25665	19883.0625
1530.62498	18280.0625
1533.99105	17309.1625
1537.35488	16694.4625
1540.71647	16306.0625
1544.07581	16072.4625
1547.4329	15906.6625
1550.78776	15805.4625
1554.14038	15736.9625
1557.49077	15912.3625
1560.83892	16261.2625
1564.18484	16807.3625
1567.52853	17335.8625
1570.86999	17659.5625
1574.20922	17866.3625
1577.54624	17738.0625
1580.88103	16783.7625
1584.2136	15647.5625
1587.54395	15105.3625
1590.87208	15380.0625
1594.19801	16274.6625
1597.52172	17464.0625
1600.84321	17911.1625
1604.16251	17175.1625
1607.47959	15962.4625
1610.79447	14689.0625
1614.10715	13511.0625
1617.41763	12566.1625
1620.7259	11983.1625
1624.03199	11710.2625
1627.33587	11733.1625
1630.63757	12039.3625
1633.93707	12666.0625
1637.23439	13669.7625
1640.52951	14996.8625
1643.82246	16824.5625
1647.11321	19008.5625
1650.40179	20752.7625
1653.68819	20433.5625
1656.97241	17781.0625
1660.25446	14678.7625
1663.53433	12426.8625
1666.81203	11083.1625
1670.08756	10284.2625
1673.36092	9803.2625
1676.63211	9511.9625
1679.90115	9292.6625
1683.16801	9138.0625
1686.43272	9020.2625
1689.69527	8940.4625
1692.95567	8920.6625
1696.2139	8891.6625
1699.46999	8904.4625
1702.72392	8871.1625
1705.97571	8825.7625
1709.22535	8793.5625
1712.47284	8769.3625
1715.71819	8778.5625
1718.96139	8748.4625
1722.20246	8713.0625
1725.44139	8692.3625
1728.67818	8623.6625
1731.91284	8533.0625
1735.14537	8481.5625
1738.37576	8421.2625
1741.60403	8377.2625
1744.83017	8354.1625
1748.05418	8332.0625
1751.27607	8317.1625
1754.49584	8294.8625
1757.71349	8325.8625
1760.92903	8301.0625
1764.14244	8297.8625
1767.35375	8280.8625
1770.56294	8261.2625
1773.77002	8246.5625
1776.97499	8204.0625
1780.17785	8153.0625
1783.37861	8122.4625
1786.57727	8104.3625
1789.77382	8081.0625
1792.96828	8078.8625
1796.16064	8047.6625
1799.3509	8056.6625
1802.53907	8054.9625
1805.72514	8001.1625
1808.90913	7992.6625
1812.09102	7958.0625
1815.27083	7931.5625
1818.44856	7912.0625
1821.6242	7904.1625
1824.79776	7890.2625
1827.96924	7879.4625
1831.13864	7876.1625
1834.30597	7864.3625
1837.47122	7871.2625
1840.6344	7875.9625
1843.7955	7860.0625
1846.95454	7860.0625
1850.11151	7859.6625
1853.26642	7843.3625
1856.41926	7848.5625
1859.57004	7850.1625
1862.71876	7856.3625
1865.86542	7857.3625
1869.01003	7861.3625
1872.15258	7872.6625
1875.29308	7882.6625
1878.43152	7866.8625
1881.56792	7881.4625
1884.70227	7901.8625
1887.83457	7890.9625
1890.96482	7893.7625
1894.09304	7881.8625
1897.21921	7873.1625
1900.34335	7893.0625
1903.46544	7892.2625
1906.58551	7884.7625
1909.70353	7896.1625
1912.81953	7907.2625
1915.93349	7902.1625
1919.04543	7891.9625
1922.15534	7907.0625
1925.26322	7880.9625
1928.36908	7846.6625
1931.47292	7816.6625
1934.57473	7783.9625
1937.67453	7744.7625
1940.77232	7712.1625
1943.86808	7630.8625
1946.96184	7613.4625
1950.05358	7561.9625
1953.14331	7526.5625
1956.23103	7508.9625
1959.31675	7468.5625
1962.40046	7442.1625
1965.48217	7416.0625
1968.56188	7395.2625
1971.63959	7387.6625
1974.7153	7366.9625
1977.78901	7348.0625
1980.86073	7311.7625
1983.93046	7287.6625
1986.99819	7269.2625
1990.06394	7240.6625
1993.1277	7211.9625
1996.18947	7173.8625
1999.24925	7168.4625
2002.30706	7123.9625
2005.36288	7122.5625
2008.41672	7089.1625
2011.46859	7075.0625
2014.51848	7052.8625
2017.56639	7040.4625
2020.61233	7010.9625
2023.6563	7004.0625
2026.6983	6970.1625
2029.73833	6958.8625
2032.7764	6941.4625
2035.8125	6914.6625
2038.84664	6888.4625
2041.87881	6881.0625
2044.90903	6869.2625
2047.93729	6869.4625
2050.96359	6861.8625
2053.98794	6835.7625
2057.01034	6828.6625
2060.03078	6823.1625
2063.04927	6826.2625
2066.06582	6808.4625
2069.08042	6808.1625
2072.09307	6794.3625
2075.10378	6776.3625
2078.11255	6775.3625
2081.11938	6785.8625
2084.12426	6773.2625
2087.12722	6768.6625
2090.12824	6765.0625
2093.12732	6763.3625
2096.12447	6753.6625
2099.11969	6752.4625
2102.11299	6733.9625
2105.10435	6766.8625
2108.09379	6743.4625
2111.08131	6724.3625
2114.0669	6733.9625
2117.05057	6727.9625
2120.03233	6755.6625
2123.01216	6759.8625
2125.99008	6765.3625
2128.96609	6765.1625
2131.94018	6782.2625
2134.91236	6777.3625
2137.88263	6779.6625
2140.851	6777.5625
2143.81746	6793.6625
2146.78201	6762.2625
2149.74466	6770.7625
2152.7054	6765.8625
2155.66425	6755.7625
2158.6212	6740.4625
2161.57625	6752.2625
2164.52941	6753.4625
2167.48067	6743.9625
2170.43004	6733.7625
2173.37752	6749.5625
2176.32311	6726.5625
2179.26681	6742.5625
2182.20863	6724.6625
2185.14856	6732.9625
2188.08661	6717.2625
2191.02278	6718.3625
2193.95707	6724.4625
2196.88948	6704.6625
2199.82001	6692.5625
2202.74867	6693.0625
2205.67545	6694.3625
2208.60037	6669.9625
2211.52341	6679.4625
2214.44458	6683.8625
2217.36388	6654.5625
2220.28132	6630.4625
2223.1969	6602.8625
2226.11061	6617.2625
2229.02246	6587.2625
2231.93245	6569.0625
2234.84058	6565.0625
2237.74686	6545.5625
2240.65128	6541.6625
2243.55385	6514.4625
2246.45456	6519.9625
2249.35343	6522.0625
2252.25044	6527.4625
2255.14561	6504.1625
2258.03893	6517.0625
2260.93041	6509.9625
2263.82004	6483.1625
2266.70783	6486.2625
2269.59378	6445.7625
2272.4779	6430.9625
2275.36017	6415.0625
2278.24061	6412.9625
2281.11922	6378.3625
2283.996	6360.8625
2286.87094	6380.7625
2289.74405	6353.2625
2292.61534	6341.9625
2295.4848	6345.8625
2298.35243	6326.2625
2301.21824	6325.7625
2304.08223	6324.6625
2306.94439	6324.1625
2309.80474	6336.3625
2312.66327	6329.0625
2315.51999	6323.2625
2318.37489	6302.7625
2321.22797	6296.7625
2324.07925	6306.6625
2326.92871	6285.8625
2329.77637	6286.3625
2332.62222	6275.1625
2335.46626	6251.7625
2338.3085	6275.6625
2341.14893	6260.5625
2343.98756	6265.7625
2346.8244	6273.6625
2349.65943	6297.7625
2352.49267	6287.7625
2355.32411	6311.1625
2358.15376	6307.3625
2360.98161	6317.8625
2363.80768	6327.4625
2366.63195	6324.0625
2369.45444	6313.5625
2372.27514	6293.0625
2375.09405	6311.5625
2377.91118	6275.6625
2380.72652	6244.5625
2383.54009	6207.2625
2386.35187	6177.0625
2389.16188	6156.9625
2391.97011	6130.4625
2394.77657	6110.9625
2397.58125	6109.9625
2400.38416	6098.7625
2403.18529	6072.6625
2405.98466	6054.7625
2408.78226	6045.8625
2411.57809	6030.4625
2414.37216	6034.6625
2417.16446	6015.2625
2419.955	5993.9625
2422.74378	6024.5625
2425.5308	5994.8625
2428.31606	6021.3625
2431.09956	5996.3625
2433.88131	6005.1625
2436.6613	6000.6625
2439.43954	5990.0625
2442.21603	5987.1625
2444.99077	6011.4625
2447.76377	5988.6625
2450.53501	5999.9625
2453.30451	6010.3625
2456.07226	5990.8625
2458.83827	5988.4625
2461.60254	5991.3625
2464.36507	5958.2625
2467.12586	5978.5625
2469.88492	5967.6625
2472.64224	5972.3625
2475.39782	5969.5625
2478.15167	5988.3625
2480.90379	5997.8625
2483.65417	6006.4625
2486.40283	6019.8625
2489.14976	6055.1625
2491.89497	6041.2625
2494.63845	6069.7625
2497.3802	6065.0625
2500.12024	6039.7625
2502.85855	6008.5625
2505.59514	5998.4625
2508.33002	5979.7625
2511.06318	5948.0625
2513.79462	5940.9625
2516.52435	5905.5625
2519.25237	5895.9625
2521.97867	5891.8625
2524.70327	5876.0625
2527.42616	5848.2625
2530.14734	5852.7625
2532.86681	5855.5625
2535.58458	5839.5625
2538.30065	5848.7625
2541.01501	5834.0625
2543.72768	5839.8625
2546.43864	5841.2625
2549.14791	5833.4625
2551.85548	5833.5625
2554.56136	5832.2625
2557.26554	5810.9625
2559.96803	5817.6625
2562.66883	5812.9625
2565.36794	5785.3625
2568.06536	5761.8625
2570.7611	5768.6625
2573.45514	5756.3625
2576.14751	5750.7625
2578.83819	5748.7625
2581.52719	5739.4625
2584.21451	5715.3625
2586.90015	5729.4625
2589.58411	5725.8625
2592.2664	5710.3625
2594.94701	5699.8625
2597.62594	5698.0625
2600.30321	5704.9625
2602.9788	5675.2625
2605.65273	5694.8625
2608.32498	5687.2625
2610.99557	5681.4625
2613.66449	5690.9625
2616.33175	5693.3625
2618.99734	5697.5625
2621.66128	5686.2625
2624.32355	5671.5625
2626.98416	5673.0625
2629.64311	5668.9625
2632.30041	5652.7625
2634.95605	5643.2625
2637.61004	5631.7625
2640.26238	5628.3625
2642.91306	5625.5625
2645.56209	5595.0625
2648.20948	5608.8625
2650.85521	5586.6625
2653.4993	5600.6625
2656.14175	5593.2625
2658.78255	5596.2625
2661.42171	5601.8625
2664.05923	5609.2625
2666.6951	5618.4625
2669.32934	5644.6625
2671.96194	5630.5625
2674.59291	5645.6625
2677.22224	5656.0625
2679.84993	5653.8625
2682.476	5645.3625
2685.10043	5653.1625
2687.72324	5623.2625
2690.34441	5644.7625
2692.96396	5615.6625
2695.58188	5608.3625
2698.19818	5612.4625
2700.81285	5629.1625
2703.4259	5637.3625
2706.03733	5643.7625
2708.64714	5604.9625
2711.25533	5639.7625
2713.86191	5635.1625
2716.46687	5628.8625
2719.07021	5626.2625
2721.67194	5635.0625
2724.27206	5642.3625
2726.87057	5651.2625
2729.46747	5621.4625
2732.06276	5639.6625
2734.65644	5635.2625
2737.24852	5623.5625
2739.83899	5602.7625
2742.42786	5618.2625
2745.01513	5598.7625
2747.60079	5579.9625
2750.18486	5580.1625
2752.76733	5562.1625
2755.3482	5560.4625
2757.92747	5579.2625
2760.50515	5550.5625
2763.08123	5541.5625
2765.65573	5543.7625
2768.22863	5529.6625
2770.79994	5526.0625
2773.36967	5512.2625
2775.9378	5527.5625
2778.50435	5520.1625
2781.06932	5531.9625
2783.6327	5548.5625
2786.1945	5529.9625
2788.75471	5518.2625
2791.31335	5517.4625
2793.87041	5494.4625
2796.42589	5494.8625
2798.97979	5497.0625
2801.53212	5472.3625
2804.08288	5488.1625
2806.63206	5481.4625
2809.17967	5452.3625
2811.72571	5474.7625
2814.27018	5462.7625
2816.81308	5466.0625
2819.35442	5453.9625
2821.89419	5463.5625
2824.43239	5464.5625
2826.96904	5461.1625
2829.50412	5462.9625
2832.03763	5474.4625
2834.56959	5468.2625
2837.1	5449.6625
2839.62884	5477.9625
2842.15613	5485.3625
2844.68186	5518.8625
2847.20604	5526.2625
2849.72867	5553.7625
2852.24974	5541.3625
2854.76927	5532.8625
2857.28724	5535.6625
2859.80367	5526.5625
2862.31855	5496.0625
2864.83189	5508.0625
2867.34368	5486.4625
2869.85393	5501.1625
2872.36264	5507.5625
2874.8698	5489.2625
2877.37543	5476.0625
2879.87952	5487.9625
2882.38207	5461.0625
2884.88308	5485.4625
2887.38256	5455.7625
2889.88051	5461.5625
2892.37692	5459.5625
2894.8718	5445.1625
2897.36515	5469.2625
2899.85698	5462.4625
2902.34727	5485.7625
2904.83604	5466.6625
2907.32328	5498.6625
2909.809	5488.2625
2912.29319	5489.1625
2914.77587	5497.4625
2917.25702	5479.1625
2919.73665	5463.5625
2922.21476	5491.6625
2924.69136	5471.9625
2927.16644	5468.3625
2929.64	5435.8625
2932.11205	5435.1625
2934.58258	5394.2625
2937.05161	5404.3625
2939.51912	5399.1625
2941.98513	5396.4625
2944.44962	5354.6625
2946.91261	5331.0625
2949.37409	5334.5625
2951.83407	5336.4625
2954.29254	5318.3625
2956.74951	5301.1625
2959.20498	5290.5625
2961.65895	5278.9625
2964.11142	5273.2625
2966.56239	5274.9625
2969.01186	5260.5625
2971.45984	5242.7625
2973.90632	5233.3625
2976.35131	5223.5625
2978.7948	5219.7625
2981.23681	5204.0625
2983.67732	5189.2625
2986.11635	5173.8625
2988.55388	5158.8625
2990.98993	5150.1625
2993.4245	5144.2625
2995.85758	5128.6625
2998.28917	5111.1625
3000.71928	5097.7625
3003.14791	5086.2625
3005.57506	5089.8625
3008.00073	5076.1625
3010.42493	4949.5625
3012.84764	5060.0625
3015.26888	5044.7625
3017.68865	5032.2625
3020.10694	5034.1625
3022.52376	5012.1625
3024.9391	5017.3625
3027.35298	5016.3625
3029.76539	5004.0625
3032.17632	4998.3625
3034.5858	4998.5625
3036.9938	4989.2625
3039.40034	5005.9625
3041.80542	4988.9625
3044.20903	4962.8625
3046.61118	4950.7625
3049.01187	4934.4625
3051.4111	4952.1625
3053.80888	4927.6625
3056.20519	4917.0625
3058.60005	4909.8625
3060.99345	4884.1625
3063.3854	4900.7625
3065.7759	4869.0625
3068.16494	4857.5625
3070.55254	4844.5625
3072.93868	4847.7625
3075.32338	4830.0625
3077.70662	4812.0625
3080.08842	4785.1625
3082.46878	4781.8625
3084.84769	4769.9625
3087.22515	4767.5625
3089.60118	4770.8625
3091.97576	4757.6625
3094.3489	4768.0625
3096.72061	4770.9625
3099.09087	4775.3625
3101.4597	4761.3625
3103.82709	4739.4625
3106.19305	4739.5625
3108.55757	4736.0625
3110.92066	4730.2625
3113.28232	4723.7625
3115.64255	4699.1625
3118.00134	4702.7625
3120.35871	4707.4625
3122.71466	4706.1625
3125.06917	4693.8625
3127.42226	4682.3625
3129.77393	4672.6625
3132.12417	4660.8625
3134.47299	4688.3625
3136.82039	4669.5625
3139.16636	4670.8625
3141.51092	4698.1625
3143.85406	4690.4625
3146.19579	4684.1625
3148.53609	4682.5625
3150.87499	4689.8625
3153.21246	4691.3625
3155.54853	4708.6625
3157.88318	4700.5625
3160.21642	4701.9625
3162.54826	4711.7625
3164.87868	4702.8625
3167.2077	4709.2625
3169.5353	4729.4625
3171.86151	4715.4625
3174.18631	4717.9625
3176.5097	4702.7625
3178.83169	4702.4625
3181.15228	4700.5625
3183.47147	4694.3625
3185.78926	4702.3625
3188.10565	4682.2625
3190.42065	4691.5625
3192.73424	4686.3625
3195.04645	4695.9625
3197.35725	4688.2625
3199.66667	4703.4625
3201.97469	4713.9625
3204.28132	4713.8625
3206.58656	4703.6625
3208.8904	4727.1625
3211.19287	4723.4625
3213.49394	4721.1625
3215.79363	4728.0625
3218.09193	4742.1625
3220.38884	4750.9625
3222.68438	4740.2625
3224.97853	4728.5625
3227.2713	4720.6625
3229.56269	4734.1625
3231.8527	4726.0625
3234.14133	4705.0625
3236.42858	4704.8625
3238.71446	4677.6625
3240.99896	4680.5625
3243.28209	4688.2625
3245.56384	4664.3625
3247.84423	4665.7625
3250.12324	4660.5625
3252.40088	4656.8625
3254.67715	4646.3625
3256.95205	4655.8625
3259.22558	4631.8625
3261.49775	4638.5625
3263.76855	4640.7625
3266.03799	4622.7625
3268.30606	4629.5625
3270.57277	4610.5625
3272.83812	4600.8625
3275.10211	4586.2625
3277.36474	4585.7625
3279.62601	4567.9625
3281.88593	4567.4625
3284.14448	4570.1625
3286.40168	4558.7625
3288.65753	4577.2625
3290.91202	4571.3625
3293.16516	4561.1625
3295.41695	4545.4625
3297.66738	4535.2625
3299.91647	4516.8625
3302.16421	4475.4625
3304.4106	4450.4625
3306.65564	4413.1625
3308.89933	4384.6625
3311.14169	4365.0625
3313.38269	4310.6625
3315.62236	4287.2625
3317.86068	4233.2625
3320.09766	4221.4625
3322.3333	4173.8625
3324.5676	4158.8625
3326.80056	4098.8625
3329.03219	4071.6625
3331.26248	2.1625
3333.49143	-1.0375
3335.71905	-1.0375
