Data from AgNP_FTO_APTES_UA_10uM_CRN_5uM_R6G_10uM_NaF_0.1M_Addition_RamanShift__25__15-11-30-666.txt Node

Date: Thu Feb 10 15:11:30 GMT 2022
User: TCL
Spectrometer: QEP01345
Trigger mode: 4
Integration Time (sec): 7.000000E0
Scans to average: 10
Electric dark correction enabled: true
Nonlinearity correction enabled: false
Boxcar width: 0
XAxis mode: Raman Shifts
Number of Pixels in Spectrum: 1044
>>>>>Begin Spectral Data<<<<<
46.04893	-1.2125
50.45542	-0.5125
54.85868	-1.8125
59.25871	-3.1125
63.6555	69.7875
68.04907	74.6875
72.43941	81.4875
76.82654	75.4875
81.21044	87.9875
85.59113	83.4875
89.96862	91.9875
94.34289	93.7875
98.71396	95.4875
103.08183	99.9875
107.4465	102.9875
111.80798	101.8875
116.16626	107.2875
120.52136	113.4875
124.87327	115.4875
129.222	120.8875
133.56755	132.0875
137.90993	137.4875
142.24913	149.2875
146.58517	168.2875
150.91804	196.9875
155.24774	232.8875
159.57429	287.0875
163.89768	366.8875
168.21792	490.8875
172.53501	666.2875
176.84895	927.1875
181.15975	1297.3875
185.46741	1811.7875
189.77193	2499.4875
194.07331	3332.8875
198.37157	4305.5875
202.6667	5291.8875
206.9587	6279.7875
211.24758	7274.6875
215.53334	8279.1875
219.81599	9371.2875
224.09553	10549.1875
228.37195	11941.7875
232.64527	13416.0875
236.91549	14937.3875
241.18261	16406.7875
245.44663	17754.9875
249.70755	18924.9875
253.96539	19975.4875
258.22014	20921.3875
262.4718	21683.1875
266.72039	22260.2875
270.96589	22666.0875
275.20832	22802.3875
279.44768	22790.2875
283.68397	22691.4875
287.91719	22560.0875
292.14735	22635.8875
296.37445	22785.6875
300.59849	23022.3875
304.81948	23291.9875
309.03742	23370.4875
313.25231	23029.5875
317.46415	22210.1875
321.67296	21198.6875
325.87872	20368.8875
330.08145	19964.9875
334.28114	19950.2875
338.47781	20228.5875
342.67145	20637.4875
346.86207	21152.7875
351.04966	21887.3875
355.23424	22720.5875
359.4158	23344.9875
363.59435	23694.8875
367.76989	23818.1875
371.94243	23918.4875
376.11196	23898.0875
380.27849	23920.7875
384.44203	23875.5875
388.60257	23863.0875
392.76012	23968.2875
396.91468	24257.4875
401.06626	24792.5875
405.21485	25152.7875
409.36047	24965.0875
413.50311	24316.2875
417.64277	23752.1875
421.77947	23536.2875
425.9132	23548.8875
430.04396	23720.8875
434.17176	23824.9875
438.2966	24074.2875
442.41849	24564.9875
446.53742	25211.0875
450.6534	25927.5875
454.76644	26439.8875
458.87653	26668.6875
462.98368	26561.6875
467.08789	26278.4875
471.18916	25803.0875
475.2875	25316.7875
479.38291	24993.9875
483.4754	24705.5875
487.56496	24401.1875
491.6516	24031.9875
495.73531	23744.2875
499.81612	23673.9875
503.89401	23818.3875
507.96899	23964.3875
512.04106	23939.5875
516.11023	23979.9875
520.1765	23995.6875
524.23987	23899.5875
528.30034	23580.9875
532.35792	23248.5875
536.41261	22922.4875
540.46441	22608.5875
544.51333	22592.2875
548.55936	22898.4875
552.60252	23492.0875
556.64279	24075.1875
560.6802	24340.2875
564.71473	24560.3875
568.7464	25113.2875
572.7752	25650.4875
576.80114	25726.1875
580.82422	25617.4875
584.84444	25524.1875
588.86181	25602.5875
592.87633	25778.9875
596.888	26012.8875
600.89682	26564.9875
604.9028	28397.1875
608.90594	32766.2875
612.90624	37731.3875
616.90371	35363.2875
620.89834	27888.9875
624.89015	24815.3875
628.87913	24458.9875
632.86528	24343.7875
636.84862	24128.9875
640.82913	23598.1875
644.80683	22839.4875
648.78172	22313.5875
652.75379	22297.1875
656.72306	22861.0875
660.68952	23568.5875
664.65319	23485.1875
668.61405	22883.6875
672.57211	22539.5875
676.52738	22531.7875
680.47986	22516.5875
684.42955	22448.2875
688.37646	22467.0875
692.32058	22598.7875
696.26192	22808.6875
700.20048	23109.0875
704.13626	23312.2875
708.06928	23252.9875
711.99952	23043.2875
715.927	22919.0875
719.85171	22915.9875
723.77365	22801.7875
727.69284	22571.2875
731.60928	22348.3875
735.52295	22228.8875
739.43388	22315.7875
743.34206	22465.6875
747.24749	22646.2875
751.15017	22884.1875
755.05012	23385.0875
758.94733	24255.6875
762.8418	25960.0875
766.73354	28801.0875
770.62254	31411.2875
774.50882	32168.4875
778.39237	30396.8875
782.27321	27411.5875
786.15132	24931.0875
790.02671	23521.9875
793.89938	22880.1875
797.76935	22657.1875
801.6366	22522.3875
805.50115	22407.8875
809.36299	22267.2875
813.22213	22142.5875
817.07857	22094.8875
820.93231	22114.0875
824.78336	22135.1875
828.63172	22145.9875
832.47738	22231.2875
836.32036	22246.5875
840.16066	22313.4875
843.99827	22349.8875
847.8332	22328.2875
851.66546	22186.6875
855.49504	22116.1875
859.32195	22072.7875
863.1462	21943.9875
866.96777	21791.1875
870.78668	21739.7875
874.60293	21768.8875
878.41652	21815.1875
882.22745	21885.3875
886.03573	21920.8875
889.84136	21908.2875
893.64433	21808.3875
897.44466	21724.7875
901.24235	21688.5875
905.0374	21686.5875
908.8298	21676.5875
912.61957	21728.0875
916.40671	21956.4875
920.19121	22288.4875
923.97308	22612.2875
927.75233	22770.5875
931.52895	22772.1875
935.30295	22483.1875
939.07433	21967.1875
942.84309	21541.6875
946.60924	21326.7875
950.37278	21291.6875
954.13371	21096.5875
957.89203	20980.2875
961.64774	20913.0875
965.40086	20834.5875
969.15137	20764.3875
972.89929	20696.9875
976.64461	20677.0875
980.38733	20717.0875
984.12747	20803.8875
987.86502	21022.4875
991.59999	21354.4875
995.33237	21873.0875
999.06217	22772.8875
1002.78939	23709.9875
1006.51404	24235.6875
1010.23611	24544.2875
1013.95561	24794.8875
1017.67255	24784.8875
1021.38692	24520.4875
1025.09872	24383.8875
1028.80796	24797.2875
1032.51465	25826.5875
1036.21877	26725.9875
1039.92035	26765.6875
1043.61937	26146.4875
1047.31584	25169.9875
1051.00976	24229.0875
1054.70114	23776.1875
1058.38998	23747.0875
1062.07627	23837.0875
1065.76003	23900.0875
1069.44126	23959.6875
1073.11995	24122.5875
1076.79611	24323.9875
1080.46974	24513.2875
1084.14085	24801.9875
1087.80943	25148.8875
1091.47549	25304.7875
1095.13903	25060.6875
1098.80005	24562.2875
1102.45857	24007.8875
1106.11456	23737.2875
1109.76805	23749.1875
1113.41903	23978.0875
1117.06751	24385.6875
1120.71348	24780.4875
1124.35696	25257.2875
1127.99793	25667.4875
1131.63641	25723.5875
1135.2724	25310.4875
1138.90589	24839.7875
1142.5369	24513.7875
1146.16542	24299.8875
1149.79145	24275.2875
1153.415	24415.0875
1157.03607	24732.0875
1160.65467	25306.4875
1164.27079	26218.8875
1167.88443	27476.8875
1171.49561	29312.6875
1175.10432	32072.8875
1178.71056	35568.4875
1182.31434	38585.3875
1185.91565	40153.1875
1189.51451	40092.5875
1193.11091	38463.4875
1196.70485	36192.1875
1200.29634	34106.6875
1203.88538	32530.3875
1207.47197	31091.2875
1211.05612	29951.7875
1214.63782	29316.5875
1218.21708	29271.6875
1221.79391	29456.2875
1225.36829	29700.5875
1228.94024	29585.9875
1232.50976	29277.8875
1236.07685	29043.4875
1239.6415	28850.6875
1243.20374	28769.1875
1246.76355	28917.4875
1250.32093	29394.8875
1253.8759	30182.2875
1257.42845	31163.1875
1260.97859	32069.9875
1264.52631	32831.3875
1268.07163	33641.2875
1271.61453	34611.2875
1275.15503	35676.8875
1278.69312	36720.7875
1282.22882	37534.4875
1285.76211	38191.3875
1289.29301	38858.7875
1292.82151	39652.8875
1296.34761	40834.5875
1299.87133	42707.3875
1303.39266	45535.3875
1306.9116	49333.9875
1310.42815	53578.4875
1313.94233	56336.1875
1317.45412	56231.7875
1320.96354	54353.4875
1324.47058	51997.1875
1327.97525	49927.2875
1331.47754	48614.4875
1334.97747	48273.1875
1338.47502	48633.8875
1341.97022	49229.5875
1345.46305	49445.0875
1348.95352	49218.0875
1352.44163	49257.6875
1355.92738	50651.7875
1359.41078	54136.8875
1362.89183	57408.7875
1366.37053	55738.9875
1369.84688	49710.7875
1373.32088	43633.6875
1376.79254	39752.2875
1380.26186	38034.1875
1383.72883	37279.5875
1387.19347	36719.0875
1390.65578	36210.2875
1394.11575	36016.3875
1397.57339	36317.4875
1401.0287	36944.1875
1404.48168	37754.9875
1407.93234	38521.8875
1411.38068	38797.7875
1414.82669	38407.5875
1418.27039	37240.9875
1421.71177	35771.4875
1425.15083	34435.5875
1428.58758	33692.5875
1432.02203	33579.1875
1435.45416	33835.2875
1438.88399	34167.6875
1442.31151	34506.8875
1445.73673	34896.7875
1449.15965	35301.6875
1452.58027	35501.4875
1455.9986	35566.0875
1459.41463	35781.9875
1462.82837	36195.2875
1466.23982	36840.6875
1469.64898	37644.3875
1473.05586	38052.2875
1476.46045	38284.8875
1479.86276	38488.8875
1483.26279	38705.2875
1486.66054	39035.6875
1490.05602	39569.6875
1493.44922	40274.5875
1496.84016	41095.5875
1500.22882	42369.7875
1503.61521	44175.3875
1506.99934	46589.5875
1510.38121	49105.0875
1513.76081	50465.2875
1517.13816	49489.0875
1520.51324	46576.6875
1523.88607	43411.2875
1527.25665	41103.7875
1530.62498	39652.8875
1533.99105	38820.3875
1537.35488	38262.9875
1540.71647	37935.7875
1544.07581	37574.4875
1547.4329	37132.8875
1550.78776	36727.2875
1554.14038	36536.8875
1557.49077	36503.5875
1560.83892	36724.0875
1564.18484	36871.9875
1567.52853	36865.1875
1570.86999	36813.8875
1574.20922	36921.0875
1577.54624	36852.6875
1580.88103	36336.9875
1584.2136	35893.4875
1587.54395	36418.7875
1590.87208	38087.0875
1594.19801	40683.8875
1597.52172	43592.1875
1600.84321	44620.8875
1604.16251	42948.4875
1607.47959	39710.4875
1610.79447	36316.0875
1614.10715	33263.9875
1617.41763	30830.6875
1620.7259	29204.4875
1624.03199	28485.7875
1627.33587	28545.6875
1630.63757	29434.8875
1633.93707	31129.0875
1637.23439	33463.0875
1640.52951	36337.4875
1643.82246	39336.8875
1647.11321	41797.3875
1650.40179	42789.3875
1653.68819	40709.4875
1656.97241	36103.2875
1660.25446	31312.7875
1663.53433	27731.8875
1666.81203	25456.5875
1670.08756	24011.0875
1673.36092	23136.1875
1676.63211	22555.1875
1679.90115	22129.1875
1683.16801	21831.5875
1686.43272	21633.8875
1689.69527	21426.1875
1692.95567	21322.5875
1696.2139	21246.5875
1699.46999	21206.7875
1702.72392	21144.3875
1705.97571	21117.2875
1709.22535	21088.3875
1712.47284	21033.8875
1715.71819	21023.9875
1718.96139	20993.5875
1722.20246	20949.8875
1725.44139	20851.9875
1728.67818	20741.2875
1731.91284	20610.0875
1735.14537	20522.2875
1738.37576	20464.7875
1741.60403	20383.3875
1744.83017	20341.8875
1748.05418	20242.9875
1751.27607	20228.1875
1754.49584	20233.7875
1757.71349	20225.5875
1760.92903	20223.4875
1764.14244	20194.5875
1767.35375	20186.4875
1770.56294	20163.1875
1773.77002	20135.9875
1776.97499	20067.1875
1780.17785	20049.6875
1783.37861	20015.7875
1786.57727	20018.6875
1789.77382	19941.8875
1792.96828	19920.5875
1796.16064	19917.8875
1799.3509	19883.5875
1802.53907	19915.5875
1805.72514	19824.3875
1808.90913	19770.7875
1812.09102	19793.2875
1815.27083	19725.0875
1818.44856	19694.4875
1821.6242	19682.4875
1824.79776	19644.2875
1827.96924	19650.1875
1831.13864	19637.9875
1834.30597	19628.3875
1837.47122	19630.1875
1840.6344	19629.6875
1843.7955	19638.2875
1846.95454	19632.5875
1850.11151	19649.8875
1853.26642	19666.6875
1856.41926	19694.1875
1859.57004	19702.7875
1862.71876	19692.1875
1865.86542	19698.0875
1869.01003	19706.2875
1872.15258	19716.8875
1875.29308	19700.0875
1878.43152	19715.0875
1881.56792	19752.2875
1884.70227	19741.3875
1887.83457	19759.6875
1890.96482	19769.6875
1894.09304	19745.6875
1897.21921	19780.7875
1900.34335	19764.1875
1903.46544	19780.1875
1906.58551	19772.7875
1909.70353	19781.7875
1912.81953	19756.8875
1915.93349	19807.9875
1919.04543	19770.1875
1922.15534	19724.2875
1925.26322	19683.7875
1928.36908	19643.4875
1931.47292	19596.1875
1934.57473	19519.4875
1937.67453	19452.4875
1940.77232	19352.4875
1943.86808	19283.2875
1946.96184	19159.0875
1950.05358	19086.1875
1953.14331	18996.2875
1956.23103	18946.7875
1959.31675	18888.4875
1962.40046	18833.0875
1965.48217	18761.2875
1968.56188	18716.0875
1971.63959	18648.6875
1974.7153	18652.0875
1977.78901	18548.6875
1980.86073	18467.5875
1983.93046	18431.4875
1986.99819	18374.6875
1990.06394	18338.4875
1993.1277	18248.6875
1996.18947	18201.8875
1999.24925	18154.7875
2002.30706	18123.8875
2005.36288	18081.8875
2008.41672	18017.1875
2011.46859	17953.1875
2014.51848	17939.6875
2017.56639	17926.5875
2020.61233	17840.2875
2023.6563	17833.8875
2026.6983	17791.6875
2029.73833	17767.5875
2032.7764	17725.9875
2035.8125	17713.1875
2038.84664	17662.0875
2041.87881	17629.2875
2044.90903	17600.8875
2047.93729	17595.3875
2050.96359	17612.3875
2053.98794	17552.4875
2057.01034	17531.4875
2060.03078	17516.4875
2063.04927	17511.2875
2066.06582	17502.1875
2069.08042	17474.5875
2072.09307	17444.4875
2075.10378	17454.8875
2078.11255	17435.8875
2081.11938	17405.5875
2084.12426	17379.5875
2087.12722	17416.4875
2090.12824	17356.7875
2093.12732	17338.2875
2096.12447	17351.7875
2099.11969	17322.3875
2102.11299	17363.0875
2105.10435	17354.0875
2108.09379	17358.1875
2111.08131	17366.6875
2114.0669	17360.0875
2117.05057	17424.0875
2120.03233	17399.1875
2123.01216	17407.6875
2125.99008	17438.8875
2128.96609	17447.0875
2131.94018	17485.9875
2134.91236	17494.7875
2137.88263	17485.7875
2140.851	17505.8875
2143.81746	17506.8875
2146.78201	17510.0875
2149.74466	17520.7875
2152.7054	17553.8875
2155.66425	17494.6875
2158.6212	17526.0875
2161.57625	17518.1875
2164.52941	17488.0875
2167.48067	17489.5875
2170.43004	17468.5875
2173.37752	17457.6875
2176.32311	17469.5875
2179.26681	17490.0875
2182.20863	17487.2875
2185.14856	17479.8875
2188.08661	17478.8875
2191.02278	17539.6875
2193.95707	17523.4875
2196.88948	17529.9875
2199.82001	17525.4875
2202.74867	17473.0875
2205.67545	17517.9875
2208.60037	17492.8875
2211.52341	17460.8875
2214.44458	17493.7875
2217.36388	17467.9875
2220.28132	17449.2875
2223.1969	17400.3875
2226.11061	17379.8875
2229.02246	17335.0875
2231.93245	17319.2875
2234.84058	17267.6875
2237.74686	17249.2875
2240.65128	17230.3875
2243.55385	17163.7875
2246.45456	17160.8875
2249.35343	17166.3875
2252.25044	17161.1875
2255.14561	17151.1875
2258.03893	17134.7875
2260.93041	17119.9875
2263.82004	17053.9875
2266.70783	17000.4875
2269.59378	16937.8875
2272.4779	16894.4875
2275.36017	16844.6875
2278.24061	16830.2875
2281.11922	16824.3875
2283.996	16777.4875
2286.87094	16788.4875
2289.74405	16752.1875
2292.61534	16761.4875
2295.4848	16752.2875
2298.35243	16759.3875
2301.21824	16801.8875
2304.08223	16801.6875
2306.94439	16800.2875
2309.80474	16818.1875
2312.66327	16854.5875
2315.51999	16843.8875
2318.37489	16846.5875
2321.22797	16840.1875
2324.07925	16836.8875
2326.92871	16804.2875
2329.77637	16799.4875
2332.62222	16808.8875
2335.46626	16825.3875
2338.3085	16814.9875
2341.14893	16863.5875
2343.98756	16876.4875
2346.8244	16899.8875
2349.65943	16918.1875
2352.49267	16902.8875
2355.32411	16877.7875
2358.15376	16850.1875
2360.98161	16872.9875
2363.80768	16863.1875
2366.63195	16827.3875
2369.45444	16780.4875
2372.27514	16728.9875
2375.09405	16713.1875
2377.91118	16676.7875
2380.72652	16594.6875
2383.54009	16551.9875
2386.35187	16553.7875
2389.16188	16514.9875
2391.97011	16467.4875
2394.77657	16442.9875
2397.58125	16446.5875
2400.38416	16419.0875
2403.18529	16357.5875
2405.98466	16346.9875
2408.78226	16276.8875
2411.57809	16253.5875
2414.37216	16244.7875
2417.16446	16227.1875
2419.955	16191.3875
2422.74378	16165.5875
2425.5308	16128.2875
2428.31606	16154.4875
2431.09956	16155.6875
2433.88131	16141.4875
2436.6613	16135.0875
2439.43954	16148.0875
2442.21603	16154.5875
2444.99077	16096.3875
2447.76377	16096.2875
2450.53501	16087.3875
2453.30451	16084.8875
2456.07226	16088.7875
2458.83827	16102.6875
2461.60254	16089.5875
2464.36507	16092.0875
2467.12586	16075.1875
2469.88492	16062.8875
2472.64224	16064.2875
2475.39782	16087.6875
2478.15167	16151.7875
2480.90379	16150.2875
2483.65417	16207.6875
2486.40283	16228.5875
2489.14976	16212.0875
2491.89497	16225.4875
2494.63845	16256.0875
2497.3802	16245.5875
2500.12024	16255.7875
2502.85855	16204.6875
2505.59514	16194.5875
2508.33002	16175.7875
2511.06318	16128.2875
2513.79462	16129.5875
2516.52435	16108.4875
2519.25237	16082.8875
2521.97867	16079.3875
2524.70327	16066.7875
2527.42616	16072.8875
2530.14734	16042.3875
2532.86681	16033.9875
2535.58458	16037.3875
2538.30065	16043.0875
2541.01501	16050.3875
2543.72768	16005.9875
2546.43864	16028.5875
2549.14791	16031.6875
2551.85548	16015.0875
2554.56136	15992.9875
2557.26554	15958.6875
2559.96803	15936.8875
2562.66883	15934.8875
2565.36794	15931.0875
2568.06536	15900.4875
2570.7611	15901.2875
2573.45514	15885.8875
2576.14751	15886.3875
2578.83819	15866.5875
2581.52719	15861.7875
2584.21451	15884.9875
2586.90015	15879.9875
2589.58411	15857.9875
2592.2664	15871.2875
2594.94701	15852.4875
2597.62594	15867.1875
2600.30321	15843.8875
2602.9788	15837.2875
2605.65273	15841.5875
2608.32498	15836.1875
2610.99557	15820.3875
2613.66449	15869.5875
2616.33175	15872.7875
2618.99734	15905.0875
2621.66128	15894.0875
2624.32355	15923.9875
2626.98416	15876.5875
2629.64311	15897.9875
2632.30041	15891.5875
2634.95605	15873.9875
2637.61004	15859.0875
2640.26238	15820.5875
2642.91306	15812.6875
2645.56209	15780.3875
2648.20948	15774.5875
2650.85521	15692.1875
2653.4993	15744.9875
2656.14175	15717.2875
2658.78255	15730.6875
2661.42171	15750.9875
2664.05923	15780.6875
2666.6951	15782.7875
2669.32934	15838.2875
2671.96194	15822.6875
2674.59291	15826.2875
2677.22224	15847.1875
2679.84993	15852.7875
2682.476	15812.5875
2685.10043	15790.4875
2687.72324	15766.6875
2690.34441	15776.7875
2692.96396	15781.9875
2695.58188	15755.4875
2698.19818	15754.9875
2700.81285	15771.5875
2703.4259	15756.2875
2706.03733	15792.0875
2708.64714	15758.3875
2711.25533	15788.5875
2713.86191	15772.8875
2716.46687	15773.6875
2719.07021	15786.2875
2721.67194	15786.5875
2724.27206	15784.7875
2726.87057	15796.9875
2729.46747	15808.2875
2732.06276	15808.8875
2734.65644	15814.0875
2737.24852	15807.6875
2739.83899	15765.8875
2742.42786	15792.8875
2745.01513	15754.2875
2747.60079	15737.9875
2750.18486	15731.6875
2752.76733	15742.5875
2755.3482	15738.3875
2757.92747	15744.8875
2760.50515	15703.7875
2763.08123	15715.7875
2765.65573	15662.0875
2768.22863	15645.7875
2770.79994	15670.6875
2773.36967	15673.2875
2775.9378	15707.7875
2778.50435	15697.7875
2781.06932	15679.9875
2783.6327	15716.4875
2786.1945	15706.1875
2788.75471	15679.9875
2791.31335	15633.2875
2793.87041	15631.4875
2796.42589	15630.5875
2798.97979	15603.6875
2801.53212	15573.7875
2804.08288	15577.5875
2806.63206	15534.7875
2809.17967	15528.5875
2811.72571	15480.5875
2814.27018	15473.2875
2816.81308	15436.9875
2819.35442	15420.2875
2821.89419	15425.6875
2824.43239	15401.6875
2826.96904	15406.3875
2829.50412	15398.2875
2832.03763	15387.5875
2834.56959	15395.4875
2837.1	15373.9875
2839.62884	15390.5875
2842.15613	15356.5875
2844.68186	15399.4875
2847.20604	15399.7875
2849.72867	15428.8875
2852.24974	15434.4875
2854.76927	15389.9875
2857.28724	15346.6875
2859.80367	15319.3875
2862.31855	15305.7875
2864.83189	15282.6875
2867.34368	15251.0875
2869.85393	15268.9875
2872.36264	15281.1875
2874.8698	15278.1875
2877.37543	15264.1875
2879.87952	15302.2875
2882.38207	15296.4875
2884.88308	15284.7875
2887.38256	15294.0875
2889.88051	15229.3875
2892.37692	15260.0875
2894.8718	15287.9875
2897.36515	15301.5875
2899.85698	15336.5875
2902.34727	15374.6875
2904.83604	15364.4875
2907.32328	15400.4875
2909.809	15406.7875
2912.29319	15405.6875
2914.77587	15399.7875
2917.25702	15395.9875
2919.73665	15349.2875
2922.21476	15385.8875
2924.69136	15332.1875
2927.16644	15346.6875
2929.64	15315.3875
2932.11205	15296.1875
2934.58258	15218.0875
2937.05161	15247.0875
2939.51912	15255.6875
2941.98513	15233.6875
2944.44962	15149.1875
2946.91261	15155.0875
2949.37409	15182.9875
2951.83407	15134.4875
2954.29254	15110.6875
2956.74951	15115.6875
2959.20498	15104.7875
2961.65895	15109.7875
2964.11142	15105.5875
2966.56239	15079.9875
2969.01186	15087.6875
2971.45984	15055.2875
2973.90632	15026.3875
2976.35131	14974.0875
2978.7948	14952.4875
2981.23681	14894.9875
2983.67732	14899.5875
2986.11635	14837.9875
2988.55388	14767.9875
2990.98993	14764.0875
2993.4245	14739.3875
2995.85758	14710.1875
2998.28917	14700.7875
3000.71928	14674.3875
3003.14791	14639.9875
3005.57506	14629.6875
3008.00073	14578.1875
3010.42493	14436.0875
3012.84764	14534.4875
3015.26888	14515.9875
3017.68865	14456.8875
3020.10694	14441.6875
3022.52376	14452.9875
3024.9391	14408.3875
3027.35298	14398.7875
3029.76539	14412.7875
3032.17632	14384.0875
3034.5858	14364.7875
3036.9938	14348.7875
3039.40034	14350.1875
3041.80542	14350.3875
3044.20903	14322.8875
3046.61118	14314.0875
3049.01187	14263.2875
3051.4111	14261.2875
3053.80888	14219.3875
3056.20519	14200.2875
3058.60005	14184.5875
3060.99345	14138.4875
3063.3854	14114.0875
3065.7759	14047.8875
3068.16494	14025.9875
3070.55254	13953.4875
3072.93868	13975.4875
3075.32338	13870.0875
3077.70662	13878.0875
3080.08842	13820.8875
3082.46878	13819.6875
3084.84769	13793.5875
3087.22515	13815.4875
3089.60118	13782.6875
3091.97576	13794.9875
3094.3489	13776.5875
3096.72061	13772.7875
3099.09087	13777.4875
3101.4597	13773.4875
3103.82709	13741.3875
3106.19305	13746.9875
3108.55757	13755.5875
3110.92066	13725.4875
3113.28232	13680.3875
3115.64255	13639.4875
3118.00134	13622.4875
3120.35871	13615.2875
3122.71466	13585.5875
3125.06917	13533.0875
3127.42226	13543.6875
3129.77393	13552.9875
3132.12417	13488.4875
3134.47299	13474.3875
3136.82039	13482.1875
3139.16636	13510.3875
3141.51092	13469.4875
3143.85406	13485.8875
3146.19579	13446.1875
3148.53609	13460.2875
3150.87499	13462.2875
3153.21246	13479.0875
3155.54853	13483.1875
3157.88318	13490.8875
3160.21642	13489.7875
3162.54826	13496.3875
3164.87868	13506.4875
3167.2077	13513.4875
3169.5353	13499.6875
3171.86151	13504.0875
3174.18631	13496.8875
3176.5097	13482.2875
3178.83169	13456.7875
3181.15228	13448.6875
3183.47147	13410.0875
3185.78926	13416.4875
3188.10565	13395.5875
3190.42065	13380.5875
3192.73424	13386.6875
3195.04645	13401.8875
3197.35725	13358.4875
3199.66667	13378.6875
3201.97469	13394.7875
3204.28132	13431.3875
3206.58656	13450.3875
3208.8904	13426.5875
3211.19287	13418.1875
3213.49394	13420.5875
3215.79363	13430.2875
3218.09193	13456.4875
3220.38884	13403.9875
3222.68438	13442.5875
3224.97853	13429.5875
3227.2713	13425.9875
3229.56269	13429.2875
3231.8527	13428.8875
3234.14133	13359.8875
3236.42858	13376.3875
3238.71446	13331.4875
3240.99896	13308.5875
3243.28209	13293.4875
3245.56384	13280.7875
3247.84423	13281.6875
3250.12324	13251.7875
3252.40088	13246.5875
3254.67715	13232.7875
3256.95205	13208.9875
3259.22558	13212.2875
3261.49775	13208.8875
3263.76855	13192.1875
3266.03799	13167.6875
3268.30606	13201.9875
3270.57277	13143.3875
3272.83812	13102.7875
3275.10211	13095.1875
3277.36474	13079.0875
3279.62601	13087.1875
3281.88593	13052.1875
3284.14448	13049.9875
3286.40168	13048.3875
3288.65753	13030.5875
3290.91202	13032.9875
3293.16516	13004.0875
3295.41695	12977.3875
3297.66738	12920.8875
3299.91647	12875.0875
3302.16421	12779.9875
3304.4106	12735.3875
3306.65564	12638.4875
3308.89933	12565.5875
3311.14169	12483.0875
3313.38269	12376.4875
3315.62236	12302.8875
3317.86068	12201.3875
3320.09766	12108.1875
3322.3333	12044.8875
3324.5676	11979.2875
3326.80056	11809.0875
3329.03219	11728.2875
3331.26248	5.8875
3333.49143	-0.1125
3335.71905	-0.3125
